// General information: 
//  MT Manager version: 2019.2.0 
//  XDA version: 2019.2.0 build 3853 rev 94535 built on 2019-09-09
// Device information: 
//  DeviceId: 00B40AC5
//  ProductCode: MTW2-3A7G6
//  Firmware Version: 4.3.5
//  Hardware Version: 1.1.0
// Device settings: 
//  Filter Profile: human(46.1)
//  Option Flags: Orientation Smoother Disabled, AHS Disabled, ICC Disabled
// Coordinate system: ENU
PacketCounter	SampleTimeFine	Acc_X	Acc_Y	Acc_Z	FreeAcc_E	FreeAcc_N	FreeAcc_U	Gyr_X	Gyr_Y	Gyr_Z	Mag_X	Mag_Y	Mag_Z	VelInc_X	VelInc_Y	VelInc_Z	Quat_q0	Quat_q1	Quat_q2	Quat_q3	Roll	Pitch	Yaw
25329		0.177997	4.742284	7.485443	7.068863	4.272278	-13.026162	-0.705725	3.058523	-0.256160	-0.507080	0.401855	0.572754	0.002984	0.047683	0.074647	-0.390939	0.725987	0.327598	0.461290	-135.360124	-67.807949	17.724602
25330		1.002219	2.348207	6.520697	5.062613	4.647478	-11.156066	-0.524542	3.102327	-0.752094	-0.520508	0.397217	0.543945	0.011120	0.023612	0.064978	-0.392290	0.718603	0.323011	0.474745	-133.201635	-69.347079	15.079124
25331		1.870120	1.913208	5.742666	4.715168	4.230687	-9.829760	-0.123345	3.275894	-1.260564	-0.544678	0.385986	0.526611	0.019758	0.019045	0.057097	-0.394071	0.708878	0.320782	0.489182	-130.728260	-71.148997	12.375232
25332		2.736150	2.230532	5.752159	5.265284	4.110556	-8.851738	0.189950	3.531233	-1.684168	-0.569580	0.390137	0.497559	0.028558	0.022014	0.057045	-0.396174	0.697105	0.320196	0.504544	-127.666038	-73.165961	9.269049
25333		3.636224	2.986339	5.868765	6.175923	3.840456	-7.893674	0.309052	3.865996	-2.018513	-0.598145	0.372070	0.467041	0.037786	0.029397	0.058012	-0.398241	0.683292	0.320283	0.521473	-123.465176	-75.406327	5.089085
25334		4.062249	3.094057	5.965087	6.343806	3.806402	-7.183440	0.213396	4.226253	-2.254680	-0.624756	0.360840	0.432129	0.042216	0.030408	0.058803	-0.399708	0.668121	0.320035	0.539838	-117.368662	-77.740472	-1.055468
25335		4.431470	2.115540	6.088847	5.529888	4.266762	-6.292870	0.033895	4.573032	-2.429575	-0.644287	0.340576	0.392822	0.045944	0.020594	0.059854	-0.400435	0.651540	0.319000	0.559809	-107.696004	-80.048336	-10.890819
25336		4.928782	0.509091	6.019559	4.041807	4.803587	-5.190757	-0.039210	4.941433	-2.563244	-0.668701	0.329346	0.355469	0.050815	0.004458	0.058952	-0.400825	0.633531	0.317223	0.580816	-91.637643	-81.985147	-27.170375
25337		5.225970	-0.890409	5.961991	2.634684	5.217020	-4.383593	0.028810	5.279289	-2.595485	-0.688232	0.311523	0.309570	0.053687	-0.009603	0.058214	-0.401568	0.613686	0.314809	0.602519	-66.835242	-82.907559	-52.166319
25338		5.359715	-1.910397	5.775736	1.423695	5.319061	-3.862884	0.241130	5.580911	-2.511729	-0.707764	0.291260	0.261475	0.054934	-0.019857	0.056213	-0.403306	0.592237	0.311890	0.623959	-40.405106	-82.153263	-78.678778
25339		5.562211	-2.440079	5.769873	0.679505	5.298844	-3.360872	0.531819	5.845380	-2.323407	-0.722900	0.275635	0.213135	0.056985	-0.025208	0.055980	-0.406539	0.568939	0.308475	0.644885	-21.743070	-79.936845	-97.255763
25340		5.757936	-2.552129	5.874424	0.309335	5.132176	-2.904734	0.813267	6.052312	-2.044919	-0.733887	0.262451	0.162598	0.059053	-0.026354	0.056866	-0.411355	0.544417	0.304454	0.664609	-11.022686	-76.937973	-107.721713
25341		5.970084	-2.550617	6.124372	0.063795	4.981320	-2.409107	1.066236	6.195379	-1.713053	-0.728516	0.242676	0.114502	0.061333	-0.026346	0.059221	-0.417772	0.518665	0.299737	0.683089	-4.833911	-73.542966	-113.487326
25342		6.340183	-2.483934	6.454122	-0.143941	4.771508	-1.737643	1.290786	6.266756	-1.349446	-0.732910	0.238281	0.063721	0.065207	-0.025682	0.062353	-0.425654	0.492365	0.294398	0.699804	-1.192116	-70.008036	-116.545176
25343		7.262978	-2.076489	6.783398	-0.193124	4.150981	-0.551316	1.494840	6.302000	-0.993188	-0.728271	0.229492	0.010742	0.074609	-0.021627	0.065344	-0.434904	0.465327	0.288479	0.714919	1.106117	-66.385831	-118.097124
25344		8.144310	-1.349474	7.194582	0.013512	3.353996	0.609416	1.610163	6.336000	-0.686138	-0.721436	0.225342	-0.040039	0.083617	-0.014344	0.069206	-0.445081	0.438039	0.281903	0.728393	2.597561	-62.756334	-118.730734
25345		8.881133	-1.206394	7.552139	-0.354739	2.722128	1.579396	1.703837	6.330172	-0.473254	-0.711914	0.212402	-0.094971	0.091109	-0.012904	0.072554	-0.455769	0.410207	0.274880	0.740571	3.709445	-59.108213	-118.885162
25346		9.578243	-1.197588	8.022480	-0.842432	2.163414	2.519870	1.822898	6.232727	-0.367907	-0.702881	0.208008	-0.136963	0.098194	-0.012867	0.077075	-0.466454	0.382357	0.268044	0.751250	4.666710	-55.543030	-118.785916
25347		11.410360	-0.910253	9.101120	-1.273349	1.271368	4.697522	1.952277	6.072765	-0.376743	-0.686768	0.197266	-0.187744	0.116776	-0.010186	0.087396	-0.476669	0.354209	0.261771	0.760788	5.656935	-52.046715	-118.625468
25348		12.748447	-1.174141	10.607388	-2.088679	1.003942	6.648092	2.049894	5.953605	-0.529637	-0.672852	0.182129	-0.235840	0.130530	-0.013145	0.102088	-0.485827	0.325913	0.256198	0.769490	6.744162	-48.634605	-118.516809
25349		13.943901	-0.264192	13.013820	-1.752610	0.825736	9.160852	2.225139	5.744567	-0.691970	-0.656494	0.169189	-0.281982	0.143085	-0.004550	0.126019	-0.493913	0.297281	0.251784	0.777354	7.992581	-45.308532	-118.478487
25350		18.886417	1.668820	15.989464	-1.890560	-1.898417	14.840620	2.229998	5.632669	-0.905625	-0.633301	0.147217	-0.327637	0.193337	0.014075	0.154658	-0.500558	0.268710	0.247784	0.784754	9.291479	-42.051907	-118.514374
25351		26.425620	3.441798	17.593284	-3.799196	-7.682176	20.942916	2.033647	5.919667	-1.322191	-0.612305	0.123291	-0.364502	0.269526	0.030910	0.168333	-0.505174	0.238541	0.242574	0.793130	10.596611	-38.570090	-118.727907
25352		30.218264	3.002080	15.309177	-7.257377	-13.048049	20.734890	1.617300	6.465894	-1.925618	-0.584473	0.096924	-0.410156	0.307187	0.025893	0.143434	-0.507001	0.206447	0.234824	0.803235	11.788845	-34.733725	-119.178569
25353		27.744025	-1.296622	9.843411	-11.976984	-14.242088	13.026740	1.275611	6.620702	-2.663823	-0.556885	0.077393	-0.456055	0.280282	-0.017275	0.089085	-0.505051	0.173305	0.225747	0.814817	12.958428	-30.693899	-119.986436
25354		25.840705	0.855410	6.133954	-10.505613	-16.638233	8.037405	1.048218	6.035343	-3.068035	-0.533447	0.046875	-0.485840	0.260189	0.004277	0.053535	-0.499978	0.142618	0.217322	0.826107	14.050899	-26.932967	-121.014150
25355		27.830142	1.862235	2.672607	-11.513091	-20.932845	4.821382	0.340025	5.195409	-3.027433	-0.508057	0.027100	-0.513916	0.279110	0.014364	0.019509	-0.493127	0.116929	0.207796	0.836644	14.691881	-23.615460	-122.056434
25356		29.229358	-1.246038	-1.466929	-15.619432	-22.914870	-0.389178	-0.254643	4.441007	-2.861764	-0.482666	0.014160	-0.529053	0.291654	-0.016661	-0.021131	-0.485454	0.096075	0.197400	0.846249	14.922959	-20.748396	-123.065093
25357		26.730944	-5.850470	-6.559162	-18.679946	-20.985622	-8.291214	-0.342691	3.745488	-2.765156	-0.473389	0.000977	-0.548584	0.265176	-0.062299	-0.070467	-0.477151	0.078320	0.188149	0.854864	15.072936	-18.267675	-124.100108
25358		24.773441	-9.747962	-12.971168	-20.915425	-19.748822	-16.842711	0.089286	2.806106	-2.565220	-0.459473	-0.011963	-0.556885	0.244605	-0.100572	-0.133203	-0.468784	0.063795	0.182823	0.861828	15.429998	-16.341914	-125.141547
25359		25.577349	-11.581039	-18.474575	-22.623301	-21.045707	-23.035073	0.633089	1.713813	-2.150914	-0.445557	-0.025146	-0.565186	0.252915	-0.117950	-0.187292	-0.461240	0.053019	0.182229	0.866741	16.050910	-15.070616	-126.097222
25360		26.065266	-9.771030	-20.431445	-21.306603	-22.683481	-24.772195	0.633455	0.543750	-1.614853	-0.451904	-0.034180	-0.562744	0.259299	-0.099158	-0.205333	-0.454895	0.047837	0.184155	0.869982	16.621197	-14.523486	-126.924423
25361		26.505139	-7.816198	-18.809313	-20.293088	-23.207832	-22.734851	-0.165315	-0.602429	-1.040317	-0.458740	-0.034180	-0.556152	0.265204	-0.079696	-0.187229	-0.449775	0.049993	0.185093	0.872321	16.699558	-14.697836	-127.616955
25362		24.521995	-7.136786	-14.293482	-19.266082	-20.191279	-18.625674	-1.097017	-1.528846	-0.580061	-0.461182	-0.027588	-0.549561	0.246091	-0.072856	-0.140659	-0.445543	0.058698	0.183896	0.874201	16.219666	-15.455830	-128.203605
25363		17.942573	0.720851	-6.778908	-9.836174	-16.443922	-10.925242	-2.707651	-2.341886	-0.029091	-0.470947	-0.001221	-0.530762	0.180205	0.006283	-0.065771	-0.442405	0.075097	0.177315	0.875898	14.774324	-16.764860	-128.593352
25364		-4.292374	-0.218525	19.310512	2.323116	10.649458	6.694822	-3.221344	-3.150510	0.440544	-0.482910	0.018555	-0.511475	-0.045958	0.000819	0.192400	-0.440227	0.096498	0.169977	0.876354	12.984124	-18.589796	-128.789553
25365		-11.488207	5.444997	38.125730	12.711052	20.087376	22.589455	-3.000334	-2.897525	0.484649	-0.492676	0.040771	-0.499023	-0.120522	0.059856	0.378667	-0.438350	0.116361	0.162994	0.876209	11.289735	-20.292307	-128.870984
25366		0.990341	-11.217623	12.618800	-8.617431	10.523561	0.238002	-3.041901	-2.341431	0.579597	-0.502197	0.053711	-0.477295	0.008733	-0.110212	0.127981	-0.437137	0.133843	0.154441	0.875868	9.509767	-21.683677	-128.778667
25367		14.224518	-22.328529	-1.505006	-26.430814	1.957314	-8.980293	-1.355499	-3.444185	0.231795	-0.515869	0.064697	-0.450928	0.142718	-0.223204	-0.011082	-0.434518	0.152199	0.155882	0.873917	8.804784	-23.671113	-128.974821
25368		18.410237	-14.734878	12.929720	-20.592825	0.870337	7.459999	0.033445	-4.048923	0.465523	-0.533936	0.066650	-0.442139	0.181777	-0.146946	0.132968	-0.433339	0.170256	0.164446	0.869591	8.861976	-26.016342	-129.074672
25369		19.313651	-7.653416	16.358598	-14.409523	-1.764296	12.287178	0.370326	-3.105997	0.848155	-0.547607	0.072998	-0.418213	0.190890	-0.076028	0.166421	-0.434742	0.183821	0.172050	0.864643	8.961003	-27.870413	-128.841293
25370		14.791897	1.680777	8.102382	-5.336554	-7.273298	4.535671	0.409385	-2.702797	0.756096	-0.554688	0.079590	-0.413818	0.146741	0.017195	0.083047	-0.436023	0.195354	0.178990	0.860048	9.089395	-29.479718	-128.628221
25371		15.495423	7.533698	6.899226	-0.881546	-11.263261	4.911678	0.051838	-2.705165	0.358081	-0.570313	0.074951	-0.389404	0.153867	0.075595	0.071098	-0.435162	0.207379	0.184751	0.856444	9.133540	-31.064923	-128.672958
25372		16.174115	9.491566	10.077113	1.229291	-10.910171	8.426895	-0.387792	-2.289681	0.156258	-0.581787	0.088135	-0.378662	0.160500	0.095239	0.102429	-0.433287	0.218264	0.187904	0.854000	8.979168	-32.386483	-128.809415
25373		10.008235	0.406754	9.671977	-2.837763	-1.814163	3.697641	-0.599486	-1.510753	0.315573	-0.584473	0.094727	-0.374512	0.099341	0.004516	0.097459	-0.432549	0.226509	0.188289	0.852140	8.596695	-33.293229	-128.749801
25374		6.290434	1.744281	10.419320	0.549311	0.352862	2.465156	-0.532935	-1.209614	0.574704	-0.591797	0.112305	-0.364014	0.062222	0.017900	0.104524	-0.433246	0.233457	0.187985	0.849975	8.136146	-34.038729	-128.476945
25375		11.197508	1.628246	10.582176	-1.880077	-2.631127	5.338500	-0.546685	-0.646301	0.469945	-0.600830	0.116699	-0.359863	0.111593	0.016835	0.106137	-0.433994	0.238032	0.186533	0.848643	7.666620	-34.466019	-128.211109
25376		7.604591	-1.159449	8.555791	-2.733580	0.188402	1.361721	-0.368922	-0.247333	0.317876	-0.601074	0.125488	-0.355713	0.075958	-0.011316	0.085673	-0.434673	0.240284	0.185131	0.847968	7.338087	-34.642170	-128.011486
25377		7.738709	0.357178	8.591548	-1.482831	-0.724258	1.637482	-0.274118	-0.161959	0.239444	-0.601318	0.129883	-0.353760	0.077313	0.003782	0.085973	-0.435210	0.241994	0.184054	0.847441	7.085106	-34.774959	-127.854982
25378		7.408684	-0.021382	8.563478	-1.595638	-0.325258	1.393126	-0.234369	-0.050375	0.203444	-0.599365	0.138916	-0.354004	0.074065	-0.000038	0.085654	-0.435743	0.243010	0.182931	0.847119	6.867202	-34.829616	-127.715363
25379		6.288127	0.152811	8.511860	-0.871494	0.269668	0.731666	-0.156374	-0.036352	0.145447	-0.601807	0.141113	-0.354004	0.062865	0.001640	0.085129	-0.436137	0.243842	0.182191	0.846836	6.711761	-34.883477	-127.612212
25380		5.637222	0.855371	8.681368	0.099865	0.386471	0.565980	-0.122339	-0.050891	0.114171	-0.602051	0.149902	-0.343262	0.056345	0.008639	0.086823	-0.436427	0.244534	0.181651	0.846604	6.592994	-34.931853	-127.534033
25381		6.278831	0.758423	8.254156	-0.388546	-0.202901	0.576626	-0.133864	-0.044978	0.121302	-0.602295	0.154297	-0.345703	0.062765	0.007678	0.082551	-0.436737	0.245329	0.181053	0.846342	6.460081	-34.988249	-127.447958
25382		5.551724	0.453188	8.691383	-0.148592	0.661395	0.488168	-0.112812	-0.024730	0.094961	-0.600342	0.165527	-0.339355	0.055504	0.004607	0.086918	-0.436980	0.245871	0.180519	0.846173	6.352956	-35.020227	-127.380746
25383		5.363317	0.577728	8.754309	0.081515	0.746465	0.442701	-0.085904	-0.058745	0.070766	-0.602783	0.169922	-0.333008	0.053605	0.005834	0.087556	-0.437123	0.246570	0.180215	0.845961	6.268074	-35.080614	-127.330596
25384		5.375427	0.571730	8.660025	0.059853	0.694405	0.372220	-0.057388	-0.075619	0.053270	-0.595947	0.167725	-0.334961	0.053720	0.005756	0.086619	-0.437211	0.247169	0.180078	0.845770	6.211410	-35.138819	-127.296084
25385		6.063996	0.397197	8.424659	-0.473874	0.225523	0.561765	-0.034248	-0.076627	0.040619	-0.598389	0.172119	-0.328613	0.060607	0.003999	0.084269	-0.437273	0.247798	0.180067	0.845555	6.168849	-35.206943	-127.268106
25386		5.852083	0.627265	8.605712	-0.120926	0.335625	0.607070	-0.020330	-0.071165	0.034510	-0.593994	0.174561	-0.335205	0.058489	0.006291	0.086077	-0.437332	0.248280	0.180100	0.845377	6.140621	-35.261417	-127.246185
25387		5.276256	1.193200	8.620844	0.648653	0.411410	0.335787	-0.040802	-0.086013	0.039198	-0.591797	0.176758	-0.326416	0.052723	0.011960	0.086229	-0.437371	0.248960	0.180082	0.845160	6.095205	-35.334397	-127.219786
25388		5.595987	1.428750	8.300038	0.615379	-0.091161	0.279884	-0.099112	-0.070674	0.066772	-0.589844	0.183350	-0.331299	0.055926	0.014347	0.083013	-0.437468	0.249641	0.179741	0.844982	6.008641	-35.390507	-127.175133
25389		5.481956	1.586568	8.665282	0.917643	0.084562	0.522055	-0.151086	-0.034751	0.079830	-0.592041	0.187744	-0.333496	0.054798	0.015953	0.086650	-0.437587	0.250377	0.179095	0.844839	5.881435	-35.436174	-127.116433
25390		5.903747	1.484015	8.486180	0.596881	-0.235218	0.611330	-0.197868	0.002734	0.094206	-0.587891	0.192383	-0.333740	0.059032	0.014952	0.084846	-0.437742	0.250988	0.178141	0.844780	5.723878	-35.451870	-127.047021
25391		6.193125	0.615920	8.102084	-0.345816	-0.155088	0.396829	-0.217410	0.017811	0.104397	-0.585205	0.181152	-0.337646	0.061935	0.006280	0.081009	-0.437927	0.251665	0.177068	0.844708	5.546651	-35.468283	-126.967359
25392		6.665005	0.267841	7.954058	-0.885384	-0.359520	0.524037	-0.190819	0.015654	0.102245	-0.585693	0.194580	-0.344971	0.066655	0.002788	0.079533	-0.438134	0.252212	0.176106	0.844638	5.389257	-35.476720	-126.891315
25393		6.131815	0.237194	8.334417	-0.527575	0.191873	0.521854	-0.145704	0.008788	0.094758	-0.587891	0.192383	-0.351563	0.061321	0.002462	0.083340	-0.438360	0.252759	0.175366	0.844512	5.257330	-35.497201	-126.818932
25394		5.411026	0.747715	8.703492	0.363308	0.561996	0.441151	-0.110599	-0.005533	0.079776	-0.583252	0.192383	-0.349365	0.054105	0.007547	0.087032	-0.438554	0.253200	0.174817	0.844393	5.155749	-35.516276	-126.759912
25395		5.314178	0.511356	8.607321	0.203604	0.702057	0.289471	-0.102228	-0.023452	0.086537	-0.594727	0.196777	-0.353760	0.053129	0.005181	0.086077	-0.438771	0.253777	0.174341	0.844205	5.053193	-35.554156	-126.695235
25396		5.406356	1.036792	8.476779	0.573303	0.279142	0.274571	-0.097429	-0.028012	0.099213	-0.592529	0.196777	-0.360596	0.054047	0.010436	0.084770	-0.439044	0.254301	0.173872	0.844002	4.951898	-35.586861	-126.623826
25397		5.749221	0.845200	8.572775	0.291309	0.207335	0.537796	-0.099275	-0.020075	0.115900	-0.596924	0.198975	-0.354004	0.057479	0.008528	0.085729	-0.439391	0.254879	0.173363	0.843752	4.838844	-35.623650	-126.538193
25398		5.680780	0.985764	8.485162	0.432563	0.123433	0.436146	-0.091891	-0.013362	0.129715	-0.599365	0.201172	-0.360596	0.056796	0.009933	0.084851	-0.439812	0.255355	0.172846	0.843495	4.727545	-35.649225	-126.444283
25399		5.170906	0.611456	8.715663	0.448662	0.778097	0.300086	-0.082297	-0.013598	0.139572	-0.601563	0.201172	-0.360596	0.051699	0.006187	0.087158	-0.440286	0.255886	0.172364	0.843185	4.614241	-35.682806	-126.341505
25400		5.665197	0.580802	8.508101	0.143422	0.359743	0.418126	-0.082382	-0.036024	0.157372	-0.597168	0.198975	-0.362793	0.056632	0.005888	0.085089	-0.440815	0.256460	0.171901	0.842829	4.497573	-35.722280	-126.229210
25401		5.450776	0.608669	8.697636	0.341110	0.581374	0.447719	-0.057380	-0.069802	0.146160	-0.606201	0.200928	-0.358398	0.054473	0.006151	0.086994	-0.441299	0.257175	0.171638	0.842411	4.397427	-35.787558	-126.124661
25402		6.389861	0.379269	8.218254	-0.414465	-0.152640	0.594942	-0.062847	-0.125310	0.154140	-0.610596	0.203125	-0.365234	0.063844	0.003868	0.082221	-0.441762	0.258079	0.171458	0.841929	4.295667	-35.877568	-126.019066
25403		5.890233	-0.140335	8.150230	-0.605078	0.432547	0.216646	-0.062646	-0.166562	0.136953	-0.613037	0.203125	-0.360840	0.058835	-0.001338	0.081552	-0.442116	0.259202	0.171397	0.841410	4.198784	-35.997169	-125.925611
25404		5.311363	0.224391	8.840592	0.192385	0.980230	0.454692	-0.037496	-0.229611	0.111054	-0.615234	0.207520	-0.365479	0.053011	0.002290	0.088466	-0.442340	0.260451	0.171610	0.840863	4.131895	-36.144718	-125.855175
25405		5.216700	0.688306	8.919920	0.672635	0.848020	0.486877	-0.044318	-0.303289	0.105601	-0.624268	0.203125	-0.360840	0.052028	0.006930	0.089277	-0.442467	0.262078	0.171967	0.840217	4.061879	-36.340663	-125.790109
25406		5.323664	0.390093	8.784075	0.364055	0.897108	0.420400	-0.036523	-0.390016	0.109009	-0.626221	0.198486	-0.356201	0.053063	0.003946	0.087944	-0.442543	0.263996	0.172540	0.839459	4.000334	-36.579673	-125.728378
25407		5.488526	-0.094246	8.914675	-0.045753	1.160312	0.591907	0.021794	-0.494428	0.097522	-0.635254	0.198486	-0.358398	0.054665	-0.000925	0.089282	-0.442555	0.266267	0.173606	0.838515	3.976440	-36.884052	-125.677735
25408		5.510444	0.323427	8.691853	0.261483	0.848146	0.445474	0.077617	-0.607249	0.086840	-0.639648	0.193848	-0.353760	0.054839	0.003224	0.087087	-0.442495	0.268820	0.175165	0.837408	3.995441	-37.246304	-125.642001
25409		5.596315	-0.060235	8.862794	-0.010692	1.153764	0.605554	0.100616	-0.705829	0.070387	-0.648682	0.198242	-0.347412	0.055650	-0.000627	0.088824	-0.442306	0.271770	0.177060	0.836156	4.034374	-37.670086	-125.621224
25410		5.557948	0.437064	9.002019	0.503854	1.053120	0.711314	0.133604	-0.807118	0.042335	-0.662109	0.197998	-0.343018	0.055215	0.004322	0.090246	-0.441947	0.274989	0.179351	0.834804	4.111354	-38.144797	-125.628327
25411		5.648534	0.754949	8.866064	0.732664	0.830574	0.668512	0.124168	-0.909132	0.043577	-0.668701	0.195801	-0.331787	0.056080	0.007507	0.088921	-0.441481	0.278700	0.181823	0.833283	4.182943	-38.683318	-125.638773
25412		6.311784	0.961872	8.545003	0.559079	0.211103	0.837325	0.100481	-1.010357	0.063210	-0.679932	0.195557	-0.327393	0.062682	0.009596	0.085772	-0.440960	0.282846	0.184388	0.831597	4.239311	-39.275026	-125.643112
25413		6.487063	0.820374	8.409645	0.383106	0.201279	0.831026	0.068350	-1.125460	0.083609	-0.688721	0.188721	-0.318115	0.064393	0.008202	0.084463	-0.440360	0.287599	0.187038	0.829690	4.268856	-39.938529	-125.637310
25414		6.379437	0.783819	8.548797	0.516574	0.472851	0.859782	0.037467	-1.237679	0.112468	-0.693359	0.193115	-0.302734	0.063259	0.007858	0.085882	-0.439714	0.292855	0.189759	0.827574	4.274137	-40.662219	-125.618367
25415		5.653390	0.855029	9.053836	1.140068	1.286158	0.756518	0.027394	-1.364553	0.125658	-0.702148	0.186279	-0.287109	0.055909	0.008573	0.090922	-0.438968	0.298703	0.192690	0.825200	4.268280	-41.463878	-125.594385
25416		5.583249	0.815360	9.193552	1.273542	1.557725	0.784869	0.006931	-1.523987	0.128049	-0.718018	0.188232	-0.276123	0.055125	0.008186	0.092358	-0.438024	0.305194	0.195872	0.822573	4.258212	-42.351818	-125.579256
25417		5.853006	0.228201	9.058489	0.722257	1.773949	0.803085	-0.009412	-1.701378	0.108146	-0.730957	0.179199	-0.255859	0.057755	0.002318	0.091078	-0.436770	0.312451	0.199391	0.819664	4.252734	-43.344725	-125.587479
25418		5.618444	-0.280629	9.158471	0.538805	2.404140	0.649127	-0.011014	-1.904213	0.055079	-0.744873	0.187744	-0.238281	0.055310	-0.002786	0.092114	-0.435057	0.320423	0.203414	0.816503	4.287484	-44.446802	-125.652370
25419		6.192299	-0.406323	8.985740	0.256697	2.213658	0.877610	-0.008858	-2.143075	-0.021061	-0.760254	0.178711	-0.215820	0.060955	-0.004066	0.090514	-0.432750	0.329292	0.208063	0.813021	4.377195	-45.685988	-125.794230
25420		5.373240	0.349986	9.583862	1.573215	2.845482	0.688127	-0.019012	-2.388552	-0.067196	-0.769287	0.180664	-0.193848	0.052584	0.003491	0.096471	-0.429924	0.339052	0.213254	0.809155	4.510775	-47.059163	-125.999243
25421		5.572431	1.327973	9.864466	2.570476	2.615946	0.988453	-0.005670	-2.743174	-0.032363	-0.782471	0.171631	-0.155762	0.054367	0.013274	0.099396	-0.426815	0.350231	0.219161	0.804447	4.655986	-48.639581	-126.207006
25422		5.157216	1.847030	10.257783	3.496801	3.077895	0.841797	0.011991	-3.209082	0.092174	-0.786865	0.173584	-0.120361	0.049909	0.018487	0.103389	-0.423628	0.363271	0.225870	0.798471	4.771051	-50.488117	-126.354305
25423		5.341157	2.156836	10.652364	4.061302	3.391607	1.079420	0.031317	-3.811631	0.252382	-0.800537	0.175537	-0.089355	0.051341	0.021617	0.107519	-0.420305	0.378768	0.233565	0.790776	4.826610	-52.690914	-126.409107
25424		4.540070	2.837493	10.953338	5.305431	3.981982	0.415229	0.031915	-4.522068	0.487314	-0.814209	0.181885	-0.045410	0.042840	0.028464	0.110526	-0.416892	0.397150	0.242212	0.780901	4.751739	-55.307883	-126.298845
25425		3.554218	2.414429	11.310693	5.722924	5.307629	-0.569602	0.082661	-5.407919	0.781186	-0.816650	0.190674	0.020996	0.032373	0.024228	0.114021	-0.413394	0.419006	0.252158	0.768086	4.485851	-58.445801	-125.930905
25426		2.793305	1.492511	12.760034	6.129611	7.619418	-1.028598	0.074536	-6.412436	1.063293	-0.814697	0.199463	0.089355	0.023744	0.015011	0.128412	-0.409316	0.444691	0.263335	0.751908	3.926204	-62.166424	-125.242375
25427		0.974397	1.966406	14.191732	8.005748	9.605420	-2.758459	-0.040044	-7.631938	1.395211	-0.805908	0.208252	0.164551	0.004184	0.019735	0.142144	-0.404105	0.475063	0.275489	0.731519	2.755563	-66.590439	-123.975683
25428		1.506138	3.227287	13.909376	9.175826	9.007703	-3.435019	-0.190375	-9.033032	1.774473	-0.784180	0.230469	0.252441	0.008476	0.032500	0.139545	-0.397254	0.510509	0.288531	0.705918	0.321982	-71.804155	-121.495986
25429		6.526172	3.512603	12.836969	8.580277	7.255333	-0.155107	-0.370598	-9.920616	2.062397	-0.755371	0.239502	0.336426	0.058427	0.035994	0.131316	-0.388755	0.548647	0.301270	0.676086	-5.071551	-77.449713	-116.133917
25430		15.285983	-1.309860	10.588013	3.372268	7.176373	7.048761	-0.364100	-10.131046	1.993136	-0.717773	0.259766	0.419922	0.147358	-0.011409	0.113462	-0.378690	0.585944	0.313852	0.644019	-18.766983	-82.942448	-102.468851
25431		26.063546	0.242247	7.476096	4.202301	4.095438	16.649350	0.148100	-9.684627	1.541348	-0.675049	0.262207	0.484375	0.256582	0.004349	0.087257	-0.368422	0.618618	0.327747	0.611685	-70.170148	-86.656099	-50.823040
25432		30.398156	2.916387	4.317460	6.669219	1.890126	20.229277	0.262020	-8.790196	1.199560	-0.630371	0.267090	0.550781	0.301511	0.030909	0.056505	-0.358102	0.646449	0.340696	0.581199	-135.414807	-84.525884	14.713375
25433		27.622742	4.565071	6.215033	10.302458	4.501714	16.562228	0.346962	-7.888614	1.496061	-0.586182	0.287598	0.598877	0.273138	0.047581	0.073048	-0.349825	0.670831	0.350696	0.551925	-150.611080	-80.353555	30.228146
25434		20.801781	4.489730	8.286286	11.415309	7.099083	8.642377	0.463290	-7.203080	1.719522	-0.539307	0.296875	0.631836	0.204458	0.046462	0.090377	-0.343214	0.692523	0.358555	0.523502	-155.196957	-76.214942	35.175440
25435		20.789077	3.037196	9.960842	11.801638	10.259622	7.388237	1.025611	-6.676247	1.893430	-0.497070	0.315186	0.666748	0.204113	0.031782	0.106626	-0.339516	0.711247	0.365900	0.494947	-156.634124	-72.273008	37.274698
25436		20.393452	5.245322	12.404958	15.321797	12.005094	4.960207	1.651723	-5.454396	1.767281	-0.459717	0.333252	0.681641	0.199976	0.053175	0.129977	-0.339589	0.724928	0.372790	0.469240	-156.580441	-68.990585	38.216650
25437		13.853059	5.797317	13.670578	14.760708	11.957833	-2.639708	1.928630	-4.281474	1.780308	-0.437988	0.355713	0.685303	0.135039	0.057845	0.140180	-0.342644	0.734815	0.377999	0.446944	-155.626636	-66.330999	38.376747
25438		14.513461	6.619394	16.063803	16.625324	14.148963	-3.824470	2.122053	-2.734025	1.468753	-0.422607	0.369385	0.687012	0.142432	0.065523	0.163295	-0.348446	0.740004	0.381955	0.430221	-154.203100	-64.543495	38.144205
25439		21.314793	10.255973	15.309666	21.762053	13.912816	1.444614	1.657330	-0.603405	1.123922	-0.430176	0.386963	0.668701	0.212107	0.102477	0.154587	-0.355803	0.740531	0.382382	0.422849	-152.386749	-63.944842	37.178414
25440		14.790494	12.804059	16.657759	22.161720	12.258891	-5.481957	0.962303	1.771757	0.584430	-0.446045	0.393555	0.646240	0.149003	0.127676	0.165876	-0.363920	0.736218	0.379076	0.426434	-150.220184	-64.662677	35.381657
25441		5.603699	10.450756	12.544205	15.488666	7.447617	-11.424102	-0.037099	3.212100	0.290668	-0.472900	0.393311	0.628418	0.057890	0.104614	0.124503	-0.370425	0.729883	0.372030	0.437778	-147.864621	-66.159172	32.764911
25442		1.857730	6.627120	8.975430	9.698222	5.182611	-12.459261	-0.616570	3.456693	0.089559	-0.493164	0.390869	0.601807	0.020093	0.066556	0.089211	-0.374697	0.723584	0.363892	0.451234	-145.571269	-67.775476	29.885097
25443		0.143404	4.640459	7.514518	6.980120	4.452848	-12.889372	-0.819696	3.509722	-0.106157	-0.517822	0.386230	0.573242	0.002775	0.046711	0.074913	-0.377800	0.716870	0.355791	0.465594	-143.179061	-69.451584	26.809325
25444		0.286859	3.279392	6.324545	5.488198	4.045147	-11.897848	-0.762061	3.606821	-0.393789	-0.544678	0.383545	0.555420	0.004072	0.033027	0.063054	-0.380459	0.709162	0.348552	0.480469	-140.557248	-71.205704	23.557578
25445		0.939997	1.549666	5.920624	4.108727	4.564705	-10.597521	-0.480838	3.746886	-0.721446	-0.560059	0.376953	0.529053	0.010563	0.015602	0.058978	-0.383468	0.699661	0.342760	0.495925	-137.425017	-73.104127	19.976058
25446		1.368109	0.758243	5.611144	3.456493	4.687629	-9.736852	0.007734	3.927998	-1.109174	-0.591309	0.369873	0.493896	0.014821	0.007500	0.055828	-0.387356	0.687936	0.339055	0.511606	-133.483237	-75.144272	15.879261
25447		1.731046	1.770914	5.564644	4.406167	4.175000	-9.315662	0.366598	4.121272	-1.448169	-0.613525	0.363037	0.456299	0.018580	0.017476	0.055304	-0.391797	0.674033	0.336905	0.527892	-128.185655	-77.324811	10.640725
25448		2.813812	2.937088	5.635588	5.652660	3.699198	-8.182155	0.433443	4.338054	-1.677954	-0.642334	0.349365	0.419189	0.029597	0.029005	0.055788	-0.395991	0.658804	0.335113	0.544856	-120.611605	-79.517209	3.160659
25449		4.097454	3.288702	5.948939	6.255647	3.737021	-6.668900	0.223830	4.631200	-1.790779	-0.660156	0.342773	0.385986	0.042630	0.032444	0.058551	-0.399479	0.642504	0.332340	0.563166	-108.504035	-81.570818	-8.982055
25450		4.502099	1.935754	6.259368	5.153456	4.475084	-5.738814	-0.069539	4.975170	-1.856040	-0.679688	0.324707	0.346680	0.046736	0.018951	0.061439	-0.402120	0.625408	0.328052	0.582706	-88.816568	-83.068202	-28.886702
25451		5.129457	-0.844621	6.146815	2.567791	5.421113	-4.445080	-0.113202	5.306079	-1.895095	-0.695068	0.315918	0.302734	0.052818	-0.008908	0.060085	-0.404781	0.606777	0.322839	0.603116	-61.535463	-83.350005	-56.419847
25452		5.474151	-2.602739	5.934713	0.734805	5.778139	-3.646784	0.191503	5.661830	-1.902240	-0.712646	0.300293	0.252197	0.056140	-0.026613	0.057746	-0.408552	0.586064	0.317585	0.623501	-36.653111	-82.022883	-81.391633
25453		5.071446	-3.231984	5.748952	-0.166833	5.701716	-3.757788	0.625824	5.918885	-1.794187	-0.723389	0.284668	0.206299	0.052090	-0.032960	0.055859	-0.413990	0.563155	0.312532	0.643267	-20.648231	-79.510504	-97.238075
25454		4.639837	-3.214620	5.713194	-0.425295	5.474009	-3.952652	1.031920	6.026611	-1.569672	-0.729492	0.271484	0.151123	0.047832	-0.032807	0.055537	-0.421030	0.538997	0.307642	0.661493	-11.531839	-76.443241	-105.954415
25455		5.141027	-2.799286	5.989487	-0.255408	5.117056	-3.189243	1.324696	6.029696	-1.241368	-0.731445	0.262695	0.102783	0.053004	-0.028708	0.058124	-0.429559	0.514039	0.302500	0.678039	-6.212577	-73.128838	-110.679020
25456		6.201592	-2.630021	6.549468	-0.299184	4.878032	-1.790221	1.476358	6.028573	-0.855339	-0.729004	0.253906	0.045410	0.063833	-0.027044	0.063391	-0.439336	0.488983	0.296611	0.692750	-3.095295	-69.736298	-113.077920
25457		7.375401	-3.074289	7.170721	-0.977400	4.777307	-0.249628	1.591533	6.052736	-0.495041	-0.722168	0.247559	0.001221	0.075796	-0.031486	0.069185	-0.450273	0.463493	0.289865	0.705979	-1.156229	-66.272457	-114.185780
25458		8.451390	-3.049976	7.718079	-1.334447	4.288880	1.145190	1.750543	6.090541	-0.212572	-0.715332	0.247559	-0.045410	0.086773	-0.031250	0.074290	-0.462159	0.437613	0.282686	0.717629	0.154659	-62.795492	-114.530675
25459		9.618953	-1.998608	8.106491	-0.907744	3.060605	2.515613	1.872469	6.149846	-0.030346	-0.706055	0.239014	-0.093750	0.098614	-0.020740	0.077865	-0.474603	0.410895	0.275086	0.728179	1.188324	-59.263077	-114.485964
25460		10.234995	-0.888091	8.469326	-0.359219	1.939347	3.352549	1.840615	6.174389	0.036524	-0.692627	0.234863	-0.140137	0.104899	-0.009621	0.081394	-0.486746	0.383988	0.266928	0.737821	2.044225	-55.739023	-114.254758
25461		11.143872	-0.928224	9.084082	-0.898259	1.225878	4.511754	1.754497	6.124473	-0.076295	-0.674072	0.221924	-0.184082	0.114144	-0.010102	0.087286	-0.497763	0.356769	0.258479	0.747085	2.904296	-52.222586	-114.074742
25462		11.953667	-1.072792	9.977278	-1.506550	0.707674	5.703038	1.728671	6.017243	-0.367358	-0.657959	0.211182	-0.230225	0.122442	-0.011792	0.096019	-0.506994	0.329446	0.250503	0.756089	3.894157	-48.780262	-114.078684
25463		13.021125	-0.319036	11.559297	-1.302345	0.093158	7.550189	1.783767	5.855154	-0.723557	-0.645996	0.189209	-0.284912	0.133504	-0.004677	0.111679	-0.514293	0.301668	0.243451	0.765004	5.080962	-45.394916	-114.302444
25464		16.369936	3.682458	14.257563	1.316806	-2.537445	12.016292	1.663108	5.683545	-1.019238	-0.627686	0.174072	-0.322021	0.167848	0.034815	0.138140	-0.519581	0.274382	0.236641	0.773790	6.275519	-42.108500	-114.657071
25465		22.931772	4.584428	15.884195	-0.494384	-7.376103	17.469133	1.104284	5.808005	-1.524352	-0.606689	0.154297	-0.363525	0.234141	0.043219	0.152332	-0.521829	0.247053	0.227783	0.784075	7.313519	-38.692778	-115.280551
25466		27.521577	4.689111	14.591460	-3.259596	-12.840034	18.761334	0.583037	6.237288	-2.359695	-0.581055	0.130371	-0.406982	0.280113	0.043196	0.137358	-0.520108	0.218364	0.216601	0.796799	8.282483	-34.980445	-116.345331
25467		28.889189	5.134304	11.121710	-5.097736	-17.405924	15.785341	0.020177	6.485364	-3.152443	-0.551270	0.110840	-0.439453	0.293055	0.046734	0.101763	-0.514257	0.188874	0.203103	0.811551	9.091189	-31.027981	-117.805980
25468		26.346369	-2.747879	6.335207	-13.012169	-15.898696	8.059603	-0.258645	6.182662	-3.945067	-0.532471	0.086670	-0.476318	0.264645	-0.032617	0.055222	-0.503942	0.160431	0.189766	0.827220	9.854803	-27.173426	-119.687823
25469		25.563904	-1.517960	3.102505	-12.971715	-17.751853	3.670000	0.055611	5.342933	-4.487893	-0.509033	0.058350	-0.499512	0.255919	-0.020928	0.024185	-0.490190	0.133817	0.180010	0.842261	10.829150	-23.696771	-121.880167
25470		26.938121	-0.085352	-0.351498	-13.659972	-21.023440	0.034929	-0.259852	4.412379	-4.452877	-0.494873	0.038574	-0.516602	0.269108	-0.006857	-0.009448	-0.475003	0.111910	0.171010	0.855923	11.498265	-20.734151	-124.053255
25471		27.018858	-2.923170	-4.016616	-17.191374	-20.889868	-5.061386	-0.787832	3.517983	-4.221053	-0.480713	0.018799	-0.531494	0.268729	-0.035084	-0.044772	-0.459328	0.095084	0.161579	0.868256	11.741469	-18.273325	-126.135049
25472		26.996000	-7.055101	-9.235866	-21.433402	-20.009126	-11.797153	-1.038316	2.738567	-3.822776	-0.475830	0.005371	-0.541992	0.267245	-0.076168	-0.095645	-0.444330	0.082573	0.152566	0.878906	11.710403	-16.303684	-128.045507
25473		27.745946	-10.011062	-15.095200	-24.813440	-20.135149	-18.569015	-0.640498	2.023395	-2.933826	-0.468750	-0.000977	-0.548340	0.274403	-0.104640	-0.153408	-0.432652	0.072904	0.146450	0.886594	11.734487	-14.832650	-129.508583
25474		26.812778	-11.531965	-18.906892	-25.673405	-19.154567	-23.352395	0.148038	1.104874	-1.696365	-0.459473	-0.009766	-0.550293	0.266087	-0.117442	-0.190629	-0.425986	0.066549	0.145338	0.890497	12.026203	-14.025073	-130.354639
25475		26.775702	-9.383894	-19.562793	-24.018118	-20.357752	-23.826595	0.508285	0.051910	-0.569935	-0.463623	-0.018799	-0.552246	0.267438	-0.094104	-0.195936	-0.423664	0.064918	0.147694	0.891337	12.392131	-13.938086	-130.675891
25476		23.831031	-3.171462	-16.091467	-17.406859	-20.811375	-19.852238	0.056079	-0.964117	0.234648	-0.470703	-0.007813	-0.541504	0.239119	-0.031389	-0.159772	-0.424024	0.069377	0.149918	0.890458	12.416788	-14.518498	-130.661490
25477		21.109197	2.258521	-12.154151	-11.617245	-20.811369	-15.319933	-2.418604	-2.206365	1.112797	-0.473633	0.012207	-0.522217	0.212293	0.022311	-0.119475	-0.426434	0.085290	0.143447	0.888990	10.927022	-15.901610	-130.278134
25478		-8.715552	-3.400739	15.040201	3.463570	13.428222	1.204753	-2.404311	-3.893803	1.158612	-0.496826	0.031738	-0.498535	-0.089875	-0.032725	0.149068	-0.427658	0.108638	0.140538	0.886316	9.465448	-18.226791	-130.005974
25479		-6.548225	4.639231	33.751291	10.759359	13.843256	20.119482	-1.850785	-4.239046	0.637047	-0.510742	0.042480	-0.470215	-0.072763	0.049280	0.335575	-0.426391	0.131942	0.141045	0.883679	8.406568	-20.699668	-130.021700
25480		15.994808	-7.120565	10.538120	-13.862974	-3.186682	4.857155	-1.492022	-3.356009	-0.190983	-0.526855	0.053467	-0.448486	0.158076	-0.070555	0.108572	-0.422134	0.149901	0.141717	0.882751	7.696727	-22.600122	-130.425620
25481		14.474552	-14.137547	1.304273	-19.558799	-0.942431	-4.557810	-0.486661	-3.836235	-0.771473	-0.544434	0.046387	-0.426025	0.143909	-0.141895	0.016153	-0.415573	0.167425	0.148235	0.881643	7.733941	-24.735131	-131.223409
25482		18.571233	-10.190451	13.305326	-16.582753	-0.739562	8.899613	0.261521	-4.358845	-0.300512	-0.564697	0.048340	-0.401611	0.182603	-0.102358	0.136922	-0.411146	0.185939	0.158666	0.878186	8.129700	-27.196824	-131.793871
25483		21.292317	-7.277208	15.793359	-14.990508	-2.564944	13.087165	0.452516	-3.190905	0.487839	-0.580322	0.041504	-0.385986	0.210546	-0.072619	0.161141	-0.411132	0.199547	0.166744	0.873698	8.373534	-29.064554	-131.774084
25484		13.842530	1.796217	7.963669	-4.828131	-6.364330	4.131190	0.320771	-2.487691	0.881054	-0.587402	0.054688	-0.370850	0.137340	0.018439	0.081379	-0.413196	0.210578	0.172369	0.869031	8.385006	-30.560154	-131.435404
25485		11.086406	7.381422	7.477904	1.312389	-7.918178	3.182782	0.046039	-2.421207	0.598572	-0.596436	0.052246	-0.359863	0.109726	0.074126	0.076129	-0.413734	0.221681	0.176933	0.865088	8.318687	-32.002296	-131.269837
25486		15.268159	11.068544	9.515412	2.651532	-11.554557	7.669379	-0.514158	-2.035517	0.436298	-0.603516	0.061035	-0.351318	0.151462	0.111264	0.096414	-0.413230	0.232028	0.178430	0.862303	7.966112	-33.204106	-131.169551
25487		11.024288	2.313031	9.047902	-1.839332	-3.776601	4.011196	-0.811090	-1.168145	0.650602	-0.614990	0.072021	-0.342773	0.109635	0.023856	0.091025	-0.414041	0.239493	0.176605	0.860246	7.307590	-33.937553	-130.829037
25488		9.342602	1.666537	11.253034	-0.660016	-1.210555	4.842982	-0.694308	-0.641028	0.749710	-0.613037	0.080811	-0.336426	0.093001	0.017406	0.112769	-0.415864	0.244451	0.174048	0.858492	6.645205	-34.366142	-130.364767
25489		7.286449	0.736890	8.942424	-0.801153	-0.551972	1.704904	-0.620317	-0.129515	0.617050	-0.615723	0.092041	-0.339111	0.072783	0.007871	0.089447	-0.417638	0.247011	0.170919	0.857526	6.046688	-34.499644	-129.944478
25490		7.877240	-0.857555	8.953273	-2.305979	-0.019360	1.918848	-0.507366	-0.045276	0.465713	-0.622803	0.100830	-0.339355	0.078771	-0.008165	0.089572	-0.418970	0.248767	0.168266	0.856893	5.569343	-34.564253	-129.622160
25491		7.395141	-1.535885	8.626614	-2.629905	0.485267	1.336901	-0.395398	0.049930	0.364374	-0.622803	0.103027	-0.337158	0.074001	-0.015053	0.086278	-0.420081	0.249866	0.166032	0.856465	5.189474	-34.575892	-129.361869
25492		7.545013	-1.145962	8.764989	-2.314983	0.191929	1.574557	-0.293819	0.056317	0.256028	-0.625244	0.105225	-0.330566	0.075489	-0.011234	0.087645	-0.420860	0.250560	0.164340	0.856206	4.912577	-34.568427	-129.177502
25493		6.283108	-0.428693	8.567410	-1.109945	0.451639	0.752620	-0.212840	0.035817	0.175425	-0.623047	0.109619	-0.328613	0.062850	-0.004141	0.085667	-0.421375	0.251178	0.163150	0.855999	4.711662	-34.576869	-129.048784
25494		5.617847	0.299497	8.798698	-0.091621	0.544076	0.616241	-0.159370	0.011212	0.118126	-0.627930	0.118408	-0.326660	0.056182	0.003098	0.087981	-0.421693	0.251668	0.162300	0.855860	4.567531	-34.587681	-128.962658
25495		5.802094	0.282398	8.973718	-0.131711	0.513209	0.863965	-0.114503	-0.004887	0.083495	-0.623535	0.120850	-0.326660	0.058018	0.002900	0.089737	-0.421904	0.252176	0.161731	0.855714	4.460272	-34.614404	-128.899861
25496		5.324533	0.792311	8.992973	0.544183	0.520922	0.641233	-0.091461	-0.017735	0.065926	-0.623535	0.123047	-0.320068	0.053235	0.007982	0.089931	-0.422061	0.252603	0.161298	0.855593	4.376414	-34.639175	-128.851430
25497		6.412747	0.432707	8.002541	-0.585045	-0.450817	0.424778	-0.096543	-0.040638	0.068977	-0.623535	0.123047	-0.313477	0.064110	0.004388	0.080036	-0.422203	0.253212	0.160898	0.855418	4.286168	-34.685179	-128.800498
25498		6.337792	-0.241302	7.733567	-1.155589	-0.136971	0.121080	-0.064471	-0.043169	0.046831	-0.623535	0.125244	-0.315918	0.063362	-0.002373	0.077350	-0.422291	0.253675	0.160658	0.855282	4.225952	-34.723556	-128.766523
25499		6.133239	0.241997	8.424003	-0.445018	0.047634	0.600703	-0.028864	-0.044858	0.034919	-0.621338	0.125244	-0.304688	0.061313	0.002443	0.084253	-0.422370	0.254130	0.160599	0.855119	4.187936	-34.770323	-128.739323
25500		5.363805	0.691799	8.968782	0.483941	0.544605	0.635147	-0.023633	-0.069989	0.028718	-0.616943	0.129639	-0.304932	0.053606	0.006936	0.089706	-0.422411	0.254608	0.160614	0.854954	4.158983	-34.823231	-128.719210
25501		5.553959	1.161741	8.429816	0.615157	-0.114086	0.329623	-0.060521	-0.086222	0.042962	-0.614746	0.129639	-0.304932	0.055501	0.011655	0.084319	-0.422451	0.255311	0.160496	0.854747	4.100765	-34.893646	-128.688409
25502		5.848238	1.334735	8.211219	0.552398	-0.511170	0.328371	-0.112978	-0.060500	0.069328	-0.607910	0.125244	-0.304688	0.058453	0.013414	0.082122	-0.422558	0.255969	0.160056	0.854580	4.004021	-34.942741	-128.639356
25503		5.905391	1.114459	8.427380	0.429419	-0.315682	0.524252	-0.150283	-0.021793	0.085702	-0.605957	0.136475	-0.305176	0.059040	0.011233	0.084272	-0.422716	0.256617	0.159364	0.854437	3.875512	-34.977664	-128.575466
25504		5.361765	0.467800	8.995874	0.375953	0.685162	0.641130	-0.136849	0.003084	0.067605	-0.601563	0.136475	-0.307373	0.053617	0.004758	0.089955	-0.422836	0.257052	0.158690	0.854372	3.763874	-34.990180	-128.524370
25505		5.152663	-0.104903	8.815476	-0.018465	1.065233	0.343025	-0.090959	-0.029110	0.043607	-0.601563	0.136475	-0.307373	0.051514	-0.000998	0.088163	-0.422884	0.257570	0.158321	0.854261	3.686374	-35.027226	-128.490090
25506		5.554027	-0.475587	8.879858	-0.490753	1.060514	0.606513	-0.029870	-0.076618	0.006806	-0.601563	0.136475	-0.311768	0.055506	-0.004741	0.088821	-0.422818	0.258071	0.158350	0.854137	3.662376	-35.082974	-128.484952
25507		5.770918	0.320025	8.366126	-0.109154	0.207855	0.353081	-0.002660	-0.109873	-0.001946	-0.601807	0.140869	-0.314209	0.057663	0.003201	0.083693	-0.422722	0.258708	0.158585	0.853948	3.655667	-35.164170	-128.485980
25508		6.001607	0.781244	8.314546	0.137984	-0.227845	0.467893	-0.002333	-0.123762	0.014130	-0.601807	0.140869	-0.316406	0.059964	0.007818	0.083182	-0.422685	0.259358	0.158823	0.853725	3.645672	-35.247140	-128.477785
25509		6.383374	0.827880	8.171429	-0.049705	-0.559010	0.574329	-0.012578	-0.126558	0.051987	-0.604004	0.143311	-0.322998	0.063780	0.008301	0.081754	-0.422793	0.260128	0.158981	0.853408	3.611937	-35.339621	-128.441763
25510		5.289328	0.491887	8.477499	0.342577	0.497472	0.173407	-0.012262	-0.107681	0.070156	-0.597656	0.149902	-0.323242	0.052846	0.004943	0.084803	-0.422994	0.260774	0.159069	0.853094	3.573004	-35.415401	-128.393446
25511		5.382810	0.608763	8.922493	0.541374	0.597056	0.594355	-0.000430	-0.136974	0.067692	-0.604004	0.140869	-0.322998	0.053765	0.006106	0.089262	-0.423176	0.261573	0.159279	0.852720	3.539980	-35.514143	-128.346686
25512		5.609637	0.348496	8.638636	0.143529	0.477654	0.481327	-0.001623	-0.163951	0.071364	-0.608643	0.147705	-0.327637	0.056024	0.003506	0.086432	-0.423351	0.262438	0.159530	0.852321	3.507804	-35.622097	-128.299730
25513		5.526222	0.146756	8.629008	0.036353	0.660503	0.413887	0.014677	-0.199848	0.045769	-0.610840	0.145264	-0.327637	0.055176	0.001474	0.086345	-0.423408	0.263452	0.159966	0.851897	3.493784	-35.755694	-128.270893
25514		5.783198	0.308642	8.623772	0.051128	0.416881	0.566794	0.023810	-0.218093	0.028129	-0.606445	0.145508	-0.334229	0.057737	0.003084	0.086301	-0.423388	0.264458	0.160496	0.851496	3.495094	-35.893082	-128.256544
25515		5.251430	0.348551	8.908352	0.454848	0.895385	0.485327	0.048137	-0.242524	0.004409	-0.615234	0.143066	-0.332031	0.052406	0.003465	0.089148	-0.423278	0.265548	0.161218	0.851075	3.518343	-36.049382	-128.258690
25516		5.483215	0.665786	8.753578	0.560875	0.508300	0.510153	0.031600	-0.271322	0.006165	-0.619873	0.145264	-0.325439	0.054713	0.006646	0.087611	-0.423131	0.266745	0.161923	0.850640	3.534617	-36.216442	-128.262255
25517		5.869658	0.229444	8.295950	-0.110595	0.318697	0.346763	0.039667	-0.311227	0.004232	-0.622070	0.143066	-0.332031	0.058567	0.002279	0.083051	-0.422951	0.268141	0.162753	0.850132	3.555033	-36.411712	-128.267705
25518		6.082006	-0.321166	8.238286	-0.661040	0.512857	0.398247	0.104496	-0.376436	-0.008275	-0.628662	0.142822	-0.327637	0.060665	-0.003257	0.082495	-0.422752	0.269618	0.164008	0.849522	3.622145	-36.638360	-128.286479
25519		6.156894	-0.680509	8.071256	-1.023732	0.636730	0.289883	0.174636	-0.476415	-0.046284	-0.633057	0.136230	-0.331787	0.061375	-0.006890	0.080853	-0.422401	0.271385	0.165827	0.848781	3.746399	-36.926033	-128.336159
25520		5.600346	0.144697	8.515699	0.076805	0.782604	0.350150	0.234889	-0.552339	-0.076889	-0.642090	0.138184	-0.329590	0.055769	0.001325	0.085313	-0.421937	0.273273	0.168097	0.847959	3.923939	-37.250543	-128.413917
25521		5.163103	0.060490	8.862387	0.353566	1.348918	0.348917	0.262072	-0.624387	-0.102543	-0.648682	0.131592	-0.327148	0.051354	0.000462	0.088785	-0.421335	0.275430	0.170671	0.847046	4.129393	-37.620086	-128.514078
25522		5.665950	0.193910	8.454844	0.099666	0.819722	0.333375	0.288404	-0.705340	-0.121110	-0.653076	0.129150	-0.322754	0.056362	0.001783	0.084750	-0.420616	0.277809	0.173548	0.846041	4.365330	-38.029687	-128.635767
25523		5.891792	0.551906	8.501736	0.314712	0.577320	0.524835	0.305506	-0.769244	-0.117124	-0.664063	0.124756	-0.315918	0.058593	0.005355	0.085251	-0.419875	0.280464	0.176624	0.844895	4.611494	-38.480364	-128.759629
25524		6.275312	0.777543	8.115351	0.208476	0.091473	0.472765	0.293560	-0.826952	-0.102498	-0.668457	0.122314	-0.313477	0.062421	0.007624	0.081423	-0.419121	0.283353	0.179746	0.843647	4.851682	-38.959459	-128.881005
25525		5.739734	1.310911	8.614406	1.095503	0.464321	0.553341	0.280028	-0.868425	-0.082668	-0.675293	0.126709	-0.307129	0.057028	0.012965	0.086410	-0.418385	0.286498	0.182867	0.842278	5.077000	-39.467432	-128.992301
25526		5.827366	1.167276	8.554334	0.952153	0.554907	0.545016	0.252953	-0.918196	-0.052332	-0.684082	0.119873	-0.298096	0.057883	0.011549	0.085824	-0.417683	0.289889	0.185929	0.840795	5.279947	-40.000434	-129.089211
25527		5.729504	1.058877	8.526644	0.943772	0.755670	0.443503	0.241780	-0.973222	-0.037303	-0.695313	0.117432	-0.286865	0.056881	0.010475	0.085557	-0.416966	0.293580	0.189034	0.839176	5.472161	-40.569698	-129.180519
25528		6.302159	0.994270	8.213102	0.558470	0.378303	0.565404	0.218499	-1.052954	-0.013027	-0.697510	0.117432	-0.286865	0.062589	0.009849	0.082472	-0.416230	0.297631	0.192165	0.837401	5.648068	-41.181221	-129.264025
25529		6.519688	0.573924	8.255013	0.184211	0.625453	0.701805	0.200832	-1.162585	-0.005894	-0.715088	0.108398	-0.270996	0.064716	0.005654	0.082933	-0.415379	0.302210	0.195434	0.835425	5.816423	-41.859533	-129.352341
25530		6.346862	0.520225	8.603234	0.405896	1.074649	0.829101	0.192815	-1.301776	-0.023904	-0.719482	0.108154	-0.260010	0.062907	0.005112	0.086448	-0.414288	0.307322	0.198978	0.833263	6.002631	-42.611825	-129.470855
25531		5.846330	0.629369	8.981125	0.932862	1.647928	0.753691	0.192980	-1.438493	-0.048818	-0.732910	0.105713	-0.244385	0.057817	0.006193	0.090235	-0.412937	0.312997	0.202834	0.830888	6.212326	-43.444021	-129.623769
25532		5.710453	0.287287	8.939096	0.782882	2.038631	0.571331	0.188210	-1.618848	-0.071120	-0.741943	0.103516	-0.226563	0.056379	0.002768	0.089852	-0.411278	0.319355	0.207065	0.828244	6.451203	-44.373224	-129.818384
25533		6.555017	-0.015223	8.438236	0.061590	1.605794	0.750776	0.177382	-1.816114	-0.122685	-0.755371	0.103271	-0.210938	0.064780	-0.000267	0.084973	-0.409153	0.326505	0.211721	0.825326	6.732577	-45.414117	-130.080390
25534		6.165620	0.544131	8.793830	0.924807	1.891970	0.732622	0.177821	-2.034502	-0.159955	-0.770996	0.105225	-0.191162	0.060762	0.005314	0.088564	-0.406603	0.334454	0.216868	0.822060	7.067162	-46.572200	-130.409367
25535		5.931681	1.414382	9.250724	2.027229	2.002295	0.894176	0.170128	-2.319026	-0.132314	-0.781982	0.096191	-0.161865	0.058248	0.014026	0.093199	-0.403798	0.343605	0.222486	0.818158	7.417998	-47.895736	-130.761495
25536		5.132489	1.833327	9.836143	3.082889	2.766909	0.641302	0.193275	-2.662764	-0.046369	-0.793457	0.102539	-0.137695	0.050013	0.018226	0.099051	-0.400935	0.354128	0.228713	0.813348	7.781433	-49.416355	-131.103283
25537		5.222374	2.219848	10.235606	3.686098	3.018413	0.876542	0.214719	-3.099245	0.052936	-0.804443	0.093506	-0.099854	0.050623	0.022102	0.103173	-0.397933	0.366444	0.235673	0.807357	8.155724	-51.193576	-131.436293
25538		5.260271	2.316043	10.345218	3.999883	3.314380	0.820220	0.213574	-3.617689	0.188511	-0.809082	0.102051	-0.066895	0.050698	0.023098	0.104405	-0.394747	0.380886	0.243348	0.799926	8.521459	-53.272021	-131.749062
25539		4.778194	2.575873	9.977285	4.492098	3.456164	0.029506	0.245745	-4.293298	0.358578	-0.822510	0.099609	-0.015625	0.045579	0.025718	0.100799	-0.391326	0.398036	0.252058	0.790505	8.890376	-55.748300	-132.035037
25540		4.314328	1.930832	10.538381	4.655111	4.781263	-0.387241	0.325639	-5.115132	0.536626	-0.822754	0.108398	0.039307	0.040378	0.019246	0.106472	-0.387506	0.418259	0.262199	0.778557	9.318765	-58.702723	-132.327165
25541		2.893791	1.533507	12.135809	5.847947	7.125508	-1.269693	0.315734	-6.077029	0.723850	-0.824951	0.110352	0.103516	0.025178	0.015238	0.122185	-0.382825	0.442160	0.273553	0.763615	9.787940	-62.217850	-132.663577
25542		2.367143	2.574577	13.215357	7.719832	7.982665	-1.845527	0.304875	-7.245033	0.960124	-0.812012	0.123779	0.171875	0.018741	0.025641	0.132931	-0.376982	0.470347	0.286273	0.744786	10.337015	-66.413201	-133.083018
25543		2.884970	4.853589	12.729592	9.626639	6.670814	-2.286791	0.196933	-8.396727	1.276560	-0.801025	0.130371	0.253662	0.023163	0.048570	0.128396	-0.369828	0.502730	0.299553	0.721635	10.868102	-71.287791	-133.535739
25544		7.549903	4.937985	12.072484	8.890466	5.626393	0.970228	-0.037010	-9.272013	1.609889	-0.774414	0.145996	0.337646	0.069398	0.049978	0.124028	-0.361226	0.538187	0.312176	0.694562	11.231032	-76.690592	-133.939039
25545		13.448174	0.892676	10.082768	4.373961	6.099769	5.245730	-0.188072	-9.444727	1.799429	-0.741455	0.163818	0.414551	0.129436	0.010205	0.107012	-0.351793	0.573576	0.323356	0.665352	11.371946	-82.208658	-134.195943
25546		22.599836	0.967283	8.646044	4.043629	5.297223	13.459676	0.180759	-9.227630	1.593737	-0.694336	0.170898	0.489746	0.221605	0.011366	0.096765	-0.342281	0.605978	0.335250	0.635013	15.019491	-87.579181	-137.753999
25547		27.127676	4.584163	5.286070	6.647089	2.073586	17.314787	0.251702	-8.535132	1.402729	-0.656738	0.186768	0.542480	0.268362	0.047655	0.064416	-0.332851	0.634488	0.346067	0.605701	-175.961292	-87.433158	53.356690
25548		27.200882	6.087407	5.962096	9.816021	3.473757	16.713630	0.290786	-7.784216	1.743365	-0.607666	0.196289	0.599854	0.268869	0.063130	0.070219	-0.325284	0.660164	0.354084	0.577061	-170.342617	-82.868811	47.885544
25549		21.624824	6.861492	7.779710	12.276275	5.308207	10.089558	0.336390	-7.005700	2.172750	-0.565430	0.212158	0.636963	0.212584	0.070799	0.085405	-0.320015	0.683280	0.359017	0.549386	-167.391622	-78.681455	45.089227
25550		18.916098	4.153870	8.359419	10.925084	7.730070	6.486161	0.661793	-6.703372	2.401653	-0.525391	0.225830	0.678711	0.185701	0.043492	0.090000	-0.316594	0.704580	0.363114	0.521040	-165.210703	-74.611515	43.234721
25551		20.967964	3.983550	11.388884	13.520413	11.433637	6.664862	1.425520	-5.817641	2.292523	-0.488281	0.252930	0.695557	0.205776	0.041368	0.120204	-0.316833	0.721317	0.367756	0.494039	-163.237010	-71.041034	42.020685
25552		17.586933	4.883051	11.669846	14.145782	11.088178	2.277565	2.033020	-4.625927	2.029088	-0.462158	0.279785	0.705811	0.172601	0.049376	0.121216	-0.320508	0.733056	0.372641	0.470151	-161.270330	-68.150208	41.161504
25553		14.381177	5.681637	15.824571	15.946882	13.784394	-3.094019	2.585011	-3.201240	1.656869	-0.438232	0.302490	0.705078	0.140781	0.055920	0.161242	-0.327805	0.739370	0.377669	0.450824	-159.147609	-66.100131	40.461373
25554		19.462393	11.690845	15.452395	22.467979	12.198956	0.216527	2.222833	-1.068498	1.317689	-0.445801	0.326660	0.690674	0.193022	0.116449	0.156854	-0.336895	0.740620	0.379515	0.440401	-156.838787	-65.237526	39.320982
25555		17.896920	14.274122	16.107648	24.446461	11.244867	-2.103593	1.199063	1.027346	1.091838	-0.452881	0.335693	0.677246	0.179017	0.142753	0.161013	-0.345646	0.738382	0.376357	0.440087	-154.383874	-65.516042	37.372322
25556		8.774536	11.453369	14.386110	18.373371	8.774175	-9.069697	0.147044	2.844353	0.753224	-0.470947	0.337646	0.654785	0.089348	0.114763	0.142682	-0.353114	0.733276	0.368938	0.448890	-151.768875	-66.762050	34.601011
25557		2.435818	6.959833	10.265438	10.901934	5.898112	-12.282978	-0.542800	3.369978	0.556020	-0.498047	0.337402	0.628174	0.025887	0.069946	0.102037	-0.358510	0.727574	0.359676	0.461237	-149.113702	-68.289273	31.387833
25558		0.039085	4.470835	7.950808	7.172723	4.623415	-13.033839	-0.708880	3.329879	0.360660	-0.520752	0.343750	0.605713	0.001632	0.044992	0.079329	-0.362654	0.721779	0.350704	0.473839	-146.418483	-69.781723	28.062745
25559		-0.269774	2.843715	6.717802	5.269539	4.314186	-12.440221	-0.576298	3.311303	0.057042	-0.540771	0.341553	0.581543	-0.001594	0.028630	0.067128	-0.366444	0.714956	0.343079	0.486676	-143.595458	-71.323571	24.716259
25560		0.647867	0.904142	6.219826	3.746142	4.976727	-10.870152	-0.111183	3.372707	-0.366532	-0.568115	0.347900	0.556885	0.007543	0.009063	0.062072	-0.370846	0.706296	0.337886	0.499453	-140.499529	-72.965728	21.393027
25561		1.402104	1.436277	6.053174	4.357668	4.652342	-9.990750	0.429108	3.498631	-0.816716	-0.583740	0.343262	0.521484	0.015135	0.014173	0.060304	-0.376155	0.695241	0.335297	0.512565	-136.892611	-74.787636	17.892633
25562		2.022964	2.824102	5.997898	5.662597	3.973031	-9.380730	0.692097	3.723248	-1.202265	-0.601563	0.340820	0.488281	0.021511	0.027907	0.059683	-0.381608	0.682323	0.334179	0.526437	-132.444824	-76.767707	13.710019
25563		3.015681	3.681976	6.180254	6.664902	3.754864	-8.290208	0.669836	3.990175	-1.489886	-0.627930	0.327393	0.457520	0.031655	0.036382	0.061303	-0.386535	0.667862	0.333331	0.541703	-126.375080	-78.888254	7.892634
25564		4.419271	3.374995	6.392734	6.680807	4.060830	-6.549069	0.479144	4.335641	-1.718593	-0.650146	0.318359	0.417969	0.045853	0.033209	0.063025	-0.390563	0.652227	0.331895	0.558486	-117.134278	-81.030266	-1.214880
25565		5.363546	2.105602	6.454814	5.606620	4.579468	-5.075239	0.292726	4.791146	-1.927106	-0.667969	0.311523	0.380615	0.055360	0.020435	0.063266	-0.393941	0.634821	0.329526	0.577256	-100.953528	-82.995708	-17.382010
25566		5.424729	0.699966	6.382579	4.158979	4.989232	-4.479083	0.216833	5.233725	-2.067284	-0.691895	0.291260	0.334717	0.055960	0.006359	0.062383	-0.397095	0.615717	0.326274	0.597288	-73.776305	-84.067705	-44.604661
25567		5.183834	-0.517941	5.994576	2.666555	5.022402	-4.269845	0.292144	5.599482	-2.091468	-0.709473	0.275635	0.284180	0.053430	-0.005819	0.058456	-0.400693	0.594682	0.322314	0.617991	-42.633951	-83.370523	-75.758461
25568		4.957028	-1.490607	5.821679	1.482038	5.121432	-4.134335	0.480494	5.859828	-1.990397	-0.720459	0.269043	0.233398	0.051094	-0.015547	0.056698	-0.405190	0.572210	0.317823	0.638267	-22.058180	-81.116117	-96.242440
25569		4.946971	-2.304679	5.767828	0.475073	5.204276	-3.835722	0.752981	6.035143	-1.789215	-0.729004	0.253418	0.189453	0.050968	-0.023711	0.056067	-0.411011	0.548244	0.312945	0.657696	-10.881842	-78.070680	-107.163193
25570		5.268709	-2.652479	5.902173	-0.083812	5.133266	-3.236029	1.074206	6.143348	-1.513051	-0.739990	0.246826	0.127686	0.054259	-0.027242	0.057226	-0.418353	0.523281	0.307842	0.675567	-4.762648	-74.708356	-112.827082
25571		5.898023	-2.902429	6.360038	-0.503413	5.147588	-2.270594	1.373063	6.206074	-1.186405	-0.743896	0.227051	0.072998	0.060736	-0.029808	0.061531	-0.427264	0.497292	0.302424	0.691871	-1.149957	-71.183001	-115.782241
25572		6.583485	-3.294384	6.880456	-1.110981	5.161122	-1.231867	1.638033	6.261043	-0.886978	-0.730713	0.233887	0.017334	0.067791	-0.033792	0.066428	-0.437484	0.470627	0.296763	0.706434	1.128575	-67.607018	-117.216993
25573		7.215977	-3.001805	7.295345	-1.221281	4.691417	-0.285790	1.869667	6.286727	-0.653643	-0.727783	0.218506	-0.031006	0.074299	-0.030924	0.070354	-0.448660	0.443049	0.290972	0.719547	2.767812	-63.985523	-117.839579
25574		7.839315	-2.215226	7.753560	-0.923548	3.964355	0.668959	1.969572	6.276285	-0.492491	-0.718750	0.216553	-0.077393	0.080713	-0.023095	0.074802	-0.460118	0.415196	0.284918	0.731249	4.017308	-60.390809	-117.980359
25575		8.515962	-1.657527	8.334416	-0.854956	3.327744	1.714468	1.950222	6.216944	-0.424773	-0.707031	0.201416	-0.125732	0.087655	-0.017554	0.080477	-0.471220	0.387092	0.278454	0.742007	5.074650	-56.811702	-117.909676
25576		9.881049	-1.339223	9.239503	-1.143697	2.609922	3.476960	1.889425	6.086752	-0.486840	-0.688721	0.192871	-0.176514	0.101524	-0.014490	0.089199	-0.481289	0.359288	0.271934	0.751881	6.062618	-53.325477	-117.798740
25577		12.266100	-1.161291	10.567444	-1.862882	1.541344	6.235468	1.779445	6.027029	-0.703764	-0.679443	0.179688	-0.222412	0.125724	-0.012969	0.101805	-0.489790	0.331149	0.265225	0.761644	7.092288	-49.839793	-117.810789
25578		13.236535	-1.627243	12.123645	-2.878127	1.460176	7.916197	1.686660	5.985706	-1.013060	-0.663086	0.164551	-0.266357	0.135823	-0.017954	0.117059	-0.496408	0.302823	0.258549	0.771382	8.185601	-46.375428	-117.986110
25579		15.150708	0.370163	14.370292	-1.969984	0.187941	10.975034	1.649289	5.885200	-1.250861	-0.646729	0.142578	-0.314209	0.155662	0.001576	0.139182	-0.501443	0.274205	0.252047	0.780922	9.325944	-42.924899	-118.262928
25580		20.979569	3.507985	16.896943	-1.601109	-4.174484	16.977801	1.293105	5.935160	-1.433601	-0.625732	0.123047	-0.355713	0.214929	0.032485	0.162857	-0.504847	0.245957	0.244074	0.790609	10.263607	-39.446106	-118.567229
25581		27.052988	3.071849	16.586779	-5.422745	-9.764569	20.041871	0.781863	6.343881	-1.846241	-0.602783	0.105713	-0.401611	0.275874	0.027562	0.157285	-0.505969	0.216460	0.233265	0.801704	10.997430	-35.670425	-119.034679
25582		28.446283	2.898600	13.351524	-7.713524	-14.142482	17.315230	0.397762	6.725174	-2.389388	-0.570557	0.081787	-0.440674	0.289054	0.025298	0.123898	-0.504340	0.185683	0.220302	0.814021	11.611503	-31.635526	-119.738021
25583		26.952887	-0.242308	8.572238	-11.460651	-15.672385	10.746723	0.131099	6.576808	-2.914729	-0.538330	0.062256	-0.475342	0.272078	-0.006429	0.076799	-0.499514	0.155215	0.206800	0.826818	12.175396	-27.598197	-120.725257
25584		26.653058	-0.185037	4.976546	-12.471306	-18.053410	6.107503	0.179722	5.851911	-3.271380	-0.503906	0.040527	-0.501221	0.267756	-0.006264	0.041938	-0.491904	0.127217	0.195369	0.838855	12.807281	-23.931134	-121.950353
25585		28.661905	0.933925	1.383330	-13.459164	-22.158928	2.511279	-0.106164	4.978943	-3.261093	-0.485596	0.029785	-0.522949	0.286946	0.004667	0.006689	-0.482804	0.103340	0.184659	0.849778	13.230338	-20.728531	-123.223672
25586		27.910257	-2.707502	-3.519747	-16.938092	-21.955119	-4.372411	-0.452747	4.095560	-3.175789	-0.471680	0.020996	-0.542480	0.277827	-0.031582	-0.040828	-0.472704	0.084175	0.174444	0.859671	13.399478	-18.037897	-124.526538
25587		24.230207	-7.312869	-9.212863	-19.219509	-18.606183	-12.937085	-0.547348	3.048227	-3.119150	-0.459961	0.001221	-0.559570	0.239680	-0.077139	-0.095588	-0.461614	0.069648	0.166163	0.868592	13.491999	-15.926057	-125.918974
25588		24.268288	-10.503988	-15.422700	-21.980519	-18.557786	-20.278130	-0.288115	1.797140	-2.762192	-0.459473	-0.007568	-0.561523	0.239802	-0.108589	-0.156236	-0.450959	0.060312	0.161717	0.875697	13.676078	-14.565453	-127.261633
25589		27.776377	-11.419088	-18.971001	-24.859756	-21.379200	-23.476801	0.121120	0.632909	-1.974704	-0.457031	-0.014160	-0.554688	0.276017	-0.116807	-0.190656	-0.442844	0.055731	0.161419	0.880186	14.000598	-13.949884	-128.305019
25590		31.363407	-10.601518	-19.072320	-26.560783	-24.239031	-22.727616	0.234997	-0.195304	-1.074216	-0.456787	-0.020996	-0.556641	0.313246	-0.107474	-0.190543	-0.438029	0.055311	0.163194	0.882292	14.285945	-13.920065	-128.947132
25591		29.053677	-8.203793	-17.175998	-23.523764	-23.062427	-20.820975	-0.141346	-0.849881	-0.303370	-0.458984	-0.020996	-0.549805	0.291138	-0.082600	-0.170465	-0.435964	0.059234	0.164537	0.882810	14.274532	-14.362178	-129.243988
25592		24.251909	-5.077638	-13.473741	-18.439034	-19.936301	-17.428756	-0.833151	-1.626060	0.325590	-0.463867	-0.014404	-0.536865	0.243686	-0.050936	-0.132547	-0.435809	0.068602	0.164312	0.882250	13.804905	-15.323325	-129.289576
25593		6.065197	5.372535	1.279621	0.575573	-7.110893	-5.764106	-2.379129	-2.522819	0.831467	-0.482666	0.009766	-0.522217	0.060265	0.054130	0.012916	-0.436530	0.085742	0.159040	0.881360	12.398633	-16.857359	-129.146660
25594		-11.100377	3.816832	32.404096	10.774421	17.690227	17.730220	-2.664095	-3.301949	0.965786	-0.494629	0.029541	-0.502930	-0.116523	0.041909	0.321606	-0.436925	0.106962	0.154066	0.879727	10.815692	-18.833834	-128.975565
25595		-10.202464	6.160385	31.249486	13.211733	15.438873	16.749355	-2.328429	-2.767426	0.454890	-0.506348	0.049316	-0.485840	-0.106474	0.064986	0.310299	-0.435484	0.124696	0.149633	0.878871	9.485834	-20.457233	-128.998232
25596		5.864725	-14.384062	3.443845	-14.620294	5.406795	-6.626262	-1.811646	-2.777540	-0.250239	-0.522217	0.053467	-0.466064	0.057970	-0.143589	0.036548	-0.431127	0.140748	0.147864	0.878895	8.595270	-22.018264	-129.416244
25597		16.229550	-16.238835	1.801446	-22.258662	-1.228377	-4.038433	-0.440397	-3.923165	-0.526115	-0.540039	0.046631	-0.443848	0.161468	-0.162769	0.021545	-0.425529	0.158655	0.154742	0.877388	8.608258	-24.210951	-130.103335
25598		20.576559	-11.971363	16.995497	-18.885659	-0.006377	12.521311	0.340409	-3.846258	0.235540	-0.556152	0.055176	-0.428467	0.202590	-0.119767	0.173668	-0.423784	0.175063	0.164209	0.873382	8.893923	-26.421494	-130.324369
25599		18.165708	-6.459455	13.569997	-13.256064	-2.519568	9.520303	0.584086	-2.735071	0.871461	-0.564941	0.055176	-0.406494	0.180061	-0.064208	0.137982	-0.425821	0.186627	0.171775	0.868528	9.092276	-28.064909	-130.041449
25600		15.375201	6.081742	7.098840	-2.431667	-10.513140	4.585889	0.423254	-2.531809	0.875802	-0.585205	0.056885	-0.393066	0.152568	0.061334	0.073054	-0.427810	0.197562	0.178176	0.863829	9.183881	-29.588747	-129.736636
25601		14.944893	11.101661	7.599081	2.235791	-12.560861	5.729324	-0.099678	-2.416441	0.347865	-0.599121	0.063477	-0.384521	0.148323	0.111314	0.077732	-0.427038	0.208681	0.182562	0.860675	9.131469	-31.006466	-129.759804
25602		14.399018	8.667215	8.956451	1.075021	-9.910967	6.413191	-0.675404	-1.975773	0.238572	-0.605957	0.072266	-0.369385	0.142994	0.087148	0.090687	-0.425536	0.218938	0.183621	0.858643	8.764526	-32.157909	-129.805592
25603		7.642475	-1.541409	8.879878	-3.352072	0.406483	1.511208	-0.680841	-1.473807	0.533865	-0.606201	0.078857	-0.354004	0.075808	-0.014908	0.089410	-0.425716	0.227373	0.183261	0.856436	8.253289	-33.058526	-129.591195
25604		8.286801	2.915111	10.214405	0.431096	-1.803983	3.531185	-0.713049	-1.192590	0.801032	-0.613525	0.092041	-0.352295	0.082139	0.029846	0.102530	-0.427232	0.234830	0.181835	0.853969	7.601404	-33.810489	-129.156716
25605		10.706117	0.544979	10.603808	-2.486788	-1.793860	4.950595	-0.722953	-0.515231	0.598321	-0.618164	0.098633	-0.348145	0.106770	0.006153	0.106292	-0.428464	0.239292	0.179162	0.852677	6.975143	-34.166978	-128.787647
25606		6.472908	-1.719132	9.685168	-2.256998	1.733786	1.613416	-0.501773	-0.165742	0.442834	-0.620850	0.109619	-0.346436	0.064686	-0.016805	0.096948	-0.429603	0.241575	0.176852	0.851942	6.518145	-34.302931	-128.493348
25607		7.126961	0.479135	9.230998	-0.848008	-0.196083	1.826754	-0.388780	-0.051446	0.337879	-0.621094	0.114258	-0.344238	0.071237	0.005091	0.092319	-0.430528	0.243104	0.174914	0.851441	6.157570	-34.373737	-128.259654
25608		6.995599	-0.149541	8.548018	-1.426769	-0.127250	1.140729	-0.336566	0.001619	0.280675	-0.618896	0.120850	-0.337891	0.069959	-0.001253	0.085482	-0.431317	0.244173	0.173142	0.851098	5.849461	-34.401440	-128.062523
25609		6.589905	-0.228272	8.236250	-1.329692	0.000991	0.653763	-0.276249	0.004351	0.219512	-0.625732	0.118408	-0.333252	0.065903	-0.002097	0.082364	-0.431919	0.245116	0.171704	0.850813	5.596424	-34.431498	-127.905662
25610		6.188682	0.278568	8.457264	-0.622665	0.067172	0.652034	-0.221757	0.008384	0.180696	-0.621338	0.127441	-0.326904	0.061888	0.002935	0.084567	-0.432425	0.245820	0.170527	0.850589	5.392560	-34.448412	-127.776806
25611		5.537087	0.070390	9.143643	-0.253657	0.940981	0.832530	-0.175391	0.014363	0.137665	-0.619141	0.123047	-0.322510	0.055377	0.000822	0.091432	-0.432810	0.246431	0.169595	0.850403	5.228626	-34.467342	-127.675599
25612		5.417570	0.180114	9.221356	-0.064592	0.986291	0.838085	-0.105320	-0.019041	0.083279	-0.617188	0.136475	-0.320557	0.054166	0.001872	0.092218	-0.433021	0.246916	0.169091	0.850255	5.130453	-34.494283	-127.615725
25613		5.663411	-0.334851	8.525693	-0.785855	0.768303	0.368959	-0.074981	-0.058930	0.034458	-0.614990	0.134277	-0.318359	0.056610	-0.003307	0.085275	-0.433028	0.247532	0.168870	0.850116	5.066892	-34.549123	-127.590364
25614		6.444172	-0.391864	8.068951	-1.340232	0.066613	0.433688	-0.015942	-0.084786	-0.001504	-0.608398	0.138672	-0.311768	0.064407	-0.003913	0.080717	-0.432933	0.248031	0.168994	0.849995	5.055411	-34.609197	-127.593159
25615		6.439337	-0.025231	8.342365	-0.954375	0.009923	0.682541	0.028398	-0.108019	-0.032207	-0.606201	0.138672	-0.313965	0.064348	-0.000275	0.083458	-0.432743	0.248574	0.169400	0.849852	5.078879	-34.688492	-127.616920
25616		5.784671	0.712676	8.604919	0.057054	0.162518	0.578909	0.014087	-0.123073	-0.041343	-0.604004	0.140869	-0.314209	0.057795	0.007109	0.086085	-0.432484	0.249137	0.169783	0.849743	5.101741	-34.768391	-127.649789
25617		5.514721	1.253359	8.677521	0.664470	0.082156	0.523372	0.010451	-0.145428	-0.018887	-0.599365	0.136475	-0.311768	0.055085	0.012524	0.086816	-0.432296	0.249886	0.170176	0.849539	5.111113	-34.869508	-127.666729
25618		5.845989	1.629169	8.304188	0.713631	-0.524630	0.434498	-0.063199	-0.110173	0.007362	-0.599365	0.141113	-0.314209	0.058414	0.016320	0.083069	-0.432157	0.250603	0.170142	0.849406	5.069966	-34.944521	-127.664977
25619		5.685597	1.470373	8.648636	0.773850	-0.151035	0.611575	-0.074239	-0.069390	0.035490	-0.599609	0.143311	-0.316406	0.056823	0.014746	0.086501	-0.432159	0.251256	0.169943	0.849252	5.006646	-35.004732	-127.639390
25620		5.565394	0.733620	8.431940	0.183180	0.235971	0.312537	-0.114081	-0.038838	0.045518	-0.599609	0.143311	-0.316406	0.055636	0.007397	0.084326	-0.432178	0.251812	0.169491	0.849168	4.918482	-35.040913	-127.606517
25621		5.664002	0.358365	8.487239	-0.144026	0.412979	0.387865	-0.079709	-0.049474	0.029225	-0.597412	0.145508	-0.318848	0.056618	0.003626	0.084885	-0.432163	0.252384	0.169234	0.849057	4.853866	-35.089124	-127.583993
25622		5.619492	0.310047	8.568866	-0.128098	0.512647	0.425528	-0.044364	-0.059125	0.006058	-0.590576	0.143311	-0.327637	0.056169	0.003121	0.085705	-0.432085	0.252841	0.169171	0.848973	4.822059	-35.134923	-127.579725
25623		5.438961	0.592489	8.711176	0.242416	0.547174	0.456672	-0.003595	-0.079377	-0.004266	-0.590820	0.152344	-0.325684	0.054355	0.005925	0.087133	-0.431998	0.253346	0.169343	0.848832	4.815465	-35.198321	-127.582263
25624		6.329206	0.648905	8.231666	-0.283102	-0.296117	0.583101	-0.011613	-0.099253	0.013983	-0.595459	0.154297	-0.323486	0.063251	0.006498	0.082348	-0.431962	0.253910	0.169496	0.848652	4.800560	-35.267409	-127.574781
25625		6.025467	0.748590	7.850557	-0.147856	-0.342161	0.104920	-0.037499	-0.079160	0.026830	-0.599854	0.149902	-0.334473	0.060223	0.007509	0.078528	-0.431963	0.254511	0.169484	0.848473	4.762011	-35.331958	-127.555540
25626		5.849006	0.774537	8.249324	0.085363	-0.036080	0.328986	-0.030275	-0.069180	0.053163	-0.599854	0.149902	-0.336670	0.058459	0.007773	0.082512	-0.432095	0.255020	0.169443	0.848262	4.719452	-35.385722	-127.518769
25627		5.619845	0.832896	8.284510	0.269717	0.099098	0.228573	-0.061262	-0.046660	0.081495	-0.602051	0.149902	-0.336670	0.056176	0.008377	0.082856	-0.432325	0.255579	0.169190	0.848027	4.643993	-35.434079	-127.459259
25628		5.639937	1.055823	8.520098	0.523016	0.078383	0.445774	-0.053321	-0.041890	0.098422	-0.597900	0.156738	-0.343506	0.056376	0.010609	0.085210	-0.432642	0.256061	0.168934	0.847771	4.568764	-35.474270	-127.389016
25629		5.238657	0.221641	8.647921	0.087426	0.877560	0.262105	-0.037463	-0.044861	0.099333	-0.602051	0.149902	-0.343262	0.052366	0.002259	0.086491	-0.432979	0.256574	0.168755	0.847479	4.499545	-35.522046	-127.316753
25630		5.271593	0.660072	8.875936	0.508713	0.724636	0.493803	-0.031806	-0.070043	0.087845	-0.606689	0.152100	-0.343506	0.052682	0.006638	0.088777	-0.433254	0.257119	0.168665	0.847191	4.441647	-35.577711	-127.255281
25631		5.282135	0.543024	8.741301	0.381869	0.720603	0.382461	-0.021092	-0.090648	0.081874	-0.606689	0.156494	-0.343506	0.052779	0.005461	0.087436	-0.433500	0.257773	0.168676	0.846865	4.390170	-35.650440	-127.197561
25632		5.436251	0.598562	8.700883	0.352925	0.576456	0.442048	-0.006690	-0.130881	0.067516	-0.613281	0.152100	-0.343506	0.054304	0.006007	0.087044	-0.433669	0.258503	0.168849	0.846520	4.356656	-35.739887	-127.153434
25633		5.387225	0.322504	8.698069	0.163849	0.775230	0.392936	0.000728	-0.160836	0.057399	-0.624512	0.151855	-0.347900	0.053801	0.003240	0.087024	-0.433780	0.259384	0.169135	0.846137	4.329720	-35.851309	-127.116488
25634		5.719921	0.073134	8.508581	-0.243928	0.619586	0.418411	-0.005096	-0.208351	0.044870	-0.622559	0.156250	-0.345703	0.057110	0.000746	0.085145	-0.433789	0.260419	0.169513	0.845739	4.308640	-35.984006	-127.092237
25635		6.456282	0.436799	7.939923	-0.452486	-0.332503	0.414795	0.012540	-0.271834	0.041292	-0.626709	0.149658	-0.352295	0.064454	0.004376	0.079487	-0.433752	0.261728	0.170109	0.845234	4.298356	-36.157891	-127.072336
25636		5.727940	0.083204	8.572420	-0.183176	0.690372	0.472853	0.063382	-0.347750	0.023461	-0.635742	0.151855	-0.345703	0.057130	0.000812	0.085824	-0.433640	0.263184	0.171106	0.844638	4.329701	-36.369307	-127.070585
25637		5.550918	-0.341301	8.639121	-0.406368	1.117337	0.392695	0.112074	-0.443044	0.004765	-0.633545	0.149658	-0.345459	0.055318	-0.003460	0.086512	-0.433430	0.264966	0.172540	0.843897	4.397357	-36.639293	-127.086023
25638		5.578284	0.028944	8.701686	-0.075612	0.972829	0.477358	0.160297	-0.541080	-0.018169	-0.651611	0.151611	-0.343506	0.055547	0.000215	0.087168	-0.433099	0.266990	0.174417	0.843042	4.508817	-36.959296	-127.125338
25639		5.848788	0.529762	8.585415	0.195134	0.518494	0.574373	0.200736	-0.637691	-0.029636	-0.655762	0.142578	-0.334229	0.058215	0.005203	0.086045	-0.432686	0.269364	0.176688	0.842026	4.649790	-37.338577	-127.177904
25640		5.609667	0.612140	8.801229	0.469150	0.809271	0.600245	0.213141	-0.728823	-0.029472	-0.660156	0.140381	-0.329834	0.055776	0.006019	0.088222	-0.432204	0.272048	0.179206	0.840878	4.805135	-37.765095	-127.238868
25641		5.578984	0.881278	8.912167	0.771563	0.816717	0.678520	0.208143	-0.816040	-0.028002	-0.671387	0.142334	-0.325439	0.055427	0.008712	0.089357	-0.431636	0.275148	0.181886	0.839584	4.959021	-38.245796	-127.304406
25642		5.446781	1.043191	9.040027	1.044272	0.965332	0.697050	0.209957	-0.906649	-0.020132	-0.677979	0.137695	-0.316406	0.054058	0.010331	0.090657	-0.431011	0.278584	0.184754	0.838144	5.118566	-38.774008	-127.373757
25643		5.461862	0.960516	8.997670	1.000331	1.074196	0.654264	0.198437	-1.002574	0.000166	-0.687256	0.144287	-0.312256	0.054167	0.009516	0.090258	-0.430358	0.282498	0.187748	0.836503	5.265474	-39.361995	-127.435374
25644		5.662440	1.126972	9.071296	1.117658	1.002543	0.834671	0.201253	-1.107784	0.013896	-0.695801	0.135254	-0.298584	0.056120	0.011182	0.091036	-0.429653	0.286811	0.190955	0.834670	5.416986	-40.006470	-127.498228
25645		6.062532	0.938321	8.746093	0.733659	0.794845	0.815453	0.174661	-1.240604	0.020159	-0.707275	0.139648	-0.289795	0.060080	0.009313	0.087843	-0.428795	0.291767	0.194319	0.832615	5.556173	-40.730707	-127.567131
25646		6.513953	0.410342	8.686104	0.140838	0.909422	1.013185	0.144026	-1.406651	0.013662	-0.718262	0.132813	-0.274170	0.064526	0.004045	0.087319	-0.427683	0.297424	0.197914	0.830335	5.694586	-41.545334	-127.658065
25647		6.075418	-0.032819	8.893976	0.125513	1.678973	0.825799	0.142946	-1.602229	-0.015365	-0.729248	0.128174	-0.260742	0.060039	-0.000397	0.089422	-0.426232	0.303883	0.201952	0.827766	5.858606	-42.473142	-127.788912
25648		6.027493	-0.108423	8.829787	0.155193	1.869821	0.712716	0.142120	-1.811271	-0.072942	-0.742920	0.132324	-0.245361	0.059472	-0.001169	0.088838	-0.424296	0.311094	0.206506	0.824954	6.072939	-43.512766	-127.989570
25649		6.069598	-0.064945	8.790731	0.261108	1.976510	0.682192	0.137715	-2.025482	-0.137188	-0.753906	0.125488	-0.225098	0.059801	-0.000751	0.088515	-0.421830	0.319133	0.211573	0.821858	6.339804	-44.673034	-128.267545
25650		5.809499	0.854943	9.133618	1.369486	2.021644	0.767324	0.140807	-2.259040	-0.152181	-0.767334	0.127441	-0.198486	0.057065	0.008441	0.091991	-0.419007	0.328041	0.217148	0.818333	6.649616	-45.961033	-128.595319
25651		5.664807	1.913978	9.405848	2.538404	1.906134	0.870937	0.139496	-2.568554	-0.088134	-0.778564	0.122803	-0.171875	0.055442	0.019049	0.094789	-0.416049	0.338266	0.223223	0.814033	6.958176	-47.431046	-128.916915
25652		5.529497	1.932463	9.755558	2.897663	2.442391	0.916231	0.150573	-2.947246	0.039615	-0.796387	0.122559	-0.138428	0.053846	0.019262	0.098371	-0.413123	0.350058	0.229878	0.808668	7.246705	-49.121402	-129.193139
25653		4.660244	2.787899	10.587341	4.467891	3.242269	0.727446	0.191294	-3.394766	0.154265	-0.800781	0.120117	-0.103027	0.044775	0.027812	0.106670	-0.410116	0.363640	0.237354	0.802019	7.541196	-51.075770	-129.440875
25654		4.612219	2.909518	10.753908	4.874748	3.631093	0.599689	0.182518	-3.972885	0.300921	-0.816895	0.128662	-0.063477	0.043930	0.029064	0.108453	-0.406848	0.379583	0.245639	0.793759	7.810721	-53.366580	-129.654489
25655		3.851712	2.248585	10.727256	4.855860	4.675212	-0.352013	0.229044	-4.649243	0.499622	-0.818848	0.126221	-0.005615	0.035954	0.022454	0.108154	-0.403437	0.398191	0.254982	0.783369	8.050867	-56.057590	-129.793864
25656		3.874592	1.874072	11.142922	4.992452	5.561888	-0.496400	0.299269	-5.523810	0.681840	-0.823975	0.141602	0.047119	0.035585	0.018698	0.112469	-0.399491	0.420035	0.265838	0.770265	8.315768	-59.257781	-129.909012
25657		2.900874	1.697152	12.049249	5.878789	7.151999	-1.403704	0.249696	-6.575890	0.907185	-0.823730	0.139160	0.120361	0.024950	0.016940	0.121379	-0.394538	0.445935	0.277869	0.753837	8.515678	-63.072999	-129.979159
25658		2.359931	2.595827	12.993665	7.576770	8.055478	-2.147811	0.209353	-7.808130	1.269981	-0.804199	0.159180	0.184082	0.018340	0.025949	0.130748	-0.388617	0.476456	0.291006	0.732995	8.501286	-67.617063	-129.835715
25659		4.042095	4.277220	12.713238	8.887044	6.987275	-1.546821	0.112207	-8.978648	1.604233	-0.784180	0.166016	0.279053	0.034318	0.042992	0.128789	-0.381285	0.511059	0.304717	0.707523	8.085035	-72.850615	-129.330290
25660		9.299480	4.203480	11.229698	7.744774	5.327357	2.091809	-0.138009	-9.493962	1.883563	-0.758057	0.190430	0.360352	0.087128	0.042953	0.116497	-0.372661	0.547256	0.317148	0.679008	6.511096	-78.395631	-127.793032
25661		16.772334	-0.791211	9.387306	2.604377	6.263144	8.180782	-0.102917	-9.490091	1.880468	-0.719971	0.197510	0.439941	0.163085	-0.006313	0.101690	-0.363265	0.582067	0.328941	0.648872	2.157377	-83.911336	-123.455809
25662		26.227855	3.193001	7.145806	5.682022	3.018586	16.781310	0.147267	-9.005428	1.576812	-0.679932	0.206543	0.508545	0.258446	0.033920	0.083180	-0.353589	0.613076	0.340832	0.618827	-36.324007	-88.866102	-84.856317
25663		27.152617	4.311563	5.237679	7.203828	2.570375	17.100602	0.145754	-8.295155	1.556095	-0.635254	0.215820	0.568115	0.268697	0.045170	0.063595	-0.344381	0.640644	0.350850	0.589815	-157.785667	-85.847332	36.720084
25664		24.657251	5.788136	7.339490	10.813062	5.000189	13.705047	0.113875	-7.492604	1.989803	-0.590820	0.231934	0.609619	0.243001	0.060266	0.082578	-0.337174	0.665627	0.357439	0.561687	-161.524097	-81.411275	40.540587
25665		17.993716	5.154827	8.223716	11.051281	6.470930	6.117996	0.136093	-6.989572	2.205610	-0.548584	0.245605	0.649170	0.176335	0.053448	0.088479	-0.331079	0.688565	0.362004	0.534058	-161.770079	-77.205611	40.866313
25666		20.250632	2.062639	10.900225	10.971550	11.464502	6.954326	0.698392	-6.651813	2.186563	-0.501953	0.261719	0.681885	0.198493	0.022415	0.115726	-0.327035	0.708773	0.367117	0.505879	-161.427706	-73.181707	40.922138
25667		22.360241	5.047624	12.561246	15.496069	12.499226	7.119415	1.391913	-5.344083	1.974973	-0.471191	0.281982	0.698975	0.219627	0.051755	0.131874	-0.326988	0.723367	0.372200	0.480922	-160.424778	-69.913654	40.702146
25668		15.153633	6.748475	11.972836	15.254705	10.091601	-0.652981	1.347045	-4.079070	2.065117	-0.442627	0.300049	0.702881	0.148345	0.068205	0.123234	-0.329095	0.734680	0.374524	0.460079	-158.899028	-67.298841	39.888533
25669		14.227678	8.008035	16.374838	18.090926	13.179224	-4.009385	1.407471	-2.374525	1.558563	-0.436523	0.313477	0.704590	0.139691	0.080013	0.165980	-0.333339	0.740670	0.375883	0.446100	-157.355438	-65.702128	39.081081
25670		19.717158	9.828560	14.920754	20.872215	12.625438	0.814584	0.757935	-0.375316	1.239799	-0.438965	0.320313	0.690918	0.196279	0.098937	0.149951	-0.338148	0.742622	0.373590	0.441134	-155.688125	-65.209797	37.721256
25671		13.540997	10.530143	15.633405	19.785674	11.219255	-5.197989	0.247048	1.613330	0.785096	-0.457275	0.328857	0.672852	0.136252	0.105643	0.155368	-0.343777	0.740080	0.368467	0.445344	-153.789648	-65.856164	35.787474
25672		5.269336	8.274369	12.111942	13.753852	7.268292	-10.773004	-0.365085	2.929807	0.484609	-0.477539	0.330811	0.652832	0.054257	0.083094	0.120181	-0.348817	0.735063	0.360779	0.455903	-151.666368	-67.209346	33.240636
25673		1.539719	5.408007	8.694503	8.776081	4.936294	-12.224931	-0.662276	3.118792	0.380976	-0.500000	0.330811	0.630615	0.016645	0.054398	0.086512	-0.352816	0.729684	0.352376	0.467882	-149.411811	-68.663493	30.395677
25674		-0.017246	4.122053	7.221881	6.658369	4.018664	-12.755414	-0.688859	3.088629	0.276398	-0.524658	0.330566	0.608398	0.000884	0.041470	0.072068	-0.356303	0.724140	0.344259	0.479745	-146.982857	-70.072692	27.374605
25675		-0.109299	2.752553	6.399611	5.198373	3.999064	-12.163144	-0.541726	3.068504	0.052223	-0.542969	0.334717	0.586182	-0.000119	0.027699	0.063928	-0.359693	0.717721	0.337256	0.491687	-144.377370	-71.514714	24.284699
25676		1.594351	1.734454	6.166812	4.788705	4.533880	-10.110330	-0.185752	3.122303	-0.292964	-0.565186	0.330078	0.559570	0.016929	0.017377	0.061393	-0.363486	0.709871	0.332189	0.503599	-141.547199	-73.032880	21.197928
25677		3.183050	2.237760	5.998694	5.571933	4.259519	-8.423879	0.145191	3.391468	-0.675809	-0.583008	0.325439	0.526611	0.032917	0.022224	0.059451	-0.367869	0.699807	0.328732	0.516602	-138.142839	-74.775472	17.739767
25678		3.963800	2.734636	6.054807	6.173678	4.051815	-7.508006	0.335478	3.807577	-1.029721	-0.603027	0.320801	0.504395	0.040921	0.027037	0.059823	-0.372531	0.687603	0.326130	0.531095	-133.661161	-76.743253	13.311068
25679		4.212230	3.303437	6.131409	6.675072	3.757325	-7.062203	0.346968	4.242315	-1.321847	-0.625244	0.313965	0.462646	0.043627	0.032644	0.060456	-0.377031	0.673327	0.323604	0.547502	-127.141393	-78.906218	6.844485
25680		4.140629	3.285840	6.092363	6.536808	3.624702	-6.783228	0.189257	4.618752	-1.528339	-0.652100	0.309326	0.431641	0.043048	0.032477	0.059973	-0.380810	0.657736	0.320461	0.565395	-117.006356	-81.052495	-3.338826
25681		4.445842	2.103679	6.140117	5.487323	4.118572	-5.965010	-0.012880	4.942399	-1.681388	-0.671875	0.298096	0.385498	0.046132	0.020658	0.060274	-0.383797	0.640825	0.316424	0.584739	-100.035002	-82.892290	-20.482320
25682		4.869217	0.505896	6.142048	4.024361	4.728890	-5.004691	-0.095020	5.259540	-1.808928	-0.687256	0.282471	0.343750	0.050328	0.004637	0.060109	-0.386344	0.622606	0.311725	0.604919	-73.708884	-83.783224	-47.039097
25683		4.977493	-1.079357	5.948504	2.387604	5.147662	-4.417240	0.013028	5.569776	-1.884197	-0.704590	0.266846	0.295654	0.051301	-0.011276	0.058070	-0.389195	0.602476	0.306722	0.625677	-44.750835	-83.053668	-76.174204
25684		4.973687	-1.847263	5.840221	1.449632	5.218935	-4.076536	0.260387	5.822371	-1.884515	-0.728760	0.251221	0.249512	0.051231	-0.019025	0.056901	-0.392801	0.580674	0.301738	0.646126	-24.777165	-80.903506	-96.191093
25685		5.079888	-2.007734	5.922079	1.090666	5.103592	-3.676484	0.519971	6.012961	-1.786688	-0.726318	0.240234	0.198975	0.052364	-0.020692	0.057609	-0.397414	0.557186	0.296625	0.666047	-13.225545	-77.956837	-107.634974
25686		5.542344	-1.984384	6.174821	0.910928	4.929240	-2.910907	0.719133	6.139220	-1.582592	-0.735107	0.233643	0.148193	0.057122	-0.020509	0.059939	-0.403025	0.532778	0.291079	0.684830	-6.676255	-74.654636	-113.952732
25687		6.252627	-2.391354	6.586708	0.340154	4.966416	-1.850918	0.906062	6.247044	-1.301075	-0.739014	0.220215	0.095459	0.064381	-0.024620	0.063765	-0.409867	0.507328	0.284880	0.702475	-2.771448	-71.137334	-117.494101
25688		6.988718	-2.863633	7.005013	-0.373339	4.931296	-0.778268	1.138134	6.328353	-0.999454	-0.731934	0.207275	0.044922	0.071907	-0.029382	0.067630	-0.418018	0.481177	0.278295	0.718527	-0.353354	-67.539321	-119.384503
25689		7.512581	-2.567467	7.377184	-0.486119	4.440621	0.059333	1.388619	6.398366	-0.721131	-0.727295	0.205078	-0.006104	0.077336	-0.026451	0.071139	-0.427448	0.453956	0.271463	0.733158	1.296033	-63.859327	-120.321279
25690		8.061084	-1.682435	7.876008	-0.089417	3.675127	0.970712	1.529763	6.388335	-0.482586	-0.720215	0.194336	-0.056641	0.083026	-0.017611	0.076001	-0.437572	0.426471	0.264370	0.746165	2.457115	-60.203596	-120.647458
25691		9.116662	-0.893726	8.556331	0.106998	2.788709	2.405284	1.575675	6.348706	-0.336399	-0.711182	0.187988	-0.107422	0.093803	-0.009752	0.082539	-0.447839	0.398593	0.256900	0.758002	3.375059	-56.550086	-120.665322
25692		10.544697	-0.655684	9.536183	-0.267336	2.073448	4.262761	1.574263	6.289533	-0.346451	-0.697510	0.181641	-0.153809	0.108362	-0.007476	0.091928	-0.457492	0.370682	0.249346	0.768845	4.211899	-52.952943	-120.590043
25693		12.045911	-1.158504	10.829468	-1.363595	1.703320	6.276789	1.582894	6.243358	-0.549410	-0.685547	0.164063	-0.199707	0.123724	-0.012758	0.104368	-0.465863	0.342108	0.242003	0.779339	5.148324	-49.351125	-120.627429
25694		13.220247	-1.503968	12.361102	-2.322705	1.435379	8.139007	1.703867	6.182786	-0.879114	-0.669434	0.151123	-0.252441	0.135865	-0.016660	0.119311	-0.472580	0.312912	0.235628	0.789452	6.280456	-45.787931	-120.843431
25695		15.162971	0.276987	14.663042	-1.683879	0.111873	11.211023	1.858090	6.059767	-1.183445	-0.655273	0.129150	-0.296143	0.155986	0.000522	0.141959	-0.477712	0.282972	0.230337	0.799164	7.591892	-42.248825	-121.197825
25696		20.988574	2.169248	16.934457	-2.792374	-4.014909	16.792494	1.798665	6.025967	-1.485776	-0.627686	0.114014	-0.337646	0.215009	0.018622	0.163094	-0.481006	0.252848	0.225126	0.808715	8.913193	-38.721687	-121.650972
25697		27.729158	3.057125	16.915148	-6.123322	-10.199392	20.559165	1.503510	6.328245	-1.948967	-0.604492	0.090088	-0.387695	0.282733	0.026605	0.160472	-0.481873	0.221237	0.218286	0.819271	10.150863	-34.951086	-122.277551
25698		30.336832	0.275369	13.742762	-11.683979	-13.985611	18.056191	1.072156	6.656132	-2.451765	-0.572021	0.063965	-0.426758	0.307714	-0.001702	0.127232	-0.479971	0.188683	0.209227	0.830813	11.197535	-30.955126	-123.078689
25699		30.120418	-1.730878	8.516559	-15.292267	-16.840935	11.748255	1.130132	6.509247	-2.821032	-0.546631	0.039795	-0.468018	0.303472	-0.022023	0.075196	-0.475818	0.155813	0.200801	0.842021	12.300842	-26.967485	-124.019483
25700		30.088213	2.414076	3.681482	-13.130899	-21.886755	6.707396	0.923886	5.889210	-2.618511	-0.516846	0.027100	-0.494141	0.302074	0.020048	0.028030	-0.471179	0.126223	0.192628	0.851441	13.164065	-23.357511	-124.813149
25701		29.849181	1.305973	-1.401326	-14.862002	-23.906538	0.287880	0.325626	5.003828	-2.179673	-0.496094	0.011719	-0.522217	0.298136	0.009840	-0.021458	-0.466748	0.101993	0.183516	0.859107	13.571029	-20.276878	-125.407805
25702		27.922170	-4.370258	-6.945609	-19.004493	-21.969153	-8.072027	0.028795	4.031674	-2.035925	-0.478027	0.005371	-0.539795	0.277282	-0.046521	-0.075066	-0.461607	0.082823	0.175237	0.865651	13.785709	-17.768598	-126.027736
25703		26.152525	-9.399762	-13.709859	-22.211909	-20.317670	-17.160546	0.261813	2.914330	-2.082196	-0.470459	-0.014404	-0.547852	0.258493	-0.096517	-0.141005	-0.455185	0.067793	0.170480	0.871291	14.162665	-15.862842	-126.815572
25704		28.523104	-10.411418	-20.215777	-24.168229	-23.520862	-23.713871	0.762375	1.783993	-1.835100	-0.459229	-0.018799	-0.556641	0.282444	-0.105936	-0.205087	-0.448940	0.056825	0.170361	0.875329	14.803081	-14.622267	-127.604834
25705		29.422992	-9.324769	-23.517282	-23.603203	-25.641612	-26.874581	0.849983	0.651925	-1.256042	-0.460938	-0.031982	-0.553955	0.292871	-0.094087	-0.236528	-0.444231	0.051067	0.172984	0.877569	15.440686	-14.082522	-128.220967
25706		27.966047	-7.311958	-21.613233	-21.305724	-24.834578	-25.044325	0.205410	-0.558673	-0.609284	-0.460938	-0.031982	-0.549561	0.280039	-0.073751	-0.215426	-0.441133	0.052644	0.175292	0.878580	15.661064	-14.309393	-128.655719
25707		24.747131	-3.983143	-15.857844	-17.304312	-22.134500	-19.318413	-0.786319	-1.624354	-0.122426	-0.472412	-0.025635	-0.543213	0.248723	-0.040601	-0.156403	-0.438956	0.061529	0.175479	0.879055	15.291115	-15.202440	-128.982075
25708		12.301334	1.835055	-4.613320	-5.865603	-11.888666	-10.281468	-2.923940	-2.635711	0.541853	-0.487061	0.007568	-0.524414	0.123560	0.018024	-0.044772	-0.438049	0.080102	0.168223	0.879431	13.633444	-16.754285	-129.060754
25709		-8.242419	0.532224	29.560751	5.829258	16.773963	15.218550	-2.745991	-3.567560	0.577272	-0.505127	0.013916	-0.502441	-0.087701	0.009118	0.293967	-0.436381	0.102419	0.163735	0.878790	12.100051	-18.839107	-129.199396
25710		-8.871809	5.560367	32.908246	11.585535	15.820944	18.610985	-2.550729	-2.904314	0.262803	-0.512451	0.029297	-0.478516	-0.093554	0.059662	0.327004	-0.433779	0.121049	0.158709	0.878632	10.698833	-20.512050	-129.390294
25711		7.126438	-17.077890	1.703514	-17.725619	5.416209	-8.477152	-1.998627	-2.942118	-0.183373	-0.530762	0.035645	-0.458984	0.070830	-0.170655	0.019785	-0.429368	0.138271	0.156424	0.878667	9.707220	-22.167416	-129.820357
25712		16.800590	-18.757306	2.052247	-24.627713	-0.013032	-4.180023	-0.508123	-4.301920	-0.112987	-0.549072	0.046387	-0.439453	0.167400	-0.187609	0.024604	-0.425063	0.158246	0.163475	0.876102	9.617795	-24.598368	-130.338509
25713		24.294631	-11.497882	19.741395	-20.430878	-1.377051	16.507016	0.421790	-3.905336	0.573073	-0.564697	0.043945	-0.410400	0.239362	-0.114712	0.201869	-0.424641	0.175048	0.173143	0.871240	9.878863	-26.876246	-130.396857
25714		19.638216	-0.818880	13.466057	-9.679275	-6.619223	10.926885	0.386327	-2.565192	1.081288	-0.578125	0.045898	-0.403809	0.194675	-0.007397	0.137150	-0.427433	0.186428	0.179316	0.866252	9.907791	-28.442545	-129.990831
25715		13.691154	7.674397	5.722966	-0.432861	-10.791844	2.932147	0.082996	-2.437479	0.884751	-0.587402	0.052490	-0.388672	0.135859	0.077322	0.058922	-0.429130	0.197761	0.184045	0.861896	9.800510	-29.924478	-129.688499
25716		15.978157	14.189552	7.869335	4.261754	-14.692356	7.055299	-0.441054	-2.422681	0.375458	-0.596680	0.061279	-0.377930	0.158548	0.142370	0.080305	-0.428053	0.209585	0.186964	0.859005	9.555349	-31.340931	-129.711050
25717		12.173476	3.064765	7.917436	-2.452900	-5.698725	3.669664	-0.951348	-1.772737	0.394904	-0.612549	0.067627	-0.364746	0.120966	0.031267	0.080101	-0.427075	0.219773	0.186268	0.857095	8.965508	-32.400375	-129.637143
25718		6.561683	-1.352334	10.266729	-2.302101	1.736497	2.102491	-0.771699	-1.380984	0.736905	-0.608643	0.081055	-0.360840	0.064954	-0.012886	0.103168	-0.428085	0.228123	0.185098	0.854659	8.325482	-33.258014	-129.279437
25719		9.700149	2.381086	11.141059	-0.501499	-1.911114	5.018959	-0.801849	-0.931532	0.820232	-0.615479	0.083252	-0.349854	0.096382	0.024655	0.111763	-0.429803	0.234755	0.182745	0.852505	7.598269	-33.872529	-128.805635
25720		9.334941	-1.490182	9.852338	-3.622989	-0.157796	3.350826	-0.679234	-0.303423	0.534926	-0.620361	0.098633	-0.352539	0.093239	-0.014317	0.098714	-0.431006	0.238100	0.179877	0.851579	7.013530	-34.095805	-128.462803
25721		7.228882	-1.459221	8.844132	-2.668516	0.646933	1.370548	-0.478141	-0.150301	0.444778	-0.618164	0.100830	-0.345947	0.072254	-0.014220	0.088530	-0.432194	0.240352	0.177654	0.850810	6.566237	-34.232343	-128.164822
25722		8.000319	-0.273021	8.290819	-2.168142	-0.833289	1.475440	-0.380213	-0.031575	0.354289	-0.618652	0.109863	-0.341797	0.079995	-0.002431	0.082926	-0.433217	0.241728	0.175684	0.850309	6.206678	-34.284725	-127.920068
25723		6.893427	0.200070	8.532462	-1.104410	-0.282993	1.098877	-0.342664	0.001363	0.326349	-0.627930	0.116211	-0.339844	0.068931	0.002259	0.085320	-0.434192	0.242935	0.173846	0.849845	5.874376	-34.324497	-127.689983
25724		5.886358	0.448676	8.811577	-0.275916	0.350127	0.784270	-0.327891	0.005223	0.295688	-0.623291	0.116455	-0.337646	0.058859	0.004718	0.088107	-0.435057	0.243986	0.172088	0.849460	5.565368	-34.350197	-127.482193
25725		5.821937	0.413395	8.699365	-0.263497	0.332469	0.654629	-0.295505	0.015709	0.255761	-0.623535	0.120850	-0.337891	0.058221	0.004337	0.086983	-0.435797	0.244965	0.170503	0.849118	5.286476	-34.375728	-127.299331
25726		5.942888	0.589173	8.832297	-0.110462	0.198081	0.846720	-0.273495	0.034149	0.236727	-0.619385	0.129639	-0.331543	0.059437	0.006083	0.088305	-0.436499	0.245723	0.168983	0.848843	5.030287	-34.380201	-127.130105
25727		5.318597	0.402878	9.039942	0.134145	0.796286	0.652406	-0.250332	0.041124	0.214178	-0.623779	0.129639	-0.320313	0.053200	0.004199	0.090383	-0.437136	0.246456	0.167583	0.848580	4.792461	-34.387546	-126.974258
25728		5.961534	-0.080025	8.237507	-0.774456	0.222788	0.324044	-0.223381	0.024530	0.202819	-0.614990	0.136475	-0.322998	0.059626	-0.000648	0.082369	-0.437745	0.247115	0.166338	0.848319	4.578478	-34.394773	-126.828976
25729		5.311059	0.375829	8.637233	0.056565	0.579647	0.317029	-0.168887	0.043718	0.179423	-0.610596	0.138672	-0.318604	0.053126	0.003879	0.086357	-0.438335	0.247626	0.165318	0.848064	4.400724	-34.397834	-126.696997
25730		5.771241	1.024591	8.597065	0.374489	-0.125533	0.584931	-0.173592	0.050679	0.200211	-0.606445	0.145264	-0.321045	0.057724	0.010378	0.085947	-0.439014	0.248063	0.164229	0.847797	4.215480	-34.389219	-126.552099
25731		5.570078	1.289893	8.600756	0.717494	-0.157244	0.488914	-0.217070	0.059981	0.208583	-0.604004	0.145508	-0.316650	0.055713	0.013050	0.085977	-0.439680	0.248631	0.162932	0.847536	3.998376	-34.383146	-126.399211
25732		6.256180	1.071378	7.852442	0.018784	-0.883606	0.245507	-0.281653	0.073435	0.222038	-0.599609	0.147705	-0.316650	0.062579	0.010894	0.078486	-0.440334	0.249225	0.161308	0.847333	3.742194	-34.361453	-126.238250
25733		6.406193	0.621760	7.862887	-0.393798	-0.753606	0.312911	-0.317440	0.115595	0.231148	-0.597656	0.156494	-0.316895	0.064100	0.006416	0.078582	-0.441012	0.249793	0.159434	0.847167	3.457814	-34.323069	-126.067643
25734		6.044305	0.744053	8.385056	0.058606	-0.356600	0.544226	-0.317350	0.141639	0.223493	-0.586670	0.161133	-0.323730	0.060494	0.007641	0.083796	-0.441678	0.250176	0.157505	0.847068	3.179487	-34.261134	-125.903351
25735		5.463814	0.404353	8.810550	0.207425	0.397611	0.552702	-0.300125	0.146223	0.214671	-0.588867	0.161133	-0.323730	0.054698	0.004234	0.088059	-0.442328	0.250560	0.155657	0.846957	2.911601	-34.203224	-125.743839
25736		5.363015	-0.139264	8.669781	-0.209888	0.671498	0.358417	-0.272264	0.115399	0.183499	-0.580322	0.167969	-0.323975	0.053681	-0.001225	0.086669	-0.442858	0.250921	0.154025	0.846872	2.675929	-34.153948	-125.609012
25737		5.452519	-0.277562	8.670027	-0.345182	0.664833	0.405685	-0.219971	0.095996	0.154031	-0.580322	0.167969	-0.328369	0.054569	-0.002638	0.086677	-0.443310	0.251289	0.152702	0.846766	2.479049	-34.121842	-125.493823
25738		5.511804	-0.092238	8.802976	-0.164522	0.565585	0.557167	-0.166392	0.068876	0.115603	-0.578369	0.176758	-0.326416	0.055149	-0.000817	0.088011	-0.443647	0.251560	0.151706	0.846688	2.331544	-34.096810	-125.407807
25739		5.392961	-0.200254	8.743093	-0.199533	0.664862	0.438358	-0.117709	0.038007	0.084293	-0.580322	0.172363	-0.333008	0.053947	-0.001928	0.087422	-0.443888	0.251891	0.151030	0.846584	2.221369	-34.095531	-125.342709
25740		5.136412	0.448099	8.742766	0.470772	0.465777	0.315536	-0.085631	0.028290	0.074477	-0.580322	0.172363	-0.339600	0.051375	0.004538	0.087418	-0.444121	0.252122	0.150518	0.846484	2.136768	-34.092559	-125.286330
25741		5.394844	0.172198	8.640588	0.099902	0.390503	0.367257	-0.078866	0.014794	0.080146	-0.578369	0.179199	-0.342041	0.053954	0.001778	0.086401	-0.444375	0.252460	0.150063	0.846331	2.050834	-34.104006	-125.224732
25742		5.625936	0.340946	8.609139	0.130176	0.118858	0.475830	-0.067607	0.008649	0.079106	-0.585205	0.178955	-0.348877	0.056262	0.003461	0.086088	-0.444636	0.252738	0.149664	0.846182	1.975023	-34.112239	-125.165630
25743		5.983976	-0.311441	8.382044	-0.636463	0.130273	0.470384	-0.044307	-0.022769	0.083863	-0.583008	0.181396	-0.351074	0.059832	-0.003071	0.083828	-0.444921	0.253158	0.149433	0.845947	1.907962	-34.144883	-125.102338
25744		6.106520	-0.480742	8.287693	-0.852461	0.096884	0.457194	-0.023578	-0.054290	0.077154	-0.578613	0.185791	-0.349121	0.061045	-0.004774	0.082894	-0.445181	0.253602	0.149363	0.845689	1.858855	-34.189010	-125.045956
25745		5.521698	-0.179665	8.591619	-0.224016	0.475074	0.388364	0.004929	-0.091436	0.068110	-0.584961	0.176758	-0.353027	0.055178	-0.001780	0.085941	-0.445410	0.254190	0.149512	0.845366	1.826776	-34.260463	-124.994938
25746		5.201902	0.318079	8.874251	0.433696	0.557886	0.454442	0.027948	-0.116075	0.063434	-0.594238	0.183350	-0.353271	0.051966	0.003185	0.088773	-0.445632	0.254771	0.149815	0.845020	1.813126	-34.339671	-124.949280
25747		5.364886	0.015157	8.869413	0.114842	0.627582	0.533406	0.042763	-0.153738	0.061593	-0.591797	0.178955	-0.355469	0.053581	0.000149	0.088735	-0.445835	0.255531	0.150270	0.844603	1.805881	-34.446387	-124.904013
25748		4.822061	-0.085905	9.147583	0.380737	1.202775	0.451145	0.058434	-0.209929	0.040688	-0.598633	0.178955	-0.351074	0.048125	-0.000876	0.091526	-0.445928	0.256422	0.150939	0.844164	1.819612	-34.578926	-124.876099
25749		5.112221	-0.263189	9.056235	0.082806	1.087711	0.532815	0.090384	-0.299393	0.017779	-0.598633	0.181152	-0.351074	0.050987	-0.002668	0.090638	-0.445896	0.257654	0.151974	0.843620	1.858644	-34.767935	-124.864503
25750		5.289202	-0.355099	8.901539	-0.109254	0.979322	0.500800	0.112911	-0.373612	-0.018914	-0.612305	0.185303	-0.355713	0.052725	-0.003606	0.089112	-0.445681	0.259068	0.153315	0.843058	1.929454	-34.993109	-124.882078
25751		5.346506	-0.207329	8.917096	0.008704	0.910833	0.546502	0.107075	-0.471553	-0.059928	-0.611816	0.174316	-0.353027	0.053254	-0.002137	0.089296	-0.445208	0.260925	0.154901	0.842445	2.011898	-35.278881	-124.929450
25752		5.397294	-0.555039	8.762448	-0.329431	1.046059	0.435058	0.080481	-0.558561	-0.098826	-0.620850	0.176270	-0.346436	0.053725	-0.005612	0.087773	-0.444466	0.263126	0.156619	0.841834	2.100068	-35.608271	-125.008760
25753		5.438173	-0.622832	8.827448	-0.361198	1.154487	0.503402	0.197291	-0.698990	-0.124783	-0.625244	0.174072	-0.342041	0.054069	-0.006349	0.088458	-0.443654	0.265683	0.159171	0.840981	2.265980	-36.022426	-125.109673
25754		6.185696	-0.113408	8.493889	-0.363756	0.289903	0.685161	0.237218	-0.808689	-0.132740	-0.634277	0.169434	-0.341797	0.061512	-0.001276	0.085187	-0.442766	0.268553	0.162144	0.839968	2.465236	-36.493852	-125.223420
25755		5.858457	0.013812	8.738329	-0.002493	0.651639	0.687533	0.253064	-0.905790	-0.140936	-0.647461	0.164795	-0.334961	0.058188	-0.000014	0.087647	-0.441778	0.271831	0.165404	0.838798	2.678087	-37.025189	-125.347132
25756		5.730654	0.631705	8.843963	0.635476	0.547838	0.711103	0.251811	-0.999010	-0.136188	-0.651855	0.162598	-0.330566	0.056868	0.006167	0.088732	-0.440719	0.275453	0.168856	0.837484	2.896532	-37.604747	-125.475967
25757		5.418313	0.849351	9.097863	1.079071	0.870594	0.719508	0.237040	-1.075313	-0.119524	-0.663086	0.162354	-0.321777	0.053698	0.008353	0.091278	-0.439633	0.279477	0.172384	0.836002	3.100939	-38.232721	-125.597485
25758		5.622374	0.960179	9.020159	1.099539	0.752148	0.775997	0.220396	-1.174867	-0.100191	-0.669922	0.162354	-0.314941	0.055697	0.009474	0.090540	-0.438503	0.283916	0.176030	0.834338	3.296380	-38.913281	-125.714715
25759		5.414179	1.133296	9.276130	1.476011	1.048693	0.834582	0.176399	-1.265234	-0.076248	-0.685303	0.155518	-0.297119	0.053558	0.011230	0.093111	-0.437314	0.288880	0.179647	0.832485	3.458341	-39.650349	-125.820243
25760		5.736008	1.083208	8.979319	1.259535	0.840507	0.789601	0.136614	-1.405308	-0.055544	-0.694336	0.157471	-0.292725	0.056730	0.010755	0.090201	-0.436007	0.294477	0.183370	0.830396	3.598402	-40.463728	-125.922359
25761		5.907354	0.448015	9.061432	0.760795	1.271092	0.911598	0.091424	-1.537175	-0.050895	-0.707764	0.152832	-0.272461	0.058376	0.004424	0.091067	-0.434508	0.300746	0.187172	0.828083	3.715012	-41.356427	-126.029203
25762		5.723878	-0.118161	8.906127	0.407141	1.756541	0.620044	0.077612	-1.712330	-0.083056	-0.718994	0.157227	-0.257324	0.056473	-0.001240	0.089546	-0.432661	0.307682	0.191336	0.825546	3.853296	-42.343935	-126.175705
25763		5.840979	-0.210284	9.280617	0.506545	2.122470	0.935618	0.071841	-1.883486	-0.134610	-0.729980	0.145752	-0.245850	0.057531	-0.002175	0.093350	-0.430394	0.315297	0.195906	0.822782	4.024894	-43.430518	-126.375717
25764		5.858340	0.850880	9.333274	1.511336	1.744677	0.995715	0.064133	-2.122926	-0.146449	-0.736816	0.150146	-0.221436	0.057595	0.008436	0.093950	-0.427786	0.323834	0.200962	0.819601	4.220273	-44.649401	-126.609558
25765		6.067576	1.305158	9.476822	1.983653	1.673798	1.213933	0.059231	-2.432224	-0.077585	-0.752197	0.138672	-0.203369	0.059522	0.013000	0.095501	-0.425086	0.333706	0.206516	0.815655	4.394874	-46.050535	-126.815149
25766		5.801112	1.566129	9.646579	2.530884	2.025064	1.079855	0.090794	-2.813197	0.033674	-0.763672	0.149658	-0.170410	0.056644	0.015627	0.097276	-0.422423	0.345090	0.212791	0.810673	4.553466	-47.670704	-126.966570
25767		5.326928	1.886983	10.253804	3.407859	2.767005	1.040664	0.112780	-3.294849	0.162146	-0.779053	0.142822	-0.134766	0.051555	0.018854	0.103407	-0.419708	0.358460	0.219894	0.804362	4.674984	-49.574175	-127.049559
25768		4.777661	2.241866	10.739041	4.329216	3.490890	0.781320	0.126428	-3.847564	0.302073	-0.790771	0.153564	-0.097412	0.045665	0.022420	0.108297	-0.416833	0.374035	0.227896	0.796499	4.750479	-51.797178	-127.058581
25769		3.919280	2.050740	10.911051	4.809653	4.487638	-0.049406	0.154989	-4.540642	0.484972	-0.799561	0.153320	-0.048584	0.036653	0.020513	0.109978	-0.413766	0.392367	0.237003	0.786559	4.746449	-54.426265	-126.948899
25770		3.400284	1.382809	12.063953	5.200518	6.295138	-0.205410	0.187174	-5.388790	0.679782	-0.804199	0.157471	0.006592	0.030689	0.013823	0.121509	-0.410257	0.413931	0.247466	0.774023	4.644731	-57.547085	-126.701614
25771		2.184657	1.377156	13.158769	6.380027	8.055186	-1.200539	0.149239	-6.405017	0.905575	-0.811279	0.166260	0.066162	0.017556	0.013759	0.132206	-0.405923	0.439418	0.259166	0.758269	4.328703	-61.258343	-126.240962
25772		1.191864	2.166754	13.779541	7.940142	8.942517	-2.540921	0.083244	-7.653138	1.217900	-0.800293	0.175049	0.145752	0.006505	0.021661	0.138122	-0.400485	0.469603	0.272139	0.738258	3.576778	-65.692768	-125.352317
25773		1.900326	3.195686	13.195251	8.719298	8.182256	-3.117002	-0.045948	-9.008251	1.607055	-0.787598	0.194824	0.229248	0.012781	0.032107	0.132614	-0.393625	0.504718	0.285928	0.713137	1.834223	-70.902471	-123.511975
25774		6.689768	4.526397	11.508204	8.657206	5.427986	-0.163273	-0.266973	-9.776741	1.897211	-0.753906	0.199463	0.317871	0.060738	0.046016	0.118091	-0.385230	0.542267	0.299066	0.684182	-2.104790	-76.516228	-119.576643
25775		15.745008	-0.330523	9.393022	3.295743	5.378848	7.397025	-0.358569	-9.749591	1.960651	-0.725098	0.213135	0.390625	0.152647	-0.001615	0.101455	-0.375898	0.578626	0.310908	0.653627	-11.776452	-81.951984	-109.956668
25776		25.103365	3.444433	6.969494	6.193239	1.654730	15.663011	-0.284455	-9.309583	1.779352	-0.685303	0.228760	0.465576	0.247111	0.036765	0.081210	-0.365969	0.611775	0.321968	0.623005	-46.558943	-86.319757	-75.193821
25777		28.111213	2.106492	3.997127	5.172579	1.440775	18.139420	-0.313048	-8.504647	1.597760	-0.649414	0.233643	0.534180	0.278895	0.023374	0.051829	-0.355939	0.640890	0.331342	0.593953	-123.244946	-85.705206	1.443261
25778		25.648481	3.779404	5.819487	8.876993	3.710988	14.947256	-0.199338	-7.744885	1.814974	-0.602783	0.247314	0.573730	0.253620	0.040169	0.068016	-0.347543	0.666818	0.338446	0.565705	-145.759931	-81.766805	23.958163
25779		20.369950	5.048499	8.710073	11.940866	6.352285	8.439002	-0.102546	-7.056824	1.977037	-0.558350	0.263428	0.619629	0.199947	0.052521	0.094174	-0.340596	0.689899	0.343580	0.538504	-152.012922	-77.706792	30.245382
25780		21.130467	3.131266	10.738485	12.433033	10.059885	7.952544	0.371548	-6.650810	2.095976	-0.518311	0.279297	0.650146	0.207236	0.033291	0.114383	-0.335848	0.710424	0.348457	0.510961	-154.356601	-73.751187	32.877779
25781		24.260022	4.996274	12.282578	16.303985	11.667367	9.219404	1.085315	-5.288830	1.956877	-0.482910	0.290771	0.672119	0.238735	0.051621	0.129451	-0.335326	0.725261	0.352999	0.486769	-154.645485	-70.528794	33.830911
25782		15.638408	5.193782	11.922893	14.404669	10.257725	0.232879	1.403912	-3.745359	1.826659	-0.463379	0.311035	0.677979	0.153633	0.052497	0.122491	-0.338126	0.735142	0.355978	0.467458	-153.823113	-68.129276	33.807609
25783		15.010492	6.089620	17.470185	17.501473	14.641062	-2.963525	2.150426	-1.947501	1.147097	-0.455078	0.331055	0.666260	0.148045	0.059856	0.176797	-0.345182	0.738026	0.360025	0.454477	-152.397876	-66.835555	33.595220
25784		20.308711	11.211835	15.690979	22.738627	11.993261	1.298998	1.696563	0.215297	0.870442	-0.471191	0.344238	0.656738	0.202770	0.111666	0.157640	-0.353746	0.736211	0.360274	0.450621	-150.277555	-66.692661	32.341335
25785		13.014600	13.192832	16.063109	22.101662	9.845316	-5.808652	0.909150	2.138572	0.629104	-0.480469	0.350830	0.636719	0.131444	0.131613	0.159829	-0.362318	0.730859	0.356193	0.455739	-147.528794	-67.558727	29.920433
25786		3.833098	9.828432	12.149478	14.629510	6.324247	-12.019617	-0.038135	3.275679	0.542504	-0.507568	0.355225	0.603271	0.040047	0.098414	0.120829	-0.369154	0.724401	0.348137	0.466658	-144.280772	-68.927652	26.395934
25787		-0.597430	6.165834	8.108853	8.491488	3.888896	-13.922977	-0.514843	3.284900	0.577225	-0.519043	0.361572	0.591797	-0.004822	0.061852	0.081015	-0.374284	0.718564	0.338733	0.478369	-140.798401	-70.227347	22.363266
25788		-2.218025	3.643098	6.399511	5.208406	3.470253	-14.281754	-0.542808	3.076735	0.556311	-0.537109	0.361572	0.562988	-0.021295	0.036545	0.064228	-0.378787	0.713146	0.329633	0.489168	-137.115153	-71.337152	18.129509
25789		-3.016464	0.685979	5.902376	2.347417	4.496546	-14.134211	-0.130224	2.797615	0.299546	-0.557373	0.363525	0.542969	-0.029345	0.006854	0.059434	-0.383616	0.706941	0.322918	0.498795	-133.373277	-72.362188	14.111885
25790		-1.723860	0.023901	5.749165	2.162501	4.861266	-12.590266	0.533302	2.478940	-0.174270	-0.571045	0.367920	0.513916	-0.016524	0.000100	0.057700	-0.388998	0.699473	0.320081	0.506918	-129.861333	-73.370062	10.752702
25791		1.309068	1.626591	5.930466	4.455014	4.435011	-9.917321	1.032476	2.444466	-0.699367	-0.584473	0.365479	0.491699	0.013871	0.015912	0.059221	-0.394704	0.690048	0.320359	0.515182	-126.286317	-74.556722	7.647653
25792		4.834902	4.034976	6.579725	7.668344	3.973033	-6.922193	1.152450	2.835875	-1.150629	-0.595947	0.369873	0.467285	0.049507	0.039690	0.065331	-0.400168	0.678611	0.321657	0.525251	-121.943637	-76.004975	3.836712
25793		6.483708	5.358733	7.054055	9.297040	3.742525	-5.333973	0.816587	3.500170	-1.528644	-0.626953	0.356201	0.432129	0.066466	0.052798	0.069603	-0.404469	0.665154	0.321924	0.538831	-115.734138	-77.749405	-2.058678
25794		6.070366	4.334057	7.147588	8.219045	4.183177	-5.159583	0.311961	4.188364	-1.855024	-0.640137	0.349609	0.399170	0.062581	0.042656	0.070245	-0.407108	0.650160	0.320380	0.555799	-106.313206	-79.600882	-11.486329
25795		4.999225	2.397242	7.026415	6.143750	4.841039	-5.464052	-0.063609	4.691624	-2.120098	-0.657471	0.329590	0.355469	0.051872	0.023451	0.069054	-0.408381	0.633587	0.317439	0.575348	-91.655882	-81.241084	-26.384609
25796		4.445072	-0.272950	6.670929	3.429512	5.625032	-5.239064	-0.157327	5.030952	-2.303212	-0.677246	0.315918	0.318115	0.046075	-0.003202	0.065566	-0.409052	0.615624	0.313890	0.595950	-70.855910	-82.119871	-47.495320
25797		4.584687	-2.523956	6.356217	1.149943	6.201501	-4.521388	0.106398	5.267089	-2.393295	-0.690186	0.300537	0.272217	0.047192	-0.025832	0.062317	-0.410337	0.595637	0.310664	0.616707	-47.323372	-81.738035	-71.195341
25798		5.224846	-3.072206	6.302174	0.435511	6.113659	-3.577923	0.548210	5.503773	-2.358358	-0.709717	0.284668	0.228271	0.053586	-0.031519	0.061474	-0.413031	0.573700	0.307947	0.636743	-28.260196	-80.057961	-90.181070
25799		5.755946	-2.817669	6.407026	0.399533	5.735957	-2.809973	0.922511	5.750360	-2.192448	-0.718018	0.264893	0.180176	0.059051	-0.029109	0.062254	-0.417348	0.549769	0.305134	0.656100	-15.614697	-77.448675	-102.530487
25800		6.064946	-2.424197	6.644450	0.488328	5.389700	-2.230086	1.155683	5.951359	-1.908138	-0.729004	0.251465	0.132080	0.062350	-0.025208	0.064462	-0.423107	0.524742	0.301599	0.674288	-7.945147	-74.338198	-109.756376
25801		6.649900	-2.374170	6.881093	0.192758	5.062043	-1.356069	1.333081	6.115070	-1.560041	-0.728516	0.242676	0.076904	0.068367	-0.024719	0.066577	-0.430345	0.498610	0.297072	0.691331	-3.227475	-70.925906	-113.897220
25802		7.577407	-2.236535	7.223408	-0.090935	4.582777	-0.140716	1.493576	6.243853	-1.199179	-0.730469	0.231689	0.030762	0.077838	-0.023355	0.069653	-0.438945	0.471867	0.291635	0.706836	-0.293505	-67.381970	-116.123807
25803		8.587411	-1.493561	7.516934	0.049598	3.632971	1.106528	1.619777	6.368931	-0.859816	-0.719238	0.227539	-0.022461	0.088139	-0.015904	0.072260	-0.448773	0.444216	0.285225	0.721056	1.633393	-63.716200	-117.220200
25804		8.885452	-0.756710	7.698303	0.237010	2.768127	1.633607	1.654300	6.446278	-0.576458	-0.711914	0.214355	-0.066406	0.091248	-0.008448	0.074000	-0.459292	0.416297	0.277853	0.733856	2.914556	-60.024189	-117.602055
25805		9.095703	-0.637929	7.978071	-0.089638	2.231943	2.093013	1.675265	6.389926	-0.419970	-0.700439	0.203613	-0.119141	0.093427	-0.007225	0.076764	-0.469864	0.388114	0.270022	0.745442	3.916222	-56.344000	-117.650267
25806		10.489720	-0.637781	8.960181	-0.638527	1.637337	3.882975	1.746039	6.234797	-0.455646	-0.679932	0.195068	-0.174316	0.107604	-0.007384	0.086214	-0.479709	0.360060	0.262635	0.755817	4.889246	-52.773996	-117.621104
25807		12.588905	-0.699731	10.586734	-1.411185	0.978826	6.558238	1.783089	6.134668	-0.703965	-0.672852	0.182129	-0.213623	0.129027	-0.008368	0.101871	-0.488066	0.331408	0.255765	0.765862	5.999845	-49.225566	-117.733764
25808		14.543694	-0.908971	12.904002	-2.342724	0.708480	9.493680	1.896801	6.110505	-1.086770	-0.658691	0.162354	-0.266113	0.149229	-0.011089	0.124420	-0.494594	0.301924	0.249797	0.775771	7.312118	-45.687806	-118.044533
25809		17.712070	1.137061	15.765978	-1.831152	-1.109077	13.826035	1.965682	6.164144	-1.481034	-0.637695	0.142822	-0.312012	0.181938	0.008521	0.152194	-0.499241	0.271059	0.244249	0.785893	8.774934	-42.061224	-118.527655
25810		22.356001	3.391143	17.589750	-2.274800	-5.063915	18.286308	1.687020	6.401596	-1.890640	-0.612305	0.123291	-0.364502	0.229339	0.030317	0.168883	-0.501614	0.239334	0.237332	0.796728	10.129980	-38.277224	-119.135079
25811		25.830930	2.948437	16.715254	-5.506667	-9.290705	19.140307	1.176538	6.716403	-2.360293	-0.584473	0.094727	-0.398926	0.264046	0.025441	0.158506	-0.501259	0.206599	0.227820	0.808798	11.257965	-34.234921	-119.899498
25812		26.437083	-2.863937	13.166735	-12.748811	-10.863081	14.673086	0.900497	6.748998	-2.908963	-0.558838	0.068604	-0.444580	0.268149	-0.033087	0.122517	-0.497770	0.173708	0.217414	0.821451	12.299481	-30.121132	-120.892685
25813		27.292347	-2.484224	9.352592	-14.311834	-14.721777	10.597905	1.204350	6.326587	-3.270513	-0.526611	0.046875	-0.474854	0.275235	-0.029859	0.084673	-0.491932	0.141007	0.209292	0.833257	13.534554	-26.161686	-122.045834
25814		29.372211	2.631024	5.800951	-12.031770	-20.987326	8.013018	0.882252	5.678656	-3.026930	-0.507813	0.024902	-0.500732	0.295564	0.021614	0.049736	-0.485631	0.112049	0.201042	0.843320	14.442212	-22.597293	-123.028737
25815		30.058225	1.142315	0.692998	-14.485014	-23.640620	1.864319	0.145640	4.950935	-2.586889	-0.493896	0.009521	-0.526611	0.300745	0.007532	-0.000508	-0.479589	0.088157	0.190995	0.851906	14.801933	-19.475287	-123.798387
25816		27.416858	-4.792799	-5.951111	-18.423938	-21.606027	-7.900277	-0.211874	4.111806	-2.377057	-0.473389	0.005615	-0.546387	0.272273	-0.051239	-0.065069	-0.473170	0.068965	0.181243	0.859363	14.910147	-16.860987	-124.547256
25817		26.441170	-8.961647	-14.312090	-21.153194	-21.624179	-18.125504	0.032505	3.019372	-2.273276	-0.461670	-0.009766	-0.559082	0.261170	-0.092574	-0.147095	-0.466067	0.053865	0.174997	0.865596	15.158081	-14.854789	-125.388366
25818		27.817176	-11.954006	-21.530932	-23.917957	-23.240283	-26.184050	0.511734	1.797938	-1.941490	-0.454590	-0.020752	-0.567627	0.275045	-0.121665	-0.218101	-0.459343	0.043296	0.173544	0.870064	15.649577	-13.578235	-126.211683
25819		27.571635	-10.962862	-23.798426	-22.767817	-23.943906	-28.655330	0.730508	0.471856	-1.519316	-0.460938	-0.031982	-0.567383	0.274314	-0.110844	-0.239036	-0.453290	0.038318	0.175979	0.872978	16.247103	-13.087661	-126.995324
25820		27.694560	-6.952180	-20.289053	-20.094086	-24.749110	-24.327009	0.013916	-0.824541	-0.958004	-0.465332	-0.036621	-0.558350	0.277442	-0.070836	-0.201752	-0.448387	0.041151	0.178103	0.874949	16.406255	-13.398828	-127.672406
25821		26.702346	-6.319376	-14.758004	-19.830032	-22.249888	-18.891587	-1.002925	-1.765050	-0.455610	-0.469971	-0.030029	-0.547363	0.268164	-0.064535	-0.144895	-0.444601	0.050837	0.177793	0.876433	15.960674	-14.312135	-128.220733
25822		22.221355	-3.032461	-7.631466	-15.346752	-17.916344	-11.974732	-1.609392	-2.313100	-0.185458	-0.481445	-0.021240	-0.527832	0.223046	-0.031130	-0.073490	-0.441288	0.064489	0.175924	0.877585	15.156600	-15.572453	-128.693912
25823		1.902101	6.162416	11.411924	3.521991	-0.612976	2.797842	-2.743753	-2.955254	0.226190	-0.493652	0.002930	-0.508789	0.017270	0.063205	0.113523	-0.438717	0.083860	0.170348	0.878338	13.669018	-17.264501	-129.001891
25824		-15.185122	6.716283	37.944382	15.203203	21.685159	22.028059	-2.983315	-3.103231	0.273668	-0.507813	0.020508	-0.491699	-0.157800	0.072575	0.375970	-0.435931	0.104353	0.163910	0.878754	12.034789	-19.044830	-129.255911
25825		-10.262776	1.489918	23.832700	8.752028	15.660643	8.991800	-3.002463	-2.500024	0.025813	-0.515137	0.038086	-0.472168	-0.105596	0.018448	0.236760	-0.432353	0.122022	0.156163	0.879656	10.406590	-20.469605	-129.535519
25826		9.560802	-19.406239	-1.639819	-21.321460	3.841427	-10.951428	-1.980247	-3.368686	-0.441752	-0.535645	0.046631	-0.448242	0.095415	-0.194412	-0.012866	-0.426497	0.140858	0.154984	0.879909	9.495710	-22.338892	-130.159531
25827		20.091667	-17.385760	5.835217	-24.972177	-1.392667	0.881025	-0.505976	-4.389732	-0.126272	-0.558105	0.048584	-0.421631	0.199455	-0.173828	0.063181	-0.422088	0.161257	0.162188	0.877230	9.412018	-24.824074	-130.685873
25828		23.599274	-11.936687	19.658028	-20.249742	-0.567261	16.175414	0.170001	-3.644539	0.780238	-0.558105	0.052979	-0.404053	0.232824	-0.118624	0.200741	-0.422626	0.177595	0.169973	0.872328	9.456628	-26.969218	-130.573996
25829		17.490635	-2.441604	11.685800	-9.952396	-5.056216	8.181783	0.236134	-2.554889	1.239443	-0.573975	0.052734	-0.390869	0.173542	-0.023477	0.119053	-0.426037	0.189448	0.175285	0.867108	9.339900	-28.548339	-130.048545
25830		13.118393	6.745235	5.605748	-0.842020	-9.980931	2.380459	0.000483	-2.556572	0.909655	-0.583252	0.061523	-0.382324	0.130145	0.068046	0.057726	-0.427706	0.201418	0.179862	0.862640	9.178596	-30.089863	-129.726631
25831		16.200722	11.816447	8.130800	2.331192	-13.437650	6.985528	-0.402591	-2.557375	0.311366	-0.592529	0.067871	-0.366943	0.160768	0.118582	0.083131	-0.426314	0.213756	0.183273	0.859637	8.971518	-31.585435	-129.786449
25832		14.047780	2.236984	9.486471	-3.709115	-5.674251	5.883616	-0.873100	-1.792329	0.396470	-0.594727	0.072266	-0.360596	0.139575	0.023065	0.096019	-0.425423	0.223780	0.182913	0.857601	8.422528	-32.646819	-129.702199
25833		6.321352	-1.692927	10.648528	-2.252397	2.269544	2.269925	-0.692844	-1.234899	0.679076	-0.608643	0.085449	-0.352051	0.062610	-0.016346	0.106930	-0.426419	0.231353	0.181824	0.855326	7.831931	-33.424000	-129.358090
25834		11.002640	1.691716	11.426207	-1.607938	-2.247325	5.898441	-0.599005	-0.729517	0.621608	-0.604736	0.098877	-0.350342	0.109555	0.017601	0.114610	-0.427717	0.236417	0.180101	0.853656	7.284740	-33.897071	-128.997169
25835		8.005467	-1.614154	8.898705	-3.237079	0.282010	1.820076	-0.486719	-0.240573	0.400906	-0.611572	0.103271	-0.350586	0.079979	-0.015764	0.089122	-0.428635	0.239034	0.178082	0.852890	6.854780	-34.083759	-128.738157
25836		7.686670	-1.047704	8.917843	-2.541681	0.158809	1.729624	-0.305064	-0.111293	0.258279	-0.616211	0.103027	-0.348389	0.076830	-0.010242	0.089237	-0.429275	0.240498	0.176716	0.852441	6.579800	-34.176234	-128.566598
25837		7.267359	-0.179000	8.361463	-1.720264	-0.360314	1.126755	-0.201123	-0.016110	0.184451	-0.618652	0.112061	-0.339844	0.072668	-0.001639	0.083622	-0.429807	0.241353	0.175686	0.852144	6.384452	-34.218954	-128.435914
25838		6.502735	0.652379	8.517382	-0.582251	-0.272415	0.903827	-0.168169	0.000245	0.150964	-0.616455	0.109863	-0.348633	0.065022	0.006644	0.085168	-0.430250	0.241951	0.174793	0.851934	6.223901	-34.240132	-128.328782
25839		5.929224	0.664581	8.572452	-0.240530	0.110132	0.628302	-0.162361	-0.015149	0.142810	-0.618896	0.120850	-0.340088	0.059281	0.006758	0.085724	-0.430651	0.242681	0.173975	0.851692	6.066479	-34.279011	-128.226343
25840		6.061446	1.196679	8.496835	0.128198	-0.327200	0.687114	-0.160325	-0.000246	0.142158	-0.610352	0.127686	-0.338135	0.060606	0.012078	0.084959	-0.431064	0.243256	0.173126	0.851491	5.913651	-34.299456	-128.125105
25841		5.995404	1.130215	8.672303	0.176505	-0.169431	0.787840	-0.181640	0.011898	0.140763	-0.619141	0.125244	-0.333496	0.059951	0.011423	0.086709	-0.431455	0.243907	0.172171	0.851301	5.744765	-34.322065	-128.021953
25842		5.724371	0.242367	8.651099	-0.397168	0.488046	0.544566	-0.175774	0.004302	0.130070	-0.619385	0.131836	-0.333740	0.057244	0.002537	0.086508	-0.431800	0.244485	0.171260	0.851143	5.587450	-34.338760	-127.928561
25843		5.681474	0.157248	8.490028	-0.468789	0.474964	0.382364	-0.128788	-0.014545	0.086409	-0.619385	0.131836	-0.324951	0.056808	0.001652	0.084903	-0.432000	0.245085	0.170652	0.850992	5.470927	-34.372707	-127.864601
25844		5.689103	0.161356	8.450877	-0.465960	0.443337	0.355674	-0.082761	-0.025589	0.059881	-0.613037	0.143066	-0.327637	0.056880	0.001666	0.084515	-0.432135	0.245529	0.170287	0.850868	5.395256	-34.402330	-127.821543
25845		6.040299	0.222171	8.533760	-0.559527	0.221162	0.627506	-0.047198	-0.030511	0.036816	-0.608643	0.143066	-0.322998	0.060390	0.002253	0.085346	-0.432210	0.245976	0.170120	0.850734	5.345265	-34.442288	-127.792750
25846		5.627481	0.549766	8.509830	-0.080625	0.293128	0.399833	-0.035210	-0.041107	0.022857	-0.599609	0.143311	-0.320801	0.056257	0.005519	0.085109	-0.432233	0.246352	0.170036	0.850631	5.311796	-34.478729	-127.776207
25847		5.883305	1.067554	8.142063	0.124726	-0.349600	0.282279	-0.052193	-0.057152	0.033738	-0.599609	0.145508	-0.318848	0.058808	0.010707	0.081435	-0.432266	0.246918	0.169908	0.850476	5.261050	-34.533418	-127.751170
25848		5.575393	1.481729	8.409698	0.703420	-0.250029	0.358165	-0.080363	-0.027964	0.055302	-0.597412	0.149902	-0.314453	0.055738	0.014867	0.084099	-0.432381	0.247363	0.169564	0.850356	5.188416	-34.564028	-127.711220
25849		5.598043	1.521095	8.594328	0.790270	-0.199454	0.524138	-0.144403	0.004521	0.096635	-0.595459	0.152100	-0.321289	0.055975	0.015300	0.085931	-0.432620	0.247917	0.168833	0.850219	5.058016	-34.586417	-127.638686
25850		5.608924	1.455070	8.532035	0.731152	-0.212759	0.472884	-0.191023	0.039101	0.121434	-0.591064	0.154541	-0.319092	0.056097	0.014666	0.085295	-0.432935	0.248372	0.167792	0.850132	4.893533	-34.581889	-127.548659
25851		6.175871	0.831373	7.989438	-0.194010	-0.515273	0.304649	-0.214977	0.048551	0.134991	-0.588867	0.156738	-0.319092	0.061772	0.008441	0.079870	-0.433284	0.248919	0.166618	0.850025	4.706328	-34.580331	-127.446987
25852		6.158498	0.052968	8.192883	-0.747975	0.023014	0.409504	-0.185091	0.064875	0.126351	-0.584717	0.165527	-0.321777	0.061611	0.000644	0.081908	-0.433648	0.249255	0.165539	0.849952	4.542535	-34.560857	-127.352154
25853		5.792940	0.234290	8.484465	-0.318453	0.289843	0.454432	-0.142455	0.047881	0.096002	-0.589111	0.167725	-0.326172	0.057949	0.002431	0.084829	-0.433920	0.249614	0.164723	0.849866	4.412349	-34.557313	-127.277665
25854		5.642312	0.188062	8.527965	-0.256260	0.425566	0.402519	-0.110388	0.025406	0.076948	-0.582275	0.161377	-0.332520	0.056433	0.001949	0.085271	-0.434134	0.249914	0.164108	0.849788	4.312071	-34.557877	-127.219316
25855		5.467972	0.253742	8.788631	-0.029779	0.626259	0.522207	-0.072952	-0.006433	0.057795	-0.586914	0.165527	-0.332764	0.054676	0.002585	0.087887	-0.434286	0.250320	0.163752	0.849660	4.238342	-34.583261	-127.174183
25856		5.623998	0.682389	8.435952	0.154874	0.101651	0.347330	-0.078232	-0.015817	0.058684	-0.582520	0.167969	-0.339600	0.056231	0.006873	0.084361	-0.434428	0.250710	0.163386	0.849542	4.164831	-34.606479	-127.130586
25857		5.471249	0.160195	8.533128	-0.158377	0.544756	0.309203	-0.061802	-0.007553	0.064288	-0.586914	0.167969	-0.337402	0.054709	0.001646	0.085333	-0.434620	0.251099	0.163071	0.849390	4.094932	-34.632387	-127.080940
25858		5.644422	1.042745	8.442304	0.463913	-0.118597	0.384863	-0.059379	-0.023921	0.067873	-0.589355	0.172363	-0.343994	0.056431	0.010472	0.084427	-0.434818	0.251490	0.162791	0.849226	4.028735	-34.660522	-127.031264
25859		5.422390	0.307325	8.537303	0.009065	0.491290	0.293789	-0.052083	-0.015364	0.071385	-0.586914	0.170166	-0.343994	0.054216	0.003115	0.085376	-0.435045	0.251894	0.162525	0.849041	3.961806	-34.690817	-126.977017
25860		5.381675	0.604729	8.735411	0.339854	0.445836	0.449927	-0.038563	-0.033085	0.073205	-0.591797	0.176758	-0.348633	0.053800	0.006084	0.087362	-0.435284	0.252283	0.162346	0.848837	3.905567	-34.724308	-126.923958
25861		5.508583	0.394739	8.406595	0.021731	0.319535	0.240599	-0.039915	-0.035748	0.076714	-0.591797	0.176758	-0.344238	0.055069	0.003985	0.084075	-0.435533	0.252749	0.162168	0.848605	3.843979	-34.766071	-126.866879
25862		6.085269	0.624736	8.228928	-0.114013	-0.277258	0.436516	-0.026095	-0.054095	0.082270	-0.598389	0.172119	-0.355225	0.060828	0.006283	0.082305	-0.435809	0.253207	0.162077	0.848344	3.791701	-34.811832	-126.808352
25863		5.793603	0.048637	8.382700	-0.387693	0.321019	0.364959	-0.012233	-0.064804	0.077145	-0.598389	0.174316	-0.348633	0.057909	0.000514	0.083846	-0.436071	0.253735	0.162079	0.848051	3.746468	-34.869941	-126.752190
25864		5.686770	0.180323	8.519144	-0.177242	0.388847	0.422794	-0.007029	-0.082893	0.066674	-0.605225	0.176514	-0.353027	0.056832	0.001825	0.085215	-0.436281	0.254261	0.162151	0.847772	3.711894	-34.931510	-126.705677
25865		5.334481	0.457322	8.760422	0.304311	0.592844	0.432641	0.024545	-0.131427	0.046952	-0.605225	0.176514	-0.353027	0.053286	0.004575	0.087640	-0.436408	0.254964	0.162491	0.847430	3.701314	-35.026334	-126.673415
25866		5.520729	0.274927	8.677950	0.050409	0.546699	0.461523	0.023170	-0.172432	0.039199	-0.607666	0.180908	-0.353271	0.055132	0.002750	0.086827	-0.436467	0.255781	0.162921	0.847071	3.697199	-35.138063	-126.650001
25867		5.434404	0.056877	8.548685	-0.111261	0.680714	0.293756	0.039698	-0.212115	0.018659	-0.609619	0.176514	-0.353027	0.054253	0.000557	0.085545	-0.436426	0.256767	0.163537	0.846675	3.708699	-35.277691	-126.641103
25868		5.650207	0.179943	8.511191	-0.113193	0.474150	0.393189	0.056183	-0.266438	0.001759	-0.623047	0.174072	-0.353027	0.056389	0.001776	0.085188	-0.436291	0.257879	0.164360	0.846247	3.741068	-35.441783	-126.648209
25869		5.668504	0.226733	8.402995	-0.099881	0.410558	0.317221	0.066861	-0.318334	-0.008099	-0.625244	0.169678	-0.353027	0.056551	0.002237	0.084121	-0.436084	0.259230	0.165354	0.845747	3.781936	-35.640901	-126.663129
25870		5.016256	0.451111	9.059644	0.610894	1.075948	0.478691	0.088645	-0.382170	-0.013238	-0.629639	0.169678	-0.350586	0.049990	0.004468	0.090694	-0.435829	0.260747	0.166585	0.845171	3.842493	-35.870576	-126.686576
25871		5.397478	0.334012	8.822417	0.279721	0.818068	0.499038	0.133272	-0.485959	-0.006065	-0.640869	0.165039	-0.348389	0.053760	0.003280	0.088357	-0.435574	0.262659	0.168221	0.844386	3.925787	-36.165274	-126.708701
25872		5.392644	0.199248	9.029963	0.254834	1.058836	0.650301	0.166943	-0.587407	-0.020506	-0.645264	0.162598	-0.341553	0.053661	0.001912	0.090459	-0.435213	0.264862	0.170237	0.843479	4.041072	-36.511909	-126.748472
25873		5.958103	-0.030757	8.726341	-0.270058	0.735436	0.724610	0.201829	-0.720950	-0.031172	-0.656494	0.162598	-0.337158	0.059266	-0.000405	0.087477	-0.434734	0.267587	0.172702	0.842364	4.182764	-36.939483	-126.802155
25874		5.946260	0.063616	8.843673	-0.119722	0.832884	0.811053	0.225389	-0.844657	-0.048172	-0.667725	0.164551	-0.334961	0.059089	0.000522	0.088687	-0.434101	0.270716	0.175556	0.841100	4.353897	-37.431759	-126.878142
25875		5.448855	0.459037	9.204411	0.591082	1.213828	0.807961	0.239300	-0.987178	-0.072863	-0.672119	0.162354	-0.323975	0.054035	0.004460	0.092317	-0.433249	0.274431	0.178805	0.839650	4.547697	-38.009066	-126.980697
25876		5.244684	0.809482	9.446958	1.096241	1.386122	0.877615	0.242180	-1.142842	-0.081890	-0.685303	0.157715	-0.314941	0.051909	0.007959	0.094777	-0.432209	0.278731	0.182412	0.837992	4.759209	-38.669641	-127.104317
