// General information: 
//  MT Manager version: 2019.2.0 
//  XDA version: 2019.2.0 build 3853 rev 94535 built on 2019-09-09
// Device information: 
//  DeviceId: 00B40A40
//  ProductCode: MTW2-3A7G6
//  Firmware Version: 4.4.0
//  Hardware Version: 1.1.0
// Device settings: 
//  Filter Profile: human(46.1)
//  Option Flags: Orientation Smoother Disabled, AHS Disabled, ICC Disabled
// Coordinate system: ENU
PacketCounter	SampleTimeFine	Acc_X	Acc_Y	Acc_Z	FreeAcc_E	FreeAcc_N	FreeAcc_U	Gyr_X	Gyr_Y	Gyr_Z	Mag_X	Mag_Y	Mag_Z	VelInc_X	VelInc_Y	VelInc_Z	Quat_q0	Quat_q1	Quat_q2	Quat_q3	Roll	Pitch	Yaw
27751		8.228917	0.627138	5.723996	-0.049857	0.082719	0.230379	0.021875	0.022084	-0.014494	-0.684570	-0.123047	-0.841064	0.082296	0.006259	0.057232	0.733489	0.284492	-0.362657	0.499538	5.465147	-54.709988	65.684165
27752		8.235738	0.608291	5.716685	-0.027259	0.085906	0.230706	0.016419	0.026981	-0.011881	-0.689453	-0.118652	-0.836670	0.082365	0.006073	0.057156	0.733489	0.284526	-0.362574	0.499579	5.474433	-54.703677	65.684138
27753		8.258152	0.642086	5.732608	-0.056254	0.097472	0.260022	0.010972	0.030903	-0.014454	-0.689209	-0.120850	-0.843506	0.082591	0.006412	0.057314	0.733508	0.284539	-0.362490	0.499604	5.483051	-54.695527	65.681425
27754		8.223606	0.632824	5.731000	-0.054059	0.078888	0.230388	0.012832	0.039275	-0.008769	-0.687012	-0.123047	-0.838867	0.082248	0.006321	0.057294	0.733527	0.284524	-0.362376	0.499668	5.486822	-54.682374	65.685636
27755		8.237375	0.646369	5.720573	-0.059804	0.100801	0.236360	0.005174	0.039709	-0.008430	-0.687012	-0.123047	-0.841064	0.082385	0.006459	0.057190	0.733554	0.284485	-0.362280	0.499720	5.486719	-54.669484	65.690117
27756		8.210983	0.601719	5.742141	-0.028452	0.057462	0.224762	0.007046	0.047108	-0.007928	-0.682617	-0.120605	-0.832275	0.082124	0.006012	0.057402	0.733593	0.284427	-0.362153	0.499787	5.485897	-54.651910	65.695897
27757		8.240962	0.573077	5.714045	0.013814	0.088216	0.231426	0.001627	0.047949	-0.012600	-0.691406	-0.123047	-0.834229	0.082424	0.005725	0.057121	0.733650	0.284364	-0.362030	0.499829	5.486581	-54.634208	65.697015
27758		8.254173	0.586462	5.704511	0.008024	0.110242	0.237414	0.003206	0.050983	-0.009792	-0.684814	-0.120850	-0.832275	0.082557	0.005860	0.057024	0.733706	0.284285	-0.361896	0.499888	5.484764	-54.614323	65.701320
27759		8.210609	0.571031	5.645134	0.028350	0.130988	0.166779	0.014721	0.048804	-0.011332	-0.684570	-0.123047	-0.838867	0.082120	0.005702	0.056432	0.733737	0.284271	-0.361743	0.499962	5.491948	-54.597060	65.704305
27760		8.093667	0.608763	5.721856	-0.052272	0.024920	0.117787	0.012183	0.046141	-0.007103	-0.684814	-0.120850	-0.841064	0.080950	0.006081	0.057200	0.733765	0.284233	-0.361608	0.500040	5.493492	-54.580084	65.710798
27761		8.115915	0.587497	5.734116	-0.028870	0.022072	0.141809	0.000446	0.036813	-0.012638	-0.675781	-0.118408	-0.832275	0.081170	0.005870	0.057326	0.733805	0.284191	-0.361529	0.500063	5.494285	-54.568607	65.710698
27762		8.162609	0.571364	5.691764	0.008965	0.076237	0.154505	0.005861	0.040199	-0.014126	-0.687012	-0.123047	-0.836426	0.081638	0.005706	0.056901	0.733849	0.284157	-0.361422	0.500095	5.498298	-54.554635	65.709719
27763		8.192700	0.583534	5.699546	0.003929	0.092171	0.184170	0.005214	0.039741	-0.008409	-0.677979	-0.120605	-0.834473	0.081939	0.005830	0.056979	0.733878	0.284117	-0.361329	0.500142	5.498083	-54.541950	65.713519
27764		8.189985	0.611297	5.771045	-0.039612	0.046887	0.224779	0.003272	0.043708	-0.005704	-0.684570	-0.123047	-0.838867	0.081913	0.006110	0.057693	0.733911	0.284049	-0.361227	0.500206	5.493599	-54.526439	65.721151
27765		8.179650	0.578501	5.779060	-0.012574	0.026712	0.219162	-0.000239	0.044645	-0.005807	-0.677979	-0.120605	-0.841309	0.081810	0.005783	0.057772	0.733948	0.283973	-0.361131	0.500263	5.487990	-54.510928	65.728414
27766		8.192855	0.618969	5.705830	-0.028634	0.107161	0.189822	0.004876	0.045772	-0.008073	-0.680176	-0.122803	-0.836670	0.081942	0.006185	0.057040	0.733988	0.283911	-0.361014	0.500324	5.486171	-54.494110	65.733904
27767		8.174240	0.594084	5.754655	-0.020440	0.053399	0.201499	0.009056	0.043197	-0.010592	-0.684570	-0.123047	-0.841064	0.081755	0.005934	0.057529	0.734025	0.283879	-0.360892	0.500378	5.489772	-54.478757	65.736042
27768		8.196251	0.586627	5.735474	-0.002241	0.079860	0.207889	0.009365	0.043355	-0.006719	-0.680176	-0.122803	-0.838867	0.081975	0.005861	0.057337	0.734051	0.283836	-0.360775	0.500448	5.489633	-54.463392	65.742629
27769		8.193586	0.601497	5.707328	-0.008716	0.107719	0.190240	0.013191	0.044691	-0.005824	-0.687012	-0.120850	-0.838867	0.081949	0.006009	0.057055	0.734066	0.283812	-0.360643	0.500534	5.491887	-54.447847	65.750400
27770		8.133975	0.613968	5.697162	-0.031149	0.090734	0.136532	0.005227	0.042856	-0.006294	-0.677979	-0.120605	-0.843506	0.081352	0.006136	0.056954	0.734097	0.283755	-0.360538	0.500597	5.489083	-54.432790	65.757353
27771		8.139954	0.580119	5.723236	-0.003409	0.064623	0.154590	0.009052	0.044192	-0.005397	-0.680176	-0.125244	-0.845459	0.081412	0.005796	0.057215	0.734123	0.283709	-0.360424	0.500667	5.488118	-54.417563	65.764268
27772		8.161475	0.626572	5.708656	-0.037627	0.105437	0.166215	0.003336	0.038543	-0.004701	-0.680176	-0.120605	-0.838867	0.081626	0.006263	0.057071	0.734144	0.283653	-0.360343	0.500726	5.483299	-54.405052	65.772369
27773		8.167103	0.619607	5.802501	-0.051996	0.035231	0.224770	0.005269	0.039779	-0.008385	-0.679932	-0.129639	-0.840576	0.081683	0.006191	0.058009	0.734170	0.283615	-0.360244	0.500780	5.483381	-54.391860	65.776901
27774		8.181505	0.592037	5.755935	-0.010518	0.072128	0.207942	0.002690	0.042309	-0.005154	-0.684570	-0.123047	-0.838867	0.081827	0.005917	0.057542	0.734200	0.283548	-0.360149	0.500843	5.478272	-54.377176	65.784904
27775		8.162775	0.593987	5.741249	-0.012518	0.076684	0.184294	0.000144	0.043860	-0.007107	-0.684570	-0.125244	-0.845459	0.081641	0.005937	0.057395	0.734225	0.283492	-0.360045	0.500913	5.474911	-54.362263	65.793198
27776		8.160295	0.580734	5.776442	-0.008792	0.046212	0.201939	-0.001451	0.041808	-0.004733	-0.684814	-0.120850	-0.847900	0.081615	0.005806	0.057747	0.734259	0.283410	-0.359963	0.500969	5.467145	-54.347888	65.801556
27777		8.149315	0.615840	5.757372	-0.039272	0.069636	0.183888	-0.000176	0.044693	-0.005788	-0.680176	-0.120605	-0.845703	0.081506	0.006156	0.057555	0.734294	0.283336	-0.359865	0.501030	5.461571	-54.332325	65.809316
27778		8.162977	0.614841	5.779131	-0.039972	0.062401	0.207547	-0.003033	0.041869	-0.005443	-0.682373	-0.125244	-0.840820	0.081642	0.006147	0.057774	0.734331	0.283249	-0.359786	0.501080	5.453470	-54.317875	65.816974
27779		8.185165	0.606709	5.760025	-0.021749	0.088741	0.214005	0.000829	0.042228	-0.009722	-0.682373	-0.123047	-0.843262	0.081864	0.006063	0.057583	0.734370	0.283192	-0.359689	0.501125	5.451907	-54.303496	65.820638
27780		8.125601	0.618802	5.749621	-0.044099	0.071808	0.160243	-0.003013	0.043988	-0.008523	-0.680176	-0.120605	-0.843506	0.081269	0.006185	0.057478	0.734419	0.283106	-0.359598	0.501167	5.446110	-54.287670	65.825475
27781		8.188529	0.587140	5.758047	-0.000529	0.090599	0.214458	0.000217	0.042907	-0.012272	-0.680176	-0.125244	-0.838623	0.081898	0.005866	0.057563	0.734469	0.283047	-0.359499	0.501199	5.445939	-54.272852	65.826194
27782		8.152804	0.631519	5.761551	-0.050610	0.086441	0.189935	-0.001065	0.045231	-0.012199	-0.682373	-0.123047	-0.838867	0.081541	0.006311	0.057597	0.734527	0.282972	-0.359393	0.501233	5.444086	-54.256116	65.827550
27783		8.150882	0.578297	5.760495	0.000469	0.070665	0.184793	0.000575	0.044204	-0.016663	-0.680176	-0.120605	-0.841309	0.081522	0.005776	0.057587	0.734579	0.282930	-0.359278	0.501261	5.448142	-54.240831	65.825659
27784		8.155977	0.612888	5.759744	-0.029363	0.088196	0.190392	-0.000721	0.044416	-0.013507	-0.677979	-0.120605	-0.841309	0.081573	0.006124	0.057579	0.734638	0.282860	-0.359173	0.501290	5.447582	-54.224490	65.825663
27785		8.144761	0.635074	5.772525	-0.054760	0.082353	0.189948	-0.002290	0.046587	-0.017303	-0.682373	-0.123047	-0.843262	0.081462	0.006344	0.057706	0.734714	0.282789	-0.359063	0.501299	5.449475	-54.207424	65.821209
27786		8.142856	0.582147	5.771448	-0.003720	0.066822	0.184819	-0.004767	0.041958	-0.023461	-0.678223	-0.118408	-0.843506	0.081441	0.005813	0.057697	0.734799	0.282728	-0.358962	0.501280	5.454653	-54.191943	65.811281
27787		8.123228	0.625515	5.793084	-0.053119	0.056501	0.183907	-0.006734	0.043818	-0.017678	-0.677979	-0.122803	-0.843262	0.081246	0.006250	0.057913	0.734876	0.282648	-0.358873	0.501276	5.454460	-54.176485	65.806276
27788		8.153786	0.597160	5.765271	-0.010967	0.087439	0.190883	-0.008583	0.045837	-0.025345	-0.677979	-0.120605	-0.834473	0.081552	0.005964	0.057634	0.734978	0.282567	-0.358765	0.501249	5.458636	-54.158689	65.794883
27789		8.101433	0.616011	5.813935	-0.051453	0.030600	0.177856	-0.008575	0.045843	-0.025341	-0.675781	-0.122803	-0.841064	0.081028	0.006152	0.058121	0.735076	0.282495	-0.358660	0.501221	5.463624	-54.141886	65.783274
27790		8.107263	0.610313	5.777023	-0.033962	0.063103	0.160730	-0.007930	0.047293	-0.025862	-0.680176	-0.122803	-0.841064	0.081087	0.006095	0.057751	0.735182	0.282413	-0.358545	0.501195	5.468457	-54.123230	65.771528
27791		8.145069	0.588528	5.808507	-0.010013	0.054085	0.208502	-0.007229	0.047767	-0.031565	-0.677979	-0.118408	-0.848145	0.081465	0.005875	0.058065	0.735294	0.282354	-0.358418	0.501153	5.479140	-54.104872	65.754559
27792		8.117464	0.612826	5.803180	-0.036061	0.054410	0.184382	-0.010118	0.048031	-0.029129	-0.677734	-0.127441	-0.847656	0.081189	0.006119	0.058012	0.735412	0.282269	-0.358301	0.501113	5.485217	-54.085615	65.739724
27793		8.122972	0.593476	5.798252	-0.013407	0.057564	0.184868	-0.008891	0.051902	-0.024990	-0.677734	-0.125244	-0.847656	0.081246	0.005927	0.057961	0.735522	0.282177	-0.358170	0.501096	5.489269	-54.064707	65.729237
27794		8.127297	0.614848	5.829866	-0.038147	0.045800	0.208030	-0.010411	0.050987	-0.030887	-0.675781	-0.122803	-0.838867	0.081289	0.006139	0.058278	0.735650	0.282087	-0.358040	0.501053	5.496315	-54.043666	65.712991
27795		8.084334	0.585755	5.801741	-0.012324	0.037751	0.155170	-0.009211	0.052741	-0.023666	-0.675781	-0.120605	-0.843506	0.080859	0.005851	0.057996	0.735752	0.281996	-0.357908	0.501048	5.499418	-54.022765	65.704697
27796		8.113678	0.598429	5.810742	-0.017535	0.053687	0.184883	-0.007841	0.044242	-0.027937	-0.677734	-0.125000	-0.840820	0.081150	0.005975	0.058089	0.735857	0.281926	-0.357801	0.501010	5.506105	-54.005732	65.690704
27797		8.134500	0.632450	5.828621	-0.046733	0.064935	0.214102	-0.004330	0.048533	-0.028781	-0.675537	-0.125000	-0.845459	0.081360	0.006314	0.058266	0.735960	0.281871	-0.357669	0.500984	5.516071	-53.987181	65.676499
27798		8.124206	0.614727	5.805047	-0.024777	0.074240	0.190965	-0.003401	0.044922	-0.024454	-0.675781	-0.122803	-0.845459	0.081256	0.006138	0.058032	0.736051	0.281809	-0.357553	0.500968	5.522498	-53.969949	65.665969
27799		8.121031	0.602803	5.840612	-0.021012	0.043574	0.208537	-0.004990	0.050193	-0.026146	-0.673340	-0.125000	-0.847656	0.081226	0.006019	0.058386	0.736151	0.281743	-0.357417	0.500956	5.530013	-53.950246	65.654826
27800		8.060816	0.602168	5.861803	-0.038085	-0.002525	0.172233	-0.003355	0.047055	-0.027524	-0.677734	-0.125244	-0.847656	0.080623	0.006012	0.058599	0.736253	0.281682	-0.357288	0.500931	5.538691	-53.931627	65.641538
27801		8.050444	0.584393	5.838356	-0.016031	0.006665	0.149103	-0.002139	0.050927	-0.023381	-0.675781	-0.120605	-0.845703	0.080520	0.005835	0.058363	0.736341	0.281622	-0.357143	0.500940	5.545784	-53.911535	65.633694
27802		8.055438	0.633180	5.806282	-0.050994	0.053445	0.137109	-0.005935	0.044374	-0.023327	-0.675781	-0.118408	-0.850342	0.080568	0.006324	0.058045	0.736431	0.281550	-0.357036	0.500922	5.549884	-53.894675	65.624236
27803		8.068493	0.619829	5.859822	-0.046700	0.016743	0.178300	0.000459	0.041081	-0.022537	-0.680420	-0.118408	-0.850342	0.080698	0.006189	0.058582	0.736512	0.281506	-0.356936	0.500901	5.557285	-53.880405	65.613200
27804		8.107288	0.625482	5.827506	-0.033065	0.066429	0.190996	-0.003987	0.038293	-0.022938	-0.677734	-0.127441	-0.843018	0.081085	0.006247	0.058259	0.736588	0.281456	-0.356848	0.500880	5.562647	-53.867034	65.603559
27805		8.079439	0.621893	5.884799	-0.048886	0.007958	0.201927	-0.001158	0.044236	-0.021149	-0.675781	-0.122803	-0.847900	0.080808	0.006211	0.058830	0.736659	0.281409	-0.356738	0.500880	5.568516	-53.851621	65.596329
27806		8.067953	0.644499	5.897453	-0.074271	0.002221	0.201387	-0.003683	0.045791	-0.023112	-0.680176	-0.125244	-0.847656	0.080694	0.006437	0.058956	0.736749	0.281342	-0.356621	0.500869	5.573605	-53.833964	65.587238
27807		8.041535	0.614140	5.886989	-0.047787	-0.011859	0.172185	-0.001108	0.046371	-0.024217	-0.675781	-0.122803	-0.845459	0.080430	0.006132	0.058851	0.736830	0.281297	-0.356495	0.500865	5.581920	-53.817004	65.577723
27808		8.046619	0.663061	5.854803	-0.082757	0.034915	0.160195	-0.003668	0.045802	-0.023105	-0.675537	-0.125000	-0.852051	0.080480	0.006622	0.058529	0.736919	0.281230	-0.356378	0.500854	5.586996	-53.799339	65.568654
27809		8.059253	0.649706	5.908767	-0.078418	-0.001887	0.201355	-0.007135	0.048857	-0.026314	-0.671143	-0.125000	-0.843262	0.080608	0.006489	0.059068	0.737020	0.281158	-0.356254	0.500833	5.593228	-53.780572	65.557076
27810		8.064594	0.616667	5.935374	-0.050724	-0.027930	0.219424	-0.007767	0.047414	-0.025790	-0.675537	-0.127441	-0.849854	0.080661	0.006159	0.059334	0.737125	0.281076	-0.356138	0.500808	5.597908	-53.761837	65.545582
27811		8.039822	0.641207	5.798142	-0.044552	0.075259	0.120121	-0.000775	0.043449	-0.022435	-0.675537	-0.127441	-0.849854	0.080412	0.006403	0.057964	0.737191	0.281042	-0.356018	0.500815	5.605716	-53.746373	65.538513
27812		8.005230	0.632010	5.795924	-0.042035	0.056928	0.090386	0.001899	0.032619	-0.026779	-0.668701	-0.127197	-0.849854	0.080063	0.006309	0.057946	0.737259	0.281035	-0.355931	0.500782	5.617816	-53.736018	65.524681
27813		8.025965	0.638470	5.875973	-0.061003	0.009531	0.154609	-0.008671	0.028043	-0.023152	-0.664307	-0.124756	-0.845459	0.080269	0.006378	0.058748	0.737310	0.281012	-0.355883	0.500754	5.622954	-53.728922	65.515799
27814		8.071263	0.622330	5.965658	-0.055516	-0.039344	0.243009	-0.009615	0.034768	-0.025362	-0.675781	-0.120605	-0.847900	0.080724	0.006216	0.059642	0.737393	0.280955	-0.355818	0.500709	5.627182	-53.717419	65.503547
27815		8.095571	0.656908	5.851081	-0.052709	0.074946	0.197135	0.005980	0.028907	-0.020998	-0.671143	-0.125000	-0.847656	0.080965	0.006559	0.058499	0.737433	0.280966	-0.355744	0.500696	5.638051	-53.710087	65.494240
27816		8.044087	0.689465	5.865861	-0.098155	0.047597	0.166246	0.008466	0.025233	-0.015952	-0.671387	-0.120605	-0.843506	0.080449	0.006886	0.058649	0.737451	0.280982	-0.355683	0.500704	5.646054	-53.704549	65.490155
27817		7.959284	0.668867	5.970096	-0.124374	-0.084953	0.158117	-0.004979	0.023021	-0.012992	-0.673584	-0.120605	-0.845703	0.079600	0.006685	0.059692	0.737474	0.280955	-0.355671	0.500694	5.644885	-53.701316	65.488125
27818		7.966817	0.648516	5.962737	-0.101772	-0.081677	0.158669	-0.022341	0.015247	-0.022124	-0.668945	-0.122803	-0.847900	0.079673	0.006483	0.059621	0.737533	0.280894	-0.355715	0.500611	5.640792	-53.701124	65.477146
27819		8.088694	0.620231	5.953246	-0.043036	-0.018289	0.249649	-0.013389	0.017759	-0.023390	-0.673340	-0.122803	-0.845703	0.080893	0.006197	0.059525	0.737588	0.280864	-0.355731	0.500534	5.643024	-53.700220	65.463953
27820		8.193302	0.647849	5.930208	-0.037376	0.065515	0.321985	-0.010912	0.019307	-0.019312	-0.668945	-0.122803	-0.847900	0.081939	0.006474	0.059294	0.737631	0.280830	-0.355735	0.500488	5.642985	-53.697872	65.456069
27821		8.135046	0.673568	5.886064	-0.064482	0.077984	0.250522	0.001342	0.038505	-0.012973	-0.666504	-0.125000	-0.854492	0.081362	0.006730	0.058845	0.737673	0.280787	-0.355650	0.500510	5.644238	-53.685706	65.455565
27822		8.041936	0.715024	5.905247	-0.129934	0.029059	0.189223	0.001397	0.035413	-0.015078	-0.671143	-0.122803	-0.850098	0.080430	0.007144	0.059038	0.737716	0.280751	-0.355570	0.500524	5.646728	-53.674414	65.453293
27823		8.032317	0.683146	5.912116	-0.102748	0.009105	0.183676	0.004371	0.032078	-0.019595	-0.671143	-0.122803	-0.852295	0.080333	0.006822	0.059108	0.737761	0.280745	-0.355486	0.500521	5.655455	-53.664800	65.446025
27824		8.039729	0.678080	5.873818	-0.085245	0.041719	0.166779	0.003885	0.026568	-0.026363	-0.671143	-0.122803	-0.850098	0.080406	0.006769	0.058728	0.737813	0.280760	-0.355416	0.500485	5.668792	-53.657912	65.432057
27825		8.046696	0.659627	5.867136	-0.062638	0.044907	0.167381	0.005814	0.030927	-0.027910	-0.668701	-0.129395	-0.847412	0.080477	0.006583	0.058659	0.737875	0.280776	-0.355326	0.500448	5.684610	-53.648927	65.416189
27826		8.028324	0.649723	5.882772	-0.059500	0.020481	0.161237	0.006461	0.032383	-0.028423	-0.675781	-0.120605	-0.852539	0.080294	0.006484	0.058815	0.737940	0.280790	-0.355225	0.500417	5.700557	-53.638603	65.400809
27827		7.994084	0.640616	5.879941	-0.056876	0.002045	0.131468	0.005617	0.032866	-0.017548	-0.668701	-0.125000	-0.852295	0.079951	0.006397	0.058786	0.737972	0.280790	-0.355140	0.500429	5.708497	-53.629372	65.396325
27828		7.983383	0.663560	5.891165	-0.082244	-0.003713	0.130841	0.006426	0.025032	-0.024382	-0.673340	-0.122803	-0.850098	0.079842	0.006624	0.058902	0.738014	0.280814	-0.355072	0.500403	5.721852	-53.623466	65.384136
27829		7.963633	0.693817	5.942515	-0.126488	-0.043457	0.147053	0.002922	0.020725	-0.023562	-0.668701	-0.125000	-0.856689	0.079643	0.006928	0.059417	0.738049	0.280840	-0.355033	0.500365	5.733533	-53.620611	65.371830
27830		8.044920	0.690428	5.905321	-0.092981	0.027765	0.190353	0.000408	0.017048	-0.024570	-0.675537	-0.127441	-0.847656	0.080455	0.006894	0.059046	0.738085	0.280862	-0.355009	0.500316	5.744200	-53.619243	65.358695
27831		8.059081	0.677510	5.956877	-0.088695	-0.009124	0.231427	-0.000822	0.016276	-0.026609	-0.675537	-0.122803	-0.850098	0.080597	0.006765	0.059562	0.738118	0.280897	-0.354986	0.500263	5.756846	-53.618787	65.344249
27832		7.994134	0.670485	5.915664	-0.087166	-0.015062	0.154408	-0.003742	0.016516	-0.024199	-0.677734	-0.129639	-0.845215	0.079947	0.006696	0.059150	0.738158	0.280905	-0.354976	0.500207	5.764889	-53.617740	65.331420
27833		8.034685	0.676306	5.881679	-0.073676	0.034308	0.167348	-0.004084	0.012111	-0.021923	-0.664307	-0.124756	-0.847656	0.080351	0.006755	0.058812	0.738172	0.280935	-0.354988	0.500161	5.772409	-53.620881	65.321465
27834		8.016796	0.651437	5.927718	-0.065436	-0.019463	0.178637	-0.003206	0.018937	-0.019535	-0.666504	-0.127197	-0.847656	0.080174	0.006507	0.059269	0.738204	0.280931	-0.354974	0.500126	5.776961	-53.618722	65.313355
27835		8.048451	0.677656	5.902744	-0.075841	0.025582	0.190951	-0.005824	0.010993	-0.014403	-0.669189	-0.118164	-0.848145	0.080488	0.006772	0.059023	0.738208	0.280936	-0.354998	0.500100	5.777757	-53.621580	65.309647
27836		8.037528	0.672173	5.976214	-0.091053	-0.038908	0.225191	-0.004434	0.018166	-0.021573	-0.671143	-0.125000	-0.847656	0.080381	0.006714	0.059755	0.738246	0.280932	-0.354987	0.500055	5.783244	-53.619743	65.299503
27837		8.046781	0.694086	5.873757	-0.083754	0.052335	0.173489	-0.005662	0.017394	-0.023612	-0.666504	-0.125000	-0.850098	0.080474	0.006933	0.058730	0.738294	0.280928	-0.354988	0.499985	5.789798	-53.619009	65.285313
27838		8.046615	0.627762	5.902031	-0.027554	0.007637	0.186075	0.002007	0.017020	-0.023828	-0.673340	-0.125000	-0.849854	0.080472	0.006267	0.059014	0.738326	0.280955	-0.354962	0.499941	5.800809	-53.617693	65.272890
27839		7.980334	0.675285	5.865324	-0.078428	0.015758	0.113911	0.010913	0.012191	-0.021041	-0.664551	-0.118164	-0.850342	0.079808	0.006741	0.058649	0.738327	0.281028	-0.354936	0.499917	5.815922	-53.619829	65.262465
27840		7.960732	0.691643	5.947205	-0.117615	-0.053284	0.147443	-0.002366	0.005881	-0.025402	-0.671143	-0.120605	-0.852539	0.079610	0.006907	0.059470	0.738349	0.281070	-0.354959	0.499844	5.826525	-53.624767	65.247438
27841		7.985255	0.671313	5.956940	-0.094572	-0.056173	0.171700	-0.008671	-0.004392	-0.026396	-0.673340	-0.125000	-0.849854	0.079852	0.006705	0.059571	0.738381	0.281102	-0.355048	0.499716	5.834632	-53.635703	65.226656
27842		8.019505	0.643794	5.925742	-0.052568	-0.025152	0.179207	-0.000477	-0.002347	-0.021949	-0.668701	-0.125000	-0.852295	0.080195	0.006429	0.059258	0.738377	0.281165	-0.355102	0.499648	5.844305	-53.645530	65.214130
27843		8.099213	0.653073	5.986551	-0.056474	-0.028114	0.279813	-0.007546	-0.007884	-0.018215	-0.673340	-0.125000	-0.852295	0.080990	0.006526	0.059868	0.738363	0.281214	-0.355201	0.499571	5.848148	-53.659236	65.204227
27844		8.041623	0.637036	6.034264	-0.068154	-0.103424	0.260570	0.000531	-0.004877	-0.008594	-0.673096	-0.129395	-0.847412	0.080415	0.006367	0.060345	0.738320	0.281264	-0.355280	0.499551	5.848261	-53.671284	65.204290
27845		8.042652	0.665180	5.970849	-0.079643	-0.046098	0.225703	0.002627	0.002722	-0.004164	-0.673340	-0.125000	-0.854492	0.080427	0.006649	0.059707	0.738266	0.281307	-0.355331	0.499569	5.846669	-53.680044	65.210365
27846		8.065249	0.684262	6.016946	-0.104022	-0.064302	0.272209	0.002049	-0.001828	-0.005757	-0.666748	-0.122803	-0.850098	0.080652	0.006840	0.060170	0.738219	0.281350	-0.355399	0.499566	5.845208	-53.690519	65.213460
27847		8.008514	0.695522	6.001569	-0.125791	-0.080892	0.218090	0.004921	-0.004194	-0.005094	-0.671143	-0.125000	-0.847656	0.080084	0.006952	0.060018	0.738166	0.281407	-0.355472	0.499560	5.845476	-53.702542	65.215729
27848		8.043338	0.680646	5.938747	-0.088878	-0.020489	0.208238	0.001345	-0.000186	-0.003136	-0.675293	-0.129639	-0.849609	0.080433	0.006805	0.059388	0.738117	0.281438	-0.355540	0.499567	5.841445	-53.712235	65.221513
27849		7.976611	0.684773	5.995730	-0.124432	-0.100511	0.188234	0.000651	-0.003775	0.000448	-0.673340	-0.125000	-0.849854	0.079765	0.006848	0.059959	0.738042	0.281483	-0.355625	0.499591	5.835707	-53.724950	65.231501
27850		7.945248	0.687004	5.958267	-0.126794	-0.089314	0.140996	-0.000342	-0.004409	0.002273	-0.671143	-0.122803	-0.854492	0.079451	0.006871	0.059584	0.737974	0.281509	-0.355721	0.499610	5.826836	-53.737364	65.242087
27851		7.945701	0.686809	5.957684	-0.128160	-0.090613	0.140967	-0.001560	-0.010413	0.001196	-0.673340	-0.122803	-0.850098	0.079454	0.006869	0.059581	0.737902	0.281547	-0.355842	0.499607	5.818998	-53.753433	65.249979
27852		7.948675	0.645912	5.920105	-0.082075	-0.076513	0.118762	-0.002830	-0.018551	0.003188	-0.675537	-0.125000	-0.847656	0.079481	0.006461	0.059208	0.737810	0.281597	-0.355997	0.499605	5.809095	-53.773959	65.260072
27853		7.917121	0.620435	5.944924	-0.074288	-0.124210	0.106331	-0.001196	-0.016462	0.000848	-0.671143	-0.125000	-0.849854	0.079166	0.006205	0.059456	0.737724	0.281657	-0.356142	0.499595	5.802301	-53.793915	65.267421
27854		7.959885	0.624453	5.908190	-0.060869	-0.074558	0.119440	-0.001236	-0.023825	0.004881	-0.675537	-0.127197	-0.845215	0.079592	0.006247	0.059091	0.737616	0.281723	-0.356315	0.499594	5.792389	-53.817544	65.278652
27855		7.977732	0.636591	5.893043	-0.066787	-0.052768	0.125631	-0.000582	-0.027598	0.005330	-0.677734	-0.125000	-0.843262	0.079769	0.006368	0.058941	0.737492	0.281811	-0.356498	0.499597	5.783842	-53.843951	65.290593
27856		7.979413	0.636012	5.890830	-0.068170	-0.053998	0.125615	-0.003152	-0.028184	0.006428	-0.675781	-0.120605	-0.845703	0.079786	0.006364	0.058919	0.737375	0.281878	-0.356694	0.499592	5.771941	-53.870152	65.302920
27857		7.980775	0.621564	5.920101	-0.064534	-0.084829	0.142981	-0.000916	-0.032002	0.007606	-0.675537	-0.125000	-0.845459	0.079798	0.006219	0.059214	0.737243	0.281966	-0.356908	0.499584	5.761150	-53.899759	65.315176
27858		8.023981	0.611366	5.913751	-0.046082	-0.064584	0.173513	-0.001540	-0.038681	0.009087	-0.680176	-0.123047	-0.843262	0.080228	0.006118	0.059153	0.737098	0.282061	-0.357142	0.499577	5.748884	-53.932094	65.329088
27859		8.051505	0.602366	5.888601	-0.028110	-0.038310	0.180457	0.005429	-0.037408	0.011486	-0.677979	-0.122803	-0.847900	0.080504	0.006027	0.058901	0.736934	0.282183	-0.357361	0.499593	5.739371	-53.964960	65.345481
27860		8.111094	0.605003	5.868872	-0.014279	0.005081	0.217233	0.008005	-0.036817	0.010389	-0.677979	-0.122803	-0.843262	0.081100	0.006052	0.058704	0.736776	0.282306	-0.357567	0.499611	5.731365	-53.996305	65.360877
27861		8.121714	0.569831	5.888698	0.013336	-0.021155	0.235352	0.007598	-0.032900	0.013808	-0.680176	-0.120850	-0.847900	0.081207	0.005702	0.058901	0.736615	0.282416	-0.357769	0.499641	5.720621	-54.026462	65.379267
27862		8.140028	0.581638	5.872813	0.007329	0.000758	0.241577	0.006612	-0.033530	0.015637	-0.675537	-0.127197	-0.843018	0.081390	0.005821	0.058742	0.736452	0.282516	-0.357972	0.499680	5.707390	-54.056229	65.400120
27863		8.101358	0.603944	5.842099	-0.018915	0.007327	0.193633	0.009720	-0.030525	0.019198	-0.682617	-0.118408	-0.841309	0.081004	0.006044	0.058434	0.736275	0.282621	-0.358164	0.499743	5.693669	-54.085144	65.424771
27864		8.137279	0.573604	5.808553	0.023018	0.038381	0.201384	0.007442	-0.028835	0.021095	-0.686768	-0.125244	-0.843018	0.081364	0.005742	0.058097	0.736105	0.282703	-0.358356	0.499810	5.676190	-54.112538	65.451440
27865		8.114343	0.594539	5.796552	-0.002872	0.038566	0.177035	0.009727	-0.030520	0.019202	-0.680176	-0.125244	-0.845459	0.081134	0.005950	0.057978	0.735929	0.282807	-0.358556	0.499866	5.662026	-54.142394	65.475542
27866		8.100096	0.594844	5.775845	-0.004707	0.043601	0.153448	0.010993	-0.022388	0.017202	-0.677979	-0.122803	-0.850098	0.080994	0.005952	0.057768	0.735775	0.282893	-0.358710	0.499934	5.649086	-54.165885	65.499102
27867		8.134110	0.618934	5.747527	-0.015279	0.088588	0.165930	0.005215	-0.025008	0.019925	-0.677734	-0.127441	-0.845215	0.081333	0.006196	0.057486	0.735614	0.282965	-0.358890	0.500000	5.631680	-54.191290	65.525194
27868		8.160307	0.595660	5.755157	0.007727	0.085655	0.190305	0.014701	-0.020061	0.023316	-0.677734	-0.127441	-0.843018	0.081597	0.005962	0.057560	0.735444	0.283047	-0.359035	0.500101	5.615799	-54.213790	65.554987
27869		8.159786	0.635277	5.789824	-0.041050	0.068876	0.212347	0.013470	-0.020833	0.021280	-0.677979	-0.122803	-0.845459	0.081591	0.006358	0.057907	0.735263	0.283150	-0.359172	0.500210	5.602518	-54.236884	65.585040
27870		8.193528	0.659336	5.761856	-0.051702	0.113923	0.224840	0.010887	-0.016192	0.021416	-0.680176	-0.120605	-0.838867	0.081930	0.006599	0.057626	0.735110	0.283211	-0.359309	0.500301	5.585601	-54.257063	65.613400
27871		8.169646	0.680204	5.751229	-0.077487	0.114277	0.200472	0.008595	-0.009279	0.022343	-0.677979	-0.120605	-0.838867	0.081693	0.006809	0.057516	0.734970	0.283249	-0.359432	0.500398	5.566626	-54.273876	65.642512
27872		8.185645	0.664104	5.800880	-0.073417	0.077321	0.241400	0.007041	-0.001881	0.017575	-0.682129	-0.127441	-0.840820	0.081855	0.006646	0.058010	0.734857	0.283268	-0.359521	0.500489	5.549401	-54.285670	65.668525
27873		8.178684	0.643468	5.773401	-0.051225	0.086779	0.218610	0.002972	0.001839	0.011806	-0.675537	-0.127197	-0.840820	0.081787	0.006439	0.057733	0.734762	0.283285	-0.359596	0.500564	5.535252	-54.295754	65.690089
27874		8.187022	0.608046	5.796400	-0.023611	0.060687	0.236744	0.003903	0.005564	0.012080	-0.682129	-0.127441	-0.840820	0.081871	0.006084	0.057962	0.734681	0.283284	-0.359658	0.500640	5.519995	-54.302991	65.711460
27875		8.187067	0.621103	5.765253	-0.029929	0.088731	0.219422	0.000778	0.007786	0.007555	-0.685059	-0.116455	-0.843750	0.081873	0.006214	0.057649	0.734601	0.283296	-0.359701	0.500719	5.508206	-54.309126	65.731375
27876		8.178273	0.655245	5.743052	-0.060348	0.112337	0.201297	0.005238	0.005372	0.008941	-0.680420	-0.118408	-0.841309	0.081784	0.006555	0.057428	0.734526	0.283305	-0.359755	0.500786	5.496209	-54.316295	65.749671
27877		8.177947	0.655108	5.743531	-0.061820	0.110985	0.201303	0.006615	0.007308	0.002727	-0.677979	-0.120605	-0.841309	0.081781	0.006550	0.057433	0.734477	0.283319	-0.359804	0.500814	5.489560	-54.322787	65.759261
27878		8.161342	0.642993	5.757140	-0.058579	0.086608	0.195043	0.008004	0.004020	-0.002516	-0.682373	-0.125244	-0.840820	0.081615	0.006427	0.057570	0.734424	0.283363	-0.359840	0.500842	5.488342	-54.330097	65.766234
27879		8.159725	0.698140	5.762065	-0.112500	0.099198	0.199676	0.007115	0.002424	-0.005864	-0.673584	-0.120605	-0.847900	0.081598	0.006977	0.057620	0.734371	0.283423	-0.359878	0.500857	5.490376	-54.338647	65.770155
27880		8.135907	0.653124	5.779532	-0.080642	0.056277	0.187957	0.005587	-0.000624	-0.008693	-0.682373	-0.125244	-0.840820	0.081359	0.006526	0.057796	0.734328	0.283480	-0.359929	0.500851	5.493037	-54.348267	65.770649
27881		8.161294	0.659704	5.725725	-0.067679	0.112180	0.177743	0.006617	0.002133	-0.013596	-0.682373	-0.123047	-0.841064	0.081614	0.006590	0.057257	0.734299	0.283549	-0.359955	0.500836	5.500883	-54.355962	65.766608
27882		8.128635	0.636119	5.752098	-0.059775	0.064678	0.165200	0.005687	-0.001591	-0.013870	-0.682617	-0.120850	-0.838867	0.081286	0.006354	0.057522	0.734268	0.283619	-0.360002	0.500809	5.507796	-54.365849	65.761941
27883		8.144995	0.650191	5.738610	-0.065810	0.086414	0.171476	0.005743	-0.004686	-0.015972	-0.682617	-0.120605	-0.836670	0.081449	0.006494	0.057388	0.734232	0.283708	-0.360060	0.500771	5.517401	-54.378176	65.754750
27884		8.136256	0.672946	5.747182	-0.091169	0.080579	0.170639	0.007719	-0.003426	-0.019630	-0.684570	-0.123047	-0.838867	0.081362	0.006719	0.057473	0.734208	0.283800	-0.360100	0.500724	5.530212	-54.388791	65.744260
27885		8.145348	0.654078	5.737666	-0.068611	0.083738	0.171480	0.006498	-0.009423	-0.020694	-0.682129	-0.127441	-0.840820	0.081451	0.006530	0.057381	0.734173	0.283912	-0.360168	0.500662	5.544368	-54.403817	65.731943
27886		8.186340	0.632784	5.765016	-0.045281	0.074440	0.219480	0.004859	-0.006281	-0.019318	-0.682129	-0.127441	-0.840820	0.081862	0.006319	0.057653	0.734148	0.284001	-0.360226	0.500607	5.555528	-54.416075	65.721471
27887		8.178001	0.669406	5.741806	-0.075564	0.097898	0.201345	0.006486	-0.004198	-0.021665	-0.687012	-0.118652	-0.845703	0.081780	0.006683	0.057420	0.734112	0.284116	-0.360258	0.500572	5.571101	-54.427499	65.711593
27888		8.185104	0.691011	5.768923	-0.100550	0.085718	0.224067	-0.001532	-0.003002	-0.020119	-0.682617	-0.120850	-0.841064	0.081851	0.006902	0.057690	0.734104	0.284173	-0.360319	0.500507	5.578999	-54.437840	65.700635
27889		8.177295	0.645392	5.804802	-0.068319	0.036397	0.235915	-0.003770	0.000815	-0.021297	-0.682373	-0.125244	-0.845459	0.081774	0.006446	0.058048	0.734115	0.284212	-0.360379	0.500426	5.586322	-54.446512	65.686883
27890		8.160548	0.620587	5.849742	-0.060013	-0.017435	0.246897	-0.007574	-0.000545	-0.022230	-0.678223	-0.118408	-0.845947	0.081606	0.006199	0.058497	0.734124	0.284246	-0.360443	0.500347	5.592260	-54.455333	65.674081
27891		8.138291	0.630919	5.740301	-0.048209	0.057557	0.166052	-0.001179	-0.003819	-0.021427	-0.682373	-0.123047	-0.841064	0.081382	0.006301	0.057405	0.734122	0.284307	-0.360504	0.500271	5.601932	-54.465844	65.660524
27892		8.129168	0.626168	5.811813	-0.063489	-0.007220	0.199732	0.002725	-0.015995	-0.020652	-0.677734	-0.125000	-0.843262	0.081288	0.006252	0.058125	0.734086	0.284414	-0.360601	0.500194	5.613735	-54.483561	65.647769
27893		8.154369	0.591812	5.851863	-0.035438	-0.039711	0.241439	-0.007575	-0.013116	-0.017211	-0.689209	-0.123047	-0.836426	0.081540	0.005913	0.058524	0.734057	0.284477	-0.360714	0.500118	5.617625	-54.499809	65.638800
27894		8.186696	0.590458	5.888034	-0.036121	-0.053661	0.288570	-0.013928	-0.007713	-0.021084	-0.687012	-0.123047	-0.838867	0.081865	0.005900	0.058883	0.734060	0.284503	-0.360822	0.500021	5.619598	-54.512777	65.626405
27895		8.130222	0.601991	5.872471	-0.057533	-0.070159	0.234231	-0.003170	-0.012428	-0.013723	-0.682373	-0.123047	-0.843262	0.081299	0.006015	0.058730	0.734014	0.284577	-0.360935	0.499966	5.623020	-54.530075	65.621017
27896		8.128717	0.602365	6.002040	-0.091392	-0.175409	0.307799	0.004833	-0.033538	-0.006210	-0.687012	-0.123047	-0.841064	0.081277	0.006020	0.060034	0.733906	0.284710	-0.361112	0.499920	5.625886	-54.558603	65.620729
27897		8.080558	0.605727	6.074830	-0.126267	-0.261679	0.310626	0.003506	-0.045917	0.001947	-0.682373	-0.123047	-0.838867	0.080792	0.006057	0.060767	0.733756	0.284859	-0.361349	0.499885	5.623142	-54.594976	65.627030
27898		8.020775	0.555757	5.993104	-0.076454	-0.251365	0.211781	-0.011488	-0.033428	-0.003897	-0.688965	-0.125244	-0.843018	0.080198	0.005559	0.059944	0.733666	0.284927	-0.361570	0.499818	5.614787	-54.623571	65.629034
27899		8.001333	0.482082	5.939903	-0.001901	-0.249240	0.160981	-0.018556	-0.033734	-0.001099	-0.682373	-0.123047	-0.836670	0.080003	0.004826	0.059412	0.733572	0.284974	-0.361810	0.499755	5.601122	-54.652851	65.634295
27900		8.017858	0.534232	5.960286	-0.055544	-0.242963	0.189030	-0.009721	-0.037580	0.006841	-0.687012	-0.120850	-0.841064	0.080167	0.005348	0.059618	0.733446	0.285040	-0.362057	0.499725	5.585448	-54.684413	65.646511
27901		8.013305	0.527310	5.898200	-0.038303	-0.203798	0.149084	0.002357	-0.037260	0.010080	-0.689209	-0.120850	-0.836670	0.080122	0.005276	0.058997	0.733294	0.285146	-0.362277	0.499727	5.574683	-54.716251	65.661375
27902		7.948092	0.612906	5.894288	-0.136181	-0.210749	0.098291	0.007246	-0.036227	0.004005	-0.684570	-0.125244	-0.832031	0.079470	0.006129	0.058957	0.733152	0.285276	-0.362472	0.499720	5.570871	-54.746882	65.670959
27903		7.934219	0.600959	5.904340	-0.132815	-0.235251	0.091919	0.011620	-0.042828	-0.005754	-0.691406	-0.123047	-0.836426	0.079330	0.006004	0.059061	0.733009	0.285466	-0.362666	0.499679	5.578954	-54.781477	65.670731
27904		7.960192	0.634789	5.914742	-0.162512	-0.224378	0.120843	0.010258	-0.049924	-0.015849	-0.691406	-0.123047	-0.832031	0.079588	0.006339	0.059168	0.732888	0.285677	-0.362876	0.499585	5.593991	-54.818813	65.659352
27905		8.005913	0.600447	5.838900	-0.101742	-0.159359	0.112643	0.008111	-0.047070	-0.022196	-0.688965	-0.127441	-0.831787	0.080046	0.005993	0.058408	0.732782	0.285896	-0.363073	0.499472	5.613673	-54.855236	65.642520
27906		7.961722	0.538062	5.807118	-0.046453	-0.184775	0.054675	0.005553	-0.040307	-0.025132	-0.693604	-0.125488	-0.831787	0.079606	0.005369	0.058087	0.732708	0.286082	-0.363245	0.499349	5.632829	-54.886562	65.622820
27907		7.933406	0.502086	5.731019	-0.000798	-0.157800	-0.014182	0.011204	-0.031497	-0.023669	-0.687012	-0.123047	-0.836426	0.079326	0.005008	0.057323	0.732619	0.286287	-0.363367	0.499272	5.654985	-54.913990	65.607861
27908		7.863616	0.475404	5.659402	0.025227	-0.151904	-0.113843	-0.004073	-0.026511	-0.029306	-0.688965	-0.129883	-0.836182	0.078629	0.004744	0.056604	0.732595	0.286411	-0.363508	0.499136	5.670969	-54.937207	65.585311
27909		7.816688	0.466754	5.634028	0.028087	-0.163480	-0.167315	-0.012150	-0.022236	-0.025639	-0.691650	-0.118652	-0.832275	0.078161	0.004661	0.056349	0.732568	0.286503	-0.363647	0.499020	5.680480	-54.958310	65.568593
27910		7.801568	0.440957	5.677367	0.036488	-0.217273	-0.156453	-0.024787	-0.021943	-0.014123	-0.689209	-0.123047	-0.836426	0.078010	0.004411	0.056782	0.732543	0.286513	-0.363844	0.498908	5.671915	-54.979781	65.561541
27911		7.817322	0.506702	5.667208	-0.022200	-0.181618	-0.145679	-0.044395	-0.022926	-0.004967	-0.691406	-0.125244	-0.829590	0.078167	0.005078	0.056680	0.732525	0.286435	-0.364112	0.498783	5.645071	-55.002831	65.562115
27912		7.841665	0.522272	5.711659	-0.046881	-0.200260	-0.099540	-0.067200	-0.018601	0.001779	-0.689209	-0.120850	-0.832275	0.078411	0.005243	0.057122	0.732527	0.286252	-0.364425	0.498657	5.598961	-55.023292	65.571232
27913		7.831865	0.551438	5.819545	-0.109680	-0.280932	-0.044456	-0.087712	-0.015949	0.006634	-0.687012	-0.120850	-0.834473	0.078314	0.005543	0.058199	0.732544	0.285989	-0.364785	0.498520	5.537924	-55.043156	65.586004
27914		7.848449	0.516273	5.900798	-0.100683	-0.347575	0.013459	-0.120223	-0.009340	0.002148	-0.693604	-0.123047	-0.832031	0.078482	0.005199	0.059009	0.732637	0.285587	-0.365197	0.498311	5.460333	-55.058345	65.596461
27915		7.814741	0.523778	5.964180	-0.140111	-0.410772	0.022331	-0.136208	0.000413	0.001287	-0.691406	-0.120850	-0.832275	0.078147	0.005279	0.059638	0.732766	0.285115	-0.365607	0.498092	5.374591	-55.068266	65.607783
27916		7.766372	0.477002	6.004615	-0.127288	-0.481269	0.003200	-0.168474	-0.002177	-0.009480	-0.693848	-0.120850	-0.825439	0.077663	0.004817	0.060043	0.732970	0.284540	-0.366095	0.497762	5.278236	-55.078732	65.607405
27917		7.807361	0.415716	6.095832	-0.093968	-0.549931	0.085576	-0.195372	-0.007693	-0.012453	-0.691895	-0.114258	-0.830322	0.078072	0.004212	0.060957	0.733193	0.283904	-0.366662	0.497379	5.170743	-55.093144	65.605472
27918		7.879462	0.418954	6.196588	-0.117828	-0.587919	0.202281	-0.210942	-0.020624	-0.019783	-0.694092	-0.114258	-0.832520	0.078789	0.004247	0.061970	0.733447	0.283237	-0.367309	0.496906	5.059781	-55.113612	65.593236
27919		7.953760	0.395523	6.228507	-0.099120	-0.580850	0.280172	-0.217396	-0.020439	-0.026451	-0.694336	-0.109863	-0.830566	0.079532	0.004012	0.062289	0.733724	0.282565	-0.367963	0.496396	4.951213	-55.134401	65.574132
27920		7.913770	0.379236	6.263375	-0.114988	-0.632907	0.266382	-0.225764	-0.019374	-0.032512	-0.694336	-0.109863	-0.832764	0.079132	0.003850	0.062637	0.734032	0.281863	-0.368623	0.495850	4.842008	-55.153559	65.549412
27921		7.854566	0.429367	6.385060	-0.221359	-0.739645	0.289365	-0.253373	-0.031569	-0.037843	-0.694336	-0.109863	-0.828369	0.078536	0.004360	0.063858	0.734367	0.281104	-0.369394	0.495211	4.722632	-55.180262	65.517553
27922		7.879902	0.419578	6.460791	-0.241121	-0.787927	0.352534	-0.265983	-0.041526	-0.045469	-0.692139	-0.107422	-0.828369	0.078787	0.004264	0.064619	0.734720	0.280333	-0.370215	0.494510	4.602438	-55.211526	65.478168
27923		7.848546	0.463538	6.427831	-0.295654	-0.762685	0.309686	-0.280041	-0.042759	-0.066011	-0.694824	-0.098633	-0.835693	0.078473	0.004699	0.064289	0.735131	0.279563	-0.371046	0.493712	4.492194	-55.243461	65.418887
27924		7.749961	0.578331	6.427288	-0.441553	-0.772480	0.232943	-0.309922	-0.063702	-0.071393	-0.694336	-0.105225	-0.830811	0.077481	0.005855	0.064289	0.735565	0.278732	-0.372019	0.492802	4.369502	-55.286336	65.351942
27925		7.587918	0.654545	6.447250	-0.573462	-0.845151	0.113480	-0.335854	-0.074575	-0.088021	-0.699219	-0.101074	-0.835449	0.075858	0.006620	0.064490	0.736056	0.277863	-0.373076	0.491759	4.246722	-55.335229	65.266490
27926		7.387626	0.699627	6.433408	-0.677166	-0.923253	-0.058495	-0.358932	-0.103497	-0.105168	-0.699219	-0.096436	-0.831299	0.073847	0.007073	0.064360	0.736563	0.277011	-0.374268	0.490575	4.126246	-55.399594	65.162805
27927		7.244259	0.832631	6.344665	-0.828774	-0.884250	-0.223186	-0.371488	-0.146488	-0.129286	-0.697266	-0.092041	-0.831543	0.072402	0.008397	0.063484	0.737059	0.276268	-0.375615	0.489217	4.021858	-55.488372	65.031627
27928		7.151201	0.976803	6.277744	-0.984591	-0.834907	-0.334430	-0.389082	-0.194505	-0.162366	-0.697266	-0.092041	-0.829346	0.071459	0.009832	0.062828	0.737570	0.275632	-0.377133	0.487635	3.937262	-55.602693	64.863700
27929		7.184183	1.066144	6.256847	-1.072040	-0.780829	-0.318569	-0.397807	-0.250325	-0.198884	-0.699463	-0.092041	-0.827148	0.071774	0.010715	0.062637	0.738078	0.275165	-0.378831	0.485811	3.882171	-55.747937	64.652881
27930		7.235673	1.186557	6.188180	-1.169255	-0.674105	-0.313486	-0.405043	-0.321756	-0.239813	-0.704102	-0.092041	-0.824951	0.072271	0.011904	0.061974	0.738549	0.274923	-0.380745	0.483731	3.862151	-55.932182	64.396452
27931		7.355919	1.279396	6.118740	-1.222776	-0.548074	-0.252889	-0.411484	-0.372716	-0.277786	-0.708984	-0.083252	-0.820801	0.073463	0.012818	0.061298	0.739010	0.274861	-0.382804	0.481432	3.876360	-56.144553	64.096982
27932		7.429222	1.373347	6.122908	-1.309769	-0.506918	-0.189961	-0.427061	-0.425182	-0.316857	-0.710938	-0.085449	-0.818604	0.074184	0.013747	0.061358	0.739485	0.274929	-0.385040	0.478874	3.919250	-56.384856	63.751010
27933		7.431575	1.465596	6.124222	-1.411764	-0.503745	-0.187958	-0.441263	-0.475067	-0.343460	-0.710938	-0.089844	-0.813721	0.074195	0.014664	0.061386	0.739943	0.275108	-0.387463	0.476101	3.983303	-56.653350	63.369091
27934		7.435673	1.558518	6.123509	-1.513701	-0.500473	-0.185971	-0.461516	-0.510967	-0.368359	-0.718018	-0.083496	-0.816406	0.074229	0.015590	0.061389	0.740402	0.275345	-0.390017	0.473155	4.063370	-56.940191	62.957213
27935		7.575500	1.711281	6.068486	-1.619743	-0.367211	-0.097512	-0.486836	-0.547109	-0.389505	-0.722412	-0.083496	-0.813965	0.075622	0.017113	0.060850	0.740857	0.275623	-0.392725	0.470031	4.155895	-57.246838	62.516801
27936		7.652669	1.825148	6.033165	-1.711857	-0.296551	-0.051795	-0.509659	-0.566053	-0.405102	-0.731445	-0.083740	-0.807373	0.076393	0.018251	0.060501	0.741337	0.275874	-0.395533	0.466763	4.254370	-57.562896	62.053152
27937		7.667604	1.981356	5.925633	-1.833586	-0.181747	-0.094878	-0.531684	-0.575970	-0.421028	-0.731689	-0.076904	-0.803223	0.076547	0.019810	0.059424	0.741844	0.276103	-0.398397	0.463374	4.362324	-57.884043	61.566714
27938		7.740571	2.112572	5.860623	-1.930758	-0.081543	-0.066320	-0.553178	-0.580653	-0.429958	-0.731689	-0.074707	-0.796631	0.077281	0.021122	0.058772	0.742382	0.276265	-0.401309	0.459888	4.471321	-58.206421	61.064538
27939		7.797372	2.171817	5.699049	-1.932904	0.056818	-0.104162	-0.581131	-0.591608	-0.440116	-0.736328	-0.074707	-0.794434	0.077853	0.021713	0.057158	0.742955	0.276354	-0.404314	0.456263	4.580990	-58.534506	60.541553
27940		7.987414	2.233537	5.644615	-1.938245	0.172810	0.029180	-0.596038	-0.598391	-0.461739	-0.740967	-0.070313	-0.790039	0.079756	0.022320	0.056618	0.743557	0.276449	-0.407329	0.452528	4.709783	-58.864476	59.990988
27941		8.143949	2.254097	5.686317	-1.948030	0.178970	0.182914	-0.611434	-0.605213	-0.472435	-0.747559	-0.072754	-0.787598	0.081320	0.022523	0.057040	0.744186	0.276505	-0.410389	0.448680	4.847845	-59.197272	59.417784
27942		8.257750	2.230302	5.765870	-1.943522	0.115804	0.317421	-0.629395	-0.597261	-0.476428	-0.747803	-0.070557	-0.783447	0.082458	0.022288	0.057835	0.744833	0.276490	-0.413435	0.444802	4.986697	-59.524515	58.837116
27943		8.323158	2.194432	5.824227	-1.934649	0.042612	0.398448	-0.645111	-0.589623	-0.472066	-0.754395	-0.072754	-0.783203	0.083111	0.021936	0.058417	0.745498	0.276378	-0.416485	0.440894	5.119978	-59.846788	58.252646
27944		8.348949	2.126722	5.850340	-1.897554	-0.036042	0.427050	-0.666855	-0.570018	-0.468206	-0.750000	-0.070313	-0.769775	0.083372	0.021267	0.058670	0.746199	0.276133	-0.419503	0.436984	5.242403	-60.157545	57.669951
27945		8.280623	1.981135	5.825151	-1.798863	-0.148522	0.344473	-0.695014	-0.550672	-0.452062	-0.761475	-0.068359	-0.772217	0.082690	0.019827	0.058410	0.746927	0.275704	-0.422514	0.433092	5.339689	-60.456862	57.100264
27946		8.161923	1.891109	5.864074	-1.791301	-0.302717	0.251115	-0.726243	-0.535241	-0.429790	-0.763916	-0.059570	-0.765869	0.081503	0.018949	0.058790	0.747662	0.275066	-0.425563	0.429228	5.400139	-60.748878	56.553119
27947		8.012896	1.799485	5.830457	-1.765111	-0.409517	0.094655	-0.751816	-0.512774	-0.408540	-0.766357	-0.055176	-0.768555	0.080016	0.018051	0.058442	0.748426	0.274223	-0.428604	0.425392	5.428391	-61.028648	56.025282
27948		7.809687	1.710707	5.750019	-1.739508	-0.496857	-0.132420	-0.767087	-0.504137	-0.384549	-0.768799	-0.055176	-0.757324	0.077985	0.017178	0.057631	0.749149	0.273256	-0.431665	0.421630	5.427207	-61.305103	55.524772
27949		7.750122	1.723518	5.672483	-1.765797	-0.476128	-0.227953	-0.775985	-0.499264	-0.365573	-0.768555	-0.059570	-0.757080	0.077391	0.017314	0.056851	0.749858	0.272171	-0.434749	0.417888	5.404298	-61.578856	55.039096
27950		7.622969	1.673488	5.588837	-1.754094	-0.507207	-0.388723	-0.779495	-0.501038	-0.350746	-0.778076	-0.048584	-0.753174	0.076119	0.016819	0.056014	0.750496	0.271063	-0.437849	0.414209	5.369636	-61.855532	54.571138
27951		7.490513	1.640962	5.477368	-1.747140	-0.508507	-0.566558	-0.785612	-0.501242	-0.337550	-0.784668	-0.048828	-0.750732	0.074795	0.016499	0.054897	0.751106	0.269893	-0.440961	0.410550	5.322874	-62.131853	54.113362
27952		7.385229	1.620649	5.412054	-1.763901	-0.527622	-0.698490	-0.785191	-0.509177	-0.322404	-0.782715	-0.046387	-0.746582	0.073741	0.016300	0.054245	0.751638	0.268705	-0.444120	0.406934	5.263909	-62.415033	53.671583
27953		7.280279	1.599443	5.346950	-1.780462	-0.546597	-0.830393	-0.780367	-0.521710	-0.307452	-0.787598	-0.037598	-0.742432	0.072688	0.016092	0.053597	0.752096	0.267518	-0.447318	0.403352	5.198007	-62.705330	53.241318
27954		7.320416	1.630426	5.309585	-1.815490	-0.506002	-0.819007	-0.774491	-0.546063	-0.282129	-0.791992	-0.035400	-0.738037	0.073082	0.016407	0.053232	0.752413	0.266342	-0.450626	0.399842	5.112604	-63.012126	52.838474
27955		7.430519	1.668880	5.304720	-1.854800	-0.461565	-0.730599	-0.776240	-0.570015	-0.259698	-0.794434	-0.031006	-0.733887	0.074175	0.016799	0.053194	0.752633	0.265126	-0.454049	0.396347	5.006123	-63.332779	52.454785
27956		7.632180	1.714203	5.305483	-1.879349	-0.386246	-0.557662	-0.764595	-0.567800	-0.234738	-0.803711	-0.024414	-0.727539	0.076191	0.017256	0.053205	0.752756	0.263910	-0.457459	0.392989	4.882034	-63.654998	52.103758
27957		7.717114	1.741953	5.211795	-1.876248	-0.289792	-0.531168	-0.761119	-0.556177	-0.216305	-0.810791	-0.022461	-0.725342	0.077045	0.017535	0.052266	0.752868	0.262605	-0.460841	0.389684	4.738333	-63.970902	51.771894
27958		7.791560	1.698839	5.155674	-1.834605	-0.264736	-0.499288	-0.751552	-0.541449	-0.204132	-0.803955	-0.020020	-0.718750	0.077793	0.017103	0.051703	0.752939	0.261304	-0.464145	0.386487	4.588763	-64.280262	51.459392
27959		7.861921	1.710738	5.074578	-1.826674	-0.191370	-0.479186	-0.738437	-0.540921	-0.190582	-0.808838	-0.013428	-0.721436	0.078498	0.017220	0.050895	0.752969	0.259988	-0.467435	0.383339	4.431305	-64.589295	51.160008
27960		8.002846	1.673514	5.091546	-1.808407	-0.197082	-0.354321	-0.721826	-0.533434	-0.183888	-0.813232	-0.013428	-0.703369	0.079908	0.016846	0.051068	0.752947	0.258725	-0.470658	0.380281	4.277859	-64.895687	50.872227
27961		8.120849	1.668552	4.981945	-1.757248	-0.097707	-0.301935	-0.698823	-0.514451	-0.179643	-0.811279	-0.006592	-0.703857	0.081095	0.016787	0.049970	0.752938	0.257467	-0.473762	0.377286	4.130750	-65.189946	50.587653
27962		8.287544	1.677197	4.889778	-1.710723	0.011214	-0.196062	-0.668082	-0.492037	-0.170934	-0.820313	-0.006836	-0.699219	0.082769	0.016865	0.049045	0.752890	0.256286	-0.476725	0.374443	3.991996	-65.473828	50.318966
27963		8.396383	1.752833	4.887659	-1.778989	0.074176	-0.102361	-0.641060	-0.475001	-0.159747	-0.825195	-0.000244	-0.697510	0.083862	0.017618	0.049019	0.752836	0.255115	-0.479579	0.371697	3.853209	-65.746814	50.063008
27964		8.499561	1.765584	4.836783	-1.770932	0.134179	-0.035164	-0.608431	-0.456086	-0.149382	-0.825439	0.004395	-0.690918	0.084898	0.017740	0.048508	0.752732	0.254032	-0.482307	0.369111	3.721319	-66.011491	49.825408
27965		8.510887	1.770042	4.783145	-1.777624	0.163565	-0.052569	-0.588381	-0.439652	-0.133407	-0.832275	0.008545	-0.691162	0.085015	0.017785	0.047966	0.752626	0.252910	-0.484958	0.366615	3.576422	-66.266166	49.607981
27966		8.573504	1.809625	4.835353	-1.855598	0.152254	0.020614	-0.566183	-0.425279	-0.126387	-0.830078	0.008789	-0.682373	0.085644	0.018179	0.048484	0.752479	0.251866	-0.487508	0.364246	3.438515	-66.514501	49.404302
27967		8.703894	1.821934	4.914122	-1.909342	0.126639	0.165493	-0.552447	-0.419301	-0.113788	-0.834473	0.006348	-0.682129	0.086946	0.018306	0.049273	0.752322	0.250783	-0.490029	0.361927	3.287572	-66.758424	49.216188
27968		8.835358	1.838622	4.950562	-1.944104	0.134644	0.294456	-0.542434	-0.412037	-0.099375	-0.837402	0.019775	-0.676270	0.088261	0.018477	0.049637	0.752109	0.249732	-0.492507	0.359725	3.127465	-67.000474	49.052192
27969		8.987040	1.862852	4.917284	-1.940720	0.205235	0.415126	-0.522419	-0.392594	-0.088127	-0.837402	0.021973	-0.671875	0.089782	0.018718	0.049300	0.751915	0.248652	-0.494887	0.357608	2.958930	-67.229965	48.903895
27970		9.191736	1.925930	4.947316	-1.989818	0.269310	0.610419	-0.506113	-0.375919	-0.071928	-0.844238	0.024170	-0.667480	0.091831	0.019352	0.049597	0.751680	0.247599	-0.497188	0.355636	2.779534	-67.452510	48.783908
27971		9.464278	1.961438	5.002010	-2.014587	0.318459	0.877486	-0.487447	-0.361119	-0.059559	-0.842041	0.026367	-0.665283	0.094558	0.019708	0.050143	0.751438	0.246552	-0.499408	0.353758	2.593938	-67.666567	48.680907
27972		9.483332	1.976976	4.983841	-2.045270	0.336101	0.882382	-0.461471	-0.330384	-0.050670	-0.844482	0.030762	-0.661133	0.094756	0.019861	0.049949	0.751209	0.245529	-0.501475	0.352027	2.406408	-67.863871	48.597707
27973		9.558589	1.940773	5.044566	-2.065764	0.281516	0.968507	-0.429199	-0.306891	-0.039322	-0.849121	0.030762	-0.658936	0.095512	0.019497	0.050550	0.750983	0.244550	-0.503406	0.350431	2.220959	-68.047576	48.530777
27974		9.642428	1.875759	5.172933	-2.100561	0.163008	1.087548	-0.384626	-0.277038	-0.031898	-0.851318	0.032959	-0.658936	0.096356	0.018842	0.051827	0.750751	0.243670	-0.505154	0.349024	2.046125	-68.214935	48.481555
27975		9.638451	1.766416	5.197117	-2.059043	0.068253	1.086195	-0.332756	-0.222682	-0.022357	-0.851563	0.035156	-0.659180	0.096329	0.017740	0.052049	0.750582	0.242861	-0.506614	0.347833	1.885656	-68.350876	48.447305
27976		9.711428	1.649930	5.236964	-1.998336	-0.018475	1.163021	-0.269989	-0.157318	-0.008551	-0.849365	0.039795	-0.650391	0.097074	0.016566	0.052424	0.750466	0.242142	-0.507737	0.346946	1.735505	-68.450198	48.442270
27977		10.103675	1.658242	5.324155	-1.980041	0.030231	1.556532	-0.191742	-0.124823	0.011849	-0.844971	0.041992	-0.648193	0.101003	0.016639	0.053289	0.750311	0.241603	-0.508624	0.346358	1.600567	-68.530702	48.467410
27978		10.688886	1.698991	5.441798	-1.956919	0.129841	2.141626	-0.118676	-0.114192	0.029598	-0.849609	0.046387	-0.653076	0.106855	0.017038	0.054469	0.750053	0.241279	-0.509367	0.346049	1.478600	-68.605919	48.525240
27979		11.006824	1.655431	5.578495	-1.943603	0.088140	2.484665	-0.082866	-0.077476	0.028727	-0.844971	0.039795	-0.648193	0.110044	0.016593	0.055821	0.749857	0.241023	-0.509907	0.345857	1.378624	-68.659483	48.579743
27980		10.703176	1.446200	5.573719	-1.864533	-0.125545	2.196624	-0.096833	-0.012493	0.013683	-0.845215	0.046387	-0.648682	0.107027	0.014496	0.055737	0.749858	0.240646	-0.510212	0.345667	1.288075	-68.676158	48.617240
27981		10.578899	1.189623	5.461314	-1.636715	-0.240469	2.037106	-0.110758	0.016650	-0.008015	-0.854248	0.046387	-0.641846	0.105794	0.011922	0.054598	0.749999	0.240216	-0.510403	0.345379	1.222535	-68.675262	48.617556
27982		11.256621	0.985984	5.268878	-1.207390	-0.048436	2.596366	-0.063982	-0.027951	-0.019591	-0.847412	0.044189	-0.646240	0.112560	0.009866	0.052701	0.749979	0.240074	-0.510668	0.345129	1.200017	-68.700359	48.602226
27983		11.648726	0.762521	4.960727	-0.759384	0.130107	2.847861	-0.008703	-0.007575	-0.048583	-0.852051	0.050781	-0.648682	0.116487	0.007599	0.049611	0.750005	0.240171	-0.510725	0.344920	1.253374	-68.712826	48.537656
27984		11.475693	0.535537	4.881050	-0.574877	-0.010651	2.656169	0.011906	0.046790	-0.081119	-0.849854	0.046387	-0.641846	0.114771	0.005306	0.048784	0.750191	0.240342	-0.510505	0.344723	1.362362	-68.694296	48.427851
27985		11.227537	0.204646	4.658561	-0.237069	-0.136611	2.341603	0.014588	0.068979	-0.119615	-0.847412	0.041992	-0.641602	0.112293	0.001976	0.046547	0.750507	0.240576	-0.510149	0.344399	1.530518	-68.661795	48.254345
27986		11.013020	-0.126643	4.250221	0.224721	-0.122593	1.989916	0.045863	0.083042	-0.151172	-0.842773	0.041992	-0.645996	0.110147	-0.001359	0.042456	0.750865	0.240990	-0.509650	0.344069	1.759426	-68.621117	48.036621
27987		10.629243	-0.402579	4.028235	0.495601	-0.252710	1.547771	0.094899	0.106681	-0.179403	-0.849609	0.044189	-0.641602	0.106310	-0.004140	0.040224	0.751282	0.241613	-0.508941	0.343770	2.057717	-68.565383	47.772668
27988		10.093906	-0.551302	3.762165	0.660789	-0.309379	0.948926	0.138650	0.130198	-0.175326	-0.847412	0.041992	-0.639404	0.100959	-0.005628	0.037552	0.751687	0.242355	-0.508076	0.343641	2.370113	-68.496386	47.522194
27989		9.532862	-0.648001	3.508149	0.773626	-0.345750	0.330506	0.172905	0.166799	-0.183094	-0.847168	0.037598	-0.641357	0.095352	-0.006598	0.034996	0.752167	0.243177	-0.507001	0.343599	2.711209	-68.405102	47.260041
27990		8.870465	-0.719870	3.148841	0.905424	-0.314871	-0.421226	0.207422	0.222620	-0.178557	-0.844727	0.035400	-0.647949	0.088733	-0.007310	0.031382	0.752726	0.244026	-0.505664	0.343743	3.056688	-68.282057	47.016043
27991		8.363706	-0.789793	3.005545	0.947015	-0.391401	-0.949363	0.248425	0.277024	-0.180141	-0.842529	0.033203	-0.649902	0.083671	-0.008011	0.029930	0.753383	0.244933	-0.504045	0.344035	3.422055	-68.126665	46.773943
27992		8.228463	-0.997943	2.892713	1.170667	-0.476340	-1.125120	0.287650	0.273006	-0.171246	-0.837891	0.031006	-0.647705	0.082315	-0.010091	0.028800	0.753953	0.245978	-0.502386	0.344469	3.791411	-67.973946	46.553261
27993		8.363041	-1.248882	2.812048	1.475838	-0.539207	-1.041208	0.324846	0.213048	-0.149316	-0.839844	0.024414	-0.647217	0.083651	-0.012597	0.028011	0.754295	0.247204	-0.500911	0.344989	4.155206	-67.855227	46.359661
27994		8.731562	-1.528443	2.907622	1.757085	-0.685595	-0.676324	0.346542	0.126541	-0.119347	-0.837646	0.026611	-0.649658	0.087325	-0.015387	0.028994	0.754330	0.248591	-0.499761	0.345582	4.494045	-67.787409	46.208015
27995		9.118671	-1.749723	3.165727	1.899668	-0.909500	-0.231583	0.338611	0.053059	-0.071504	-0.837402	0.019775	-0.646973	0.091189	-0.017583	0.031603	0.754116	0.249949	-0.498959	0.346229	4.770439	-67.762853	46.117219
27996		9.279205	-1.788683	3.450199	1.821748	-1.099825	0.019836	0.324189	0.003931	-0.014995	-0.839600	0.021973	-0.644775	0.092791	-0.017950	0.034471	0.753687	0.251202	-0.498438	0.347006	4.963354	-67.769565	46.109322
27997		9.338467	-1.703063	3.736779	1.614518	-1.241244	0.183489	0.308930	-0.029910	0.036197	-0.837402	0.020020	-0.644775	0.093382	-0.017071	0.037355	0.753111	0.252322	-0.498133	0.347880	5.081963	-67.797553	46.170664
27998		9.374140	-1.526862	3.990470	1.344698	-1.309713	0.316779	0.320840	-0.074425	0.080154	-0.832764	0.020020	-0.644775	0.093733	-0.015295	0.039915	0.752322	0.253460	-0.498030	0.348906	5.149649	-67.853830	46.295930
27999		9.589600	-1.345560	4.110957	1.189321	-1.231694	0.567070	0.356854	-0.114090	0.125973	-0.843994	0.015381	-0.646729	0.095881	-0.013469	0.041140	0.751315	0.254682	-0.498068	0.350130	5.180048	-67.934551	46.482123
28000		9.832145	-1.207536	4.135753	1.124585	-1.105340	0.805561	0.408946	-0.137671	0.167519	-0.839355	0.015381	-0.639893	0.098303	-0.012078	0.041401	0.750098	0.256042	-0.498155	0.351620	5.182266	-68.031491	46.732320
28001		9.995581	-1.064728	4.145660	1.040871	-0.987020	0.965724	0.446473	-0.138260	0.203869	-0.843750	0.010742	-0.644287	0.099938	-0.010638	0.041502	0.748771	0.257446	-0.498221	0.353325	5.154961	-68.130035	47.035862
28002		9.840739	-0.911391	4.232910	0.823723	-1.003450	0.859842	0.458601	-0.082278	0.228580	-0.843994	0.015381	-0.637695	0.098400	-0.009099	0.042349	0.747511	0.258739	-0.498086	0.355235	5.089219	-68.198390	47.389601
28003		9.297675	-0.827185	4.263904	0.598135	-1.121329	0.370472	0.410872	-0.000407	0.247600	-0.843750	0.010986	-0.635254	0.092987	-0.008244	0.042622	0.746487	0.259654	-0.497749	0.357189	4.959267	-68.220167	47.781488
28004		8.853619	-0.936979	4.104851	0.659694	-1.182983	-0.102917	0.386655	0.055150	0.280682	-0.834717	0.008789	-0.641846	0.088561	-0.009325	0.041006	0.745560	0.260300	-0.497290	0.359288	4.759540	-68.211989	48.234995
28005		8.529097	-1.137175	3.880974	0.859860	-1.213390	-0.491264	0.422797	0.071657	0.315735	-0.834961	0.015381	-0.642334	0.085323	-0.011319	0.038755	0.744599	0.260912	-0.496769	0.361549	4.530002	-68.194885	48.731228
28006		8.289019	-1.173925	3.834902	0.854102	-1.251480	-0.729919	0.480717	0.090029	0.347795	-0.834717	0.013184	-0.637695	0.082928	-0.011687	0.038284	0.743504	0.261675	-0.496091	0.364172	4.285474	-68.168412	49.291155
28007		8.063507	-1.058499	3.977964	0.627951	-1.335103	-0.880280	0.503314	0.114568	0.383057	-0.839355	0.015381	-0.637695	0.080678	-0.010530	0.039707	0.742410	0.262340	-0.495342	0.366934	4.003814	-68.127847	49.893797
28008		7.770729	-0.992759	3.989113	0.497909	-1.366893	-1.142827	0.487506	0.148334	0.427991	-0.837402	0.020020	-0.642578	0.077758	-0.009858	0.039809	0.741290	0.262818	-0.494530	0.369941	3.646470	-68.068991	50.579833
28009		7.499546	-0.888977	3.934743	0.377185	-1.318347	-1.408206	0.489886	0.192064	0.476093	-0.832764	0.017822	-0.642334	0.075054	-0.008807	0.039254	0.740217	0.263054	-0.493630	0.373109	3.223384	-67.984471	51.327249
28010		7.216393	-0.802512	3.893414	0.261577	-1.292730	-1.680075	0.540712	0.213317	0.501924	-0.828125	0.015625	-0.635498	0.072225	-0.007949	0.038836	0.739031	0.263418	-0.492562	0.376598	2.794654	-67.887018	52.123992
28011		7.003842	-0.619482	3.902557	0.059386	-1.231795	-1.866203	0.626654	0.222374	0.499640	-0.832520	0.013428	-0.642090	0.070097	-0.006142	0.038928	0.737789	0.264038	-0.491309	0.380219	2.424699	-67.781676	52.899718
28012		6.789239	-0.467792	3.948247	-0.132924	-1.223495	-2.041806	0.705800	0.215049	0.469164	-0.830566	0.020020	-0.642578	0.067946	-0.004658	0.039393	0.736427	0.265081	-0.489863	0.383982	2.146866	-67.678713	53.636780
28013		6.663385	-0.254025	4.051393	-0.383147	-1.204782	-2.113292	0.748850	0.186365	0.436660	-0.825928	0.013428	-0.644531	0.066677	-0.002546	0.040442	0.735028	0.266364	-0.488408	0.387610	1.946126	-67.589783	54.306381
28014		6.524911	-0.082341	4.116905	-0.580418	-1.193234	-2.212066	0.761877	0.144847	0.391963	-0.823486	0.013428	-0.642090	0.065281	-0.000852	0.041119	0.733541	0.267928	-0.486990	0.391118	1.818272	-67.523603	54.916856
28015		6.452799	0.118565	4.220699	-0.806797	-1.182969	-2.235312	0.744054	0.083843	0.344361	-0.825928	0.017822	-0.640137	0.064544	0.001140	0.042184	0.732052	0.269609	-0.485780	0.394245	1.751808	-67.490548	55.438780
28016		6.419941	0.284906	4.301690	-0.985257	-1.170153	-2.232361	0.702029	0.018918	0.293066	-0.827881	0.006836	-0.644043	0.064199	0.002792	0.043021	0.730508	0.271432	-0.484792	0.397062	1.733824	-67.494198	55.893490
28017		6.472168	0.389088	4.417261	-1.111467	-1.197276	-2.139116	0.636079	-0.029421	0.233250	-0.827881	0.009033	-0.639648	0.064711	0.003826	0.044194	0.729090	0.273205	-0.484046	0.399356	1.763997	-67.523923	56.243848
28018		6.502814	0.466345	4.471444	-1.189548	-1.202111	-2.090139	0.570863	-0.056781	0.166708	-0.825928	0.013428	-0.639893	0.065012	0.004590	0.044746	0.727777	0.275000	-0.483413	0.401283	1.848155	-67.568835	56.506544
28019		6.586898	0.558999	4.454152	-1.234501	-1.128276	-2.018962	0.508089	-0.074659	0.091627	-0.816650	0.006836	-0.644043	0.065850	0.005507	0.044580	0.726696	0.276734	-0.482885	0.402683	2.002645	-67.622147	56.642870
28020		6.761445	0.574878	4.377747	-1.164778	-1.021659	-1.887301	0.460722	-0.074098	-0.005917	-0.825195	0.000000	-0.634521	0.067598	0.005646	0.043816	0.725829	0.278576	-0.482291	0.403686	2.264369	-67.673864	56.645151
28021		6.872390	0.570438	4.215427	-1.046916	-0.879040	-1.846750	0.409022	-0.074826	-0.107816	-0.827637	0.002441	-0.630371	0.068711	0.005581	0.042191	0.725280	0.280430	-0.481682	0.404118	2.640989	-67.722880	56.479907
28022		6.997222	0.531870	4.109286	-0.919476	-0.795998	-1.772096	0.359851	-0.067132	-0.212639	-0.820557	-0.004150	-0.636719	0.069964	0.005170	0.041126	0.724981	0.282387	-0.480973	0.404135	3.135137	-67.764650	56.168604
28023		7.116808	0.461565	4.087069	-0.801661	-0.799771	-1.671204	0.301963	-0.086598	-0.294592	-0.822510	-0.013184	-0.629395	0.071157	0.004449	0.040908	0.724925	0.284323	-0.480356	0.403611	3.715705	-67.812993	55.716888
28024		7.485870	0.378618	4.261855	-0.709239	-0.894547	-1.266247	0.241148	-0.136418	-0.374936	-0.829102	-0.013428	-0.633789	0.074836	0.003594	0.042674	0.724950	0.286378	-0.479903	0.402652	4.380118	-67.885403	55.148556
28025		8.197670	0.293214	4.631418	-0.628617	-1.049200	-0.472365	0.170486	-0.194845	-0.438744	-0.826904	-0.013184	-0.627197	0.081938	0.002713	0.046396	0.725104	0.288399	-0.479734	0.401131	5.106707	-67.984870	54.458435
28026		9.181987	0.200803	5.165864	-0.554646	-1.267310	0.633432	0.102748	-0.208675	-0.482305	-0.824463	-0.020020	-0.633545	0.091770	0.001760	0.051755	0.725360	0.290351	-0.479661	0.399342	5.862769	-68.087217	53.706530
28027		10.220824	0.044308	5.612609	-0.366390	-1.439233	1.752895	0.056573	-0.169291	-0.493372	-0.815186	-0.024170	-0.626465	0.102161	0.000175	0.056213	0.725839	0.292035	-0.479542	0.397382	6.609874	-68.162034	52.924861
28028		10.858501	-0.095708	5.993583	-0.243011	-1.668750	2.475324	0.030315	-0.058919	-0.480067	-0.824219	-0.022217	-0.626465	0.108565	-0.001227	0.059968	0.726546	0.293417	-0.479068	0.395640	7.306272	-68.172097	52.193212
28029		10.957475	-0.267916	6.413288	-0.226985	-2.094349	2.710503	-0.005143	0.047065	-0.439751	-0.821777	-0.031006	-0.621582	0.109584	-0.002918	0.064107	0.727519	0.294316	-0.478358	0.394039	7.906182	-68.121204	51.532154
28030		10.823803	-0.319135	6.717302	-0.314754	-2.419561	2.694319	-0.036302	0.122554	-0.386929	-0.821777	-0.028809	-0.624023	0.108273	-0.003389	0.067107	0.728568	0.294873	-0.477489	0.392739	8.393789	-68.030242	50.983960
28031		10.930219	-0.451496	6.842880	-0.198148	-2.563633	2.831954	-0.080284	0.150736	-0.343995	-0.819336	-0.035400	-0.627930	0.109346	-0.004676	0.068348	0.729705	0.295063	-0.476687	0.391456	8.787163	-67.924635	50.498485
28032		11.446687	-0.696960	7.054734	0.069267	-2.712582	3.375135	-0.116529	0.152822	-0.313860	-0.821533	-0.035400	-0.625732	0.114510	-0.007108	0.070464	0.730795	0.295091	-0.475969	0.390274	9.112127	-67.820208	50.075457
28033		11.982401	-0.948067	7.367603	0.297529	-2.936844	3.972982	-0.136363	0.175403	-0.285744	-0.816895	-0.035400	-0.630371	0.119875	-0.009602	0.073577	0.731955	0.294888	-0.475270	0.389104	9.379474	-67.703956	49.690715
28034		12.304261	-1.079313	7.660705	0.383635	-3.135867	4.374108	-0.150598	0.267275	-0.264199	-0.812500	-0.037598	-0.632324	0.123130	-0.010898	0.076451	0.733266	0.294448	-0.474269	0.388188	9.583275	-67.538060	49.376848
28035		12.345062	-1.240605	7.880925	0.466412	-3.358584	4.489436	-0.193200	0.404945	-0.282521	-0.812500	-0.035400	-0.632568	0.123592	-0.012505	0.078571	0.735042	0.293581	-0.472840	0.387230	9.752512	-67.291398	49.062193
28036		12.257722	-1.269435	7.879415	0.517255	-3.353620	4.415228	-0.249784	0.558332	-0.290555	-0.810059	-0.039795	-0.636719	0.122778	-0.012774	0.078468	0.737228	0.292272	-0.470918	0.386404	9.858216	-66.957930	48.791981
28037		12.540056	-1.321708	8.323754	0.482603	-3.589186	4.855947	-0.267206	0.673281	-0.299738	-0.798828	-0.039551	-0.636963	0.125660	-0.013294	0.082833	0.739763	0.290648	-0.468608	0.385593	9.934922	-66.557617	48.530449
28038		13.098888	-1.026157	7.950702	0.620375	-2.897237	5.256081	-0.209970	0.687713	-0.259329	-0.789795	-0.039307	-0.645752	0.131248	-0.010348	0.079067	0.742116	0.289155	-0.466164	0.385154	9.982822	-66.153951	48.346677
28039		12.147719	-0.387433	6.749934	0.464223	-1.815957	3.962813	-0.092739	0.849329	-0.237370	-0.792236	-0.037109	-0.648193	0.121758	-0.003988	0.066985	0.744665	0.287685	-0.462941	0.385224	10.030663	-65.660294	48.224674
28040		10.861152	-0.074713	6.315735	0.132253	-1.619045	2.645994	-0.007302	0.921699	-0.235183	-0.780762	-0.041504	-0.656982	0.108900	-0.000873	0.062656	0.747196	0.286429	-0.459256	0.385669	10.104682	-65.126907	48.138505
28041		10.213046	-0.128543	5.178938	0.602759	-0.886184	1.588834	0.070090	0.879275	-0.223012	-0.776123	-0.043701	-0.663574	0.102355	-0.001418	0.051339	0.749523	0.285464	-0.455609	0.386195	10.214529	-64.617677	48.050167
28042		9.460306	0.052534	4.406504	0.661484	-0.361688	0.596365	0.110623	0.827933	-0.184270	-0.771484	-0.045898	-0.667969	0.094785	0.000414	0.043673	0.751543	0.284702	-0.452101	0.386952	10.308923	-64.142233	48.015618
28043		8.667042	0.432211	3.744346	0.471524	0.156215	-0.374606	0.046230	0.750168	-0.140449	-0.762451	-0.045654	-0.672607	0.086813	0.004253	0.037119	0.753426	0.283701	-0.449087	0.387537	10.331230	-63.714165	48.008935
28044		8.383877	0.874478	3.161364	0.325422	0.803098	-0.851820	-0.085472	0.679981	-0.107466	-0.762695	-0.041260	-0.677246	0.083950	0.008713	0.031325	0.755221	0.282307	-0.446612	0.387920	10.255070	-63.329982	48.039150
28045		8.357211	1.312739	2.619388	0.230411	1.496046	-1.087095	-0.175432	0.606355	-0.076714	-0.755859	-0.041016	-0.684082	0.083656	0.013118	0.025929	0.756954	0.280600	-0.444649	0.388035	10.110293	-62.989477	48.077433
28046		8.586539	1.831718	2.280607	0.046122	2.157598	-1.002043	-0.198552	0.503602	-0.047971	-0.755615	-0.045654	-0.679199	0.085927	0.018319	0.022572	0.758387	0.278983	-0.443136	0.388135	9.942460	-62.710684	48.138039
28047		8.937612	2.234416	2.127538	-0.091324	2.648660	-0.736561	-0.145650	0.382017	-0.051754	-0.744385	-0.045410	-0.679443	0.089422	0.022336	0.021088	0.759522	0.277766	-0.441993	0.388091	9.834609	-62.499173	48.154201
28048		9.313026	2.455987	2.260301	-0.202009	2.821638	-0.332668	-0.078595	0.271578	-0.090281	-0.749023	-0.045410	-0.683838	0.093172	0.024527	0.022467	0.760349	0.277146	-0.441065	0.387970	9.827499	-62.347136	48.111260
28049		9.413300	2.392720	2.673610	-0.287018	2.520290	-0.063368	-0.045114	0.174674	-0.141040	-0.749268	-0.041016	-0.684082	0.094173	0.023867	0.026648	0.761057	0.276909	-0.440390	0.387518	9.912526	-62.243922	47.974694
28050		9.354089	2.136230	3.466958	-0.435329	1.759634	0.227054	-0.054034	0.095436	-0.171989	-0.744873	-0.038574	-0.682129	0.093576	0.021291	0.034619	0.761619	0.276904	-0.439969	0.386895	10.039101	-62.183122	47.796467
28051		9.336139	1.844420	4.240643	-0.535715	1.001627	0.543864	-0.068866	0.001909	-0.188833	-0.744873	-0.038574	-0.690918	0.093379	0.018371	0.042399	0.762070	0.277016	-0.439931	0.385969	10.193211	-62.172317	47.566248
28052		9.518979	1.565707	4.445587	-0.329228	0.745527	0.777942	-0.058504	-0.064971	-0.193343	-0.746826	-0.041016	-0.681885	0.095190	0.015578	0.044482	0.762325	0.277350	-0.440100	0.385032	10.370337	-62.199321	47.327926
28053		9.734747	1.401152	4.397956	-0.092916	0.750625	0.934333	-0.012727	-0.072860	-0.187756	-0.744385	-0.045410	-0.679443	0.097345	0.013923	0.044014	0.762530	0.277817	-0.440239	0.384129	10.570437	-62.230128	47.082140
28054		9.927846	1.406878	4.466740	-0.058553	0.751513	1.138339	0.009870	-0.063581	-0.167535	-0.746826	-0.045410	-0.679443	0.099276	0.013983	0.044700	0.762642	0.278352	-0.440306	0.383442	10.759705	-62.258341	46.874493
28055		9.972724	1.345937	4.589297	-0.042017	0.625154	1.229768	-0.007815	-0.068682	-0.140234	-0.746826	-0.043213	-0.681641	0.099721	0.013391	0.045927	0.762757	0.278725	-0.440485	0.382736	10.911797	-62.291225	46.686248
28056		9.741078	1.110417	4.494421	0.126395	0.477091	0.961256	-0.062095	-0.067773	-0.105667	-0.742432	-0.038574	-0.684326	0.097401	0.011067	0.044974	0.762841	0.278856	-0.440792	0.382120	10.995165	-62.328045	46.551756
28057		9.380926	0.764284	4.129119	0.465358	0.434850	0.445474	-0.114166	-0.057301	-0.072375	-0.742188	-0.045166	-0.677246	0.093800	0.007632	0.041314	0.762965	0.278691	-0.441201	0.381521	11.011772	-62.361715	46.457790
28058		8.898117	0.504925	3.728018	0.705070	0.430761	-0.187363	-0.143031	-0.050685	-0.002946	-0.744873	-0.038574	-0.673096	0.088972	0.005075	0.037299	0.763002	0.278254	-0.441739	0.381142	10.935159	-62.400104	46.451604
28059		8.321925	0.426020	3.452313	0.701025	0.403939	-0.829382	-0.191838	-0.075557	0.101660	-0.746826	-0.045410	-0.668213	0.083204	0.004336	0.034550	0.762861	0.277442	-0.442608	0.381009	10.723530	-62.462924	46.564994
28060		7.757438	0.446033	3.435856	0.489555	0.242944	-1.334295	-0.285937	-0.108860	0.221515	-0.738037	-0.036133	-0.673096	0.077551	0.004595	0.034394	0.762537	0.276074	-0.443951	0.381088	10.333203	-62.557604	46.820159
28061		7.256435	0.345147	3.560140	0.324935	-0.068694	-1.729422	-0.385274	-0.163516	0.262297	-0.740479	-0.033936	-0.666504	0.072531	0.003615	0.035654	0.762190	0.274295	-0.445766	0.380948	9.850425	-62.685489	47.103913
28062		7.078811	-0.048103	3.725154	0.482595	-0.470017	-1.841818	-0.383148	-0.213673	0.157094	-0.742920	-0.029541	-0.666748	0.070749	-0.000354	0.037328	0.761882	0.272897	-0.447601	0.380417	9.489522	-62.831394	47.262765
28063		6.979723	-0.412397	3.797382	0.692655	-0.765527	-1.923398	-0.278701	-0.155673	0.010427	-0.740723	-0.027344	-0.662598	0.069768	-0.004067	0.038034	0.761878	0.272069	-0.448834	0.379563	9.338458	-62.929627	47.241766
28064		6.692512	-0.645615	3.766579	0.799890	-0.972948	-2.209583	-0.175414	-0.001776	-0.083311	-0.749756	-0.027588	-0.666992	0.066922	-0.006451	0.037672	0.762215	0.271596	-0.449136	0.378868	9.321286	-62.932966	47.148021
28065		6.251075	-0.880485	3.731264	0.875226	-1.225166	-2.635887	-0.083699	0.132804	-0.124547	-0.742920	-0.029541	-0.669189	0.062530	-0.008828	0.037275	0.762847	0.271266	-0.448716	0.378329	9.378307	-62.855548	47.018805
28066		5.935026	-1.068920	3.744526	0.934813	-1.441654	-2.925283	0.017235	0.206276	-0.089773	-0.742920	-0.027344	-0.671387	0.059384	-0.010719	0.037383	0.763400	0.271148	-0.447851	0.378324	9.440238	-62.740621	46.960116
28067		5.582102	-1.196933	3.619535	1.000312	-1.528034	-3.304384	0.102324	0.249040	0.033559	-0.740967	-0.025146	-0.673828	0.055868	-0.011978	0.036120	0.763740	0.270954	-0.446848	0.378962	9.408533	-62.612262	47.050539
28068		5.333077	-1.129719	3.544966	0.911383	-1.502776	-3.552035	0.171918	0.253329	0.180568	-0.736328	-0.025146	-0.669434	0.053386	-0.011279	0.035372	0.763674	0.270732	-0.445875	0.380397	9.256140	-62.495885	47.333095
28069		5.153874	-0.930387	3.440515	0.745112	-1.355320	-3.740367	0.224692	0.219338	0.310596	-0.736572	-0.022949	-0.674072	0.051591	-0.009262	0.034338	0.763251	0.270441	-0.445126	0.382324	9.001343	-62.409268	47.754460
28070		5.024754	-0.766576	3.236293	0.665433	-1.136656	-3.932673	0.268230	0.154715	0.411145	-0.731934	-0.024902	-0.673828	0.050288	-0.007606	0.032314	0.762388	0.270259	-0.444654	0.384717	8.674835	-62.367901	48.296209
28071		4.986200	-0.549742	3.195368	0.487799	-0.983318	-3.967185	0.333425	0.085077	0.477908	-0.734131	-0.022705	-0.669678	0.049889	-0.005431	0.031923	0.761190	0.270264	-0.444428	0.387338	8.326112	-62.369343	48.894279
28072		4.929205	-0.333261	3.175611	0.291231	-0.857503	-4.009888	0.416221	0.006151	0.525145	-0.734375	-0.020508	-0.665283	0.049302	-0.003269	0.031748	0.759564	0.270674	-0.444382	0.390287	7.984709	-62.418514	49.548494
28073		4.954162	-0.109490	3.286061	0.049659	-0.804133	-3.921609	0.495955	-0.077620	0.554264	-0.734375	-0.018311	-0.669922	0.049532	-0.001039	0.032877	0.757619	0.271438	-0.444551	0.393331	7.668054	-62.514937	50.214901
28074		5.040517	0.165070	3.369119	-0.206709	-0.688443	-3.790369	0.544717	-0.158102	0.559066	-0.729980	-0.018311	-0.665283	0.050374	0.001700	0.033736	0.755366	0.272575	-0.444910	0.396460	7.381119	-62.656614	50.889554
28075		5.222355	0.322601	3.663571	-0.437088	-0.771279	-3.487115	0.566433	-0.229405	0.556110	-0.739014	-0.018311	-0.669922	0.052172	0.003267	0.036705	0.752960	0.273892	-0.445504	0.399450	7.115038	-62.836271	51.542796
28076		5.638660	0.446674	3.944821	-0.569586	-0.786419	-2.985339	0.587602	-0.303229	0.538425	-0.734131	-0.022705	-0.662842	0.056315	0.004502	0.039547	0.750341	0.275515	-0.446280	0.402385	6.883652	-63.056185	52.180485
28077		6.272603	0.603912	4.238944	-0.681034	-0.724298	-2.283384	0.607523	-0.354403	0.532305	-0.738770	-0.020508	-0.654053	0.062635	0.006077	0.042519	0.747621	0.277280	-0.447212	0.405191	6.670613	-63.302835	52.798114
28078		6.999083	0.732979	4.532411	-0.750673	-0.650517	-1.501227	0.624788	-0.368707	0.545223	-0.734619	-0.013672	-0.656738	0.069887	0.007378	0.045476	0.744760	0.279148	-0.448152	0.408128	6.445945	-63.558226	53.449396
28079		8.019496	0.984270	4.984642	-0.925908	-0.539663	-0.379817	0.674387	-0.372585	0.568587	-0.738770	-0.022705	-0.649414	0.080074	0.009902	0.050029	0.741802	0.281106	-0.449047	0.411177	6.215368	-63.815293	54.126546
28080		9.503002	1.234591	5.379416	-0.967921	-0.227038	1.131751	0.747477	-0.349298	0.607854	-0.743408	-0.020508	-0.651611	0.094898	0.012433	0.054006	0.738649	0.283236	-0.449729	0.414630	5.968257	-64.061056	54.878215
28081		10.675554	1.648258	5.894805	-1.294631	-0.041607	2.424753	0.793459	-0.220412	0.635593	-0.745850	-0.016113	-0.647461	0.106638	0.016587	0.059131	0.735689	0.285154	-0.449888	0.418389	5.691579	-64.232602	55.679694
28082		11.493866	2.702078	6.651384	-2.380447	0.141216	3.527642	0.659236	-0.099457	0.696725	-0.743652	-0.013916	-0.647705	0.114811	0.027201	0.066660	0.733001	0.286225	-0.449938	0.422304	5.244333	-64.337108	56.595176
28083		11.699611	3.495234	7.015180	-3.235140	0.297969	3.889688	0.447975	-0.001174	0.718062	-0.741211	-0.016113	-0.645264	0.116870	0.035215	0.070231	0.730785	0.286254	-0.450091	0.425946	4.636756	-64.382043	57.552640
28084		11.422800	3.510608	7.406228	-3.528820	-0.100832	3.795913	0.321540	0.096559	0.620144	-0.739014	-0.016113	-0.640869	0.114154	0.035341	0.074064	0.729158	0.285835	-0.450012	0.429087	4.062133	-64.363459	58.394127
28085		11.743433	3.350079	7.746319	-3.494606	-0.317058	4.216704	0.265015	0.078405	0.462836	-0.741455	-0.011719	-0.647705	0.117387	0.033670	0.077462	0.727948	0.285556	-0.449913	0.431425	3.645983	-64.345175	59.012931
28086		12.280162	3.094258	7.887799	-3.232162	-0.336447	4.748703	0.204356	0.132496	0.309845	-0.739258	-0.013916	-0.643066	0.122806	0.031052	0.078828	0.727226	0.285325	-0.449506	0.433217	3.373135	-64.289823	59.445452
28087		12.281672	2.477730	7.737017	-2.630024	-0.472270	4.668329	0.173520	0.295302	0.197059	-0.734863	-0.007080	-0.647949	0.122906	0.024831	0.077210	0.727203	0.284839	-0.448432	0.434686	3.208569	-64.136020	59.727305
28088		12.285154	2.069236	7.839337	-2.293490	-0.699359	4.710139	0.217068	0.421011	0.132280	-0.732666	-0.009277	-0.650146	0.123003	0.020689	0.078157	0.727489	0.284425	-0.446690	0.436268	3.138462	-63.908883	59.943481
28089		13.408121	1.805412	8.614954	-2.092635	-0.963721	6.060131	0.261267	0.466412	0.103368	-0.728027	-0.011475	-0.656738	0.134272	0.018011	0.085860	0.727921	0.284092	-0.444664	0.437832	3.128079	-63.653879	60.110541
28090		15.014148	1.317243	8.998401	-1.416589	-0.812824	7.664812	0.235723	0.503157	0.099178	-0.723389	-0.015869	-0.654297	0.150361	0.013141	0.089621	0.728426	0.283637	-0.442530	0.439446	3.106266	-63.378622	60.285646
28091		15.016621	0.697551	8.495882	-0.620071	-0.606185	7.432965	0.180863	0.645024	0.092961	-0.716797	-0.011230	-0.661377	0.150436	0.006969	0.084480	0.729379	0.282638	-0.440007	0.441039	3.055251	-63.021013	60.447495
28092		13.605881	0.434500	7.759464	-0.362148	-0.592344	5.840902	0.116955	0.764131	0.063453	-0.718750	-0.013428	-0.665771	0.136353	0.004343	0.077077	0.730691	0.281249	-0.437123	0.442621	2.995409	-62.595232	60.589947
28093		12.286411	0.351040	6.542004	-0.061784	-0.089695	4.110824	0.071035	0.754292	0.017800	-0.707520	-0.013428	-0.672607	0.123109	0.003498	0.064957	0.732187	0.279766	-0.434327	0.443841	2.963996	-62.172715	60.659938
28094		11.297263	0.026757	5.225371	0.556126	0.491659	2.612357	0.054772	0.700366	-0.018269	-0.698730	-0.010986	-0.670410	0.113155	0.000243	0.051858	0.733609	0.278461	-0.431687	0.444886	2.965183	-61.780930	60.693982
28095		10.609275	-0.565471	4.381385	1.290428	0.678136	1.586764	0.079620	0.627828	-0.030593	-0.703125	-0.010986	-0.681641	0.106229	-0.005688	0.043478	0.734909	0.277390	-0.429256	0.445760	2.999177	-61.429339	60.695822
28096		10.039979	-1.215410	3.798085	1.996522	0.666315	0.783229	0.129036	0.585446	-0.031655	-0.696045	-0.017578	-0.676758	0.100508	-0.012194	0.037679	0.735996	0.276638	-0.426846	0.446748	3.063281	-61.102918	60.706867
28097		9.473460	-1.734861	3.441904	2.495001	0.526816	0.091858	0.147498	0.586432	-0.010166	-0.694092	-0.013184	-0.681641	0.094834	-0.017379	0.034128	0.737055	0.275861	-0.424437	0.447777	3.116528	-60.775679	60.731308
28098		9.067164	-2.116276	3.323300	2.811600	0.327616	-0.340428	0.139539	0.579612	0.046957	-0.682617	-0.019531	-0.681152	0.090772	-0.021165	0.032955	0.737926	0.274989	-0.422126	0.449061	3.106547	-60.455049	60.834353
28099		8.858417	-2.186926	3.594763	2.743466	0.043714	-0.397394	0.154210	0.526985	0.134534	-0.680420	-0.019531	-0.687988	0.088693	-0.021837	0.035697	0.738513	0.274060	-0.420113	0.450549	3.022603	-60.166276	61.021441
28100		8.581586	-1.966461	4.029218	2.329664	-0.270698	-0.418839	0.182799	0.438990	0.224350	-0.673584	-0.017090	-0.694824	0.085926	-0.019605	0.040086	0.738620	0.273287	-0.418460	0.452379	2.872078	-59.931192	61.315881
28101		8.311142	-1.559520	4.400029	1.768146	-0.456457	-0.456802	0.204826	0.374055	0.278874	-0.669434	-0.012695	-0.695068	0.083215	-0.015524	0.043829	0.738481	0.272585	-0.417089	0.454291	2.688024	-59.733486	61.653338
28102		8.302073	-1.162413	4.676185	1.309227	-0.464501	-0.314667	0.199804	0.296286	0.281408	-0.673828	-0.012695	-0.692871	0.083106	-0.011554	0.046627	0.738128	0.272075	-0.415998	0.456167	2.504228	-59.580665	61.998791
28103		8.335637	-0.832960	4.726829	1.000662	-0.315059	-0.251362	0.197744	0.229453	0.278053	-0.669434	-0.012695	-0.695068	0.083422	-0.008260	0.047164	0.737692	0.271675	-0.415171	0.457860	2.328657	-59.464618	62.322852
28104		8.165834	-0.528695	4.594790	0.730515	-0.132375	-0.457408	0.207791	0.180591	0.269015	-0.671387	-0.017090	-0.694824	0.081707	-0.005225	0.045869	0.737110	0.271482	-0.414469	0.459546	2.170219	-59.376703	62.645005
28105		7.965623	-0.472465	4.597574	0.626790	-0.184212	-0.626543	0.216910	0.091838	0.245820	-0.669189	-0.017090	-0.694824	0.079683	-0.004677	0.045934	0.736391	0.271570	-0.414035	0.461035	2.044615	-59.337862	62.934358
28106		7.919958	-0.536360	4.396840	0.738480	-0.068967	-0.768601	0.244520	-0.041719	0.235244	-0.669189	-0.017090	-0.692627	0.079197	-0.005324	0.043978	0.735371	0.272093	-0.414018	0.462367	1.948717	-59.375847	63.208494
28107		7.763919	-0.616338	4.126645	0.862292	0.034314	-1.040984	0.309124	-0.133954	0.223081	-0.671631	-0.012695	-0.690674	0.077618	-0.006141	0.041309	0.734107	0.273086	-0.414168	0.463654	1.904907	-59.465405	63.464044
28108		7.361266	-0.689992	3.753537	0.962167	0.104424	-1.577598	0.407065	-0.164709	0.218145	-0.666992	-0.017090	-0.694824	0.073589	-0.006896	0.037582	0.732645	0.274524	-0.414199	0.465089	1.921145	-59.573288	63.715668
28109		6.887042	-0.781104	3.414201	1.053394	0.107945	-2.159130	0.504887	-0.184931	0.211757	-0.669189	-0.017090	-0.692627	0.068847	-0.007824	0.034186	0.731024	0.276373	-0.414061	0.466664	2.000469	-59.691904	63.957973
28110		6.418543	-0.917673	3.167615	1.157844	0.022126	-2.690012	0.598095	-0.238053	0.210793	-0.675781	-0.019531	-0.687988	0.064157	-0.009204	0.031725	0.729150	0.278691	-0.413899	0.468357	2.134324	-59.841975	64.199510
28111		6.114680	-1.067303	3.136235	1.238349	-0.165877	-2.971388	0.664400	-0.311797	0.228357	-0.673340	-0.026123	-0.685303	0.061110	-0.010708	0.031422	0.726990	0.281379	-0.413865	0.470136	2.291768	-60.034149	64.456429
28112		5.982247	-0.958355	3.203926	1.085367	-0.253713	-3.050406	0.658299	-0.359606	0.263953	-0.671143	-0.025879	-0.678711	0.059777	-0.009610	0.032115	0.724635	0.284083	-0.414066	0.471964	2.410172	-60.255656	64.754636
28113		5.945125	-0.603414	3.270019	0.725261	-0.202829	-3.042571	0.599036	-0.329711	0.272543	-0.677734	-0.028320	-0.678467	0.059405	-0.006051	0.032780	0.722403	0.286476	-0.414301	0.473729	2.484025	-60.459703	65.063592
28114		5.815298	-0.311939	3.214703	0.444547	-0.120583	-3.176639	0.599257	-0.233085	0.238238	-0.675537	-0.028320	-0.678467	0.058119	-0.003147	0.032205	0.720435	0.288712	-0.414136	0.475510	2.586119	-60.608613	65.340525
28115		5.733463	-0.006175	3.182165	0.158135	-0.028899	-3.257312	0.722156	-0.151156	0.199610	-0.675049	-0.034912	-0.675781	0.057311	-0.000120	0.031865	0.718550	0.291268	-0.413319	0.477511	2.794445	-60.709165	65.575242
28116		6.005979	0.621682	3.443097	-0.443900	0.097191	-2.876792	0.833670	-0.159276	0.199895	-0.681641	-0.039551	-0.673340	0.060026	0.006133	0.034504	0.716464	0.294243	-0.412262	0.479731	3.065765	-60.815653	65.811542
28117		6.290361	1.191152	3.644857	-0.973711	0.243645	-2.514404	0.763455	-0.179057	0.256700	-0.681641	-0.041748	-0.670898	0.062856	0.011853	0.036550	0.714299	0.296887	-0.411516	0.481964	3.240376	-60.934902	66.111444
28118		6.022632	1.189464	3.663481	-1.028140	0.088331	-2.738570	0.623165	-0.054961	0.234931	-0.678711	-0.055176	-0.678955	0.060202	0.011851	0.036688	0.712632	0.298775	-0.410631	0.484016	3.348356	-60.983606	66.396166
28119		5.455110	0.964482	3.555777	-0.889183	-0.164766	-3.292397	0.546406	0.076988	0.126195	-0.681396	-0.048340	-0.668213	0.054559	0.009582	0.035563	0.711616	0.300287	-0.409290	0.485707	3.517365	-60.952654	66.559955
28120		5.055520	0.726546	3.452992	-0.700323	-0.346320	-3.697224	0.523155	0.073218	0.017952	-0.674316	-0.057129	-0.667725	0.050567	0.007180	0.034530	0.710876	0.301949	-0.407859	0.486964	3.783650	-60.921009	66.598071
28121		5.062270	0.628737	3.643637	-0.646102	-0.544399	-3.601076	0.486173	-0.074733	-0.043077	-0.678467	-0.061768	-0.669678	0.050610	0.006188	0.036470	0.710042	0.303958	-0.406944	0.487694	4.102754	-60.970821	66.550703
28122		5.460947	0.529789	3.853039	-0.522229	-0.594851	-3.155219	0.427493	-0.292313	-0.055110	-0.676025	-0.066162	-0.665039	0.054555	0.005200	0.038621	0.708871	0.306316	-0.406928	0.487936	4.417081	-61.145120	66.471246
28123		6.236555	0.469874	4.096070	-0.376542	-0.506725	-2.363224	0.358922	-0.434126	-0.050296	-0.683105	-0.061768	-0.660645	0.062278	0.004609	0.041104	0.707508	0.308761	-0.407582	0.487827	4.702210	-61.399615	66.379612
28124		7.044594	0.334176	4.332086	-0.155052	-0.435056	-1.548820	0.300343	-0.448896	-0.066679	-0.680908	-0.061768	-0.660645	0.070350	0.003253	0.043484	0.706231	0.311069	-0.408407	0.487521	4.974438	-61.662353	66.265530
28125		7.713612	0.210593	4.675638	0.000416	-0.512771	-0.804763	0.268263	-0.343109	-0.094791	-0.685059	-0.068604	-0.655762	0.077057	0.002007	0.046891	0.705293	0.313058	-0.408886	0.487205	5.252472	-61.862196	66.123402
28126		8.312640	0.157713	5.132697	0.050111	-0.689270	-0.066316	0.238692	-0.229529	-0.120871	-0.687012	-0.072998	-0.657715	0.083068	0.001466	0.051424	0.704684	0.314722	-0.408998	0.486919	5.531636	-61.996347	65.961851
28127		8.928309	0.131768	5.434469	0.125231	-0.714435	0.615129	0.202917	-0.146074	-0.145838	-0.682617	-0.072998	-0.653320	0.089244	0.001197	0.054411	0.704371	0.316102	-0.408859	0.486595	5.811141	-62.080292	65.776034
28128		9.548977	0.051662	5.625097	0.287490	-0.655165	1.246942	0.160644	-0.042708	-0.171476	-0.684814	-0.075195	-0.650879	0.095478	0.000390	0.056272	0.704388	0.317138	-0.408421	0.486264	6.082524	-62.104233	65.572929
28129		10.044697	0.119341	6.026312	0.233931	-0.770016	1.874012	0.106851	0.035852	-0.168876	-0.680176	-0.077393	-0.657471	0.100459	0.001076	0.060246	0.704652	0.317784	-0.407837	0.485950	6.312327	-62.082318	65.381172
28130		10.412634	-0.046771	6.591249	0.333813	-1.149659	2.452569	0.066074	0.030903	-0.178272	-0.682373	-0.077393	-0.653076	0.104136	-0.000582	0.065896	0.704985	0.318321	-0.407359	0.485517	6.528147	-62.063126	65.179590
28131		10.915984	-0.733690	6.929721	1.018473	-1.452488	3.015833	0.049445	0.035475	-0.291098	-0.679932	-0.083984	-0.652588	0.109161	-0.007513	0.069276	0.705635	0.319014	-0.406720	0.484653	6.855462	-62.032484	64.840141
28132		11.131796	-0.860874	7.059712	1.183654	-1.513741	3.256548	0.044727	0.168136	-0.309126	-0.675293	-0.086182	-0.654785	0.111364	-0.008797	0.070502	0.706595	0.319409	-0.405599	0.483933	7.179736	-61.925107	64.501673
28133		11.170290	-0.580406	7.457512	0.855443	-1.730085	3.491510	-0.048308	0.198331	-0.217573	-0.675293	-0.086182	-0.659180	0.111770	-0.005908	0.074466	0.707551	0.319211	-0.404737	0.483388	7.347884	-61.805633	64.278664
28134		12.055240	-0.528478	8.023697	0.858755	-1.799364	4.540451	-0.137448	0.138714	-0.179784	-0.673096	-0.086182	-0.656982	0.120603	-0.005338	0.080157	0.708427	0.318769	-0.404366	0.482707	7.430980	-61.723476	64.094794
28135		12.645445	-0.580788	8.226611	0.991753	-1.715577	5.153769	-0.200338	0.236797	-0.186182	-0.670654	-0.086182	-0.659180	0.126546	-0.005843	0.082122	0.709623	0.317876	-0.403783	0.482026	7.471145	-61.584117	63.917822
28136		12.087512	-0.490345	8.221007	0.808701	-1.875930	4.670402	-0.287660	0.450334	-0.185596	-0.663818	-0.088135	-0.666016	0.121055	-0.004898	0.081945	0.711376	0.316159	-0.402657	0.481513	7.429442	-61.324398	63.777507
28137		11.532988	-0.280789	8.287036	0.495498	-2.026535	4.237599	-0.417578	0.651462	-0.205965	-0.661865	-0.081543	-0.668457	0.115596	-0.002754	0.082500	0.713789	0.313529	-0.401086	0.480973	7.307245	-60.948059	63.642968
28138		12.320262	-0.145671	8.905641	0.393787	-2.054877	5.245261	-0.496997	0.767402	-0.258059	-0.655029	-0.085938	-0.668457	0.123541	-0.001395	0.088586	0.716662	0.310440	-0.399209	0.480266	7.176257	-60.503135	63.466519
28139		13.928131	0.135165	8.378097	0.664398	-0.701260	6.412884	-0.470348	0.748231	-0.305304	-0.650635	-0.081299	-0.682129	0.139595	0.001335	0.083256	0.719561	0.307576	-0.397248	0.479398	7.109209	-60.064929	63.232574
28140		12.452906	0.444320	6.666823	0.568990	0.274381	4.305324	-0.352391	0.938140	-0.309916	-0.639160	-0.087891	-0.677246	0.124847	0.004367	0.066075	0.722643	0.304687	-0.394311	0.479033	7.087156	-59.519474	63.024295
28141		10.392951	0.978966	6.407682	-0.276025	-0.144273	2.431987	-0.229380	0.922451	-0.263720	-0.632568	-0.083252	-0.690918	0.104236	0.009725	0.063585	0.725385	0.302176	-0.391191	0.479037	7.090167	-58.985261	62.867040
28142		9.467851	1.111794	5.240052	-0.244241	0.519894	1.050266	-0.167246	0.834311	-0.241557	-0.632324	-0.089844	-0.690674	0.094909	0.011047	0.051996	0.727784	0.300058	-0.388272	0.479104	7.114870	-58.503674	62.725881
28143		8.511624	1.391797	4.437844	-0.470188	0.900199	-0.166582	-0.173629	0.781076	-0.212862	-0.628174	-0.083252	-0.697754	0.085303	0.013866	0.044033	0.730016	0.297978	-0.385593	0.479170	7.113834	-58.053411	62.609312
28144		8.098783	2.060724	3.937539	-1.022277	1.414409	-0.741021	-0.240869	0.650004	-0.176686	-0.619141	-0.083008	-0.700195	0.081133	0.020583	0.039087	0.731991	0.295897	-0.383607	0.479041	7.054547	-57.681226	62.516182
28145		8.679308	2.898992	3.561957	-1.528168	2.348978	-0.401585	-0.320519	0.452899	-0.194675	-0.614746	-0.080811	-0.702393	0.086902	0.028962	0.035376	0.733748	0.294023	-0.382497	0.478392	6.987676	-57.418970	62.376950
28146		9.745582	3.537230	3.435428	-1.793254	3.234571	0.464090	-0.391587	0.265502	-0.279224	-0.609863	-0.087402	-0.704346	0.097551	0.035303	0.034156	0.735441	0.292501	-0.382123	0.477023	6.974226	-57.258405	62.126252
28147		10.359771	3.673296	3.695359	-1.805611	3.403198	1.124929	-0.434787	0.177954	-0.391555	-0.609863	-0.087402	-0.706543	0.103702	0.036610	0.036782	0.737300	0.291237	-0.382002	0.475020	7.044035	-57.138781	61.745930
28148		10.172153	3.303744	4.028552	-1.568524	2.935244	1.120771	-0.446746	0.190026	-0.487638	-0.610107	-0.083008	-0.709229	0.101840	0.032879	0.040115	0.739411	0.290085	-0.381726	0.472659	7.187495	-57.006016	61.269887
28149		9.710597	2.775399	4.595243	-1.324260	2.086257	1.004357	-0.397009	0.182002	-0.524969	-0.603516	-0.078369	-0.711670	0.097220	0.027590	0.045809	0.741524	0.289200	-0.381298	0.470232	7.391030	-56.873421	60.754665
28150		9.399709	2.418621	5.190142	-1.213078	1.345226	1.043669	-0.353907	0.119044	-0.548116	-0.605713	-0.080566	-0.718262	0.094094	0.024020	0.051803	0.743492	0.288668	-0.380970	0.467711	7.643165	-56.774633	60.210992
28151		9.346506	2.223659	5.329228	-1.052532	1.139403	1.063724	-0.352926	0.035360	-0.551312	-0.605469	-0.087402	-0.713379	0.093535	0.022073	0.053237	0.745307	0.288334	-0.380937	0.465047	7.907280	-56.720880	59.652363
28152		9.578832	2.200265	5.282772	-0.919365	1.273286	1.234316	-0.342145	-0.044581	-0.527900	-0.603271	-0.082764	-0.718018	0.095834	0.021840	0.052812	0.746884	0.288182	-0.381212	0.462378	8.165421	-56.713850	59.108902
28153		9.650676	2.191550	5.147995	-0.819879	1.400603	1.223902	-0.314708	-0.061919	-0.491466	-0.601074	-0.082764	-0.711426	0.096544	0.021759	0.051476	0.748306	0.288097	-0.381532	0.459860	8.410698	-56.717466	58.598764
28154		9.155789	2.127282	4.992482	-0.828376	1.257484	0.723496	-0.316273	-0.014709	-0.444298	-0.607422	-0.093994	-0.712891	0.091601	0.021148	0.049898	0.749697	0.287810	-0.381749	0.457588	8.607396	-56.698136	58.146484
28155		8.206966	1.979431	4.555677	-0.813337	1.094528	-0.317052	-0.372219	0.010353	-0.387878	-0.596680	-0.082764	-0.709229	0.082110	0.019720	0.045516	0.751091	0.287142	-0.382074	0.455446	8.720499	-56.667932	57.754864
28156		7.118574	1.720238	3.982281	-0.706822	0.931847	-1.558965	-0.477773	0.019943	-0.332864	-0.596680	-0.082764	-0.709229	0.071218	0.017179	0.039775	0.752515	0.285952	-0.382684	0.453327	8.723286	-56.637737	57.423658
28157		6.281107	1.428064	3.481427	-0.529373	0.817329	-2.555709	-0.612361	-0.001018	-0.273920	-0.598877	-0.078369	-0.713867	0.062830	0.014301	0.034771	0.753960	0.284183	-0.383754	0.451129	8.601657	-56.623817	57.148096
28158		5.647773	1.271411	3.097716	-0.458555	0.764737	-3.307723	-0.754558	-0.025613	-0.211027	-0.599121	-0.075928	-0.714111	0.056487	0.012771	0.030936	0.755398	0.281814	-0.385326	0.448863	8.346802	-56.630513	56.935407
28159		5.168700	1.107351	2.936056	-0.413124	0.608657	-3.810942	-0.889425	-0.057100	-0.174950	-0.601318	-0.073975	-0.716553	0.051688	0.011159	0.029326	0.756880	0.278927	-0.387359	0.446413	7.988388	-56.657760	56.753302
28160		4.777389	0.954241	2.891801	-0.395248	0.406494	-4.175751	-1.004754	-0.098572	-0.186510	-0.599854	-0.060303	-0.712646	0.047769	0.009643	0.028893	0.758442	0.275716	-0.389786	0.443636	7.577864	-56.709187	56.555490
28161		4.595421	0.765363	2.951611	-0.320913	0.201694	-4.310689	-1.058896	-0.142817	-0.265819	-0.602295	-0.055908	-0.708496	0.045943	0.007749	0.029508	0.760156	0.272541	-0.392376	0.440370	7.210717	-56.779771	56.267908
28162		4.618686	0.402644	3.076215	-0.055458	-0.045037	-4.249203	-1.023868	-0.163108	-0.333727	-0.595459	-0.053711	-0.717773	0.046169	0.004107	0.030779	0.761900	0.269673	-0.394865	0.436883	6.924074	-56.858868	55.909303
28163		4.740026	0.051591	3.272556	0.201999	-0.303428	-4.064014	-0.899278	-0.130168	-0.352202	-0.593506	-0.046875	-0.718018	0.047380	0.000580	0.032754	0.763570	0.267232	-0.396918	0.433595	6.722614	-56.917928	55.533558
28164		4.816364	-0.206735	3.479977	0.359417	-0.550234	-3.903509	-0.767280	-0.079182	-0.333618	-0.600342	-0.049316	-0.711182	0.048146	-0.002014	0.034827	0.765100	0.265146	-0.398510	0.430708	6.574762	-56.950702	55.185234
28165		4.859740	-0.393573	3.589637	0.480677	-0.704942	-3.818569	-0.686239	-0.050159	-0.290790	-0.600342	-0.044922	-0.711426	0.048583	-0.003883	0.035922	0.766484	0.263215	-0.399863	0.428170	6.433933	-56.969329	54.883081
28166		4.817649	-0.575602	3.808726	0.525396	-0.976722	-3.744952	-0.663060	-0.038338	-0.212483	-0.598633	-0.035889	-0.714355	0.048163	-0.005681	0.038115	0.767676	0.261191	-0.401224	0.425996	6.235898	-56.987542	54.665999
28167		4.677775	-0.652030	3.959266	0.467887	-1.186096	-3.783034	-0.663598	-0.055225	-0.090173	-0.596436	-0.033691	-0.709961	0.046764	-0.006410	0.039627	0.768573	0.258948	-0.402801	0.424256	5.932640	-57.022428	54.573142
28168		4.584693	-0.653495	4.073633	0.366635	-1.308251	-3.796465	-0.652547	-0.124146	0.053661	-0.596680	-0.029053	-0.716797	0.045823	-0.006390	0.040786	0.768995	0.256605	-0.404805	0.423005	5.514269	-57.106029	54.625979
28169		4.570523	-0.615778	4.186280	0.249307	-1.375396	-3.743106	-0.595585	-0.252843	0.176602	-0.603271	-0.029297	-0.712402	0.045658	-0.005993	0.041939	0.768823	0.254498	-0.407332	0.422164	5.029762	-57.268393	54.795350
28170		4.849901	-0.469388	4.341383	0.105359	-1.294021	-3.417086	-0.496437	-0.428243	0.263962	-0.599121	-0.022461	-0.712891	0.048412	-0.004522	0.043529	0.767965	0.252965	-0.410436	0.421641	4.533057	-57.535184	55.047137
28171		5.299552	-0.308196	4.607912	-0.053769	-1.222375	-2.890567	-0.372278	-0.608491	0.301663	-0.608154	-0.022705	-0.708252	0.052859	-0.002916	0.046246	0.766498	0.252204	-0.414006	0.421275	4.080281	-57.904526	55.329313
28172		6.125655	-0.110049	4.793558	-0.105669	-0.922077	-2.089202	-0.231461	-0.732988	0.304254	-0.610596	-0.018311	-0.706299	0.061082	-0.000952	0.048161	0.764570	0.252239	-0.417758	0.421055	3.704772	-58.344951	55.615164
28173		7.075234	0.143642	5.030431	-0.199827	-0.592348	-1.152804	-0.117577	-0.766840	0.309671	-0.619629	-0.018311	-0.697266	0.070556	0.001575	0.050574	0.762410	0.252760	-0.421394	0.421035	3.383467	-58.803067	55.911681
28174		8.045721	0.335129	5.402753	-0.301785	-0.394042	-0.128219	-0.029848	-0.654727	0.352658	-0.619873	-0.009521	-0.691162	0.080274	0.003501	0.054290	0.760264	0.253290	-0.424471	0.421506	3.056122	-59.198478	56.273447
28175		8.703174	0.595816	5.508410	-0.440397	-0.086612	0.494646	0.011550	-0.385911	0.418589	-0.624512	-0.007324	-0.697998	0.086913	0.006137	0.055252	0.758497	0.253263	-0.426512	0.422644	2.668627	-59.439840	56.730635
28176		8.754603	0.728039	5.511266	-0.587054	-0.002654	0.541172	0.029052	-0.077587	0.450577	-0.622314	-0.009521	-0.693359	0.087508	0.007470	0.055148	0.757284	0.252585	-0.427389	0.424335	2.241174	-59.504756	57.246030
28177		8.869892	0.497159	5.783441	-0.509150	-0.261525	0.772331	0.107222	0.017759	0.434074	-0.622314	-0.007324	-0.693359	0.088693	0.005133	0.057829	0.756215	0.252031	-0.427711	0.426242	1.870660	-59.511979	57.746233
28178		9.360205	-0.757269	6.767628	0.257723	-1.423402	1.671875	0.369178	-0.164009	0.275874	-0.626953	-0.002930	-0.695801	0.093557	-0.007569	0.067739	0.754752	0.253195	-0.427965	0.427887	1.808258	-59.620358	58.063765
28179		12.877953	0.282253	7.997708	-0.242398	-0.343450	5.343423	0.410580	-0.374448	0.180552	-0.633301	-0.011963	-0.690918	0.128627	0.002774	0.080224	0.752993	0.255164	-0.428796	0.428983	1.868744	-59.846547	58.265044
28180		13.546620	1.723727	7.467749	-1.111326	1.032319	5.677588	0.468911	-0.043971	0.393228	-0.628662	-0.016357	-0.697266	0.135416	0.017328	0.074748	0.751396	0.256190	-0.428530	0.431431	1.740530	-59.888202	58.723768
28181		11.637963	3.305994	8.138751	-3.293803	0.494406	4.382995	0.314669	0.091081	0.471556	-0.619873	-0.009521	-0.688721	0.116339	0.033206	0.081387	0.750120	0.256170	-0.428181	0.434003	1.443534	-59.851961	59.274549
28182		11.551447	4.206895	8.096151	-4.121823	0.939075	4.287315	0.100768	-0.040114	0.443796	-0.624512	-0.007324	-0.693359	0.115405	0.042284	0.081006	0.748882	0.255695	-0.428754	0.435850	1.053661	-59.889801	59.791910
28183		11.623603	3.848608	7.957722	-3.768809	0.917087	4.265671	0.002892	0.170051	0.290136	-0.622559	-0.002930	-0.698242	0.116248	0.038654	0.079479	0.748562	0.254719	-0.428551	0.437170	0.757098	-59.803340	60.135656
28184		11.079441	2.980215	7.929808	-3.138770	0.313305	3.772869	0.089641	0.373693	0.109855	-0.622314	-0.007324	-0.688965	0.110926	0.029828	0.079104	0.748949	0.254012	-0.427169	0.438268	0.685622	-59.599305	60.277759
28185		10.993152	2.078819	8.231729	-2.472655	-0.345228	3.851085	0.113173	0.481303	0.008597	-0.613281	-0.004883	-0.697998	0.110128	0.020746	0.082064	0.749765	0.253369	-0.425197	0.439162	0.727137	-59.331914	60.303630
28186		12.223092	1.531953	8.990386	-1.957967	-0.579963	5.300464	0.065660	0.542944	-0.027941	-0.613037	-0.013916	-0.706543	0.122477	0.015273	0.089577	0.750838	0.252493	-0.423055	0.439903	0.774465	-59.029916	60.292159
28187		14.113548	0.994494	8.795433	-0.875335	0.223016	6.822340	0.077840	0.595023	-0.023815	-0.604248	-0.009277	-0.708984	0.141398	0.009894	0.087538	0.752001	0.251532	-0.420687	0.440737	0.824871	-58.697112	60.284126
28188		13.589408	0.592281	8.053984	-0.296957	0.436183	5.986359	0.062096	0.751541	-0.005805	-0.597412	-0.009033	-0.715820	0.136196	0.005894	0.080030	0.753454	0.250132	-0.417789	0.441808	0.845640	-58.275785	60.301329
28189		11.766762	0.415327	7.550487	-0.354105	-0.007498	4.169891	-0.017252	0.819606	-0.019966	-0.592773	-0.011230	-0.715820	0.117976	0.004148	0.075021	0.755179	0.248303	-0.414779	0.442728	0.834476	-57.814349	60.301589
28190		10.758241	0.222308	6.387921	0.072101	0.385802	2.694905	-0.078434	0.777509	-0.071419	-0.585938	-0.013428	-0.724609	0.107830	0.002210	0.063459	0.756985	0.246444	-0.412000	0.443278	0.834118	-57.377598	60.248615
28191		9.916147	-0.092861	5.221471	0.638685	0.772055	1.349656	-0.079108	0.670008	-0.098670	-0.583984	-0.008789	-0.724854	0.099335	-0.000957	0.051882	0.758631	0.244869	-0.409584	0.443575	0.859383	-57.001201	60.163391
28192		9.121568	-0.690826	4.197956	1.393637	0.907689	0.113880	-0.033467	0.500338	-0.101561	-0.581543	-0.010986	-0.733887	0.091317	-0.006948	0.041752	0.759863	0.243852	-0.407709	0.443753	0.913156	-56.722946	60.076102
28193		9.011211	-1.511458	3.744689	2.289484	0.816791	-0.241891	0.073096	0.324511	-0.101867	-0.572510	-0.015381	-0.729004	0.090165	-0.015174	0.037295	0.760615	0.243625	-0.406258	0.443921	1.030760	-56.544369	59.984228
28194		9.598419	-2.449614	3.837895	3.258410	0.588612	0.281663	0.253057	0.211584	-0.085579	-0.574463	-0.017578	-0.733398	0.096014	-0.024586	0.038246	0.760869	0.244304	-0.404862	0.444388	1.236968	-56.431502	59.910633
28195		10.161745	-2.793780	4.297076	3.560503	0.368564	0.990923	0.366581	0.190493	-0.045920	-0.570068	-0.019775	-0.733398	0.101652	-0.028040	0.042823	0.760861	0.245377	-0.403335	0.445198	1.474668	-56.330160	59.876270
28196		9.988640	-2.378194	4.715586	3.010031	0.197185	1.076125	0.339235	0.219520	0.036213	-0.567871	-0.017578	-0.731201	0.099942	-0.023844	0.047006	0.760750	0.246118	-0.401863	0.446309	1.623858	-56.214343	59.930417
28197		9.507910	-1.741288	5.355339	2.085226	-0.175843	1.037794	0.252088	0.201401	0.129946	-0.567627	-0.021973	-0.733154	0.095144	-0.017418	0.053436	0.760506	0.246375	-0.400763	0.447570	1.644397	-56.109578	60.078513
28198		9.297262	-1.282413	5.636435	1.523458	-0.243540	1.025799	0.234079	0.168757	0.173618	-0.565186	-0.024170	-0.733154	0.093031	-0.012809	0.056271	0.760111	0.246553	-0.399886	0.448927	1.617701	-56.025118	60.272162
28199		9.098351	-0.929334	5.730096	1.127761	-0.221088	0.918430	0.260137	0.175258	0.198780	-0.565186	-0.026367	-0.737305	0.091043	-0.009277	0.057209	0.759646	0.246760	-0.398949	0.450430	1.585945	-55.936399	60.489281
28200		8.822909	-0.667983	5.747289	0.821617	-0.225676	0.703739	0.286863	0.177767	0.194737	-0.560547	-0.028564	-0.737305	0.088287	-0.006676	0.057385	0.759150	0.247073	-0.397942	0.451981	1.572593	-55.847015	60.703740
28201		8.618428	-0.569838	5.521769	0.772123	-0.098705	0.409153	0.291619	0.137357	0.172751	-0.567383	-0.026367	-0.735107	0.086227	-0.005704	0.055150	0.758625	0.247536	-0.397044	0.453399	1.582867	-55.779550	60.892319
28202		8.376648	-0.568961	5.153574	0.850752	0.063381	0.001765	0.312617	0.083974	0.156397	-0.556152	-0.028564	-0.739502	0.083793	-0.005705	0.051492	0.757993	0.248234	-0.396285	0.454737	1.619559	-55.743317	61.064425
28203		7.845648	-0.472170	4.717994	0.790128	0.171963	-0.681274	0.372207	0.049914	0.148306	-0.569336	-0.033203	-0.741455	0.078472	-0.004751	0.047152	0.757243	0.249247	-0.395502	0.456110	1.698992	-55.725691	61.225393
28204		7.098464	-0.464374	4.228207	0.770036	0.169290	-1.574972	0.446190	0.034570	0.152954	-0.557861	-0.037354	-0.736816	0.070996	-0.004684	0.042259	0.756349	0.250569	-0.394618	0.457634	1.816449	-55.717954	61.392457
28205		6.373624	-0.548613	3.644802	0.871260	0.203883	-2.504611	0.512967	0.005189	0.187039	-0.555908	-0.032959	-0.734863	0.063742	-0.005520	0.036432	0.755238	0.252138	-0.393727	0.459371	1.945176	-55.727036	61.591418
28206		5.806051	-0.622192	3.186118	0.956458	0.228227	-3.233797	0.595543	-0.057954	0.232933	-0.560303	-0.037354	-0.739014	0.058059	-0.006249	0.031859	0.753778	0.254074	-0.392944	0.461367	2.083481	-55.774311	61.836726
28207		5.354804	-0.657297	2.984243	0.943008	0.134096	-3.721347	0.684632	-0.163957	0.285547	-0.560059	-0.041992	-0.738770	0.053533	-0.006599	0.029864	0.751874	0.256481	-0.392412	0.463590	2.232257	-55.882926	62.130106
28208		5.124490	-0.740297	2.910185	0.983464	0.029326	-3.955252	0.761712	-0.275605	0.338109	-0.562012	-0.048584	-0.738281	0.051217	-0.007427	0.029144	0.749509	0.259333	-0.392187	0.466017	2.382717	-56.057937	62.474993
28209		5.069441	-0.772004	3.076654	0.938103	-0.150680	-3.908599	0.805908	-0.360764	0.410883	-0.568604	-0.053223	-0.731201	0.050655	-0.007740	0.030827	0.746742	0.262396	-0.392259	0.468676	2.498730	-56.283103	62.890307
28210		5.152310	-0.772525	3.257104	0.893294	-0.262615	-3.739397	0.804790	-0.384051	0.481011	-0.566406	-0.051025	-0.729248	0.051479	-0.007733	0.032639	0.743740	0.265370	-0.392508	0.471559	2.551146	-56.524528	63.380788
28211		5.284615	-0.626271	3.376123	0.747471	-0.243811	-3.559736	0.813547	-0.349676	0.474918	-0.572754	-0.060059	-0.726318	0.052802	-0.006275	0.033828	0.740796	0.268296	-0.392585	0.474463	2.610130	-56.745579	63.867414
28212		5.328447	-0.478920	3.474678	0.590075	-0.254418	-3.465865	0.886985	-0.266726	0.393921	-0.572510	-0.064453	-0.721680	0.053248	-0.004839	0.034796	0.738082	0.271454	-0.392066	0.477317	2.775456	-56.918305	64.276860
28213		5.345019	-0.158352	3.577789	0.275158	-0.216848	-3.388351	1.022445	-0.215027	0.298908	-0.581299	-0.071289	-0.725586	0.053414	-0.001687	0.035827	0.735500	0.275163	-0.390889	0.480137	3.099669	-57.058817	64.587989
28214		5.384798	0.429512	3.835991	-0.321564	-0.196537	-3.198066	1.108811	-0.243776	0.238273	-0.578857	-0.077881	-0.720703	0.053796	0.004146	0.038449	0.732856	0.279372	-0.389519	0.482854	3.527630	-57.215677	64.834659
28215		5.691538	1.240100	4.253497	-1.111377	-0.105188	-2.686868	0.969343	-0.320017	0.237077	-0.587646	-0.080322	-0.716064	0.056833	0.012262	0.042686	0.730247	0.283244	-0.388747	0.485167	3.882258	-57.416199	65.072357
28216		5.856627	1.628898	4.276344	-1.434508	0.060044	-2.520296	0.707619	-0.300848	0.228406	-0.584961	-0.089111	-0.719971	0.058483	0.016204	0.042909	0.728043	0.286128	-0.388524	0.486963	4.092691	-57.606850	65.303369
28217		5.687603	1.578366	4.148894	-1.385005	0.028613	-2.732131	0.558564	-0.182635	0.153607	-0.584961	-0.091309	-0.717773	0.056826	0.015711	0.041585	0.726463	0.288320	-0.388116	0.488352	4.278235	-57.726448	65.461679
28218		5.467807	1.419867	4.227235	-1.299161	-0.221456	-2.881199	0.537352	-0.119985	0.042644	-0.587158	-0.093750	-0.715332	0.054650	0.014097	0.042343	0.725292	0.290499	-0.387374	0.489391	4.547083	-57.806506	65.507651
28219		5.652944	1.278855	4.438084	-1.170168	-0.375601	-2.617038	0.511275	-0.208651	-0.061311	-0.584473	-0.100342	-0.710449	0.056487	0.012658	0.044472	0.724244	0.292995	-0.386859	0.489862	4.903688	-57.931606	65.431585
28220		6.207867	1.164035	4.777464	-1.016411	-0.454592	-1.971969	0.434294	-0.344718	-0.146516	-0.591064	-0.107178	-0.716797	0.062005	0.011491	0.047907	0.723240	0.295712	-0.386902	0.489680	5.305964	-58.130563	65.250539
28221		6.976685	0.972330	5.183922	-0.759965	-0.521300	-1.115382	0.284231	-0.370483	-0.234289	-0.586426	-0.106934	-0.712158	0.069682	0.009568	0.051982	0.722625	0.298113	-0.387268	0.488840	5.709878	-58.337876	64.966096
28222		7.729795	0.656496	5.405097	-0.336934	-0.490680	-0.376515	0.172198	-0.271183	-0.314697	-0.593018	-0.113770	-0.711914	0.077235	0.006397	0.054161	0.722554	0.300024	-0.387431	0.487646	6.117633	-58.483624	64.603068
28223		8.404624	0.355642	5.602674	0.069662	-0.466407	0.283432	0.130564	-0.110990	-0.365278	-0.590820	-0.113770	-0.707275	0.084021	0.003366	0.056076	0.722984	0.301487	-0.387035	0.486419	6.535938	-58.532727	64.199315
28224		8.855612	0.261727	5.716085	0.263435	-0.397275	0.719959	0.087904	0.026176	-0.388515	-0.590576	-0.118164	-0.709229	0.088568	0.002420	0.057150	0.723789	0.302510	-0.386215	0.485237	6.936026	-58.501571	63.789057
28225		9.211049	0.537495	6.088890	0.023457	-0.446547	1.232984	0.018464	0.071011	-0.355927	-0.583496	-0.122559	-0.706787	0.092141	0.005205	0.060857	0.724713	0.303105	-0.385444	0.484099	7.260988	-58.445012	63.419311
28226		9.844098	0.705689	6.800484	-0.144904	-0.678394	2.152661	-0.054619	-0.016088	-0.332872	-0.590332	-0.122559	-0.708984	0.098447	0.006912	0.068011	0.725513	0.303604	-0.385205	0.482776	7.531382	-58.439507	63.065094
28227		11.035170	-0.040800	7.229781	0.754936	-0.752324	3.336846	-0.091612	-0.072351	-0.519808	-0.590332	-0.125000	-0.711182	0.110324	-0.000662	0.072338	0.726717	0.304460	-0.384968	0.480610	7.961370	-58.449495	62.497967
28228		11.282485	-0.291390	7.467327	1.034348	-0.939747	3.647886	-0.048407	0.079564	-0.554292	-0.587891	-0.127197	-0.713379	0.112846	-0.003209	0.074629	0.728217	0.305176	-0.384026	0.478636	8.426266	-58.369083	61.919466
28229		10.518813	-0.165654	7.933295	0.655265	-1.634352	3.245236	-0.063694	0.129391	-0.470044	-0.583252	-0.133789	-0.708496	0.105235	-0.001879	0.079265	0.729637	0.305549	-0.383059	0.477006	8.796260	-58.264570	61.440877
28230		10.688774	-0.343580	8.311677	0.804969	-1.932393	3.569004	-0.090879	0.063915	-0.463659	-0.583252	-0.131592	-0.717529	0.106906	-0.003646	0.083084	0.730946	0.305969	-0.382409	0.475251	9.151015	-58.196998	60.962188
28231		11.459920	-0.553319	8.445320	1.203751	-1.766981	4.272338	-0.108758	0.128820	-0.464534	-0.583008	-0.135986	-0.717285	0.114640	-0.005754	0.084382	0.732413	0.306165	-0.381556	0.473549	9.485348	-58.090207	60.494309
28232		11.352815	-0.421122	8.418474	1.104599	-1.735789	4.176635	-0.149421	0.294345	-0.400539	-0.580566	-0.138184	-0.719482	0.113643	-0.004376	0.084021	0.734094	0.305701	-0.380293	0.472261	9.709343	-57.895746	60.129028
28233		10.967660	-0.081086	8.869470	0.607137	-2.116628	4.119813	-0.231160	0.442571	-0.351224	-0.578369	-0.140381	-0.723633	0.109871	-0.000901	0.088453	0.736067	0.304486	-0.378746	0.471216	9.816478	-57.620871	59.844906
28234		13.159482	0.338937	9.775470	0.607860	-1.622891	6.492002	-0.222205	0.443725	-0.368172	-0.574219	-0.133545	-0.726318	0.131817	0.003255	0.097459	0.738055	0.303335	-0.377151	0.470128	9.939531	-57.344326	59.547821
28235		14.501025	0.498450	8.819665	1.149968	-0.104330	7.127806	-0.141110	0.604830	-0.370248	-0.564697	-0.144531	-0.725830	0.145285	0.004778	0.087754	0.740228	0.302101	-0.374757	0.469420	10.082481	-56.975325	59.280605
28236		12.157099	0.579426	8.402724	0.606816	-0.750900	4.945472	-0.075966	0.789006	-0.271554	-0.557861	-0.144531	-0.734863	0.121909	0.005661	0.083545	0.742397	0.300491	-0.371678	0.469475	10.144526	-56.513089	59.154187
28237		10.804806	0.719427	7.183228	0.483528	-0.279007	3.169906	-0.002585	0.748418	-0.156494	-0.555420	-0.146729	-0.730225	0.108321	0.007111	0.071427	0.744107	0.299026	-0.368739	0.470021	10.155750	-56.084342	59.138092
28238		9.483672	0.888415	5.995102	0.311095	0.169659	1.436510	0.036989	0.725438	-0.051039	-0.548828	-0.146484	-0.741455	0.095056	0.008849	0.059608	0.745450	0.297568	-0.365951	0.470997	10.104798	-55.680163	59.225061
28239		8.116180	1.355650	5.085615	-0.244384	0.465096	-0.153635	0.025111	0.641639	0.043048	-0.544434	-0.139893	-0.748535	0.081321	0.013568	0.050597	0.746435	0.296083	-0.363633	0.472166	9.984346	-55.331619	59.387855
28240		7.885354	2.110826	4.556432	-0.854107	1.102927	-0.568805	-0.042031	0.477901	0.091491	-0.540039	-0.139648	-0.748535	0.078952	0.021154	0.045371	0.747093	0.294648	-0.362160	0.473153	9.811585	-55.080999	59.568727
28241		8.861169	3.103676	4.363890	-1.433061	2.147264	0.213885	-0.115675	0.267251	0.088506	-0.535156	-0.146240	-0.750488	0.088656	0.031101	0.043502	0.747491	0.293437	-0.361636	0.473679	9.630838	-54.947773	59.707633
28242		10.144561	3.880202	4.147836	-1.723670	3.270128	1.210372	-0.183796	0.095904	0.021398	-0.535645	-0.139648	-0.753174	0.101461	0.038851	0.041394	0.747829	0.292501	-0.361821	0.473583	9.488672	-54.905708	59.752492
28243		10.439968	4.003044	4.110116	-1.743873	3.510047	1.436704	-0.275115	0.062881	-0.058831	-0.535645	-0.137451	-0.748779	0.104424	0.040056	0.041013	0.748437	0.291444	-0.362221	0.472967	9.363901	-54.873790	59.711481
28244		9.927569	3.720783	4.664666	-1.782173	2.733620	1.300868	-0.341237	0.065103	-0.082252	-0.535645	-0.137451	-0.755615	0.099306	0.037246	0.046551	0.749192	0.290179	-0.362741	0.472152	9.219208	-54.839432	59.649153
28245		9.610528	3.183485	5.217354	-1.533183	1.954300	1.302512	-0.338873	-0.009996	-0.112531	-0.538086	-0.135254	-0.751221	0.096121	0.031869	0.052124	0.749884	0.289150	-0.363485	0.471110	9.110730	-54.843976	59.543470
28246		9.409109	2.446928	5.671361	-1.045741	1.221108	1.327261	-0.338826	-0.079108	-0.154743	-0.535889	-0.133057	-0.751221	0.094088	0.024493	0.056709	0.750539	0.288364	-0.364432	0.469816	9.044419	-54.884792	59.386991
28247		9.283839	1.962660	5.774796	-0.674261	0.886331	1.239450	-0.324450	-0.127333	-0.164721	-0.535889	-0.133057	-0.751221	0.092818	0.019644	0.057775	0.751114	0.287759	-0.365505	0.468432	9.001551	-54.951205	59.211297
28248		9.309737	1.776745	5.531152	-0.436197	1.004134	1.106246	-0.278664	-0.183797	-0.161206	-0.538086	-0.130859	-0.749268	0.093061	0.017770	0.055372	0.751501	0.287454	-0.366692	0.467069	8.988896	-55.050815	59.031660
28249		9.426112	1.769363	5.209783	-0.310320	1.291281	1.020611	-0.229087	-0.201771	-0.166138	-0.533936	-0.126221	-0.753906	0.094223	0.017675	0.052173	0.751802	0.287382	-0.367817	0.465743	9.012369	-55.159273	58.842083
28250		8.991306	1.691883	4.894431	-0.281226	1.275265	0.480810	-0.203056	-0.169106	-0.175848	-0.547363	-0.128662	-0.758301	0.089886	0.016890	0.049003	0.752137	0.287352	-0.368749	0.464482	9.054265	-55.249184	58.649212
28251		8.121552	1.650408	4.432029	-0.368620	1.181270	-0.496301	-0.215267	-0.121269	-0.177323	-0.535645	-0.135254	-0.746582	0.081203	0.016480	0.044352	0.752588	0.287164	-0.369521	0.463252	9.085522	-55.310970	58.460188
28252		7.150744	1.587102	4.023940	-0.482273	0.993777	-1.528730	-0.283555	-0.108868	-0.178035	-0.538086	-0.135254	-0.753418	0.071500	0.015864	0.040256	0.753151	0.286694	-0.370408	0.461919	9.076111	-55.366511	58.273934
28253		6.339662	1.538182	3.645688	-0.572746	0.871592	-2.412643	-0.397875	-0.115195	-0.170273	-0.540771	-0.124023	-0.754150	0.063389	0.015400	0.036463	0.753853	0.285790	-0.371587	0.460383	8.996809	-55.425569	58.092369
28254		5.711778	1.464796	3.277271	-0.592674	0.823781	-3.143306	-0.541527	-0.144659	-0.159007	-0.545410	-0.122070	-0.749756	0.057106	0.014691	0.032774	0.754667	0.284392	-0.373227	0.458586	8.829042	-55.503368	57.919202
28255		5.349820	1.386579	3.039044	-0.571224	0.802857	-3.583075	-0.681271	-0.205495	-0.126405	-0.540771	-0.121826	-0.751953	0.053476	0.013936	0.030398	0.755491	0.282539	-0.375454	0.456552	8.562961	-55.617980	57.767569
28256		5.124226	1.313963	2.878311	-0.541646	0.789398	-3.866907	-0.808087	-0.278536	-0.109779	-0.541016	-0.115234	-0.750000	0.051209	0.013228	0.028801	0.756299	0.280341	-0.378268	0.454240	8.218174	-55.776672	57.624290
28257		4.947624	1.329785	2.837118	-0.617020	0.744604	-4.036758	-0.904928	-0.340078	-0.125819	-0.548096	-0.108643	-0.752686	0.049436	0.013395	0.028395	0.757155	0.277938	-0.381500	0.451580	7.838841	-55.968669	57.455207
28258		4.901266	1.253560	2.939310	-0.618048	0.610613	-4.026627	-0.941846	-0.368702	-0.197019	-0.546143	-0.102051	-0.753174	0.048971	0.012626	0.029424	0.758141	0.275591	-0.384820	0.448537	7.499998	-56.172892	57.213031
28259		5.039786	0.939653	3.162872	-0.392159	0.362359	-3.812602	-0.922932	-0.338392	-0.270310	-0.548584	-0.097412	-0.746582	0.050357	0.009475	0.031670	0.759312	0.273379	-0.387866	0.445274	7.231841	-56.354390	56.898606
28260		5.222102	0.604968	3.409148	-0.144433	0.104328	-3.549553	-0.853855	-0.250197	-0.269716	-0.548584	-0.099609	-0.748779	0.052187	0.006125	0.034131	0.760531	0.271229	-0.390420	0.442266	6.992683	-56.487385	56.598277
28261		5.224681	0.235660	3.741062	0.045654	-0.317973	-3.390449	-0.787685	-0.163200	-0.223552	-0.555664	-0.090820	-0.740234	0.052219	0.002446	0.037444	0.761722	0.269039	-0.392548	0.439663	6.743867	-56.573926	56.354519
28262		5.163192	-0.118099	3.965917	0.235183	-0.681580	-3.341127	-0.744281	-0.137371	-0.180041	-0.553711	-0.084229	-0.749756	0.051604	-0.001080	0.039699	0.762789	0.266870	-0.394538	0.437347	6.478806	-56.650070	56.161067
28263		5.162115	-0.516368	4.100674	0.510896	-0.973680	-3.291915	-0.677583	-0.145331	-0.153453	-0.551514	-0.079834	-0.752197	0.051587	-0.005064	0.041061	0.763691	0.264914	-0.396438	0.435239	6.230612	-56.732062	55.992498
28264		5.014182	-0.660498	4.085753	0.573439	-1.101041	-3.430643	-0.573921	-0.122641	-0.091352	-0.549561	-0.075195	-0.754639	0.050114	-0.006511	0.040907	0.764349	0.263182	-0.398108	0.433608	5.984608	-56.806153	55.893303
28265		4.723931	-0.567777	4.017355	0.406613	-1.135477	-3.703485	-0.509295	-0.078929	0.015473	-0.556641	-0.066406	-0.750732	0.047224	-0.005572	0.040206	0.764779	0.261384	-0.399604	0.432559	5.679142	-56.860950	55.908627
28266		4.474703	-0.481598	3.946706	0.257564	-1.149587	-3.943834	-0.501792	-0.113640	0.118589	-0.561035	-0.068848	-0.755127	0.044727	-0.004690	0.039504	0.764894	0.259485	-0.401354	0.431880	5.289200	-56.941991	56.030731
28267		4.531159	-0.426842	4.061660	0.151451	-1.181711	-3.830112	-0.492805	-0.291878	0.191464	-0.561279	-0.062012	-0.755371	0.045256	-0.004125	0.040693	0.764484	0.257854	-0.403851	0.431254	4.853666	-57.127093	56.212318
28268		5.133044	-0.441518	4.178258	0.260556	-1.014552	-3.262608	-0.401276	-0.538587	0.218194	-0.563721	-0.062012	-0.739746	0.051222	-0.004275	0.041929	0.763383	0.257051	-0.407130	0.430601	4.460180	-57.454468	56.406543
28269		6.149391	-0.322636	4.455404	0.302807	-0.733826	-2.253638	-0.214291	-0.738466	0.227073	-0.568115	-0.064453	-0.741943	0.061332	-0.003109	0.044784	0.761612	0.257366	-0.410768	0.430091	4.174819	-57.894914	56.597961
28270		7.446011	0.011445	4.886194	0.167557	-0.357058	-0.915377	-0.023499	-0.762501	0.252027	-0.572754	-0.057861	-0.742188	0.074273	0.000214	0.049145	0.759472	0.258408	-0.414119	0.430038	3.970643	-58.350549	56.822371
28271		8.606282	0.459535	5.347438	-0.126891	-0.014222	0.329193	0.071722	-0.550672	0.324772	-0.579346	-0.060059	-0.741943	0.085908	0.004716	0.053713	0.757489	0.259198	-0.416543	0.430718	3.734866	-58.686548	57.146056
28272		9.005944	0.840026	5.577228	-0.484495	0.154367	0.801428	0.028498	-0.196777	0.382582	-0.579590	-0.055664	-0.735596	0.089988	0.008564	0.055862	0.756161	0.258943	-0.417797	0.431990	3.392787	-58.822253	57.565098
28273		8.941891	0.968066	5.754504	-0.722277	0.062571	0.840161	-0.009606	0.030682	0.382531	-0.582031	-0.055664	-0.737793	0.089409	0.009854	0.057531	0.755361	0.258049	-0.418266	0.433467	3.015440	-58.825587	57.998738
28274		9.207209	0.453484	6.090518	-0.365626	-0.312156	1.225500	0.076400	0.013534	0.314918	-0.574951	-0.057861	-0.742188	0.092069	0.004657	0.060901	0.754551	0.257660	-0.418530	0.434852	2.751077	-58.836404	58.358690
28275		9.825247	-0.209379	7.043438	-0.020133	-1.083247	2.229551	0.284302	-0.104120	0.127001	-0.577393	-0.055664	-0.735596	0.098217	-0.002132	0.070483	0.753680	0.258664	-0.418560	0.435738	2.789747	-58.908099	58.492836
28276		12.485256	1.755529	7.672919	-1.285939	0.548189	4.880268	0.278248	-0.176575	0.227456	-0.577393	-0.053467	-0.740234	0.124765	0.017590	0.076864	0.752396	0.259632	-0.418988	0.436967	2.731259	-59.024901	58.746979
28277		12.370770	2.777071	7.629956	-2.219643	1.018284	4.781849	0.286778	0.094467	0.428472	-0.581787	-0.055664	-0.739990	0.123684	0.027926	0.076281	0.751235	0.259614	-0.418630	0.439312	2.474496	-58.990549	59.237201
28278		11.349228	4.084631	8.141381	-3.873241	0.821716	4.190666	0.133034	0.117477	0.431525	-0.577393	-0.053467	-0.742432	0.113452	0.041037	0.081374	0.750301	0.258963	-0.418530	0.441382	2.125834	-58.942643	59.732890
28279		11.370313	4.408427	8.249659	-4.228279	0.929210	4.259738	-0.041283	0.148164	0.329454	-0.577393	-0.053467	-0.747070	0.113691	0.044289	0.082403	0.749928	0.257763	-0.418583	0.442668	1.775873	-58.872723	60.102911
28280		11.141452	3.587993	8.284433	-3.592892	0.452347	4.062604	-0.064045	0.372878	0.132156	-0.579590	-0.055664	-0.751221	0.111545	0.035980	0.082625	0.750439	0.256432	-0.417571	0.443528	1.594106	-58.670762	60.272393
28281		10.757565	2.650324	8.239894	-2.830002	-0.076182	3.701385	0.015003	0.521811	-0.010872	-0.572998	-0.053467	-0.751465	0.107792	0.026491	0.082120	0.751523	0.255325	-0.415656	0.444131	1.590823	-58.380167	60.275222
28282		10.904871	2.039502	8.346762	-2.254821	-0.314931	3.882572	0.039509	0.646691	-0.079698	-0.563965	-0.053223	-0.753662	0.109326	0.020335	0.083118	0.752933	0.254214	-0.413109	0.444756	1.660450	-58.017851	60.219762
28283		12.575184	1.772914	9.212430	-1.865431	-0.244528	5.763149	0.049595	0.697946	-0.105045	-0.557129	-0.057617	-0.760254	0.126082	0.017640	0.091689	0.754533	0.253037	-0.410326	0.445291	1.757396	-57.624760	60.127658
28284		14.388716	1.131287	9.110983	-0.707831	0.460180	7.234625	0.073515	0.730020	-0.091938	-0.557129	-0.053223	-0.760498	0.144224	0.011213	0.090588	0.756081	0.251889	-0.407364	0.446036	1.851949	-57.214414	60.065262
28285		12.859082	0.624813	8.348591	-0.302963	0.176387	5.527483	0.056302	0.914624	-0.053978	-0.548096	-0.057373	-0.762451	0.128973	0.006190	0.082898	0.757979	0.250143	-0.403799	0.447037	1.897604	-56.698067	60.038137
28286		10.937248	0.387745	7.365781	-0.170831	-0.009921	3.378135	-0.060332	0.975992	-0.083355	-0.536621	-0.059570	-0.771484	0.109732	0.003854	0.073122	0.760147	0.247912	-0.400201	0.447835	1.898065	-56.146975	59.995918
28287		10.080992	0.053626	5.821705	0.538774	0.649907	1.797999	-0.129461	0.856849	-0.142932	-0.532471	-0.052734	-0.778564	0.101058	0.000502	0.057784	0.762329	0.245760	-0.397143	0.448034	1.913242	-55.662012	59.876890
28288		8.951814	-0.331067	4.778023	1.003388	0.745887	0.262559	-0.113608	0.663140	-0.152582	-0.527832	-0.054932	-0.785156	0.089673	-0.003352	0.047485	0.764067	0.244156	-0.394755	0.448060	1.947893	-55.288719	59.755648
28289		8.392872	-1.133868	4.096186	1.841964	0.622016	-0.608079	-0.049136	0.436582	-0.159656	-0.523193	-0.059326	-0.782715	0.084009	-0.011396	0.040781	0.765338	0.243281	-0.393091	0.447829	2.031402	-55.044005	59.608510
28290		9.146833	-2.240640	4.205344	3.014625	0.403662	0.042207	0.080140	0.242783	-0.144633	-0.525391	-0.059326	-0.784912	0.091503	-0.022489	0.041933	0.765986	0.243342	-0.391882	0.447749	2.179733	-54.911355	59.483274
28291		10.703910	-2.889669	4.788771	3.837631	0.450018	1.629612	0.221884	0.120911	-0.042584	-0.525635	-0.057129	-0.782959	0.107062	-0.028973	0.047791	0.766041	0.243981	-0.390960	0.448112	2.330481	-54.849686	59.443352
28292		11.000143	-2.469162	5.237134	3.400649	0.486364	2.134131	0.276258	0.125553	0.104612	-0.518555	-0.063721	-0.791504	0.110047	-0.024706	0.052268	0.765659	0.244566	-0.390062	0.449226	2.391248	-54.789711	59.562483
28293		10.319406	-1.699224	5.805881	2.316647	0.122243	1.922044	0.169361	0.151767	0.183085	-0.518555	-0.061279	-0.784912	0.103254	-0.016947	0.057966	0.765330	0.244494	-0.389415	0.450388	2.327678	-54.715721	59.748169
28294		9.860291	-1.277540	6.251802	1.639751	-0.207438	1.815323	0.051237	0.124875	0.218731	-0.516357	-0.061279	-0.787109	0.098656	-0.012684	0.062453	0.764962	0.243996	-0.389164	0.451498	2.167950	-54.658564	59.979708
28295		9.683913	-1.104394	6.414776	1.362312	-0.309837	1.771580	0.028228	0.103399	0.260553	-0.516357	-0.061279	-0.787109	0.096887	-0.010927	0.064096	0.764532	0.243341	-0.389113	0.452621	1.963591	-54.613311	60.239210
28296		9.737961	-1.065517	6.381069	1.339923	-0.219513	1.799273	0.070668	0.068146	0.277446	-0.516357	-0.061279	-0.789307	0.097416	-0.010543	0.063774	0.763895	0.242931	-0.389105	0.453923	1.770311	-54.588847	60.525816
28297		9.754707	-1.034509	6.156368	1.386340	-0.019072	1.685271	0.121554	0.024095	0.242666	-0.518555	-0.061523	-0.787109	0.097567	-0.010264	0.061546	0.763236	0.242846	-0.389122	0.455062	1.636480	-54.587729	60.764584
28298		9.427385	-0.931629	5.678690	1.370850	0.217861	1.144700	0.185334	0.006192	0.187171	-0.513916	-0.063477	-0.791504	0.094284	-0.009281	0.056775	0.762541	0.243189	-0.388979	0.456165	1.583269	-54.596551	60.959976
28299		8.569541	-0.800333	5.059102	1.240946	0.297060	0.089024	0.259620	0.008166	0.136852	-0.518555	-0.061523	-0.791504	0.085703	-0.008010	0.050577	0.761921	0.243872	-0.388612	0.457148	1.614057	-54.602619	61.093833
28300		7.517817	-0.758040	4.239352	1.215090	0.378909	-1.242723	0.363048	-0.002465	0.113210	-0.516357	-0.063477	-0.787109	0.075182	-0.007615	0.042381	0.761158	0.245055	-0.388004	0.458302	1.722410	-54.615281	61.215902
28301		6.545169	-0.724436	3.574157	1.163600	0.382568	-2.420914	0.473942	-0.036270	0.141074	-0.518311	-0.068115	-0.789063	0.065450	-0.007283	0.035736	0.760173	0.246645	-0.387319	0.459659	1.873580	-54.647188	61.352692
28302		5.762677	-0.663839	3.165849	1.045392	0.305852	-3.294610	0.574630	-0.115460	0.185370	-0.522461	-0.074951	-0.788574	0.057615	-0.006676	0.031673	0.758756	0.248750	-0.386739	0.461353	2.047763	-54.726328	61.542532
28303		5.283696	-0.623604	3.106721	0.901824	0.113989	-3.719105	0.665922	-0.228229	0.239523	-0.517822	-0.081543	-0.790527	0.052809	-0.006276	0.031107	0.756921	0.251316	-0.386455	0.463209	2.234357	-54.870787	61.770302
