// General information: 
//  MT Manager version: 2019.2.0 
//  XDA version: 2019.2.0 build 3853 rev 94535 built on 2019-09-09
// Device information: 
//  DeviceId: 00B40AC5
//  ProductCode: MTW2-3A7G6
//  Firmware Version: 4.3.5
//  Hardware Version: 1.1.0
// Device settings: 
//  Filter Profile: human(46.1)
//  Option Flags: Orientation Smoother Disabled, AHS Disabled, ICC Disabled
// Coordinate system: ENU
PacketCounter	SampleTimeFine	Acc_X	Acc_Y	Acc_Z	FreeAcc_E	FreeAcc_N	FreeAcc_U	Gyr_X	Gyr_Y	Gyr_Z	Mag_X	Mag_Y	Mag_Z	VelInc_X	VelInc_Y	VelInc_Z	Quat_q0	Quat_q1	Quat_q2	Quat_q3	Roll	Pitch	Yaw
27751		5.318498	1.254238	8.547782	-0.125649	-0.033805	0.331630	0.005988	0.017512	-0.007175	0.173828	-0.192871	-0.569580	0.053193	0.012538	0.085474	0.596634	0.250120	-0.124697	0.752276	7.484028	-31.675993	101.037887
27752		5.330810	1.231223	8.516590	-0.112694	-0.002241	0.309222	0.002429	0.018972	-0.005700	0.171631	-0.197266	-0.573730	0.053317	0.012310	0.085161	0.596644	0.250103	-0.124699	0.752273	7.482736	-31.674459	101.037211
27753		5.308065	1.232811	8.544658	-0.104390	-0.035270	0.321138	0.006153	0.015073	-0.005260	0.171387	-0.190674	-0.571777	0.053087	0.012324	0.085443	0.596636	0.250105	-0.124704	0.752278	7.482123	-31.675180	101.038423
27754		5.337021	1.249768	8.546828	-0.124788	-0.016397	0.340053	0.006581	0.019355	-0.004802	0.169434	-0.195068	-0.573975	0.053379	0.012494	0.085464	0.596636	0.250099	-0.124690	0.752282	7.482877	-31.673566	101.038572
27755		5.326078	1.233441	8.519229	-0.113833	-0.007701	0.309206	0.004361	0.018702	-0.005844	0.176025	-0.195068	-0.571777	0.053269	0.012331	0.085188	0.596635	0.250083	-0.124690	0.752288	7.481275	-31.672182	101.039712
27756		5.333742	1.251415	8.548634	-0.125474	-0.020029	0.340038	0.007631	0.016319	-0.008503	0.178223	-0.195068	-0.567139	0.053345	0.012509	0.085482	0.596645	0.250094	-0.124676	0.752279	7.484086	-31.671973	101.037325
27757		5.339463	1.274992	8.554371	-0.147878	-0.024034	0.350495	0.002516	0.017751	-0.004743	0.166992	-0.192871	-0.565186	0.053403	0.012748	0.085539	0.596641	0.250075	-0.124688	0.752286	7.481085	-31.671212	101.039116
27758		5.330589	1.252864	8.550388	-0.126160	-0.023650	0.340022	0.006294	0.018432	-0.005987	0.173828	-0.192871	-0.573975	0.053314	0.012524	0.085499	0.596645	0.250072	-0.124675	0.752286	7.482169	-31.669927	101.038485
27759		5.323709	1.225203	8.570023	-0.094126	-0.031699	0.349912	0.006375	0.017213	-0.005030	0.171631	-0.195068	-0.571777	0.053245	0.012248	0.085696	0.596638	0.250067	-0.124673	0.752294	7.481504	-31.669449	101.040037
27760		5.343345	1.225088	8.543730	-0.103117	-0.002286	0.338020	0.006591	0.019353	-0.004801	0.166992	-0.190674	-0.569580	0.053442	0.012247	0.085433	0.596638	0.250061	-0.124659	0.752298	7.482255	-31.667798	101.040177
27761		5.323726	1.261056	8.529419	-0.137840	-0.020730	0.319631	0.006299	0.018431	-0.005987	0.171631	-0.192871	-0.569580	0.053245	0.012606	0.085290	0.596635	0.250052	-0.124653	0.752305	7.481826	-31.666558	101.041197
27762		5.338011	1.232593	8.521923	-0.114344	0.002460	0.317650	0.008149	0.019380	-0.007086	0.169434	-0.197266	-0.573730	0.053389	0.012321	0.085215	0.596644	0.250051	-0.124631	0.752301	7.484244	-31.664812	101.039473
27763		5.320361	1.262943	8.531239	-0.138530	-0.024372	0.319614	0.006675	0.018134	-0.003843	0.173828	-0.192871	-0.576172	0.053212	0.012626	0.085308	0.596632	0.250043	-0.124627	0.752314	7.483294	-31.663900	101.041897
27764		5.334737	1.234418	8.523709	-0.115030	-0.001176	0.317642	0.008232	0.018161	-0.006128	0.168945	-0.186279	-0.569824	0.053355	0.012339	0.085233	0.596634	0.250048	-0.124609	0.752314	7.485509	-31.662885	101.041247
27765		5.335085	1.229471	8.548261	-0.104949	-0.011414	0.337995	0.002528	0.017747	-0.004745	0.173828	-0.197266	-0.573730	0.053359	0.012292	0.085478	0.596630	0.250029	-0.124620	0.752322	7.482516	-31.662126	101.043036
27766		5.340692	1.252999	8.554066	-0.127143	-0.015403	0.348447	0.008529	0.019083	-0.004942	0.169189	-0.192871	-0.573975	0.053415	0.012525	0.085536	0.596631	0.250029	-0.124601	0.752324	7.484394	-31.660664	101.042654
27767		5.301331	1.214918	8.548679	-0.085470	-0.035683	0.319019	0.006680	0.018132	-0.003842	0.166992	-0.195068	-0.569580	0.053021	0.012145	0.085482	0.596619	0.250021	-0.124597	0.752337	7.483447	-31.659753	101.045078
27768		5.312309	1.266997	8.535655	-0.140140	-0.033463	0.319565	0.006389	0.017209	-0.005028	0.171631	-0.197266	-0.573730	0.053131	0.012666	0.085352	0.596619	0.250023	-0.124590	0.752338	7.484256	-31.659454	101.044962
27769		5.337814	1.249829	8.580361	-0.117752	-0.029325	0.368776	0.006312	0.018427	-0.005986	0.173828	-0.195068	-0.569580	0.053386	0.012494	0.085799	0.596615	0.250014	-0.124584	0.752344	7.483836	-31.658215	101.045981
27770		5.325322	1.239322	8.528883	-0.117090	-0.012084	0.317612	0.007891	0.012659	-0.005625	0.169189	-0.192871	-0.573975	0.053259	0.012388	0.085286	0.596610	0.250038	-0.124582	0.752341	7.485967	-31.660286	101.045448
27771		5.300775	1.246858	8.533046	-0.119321	-0.036725	0.309079	0.006100	0.016286	-0.006214	0.166992	-0.188477	-0.574219	0.053015	0.012464	0.085327	0.596607	0.250037	-0.124583	0.752344	7.485603	-31.660247	101.046128
27772		5.331516	1.258209	8.559024	-0.129211	-0.026371	0.348398	0.006532	0.020567	-0.005757	0.169189	-0.190674	-0.576172	0.053324	0.012578	0.085585	0.596616	0.250026	-0.124567	0.752343	7.486508	-31.658025	101.045109
27773		5.320733	1.242034	8.531352	-0.118238	-0.017577	0.317590	0.008032	0.016017	-0.006354	0.166992	-0.192871	-0.571777	0.053215	0.012415	0.085310	0.596610	0.250032	-0.124561	0.752347	7.487313	-31.658129	101.045671
27774		5.344340	1.230675	8.552381	-0.106172	-0.005037	0.346469	0.006320	0.018425	-0.005985	0.173828	-0.195068	-0.571777	0.053452	0.012302	0.085519	0.596617	0.250029	-0.124552	0.752343	7.488296	-31.657101	101.044538
27775		5.294344	1.250344	8.536528	-0.120707	-0.044038	0.309034	0.004470	0.017475	-0.004887	0.171387	-0.190674	-0.569580	0.052951	0.012500	0.085361	0.596611	0.250017	-0.124557	0.752351	7.486479	-31.656486	101.046207
27776		5.317891	1.238797	8.557623	-0.108644	-0.031472	0.337913	0.006323	0.018425	-0.005985	0.169189	-0.190674	-0.573975	0.053187	0.012384	0.085572	0.596617	0.250014	-0.124545	0.752349	7.487504	-31.655260	101.045294
27777		5.344905	1.261602	8.536216	-0.139803	-0.004266	0.336552	0.008038	0.016016	-0.006353	0.169189	-0.188477	-0.576416	0.053456	0.012611	0.085358	0.596612	0.250019	-0.124539	0.752353	7.488312	-31.655365	101.045857
27778		5.323849	1.257623	8.587894	-0.120780	-0.045797	0.368679	0.002761	0.019883	-0.004520	0.171631	-0.195068	-0.569580	0.053247	0.012574	0.085874	0.596622	0.249999	-0.124542	0.752351	7.486618	-31.653604	101.045347
27779		5.303859	1.224200	8.531756	-0.098367	-0.026307	0.307099	0.010402	0.020029	-0.006035	0.171631	-0.195068	-0.576172	0.053048	0.012236	0.085313	0.596615	0.249996	-0.124515	0.752362	7.488484	-31.651453	101.046473
27780		5.332558	1.241295	8.534172	-0.118783	-0.007522	0.326095	0.002104	0.019253	-0.007850	0.167236	-0.197510	-0.571533	0.053334	0.012410	0.085337	0.596631	0.249979	-0.124514	0.752355	7.487732	-31.649667	101.044815
27781		5.311475	1.237321	8.585839	-0.099966	-0.049077	0.358200	0.008705	0.016643	-0.003021	0.169434	-0.195068	-0.567139	0.053122	0.012369	0.085855	0.596612	0.249982	-0.124508	0.752370	7.487727	-31.649664	101.047656
27782		5.315184	1.266703	8.567925	-0.132673	-0.044643	0.348290	0.006257	0.019640	-0.006942	0.169189	-0.192871	-0.573975	0.053161	0.012663	0.085674	0.596617	0.249976	-0.124490	0.752371	7.489065	-31.647798	101.047010
27783		5.311596	1.273251	8.545183	-0.143648	-0.038011	0.327938	0.006335	0.018422	-0.005984	0.164795	-0.195313	-0.569580	0.053124	0.012728	0.085447	0.596614	0.249968	-0.124484	0.752377	7.488657	-31.646563	101.048029
27784		5.342035	1.215186	8.529486	-0.096413	0.010175	0.324213	0.004407	0.018689	-0.005845	0.162598	-0.193115	-0.571777	0.053429	0.012148	0.085290	0.596620	0.249959	-0.124480	0.752377	7.488532	-31.645402	101.047550
27785		5.301037	1.252182	8.542123	-0.122373	-0.039454	0.317480	0.010121	0.019104	-0.007218	0.171631	-0.195068	-0.576172	0.053019	0.012516	0.085417	0.596616	0.249960	-0.124456	0.752383	7.490694	-31.643689	101.047805
27786		5.324602	1.241070	8.563183	-0.110314	-0.026981	0.346390	0.007762	0.015090	-0.007535	0.169189	-0.192871	-0.569580	0.053253	0.012405	0.085628	0.596622	0.249976	-0.124448	0.752374	7.493231	-31.644467	101.045840
27787		5.322972	1.241864	8.564082	-0.110767	-0.028819	0.346380	0.002698	0.021096	-0.005480	0.169434	-0.195068	-0.571777	0.053239	0.012416	0.085635	0.596623	0.249946	-0.124448	0.752383	7.490441	-31.641752	101.047430
27788		5.342700	1.241606	8.537944	-0.119748	0.000636	0.334636	0.006127	0.016280	-0.006211	0.169189	-0.192871	-0.571777	0.053434	0.012412	0.085375	0.596627	0.249951	-0.124443	0.752379	7.491538	-31.641840	101.046458
27789		5.319620	1.243456	8.565933	-0.111457	-0.032473	0.346361	0.006195	0.020854	-0.007899	0.171631	-0.192871	-0.571777	0.053206	0.012430	0.085654	0.596632	0.249934	-0.124428	0.752383	7.491609	-31.639081	101.046412
27790		5.324992	1.267286	8.571800	-0.133660	-0.036517	0.356782	0.008201	0.019369	-0.007078	0.171387	-0.190674	-0.573975	0.053259	0.012667	0.085713	0.596641	0.249933	-0.124406	0.752381	7.494024	-31.637329	101.044872
27791		5.335669	1.250059	8.517102	-0.131412	0.003653	0.314294	0.004418	0.018686	-0.005845	0.173828	-0.195068	-0.567139	0.053365	0.012497	0.085166	0.596639	0.249918	-0.124406	0.752387	7.492458	-31.635955	101.046006
27792		5.319717	1.274620	8.550005	-0.144873	-0.031652	0.336433	0.006275	0.019636	-0.006940	0.171631	-0.192871	-0.571777	0.053206	0.012742	0.085495	0.596650	0.249910	-0.124390	0.752384	7.493714	-31.633972	101.044574
27793		5.332144	1.251808	8.519053	-0.132107	0.000029	0.314286	0.008788	0.021215	-0.004705	0.169189	-0.192871	-0.576172	0.053331	0.012513	0.085185	0.596640	0.249897	-0.124368	0.752399	7.494137	-31.631247	101.046691
27794		5.334181	1.241546	8.567279	-0.111321	-0.018805	0.354930	0.007776	0.015087	-0.007532	0.173828	-0.197266	-0.571533	0.053349	0.012410	0.085669	0.596648	0.249912	-0.124360	0.752389	7.496645	-31.631922	101.044430
27795		5.330644	1.248077	8.544534	-0.122289	-0.012130	0.334599	0.004858	0.022965	-0.005391	0.171631	-0.195068	-0.573975	0.053317	0.012477	0.085440	0.596647	0.249881	-0.124346	0.752402	7.494976	-31.628151	101.046243
27796		5.319700	1.231516	8.517091	-0.111073	-0.003166	0.303850	0.002714	0.021091	-0.005482	0.173584	-0.190674	-0.567383	0.053206	0.012313	0.085165	0.596653	0.249858	-0.124340	0.752407	7.493664	-31.625459	101.046554
27797		5.332141	1.277872	8.527949	-0.155453	-0.009485	0.324686	0.006502	0.021774	-0.006712	0.169189	-0.192871	-0.571777	0.053331	0.012774	0.085274	0.596655	0.249837	-0.124322	0.752415	7.493453	-31.622267	101.047381
27798		5.340988	1.220802	8.539572	-0.099489	0.007447	0.332797	0.004648	0.020823	-0.005617	0.171387	-0.190674	-0.573975	0.053419	0.012205	0.085390	0.596664	0.249819	-0.124311	0.752416	7.493237	-31.619750	101.046749
27799		5.323013	1.250952	8.548870	-0.123676	-0.019401	0.334571	0.004286	0.021116	-0.007762	0.169189	-0.190674	-0.569580	0.053240	0.012506	0.085483	0.596672	0.249795	-0.124302	0.752419	7.492155	-31.616853	101.046817
27800		5.290656	1.235565	8.548394	-0.103729	-0.041730	0.315501	0.006509	0.021772	-0.006711	0.173828	-0.195068	-0.571777	0.052916	0.012351	0.085479	0.596685	0.249780	-0.124281	0.752417	7.493303	-31.613786	101.045285
27801		5.335359	1.223171	8.542751	-0.100644	0.001961	0.332788	0.004726	0.019606	-0.004658	0.173584	-0.190674	-0.569580	0.053362	0.012228	0.085423	0.596679	0.249761	-0.124279	0.752428	7.491457	-31.611979	101.047290
27802		5.313843	1.264808	8.504592	-0.145641	-0.007762	0.293918	0.010373	0.021238	-0.006980	0.176025	-0.195068	-0.571777	0.053148	0.012642	0.085041	0.596686	0.249759	-0.124243	0.752429	7.494989	-31.609054	101.045971
27803		5.315599	1.254645	8.552941	-0.125077	-0.026679	0.334537	0.008880	0.019995	-0.003742	0.177979	-0.188477	-0.576416	0.053165	0.012542	0.085525	0.596672	0.249751	-0.124225	0.752446	7.495185	-31.607094	101.048622
27804		5.312049	1.261184	8.530216	-0.135840	-0.019909	0.314217	0.003718	0.019265	-0.010134	0.166992	-0.192871	-0.569580	0.053129	0.012608	0.085297	0.596700	0.249738	-0.124217	0.752430	7.496048	-31.604982	101.044661
27805		5.328222	1.227070	8.546645	-0.102051	-0.005279	0.332773	0.008593	0.019071	-0.004927	0.176025	-0.192871	-0.565186	0.053291	0.012266	0.085462	0.596690	0.249732	-0.124201	0.752442	7.496537	-31.603458	101.046440
27806		5.303219	1.234605	8.550893	-0.104060	-0.029830	0.324099	0.006304	0.019629	-0.006937	0.178223	-0.190674	-0.576172	0.053041	0.012342	0.085504	0.596700	0.249725	-0.124185	0.752439	7.497814	-31.601495	101.045118
27807		5.324833	1.229014	8.548478	-0.102746	-0.008912	0.332763	0.008018	0.017222	-0.007298	0.171631	-0.192871	-0.567383	0.053256	0.012285	0.085481	0.596699	0.249727	-0.124174	0.752441	7.498887	-31.600844	101.045153
27808		5.307021	1.259540	8.557547	-0.126733	-0.035714	0.334489	0.007877	0.019654	-0.009216	0.173828	-0.192871	-0.569580	0.053079	0.012590	0.085571	0.596718	0.249724	-0.124150	0.752431	7.501804	-31.598630	101.041924
27809		5.330393	1.248546	8.578804	-0.114916	-0.023366	0.363466	0.009952	0.016956	-0.007431	0.169189	-0.192871	-0.569580	0.053312	0.012479	0.085784	0.596714	0.249732	-0.124133	0.752434	7.504044	-31.598121	101.041847
27810		5.319840	1.232202	8.551127	-0.103695	-0.014337	0.332747	0.002809	0.019868	-0.004526	0.169434	-0.195068	-0.569580	0.053207	0.012320	0.085506	0.596720	0.249712	-0.124132	0.752436	7.502443	-31.596231	101.042106
27811		5.325350	1.255830	8.556910	-0.126117	-0.018443	0.343144	0.007736	0.016297	-0.008483	0.171631	-0.192871	-0.571777	0.053261	0.012553	0.085565	0.596723	0.249717	-0.124124	0.752434	7.503812	-31.596017	101.041269
27812		5.300407	1.263695	8.561033	-0.128124	-0.043000	0.334443	0.012035	0.020044	-0.008295	0.171631	-0.197266	-0.573730	0.053013	0.012630	0.085606	0.596729	0.249727	-0.124083	0.752432	7.508820	-31.593789	101.039257
27813		5.338150	1.228992	8.550460	-0.103077	0.002924	0.341425	0.008029	0.017220	-0.007297	0.171387	-0.190674	-0.571777	0.053389	0.012285	0.085500	0.596728	0.249728	-0.124073	0.752434	7.509898	-31.593139	101.039293
27814		5.311426	1.242148	8.530952	-0.115585	-0.013044	0.312419	0.006606	0.020550	-0.005751	0.173828	-0.192871	-0.571777	0.053123	0.012417	0.085304	0.596733	0.249718	-0.124054	0.752437	7.510866	-31.590804	101.038949
27815		5.309691	1.243014	8.531906	-0.116037	-0.014876	0.312412	0.006390	0.018410	-0.005978	0.169434	-0.195068	-0.576172	0.053105	0.012426	0.085315	0.596729	0.249710	-0.124048	0.752444	7.510491	-31.589578	101.039968
27816		5.331243	1.237312	8.529599	-0.114517	0.006055	0.321117	0.006610	0.020549	-0.005751	0.173584	-0.190674	-0.571777	0.053322	0.012369	0.085291	0.596734	0.249699	-0.124030	0.752446	7.511449	-31.587254	101.039592
27817		5.306311	1.244743	8.533756	-0.116733	-0.018516	0.312398	0.006175	0.016269	-0.006204	0.173828	-0.195068	-0.571777	0.053070	0.012443	0.085334	0.596730	0.249698	-0.124030	0.752449	7.511128	-31.587227	101.040272
27818		5.329703	1.233368	8.555098	-0.104721	-0.006170	0.341407	0.004394	0.019890	-0.006805	0.173828	-0.195068	-0.567139	0.053306	0.012330	0.085546	0.596743	0.249684	-0.124021	0.752446	7.511205	-31.585104	101.038919
27819		5.304707	1.240820	8.559279	-0.106938	-0.030741	0.332677	0.008328	0.018143	-0.006109	0.169434	-0.199463	-0.571533	0.053055	0.012403	0.085588	0.596738	0.249682	-0.124008	0.752453	7.511998	-31.584020	101.039827
27820		5.303179	1.241939	8.560063	-0.107170	-0.032540	0.332669	0.010042	0.015737	-0.006466	0.176025	-0.192871	-0.567383	0.053039	0.012413	0.085597	0.596732	0.249701	-0.123988	0.752454	7.515492	-31.584311	101.039379
27821		5.332098	1.259203	8.562484	-0.127833	-0.013934	0.351783	0.003893	0.016824	-0.008218	0.173828	-0.192871	-0.573975	0.053329	0.012588	0.085621	0.596739	0.249693	-0.123993	0.752450	7.514541	-31.583818	101.038765
27822		5.296746	1.255064	8.514242	-0.128863	-0.018936	0.292067	0.007757	0.016292	-0.008480	0.173828	-0.195068	-0.573975	0.052975	0.012545	0.085139	0.596752	0.249702	-0.123979	0.752439	7.517297	-31.583556	101.035984
27823		5.327379	1.266733	8.540371	-0.139032	-0.008946	0.331479	0.006184	0.016267	-0.006203	0.171875	-0.199463	-0.567139	0.053281	0.012663	0.085400	0.596749	0.249701	-0.123980	0.752442	7.516981	-31.583530	101.036664
27824		5.295511	1.251306	8.539503	-0.119054	-0.031171	0.312339	0.006185	0.016267	-0.006203	0.173828	-0.192871	-0.569580	0.052962	0.012509	0.085391	0.596748	0.249707	-0.123973	0.752442	7.518136	-31.583510	101.036388
27825		5.322682	1.274066	8.518276	-0.150212	-0.003952	0.311178	0.006118	0.017482	-0.007163	0.173584	-0.190674	-0.569580	0.053235	0.012736	0.085178	0.596749	0.249702	-0.123968	0.752444	7.518062	-31.582723	101.036535
27826		5.293958	1.247546	8.564954	-0.109267	-0.043418	0.332606	0.008845	0.021205	-0.004695	0.171387	-0.190674	-0.573975	0.052949	0.012470	0.085644	0.596750	0.249694	-0.123942	0.752450	7.519872	-31.579992	101.036522
27827		5.337036	1.240964	8.535821	-0.116691	0.008820	0.329821	0.003765	0.019251	-0.010138	0.166992	-0.188477	-0.574219	0.053379	0.012405	0.085353	0.596766	0.249677	-0.123937	0.752444	7.519407	-31.577976	101.034840
27828		5.312018	1.248293	8.539987	-0.118708	-0.015732	0.321059	0.004479	0.018670	-0.005846	0.171387	-0.190674	-0.571777	0.053129	0.012479	0.085395	0.596779	0.249666	-0.123936	0.752437	7.519152	-31.576829	101.033320
27829		5.340870	1.265323	8.542518	-0.139376	0.002848	0.340199	0.006548	0.015976	-0.004056	0.173828	-0.192871	-0.571777	0.053416	0.012649	0.085421	0.596766	0.249666	-0.123939	0.752447	7.518309	-31.577130	101.035406
27830		5.287385	1.250787	8.568540	-0.110684	-0.050726	0.332557	0.006482	0.017190	-0.005016	0.171631	-0.197266	-0.567139	0.052882	0.012504	0.085681	0.596769	0.249667	-0.123933	0.752445	7.519043	-31.576724	101.034795
27831		5.302005	1.222235	8.561328	-0.087401	-0.027538	0.330934	0.006415	0.018404	-0.005976	0.171631	-0.195068	-0.571777	0.053028	0.012218	0.085609	0.596766	0.249658	-0.123927	0.752452	7.518682	-31.575501	101.035814
27832		5.305710	1.251554	8.543430	-0.120103	-0.023000	0.321028	0.006349	0.019618	-0.006935	0.166992	-0.195068	-0.576172	0.053066	0.012511	0.085429	0.596771	0.249652	-0.123909	0.752453	7.520007	-31.573561	101.035175
27833		5.334425	1.268765	8.546033	-0.140774	-0.004434	0.340179	0.006132	0.017478	-0.007161	0.166992	-0.195068	-0.569580	0.053352	0.012683	0.085456	0.596772	0.249647	-0.123905	0.752454	7.519941	-31.572776	101.035322
27834		5.325839	1.246732	8.541971	-0.119035	-0.003961	0.329797	0.003982	0.015604	-0.007258	0.166992	-0.195068	-0.573975	0.053266	0.012464	0.085416	0.596780	0.249650	-0.123909	0.752446	7.520155	-31.573311	101.033865
27835		5.331293	1.270382	8.547748	-0.141465	-0.008113	0.340167	0.006641	0.020542	-0.005749	0.173828	-0.192871	-0.573975	0.053322	0.012699	0.085472	0.596776	0.249634	-0.123896	0.752457	7.519746	-31.570891	101.035224
27836		5.322631	1.248438	8.543721	-0.119734	-0.007618	0.329787	0.005630	0.014413	-0.008573	0.173828	-0.195068	-0.569580	0.053233	0.012480	0.085434	0.596789	0.249646	-0.123897	0.752442	7.521387	-31.571895	101.032459
27837		5.320980	1.249280	8.544627	-0.120186	-0.009453	0.329780	0.004644	0.022021	-0.006580	0.171631	-0.192871	-0.569580	0.053220	0.012489	0.085441	0.596792	0.249619	-0.123885	0.752451	7.520056	-31.568573	101.033393
27838		5.320958	1.244614	8.569247	-0.109949	-0.019920	0.350047	0.007852	0.015073	-0.007514	0.173828	-0.192871	-0.571777	0.053217	0.012441	0.085689	0.596798	0.249633	-0.123876	0.752443	7.522599	-31.569144	101.031475
27839		5.294472	1.257608	8.549511	-0.122641	-0.035787	0.320961	0.004495	0.018666	-0.005846	0.171631	-0.192871	-0.565186	0.052953	0.012573	0.085490	0.596797	0.249618	-0.123876	0.752449	7.521081	-31.567782	101.032603
27840		5.316124	1.251853	8.547272	-0.121135	-0.014880	0.329762	0.006429	0.018401	-0.005974	0.166992	-0.195068	-0.571777	0.053169	0.012514	0.085468	0.596802	0.249615	-0.123864	0.752448	7.522099	-31.566570	101.031794
27841		5.339496	1.240679	8.568685	-0.109351	-0.002697	0.358837	0.008429	0.016922	-0.005141	0.171387	-0.190674	-0.571777	0.053403	0.012402	0.085683	0.596792	0.249617	-0.123856	0.752456	7.522670	-31.566252	101.033239
27842		5.337866	1.241722	8.569550	-0.109600	-0.004528	0.358834	0.008299	0.019350	-0.007061	0.171631	-0.195068	-0.569580	0.053387	0.012412	0.085691	0.596800	0.249618	-0.123834	0.752454	7.525068	-31.564592	101.031761
27843		5.311312	1.254795	8.549832	-0.122288	-0.020376	0.329739	0.006214	0.016261	-0.006199	0.173828	-0.192871	-0.576172	0.053120	0.012544	0.085494	0.596796	0.249617	-0.123834	0.752457	7.524769	-31.564571	101.032441
27844		5.311356	1.250137	8.574398	-0.112058	-0.030872	0.349997	0.006084	0.018688	-0.008120	0.171387	-0.190674	-0.573975	0.053122	0.012497	0.085739	0.596809	0.249613	-0.123821	0.752450	7.526312	-31.563084	101.030348
27845		5.279307	1.234719	8.573555	-0.092284	-0.053069	0.330790	0.006437	0.018400	-0.005973	0.169434	-0.197266	-0.564941	0.052801	0.012343	0.085731	0.596806	0.249604	-0.123814	0.752457	7.525964	-31.561865	101.031367
27846		5.308015	1.251831	8.576220	-0.112757	-0.034527	0.349977	0.004506	0.018663	-0.005846	0.174072	-0.199463	-0.571533	0.053089	0.012515	0.085758	0.596811	0.249595	-0.123809	0.752456	7.525832	-31.560609	101.030926
27847		5.297728	1.235419	8.548498	-0.101706	-0.025324	0.319342	0.008087	0.017209	-0.007285	0.171631	-0.197266	-0.571533	0.052985	0.012349	0.085481	0.596810	0.249597	-0.123798	0.752458	7.526942	-31.559967	101.030966
27848		5.325084	1.258235	8.527275	-0.132648	0.001935	0.318280	0.006352	0.013832	-0.004278	0.169434	-0.195068	-0.571777	0.053257	0.012579	0.085269	0.596798	0.249611	-0.123800	0.752462	7.527623	-31.561488	101.032027
27849		5.316789	1.236272	8.523046	-0.111118	0.002445	0.307914	0.007935	0.013856	-0.006550	0.173828	-0.197266	-0.564941	0.053174	0.012358	0.085227	0.596792	0.249625	-0.123800	0.752463	7.528545	-31.562807	101.032261
27850		5.302226	1.255603	8.579249	-0.114139	-0.041808	0.349934	0.008312	0.019347	-0.007059	0.169189	-0.188477	-0.569580	0.053031	0.012551	0.085788	0.596795	0.249626	-0.123776	0.752464	7.531037	-31.561004	101.031571
27851		5.315393	1.232829	8.548330	-0.101334	-0.009899	0.328163	0.007938	0.013855	-0.006549	0.176270	-0.197266	-0.569336	0.053160	0.012323	0.085480	0.596789	0.249639	-0.123776	0.752465	7.531960	-31.562323	101.031806
27852		5.321204	1.256763	8.553814	-0.123570	-0.014046	0.338516	0.010222	0.013303	-0.004528	0.171387	-0.188477	-0.574219	0.053218	0.012562	0.085535	0.596781	0.249665	-0.123768	0.752463	7.534858	-31.564128	101.031477
27853		5.336190	1.228388	8.546506	-0.100288	0.009149	0.337016	0.005943	0.015332	-0.007385	0.171631	-0.195068	-0.571777	0.053369	0.012279	0.085461	0.596782	0.249668	-0.123771	0.752462	7.534861	-31.564546	101.031284
27854		5.303883	1.282659	8.586829	-0.137541	-0.051459	0.360240	0.009875	0.013590	-0.006674	0.176025	-0.192871	-0.573975	0.053045	0.012821	0.085865	0.596785	0.249693	-0.123761	0.752452	7.538241	-31.566120	101.029217
27855		5.315673	1.265501	8.532071	-0.135205	-0.010805	0.318241	0.007879	0.015067	-0.007510	0.171631	-0.195068	-0.573975	0.053164	0.012650	0.085317	0.596783	0.249702	-0.123757	0.752451	7.539410	-31.566678	101.028918
27856		5.287169	1.239116	8.578399	-0.094280	-0.050392	0.339507	0.007944	0.013854	-0.006549	0.169189	-0.190674	-0.569580	0.052878	0.012386	0.085781	0.596786	0.249721	-0.123753	0.752444	7.541669	-31.568026	101.027382
27857		5.307540	1.239325	8.552269	-0.103455	-0.020816	0.328125	0.012318	0.016391	-0.005387	0.180420	-0.192871	-0.571777	0.053083	0.012387	0.085519	0.596771	0.249737	-0.123731	0.752453	7.544579	-31.567992	101.028614
27858		5.311624	1.268975	8.534076	-0.136172	-0.016221	0.318220	0.007314	0.013214	-0.009881	0.169189	-0.190674	-0.576172	0.053123	0.012684	0.085338	0.596790	0.249758	-0.123728	0.752432	7.547642	-31.569384	101.024377
27859		5.297861	1.218745	8.548718	-0.082182	-0.022077	0.317762	0.005666	0.014403	-0.008571	0.171631	-0.192871	-0.571777	0.052985	0.012183	0.085484	0.596794	0.249763	-0.123733	0.752426	7.547944	-31.570239	101.023311
27860		5.334004	1.259047	8.555992	-0.124664	-0.005957	0.347343	0.012513	0.012752	-0.002503	0.169434	-0.195068	-0.567139	0.053346	0.012584	0.085557	0.596778	0.249798	-0.123722	0.752429	7.551403	-31.572655	101.023926
27861		5.301009	1.249347	8.530965	-0.115346	-0.019344	0.307849	0.007446	0.010787	-0.007959	0.173828	-0.195068	-0.571777	0.053015	0.012488	0.085307	0.596776	0.249822	-0.123732	0.752421	7.552678	-31.575611	101.022948
27862		5.324869	1.238435	8.552115	-0.103377	-0.007234	0.336987	0.009665	0.011449	-0.006897	0.173828	-0.197266	-0.575928	0.053254	0.012378	0.085519	0.596773	0.249856	-0.123727	0.752413	7.556204	-31.578319	101.021373
27863		5.299020	1.251615	8.531868	-0.116043	-0.022975	0.307833	0.009793	0.009024	-0.004975	0.169434	-0.195068	-0.571777	0.052994	0.012511	0.085317	0.596756	0.249892	-0.123737	0.752413	7.557864	-31.582501	101.022228
27864		5.322971	1.240732	8.552964	-0.104076	-0.010884	0.336977	0.009667	0.011449	-0.006897	0.169189	-0.190674	-0.571777	0.053235	0.012401	0.085527	0.596753	0.249926	-0.123732	0.752405	7.561381	-31.585256	101.020761
27865		5.320442	1.247528	8.529649	-0.114994	-0.003952	0.316730	0.011381	0.009046	-0.007245	0.173584	-0.190674	-0.567383	0.053209	0.012469	0.085295	0.596742	0.249969	-0.123733	0.752399	7.564744	-31.589254	101.020104
27866		5.312607	1.225814	8.525136	-0.093267	-0.003383	0.306386	0.007577	0.008360	-0.006037	0.171387	-0.190674	-0.571777	0.053130	0.012253	0.085250	0.596744	0.250006	-0.123750	0.752383	7.566810	-31.593806	101.017808
27867		5.350494	1.260547	8.556030	-0.125486	0.003915	0.356218	0.007956	0.013851	-0.006549	0.173828	-0.192871	-0.573975	0.053511	0.012600	0.085557	0.596738	0.250019	-0.123750	0.752383	7.567744	-31.595128	101.018040
27868		5.324297	1.273549	8.536009	-0.137958	-0.011773	0.327053	0.005676	0.014399	-0.008573	0.173828	-0.192871	-0.569580	0.053250	0.012731	0.085357	0.596754	0.250030	-0.123752	0.752366	7.569325	-31.596045	101.014712
27869		5.340909	1.239602	8.552503	-0.104213	0.002644	0.345874	0.008305	0.013565	-0.004402	0.178223	-0.195068	-0.567139	0.053415	0.012391	0.085522	0.596739	0.250044	-0.123755	0.752373	7.569722	-31.597691	101.016351
27870		5.316357	1.247045	8.556159	-0.106215	-0.021782	0.336937	0.008306	0.013564	-0.004402	0.169189	-0.192871	-0.573975	0.053170	0.012466	0.085559	0.596733	0.250063	-0.123752	0.752372	7.571475	-31.599200	101.016314
27871		5.322051	1.270873	8.561686	-0.128658	-0.026004	0.347262	0.008528	0.015703	-0.004178	0.169434	-0.197266	-0.569336	0.053227	0.012704	0.085613	0.596718	0.250070	-0.123747	0.752382	7.571822	-31.599649	101.018291
27872		5.312100	1.254365	8.533844	-0.117376	-0.016650	0.316690	0.006595	0.015966	-0.004055	0.171387	-0.190674	-0.573975	0.053128	0.012540	0.085335	0.596712	0.250076	-0.123745	0.752386	7.572355	-31.600114	101.018962
27873		5.317661	1.278091	8.539466	-0.139818	-0.020871	0.327013	0.008814	0.016630	-0.002991	0.171631	-0.192871	-0.571777	0.053184	0.012776	0.085391	0.596693	0.250080	-0.123739	0.752400	7.572409	-31.600126	101.021812
27874		5.334305	1.244198	8.555957	-0.105886	-0.006447	0.345855	0.007461	0.010782	-0.007958	0.169434	-0.199463	-0.573730	0.053348	0.012437	0.085557	0.596703	0.250109	-0.123746	0.752382	7.574957	-31.603184	101.018577
27875		5.309633	1.251444	8.559691	-0.108082	-0.030931	0.336893	0.002950	0.018630	-0.003586	0.171631	-0.192871	-0.573975	0.053105	0.012512	0.085592	0.596695	0.250088	-0.123754	0.752394	7.571766	-31.602015	101.021208
27876		5.329926	1.251150	8.533783	-0.117045	-0.001299	0.325618	0.008534	0.015702	-0.004176	0.173828	-0.192871	-0.567383	0.053306	0.012507	0.085334	0.596685	0.250101	-0.123745	0.752399	7.573469	-31.602594	101.021928
27877		5.299767	1.230016	8.556412	-0.086790	-0.032191	0.326547	0.004728	0.015016	-0.002971	0.173584	-0.188477	-0.569580	0.053004	0.012297	0.085560	0.596670	0.250098	-0.123758	0.752409	7.571249	-31.603525	101.024649
27878		5.330253	1.241583	8.582750	-0.096850	-0.022552	0.366056	0.006602	0.015964	-0.004054	0.169434	-0.195068	-0.578369	0.053310	0.012412	0.085824	0.596671	0.250102	-0.123758	0.752407	7.571704	-31.603797	101.024324
27879		5.325913	1.253372	8.535962	-0.118214	-0.006757	0.325602	0.006099	0.012898	-0.005463	0.171631	-0.195068	-0.569580	0.053265	0.012530	0.085357	0.596663	0.250113	-0.123769	0.752408	7.571239	-31.605742	101.025194
27880		5.331669	1.277092	8.541455	-0.140459	-0.010977	0.335922	0.006038	0.014110	-0.006425	0.171631	-0.192871	-0.573975	0.053323	0.012767	0.085411	0.596665	0.250126	-0.123772	0.752402	7.572340	-31.607061	101.024017
27881		5.324974	1.249549	8.560988	-0.108464	-0.019236	0.345811	0.006101	0.012898	-0.005463	0.169434	-0.195068	-0.571777	0.053256	0.012491	0.085607	0.596657	0.250137	-0.123784	0.752403	7.571876	-31.609007	101.024887
27882		5.291778	1.239673	8.536079	-0.098920	-0.032456	0.306281	0.010071	0.016934	-0.007405	0.171387	-0.188477	-0.567383	0.052925	0.012390	0.085357	0.596661	0.250151	-0.123762	0.752398	7.575480	-31.608637	101.023090
27883		5.335442	1.233077	8.507187	-0.106342	0.019810	0.304029	0.002393	0.016773	-0.005959	0.171387	-0.190674	-0.571777	0.053362	0.012328	0.085068	0.596662	0.250137	-0.123775	0.752400	7.572885	-31.608344	101.023973
27884		5.320621	1.252339	8.563286	-0.109442	-0.024706	0.345789	0.010135	0.015722	-0.006442	0.173584	-0.188477	-0.574219	0.053213	0.012517	0.085629	0.596668	0.250154	-0.123761	0.752392	7.576167	-31.608680	101.021784
27885		5.319108	1.253339	8.564080	-0.109894	-0.026545	0.345780	0.006832	0.018102	-0.003830	0.171631	-0.197266	-0.569336	0.053199	0.012529	0.085636	0.596656	0.250146	-0.123756	0.752405	7.575310	-31.607793	101.024205
27886		5.324465	1.277147	8.569794	-0.132152	-0.030762	0.356088	0.008425	0.018123	-0.006098	0.169189	-0.192871	-0.565186	0.053253	0.012766	0.085694	0.596661	0.250149	-0.123739	0.752403	7.577437	-31.606757	101.023125
27887		5.315913	1.255193	8.565792	-0.110608	-0.030188	0.345762	0.006552	0.017174	-0.005015	0.171631	-0.195068	-0.571777	0.053167	0.012548	0.085654	0.596653	0.250145	-0.123737	0.752411	7.576877	-31.606307	101.024673
27888		5.314379	1.256021	8.566622	-0.110862	-0.032000	0.345753	0.006554	0.017173	-0.005015	0.173828	-0.197266	-0.560547	0.053151	0.012556	0.085662	0.596652	0.250147	-0.123730	0.752412	7.577645	-31.605933	101.024646
27889		5.314623	1.251533	8.590993	-0.100866	-0.042693	0.365953	0.009760	0.010232	-0.005925	0.171631	-0.197266	-0.575928	0.053151	0.012510	0.085908	0.596639	0.250179	-0.123735	0.752411	7.579563	-31.609358	101.024971
27890		5.276232	1.283294	8.625374	-0.116137	-0.101009	0.378429	0.016412	-0.008495	-0.003895	0.171631	-0.192871	-0.578369	0.052759	0.012825	0.086257	0.596601	0.250306	-0.123766	0.752394	7.586859	-31.623538	101.024141
27891		5.226945	1.219471	8.762373	-0.013388	-0.196421	0.460992	0.017949	-0.048710	-0.009457	0.167236	-0.197510	-0.571533	0.052249	0.012184	0.087638	0.596554	0.250587	-0.123912	0.752313	7.597455	-31.660170	101.016868
27892		5.330665	1.274402	8.614086	-0.113371	-0.059453	0.396435	0.026704	-0.077109	-0.001992	0.171631	-0.195068	-0.571777	0.053274	0.012732	0.086163	0.596458	0.251002	-0.124115	0.752218	7.613091	-31.713666	101.010495
27893		5.407784	1.302811	8.510634	-0.172395	0.039600	0.352993	0.037854	-0.069002	-0.010415	0.171631	-0.195068	-0.576172	0.054049	0.013009	0.085127	0.596378	0.251418	-0.124245	0.752121	7.636410	-31.761745	101.000737
27894		5.385555	1.278915	8.552623	-0.131502	-0.000139	0.374063	0.032236	-0.051124	-0.006004	0.171387	-0.190674	-0.576172	0.053834	0.012774	0.085542	0.596306	0.251754	-0.124344	0.752049	7.655434	-31.800037	100.993857
27895		5.419193	1.234605	8.486476	-0.105375	0.065855	0.331116	0.039621	-0.044913	-0.012268	0.169434	-0.195068	-0.576172	0.054174	0.012326	0.084879	0.596245	0.252086	-0.124394	0.751978	7.679314	-31.834291	100.984976
27896		5.387876	1.303100	8.475766	-0.163557	0.022838	0.313448	0.044352	-0.029901	-0.015260	0.169434	-0.195068	-0.573975	0.053867	0.013008	0.084769	0.596211	0.252382	-0.124374	0.751909	7.707483	-31.859873	100.973123
27897		5.422126	1.204710	8.548304	-0.052766	0.037988	0.381431	0.049641	-0.026779	-0.020663	0.169678	-0.204102	-0.575684	0.054211	0.012020	0.085493	0.596180	0.252682	-0.124322	0.751841	7.739230	-31.883178	100.960229
27898		5.468181	1.208927	8.492250	-0.070428	0.099164	0.359138	0.066908	-0.039265	-0.029428	0.165039	-0.199707	-0.569336	0.054667	0.012053	0.084937	0.596154	0.253091	-0.124223	0.751740	7.785966	-31.912940	100.939548
27899		5.449014	1.217327	8.516321	-0.062175	0.065825	0.370296	0.064893	-0.030819	-0.033905	0.169434	-0.195068	-0.573975	0.054479	0.012136	0.085176	0.596151	0.253460	-0.124108	0.751638	7.831367	-31.937491	100.917379
27900		5.440742	1.212704	8.461799	-0.061309	0.084231	0.319613	0.069666	-0.022789	-0.033275	0.162842	-0.199707	-0.573730	0.054400	0.012089	0.084628	0.596150	0.253818	-0.123947	0.751545	7.880245	-31.957620	100.895081
27901		5.473446	1.231306	8.485641	-0.071587	0.093661	0.359182	0.062756	-0.006208	-0.035553	0.167236	-0.197266	-0.575928	0.054734	0.012277	0.084862	0.596170	0.254088	-0.123764	0.751467	7.923838	-31.968043	100.874038
27902		5.406837	1.291295	8.451011	-0.119920	0.039375	0.301905	0.057540	0.002203	-0.035497	0.164795	-0.195068	-0.578369	0.054072	0.012879	0.084513	0.596208	0.254318	-0.123572	0.751391	7.965329	-31.973903	100.852576
27903		5.410860	1.281824	8.521838	-0.089053	0.010828	0.362486	0.052233	0.006056	-0.033728	0.169434	-0.199463	-0.575928	0.054113	0.012787	0.085220	0.596242	0.254509	-0.123395	0.751328	8.001652	-31.977487	100.833884
27904		5.372030	1.362283	8.465718	-0.168100	-0.014370	0.304349	0.043666	0.011089	-0.028387	0.165039	-0.201904	-0.573730	0.053727	0.013597	0.084657	0.596280	0.254659	-0.123238	0.751274	8.032178	-31.978804	100.817466
27905		5.365052	1.338838	8.485126	-0.136110	-0.022666	0.314237	0.037465	0.020143	-0.022740	0.162842	-0.199707	-0.575928	0.053661	0.013366	0.084848	0.596301	0.254747	-0.123089	0.751252	8.055445	-31.975261	100.807449
27906		5.321689	1.383362	8.472688	-0.172258	-0.063232	0.286166	0.021444	0.020183	-0.012082	0.165039	-0.199707	-0.573730	0.053226	0.013821	0.084723	0.596304	0.254788	-0.123007	0.751248	8.067097	-31.972808	100.803692
27907		5.296476	1.391924	8.476496	-0.174438	-0.087655	0.277059	0.018881	0.020814	-0.004213	0.166992	-0.195068	-0.576172	0.052974	0.013910	0.084761	0.596280	0.254806	-0.122949	0.751271	8.073121	-31.970371	100.806131
27908		5.317958	1.386264	8.474556	-0.172966	-0.066886	0.286130	0.001404	0.024191	0.007959	0.169434	-0.199707	-0.567139	0.053189	0.013864	0.084739	0.596242	0.254758	-0.122958	0.751315	8.065908	-31.967191	100.815247
27909		5.316124	1.385591	8.475816	-0.173414	-0.068715	0.286110	-0.006514	0.021887	0.009197	0.173828	-0.195068	-0.573975	0.053170	0.013861	0.084752	0.596200	0.254689	-0.123010	0.751364	8.052581	-31.965221	100.826754
27910		5.341849	1.297367	8.481059	-0.093768	-0.026869	0.293615	-0.009898	0.025482	0.010836	0.165039	-0.199707	-0.571533	0.053429	0.012981	0.084803	0.596167	0.254599	-0.123060	0.751412	8.037851	-31.961254	100.837983
27911		5.316437	1.302143	8.485576	-0.095947	-0.051286	0.284502	-0.013153	0.026661	0.014408	0.167236	-0.199707	-0.569336	0.053175	0.013031	0.084848	0.596117	0.254489	-0.123128	0.751478	8.018640	-31.956988	100.853423
27912		5.345972	1.311358	8.512795	-0.106034	-0.041913	0.324065	-0.016942	0.031738	0.012932	0.171631	-0.195068	-0.576172	0.053472	0.013124	0.085118	0.596084	0.254355	-0.123188	0.751540	7.998878	-31.949843	100.867328
27913		5.333472	1.297076	8.462424	-0.105343	-0.023401	0.273408	-0.013333	0.030282	0.011509	0.165039	-0.199707	-0.575928	0.053347	0.012979	0.084615	0.596047	0.254233	-0.123242	0.751602	7.980414	-31.943283	100.881163
27914		5.365139	1.231387	8.472957	-0.047703	0.015940	0.291247	-0.013425	0.038459	0.006894	0.169678	-0.204102	-0.571289	0.053667	0.012321	0.084718	0.596042	0.254087	-0.123263	0.751652	7.964380	-31.931829	100.890886
27915		5.342789	1.270102	8.434992	-0.092747	0.006960	0.252052	-0.008187	0.030046	0.006854	0.169434	-0.195068	-0.578369	0.053440	0.012706	0.084341	0.596016	0.253983	-0.123293	0.751703	7.950530	-31.925027	100.901580
27916		5.346959	1.292042	8.441557	-0.115006	0.002697	0.262331	-0.007870	0.036740	0.005354	0.164795	-0.195068	-0.576172	0.053485	0.012925	0.084405	0.596004	0.253862	-0.123295	0.751753	7.938379	-31.914355	100.910706
27917		5.331415	1.239857	8.458174	-0.061010	-0.003140	0.261945	-0.009710	0.041556	0.003757	0.165039	-0.199707	-0.575928	0.053331	0.012404	0.084570	0.595998	0.253712	-0.123292	0.751808	7.924191	-31.900772	100.920395
27918		5.309737	1.273539	8.444491	-0.095429	-0.021064	0.242913	-0.011889	0.046646	0.000013	0.171875	-0.204102	-0.575684	0.053117	0.012740	0.084432	0.596020	0.253546	-0.123275	0.751849	7.911078	-31.884274	100.926398
27919		5.303051	1.347266	8.464263	-0.163623	-0.052885	0.264596	-0.023244	0.049145	0.001908	0.174072	-0.199463	-0.573730	0.053051	0.013483	0.084628	0.596044	0.253329	-0.123298	0.751900	7.889428	-31.866233	100.935542
27920		5.324525	1.263220	8.447565	-0.094395	-0.002081	0.252039	-0.030454	0.059022	0.001100	0.169434	-0.199463	-0.571533	0.053270	0.012645	0.084458	0.596087	0.253059	-0.123310	0.751955	7.864831	-31.842439	100.944439
27921		5.352233	1.266484	8.500803	-0.094269	-0.001753	0.311795	-0.032293	0.070806	-0.004140	0.167236	-0.197510	-0.569336	0.053553	0.012677	0.084987	0.596157	0.252737	-0.123295	0.752010	7.839093	-31.811625	100.951517
27922		5.392150	1.251508	8.499672	-0.091068	0.041575	0.330090	-0.025696	0.087960	-0.009192	0.171631	-0.197266	-0.571533	0.053959	0.012524	0.084971	0.596253	0.252380	-0.123192	0.752071	7.819423	-31.770763	100.955713
27923		5.314060	1.269616	8.513442	-0.096694	-0.027963	0.302634	-0.018308	0.095364	-0.016410	0.169434	-0.197266	-0.571533	0.053182	0.012700	0.085108	0.596367	0.252014	-0.123036	0.752128	7.804849	-31.725049	100.956818
27924		5.312156	1.292100	8.523739	-0.118959	-0.032250	0.312896	-0.013614	0.105805	-0.017692	0.169434	-0.197266	-0.569336	0.053168	0.012922	0.085208	0.596493	0.251630	-0.122824	0.752192	7.794214	-31.673356	100.956674
27925		5.292124	1.235616	8.567399	-0.054541	-0.047078	0.332679	-0.005975	0.101407	-0.017398	0.174072	-0.199463	-0.573730	0.052966	0.012354	0.085647	0.596599	0.251279	-0.122602	0.752261	7.786775	-31.624134	100.957650
27926		5.335611	1.251652	8.548165	-0.083779	0.002741	0.341104	-0.002277	0.098738	-0.017840	0.173828	-0.197266	-0.564941	0.053399	0.012513	0.085455	0.596704	0.250956	-0.122368	0.752324	7.783063	-31.576430	100.957071
27927		5.325395	1.257751	8.529809	-0.094653	0.009895	0.320937	-0.001509	0.103937	-0.016212	0.176270	-0.199463	-0.569336	0.053299	0.012574	0.085270	0.596801	0.250608	-0.122123	0.752403	7.777656	-31.525863	100.959056
27928		5.344069	1.171850	8.539163	-0.015007	0.051723	0.328649	0.005790	0.099819	-0.018057	0.178223	-0.195068	-0.567139	0.053484	0.011711	0.085365	0.596896	0.250305	-0.121853	0.752472	7.778630	-31.477380	100.958591
27929		5.333959	1.243897	8.585043	-0.072790	0.010845	0.370433	0.018021	0.093338	-0.024749	0.171387	-0.190674	-0.569580	0.053381	0.012425	0.085827	0.596994	0.250060	-0.121556	0.752524	7.787884	-31.432168	100.953931
27930		5.314657	1.304593	8.578213	-0.129228	-0.009506	0.361617	0.021662	0.091880	-0.026149	0.176025	-0.195068	-0.571777	0.053188	0.013030	0.085759	0.597104	0.249837	-0.121244	0.752561	7.800972	-31.387656	100.945997
27931		5.305604	1.313442	8.558715	-0.140100	-0.002342	0.341451	0.026340	0.081612	-0.028534	0.173828	-0.197266	-0.571533	0.053093	0.013116	0.085567	0.597199	0.249664	-0.120946	0.752591	7.816838	-31.348805	100.937780
27932		5.305277	1.340070	8.567356	-0.162375	-0.006652	0.351708	0.026573	0.076778	-0.024670	0.176270	-0.201660	-0.569336	0.053087	0.013383	0.085655	0.597283	0.249512	-0.120661	0.752620	7.832967	-31.313046	100.930144
27933		5.276428	1.344855	8.597311	-0.154128	-0.040057	0.362661	0.030079	0.070773	-0.024355	0.176270	-0.197266	-0.562744	0.052796	0.013429	0.085956	0.597351	0.249388	-0.120386	0.752652	7.850023	-31.280669	100.923744
27934		5.292085	1.347455	8.574354	-0.163074	-0.010285	0.351694	0.024186	0.073956	-0.025964	0.180664	-0.197266	-0.569336	0.052954	0.013457	0.085726	0.597435	0.249242	-0.120114	0.752677	7.865463	-31.246300	100.915993
27935		5.283474	1.247331	8.579658	-0.063336	0.011430	0.340013	0.025713	0.061250	-0.021896	0.182861	-0.197266	-0.567139	0.052862	0.012456	0.085782	0.597493	0.249139	-0.119887	0.752701	7.879606	-31.219518	100.910375
27936		5.268452	1.303295	8.594424	-0.109347	-0.017896	0.351318	0.030049	0.051263	-0.026420	0.176270	-0.201660	-0.566895	0.052708	0.013013	0.085933	0.597563	0.249094	-0.119661	0.752697	7.899547	-31.197831	100.899524
27937		5.250523	1.261386	8.586956	-0.065770	-0.014715	0.330801	0.031373	0.043383	-0.026213	0.180664	-0.197266	-0.567139	0.052526	0.012594	0.085860	0.597619	0.249078	-0.119461	0.752689	7.919254	-31.180845	100.889418
27938		5.221206	1.341897	8.631937	-0.125085	-0.078154	0.363277	0.035412	0.039248	-0.023521	0.180664	-0.197266	-0.569336	0.052231	0.013398	0.086311	0.597660	0.249094	-0.119254	0.752684	7.941882	-31.166336	100.879989
27939		5.216810	1.351466	8.609423	-0.135950	-0.070962	0.343109	0.036825	0.028959	-0.021379	0.180664	-0.199463	-0.562744	0.052182	0.013493	0.086089	0.597683	0.249146	-0.119082	0.752676	7.963731	-31.157911	100.871770
27940		5.242321	1.382521	8.564857	-0.177335	-0.034636	0.322273	0.031060	0.020363	-0.015489	0.180908	-0.201660	-0.564697	0.052433	0.013808	0.085645	0.597690	0.249214	-0.118958	0.752667	7.981981	-31.154665	100.865599
27941		5.263976	1.379576	8.562871	-0.176066	-0.013934	0.331485	0.031205	0.016747	-0.012589	0.176270	-0.197266	-0.567139	0.052648	0.013779	0.085626	0.597679	0.249290	-0.118855	0.752667	7.998179	-31.153864	100.862079
27942		5.252325	1.434880	8.575441	-0.222066	-0.043298	0.342745	0.026249	0.019113	-0.007762	0.176025	-0.195068	-0.560547	0.052532	0.014336	0.085751	0.597661	0.249344	-0.118762	0.752678	8.011100	-31.152029	100.861150
27943		5.296165	1.429528	8.547414	-0.229495	0.008980	0.341054	0.015415	0.023457	-0.003596	0.185303	-0.199463	-0.569336	0.052972	0.014288	0.085469	0.597640	0.249342	-0.118709	0.752704	8.014843	-31.148139	100.864218
27944		5.286907	1.407600	8.544057	-0.207743	0.009733	0.330803	0.007160	0.035161	0.000150	0.185059	-0.195068	-0.560547	0.052884	0.014073	0.085432	0.597629	0.249274	-0.118651	0.752744	8.013290	-31.137743	100.869444
27945		5.284883	1.402254	8.569834	-0.197780	-0.001160	0.350936	-0.005297	0.039491	0.006565	0.182861	-0.197266	-0.571533	0.052865	0.014027	0.085688	0.597606	0.249143	-0.118641	0.752808	8.000912	-31.125566	100.880741
27946		5.273302	1.383441	8.543750	-0.186446	0.008673	0.320547	-0.009660	0.050678	0.010107	0.180664	-0.195068	-0.567139	0.052754	0.013841	0.085423	0.597590	0.248959	-0.118613	0.752885	7.985538	-31.107048	100.893648
27947		5.260387	1.314727	8.632148	-0.101220	-0.024351	0.380610	-0.015483	0.043290	0.015028	0.178223	-0.195068	-0.564941	0.052622	0.013158	0.086309	0.597550	0.248779	-0.118641	0.752973	7.964257	-31.093382	100.910894
27948		5.262328	1.340237	8.615771	-0.133917	-0.019614	0.370707	-0.028841	0.047230	0.015950	0.187500	-0.197266	-0.564941	0.052643	0.013419	0.086143	0.597535	0.248547	-0.118704	0.753051	7.936045	-31.077481	100.927130
27949		5.256223	1.347302	8.571098	-0.155183	-0.003319	0.330425	-0.029950	0.050283	0.019605	0.180420	-0.192871	-0.565186	0.052582	0.013491	0.085696	0.597499	0.248295	-0.118771	0.753152	7.904596	-31.060195	100.948032
27950		5.222866	1.321739	8.595747	-0.124743	-0.034133	0.331053	-0.031415	0.054811	0.020143	0.180420	-0.188232	-0.567383	0.052251	0.013236	0.085941	0.597476	0.248023	-0.118825	0.753251	7.873160	-31.040111	100.967785
27951		5.247211	1.339526	8.577836	-0.155902	-0.006909	0.330412	-0.038197	0.063182	0.022384	0.180664	-0.197266	-0.560547	0.052498	0.013418	0.085759	0.597448	0.247696	-0.118888	0.753372	7.835459	-31.015700	100.991674
27952		5.239832	1.345434	8.534199	-0.176988	0.009472	0.290142	-0.041002	0.068625	0.026360	0.173828	-0.192871	-0.562988	0.052426	0.013479	0.085321	0.597424	0.247341	-0.118947	0.753498	7.795753	-30.988388	101.016344
27953		5.234743	1.334573	8.562622	-0.167028	-0.001442	0.310267	-0.052258	0.083630	0.033859	0.182861	-0.195068	-0.560547	0.052381	0.013377	0.085601	0.597381	0.246887	-0.119016	0.753669	7.745184	-30.953228	101.049621
27954		5.200766	1.350124	8.499280	-0.200217	0.001515	0.240594	-0.061162	0.105053	0.039774	0.180664	-0.197266	-0.573730	0.052050	0.013538	0.084961	0.597349	0.246328	-0.119057	0.753871	7.687809	-30.906305	101.086905
27955		5.165701	1.304535	8.598526	-0.138735	-0.056641	0.301582	-0.067248	0.112863	0.046324	0.180420	-0.192871	-0.567383	0.051702	0.013086	0.085952	0.597295	0.245712	-0.119110	0.754107	7.623188	-30.855438	101.130916
27956		5.147688	1.283575	8.552990	-0.137786	-0.037704	0.251083	-0.077779	0.120532	0.049726	0.178223	-0.195068	-0.562744	0.051525	0.012882	0.085494	0.597255	0.245038	-0.119180	0.754347	7.552330	-30.800460	101.176036
27957		5.075322	1.310806	8.595938	-0.154980	-0.118708	0.253550	-0.082604	0.121667	0.055513	0.187256	-0.192627	-0.567383	0.050802	0.013158	0.085923	0.597190	0.244338	-0.119276	0.754610	7.475580	-30.745188	101.226694
27958		5.082449	1.271344	8.595851	-0.131509	-0.095415	0.252592	-0.084027	0.118011	0.060661	0.180420	-0.188477	-0.560791	0.050871	0.012765	0.085923	0.597113	0.243648	-0.119390	0.754876	7.397787	-30.692219	101.278684
27959		5.113586	1.225151	8.593141	-0.106507	-0.049668	0.260942	-0.084275	0.108897	0.064073	0.175781	-0.188477	-0.565186	0.051179	0.012304	0.085898	0.597009	0.242985	-0.119541	0.755148	7.317948	-30.644713	101.333677
27960		5.076970	1.187624	8.644176	-0.065664	-0.089648	0.281643	-0.077895	0.095033	0.062353	0.180176	-0.186035	-0.563232	0.050807	0.011926	0.086413	0.596910	0.242399	-0.119705	0.755388	7.244165	-30.605027	101.383615
27961		5.133598	1.188968	8.750285	-0.065128	-0.088027	0.401174	-0.072619	0.083005	0.065251	0.180420	-0.188477	-0.562988	0.051368	0.011938	0.087477	0.596772	0.241867	-0.119891	0.755638	7.171871	-30.572201	101.437034
27962		5.165598	1.159731	8.674149	-0.071160	-0.014937	0.349199	-0.071138	0.067876	0.071212	0.184814	-0.186035	-0.565430	0.051681	0.011647	0.086720	0.596616	0.241398	-0.120122	0.755875	7.100238	-30.548405	101.490277
27963		5.130690	1.133573	8.675374	-0.051290	-0.036718	0.329654	-0.070405	0.058145	0.069018	0.184814	-0.186035	-0.563232	0.051328	0.011384	0.086735	0.596446	0.240965	-0.120378	0.756107	7.029086	-30.529865	101.544025
27964		5.091363	1.074039	8.718344	0.011558	-0.074128	0.340116	-0.059075	0.045044	0.073789	0.182617	-0.186035	-0.563232	0.050929	0.010785	0.087169	0.596254	0.240614	-0.120634	0.756329	6.964491	-30.518955	101.596768
27965		5.072073	1.159097	8.792488	-0.059602	-0.149466	0.402565	-0.052700	0.001087	0.066472	0.182617	-0.186035	-0.567627	0.050717	0.011631	0.087922	0.596037	0.240451	-0.120990	0.756495	6.906703	-30.532586	101.644196
27966		5.103242	1.178423	8.747567	-0.100992	-0.113083	0.381856	-0.051832	-0.035635	0.069999	0.182617	-0.186035	-0.567627	0.051013	0.011825	0.087482	0.595800	0.240430	-0.121455	0.756614	6.850779	-30.567313	101.688124
27967		5.029752	1.052150	8.795607	0.036455	-0.174494	0.372416	-0.064854	-0.074533	0.061638	0.177979	-0.183838	-0.563232	0.050261	0.010566	0.087971	0.595570	0.240519	-0.122076	0.756667	6.790613	-30.623554	101.726445
27968		4.889311	1.383476	8.874649	-0.245220	-0.432049	0.401613	-0.053915	-0.154791	0.068695	0.180420	-0.190674	-0.565186	0.048820	0.013875	0.088781	0.595268	0.240943	-0.122903	0.756635	6.738528	-30.725965	101.760185
27969		4.466947	1.416963	9.164871	-0.141773	-0.959234	0.435043	-0.005898	-0.273282	0.133877	0.180420	-0.188477	-0.565186	0.044535	0.014202	0.091709	0.594570	0.241915	-0.123979	0.756698	6.695338	-30.900081	101.831064
27970		4.910905	1.295904	8.981927	-0.141223	-0.507914	0.492324	0.009880	-0.432142	0.179146	0.175781	-0.188477	-0.565186	0.048903	0.012998	0.089926	0.593591	0.243510	-0.125518	0.756702	6.652885	-31.167469	101.918162
27971		4.907175	1.200220	8.963005	-0.044875	-0.531127	0.462134	0.089283	-0.555364	0.225198	0.176025	-0.195068	-0.564941	0.048809	0.012017	0.089771	0.592249	0.245772	-0.127181	0.756745	6.643090	-31.508103	102.028620
27972		4.817937	1.485396	9.130924	-0.252537	-0.831862	0.581369	0.056405	-0.716214	0.252704	0.164551	-0.188477	-0.569824	0.047833	0.014889	0.091485	0.590741	0.248528	-0.129472	0.756635	6.611693	-31.941871	102.144122
27973		5.116658	1.212956	9.017646	-0.056274	-0.543315	0.611815	0.048032	-0.893639	0.297552	0.155518	-0.186523	-0.569824	0.050745	0.012184	0.090407	0.588940	0.251894	-0.132377	0.756423	6.564113	-32.479700	102.278441
27974		4.688206	1.592945	9.392013	-0.242307	-1.293097	0.722714	0.047414	-1.068953	0.351535	0.150879	-0.182129	-0.565430	0.046351	0.015989	0.094173	0.586820	0.255881	-0.135866	0.756114	6.502858	-33.120890	102.434283
27975		5.046388	1.594869	9.372123	-0.294704	-1.121325	0.887798	0.020822	-1.279318	0.428854	0.139893	-0.186523	-0.572021	0.049829	0.016046	0.094043	0.584259	0.260519	-0.140166	0.755728	6.402164	-33.886482	102.631964
27976		4.925828	1.675540	9.600130	-0.279456	-1.514901	0.997415	-0.031487	-1.474391	0.491495	0.135254	-0.186768	-0.567627	0.048507	0.016890	0.096358	0.581385	0.265684	-0.145311	0.755174	6.251937	-34.766894	102.857918
27977		5.077069	1.759774	10.004228	-0.277671	-1.815005	1.393708	-0.105729	-1.686824	0.561447	0.117188	-0.182373	-0.570068	0.049875	0.017792	0.100456	0.578126	0.271365	-0.151433	0.754453	6.032588	-35.771855	103.126802
27978		4.863404	1.867721	9.998299	-0.330852	-2.224163	1.234772	-0.205857	-1.915404	0.633110	0.108154	-0.178223	-0.563477	0.047614	0.018932	0.100423	0.574529	0.277539	-0.158680	0.753465	5.727009	-36.910364	103.435151
27979		4.929547	2.200530	10.068523	-0.639408	-2.550426	1.304804	-0.342658	-2.167292	0.717311	0.085449	-0.171875	-0.561523	0.048121	0.022352	0.101173	0.570512	0.284169	-0.167261	0.752188	5.301927	-38.195457	103.804681
27980		4.920725	2.514728	10.203584	-0.913520	-3.004780	1.357787	-0.550047	-2.440668	0.829679	0.062988	-0.169922	-0.554932	0.047852	0.025629	0.102555	0.566057	0.291102	-0.177528	0.750549	4.698090	-39.639426	104.259411
27981		4.865808	1.820481	10.077420	-0.296547	-3.076819	1.095121	-0.765477	-2.737285	0.945764	0.046875	-0.161133	-0.552979	0.047185	0.018817	0.101355	0.561096	0.298371	-0.189583	0.748468	3.892531	-41.253470	104.819578
27982		5.175653	2.284604	10.471056	-0.748128	-3.589349	1.509548	-0.952976	-3.081642	1.089442	0.019531	-0.148193	-0.542480	0.050009	0.023623	0.105379	0.555414	0.306193	-0.203467	0.745897	2.871232	-43.062369	105.522375
27983		5.508271	2.133093	10.125418	-0.807904	-3.492804	1.347324	-1.160252	-3.435325	1.300674	-0.001221	-0.135254	-0.531982	0.053191	0.022271	0.102051	0.548707	0.314438	-0.219365	0.742919	1.551928	-45.067375	106.458202
27984		5.801513	2.188802	9.789502	-1.074741	-3.533243	1.170162	-1.347558	-3.786266	1.596127	-0.035400	-0.124512	-0.525635	0.055970	0.023004	0.098815	0.540588	0.323018	-0.237286	0.739675	-0.151011	-47.256940	107.743961
27985		6.360034	2.994527	9.805300	-2.055492	-3.931194	1.405742	-1.511142	-4.193721	1.951694	-0.071777	-0.107178	-0.508545	0.061228	0.031297	0.099120	0.530639	0.332065	-0.257367	0.736150	-2.346134	-49.644178	109.514855
27986		6.135771	3.674680	9.930397	-2.754699	-4.923432	1.045439	-1.768772	-4.515549	2.377307	-0.106445	-0.083252	-0.491699	0.058651	0.038339	0.100314	0.518794	0.340847	-0.279778	0.732394	-5.250388	-52.144671	111.946367
27987		6.944976	3.304398	9.973710	-2.736859	-5.002546	1.415059	-1.945694	-4.989546	2.831855	-0.149902	-0.061768	-0.477051	0.066453	0.034978	0.101086	0.504484	0.349985	-0.304615	0.728159	-9.029719	-54.789199	115.256513
27988		7.624948	2.716074	10.070920	-2.513024	-5.254854	1.717652	-2.118166	-5.496831	3.235807	-0.188965	-0.033447	-0.449219	0.072985	0.029438	0.102442	0.487725	0.359560	-0.331744	0.723040	-13.897984	-57.517182	119.650458
27989		11.569229	2.900490	11.173429	-3.745098	-5.292074	5.185961	-2.036508	-5.957467	3.417378	-0.239258	-0.011963	-0.421387	0.111772	0.032096	0.114787	0.468798	0.370260	-0.359633	0.716798	-19.825184	-60.226354	125.204208
27990		13.212616	3.472052	11.276451	-4.975120	-6.004922	6.088070	-1.799666	-6.219951	3.518228	-0.274170	0.025391	-0.387207	0.127892	0.038032	0.116454	0.447991	0.381784	-0.386989	0.709778	-26.878093	-62.710202	132.050466
27991		13.463200	4.954248	11.764765	-6.536755	-7.992729	5.596247	-1.487499	-6.453835	3.674463	-0.313477	0.058105	-0.353027	0.129801	0.052851	0.121504	0.424940	0.393998	-0.413525	0.702274	-35.289310	-64.801106	140.469461
27992		14.026534	5.733170	12.196260	-7.505610	-9.679251	5.292136	-1.390178	-6.460450	3.859679	-0.359375	0.088379	-0.302979	0.135087	0.060839	0.125968	0.400430	0.405486	-0.439487	0.694325	-45.069461	-66.212313	150.332102
27993		14.600604	5.660640	13.221104	-7.546650	-11.715195	5.207821	-1.237187	-6.394277	4.010034	-0.394287	0.118896	-0.257568	0.140505	0.060296	0.136397	0.374630	0.416123	-0.464453	0.686132	-55.680514	-66.784276	161.120615
27994		13.709868	6.668469	14.656855	-7.848213	-14.628617	3.280996	-0.936511	-6.314690	4.190466	-0.420166	0.156250	-0.210205	0.130943	0.070170	0.150445	0.347241	0.426022	-0.487924	0.678129	-66.266198	-66.441138	172.059441
27995		13.353707	8.613534	16.618178	-8.922972	-18.073321	1.240588	-0.981205	-5.871834	4.355402	-0.444092	0.197998	-0.162842	0.126663	0.089770	0.169534	0.319956	0.433335	-0.510449	0.670291	-75.755336	-65.170948	-178.162690
27996		11.468193	19.799870	17.029272	-17.693617	-22.125899	-6.543940	-1.743844	-4.762039	3.715605	-0.460938	0.226563	-0.117432	0.106891	0.201523	0.171153	0.298945	0.436832	-0.531756	0.661094	-83.183038	-63.573441	-171.039948
27997		28.556441	25.144617	19.318431	-29.218292	-27.130487	5.390009	-2.112645	-2.296150	-0.042556	-0.467773	0.235352	-0.093262	0.283396	0.253431	0.193776	0.297505	0.441348	-0.542073	0.650277	-87.057694	-63.706369	-168.070685
27998		18.576445	20.347877	22.063519	-20.320804	-27.571830	-1.286542	-2.034166	0.989216	-2.845526	-0.471924	0.219727	-0.088379	0.189737	0.203022	0.217637	0.313856	0.442768	-0.540892	0.642562	-86.873937	-65.303972	-169.570253
27999		-0.799896	17.557188	12.663459	-12.655176	-15.957038	-17.186168	-2.409554	1.775843	-4.489209	-0.475830	0.206299	-0.079102	-0.002921	0.177184	0.124547	0.338247	0.445284	-0.535774	0.632659	-85.546689	-67.800456	-172.525109
28000		-0.616084	9.288990	9.593321	-6.498345	-11.119040	-13.390119	-2.538701	1.013269	-5.021715	-0.497803	0.194824	-0.069824	-0.003324	0.094205	0.094765	0.362344	0.451073	-0.530737	0.619321	-84.864557	-70.619636	-174.815194
28001		5.325531	2.337484	11.881219	-1.880376	-12.211065	-5.086523	-1.880482	1.010233	-5.227997	-0.501465	0.170410	-0.062256	0.054460	0.023076	0.118321	0.385257	0.458251	-0.522793	0.606853	-83.234309	-73.536606	-177.663935
28002		7.058292	-0.555173	13.933766	0.752708	-13.675131	-2.283371	-0.815539	1.781725	-5.396198	-0.507568	0.148193	-0.059326	0.071647	-0.006909	0.138729	0.407986	0.465202	-0.509305	0.598116	-78.100999	-76.426149	176.534352
28003		6.377536	-0.234256	14.196404	0.840039	-13.793870	-2.652764	0.022418	2.816296	-5.249329	-0.513184	0.121338	-0.078125	0.065674	-0.004066	0.141048	0.430573	0.470004	-0.491129	0.593714	-66.990207	-78.821740	165.172966
28004		4.484841	-0.219950	13.060950	1.219773	-12.532033	-4.139555	0.403012	3.647255	-4.883371	-0.519287	0.101318	-0.088623	0.047144	-0.003594	0.129757	0.452871	0.471825	-0.470427	0.592442	-49.224221	-80.111396	147.338107
28005		3.260211	-1.398086	11.877765	2.548736	-11.077692	-4.869797	0.624413	4.176625	-4.472380	-0.523193	0.081543	-0.125488	0.034743	-0.015111	0.118021	0.474209	0.471182	-0.448422	0.593322	-28.994793	-79.871866	127.162228
28006		3.369084	-2.799585	11.327267	4.005131	-10.065326	-4.324287	0.911180	4.563421	-4.152548	-0.527100	0.063721	-0.156006	0.035663	-0.029236	0.112343	0.494380	0.468893	-0.424951	0.595939	-12.150025	-78.248136	110.538146
28007		3.644021	-3.360493	10.914672	4.683271	-9.218990	-3.750115	1.261934	4.911936	-3.918233	-0.530762	0.046143	-0.195313	0.038425	-0.035029	0.108001	0.513237	0.465480	-0.399725	0.600113	-0.453935	-75.693850	99.276404
28008		3.913293	-2.759709	10.719950	4.287031	-8.686814	-3.181104	1.497519	5.189183	-3.708747	-0.530273	0.026123	-0.243408	0.041362	-0.029147	0.105931	0.530976	0.460922	-0.373124	0.605304	7.255873	-72.599273	92.151981
28009		4.327745	-1.713693	10.731176	3.508483	-8.309381	-2.367339	1.473878	5.374558	-3.488247	-0.520264	-0.000244	-0.295654	0.045820	-0.018706	0.105969	0.547838	0.454849	-0.346237	0.610824	12.275675	-69.232893	87.732568
28010		4.910341	-1.511264	11.088696	3.636724	-7.975449	-1.299118	1.213571	5.482128	-3.280031	-0.517090	-0.031006	-0.347900	0.051852	-0.016615	0.109393	0.564300	0.446876	-0.319927	0.616047	15.550026	-65.736123	84.937026
28011		5.283052	-2.254701	11.471988	4.692953	-7.507195	-0.529461	0.929363	5.524264	-3.117343	-0.504883	-0.055176	-0.406738	0.055604	-0.023928	0.113100	0.580338	0.437263	-0.294433	0.620741	17.725507	-62.201670	83.105742
28012		5.952091	-3.163852	11.941851	5.937492	-6.878260	0.455629	0.689779	5.528156	-2.972436	-0.486084	-0.083740	-0.469971	0.062305	-0.032959	0.117610	0.595910	0.426272	-0.269660	0.624873	19.199651	-58.662429	81.860556
28013		6.985149	-3.820704	12.513203	6.988039	-6.081698	1.767568	0.509016	5.554838	-2.788217	-0.448975	-0.118652	-0.537598	0.072744	-0.039523	0.123039	0.610705	0.414011	-0.245532	0.628767	20.150674	-55.137684	81.069753
28014		7.889245	-4.341643	13.032765	7.891110	-5.197105	2.899840	0.354555	5.633690	-2.533543	-0.398682	-0.144531	-0.603027	0.081959	-0.044670	0.127969	0.624568	0.400302	-0.221905	0.632797	20.668494	-51.610657	80.672262
28015		8.986276	-4.867883	13.605835	8.821348	-4.098800	4.147484	0.214931	5.748588	-2.180741	-0.332520	-0.167969	-0.650879	0.093183	-0.049827	0.133358	0.637092	0.385042	-0.198892	0.637416	20.790750	-48.098007	80.668897
28016		10.582894	-5.010742	14.349575	9.451766	-2.654620	5.889111	0.112257	5.953406	-1.716043	-0.255371	-0.191162	-0.687744	0.109601	-0.051116	0.140242	0.647968	0.367954	-0.176223	0.643190	20.555221	-44.563776	81.077310
28017		11.422580	-5.238472	14.871290	9.979776	-1.349868	6.847128	0.064336	6.175386	-1.186798	-0.162842	-0.207764	-0.702393	0.118430	-0.053126	0.145082	0.656761	0.349197	-0.153828	0.650433	20.041896	-41.019380	81.881673
28018		12.160462	-5.073473	15.079774	9.978846	0.213563	7.544464	0.161598	6.354347	-0.681861	-0.081299	-0.224609	-0.710693	0.126137	-0.051279	0.146796	0.663256	0.329416	-0.131219	0.659058	19.428121	-37.464685	82.991476
28019		12.698720	-3.187366	15.272064	8.235538	1.601439	8.466458	0.299056	6.437261	-0.207096	-0.004395	-0.239258	-0.707764	0.131779	-0.032233	0.148482	0.667302	0.309192	-0.108566	0.668821	18.807460	-33.950831	84.341888
28020		14.708223	-0.954530	15.602321	6.248087	4.198077	10.283441	0.415825	6.413880	0.062362	0.065674	-0.251709	-0.691895	0.151986	-0.009816	0.151181	0.669595	0.288948	-0.085867	0.678807	18.285130	-30.482313	85.761275
28021		17.207070	0.141129	14.578978	4.920183	8.105182	10.646460	0.589683	6.340301	-0.021947	0.125000	-0.275391	-0.675293	0.176576	0.000973	0.140242	0.671179	0.269301	-0.062653	0.687801	18.004495	-27.036206	87.039121
28022		18.607792	0.535651	13.200197	4.062587	11.201188	9.646282	0.808773	6.022846	-0.364730	0.177490	-0.299316	-0.656738	0.189948	0.004494	0.126339	0.672926	0.251306	-0.039190	0.694608	18.053368	-23.694617	87.999344
28023		22.229276	0.107878	11.960008	4.113976	16.181663	9.114981	1.085989	5.489277	-0.692807	0.213867	-0.312012	-0.638428	0.225463	-0.000326	0.113441	0.674757	0.235968	-0.016150	0.699115	18.424608	-20.593289	88.656086
28024		25.998088	0.990487	10.029602	2.684617	21.294202	7.981969	1.178127	5.073759	-0.866972	0.255127	-0.333740	-0.626465	0.262452	0.008206	0.093710	0.676576	0.222212	0.006064	0.702019	18.937625	-17.685293	89.142030
28025		27.192937	0.113522	5.639949	2.018097	24.562166	2.984094	1.063659	4.679336	-0.836615	0.278076	-0.344727	-0.625977	0.273150	-0.000283	0.050019	0.677972	0.209332	0.026469	0.704155	19.417875	-15.005610	89.588888
28026		25.934262	0.200927	-1.107422	-0.481690	25.417354	-4.570692	0.890258	4.189001	-0.647297	0.309814	-0.357666	-0.616699	0.259040	0.001236	-0.016496	0.678608	0.197489	0.044422	0.706057	19.813611	-12.625998	90.057527
28027		23.380078	-1.556922	-7.709585	-1.291108	24.465392	-12.678500	0.762289	3.230020	-0.365520	0.332520	-0.364014	-0.616455	0.232486	-0.015691	-0.080917	0.678319	0.188602	0.058344	0.707749	20.156321	-10.825262	90.503212
28028		25.590759	-7.122662	-10.754131	2.589348	27.448968	-17.628199	1.339469	2.065112	-0.209585	0.340088	-0.385986	-0.620117	0.254701	-0.070760	-0.110650	0.677143	0.185790	0.070227	0.708539	20.867134	-9.681511	90.809050
28029		29.626452	-8.214899	-10.900296	3.137414	31.421681	-17.987575	2.434469	1.252718	-0.107206	0.341064	-0.412842	-0.610107	0.295526	-0.080958	-0.111846	0.674745	0.189578	0.083103	0.708431	22.224465	-9.001451	91.018720
28030		29.808158	-3.589461	-10.192638	-1.322523	31.088615	-15.897732	2.727987	0.800423	0.323588	0.337158	-0.432861	-0.602783	0.297725	-0.034007	-0.103591	0.670609	0.196095	0.095090	0.709075	23.731150	-8.659093	91.371350
28031		26.554459	-1.620391	-9.570923	-3.255867	27.588024	-15.070995	1.813768	0.231691	1.060167	0.333496	-0.452881	-0.597656	0.265511	-0.013926	-0.096150	0.664913	0.201888	0.101170	0.711966	24.673464	-8.797127	91.986901
28032		24.685256	-3.283663	-7.675708	-1.304017	25.662334	-14.146960	0.802340	-0.432194	1.626769	0.313721	-0.466553	-0.597168	0.247272	-0.030520	-0.076349	0.658499	0.206949	0.100878	0.716502	25.012369	-9.421889	92.736765
28033		23.293040	-3.506151	-5.212103	-0.332235	24.029690	-11.926269	0.280926	-0.934438	1.850626	0.291260	-0.464600	-0.601807	0.233481	-0.032831	-0.051078	0.652002	0.212185	0.096805	0.721457	25.041790	-10.365687	93.481940
28034		20.997893	-1.318661	-2.503397	-1.269208	21.114753	-8.606702	-0.020905	-1.298998	1.868951	0.269043	-0.473633	-0.605957	0.210247	-0.011225	-0.023668	0.645862	0.217740	0.090437	0.726136	24.901149	-11.501759	94.149337
28035		2.658006	11.719006	7.220668	-7.631819	-0.392785	1.940188	-0.653828	-1.408207	1.813193	0.241455	-0.456299	-0.615479	0.025007	0.117657	0.072002	0.640569	0.221587	0.081453	0.730709	24.392851	-12.678438	94.770759
28036		-4.100003	25.887452	25.455877	-12.658094	-13.082543	21.861895	-3.947641	-2.622630	2.383483	0.199707	-0.418945	-0.641113	-0.047408	0.263284	0.248797	0.637068	0.219468	0.055894	0.736786	21.967904	-14.606917	95.452862
28037		-9.689494	16.900619	11.623245	-10.365305	-15.026908	3.646293	-6.228786	-2.817766	3.302408	0.155029	-0.363770	-0.687744	-0.101281	0.170839	0.109523	0.632050	0.210816	0.020234	0.745426	18.050473	-16.781169	96.726277
28038		7.187572	-21.708343	-3.583055	18.443880	12.142949	-16.736652	-4.987243	-3.751183	2.145282	0.099854	-0.326660	-0.695801	0.074792	-0.217072	-0.029032	0.629335	0.209188	-0.012539	0.748345	15.006851	-19.200321	97.321907
28039		17.597998	-7.343249	18.493358	10.234106	12.313636	11.380195	-2.374976	-3.710509	0.615792	0.062744	-0.298340	-0.709961	0.172719	-0.070669	0.189008	0.629104	0.215547	-0.033822	0.746072	13.710317	-21.357274	97.126061
28040		11.741847	-12.317846	13.302239	14.005244	8.855589	4.041338	-2.005202	-2.930739	1.104068	0.028564	-0.283203	-0.706299	0.116113	-0.121182	0.135952	0.626525	0.219995	-0.051773	0.745914	12.462339	-23.145546	97.381659
28041		5.832880	-3.896236	9.498581	5.516942	2.619000	0.292759	-0.947986	-2.948134	0.870973	-0.007568	-0.276855	-0.710938	0.057086	-0.038258	0.096016	0.623450	0.227805	-0.065576	0.745060	11.855836	-24.911790	97.528508
28042		9.475429	3.128146	10.781147	-1.361727	3.521758	4.383404	-0.770884	-2.909891	0.589371	-0.039307	-0.266357	-0.706787	0.093080	0.031976	0.109052	0.621085	0.236065	-0.078253	0.743238	11.413730	-26.622466	97.523625
28043		7.983699	2.002543	9.338822	-0.494470	2.652135	2.339484	-0.736808	-2.683640	0.351913	-0.064453	-0.253174	-0.700684	0.078539	0.020511	0.094373	0.619509	0.243627	-0.089814	0.740802	11.039547	-28.179750	97.411724
28044		8.463170	-1.932380	10.040966	3.407794	3.282320	2.588272	-0.559997	-2.525209	0.253000	-0.089355	-0.253662	-0.694092	0.083379	-0.018935	0.101521	0.618046	0.251155	-0.100083	0.738189	10.788167	-29.637531	97.262733
28045		10.334816	-1.589348	11.762721	3.306092	3.689903	5.125173	-0.435332	-2.226750	0.270553	-0.118652	-0.245117	-0.683350	0.102051	-0.015497	0.118802	0.616412	0.257913	-0.108985	0.735961	10.583064	-30.929803	97.167882
28046		17.610963	2.498295	13.198844	-1.079585	7.967620	10.825571	-0.628806	-1.539990	0.325725	-0.132568	-0.238525	-0.685791	0.175045	0.025686	0.133259	0.615140	0.261498	-0.116536	0.734603	10.204428	-31.841089	97.198011
28047		9.179647	0.241525	9.899378	1.146890	2.746156	3.357876	-0.634675	-0.778093	0.206555	-0.137207	-0.231934	-0.679443	0.091408	0.002825	0.099341	0.614722	0.262316	-0.121610	0.733838	9.811266	-32.310479	97.247006
28048		7.758084	-2.553176	10.063778	3.996768	1.969444	2.358290	-0.330130	-0.582974	0.154447	-0.141846	-0.227539	-0.675049	0.077307	-0.025306	0.100905	0.614206	0.263388	-0.124890	0.733335	9.598811	-32.664543	97.285432
28049		9.787873	0.978395	10.541713	0.460558	2.602312	4.361344	-0.119077	-0.261019	0.043707	-0.150635	-0.232178	-0.670654	0.097739	0.009868	0.105539	0.614010	0.263987	-0.126267	0.733048	9.525560	-32.825951	97.288251
28050		6.266944	1.453865	8.638713	-0.071420	0.514432	0.945841	-0.054421	0.031196	-0.031133	-0.153076	-0.225586	-0.677490	0.062685	0.014552	0.086373	0.614191	0.263769	-0.126406	0.732951	9.500069	-32.815347	97.272744
28051		6.123957	1.465733	8.878441	-0.013167	0.268508	1.068750	-0.022103	-0.048824	-0.064013	-0.150879	-0.225586	-0.673096	0.061223	0.014648	0.088798	0.614395	0.263956	-0.126633	0.732673	9.508593	-32.846651	97.227209
28052		6.139460	1.476972	8.575241	-0.089827	0.429697	0.827635	0.034295	-0.031299	-0.104460	-0.150635	-0.229980	-0.672852	0.061389	0.014723	0.085765	0.614688	0.264285	-0.126542	0.732325	9.564541	-32.864408	97.155316
28053		6.049810	1.405677	8.586292	0.003013	0.361970	0.778322	0.079398	-0.049180	-0.128308	-0.152832	-0.234375	-0.672607	0.060486	0.013984	0.085883	0.614993	0.264826	-0.126314	0.731912	9.654801	-32.889693	97.066399
28054		5.821620	1.534629	8.549203	-0.089560	0.159410	0.642060	0.114641	-0.080628	-0.147566	-0.155273	-0.227783	-0.672852	0.058193	0.015254	0.085524	0.615305	0.265610	-0.126023	0.731416	9.775753	-32.930966	96.959718
28055		5.856497	1.440811	8.565120	0.022185	0.194091	0.660973	0.134802	-0.104011	-0.165189	-0.155029	-0.234375	-0.670410	0.058532	0.014302	0.085691	0.615636	0.266544	-0.125712	0.730851	9.914953	-32.983285	96.839382
28056		5.858586	1.401927	8.618794	0.096918	0.169245	0.700825	0.162772	-0.117924	-0.187712	-0.159668	-0.232422	-0.668457	0.058548	0.013894	0.086234	0.616005	0.267637	-0.125306	0.730210	10.080978	-33.041174	96.700894
28057		5.697106	1.434433	8.650031	0.116733	0.004123	0.643121	0.182732	-0.130802	-0.211875	-0.157227	-0.234619	-0.670410	0.056930	0.014205	0.086551	0.616423	0.268846	-0.124840	0.729492	10.267034	-33.103296	96.545390
28058		5.950675	1.395048	8.704017	0.174790	0.187990	0.819839	0.193129	-0.128125	-0.239421	-0.159424	-0.241211	-0.670166	0.059468	0.013795	0.087092	0.616932	0.270101	-0.124285	0.728694	10.470753	-33.160854	96.370211
28059		6.121161	1.328616	8.758756	0.271589	0.310123	0.947404	0.229039	-0.103182	-0.277099	-0.159180	-0.247803	-0.672119	0.061185	0.013101	0.087634	0.617539	0.271390	-0.123476	0.727837	10.706101	-33.199609	96.173567
28060		6.152653	1.259591	8.751072	0.373220	0.354166	0.946406	0.247682	-0.053098	-0.319053	-0.163574	-0.250244	-0.667725	0.061523	0.012389	0.087542	0.618305	0.272588	-0.122382	0.726923	10.965675	-33.205180	95.953802
28061		6.014278	1.292819	8.682362	0.377256	0.274247	0.817865	0.255556	0.016223	-0.345525	-0.161133	-0.252441	-0.669922	0.060172	0.012713	0.086835	0.619194	0.273565	-0.121013	0.726029	11.233012	-33.167785	95.726507
28062		5.671464	1.486269	8.391885	0.188201	0.111575	0.422068	0.267154	0.058376	-0.366109	-0.154053	-0.265625	-0.665039	0.056766	0.014647	0.083922	0.620167	0.274444	-0.119438	0.725127	11.512490	-33.103711	95.490349
28063		5.589591	1.520411	8.246103	0.166472	0.127219	0.262495	0.287188	0.071372	-0.375723	-0.158203	-0.270020	-0.664795	0.055954	0.014981	0.082463	0.621148	0.275334	-0.117742	0.724225	11.804017	-33.030019	95.251208
28064		5.361004	1.465905	8.071195	0.236418	0.054108	-0.016035	0.343989	0.078217	-0.393371	-0.153076	-0.290039	-0.659668	0.053670	0.014415	0.080716	0.622119	0.276393	-0.115788	0.723303	12.134753	-32.949534	95.000850
28065		5.031468	1.836771	8.058475	-0.051672	-0.271794	-0.140478	0.416543	0.055805	-0.392658	-0.143799	-0.298828	-0.666016	0.050373	0.018101	0.080609	0.622967	0.277748	-0.113647	0.722394	12.506446	-32.880174	94.749593
28066		4.990683	2.216529	7.940723	-0.394079	-0.306564	-0.188474	0.423193	0.026151	-0.360588	-0.109863	-0.307129	-0.667725	0.049957	0.021907	0.079447	0.623670	0.279219	-0.111613	0.721537	12.873603	-32.830282	94.514856
28067		4.882225	2.478651	7.829439	-0.619473	-0.381967	-0.286403	0.406443	-0.011728	-0.320286	-0.086182	-0.278076	-0.695557	0.048857	0.024549	0.078347	0.624223	0.280741	-0.109818	0.720742	13.218008	-32.805312	94.302613
28068		4.925561	2.755698	7.878952	-0.830154	-0.420128	-0.165559	0.359020	-0.057769	-0.264800	-0.107910	-0.231445	-0.719238	0.049269	0.027350	0.078853	0.624617	0.282258	-0.108409	0.720022	13.520559	-32.812546	94.118997
28069		4.853808	2.868510	7.786252	-0.921182	-0.456298	-0.254621	0.291967	-0.101472	-0.188413	-0.157959	-0.214355	-0.706787	0.048525	0.028526	0.077929	0.624802	0.283672	-0.107491	0.719444	13.759713	-32.853516	93.979991
28070		4.798293	3.046384	7.679760	-1.088497	-0.491057	-0.333407	0.220204	-0.141226	-0.100516	-0.172852	-0.241211	-0.685791	0.047944	0.030355	0.076865	0.624752	0.284964	-0.107075	0.719038	13.931425	-32.928408	93.891312
28071		4.686732	3.422904	7.588985	-1.449693	-0.627224	-0.390407	0.128412	-0.194872	0.008152	-0.178711	-0.265869	-0.678223	0.046792	0.034182	0.075957	0.624409	0.286096	-0.107316	0.718850	14.014916	-33.047824	93.866673
28072		4.616349	3.436408	7.437827	-1.494888	-0.636196	-0.549786	0.001981	-0.267331	0.147918	-0.171387	-0.281250	-0.668945	0.046039	0.034397	0.074440	0.623708	0.287027	-0.108431	0.718921	13.983499	-33.227041	93.921512
28073		4.644481	3.334958	7.336873	-1.436335	-0.576183	-0.640575	-0.102521	-0.329108	0.308144	-0.173584	-0.285889	-0.679688	0.046273	0.033459	0.073428	0.622541	0.287757	-0.110350	0.719348	13.837157	-33.462457	94.074515
28074		4.444486	3.809432	7.286322	-1.917884	-0.859731	-0.705659	-0.246471	-0.422445	0.487036	-0.169189	-0.281250	-0.671143	0.044198	0.038292	0.072910	0.620885	0.288283	-0.113328	0.720106	13.550759	-33.773755	94.332155
28075		4.885427	3.186426	7.733972	-1.266980	-0.663958	-0.232065	-0.371883	-0.509929	0.652594	-0.178467	-0.272461	-0.669189	0.048552	0.032167	0.077404	0.618749	0.288626	-0.117271	0.721174	13.133275	-34.154241	94.691775
28076		5.095548	2.464520	8.010969	-0.569212	-0.564100	-0.036645	-0.445933	-0.607324	0.756739	-0.185303	-0.268311	-0.664795	0.050618	0.025016	0.080208	0.616277	0.289033	-0.121924	0.722356	12.638659	-34.600184	95.110821
28077		5.512293	2.141426	8.427595	-0.243005	-0.464631	0.469307	-0.462228	-0.664067	0.811546	-0.197021	-0.254883	-0.667480	0.054755	0.021832	0.084408	0.613571	0.289542	-0.126892	0.723598	12.109512	-35.081358	95.567335
28078		5.357851	1.779196	8.424170	0.052252	-0.606449	0.309920	-0.400015	-0.725800	0.825547	-0.201416	-0.257324	-0.667480	0.053198	0.018181	0.084399	0.610669	0.290456	-0.131834	0.724802	11.609522	-35.595552	96.031179
28079		5.526430	1.701956	8.599999	0.103647	-0.654747	0.529334	-0.301006	-0.890445	0.778447	-0.210693	-0.250732	-0.656738	0.054814	0.017363	0.086219	0.607659	0.292280	-0.136853	0.725668	11.188504	-36.193680	96.449140
28080		6.197680	0.519869	9.425972	1.360004	-0.434448	1.389569	-0.074130	-1.109648	0.656916	-0.224121	-0.248779	-0.656738	0.061435	0.005436	0.094600	0.604588	0.295669	-0.141525	0.725964	10.959453	-36.899892	96.758217
28081		6.277032	0.454799	8.948668	1.286406	-0.228500	1.049075	0.107266	-1.263516	0.537254	-0.235596	-0.242188	-0.656982	0.062191	0.004667	0.089883	0.601542	0.300227	-0.145827	0.725772	10.889989	-37.678884	96.968539
28082		5.921709	-0.185874	9.120613	2.002046	-0.603352	0.860297	0.257794	-1.410990	0.388319	-0.253418	-0.244629	-0.648193	0.058575	-0.001863	0.091618	0.598676	0.305874	-0.149789	0.724977	10.983234	-38.524808	97.052606
28083		5.804101	-0.606335	9.497082	2.565510	-0.972828	0.990962	0.409267	-1.624671	0.204597	-0.262451	-0.247070	-0.641357	0.057273	-0.006199	0.095426	0.596041	0.312859	-0.153557	0.723377	11.264695	-39.470641	96.972419
28084		5.373608	-0.400780	9.748147	2.555598	-1.681158	0.897184	0.533551	-1.904341	0.006043	-0.282471	-0.249512	-0.632324	0.052805	-0.004267	0.097976	0.593669	0.321359	-0.157379	0.720776	11.746710	-40.550444	96.694044
28085		5.018384	-0.139867	10.100365	2.542447	-2.433084	0.903256	0.670697	-2.228636	-0.160644	-0.302246	-0.265381	-0.625244	0.049053	-0.001778	0.101549	0.591347	0.331520	-0.161390	0.717187	12.438337	-41.789624	96.221902
28086		4.991349	-0.084119	10.241398	2.668452	-2.793170	0.905345	0.809995	-2.617672	-0.308196	-0.322266	-0.267822	-0.609619	0.048566	-0.001333	0.103051	0.588916	0.343558	-0.165773	0.712506	13.363598	-43.222029	95.535329
28087		4.996655	-0.073230	10.362734	2.860439	-3.145103	0.877166	0.971869	-3.033239	-0.466429	-0.346680	-0.279297	-0.595947	0.048385	-0.001352	0.104364	0.586289	0.357600	-0.170501	0.706623	14.571744	-44.854032	94.593517
28088		4.785597	-0.395668	10.550308	3.434785	-3.648132	0.639357	1.163198	-3.492417	-0.646012	-0.373047	-0.297363	-0.575439	0.045990	-0.004724	0.106291	0.583389	0.373874	-0.175518	0.699335	16.146230	-46.695371	93.322599
28089		4.575496	-0.311447	10.725497	3.648478	-4.284927	0.403722	1.349051	-4.048202	-0.850020	-0.406006	-0.315674	-0.554688	0.043556	-0.004030	0.108126	0.580120	0.392652	-0.181060	0.690292	18.179892	-48.778017	91.614836
28090		3.778386	1.038244	10.593794	2.594161	-5.459748	-0.272362	1.472872	-4.728262	-0.979692	-0.450439	-0.329590	-0.520996	0.035312	0.009421	0.106864	0.576122	0.414037	-0.187784	0.679260	20.725408	-51.155481	89.389194
28091		3.140453	1.374738	10.764722	2.578833	-6.502498	-0.943415	1.506441	-5.559213	-1.127258	-0.489990	-0.354736	-0.487061	0.028469	0.012766	0.108564	0.571337	0.438163	-0.196348	0.665608	23.942611	-53.867163	86.419356
28092		2.996665	1.769219	10.802913	2.458408	-7.204622	-1.397536	1.570128	-6.627357	-1.250845	-0.527100	-0.381836	-0.441650	0.026470	0.016666	0.109079	0.565191	0.465694	-0.207269	0.648635	28.197519	-56.974033	82.342562
28093		4.284330	4.993487	10.986775	-0.105074	-8.137764	0.071402	1.572735	-7.730740	-1.185437	-0.580322	-0.400635	-0.374512	0.038837	0.048822	0.111808	0.556888	0.496086	-0.221167	0.628378	33.812186	-60.434332	76.826490
28094		9.790677	4.770906	11.569236	1.330887	-6.817889	4.472101	1.696553	-8.697223	-1.038236	-0.626709	-0.423584	-0.304932	0.092986	0.046211	0.120205	0.545755	0.528802	-0.237326	0.605141	41.469874	-64.032669	69.273543
28095		19.116066	2.147467	11.611821	5.894877	-3.755837	11.532904	2.209322	-9.190247	-1.078356	-0.668457	-0.446533	-0.217773	0.185660	0.019115	0.124956	0.531633	0.563328	-0.252675	0.579814	52.163920	-67.207025	58.928181
28096		26.594721	-0.094277	13.130463	11.168979	-4.003565	17.358062	3.499235	-9.168090	-1.408586	-0.703369	-0.476074	-0.125732	0.259535	-0.005223	0.143237	0.513617	0.600297	-0.262691	0.553927	66.545758	-69.209748	45.606281
28097		23.980521	2.661409	14.457114	10.100335	-8.901705	14.870099	5.382163	-8.832918	-1.455228	-0.724609	-0.510010	-0.022461	0.233260	0.020811	0.155585	0.489178	0.639675	-0.265819	0.529963	83.317734	-69.730665	30.998093
28098		18.905612	11.054373	17.326845	4.138528	-17.491286	11.541836	6.289909	-8.738407	-0.463315	-0.741943	-0.525879	0.086670	0.181398	0.104428	0.184658	0.457968	0.677893	-0.268728	0.508440	100.352589	-69.304841	16.667764
28099		18.764848	14.931653	23.794983	5.175761	-26.814433	10.046968	5.856000	-8.769318	1.008595	-0.757813	-0.517578	0.197266	0.176125	0.143018	0.250094	0.423126	0.711289	-0.277035	0.488143	116.513662	-68.258307	2.938410
28100		12.720860	14.699717	29.065700	6.558434	-32.725064	0.576093	4.753203	-7.452997	2.300916	-0.771729	-0.500244	0.281006	0.114532	0.141330	0.298488	0.389852	0.735602	-0.289157	0.472539	129.716960	-67.022466	-8.391374
28101		8.387945	7.749460	24.300567	8.706696	-25.210667	-6.774711	4.468414	-5.436854	3.338876	-0.784424	-0.462646	0.337158	0.075956	0.073320	0.246812	0.357362	0.751783	-0.301327	0.465099	140.514039	-66.159251	-17.366727
28102		32.306296	20.775266	40.905519	16.136777	-49.392457	11.357954	3.510448	-2.035058	3.293563	-0.798828	-0.431885	0.344971	0.315455	0.205729	0.415914	0.333332	0.757568	-0.309134	0.468418	147.559858	-66.320570	-22.872565
28103		22.368627	22.704391	39.583135	10.585185	-48.147809	2.530527	1.697554	3.249281	2.408365	-0.808838	-0.407471	0.297363	0.227369	0.226417	0.394081	0.326186	0.748901	-0.308860	0.487192	149.020272	-68.623966	-23.404185
28104		0.903747	14.105326	26.851801	3.704055	-29.796737	-14.185323	0.466815	5.595137	2.514296	-0.823242	-0.385254	0.225586	0.014780	0.140588	0.268487	0.326823	0.731792	-0.307914	0.512694	148.044033	-72.108203	-22.090822
28105		-4.539058	11.023363	18.657739	0.526422	-20.975590	-16.878012	0.092754	5.788512	2.801634	-0.819824	-0.351563	0.162354	-0.041503	0.109547	0.187867	0.328024	0.712438	-0.308378	0.538270	146.595681	-75.761279	-20.532727
28106		-1.222525	9.771875	15.959296	1.076343	-18.508477	-12.627490	-0.161294	5.990592	2.908188	-0.816406	-0.322510	0.090332	-0.008861	0.097702	0.159813	0.329854	0.691169	-0.309216	0.563798	143.809771	-79.530165	-17.783101
28107		1.422516	9.570151	14.092776	0.692443	-17.064645	-9.108266	-0.263040	6.575682	2.602150	-0.808350	-0.300049	0.007568	0.017596	0.096101	0.140260	0.333363	0.667773	-0.307981	0.589997	134.908472	-83.367109	-8.943067
28108		2.401659	9.312552	11.763049	-0.434867	-14.974100	-7.281522	-0.378703	7.307379	2.085268	-0.784668	-0.272949	-0.068848	0.027313	0.093620	0.116496	0.339513	0.641890	-0.303692	0.616830	97.908041	-86.457142	27.957969
28109		1.111156	8.546396	9.008947	-1.627305	-12.221689	-7.971498	-0.485125	7.847492	1.588374	-0.742920	-0.245361	-0.160645	0.013948	0.085785	0.089371	0.347786	0.613973	-0.296792	0.643426	32.849300	-85.226915	92.868799
28110		-0.141016	7.562905	6.912083	-2.136918	-9.978642	-8.898040	-0.581907	7.951741	1.155012	-0.703125	-0.229248	-0.238770	0.000895	0.075830	0.068895	0.357398	0.585168	-0.288169	0.668434	12.493367	-81.217166	113.012427
28111		0.060364	6.183774	5.672407	-1.814899	-8.088150	-8.511315	-0.576570	7.812451	0.760805	-0.654541	-0.203857	-0.312988	0.002577	0.062008	0.056470	0.367491	0.556519	-0.278212	0.691256	6.168290	-76.874556	119.110088
28112		0.514751	5.096181	5.373208	-1.238862	-7.033616	-7.790850	-0.381716	7.565170	0.314412	-0.592041	-0.194092	-0.388672	0.007091	0.051074	0.053391	0.377747	0.528833	-0.266328	0.711837	3.899004	-72.572281	121.230244
28113		1.520928	4.675574	5.854724	-0.905434	-6.744062	-6.329439	-0.051729	7.282754	-0.176938	-0.529785	-0.182129	-0.451172	0.017368	0.046756	0.057929	0.387929	0.502743	-0.252187	0.730180	3.392383	-68.410990	121.732218
28114		2.698790	5.070983	6.972637	-1.010122	-7.178078	-4.423322	0.292242	7.004924	-0.712102	-0.453369	-0.183105	-0.495361	0.029589	0.050507	0.068794	0.398404	0.478321	-0.235605	0.746307	3.907089	-64.379718	121.350272
28115		4.381314	5.645300	8.353862	-1.321313	-7.482571	-1.870564	0.545061	6.752643	-1.251488	-0.377686	-0.164307	-0.524658	0.046954	0.055941	0.082141	0.409457	0.455444	-0.217063	0.760131	5.003353	-60.476132	120.462569
28116		6.269391	6.080599	9.973132	-1.541083	-7.465057	1.030620	0.696795	6.608327	-1.746536	-0.312744	-0.159180	-0.538086	0.066473	0.059893	0.097786	0.421457	0.433380	-0.196793	0.771900	6.415176	-56.608598	119.273558
28117		7.742394	5.825913	11.319533	-1.300504	-6.723670	3.417335	0.783004	6.524665	-2.152166	-0.261475	-0.145020	-0.547363	0.081683	0.056958	0.110801	0.434203	0.411754	-0.175319	0.781786	7.925004	-52.755010	117.969677
28118		8.759608	5.428279	12.284728	-1.045091	-5.617567	5.165964	0.885677	6.468108	-2.405441	-0.212402	-0.135498	-0.554443	0.092151	0.052656	0.120151	0.447207	0.390249	-0.152765	0.790173	9.419362	-48.882695	116.695008
28119		9.706264	5.654314	13.247383	-1.306722	-4.689446	6.856444	0.949485	6.344554	-2.476613	-0.176514	-0.135010	-0.572021	0.101889	0.054681	0.129555	0.459691	0.369017	-0.129983	0.797255	10.771851	-45.064736	115.585218
28120		11.874225	6.522561	14.307215	-2.461118	-3.161623	9.475667	0.943491	6.187776	-2.447161	-0.135498	-0.147949	-0.582764	0.123878	0.063067	0.139593	0.471485	0.347897	-0.107417	0.803201	11.947949	-41.311491	114.655194
28121		15.894109	8.438667	15.707631	-4.986732	-0.747585	13.531173	0.836085	6.086152	-2.416953	-0.087646	-0.167236	-0.597412	0.164627	0.081776	0.152469	0.482722	0.326585	-0.085528	0.808088	12.917457	-37.617844	113.878711
28122		22.522049	11.046046	17.739287	-8.798259	3.508872	19.408439	0.550853	6.215653	-2.503878	-0.033447	-0.179932	-0.607910	0.231948	0.107108	0.170551	0.494341	0.303683	-0.064165	0.811965	13.649269	-33.820863	113.164574
28123		28.507191	12.643926	17.988402	-12.530259	9.310449	22.619829	0.205991	6.671813	-2.783814	0.016357	-0.192383	-0.616211	0.292582	0.122222	0.170333	0.507121	0.277855	-0.042649	0.814743	14.153150	-29.736826	112.425829
28124		30.515070	13.458617	16.337625	-15.142082	13.515139	21.277427	-0.100811	7.081010	-3.251224	0.084717	-0.213867	-0.619873	0.312809	0.129620	0.152324	0.521642	0.249238	-0.020558	0.815688	14.513482	-25.343809	111.521234
28125		29.719064	9.877171	12.554349	-13.638738	17.880312	15.328314	-0.282285	6.949725	-3.902983	0.136719	-0.224365	-0.628418	0.303162	0.093061	0.114942	0.538186	0.220418	0.001216	0.813493	14.841037	-20.935006	110.267967
28126		29.767833	0.258472	7.662543	-6.868721	24.867850	6.886416	0.273202	6.045478	-4.693260	0.198242	-0.250244	-0.629639	0.299762	-0.004531	0.067581	0.556549	0.196381	0.023763	0.806922	15.576162	-16.886628	108.484335
28127		32.074160	0.132884	2.212688	-8.626003	29.149482	0.633168	1.258136	4.969670	-5.169990	0.248535	-0.273926	-0.619873	0.321048	-0.007074	0.014124	0.575190	0.179141	0.047647	0.796740	16.847092	-13.335036	106.363255
28128		37.065163	6.292609	-4.480624	-16.801333	33.508940	-4.524656	1.020783	3.760428	-4.827538	0.302979	-0.288818	-0.619141	0.371104	0.054223	-0.051490	0.592338	0.165870	0.066819	0.785594	17.853055	-10.454477	104.320853
28129		40.637372	4.352364	-13.014609	-17.711838	38.825127	-14.091124	-0.258622	2.743195	-3.783134	0.330078	-0.295166	-0.625488	0.405262	0.035677	-0.135760	0.606316	0.153069	0.076968	0.776548	17.962056	-8.302285	102.721354
28130		37.293566	-10.036026	-18.652594	-4.600863	39.620592	-25.570756	-0.349365	1.807861	-2.884269	0.354980	-0.301514	-0.620850	0.369728	-0.106037	-0.189696	0.616999	0.143880	0.083272	0.769205	17.928219	-6.810670	101.456498
28131		38.802759	-14.966928	-19.273993	0.275547	41.894700	-28.408493	0.992975	1.038215	-2.510313	0.369141	-0.319092	-0.624756	0.385106	-0.153549	-0.195500	0.625426	0.141936	0.092012	0.761728	18.623931	-5.804782	100.271145
28132		39.930364	-7.697944	-19.480322	-6.271758	41.284492	-26.824589	1.569677	0.572106	-1.685362	0.380859	-0.332275	-0.613037	0.398084	-0.078799	-0.196557	0.630421	0.143913	0.100937	0.756089	19.600391	-5.184066	99.461753
28133		34.239262	-5.439534	-17.828396	-6.743458	35.159196	-25.243947	0.914396	-0.214203	-0.354500	0.383545	-0.341064	-0.614990	0.342487	-0.054188	-0.178165	0.631189	0.147469	0.103894	0.754360	20.141969	-5.240509	99.228784
28134		30.131176	-7.214321	-12.985100	-2.808953	31.378470	-21.475986	0.295230	-1.169374	0.572159	0.374512	-0.345703	-0.625977	0.302269	-0.071089	-0.128191	0.629400	0.153152	0.100848	0.755136	20.303296	-5.989900	99.304613
28135		28.671906	-3.358273	-5.860155	-3.675484	29.033807	-13.159003	-0.077694	-1.710621	1.015830	0.347900	-0.352539	-0.632324	0.287372	-0.032146	-0.056133	0.626441	0.159915	0.094309	0.757037	20.231477	-7.121014	99.513112
28136		10.029513	13.758203	8.794268	-11.181618	6.414589	4.365825	-1.025268	-1.599053	1.309455	0.335938	-0.334961	-0.639648	0.098686	0.138683	0.088027	0.623005	0.163421	0.084312	0.760296	19.590504	-8.247105	99.909676
28137		-20.920375	14.770056	19.105308	-3.631716	-25.384537	9.240053	-4.853119	-3.283781	2.271690	0.287598	-0.297852	-0.672119	-0.213957	0.149810	0.183947	0.619395	0.161708	0.053662	0.766368	16.698664	-10.450190	100.570319
28138		-5.121701	-6.867832	3.052112	8.282589	-3.756497	-9.775055	-5.151698	-5.703855	2.642901	0.220703	-0.249756	-0.698242	-0.051187	-0.068563	0.030828	0.614442	0.168240	0.014038	0.770688	13.614334	-14.008784	101.191327
28139		25.007299	-17.637849	8.298702	14.338078	26.155501	0.925496	-2.411659	-5.951240	0.604172	0.164063	-0.239258	-0.709717	0.247944	-0.174550	0.092499	0.614217	0.183759	-0.014129	0.767314	12.348733	-17.419044	100.748115
28140		21.635591	-9.182398	20.221544	10.288384	16.885598	14.065140	-1.454777	-4.821349	0.159251	0.123291	-0.228760	-0.710205	0.211460	-0.090155	0.208013	0.614390	0.197771	-0.034713	0.763024	11.679191	-20.149006	100.235667
28141		12.277437	-13.417032	13.173819	14.160205	10.366868	4.196787	-0.683801	-4.314558	0.782037	0.078125	-0.222656	-0.706055	0.120410	-0.133239	0.134810	0.611158	0.211986	-0.051419	0.760857	11.303924	-22.670620	100.180663
28142		12.139374	2.423588	11.925481	-1.125341	6.089165	6.220771	-0.096520	-3.953465	0.568891	0.042236	-0.223145	-0.703857	0.118936	0.024635	0.121610	0.607937	0.226592	-0.064526	0.758225	11.301294	-24.965428	100.045888
28143		9.809047	4.117252	9.829899	-2.800596	3.808126	3.877770	-0.147197	-3.703980	0.203871	0.008545	-0.221191	-0.699707	0.096206	0.041344	0.100062	0.606004	0.240121	-0.076642	0.754471	11.360031	-27.079087	99.711833
28144		15.164263	-2.513966	12.941617	3.691914	8.388666	8.068134	-0.044343	-3.327018	0.094508	-0.022705	-0.228271	-0.683838	0.149474	-0.025040	0.131920	0.604320	0.252520	-0.087061	0.750634	11.505281	-28.968239	99.344903
28145		24.144988	1.227165	15.957836	-0.195168	13.273432	15.933726	-0.223736	-2.304645	0.466650	-0.041016	-0.219727	-0.670898	0.239560	0.013013	0.162332	0.601779	0.260311	-0.095528	0.748982	11.372230	-30.325345	99.347644
28146		11.497308	6.724345	9.945256	-5.277844	3.426765	5.572744	-0.278028	-1.189497	0.327650	-0.052246	-0.217529	-0.668701	0.114269	0.067570	0.100040	0.600309	0.263821	-0.100646	0.748263	11.180228	-31.041072	99.407913
28147		7.712329	-1.719824	9.853034	3.251185	2.284498	2.176015	-0.343318	-1.147809	0.245033	-0.059326	-0.211182	-0.655762	0.076577	-0.016935	0.099000	0.599230	0.266995	-0.105777	0.747294	10.971667	-31.723270	99.423957
28148		12.490389	3.161473	10.942679	-1.773886	4.373683	6.419074	-0.103027	-0.625606	0.243903	-0.059082	-0.213379	-0.662354	0.124522	0.031823	0.109800	0.598096	0.268948	-0.108436	0.747121	10.866912	-32.112529	99.506805
28149		5.318014	0.891056	9.091641	0.873160	-0.204414	0.719591	-0.209702	-0.254471	0.125739	-0.065918	-0.211182	-0.657959	0.053059	0.009039	0.090975	0.597742	0.269241	-0.110230	0.747036	10.714440	-32.279060	99.560904
28150		7.650847	1.002641	9.717604	0.596899	1.375353	2.504968	-0.069959	-0.190529	0.075143	-0.066162	-0.206787	-0.651367	0.076412	0.010089	0.097245	0.597425	0.269758	-0.111236	0.746954	10.657827	-32.405289	99.588242
28151		5.565777	1.687858	8.856929	0.002010	-0.140654	0.782223	-0.022441	-0.117136	0.011891	-0.070557	-0.206787	-0.651367	0.055605	0.016892	0.088600	0.597318	0.270160	-0.111766	0.746815	10.643619	-32.482320	99.584241
28152		6.259593	1.254684	8.668559	0.270459	0.627664	0.931312	0.029681	-0.127237	-0.025655	-0.072998	-0.206787	-0.653564	0.062542	0.012526	0.086727	0.597276	0.270794	-0.112076	0.746572	10.675857	-32.562265	99.552355
28153		5.818143	1.549910	8.731248	0.078421	0.139965	0.792120	0.077261	-0.129563	-0.071167	-0.072754	-0.211182	-0.648926	0.058130	0.015445	0.087356	0.597337	0.271586	-0.112159	0.746224	10.749591	-32.637442	99.491173
28154		5.636442	1.767685	8.543851	-0.140223	0.011986	0.573445	0.084554	-0.140317	-0.071191	-0.077148	-0.213623	-0.653320	0.056311	0.017621	0.085485	0.597383	0.272459	-0.112241	0.745856	10.830832	-32.719836	99.426901
28155		5.423020	1.871430	8.313871	-0.259089	-0.092181	0.284649	0.064985	-0.155156	-0.059653	-0.070313	-0.213379	-0.648926	0.054171	0.018671	0.083187	0.597402	0.273302	-0.112461	0.745499	10.895478	-32.810523	99.369789
28156		5.451802	1.956778	8.266552	-0.345908	-0.082932	0.274952	0.049738	-0.175263	-0.030117	-0.070557	-0.211182	-0.648926	0.054448	0.019539	0.082718	0.597322	0.274178	-0.112833	0.745186	10.944699	-32.916921	99.328130
28157		5.324813	1.670259	8.066108	-0.102210	-0.031851	-0.004833	0.035284	-0.185610	-0.000901	-0.079346	-0.218018	-0.646484	0.053173	0.016688	0.080713	0.597144	0.275013	-0.113336	0.744944	10.973385	-33.031057	99.306143
28158		5.015288	1.720141	7.958608	-0.132238	-0.268022	-0.254336	0.000412	-0.206721	0.058837	-0.081543	-0.215820	-0.644531	0.050066	0.017216	0.079638	0.596781	0.275807	-0.114107	0.744824	10.964266	-33.164827	99.319869
28159		4.770725	2.305024	7.865555	-0.684568	-0.602158	-0.372952	-0.077372	-0.237555	0.171973	-0.079346	-0.213623	-0.646729	0.047594	0.023122	0.078703	0.596084	0.276400	-0.115422	0.744960	10.868414	-33.326958	99.407467
28160		5.310685	2.720619	8.098250	-1.106239	-0.415765	0.176808	-0.188963	-0.236377	0.307765	-0.085938	-0.220459	-0.644287	0.052969	0.027364	0.081019	0.595035	0.276596	-0.117330	0.745427	10.660092	-33.504004	99.585825
28161		5.670499	2.354075	7.990284	-0.866163	-0.002720	0.226757	-0.235148	-0.159891	0.367364	-0.088135	-0.218262	-0.644287	0.056598	0.023739	0.079920	0.593868	0.276314	-0.119270	0.746155	10.394061	-33.642337	99.816935
28162		5.609209	2.207756	7.976648	-0.759265	-0.035200	0.156586	-0.267004	-0.062420	0.415125	-0.081299	-0.220215	-0.644287	0.056021	0.022300	0.079754	0.592623	0.275563	-0.121099	0.747127	10.086874	-33.730881	100.091750
28163		5.667734	2.143757	8.001307	-0.745927	-0.002411	0.196468	-0.296040	0.051706	0.468724	-0.074951	-0.213623	-0.640137	0.056647	0.021689	0.079966	0.591281	0.274245	-0.122777	0.748400	9.731981	-33.757697	100.418990
28164		5.480890	2.000021	8.131324	-0.596535	-0.194780	0.175539	-0.294623	0.116769	0.472225	-0.048096	-0.206543	-0.649170	0.054809	0.020249	0.081252	0.589961	0.272704	-0.124255	0.749760	9.375021	-33.747704	100.754506
28165		5.975154	1.304921	8.689303	0.085692	0.106142	0.812305	-0.254780	0.082951	0.419654	-0.042969	-0.164307	-0.666260	0.059760	0.013285	0.086851	0.588756	0.271418	-0.125618	0.750945	9.060163	-33.749059	101.052200
28166		5.598343	1.615875	8.784802	-0.168568	-0.345327	0.721896	-0.191824	0.061088	0.393341	-0.064453	-0.131104	-0.667480	0.055978	0.016353	0.087815	0.587550	0.270435	-0.126765	0.752051	8.795357	-33.760541	101.327883
28167		5.934156	0.191242	8.629781	1.059698	0.389123	0.601218	-0.137658	-0.056287	0.321581	-0.102783	-0.127197	-0.654297	0.059314	0.002067	0.086313	0.586461	0.270076	-0.127962	0.752826	8.592560	-33.830001	101.544391
28168		5.900622	0.513407	8.492622	0.703871	0.321178	0.512375	-0.029614	-0.166958	0.246913	-0.108643	-0.151855	-0.646729	0.058929	0.005219	0.084975	0.585438	0.270518	-0.128970	0.753292	8.488590	-33.956699	101.697288
28169		5.682252	0.515712	8.371911	0.702641	0.177094	0.292643	0.051836	-0.277014	0.182092	-0.110352	-0.162842	-0.641846	0.056702	0.005187	0.083799	0.584473	0.271633	-0.129912	0.753478	8.459041	-34.138776	101.796864
28170		5.641283	0.601445	8.423608	0.649873	0.058380	0.322258	0.119925	-0.371693	0.112624	-0.105713	-0.171631	-0.641602	0.056253	0.005996	0.084344	0.583616	0.273369	-0.130772	0.753366	8.503047	-34.370039	101.837597
28171		5.481021	1.041582	8.494120	0.295297	-0.273654	0.341833	0.166257	-0.450333	0.069688	-0.110107	-0.174072	-0.637207	0.054615	0.010364	0.085073	0.582801	0.275542	-0.131635	0.753055	8.592180	-34.640852	101.842238
28172		5.435190	1.438224	8.493325	-0.048471	-0.472541	0.361811	0.187039	-0.547856	0.071302	-0.116455	-0.180664	-0.639160	0.054114	0.014322	0.085095	0.581885	0.278160	-0.132698	0.752614	8.701421	-34.968438	101.835441
28173		5.325268	1.233686	8.678594	0.243631	-0.658355	0.419870	0.207647	-0.673715	0.070651	-0.116455	-0.183105	-0.632324	0.052956	0.012265	0.086977	0.580850	0.281289	-0.134054	0.752010	8.828283	-35.365841	101.815673
28174		5.331333	1.253285	8.739822	0.279387	-0.766207	0.468970	0.259100	-0.867427	0.065080	-0.120850	-0.185303	-0.638916	0.052930	0.012437	0.087644	0.579626	0.285315	-0.135763	0.751131	9.002901	-35.873704	101.767641
28175		5.327857	1.368638	8.933559	0.272322	-1.000800	0.627177	0.303596	-1.083430	0.073858	-0.131836	-0.192139	-0.627686	0.052788	0.013570	0.089643	0.578142	0.290247	-0.137945	0.749987	9.212774	-36.503085	101.700877
28176		5.284570	1.205307	9.071571	0.532520	-1.179810	0.675190	0.345979	-1.328310	0.087694	-0.143066	-0.194580	-0.625244	0.052236	0.011919	0.091085	0.576354	0.296218	-0.140685	0.748518	9.463875	-37.273260	101.609744
28177		5.328090	1.230276	9.224182	0.615555	-1.381120	0.803277	0.377455	-1.586160	0.101113	-0.160889	-0.194580	-0.625244	0.052541	0.012155	0.092684	0.574252	0.303198	-0.144068	0.746692	9.747852	-38.188758	101.493395
28178		5.187162	1.298927	9.399456	0.705315	-1.779288	0.830470	0.422794	-1.841951	0.124718	-0.174072	-0.201660	-0.618408	0.050995	0.012822	0.094494	0.571766	0.311242	-0.148033	0.744512	10.076727	-39.251626	101.351892
28179		5.103159	1.047296	9.409708	1.051340	-1.968470	0.708573	0.455994	-2.121834	0.117107	-0.194336	-0.201904	-0.618408	0.050023	0.010287	0.094655	0.568987	0.320376	-0.152655	0.741829	10.458315	-40.469638	101.158729
28180		5.104132	0.168845	9.376893	1.976251	-1.898262	0.506812	0.543756	-2.417186	0.048902	-0.214355	-0.206543	-0.609375	0.049903	0.001445	0.094381	0.566020	0.330880	-0.157654	0.738434	10.968306	-41.846483	100.854252
28181		5.063367	-0.067231	9.531410	2.380250	-2.190817	0.483774	0.661521	-2.733833	-0.066361	-0.234131	-0.218018	-0.597900	0.049324	-0.001006	0.095991	0.562930	0.342902	-0.162902	0.734160	11.658860	-43.384807	100.389056
28182		4.909395	0.348174	9.913868	2.289436	-2.942088	0.608458	0.802687	-3.099494	-0.172356	-0.254150	-0.224854	-0.582275	0.047552	0.003040	0.099896	0.559563	0.356686	-0.168436	0.728899	12.573408	-45.111082	99.734549
28183		5.012335	0.815984	9.933153	2.028297	-3.339694	0.636027	0.895445	-3.513852	-0.222321	-0.294189	-0.238770	-0.563965	0.048376	0.007658	0.100227	0.555696	0.372160	-0.174658	0.722630	13.684846	-47.052754	98.899188
28184		4.830968	1.122484	9.827365	1.922975	-3.836680	0.323407	0.903154	-3.998467	-0.210691	-0.322998	-0.245850	-0.541748	0.046343	0.010729	0.099263	0.551143	0.389268	-0.182147	0.715216	14.963607	-49.253091	97.874396
28185		4.337575	1.392205	9.873043	1.933719	-4.658753	-0.181214	0.886056	-4.571958	-0.204105	-0.358643	-0.257324	-0.519043	0.041117	0.013439	0.099748	0.545806	0.408172	-0.191210	0.706350	16.463592	-51.753171	96.584364
28186		3.948230	2.109462	9.913624	1.509313	-5.590304	-0.606100	0.786446	-5.298906	-0.173353	-0.403320	-0.264648	-0.489990	0.036854	0.020669	0.100218	0.539528	0.429092	-0.202540	0.695534	18.249846	-54.631646	94.913692
28187		3.530716	4.072824	9.776691	-0.157624	-6.863123	-1.010698	0.539203	-6.171212	-0.035137	-0.445557	-0.274170	-0.456543	0.032274	0.040457	0.098903	0.531957	0.451865	-0.217217	0.682391	20.335078	-57.972852	92.775564
28188		3.403815	5.372360	9.978385	-1.128133	-8.061571	-1.227526	0.281209	-7.188620	0.191283	-0.499268	-0.277344	-0.403320	0.030371	0.053612	0.100995	0.522497	0.476671	-0.235733	0.666491	22.942671	-61.852303	89.946749
28189		5.842235	5.099648	10.410499	-0.559438	-7.851965	0.505505	0.087339	-8.320824	0.354321	-0.557617	-0.282471	-0.352051	0.053935	0.051049	0.106434	0.510821	0.503817	-0.257892	0.647087	26.731103	-66.276913	85.789282
28190		12.033560	3.895545	10.482189	1.028560	-6.078395	5.407978	0.304986	-9.199250	0.450827	-0.609131	-0.281250	-0.281250	0.115258	0.039054	0.110262	0.496178	0.533262	-0.281319	0.624739	33.060091	-70.991024	79.184134
28191		20.700136	3.147009	10.591793	2.832706	-4.862822	12.957381	1.001265	-9.712464	0.471463	-0.656250	-0.286377	-0.194580	0.201457	0.031386	0.115951	0.477758	0.564795	-0.303276	0.600648	44.560048	-75.528163	67.783133
28192		23.700017	1.029340	11.614493	6.235037	-6.530127	14.998248	1.727803	-9.626618	0.535582	-0.689697	-0.289307	-0.108154	0.231019	0.009849	0.127450	0.456094	0.596353	-0.322285	0.576605	64.826780	-79.023477	48.036472
28193		24.408813	1.891187	12.973575	6.986082	-10.215127	14.965361	2.835793	-9.270052	0.472507	-0.727783	-0.292236	-0.019287	0.237679	0.017531	0.141109	0.430781	0.628088	-0.336348	0.553898	95.170435	-80.257499	18.861102
28194		24.804642	8.376501	16.570580	3.780822	-18.261063	14.915176	4.032063	-9.139641	0.767001	-0.747803	-0.294922	0.080566	0.239769	0.081182	0.178446	0.400087	0.660007	-0.346908	0.532894	125.242924	-78.817459	-9.352530
28195		25.436941	12.533060	22.973963	4.235400	-28.007425	13.174142	4.471311	-9.156234	1.598952	-0.764160	-0.275391	0.173096	0.242436	0.121954	0.243776	0.364644	0.689700	-0.358192	0.512881	146.901266	-75.625475	-28.918961
28196		18.661296	12.100600	30.050732	7.480042	-34.607433	2.153179	4.302914	-7.511079	2.378566	-0.771729	-0.249023	0.243164	0.173690	0.116524	0.309733	0.329904	0.711849	-0.368740	0.498463	160.319294	-72.355997	-40.310053
28197		10.426626	6.604437	22.574822	7.634038	-24.336604	-6.475083	4.540102	-5.327587	3.168216	-0.770508	-0.218262	0.292969	0.097171	0.062434	0.229845	0.295765	0.726261	-0.377281	0.492673	170.331963	-69.849622	-48.143320
28198		32.569791	19.189125	36.348073	9.683278	-48.116415	8.650830	4.026815	-2.052326	3.068201	-0.771729	-0.189209	0.296387	0.319000	0.189405	0.370608	0.269628	0.731212	-0.381434	0.497130	177.605794	-68.860505	-53.455963
28199		23.259155	23.487420	35.411327	4.393968	-47.281479	-0.236883	2.999150	2.941747	1.769281	-0.770264	-0.166992	0.253418	0.235742	0.231640	0.354151	0.259781	0.724398	-0.376447	0.515799	-177.940368	-70.540212	-56.375721
28200		4.774044	19.757528	26.720295	-0.247787	-33.315140	-13.944233	1.306025	5.141037	1.693781	-0.755371	-0.144531	0.201660	0.052943	0.196264	0.267171	0.260304	0.709361	-0.372407	0.538852	-173.556653	-73.407467	-60.203706
28201		-2.213527	13.890123	18.493519	-0.855204	-21.982569	-17.284626	0.389834	5.351248	1.694306	-0.744629	-0.126465	0.147705	-0.018346	0.138374	0.185730	0.264190	0.692040	-0.370318	0.560489	-167.971381	-76.271483	-65.760490
28202		-0.900611	11.008140	15.191693	-0.132103	-18.201907	-14.440344	-0.009380	5.370155	1.481503	-0.727539	-0.108154	0.093994	-0.005739	0.110038	0.152095	0.269968	0.673957	-0.368235	0.580777	-160.437511	-79.010153	-73.481583
28203		1.565264	9.175372	13.413117	0.458231	-16.280466	-10.928984	-0.119884	5.754581	0.992495	-0.711670	-0.107910	0.042969	0.019045	0.091923	0.133561	0.277940	0.654999	-0.364068	0.600982	-149.168855	-81.755068	-84.979755
28204		2.485241	7.788357	11.558726	0.415676	-14.125693	-8.984191	-0.132373	6.400870	0.355721	-0.682861	-0.100830	-0.012695	0.028394	0.078008	0.114665	0.288872	0.634585	-0.356539	0.621880	-127.822467	-84.418990	-106.554138
28205		1.772311	6.215586	9.391119	0.329927	-11.344353	-8.751560	-0.094146	6.944496	-0.248683	-0.649414	-0.093506	-0.077393	0.021045	0.062175	0.093190	0.302116	0.612951	-0.345865	0.642958	-82.845865	-85.700328	-151.736743
28206		0.592663	4.901494	7.516667	0.297199	-8.967553	-9.227020	-0.042702	7.181315	-0.745258	-0.615723	-0.095215	-0.130371	0.008802	0.049002	0.074875	0.316922	0.590675	-0.332627	0.663342	-39.578075	-83.973126	164.812047
28207		-0.110644	3.730512	6.181614	0.491944	-7.192705	-9.432076	-0.012629	7.128569	-1.133117	-0.581543	-0.107910	-0.185303	0.001308	0.037306	0.061796	0.332332	0.568549	-0.317881	0.682099	-20.216897	-80.714890	145.276986
28208		0.146393	2.703912	5.785407	1.010263	-6.211771	-8.726071	0.038946	6.904863	-1.455078	-0.541016	-0.114014	-0.236084	0.003656	0.027007	0.057758	0.348007	0.547005	-0.301914	0.698945	-10.671701	-77.107261	135.576199
28209		1.424443	2.144186	6.330836	1.482263	-6.006695	-6.912648	0.135148	6.657070	-1.738757	-0.499756	-0.133301	-0.281982	0.016526	0.021262	0.062798	0.363523	0.526317	-0.284997	0.713876	-4.888065	-73.466859	129.676276
28210		3.240799	2.226401	7.610233	1.656847	-6.405185	-4.374346	0.229940	6.489580	-1.984875	-0.458984	-0.148193	-0.323486	0.035072	0.021838	0.075018	0.379094	0.506072	-0.266960	0.727263	-0.763810	-69.801214	125.470328
28211		5.465295	2.619316	9.122506	1.522269	-6.727506	-1.308157	0.271540	6.472644	-2.182964	-0.402100	-0.167480	-0.351563	0.057847	0.025451	0.089422	0.394729	0.485711	-0.248099	0.739406	2.340541	-66.083706	122.286766
28212		7.078806	2.601718	10.409760	1.637449	-6.493808	1.156561	0.277753	6.557484	-2.289200	-0.349854	-0.182129	-0.377686	0.074440	0.025037	0.101732	0.410464	0.464532	-0.228382	0.750713	4.735929	-62.244948	119.802856
28213		8.276627	1.888344	11.294644	2.143284	-5.462345	3.037382	0.354059	6.675092	-2.302652	-0.304688	-0.188232	-0.401855	0.086682	0.017704	0.110129	0.425618	0.442588	-0.207940	0.761397	6.570574	-58.318128	117.921158
28214		9.554914	0.893758	12.258935	2.854322	-4.049756	4.942899	0.605481	6.775233	-2.261157	-0.257568	-0.189697	-0.434814	0.099718	0.007461	0.119282	0.439705	0.420115	-0.186035	0.771721	8.108507	-54.294200	116.490597
28215		11.239597	0.620510	13.224705	2.818486	-2.549328	7.129296	1.004632	6.895476	-2.200691	-0.208252	-0.188965	-0.461426	0.116919	0.004284	0.128292	0.452176	0.397532	-0.162331	0.781763	9.505856	-50.206511	115.447902
28216		13.080835	1.911518	14.061835	1.320241	-1.387461	9.387727	1.345690	7.035436	-2.133172	-0.156494	-0.190674	-0.490234	0.135835	0.016758	0.136016	0.463277	0.374488	-0.136764	0.791472	10.830391	-46.014287	114.705944
28217		14.997668	3.986912	15.002275	-0.874999	-0.329403	11.746567	1.465595	7.111309	-2.070378	-0.120117	-0.201172	-0.507568	0.155583	0.037203	0.144836	0.473231	0.350941	-0.110599	0.800413	12.007756	-41.795451	114.214896
28218		18.395170	5.943333	15.683331	-3.645247	2.288413	14.699770	1.386205	7.175237	-2.065635	-0.067139	-0.238037	-0.546143	0.190021	0.056433	0.150486	0.482731	0.326354	-0.084317	0.808304	13.025862	-37.516597	113.866751
28219		21.748578	7.405626	15.304813	-6.595716	5.988722	16.309175	1.240740	7.302993	-2.221271	0.010254	-0.270508	-0.569092	0.223687	0.070676	0.145400	0.492375	0.300581	-0.058070	0.814767	13.918744	-33.160853	113.546891
28220		24.044747	9.008684	13.958765	-9.784207	9.412220	16.060649	1.097374	7.251048	-2.560017	0.092041	-0.298340	-0.559082	0.246427	0.086222	0.131204	0.502921	0.274223	-0.031803	0.819061	14.786627	-28.763799	113.087036
28221		26.369944	10.324393	12.423772	-12.737375	13.059864	15.149255	0.824262	6.766812	-3.006989	0.156006	-0.324219	-0.535889	0.269216	0.098735	0.115603	0.514808	0.248928	-0.007347	0.820338	15.580142	-24.580718	112.364559
28222		29.600950	6.948927	11.332666	-11.607317	19.455454	13.409599	0.494595	5.843203	-3.606434	0.203857	-0.345947	-0.517334	0.300339	0.063833	0.104755	0.528918	0.226191	0.014270	0.817851	16.313825	-20.786370	111.205306
28223		34.474324	-1.946302	8.505922	-6.422075	29.723411	8.611023	0.830457	4.950800	-4.330618	0.243164	-0.372070	-0.489746	0.346172	-0.027279	0.076398	0.545021	0.207763	0.035570	0.811493	17.323553	-17.362934	109.562209
28224		38.183268	-1.959720	3.106338	-8.837396	35.119245	2.815464	1.413362	4.302522	-4.753671	0.278076	-0.407227	-0.470703	0.381768	-0.028853	0.022667	0.561797	0.193181	0.057989	0.802310	18.653391	-14.171560	107.659641
28225		42.285676	3.924043	-5.017434	-17.254193	38.666464	-3.865856	0.774624	3.785572	-4.412996	0.307617	-0.420166	-0.457031	0.422539	0.030129	-0.058046	0.577394	0.178861	0.075889	0.793011	19.473857	-11.305532	105.936919
28226		39.008203	1.456687	-14.602421	-16.735811	37.652335	-16.048475	-0.770524	3.144996	-3.480980	0.334717	-0.422119	-0.458984	0.387890	0.007224	-0.152173	0.590536	0.162797	0.085029	0.785833	19.264117	-8.942173	104.631339
28227		33.498816	-11.393943	-19.469122	-4.544864	36.270751	-26.977814	-0.995781	2.060574	-2.759231	0.346191	-0.428711	-0.452148	0.331340	-0.119506	-0.197532	0.601201	0.150611	0.089356	0.779673	18.848338	-7.320086	103.512182
28228		37.654398	-15.348185	-20.597411	-1.427772	41.001813	-29.671609	0.304377	1.144023	-2.421818	0.360107	-0.444092	-0.440430	0.373464	-0.157701	-0.208354	0.609847	0.145994	0.095802	0.773042	19.155720	-6.250221	102.405102
28229		36.587789	-9.492562	-21.699623	-6.415430	38.349283	-29.505336	1.185672	0.445920	-1.702762	0.358398	-0.455322	-0.426758	0.364574	-0.096741	-0.218380	0.615300	0.147109	0.102904	0.767578	19.918742	-5.693220	101.567353
28230		31.073294	-5.202113	-19.273357	-8.209874	31.940391	-26.440362	0.848668	-0.719325	-0.574313	0.354492	-0.475342	-0.421631	0.311274	-0.052099	-0.191836	0.617231	0.152229	0.104348	0.764829	20.452748	-5.972095	101.113362
28231		29.878236	-4.586051	-12.778575	-6.121590	30.611212	-19.936151	0.189575	-1.793865	0.137632	0.336670	-0.477783	-0.408203	0.299944	-0.045535	-0.125142	0.617456	0.159786	0.099350	0.763771	20.590302	-6.972389	100.825691
28232		13.077878	14.820961	-1.603634	-16.563074	9.560577	-4.566503	-2.805265	-2.679416	0.732156	0.306885	-0.460449	-0.419922	0.130453	0.148460	-0.016368	0.618100	0.161758	0.079724	0.765135	19.001762	-8.567707	100.698773
28233		-22.940882	7.318420	16.466226	2.904648	-25.687271	3.692000	-4.206780	-5.807607	2.097353	0.240967	-0.438965	-0.440918	-0.234804	0.074088	0.156343	0.615345	0.171740	0.043859	0.768071	16.563622	-12.113007	100.830000
28234		24.016318	-10.843836	7.755750	8.098688	24.138878	0.476107	-4.597742	-6.216680	1.849523	0.184082	-0.419678	-0.452637	0.238525	-0.104293	0.087420	0.613056	0.181802	0.005433	0.768818	13.909422	-15.835911	100.918341
28235		20.636196	-11.519228	15.726247	11.679405	18.391083	8.380810	-1.929877	-5.407511	0.179296	0.150146	-0.408936	-0.444336	0.202093	-0.113450	0.163866	0.613992	0.196644	-0.018802	0.764194	12.993452	-18.882988	100.269923
28236		18.451724	-16.060979	15.892936	16.549568	16.304646	7.825993	-1.497284	-4.796729	0.448683	0.116455	-0.411621	-0.433105	0.180974	-0.158983	0.164493	0.613085	0.210338	-0.039731	0.760464	12.265513	-21.630908	99.896746
28237		13.784232	-11.250827	13.791199	12.264504	10.643630	5.776539	-0.331188	-4.238847	0.828125	0.078369	-0.416504	-0.415283	0.135340	-0.111713	0.140984	0.609274	0.225266	-0.054925	0.758303	12.091846	-24.114894	99.846294
28238		9.764111	5.180748	9.896210	-3.668138	3.667167	4.086307	0.012102	-3.902858	0.744016	0.049561	-0.425781	-0.399414	0.095492	0.052159	0.100843	0.605224	0.239915	-0.067662	0.756020	12.122328	-26.401755	99.789213
28239		11.195703	5.377408	9.796025	-3.980089	4.387425	4.853759	-0.120400	-3.798299	0.248397	0.029541	-0.430664	-0.377197	0.110003	0.053971	0.100029	0.603008	0.253820	-0.079977	0.752037	12.215061	-28.568998	99.431287
28240		22.799172	-1.070367	15.391774	2.166228	13.071339	14.316842	-0.532026	-3.189974	0.557512	0.011475	-0.430908	-0.357178	0.225526	-0.009657	0.157555	0.600206	0.264021	-0.092360	0.749343	11.949205	-30.434591	99.350856
28241		19.850158	3.937975	12.404913	-3.018907	10.027206	11.488639	-0.350517	-1.461801	0.747775	-0.004150	-0.428955	-0.348389	0.197439	0.040338	0.125425	0.597144	0.268130	-0.099124	0.749466	11.594875	-31.351790	99.642994
28242		11.593161	0.344529	12.507505	1.528443	3.717843	6.764291	-0.445916	-0.878482	0.536511	-0.002197	-0.424561	-0.339600	0.115370	0.004035	0.125574	0.595259	0.269895	-0.104213	0.749642	11.214052	-31.918732	99.880448
28243		10.739758	0.026675	10.224603	1.240669	4.084157	4.388211	-0.314929	0.060767	0.431698	-0.004150	-0.426758	-0.330811	0.107428	0.000660	0.102213	0.594068	0.268542	-0.105875	0.750839	10.873264	-31.941766	100.177016
28244		7.128692	2.279299	9.595234	-0.590692	0.738175	2.319417	-0.305678	-0.034830	0.240892	-0.013428	-0.420166	-0.335449	0.071243	0.023025	0.095930	0.593525	0.267713	-0.107529	0.751329	10.614450	-32.000282	100.333213
28245		6.620343	0.878556	8.746654	0.549275	1.088930	1.124280	-0.181561	0.019807	0.118058	-0.011230	-0.422363	-0.335205	0.066207	0.008904	0.087452	0.593307	0.267075	-0.108390	0.751604	10.462600	-32.011302	100.416851
28246		5.772630	1.786418	8.722649	-0.206694	0.140481	0.795643	-0.092042	0.013165	0.054415	-0.013428	-0.422363	-0.330811	0.057727	0.017920	0.087214	0.593203	0.266800	-0.108851	0.751718	10.388433	-32.022824	100.455435
28247		5.789795	1.372051	8.681097	0.165612	0.284264	0.706698	-0.025376	-0.005116	0.009979	-0.017822	-0.422607	-0.324219	0.057895	0.013734	0.086811	0.593169	0.266777	-0.109055	0.751724	10.365724	-32.036535	100.464249
28248		5.664918	1.780962	8.576820	-0.231372	0.113581	0.616049	0.018548	-0.048950	-0.005442	-0.010986	-0.424561	-0.324219	0.056629	0.017800	0.085784	0.593107	0.267096	-0.109204	0.751637	10.380040	-32.076903	100.455485
28249		5.674455	1.445963	8.442097	0.054013	0.269795	0.457830	0.055109	-0.091016	-0.017281	-0.011230	-0.417969	-0.326660	0.056707	0.014431	0.084451	0.593021	0.267649	-0.109323	0.751491	10.418649	-32.136207	100.435676
28250		5.548934	1.777021	8.565438	-0.196439	0.004552	0.544753	0.098059	-0.123707	-0.033969	-0.010986	-0.424561	-0.326416	0.055439	0.017719	0.085697	0.592919	0.268501	-0.109357	0.751262	10.493611	-32.215762	100.398643
28251		5.409310	2.087025	8.534880	-0.464775	-0.194293	0.492976	0.095816	-0.145159	-0.021408	-0.017822	-0.424805	-0.326416	0.054033	0.020824	0.085398	0.592764	0.269380	-0.109479	0.751052	10.560734	-32.305097	100.369193
28252		5.356039	1.984956	8.360548	-0.395201	-0.141467	0.304118	0.074048	-0.153906	-0.012818	-0.015625	-0.422363	-0.324219	0.053497	0.019815	0.083654	0.592598	0.270263	-0.109720	0.750831	10.616725	-32.403830	100.342168
28253		5.430958	1.747168	8.333844	-0.177512	-0.017396	0.285284	0.070964	-0.173558	-0.007709	-0.015381	-0.429199	-0.315186	0.054238	0.017440	0.083392	0.592408	0.271167	-0.110038	0.750609	10.666848	-32.510555	100.318021
28254		5.563905	1.394425	8.459308	0.184185	0.110559	0.405687	0.083185	-0.180968	-0.017310	-0.019775	-0.431396	-0.317139	0.055564	0.013904	0.084649	0.592230	0.272180	-0.110319	0.750341	10.731828	-32.624018	100.284251
28255		5.589531	1.247289	8.446955	0.330166	0.159877	0.386088	0.098564	-0.199809	-0.025696	-0.019775	-0.433594	-0.325928	0.055812	0.012424	0.084531	0.592054	0.273274	-0.110586	0.750043	10.806329	-32.743548	100.244394
28256		5.530716	1.565167	8.387555	0.035612	0.033973	0.355262	0.096217	-0.186490	-0.010387	-0.024170	-0.436035	-0.317139	0.055230	0.015608	0.083935	0.591827	0.274342	-0.110843	0.749794	10.876973	-32.860822	100.214137
28257		5.498388	2.061777	8.084994	-0.504724	0.002164	0.167069	0.064689	-0.151369	0.027047	-0.017578	-0.433594	-0.317139	0.054920	0.020599	0.080898	0.591526	0.275124	-0.111166	0.749697	10.909821	-32.958736	100.215465
28258		5.381610	2.038204	8.127668	-0.448871	-0.124888	0.135071	0.002799	-0.115486	0.078521	-0.017090	-0.442627	-0.310303	0.053761	0.020402	0.081308	0.591133	0.275600	-0.111686	0.749755	10.889708	-33.045694	100.253781
28259		5.457604	1.768299	8.226790	-0.180010	-0.051107	0.215142	-0.028827	-0.087152	0.119826	-0.008057	-0.446777	-0.316650	0.054530	0.017728	0.082289	0.590647	0.275813	-0.112297	0.749969	10.830409	-33.117489	100.325760
28260		5.456610	1.745753	8.147841	-0.188354	-0.020378	0.145910	-0.049154	-0.056432	0.153354	0.009521	-0.435547	-0.323730	0.054530	0.017519	0.081489	0.590077	0.275872	-0.112940	0.750298	10.748717	-33.179192	100.422163
28261		5.394202	1.854002	8.143647	-0.294600	-0.111766	0.124839	-0.054619	-0.033807	0.195668	0.013184	-0.408691	-0.340088	0.053910	0.018615	0.081441	0.589372	0.275766	-0.113594	0.750793	10.642663	-33.228845	100.552299
28262		5.474543	1.853998	8.068500	-0.341690	-0.020567	0.106558	-0.043545	-0.018198	0.243522	-0.006348	-0.371094	-0.345947	0.054715	0.018624	0.080686	0.588476	0.275647	-0.114227	0.751443	10.527932	-33.278239	100.714579
28263		5.412306	2.083156	8.258738	-0.512478	-0.243829	0.262888	-0.054268	-0.034321	0.287455	-0.035400	-0.373779	-0.332520	0.054079	0.020932	0.082591	0.587423	0.275490	-0.115008	0.752205	10.387716	-33.337275	100.906932
28264		5.471611	2.046416	8.276424	-0.498333	-0.212194	0.303247	-0.023708	-0.086722	0.331735	-0.048096	-0.396240	-0.322998	0.054646	0.020565	0.082786	0.586127	0.275635	-0.115889	0.753028	10.255685	-33.433749	101.120795
28265		5.277737	2.273299	8.566440	-0.616955	-0.605326	0.466377	-0.031101	-0.148936	0.372082	-0.038818	-0.402832	-0.318359	0.052671	0.022844	0.085700	0.584653	0.275927	-0.117035	0.753888	10.103877	-33.565209	101.357228
28266		5.328612	1.633997	8.505327	-0.051477	-0.382664	0.348781	-0.025639	-0.257573	0.381158	-0.047607	-0.407227	-0.322510	0.053145	0.016452	0.085120	0.583069	0.276680	-0.118489	0.754612	9.962042	-33.762106	101.585290
28267		5.344763	1.302047	8.710841	0.307314	-0.419940	0.476607	0.001879	-0.399611	0.370579	-0.045410	-0.407227	-0.315918	0.053249	0.013118	0.087215	0.581401	0.278011	-0.120239	0.755133	9.843891	-34.033951	101.792802
28268		5.394115	0.816968	8.534486	0.707560	-0.205151	0.289705	0.051294	-0.568128	0.334295	-0.045166	-0.414063	-0.315674	0.053685	0.008238	0.085500	0.579692	0.280183	-0.122240	0.755322	9.781558	-34.400851	101.954560
28269		5.208053	0.526449	8.663508	1.063576	-0.404700	0.245236	0.158950	-0.767637	0.259657	-0.053955	-0.418457	-0.315430	0.051741	0.005263	0.086838	0.577986	0.283420	-0.124307	0.755085	9.817870	-34.869354	102.044760
28270		5.337104	0.878294	8.617852	0.730518	-0.471215	0.324711	0.276244	-1.001254	0.192023	-0.056152	-0.418457	-0.315430	0.052930	0.008715	0.086456	0.576209	0.287954	-0.126507	0.754362	9.967998	-35.466874	102.057394
28271		5.305820	1.022284	8.881865	0.727986	-0.785143	0.528322	0.358351	-1.213199	0.162889	-0.065186	-0.418701	-0.306641	0.052510	0.010106	0.089156	0.574271	0.293492	-0.128962	0.753289	10.189555	-36.177378	102.023686
28272		5.289558	0.973867	8.930994	0.858790	-0.936766	0.534941	0.434251	-1.434284	0.130671	-0.076172	-0.425537	-0.308594	0.052247	0.009578	0.089707	0.572169	0.300127	-0.131712	0.751797	10.491948	-37.012657	101.932193
28273		5.311784	0.870967	9.032940	1.065582	-1.090457	0.591171	0.503976	-1.681670	0.087943	-0.087402	-0.427979	-0.302002	0.052352	0.008504	0.090793	0.569924	0.307858	-0.134835	0.749820	10.874486	-37.978634	101.772401
28274		5.375249	1.395731	9.309967	0.747198	-1.533608	0.892577	0.525406	-1.925911	0.083627	-0.093994	-0.427979	-0.290771	0.052847	0.013734	0.093648	0.567444	0.316580	-0.138554	0.747387	11.305851	-39.083986	101.561471
28275		5.239776	1.041314	9.355897	1.221907	-1.749796	0.747269	0.517699	-2.181896	0.082385	-0.109375	-0.439209	-0.292725	0.051369	0.010191	0.094150	0.564740	0.326163	-0.143011	0.744469	11.766389	-40.328153	101.299453
28276		5.242979	0.429401	9.323683	1.900361	-1.754075	0.575292	0.560812	-2.451074	0.019980	-0.131836	-0.441895	-0.285889	0.051281	0.004037	0.093882	0.561923	0.336903	-0.147944	0.740845	12.331850	-41.717029	100.925709
28277		5.328518	0.107029	9.488847	2.379224	-1.929623	0.630055	0.655384	-2.731654	-0.096724	-0.147217	-0.446533	-0.272461	0.051983	0.000732	0.095607	0.559073	0.348938	-0.153093	0.736371	13.066654	-43.241581	100.388584
28278		5.159023	0.996961	9.878213	1.868252	-2.856737	0.842208	0.765760	-3.066184	-0.177482	-0.162598	-0.455566	-0.258789	0.050076	0.009544	0.099595	0.555943	0.362528	-0.158594	0.730992	13.998311	-44.938607	99.678237
28279		5.105777	1.558013	9.997041	1.578271	-3.466494	0.860459	0.813066	-3.477375	-0.181526	-0.187012	-0.464844	-0.243164	0.049323	0.015126	0.100900	0.552258	0.377619	-0.165014	0.724697	15.078968	-46.851074	98.817366
28280		4.747108	1.424902	9.849957	1.879667	-3.916154	0.321454	0.853300	-3.989487	-0.165390	-0.213623	-0.476318	-0.224854	0.045505	0.013788	0.099480	0.547810	0.394551	-0.172667	0.717231	16.354689	-49.038138	97.755778
28281		4.220852	2.083078	9.952915	1.554513	-4.939156	-0.097660	0.819618	-4.616225	-0.089967	-0.246826	-0.487793	-0.204590	0.039905	0.020402	0.100552	0.542351	0.413352	-0.182226	0.708370	17.814894	-51.561321	96.464179
28282		3.674790	2.352808	9.935348	1.527333	-5.788780	-0.763929	0.716919	-5.393009	-0.017354	-0.282715	-0.490723	-0.171387	0.034052	0.023166	0.100379	0.535790	0.434315	-0.194281	0.697535	19.553586	-54.497164	94.800437
28283		3.227140	2.722210	10.170188	1.473778	-6.830747	-1.304606	0.510364	-6.346177	0.039276	-0.314209	-0.491211	-0.142578	0.029017	0.026967	0.102726	0.528081	0.457585	-0.209565	0.683980	21.726113	-57.918467	92.535148
28284		2.740041	6.059232	10.162898	-1.434690	-8.798410	-1.567532	0.197594	-7.493876	0.177752	-0.358398	-0.507324	-0.102051	0.023513	0.060513	0.102619	0.518775	0.483269	-0.229001	0.666995	24.596529	-61.918160	89.348423
28285		4.766243	5.075133	10.190322	-0.394108	-8.166189	-0.571915	-0.042211	-8.735603	0.332451	-0.400879	-0.516846	-0.057373	0.043070	0.050847	0.103841	0.507244	0.511469	-0.252456	0.646040	28.880555	-66.487594	84.563762
28286		10.816778	2.062726	11.020954	3.174463	-6.412836	4.019314	0.250820	-9.811085	0.239404	-0.443359	-0.521973	0.011475	0.102567	0.020610	0.115360	0.492821	0.542904	-0.276890	0.621059	36.626444	-71.309875	76.421414
28287		20.677959	1.328450	10.519141	5.008122	-4.383532	12.440454	1.174635	-10.446838	0.025460	-0.480957	-0.531494	0.089355	0.200910	0.012651	0.115867	0.474388	0.577460	-0.298738	0.593508	51.345371	-75.670751	61.785419
28288		27.094097	0.960396	11.378868	7.474603	-6.044952	17.959807	2.173211	-10.235961	-0.002935	-0.509766	-0.541016	0.180664	0.264646	0.008264	0.127539	0.452179	0.612215	-0.316203	0.566342	75.539164	-78.351964	38.254650
28289		26.869953	2.869816	13.442259	7.787093	-11.218547	17.088540	3.332474	-9.623540	0.093980	-0.548096	-0.539551	0.269287	0.261794	0.026436	0.147587	0.425893	0.646061	-0.328471	0.541596	104.575383	-78.405934	10.579650
28290		25.106147	11.195959	17.596863	3.118814	-20.896893	15.046021	4.337013	-9.410847	0.703600	-0.577637	-0.526855	0.373047	0.241956	0.108803	0.189883	0.393955	0.678753	-0.338650	0.519048	129.448311	-76.272616	-12.350250
28291		25.910281	14.672089	24.654592	4.676498	-31.023727	12.742727	4.305572	-9.417335	1.831180	-0.598633	-0.500732	0.463135	0.245698	0.143489	0.261442	0.358090	0.707637	-0.351837	0.497225	147.790412	-72.879522	-28.805110
28292		18.110561	11.743711	30.338666	8.693504	-34.769498	0.234998	3.735548	-7.650752	2.673858	-0.637939	-0.468262	0.539307	0.167735	0.113963	0.312126	0.324438	0.727930	-0.365396	0.480982	159.707039	-69.609408	-39.127234
28293		11.121051	10.529725	24.611315	5.807968	-28.266966	-7.135159	4.075983	-5.314411	3.178082	-0.673340	-0.422119	0.591064	0.102945	0.101894	0.251022	0.292010	0.741027	-0.375594	0.473854	168.582321	-67.165841	-46.161851
28294		32.959328	18.074806	37.958824	12.434003	-49.208615	6.848806	3.462188	-1.323715	2.692501	-0.717285	-0.389404	0.596436	0.324644	0.178509	0.384851	0.270287	0.743956	-0.379225	0.479232	174.399621	-66.643217	-50.336183
28295		20.572872	25.090468	36.008352	3.123101	-47.986127	-3.740877	2.390620	3.597551	1.686262	-0.769775	-0.363281	0.548828	0.210096	0.248366	0.359309	0.264079	0.735187	-0.374869	0.499234	177.785644	-68.756912	-52.518645
28296		0.789139	18.327771	24.319260	-1.525671	-29.510199	-17.208894	0.822018	5.223263	1.961325	-0.822266	-0.339355	0.488037	0.012460	0.182384	0.243658	0.265929	0.719240	-0.372973	0.522366	-178.695495	-71.765252	-55.763157
28297		-0.401454	13.083744	17.224573	-1.123781	-20.877563	-15.367856	0.126212	5.439230	2.149025	-0.859375	-0.310791	0.420410	-0.000732	0.130709	0.172378	0.269865	0.700910	-0.373044	0.544734	-173.848428	-74.788372	-60.750405
28298		1.537371	10.209219	14.059672	-0.248344	-17.306853	-11.967822	-0.079685	5.829572	1.991278	-0.895996	-0.291016	0.344238	0.018443	0.102322	0.140048	0.275563	0.680846	-0.372165	0.567456	-166.995207	-77.907557	-67.853210
28299		3.055462	9.082883	12.012462	-0.438778	-15.352910	-9.374498	0.004682	6.462439	1.507484	-0.934814	-0.275635	0.243896	0.033728	0.091072	0.119071	0.283114	0.659366	-0.368240	0.591170	-156.212158	-81.153102	-78.814174
28300		3.422186	8.421146	9.781903	-1.295277	-13.165359	-8.004020	0.055029	7.148488	0.929499	-0.946777	-0.260010	0.141113	0.037296	0.084353	0.096546	0.293262	0.636139	-0.360733	0.615790	-134.365402	-84.287381	-100.798822
