// General information: 
//  MT Manager version: 2019.2.0 
//  XDA version: 2019.2.0 build 3853 rev 94535 built on 2019-09-09
// Device information: 
//  DeviceId: 00B40ACF
//  ProductCode: MTW2-3A7G6
//  Firmware Version: 4.3.5
//  Hardware Version: 1.1.0
// Device settings: 
//  Filter Profile: human(46.1)
//  Option Flags: Orientation Smoother Disabled, AHS Disabled, ICC Disabled
// Coordinate system: ENU
PacketCounter	SampleTimeFine	Acc_X	Acc_Y	Acc_Z	FreeAcc_E	FreeAcc_N	FreeAcc_U	Gyr_X	Gyr_Y	Gyr_Z	Mag_X	Mag_Y	Mag_Z	VelInc_X	VelInc_Y	VelInc_Z	Quat_q0	Quat_q1	Quat_q2	Quat_q3	Roll	Pitch	Yaw
12563		-9.586410	-0.942567	-1.610789	-0.007504	-0.001662	-0.046302	-0.016889	-0.009912	-0.020894	0.752686	0.698486	-0.398438	-0.095864	-0.009417	-0.016112	0.430549	-0.616412	0.449954	0.481878	-149.488490	78.969041	-46.927026
12564		-9.579916	-1.047333	-1.619107	0.097429	0.011836	-0.041118	-0.012273	-0.010184	-0.021398	0.754883	0.702881	-0.392090	-0.095799	-0.010464	-0.016195	0.430513	-0.616420	0.449872	0.481975	-149.481152	78.976792	-46.906800
12565		-9.541550	-0.992438	-1.644247	0.055091	-0.031163	-0.079977	-0.006720	-0.007981	-0.021773	0.752686	0.700684	-0.402832	-0.095416	-0.009915	-0.016446	0.430489	-0.616422	0.449806	0.482055	-149.472961	78.983559	-46.888833
12566		-9.541386	-0.994650	-1.643865	0.057437	-0.031048	-0.079990	-0.002159	-0.000964	-0.026119	0.754883	0.698486	-0.394043	-0.095415	-0.009934	-0.016439	0.430475	-0.616441	0.449754	0.482092	-149.461602	78.985382	-46.870418
12567		-9.600948	-1.005667	-1.589511	0.049145	0.031347	-0.029400	-0.003773	-0.007712	-0.025748	0.757080	0.700684	-0.394043	-0.096010	-0.010045	-0.015899	0.430470	-0.616446	0.449684	0.482155	-149.442017	78.990857	-46.842563
12568		-9.583651	-0.987740	-1.610874	0.038501	0.003315	-0.044606	-0.001854	-0.005145	-0.026946	0.757080	0.705078	-0.403076	-0.095837	-0.009865	-0.016111	0.430469	-0.616457	0.449621	0.482202	-149.422100	78.994498	-46.815609
12569		-9.560163	-0.988172	-1.617511	0.043330	-0.007077	-0.066529	-0.007923	-0.003745	-0.027832	0.752686	0.700684	-0.402832	-0.095603	-0.009869	-0.016177	0.430447	-0.616485	0.449543	0.482258	-149.405516	78.997406	-46.788391
12570		-9.542387	-1.054841	-1.663323	0.119809	-0.039352	-0.069968	-0.007708	-0.003156	-0.025751	0.750244	0.705078	-0.398682	-0.095425	-0.010537	-0.016634	0.430420	-0.616510	0.449474	0.482315	-149.394936	79.000411	-46.767535
12571		-9.589237	-0.976633	-1.624854	0.030161	-0.014058	-0.037907	-0.003600	-0.004729	-0.022218	0.754639	0.705078	-0.400879	-0.095893	-0.009756	-0.016251	0.430400	-0.616514	0.449421	0.482376	-149.388620	79.005439	-46.753301
12572		-9.564392	-1.051944	-1.564697	0.094287	0.056736	-0.064849	0.002211	-0.004323	-0.021964	0.754883	0.700684	-0.396240	-0.095645	-0.010509	-0.015649	0.430397	-0.616506	0.449385	0.482422	-149.380190	79.010121	-46.740426
12573		-9.612205	-0.983100	-1.617103	0.032461	-0.003369	-0.016008	0.011135	-0.000675	-0.022147	0.754883	0.700684	-0.396240	-0.096123	-0.009819	-0.016172	0.430413	-0.616488	0.449377	0.482438	-149.371688	79.013170	-46.732564
12574		-9.613725	-1.035794	-1.637888	0.087770	-0.011955	-0.005986	0.012377	-0.002382	-0.022844	0.750244	0.702881	-0.392090	-0.096138	-0.010346	-0.016381	0.430439	-0.616466	0.449367	0.482454	-149.358089	79.016636	-46.720361
12575		-9.590781	-0.951110	-1.620608	0.005432	-0.018130	-0.039576	0.005754	0.000093	-0.018238	0.754639	0.705078	-0.398682	-0.095909	-0.009502	-0.016206	0.430428	-0.616452	0.449360	0.482488	-149.363748	79.020449	-46.723784
12576		-9.622521	-1.028452	-1.579632	0.068006	0.042784	-0.007617	0.012118	-0.000577	-0.023476	0.759521	0.698486	-0.400635	-0.096226	-0.010272	-0.015797	0.430451	-0.616436	0.449351	0.482497	-149.351392	79.022839	-46.712696
12577		-9.625500	-1.006001	-1.667101	0.064046	-0.046994	0.007455	0.008794	-0.004402	-0.025123	0.750244	0.702881	-0.398682	-0.096256	-0.010047	-0.016674	0.430475	-0.616420	0.449320	0.482523	-149.331035	79.026855	-46.691394
12578		-9.581749	-1.010743	-1.607917	0.062138	0.004356	-0.044728	-0.001678	-0.002157	-0.023421	0.756836	0.705078	-0.394287	-0.095818	-0.010096	-0.016080	0.430459	-0.616429	0.449275	0.482568	-149.324324	79.030037	-46.678008
12579		-9.559921	-1.061065	-1.635859	0.119886	-0.014720	-0.056695	0.001908	-0.000127	-0.021147	0.750488	0.698486	-0.398438	-0.095600	-0.010600	-0.016359	0.430443	-0.616430	0.449249	0.482605	-149.324449	79.033108	-46.673551
12580		-9.567503	-1.095256	-1.672078	0.159781	-0.040957	-0.040005	0.019963	0.007768	-0.019433	0.750488	0.696289	-0.402832	-0.095677	-0.010942	-0.016718	0.430462	-0.616408	0.449289	0.482579	-149.330430	79.032562	-46.685724
12581		-9.565544	-1.046825	-1.651620	0.109189	-0.032179	-0.049985	0.030048	0.009581	-0.012109	0.757080	0.700684	-0.400635	-0.095657	-0.010460	-0.016513	0.430489	-0.616351	0.449380	0.482543	-149.352061	79.033488	-46.719595
12582		-9.576774	-1.002688	-1.591168	0.052808	0.017956	-0.053144	0.026251	0.006971	-0.016469	0.752441	0.702881	-0.400879	-0.095769	-0.010017	-0.015910	0.430522	-0.616307	0.449443	0.482512	-149.360764	79.034195	-46.738218
12583		-9.576530	-1.004513	-1.591486	0.055182	0.018047	-0.053157	0.024550	0.004991	-0.013189	0.757080	0.702881	-0.400635	-0.095766	-0.010037	-0.015914	0.430545	-0.616253	0.449507	0.482500	-149.375889	79.037067	-46.762254
12584		-9.555353	-0.969706	-1.595606	0.025713	0.003176	-0.076652	0.029429	0.002932	-0.013065	0.754883	0.698486	-0.400635	-0.095554	-0.009688	-0.015956	0.430588	-0.616185	0.449580	0.482481	-149.385353	79.040756	-46.783505
12585		-9.574551	-0.957382	-1.570697	0.006916	0.026920	-0.063076	0.014387	0.003042	-0.012310	0.752441	0.702881	-0.398682	-0.095746	-0.009567	-0.015706	0.430583	-0.616146	0.449618	0.482500	-149.405627	79.044842	-46.806854
12586		-9.539591	-1.002533	-1.638608	0.070377	-0.033449	-0.081920	0.009101	-0.000973	-0.011301	0.752686	0.700684	-0.402832	-0.095396	-0.010019	-0.016387	0.430568	-0.616108	0.449639	0.482543	-149.425377	79.050970	-46.826720
12587		-9.572865	-1.003908	-1.664489	0.073771	-0.053729	-0.044895	0.008364	0.002042	-0.014648	0.750488	0.698486	-0.400635	-0.095730	-0.010031	-0.016644	0.430551	-0.616086	0.449653	0.482573	-149.441667	79.054866	-46.842496
12588		-9.533013	-1.023666	-1.623926	0.090487	-0.015558	-0.088751	0.015058	0.007324	-0.012818	0.752441	0.705078	-0.398682	-0.095331	-0.010229	-0.016237	0.430540	-0.616058	0.449701	0.482573	-149.466658	79.056452	-46.871178
12589		-9.573825	-0.963161	-1.571588	0.016341	0.027319	-0.063088	0.025224	0.009286	-0.013703	0.759277	0.703125	-0.402832	-0.095740	-0.009623	-0.015713	0.430557	-0.616014	0.449775	0.482545	-149.486624	79.057045	-46.900535
12590		-9.582928	-1.047459	-1.628961	0.109286	-0.007549	-0.036635	0.019464	0.006483	-0.015409	0.759277	0.703125	-0.402832	-0.095831	-0.010466	-0.016288	0.430567	-0.615981	0.449824	0.482533	-149.501213	79.058288	-46.921193
12591		-9.622184	-0.936757	-1.555720	-0.017843	0.043965	-0.020754	0.016762	0.009315	-0.016106	0.750732	0.694092	-0.402832	-0.096223	-0.009359	-0.015554	0.430563	-0.615961	0.449869	0.482519	-149.519939	79.058165	-46.944350
12592		-9.581577	-0.915968	-1.585308	-0.026191	0.005421	-0.057786	0.007630	0.005060	-0.018000	0.752930	0.694092	-0.400635	-0.095817	-0.009150	-0.015851	0.430547	-0.615956	0.449879	0.482532	-149.532546	79.059356	-46.956089
12593		-9.589083	-0.950052	-1.621716	0.013804	-0.020822	-0.041176	0.002539	0.006532	-0.020213	0.754883	0.700684	-0.402832	-0.095892	-0.009491	-0.016214	0.430516	-0.615969	0.449871	0.482549	-149.544751	79.059412	-46.964303
12594		-9.590333	-1.002312	-1.643181	0.069164	-0.029344	-0.031403	-0.007626	0.004568	-0.019329	0.757080	0.702881	-0.396240	-0.095905	-0.010014	-0.016429	0.430456	-0.615998	0.449839	0.482596	-149.561970	79.060459	-46.971833
12595		-9.551281	-0.937500	-1.578816	-0.001390	0.012904	-0.086518	-0.012191	0.002440	-0.020277	0.761719	0.696289	-0.391846	-0.095514	-0.009366	-0.015786	0.430389	-0.616034	0.449787	0.482659	-149.576306	79.062517	-46.973623
12596		-9.584467	-0.939191	-1.605072	0.002062	-0.007350	-0.049477	-0.015349	0.001577	-0.018384	0.759521	0.698486	-0.400635	-0.095846	-0.009384	-0.016049	0.430310	-0.616070	0.449732	0.482733	-149.595887	79.065314	-46.979045
12597		-9.581896	-0.974962	-1.608375	0.038636	-0.002730	-0.048024	-0.019966	0.001835	-0.017881	0.757324	0.698486	-0.400635	-0.095820	-0.009743	-0.016082	0.430215	-0.616115	0.449668	0.482821	-149.619909	79.068366	-46.986163
12598		-9.568490	-0.972091	-1.648831	0.046752	-0.043948	-0.054845	-0.015875	0.005182	-0.019651	0.757324	0.698486	-0.398438	-0.095686	-0.009713	-0.016485	0.430129	-0.616164	0.449616	0.482883	-149.641959	79.069013	-46.993808
12599		-9.542582	-1.005677	-1.659329	0.085639	-0.049804	-0.075346	-0.019964	0.001839	-0.017884	0.754639	0.705078	-0.398682	-0.095427	-0.010050	-0.016591	0.430034	-0.616210	0.449551	0.482970	-149.665994	79.072061	-47.000940
12600		-9.585063	-0.995554	-1.627726	0.064535	-0.015562	-0.039783	-0.013170	0.002360	-0.018957	0.757324	0.698486	-0.400635	-0.095852	-0.009948	-0.016275	0.429961	-0.616245	0.449501	0.483036	-149.684041	79.074300	-47.006079
12601		-9.581042	-0.980920	-1.609835	0.048080	-0.002316	-0.048066	-0.020363	-0.004237	-0.016749	0.757080	0.698486	-0.394043	-0.095811	-0.009803	-0.016099	0.429876	-0.616273	0.449426	0.483146	-149.702126	79.080680	-47.006918
12602		-9.578521	-1.016484	-1.612773	0.084623	0.002347	-0.046666	-0.018240	-0.001077	-0.015865	0.754883	0.700684	-0.400635	-0.095786	-0.010159	-0.016127	0.429788	-0.616304	0.449367	0.483241	-149.725882	79.085511	-47.014915
12603		-9.556036	-0.930845	-1.595979	0.002059	-0.003985	-0.079680	-0.016327	0.001500	-0.017066	0.759033	0.707520	-0.398682	-0.095561	-0.009302	-0.015958	0.429702	-0.616338	0.449313	0.483323	-149.749459	79.088960	-47.023702
12604		-9.570417	-0.987169	-1.577439	0.051660	0.028863	-0.063216	-0.013432	0.004171	-0.019592	0.757080	0.700684	-0.396240	-0.095705	-0.009863	-0.015772	0.429627	-0.616380	0.449264	0.483382	-149.768747	79.090116	-47.029956
12605		-9.588932	-0.934389	-1.622886	0.007973	-0.024140	-0.042641	-0.013134	0.004904	-0.025722	0.754883	0.698486	-0.398438	-0.095891	-0.009333	-0.016226	0.429564	-0.616435	0.449199	0.483428	-149.773371	79.089383	-47.021305
12606		-9.601777	-0.941214	-1.583468	0.004543	0.017310	-0.035824	-0.021538	0.002545	-0.029584	0.754883	0.700684	-0.396240	-0.096019	-0.009400	-0.015832	0.429491	-0.616512	0.449096	0.483490	-149.769223	79.088460	-46.998964
12607		-9.576776	-0.890942	-1.570042	-0.043852	0.015507	-0.067366	-0.026208	0.005187	-0.027631	0.754883	0.700684	-0.398438	-0.095769	-0.008898	-0.015697	0.429392	-0.616601	0.448994	0.483560	-149.776862	79.087036	-46.985753
12608		-9.571524	-0.962142	-1.576741	0.026882	0.024738	-0.064633	-0.022219	0.003196	-0.034393	0.757080	0.700684	-0.394043	-0.095717	-0.009607	-0.015765	0.429327	-0.616692	0.448877	0.483610	-149.761732	79.084406	-46.951828
12609		-9.561781	-0.976641	-1.635302	0.053890	-0.029640	-0.063230	-0.021290	0.005681	-0.034268	0.757080	0.702881	-0.396240	-0.095620	-0.009752	-0.016349	0.429259	-0.616786	0.448766	0.483654	-149.750267	79.080821	-46.922032
12610		-9.578337	-1.000154	-1.614093	0.069310	-0.001327	-0.048193	-0.022481	0.005010	-0.035032	0.757080	0.698486	-0.391846	-0.095786	-0.009987	-0.016137	0.429190	-0.616883	0.448650	0.483698	-149.736399	79.077103	-46.889228
12611		-9.577877	-1.003192	-1.614939	0.071686	-0.001228	-0.048211	-0.019377	0.008272	-0.035472	0.757324	0.696289	-0.396240	-0.095781	-0.010017	-0.016144	0.429125	-0.616982	0.448547	0.483726	-149.724657	79.071886	-46.860265
12612		-9.576065	-0.956060	-1.594914	0.020968	0.007473	-0.057775	-0.019850	0.009501	-0.038194	0.752441	0.702881	-0.400879	-0.095763	-0.009544	-0.015944	0.429062	-0.617091	0.448437	0.483744	-149.707947	79.065029	-46.826114
12613		-9.602601	-0.977745	-1.607160	0.039962	0.004918	-0.027633	-0.024730	0.011562	-0.038328	0.759277	0.705078	-0.394287	-0.096029	-0.009761	-0.016065	0.428979	-0.617216	0.448319	0.483768	-149.696932	79.057356	-46.794766
12614		-9.561846	-0.957892	-1.637262	0.031468	-0.033633	-0.064612	-0.029794	0.008116	-0.035245	0.752930	0.694092	-0.396240	-0.095621	-0.009565	-0.016367	0.428882	-0.617337	0.448191	0.483819	-149.691401	79.052035	-46.766205
12615		-9.597807	-0.967951	-1.591399	0.025818	0.018281	-0.035859	-0.028032	0.007745	-0.039990	0.752686	0.698486	-0.394043	-0.095981	-0.009663	-0.015909	0.428802	-0.617463	0.448051	0.483858	-149.672376	79.045767	-46.724770
12616		-9.554492	-0.982766	-1.624451	0.051506	-0.015696	-0.071533	-0.028504	0.008981	-0.042713	0.757080	0.700684	-0.394043	-0.095548	-0.009810	-0.016239	0.428724	-0.617600	0.447905	0.483887	-149.648401	79.037854	-46.678181
12617		-9.590371	-0.993181	-1.578870	0.045861	0.036221	-0.042783	-0.027163	0.012625	-0.038411	0.757080	0.702881	-0.398438	-0.095907	-0.009916	-0.015781	0.428632	-0.617732	0.447783	0.483913	-149.640276	79.029625	-46.648354
12618		-9.606194	-0.976159	-1.628237	0.036452	-0.012200	-0.020776	-0.027842	0.013285	-0.043223	0.750488	0.700684	-0.394287	-0.096065	-0.009743	-0.016275	0.428548	-0.617879	0.447646	0.483926	-149.621135	79.019429	-46.607058
12619		-9.559016	-0.975122	-1.643604	0.043274	-0.033067	-0.064656	-0.027777	0.010917	-0.044688	0.750244	0.700439	-0.387695	-0.095593	-0.009732	-0.016429	0.428473	-0.618023	0.447499	0.483945	-149.594910	79.010221	-46.558433
12620		-9.558377	-0.978885	-1.645086	0.045615	-0.032934	-0.064666	-0.024472	0.014763	-0.043036	0.752686	0.698486	-0.394043	-0.095587	-0.009770	-0.016443	0.428396	-0.618166	0.447374	0.483946	-149.576626	78.999341	-46.519967
12621		-9.582118	-1.035290	-1.660773	0.098867	-0.030882	-0.033309	-0.025122	0.010488	-0.042544	0.752441	0.705078	-0.394287	-0.095824	-0.010335	-0.016601	0.428324	-0.618298	0.447240	0.483966	-149.553805	78.990961	-46.476357
12622		-9.577807	-1.022785	-1.643953	0.082323	-0.017617	-0.041506	-0.023455	0.009944	-0.039067	0.754883	0.698486	-0.396240	-0.095781	-0.010211	-0.016434	0.428252	-0.618418	0.447119	0.483988	-149.537918	78.983608	-46.440943
12623		-9.577298	-1.026057	-1.644883	0.084701	-0.017505	-0.041527	-0.022645	0.004538	-0.037183	0.752441	0.702881	-0.392090	-0.095775	-0.010245	-0.016445	0.428188	-0.618518	0.446994	0.484031	-149.518480	78.979718	-46.402222
12624		-9.602734	-0.997573	-1.635655	0.050652	-0.011471	-0.020838	-0.018836	0.009716	-0.039571	0.750244	0.702881	-0.389893	-0.096030	-0.009958	-0.016351	0.428131	-0.618629	0.446883	0.484043	-149.498391	78.972323	-46.365222
12625		-9.598495	-0.985104	-1.618627	0.034135	0.001763	-0.029011	-0.017579	0.008023	-0.040272	0.754883	0.700684	-0.394043	-0.095988	-0.009833	-0.016182	0.428083	-0.618734	0.446768	0.484057	-149.473487	78.965809	-46.323889
12626		-9.585770	-1.034134	-1.680677	0.095379	-0.047948	-0.026488	-0.014930	0.007579	-0.038119	0.754883	0.700684	-0.391846	-0.095860	-0.010324	-0.016802	0.428040	-0.618828	0.446666	0.484070	-149.451710	78.959884	-46.287439
12627		-9.577904	-1.005478	-1.645362	0.059951	-0.021593	-0.042816	-0.013469	0.006457	-0.036729	0.750000	0.707275	-0.396484	-0.095781	-0.010038	-0.016450	0.427999	-0.618912	0.446569	0.484088	-149.431141	78.955168	-46.252920
12628		-9.567343	-1.011032	-1.613249	0.058674	0.009386	-0.057930	-0.008919	0.008599	-0.035766	0.756836	0.705078	-0.392090	-0.095676	-0.010094	-0.016128	0.427966	-0.618990	0.446491	0.484089	-149.413431	78.949420	-46.224133
12629		-9.573244	-0.995989	-1.629092	0.045761	-0.008219	-0.050989	-0.006541	0.009958	-0.034240	0.754883	0.698486	-0.391846	-0.095735	-0.009944	-0.016286	0.427934	-0.619063	0.446425	0.484085	-149.400452	78.943699	-46.201391
12630		-9.573637	-1.049537	-1.651369	0.101215	-0.016588	-0.041682	0.000249	0.010507	-0.035299	0.754883	0.700684	-0.391846	-0.095739	-0.010478	-0.016509	0.427924	-0.619125	0.446375	0.484061	-149.381582	78.937140	-46.176762
12631		-9.582315	-1.000413	-1.663784	0.054116	-0.038798	-0.035913	0.007852	0.005640	-0.034470	0.752686	0.700684	-0.396240	-0.095825	-0.009987	-0.016636	0.427946	-0.619156	0.446335	0.484039	-149.353375	78.933478	-46.146905
12632		-9.565386	-1.024129	-1.616591	0.068097	0.009903	-0.057992	0.003371	0.008828	-0.030425	0.754883	0.700684	-0.394043	-0.095656	-0.010226	-0.016162	0.427937	-0.619197	0.446303	0.484023	-149.342514	78.929166	-46.132282
12633		-9.581416	-1.006649	-1.665199	0.058843	-0.038539	-0.035939	0.007989	0.008596	-0.030921	0.754883	0.698486	-0.396240	-0.095816	-0.010051	-0.016648	0.427944	-0.619228	0.446281	0.483998	-149.327612	78.925081	-46.116061
12634		-9.577358	-0.993687	-1.647732	0.042263	-0.025284	-0.044074	0.004903	0.005331	-0.030496	0.754883	0.698486	-0.391846	-0.095776	-0.009922	-0.016475	0.427949	-0.619257	0.446245	0.483990	-149.310489	78.922468	-46.095952
12635		-9.580618	-1.012513	-1.666236	0.063571	-0.038278	-0.035968	0.000762	0.004333	-0.027283	0.750244	0.702881	-0.392090	-0.095808	-0.010112	-0.016660	0.427934	-0.619284	0.446207	0.484003	-149.302534	78.921545	-46.082591
12636		-9.550575	-1.030726	-1.658679	0.083323	-0.030896	-0.064909	0.004595	0.004564	-0.024359	0.747803	0.711670	-0.389893	-0.095507	-0.010295	-0.016585	0.427925	-0.619298	0.446189	0.484010	-149.299881	78.921101	-46.077028
12637		-9.576359	-1.001398	-1.648869	0.049363	-0.024909	-0.044107	0.004869	0.002760	-0.023730	0.752686	0.700684	-0.394043	-0.095765	-0.010002	-0.016488	0.427918	-0.619305	0.446168	0.484026	-149.296160	78.921992	-46.070380
12638		-9.559508	-1.024359	-1.601551	0.063289	0.023796	-0.066206	0.013213	0.010091	-0.025149	0.754639	0.707275	-0.387695	-0.095597	-0.010231	-0.016011	0.427924	-0.619316	0.446180	0.483996	-149.294819	78.918591	-46.071184
12639		-9.575640	-1.006377	-1.650017	0.054083	-0.024649	-0.044131	0.016406	0.006033	-0.021729	0.752441	0.705078	-0.389893	-0.095758	-0.010052	-0.016498	0.427941	-0.619302	0.446200	0.483980	-149.294412	78.918455	-46.074648
12640		-9.568901	-1.026802	-1.635465	0.071680	-0.006774	-0.051143	0.021699	0.005137	-0.017410	0.750244	0.705078	-0.394287	-0.095690	-0.010258	-0.016353	0.427966	-0.619266	0.446245	0.483963	-149.300294	78.919755	-46.087750
12641		-9.568646	-1.028839	-1.635672	0.074056	-0.006657	-0.051161	0.024145	0.004122	-0.017343	0.752686	0.696045	-0.389648	-0.095688	-0.010278	-0.016356	0.428000	-0.619221	0.446294	0.483945	-149.303636	78.921844	-46.099553
12642		-9.594510	-0.999210	-1.625858	0.040084	-0.000653	-0.030313	0.025059	0.006611	-0.017211	0.750488	0.698486	-0.394043	-0.095946	-0.009982	-0.016257	0.428032	-0.619180	0.446352	0.483916	-149.310287	78.922477	-46.115449
12643		-9.570986	-0.998589	-1.633077	0.044572	-0.011028	-0.052268	0.024348	0.004699	-0.015255	0.754883	0.700684	-0.391846	-0.095711	-0.009977	-0.016330	0.428061	-0.619131	0.446409	0.483901	-149.319637	78.924892	-46.133492
12644		-9.577209	-0.982238	-1.648231	0.031667	-0.028618	-0.045264	0.020717	0.005040	-0.016090	0.750732	0.693848	-0.391846	-0.095773	-0.009813	-0.016481	0.428080	-0.619093	0.446456	0.483889	-149.329258	78.926625	-46.149877
12645		-9.593795	-1.004919	-1.626556	0.047188	-0.000281	-0.030345	0.019805	0.002557	-0.016224	0.752686	0.700684	-0.394043	-0.095939	-0.010040	-0.016265	0.428102	-0.619051	0.446494	0.483888	-149.335581	78.929811	-46.162183
12646		-9.597159	-1.022843	-1.644724	0.068491	-0.013234	-0.022288	0.024350	0.004709	-0.015260	0.757080	0.702881	-0.392090	-0.095973	-0.010219	-0.016446	0.428131	-0.619003	0.446552	0.483870	-149.344723	78.931948	-46.180199
12647		-9.597613	-1.075184	-1.665996	0.124033	-0.021572	-0.013204	0.021779	0.002781	-0.018882	0.750488	0.698486	-0.398438	-0.095977	-0.010741	-0.016660	0.428165	-0.618963	0.446587	0.483859	-149.343560	78.934247	-46.186030
12648		-9.623547	-1.045506	-1.655994	0.090099	-0.015578	0.007685	0.024626	0.002911	-0.014631	0.752441	0.702881	-0.394287	-0.096236	-0.010446	-0.016560	0.428197	-0.618909	0.446644	0.483848	-149.351429	78.937450	-46.202906
12649		-9.601598	-0.909970	-1.617693	-0.045958	-0.013706	-0.033457	0.015703	0.004136	-0.019788	0.752686	0.700684	-0.396240	-0.096017	-0.009089	-0.016176	0.428211	-0.618887	0.446664	0.483844	-149.353493	78.938816	-46.208477
12650		-9.582617	-1.016935	-1.594147	0.055233	0.031201	-0.045498	0.008001	0.001084	-0.018861	0.745605	0.704834	-0.392090	-0.095827	-0.010160	-0.015941	0.428207	-0.618873	0.446663	0.483866	-149.357491	78.941684	-46.211699
12651		-9.565612	-0.998174	-1.616002	0.044454	0.003084	-0.060418	0.007802	0.000515	-0.020954	0.754639	0.705078	-0.396484	-0.095657	-0.009971	-0.016160	0.428207	-0.618862	0.446654	0.483889	-149.355730	78.944493	-46.208760
12652		-9.578337	-0.963778	-1.646060	0.016345	-0.032255	-0.046336	0.000662	0.004130	-0.019070	0.754883	0.698486	-0.391846	-0.095785	-0.009629	-0.016459	0.428174	-0.618872	0.446641	0.483918	-149.367938	78.945797	-46.216055
12653		-9.565132	-1.001998	-1.616476	0.049161	0.003337	-0.060440	0.006742	0.002785	-0.018169	0.752686	0.700684	-0.394043	-0.095652	-0.010011	-0.016164	0.428159	-0.618863	0.446642	0.483942	-149.377210	78.948301	-46.223739
12654		-9.578791	-1.058787	-1.597740	0.098852	0.036367	-0.044579	0.013296	0.000205	-0.014541	0.752686	0.698486	-0.391846	-0.095789	-0.010580	-0.015978	0.428162	-0.618826	0.446666	0.483964	-149.387799	78.952860	-46.236759
12655		-9.595132	-1.040045	-1.645761	0.089784	-0.012085	-0.022459	0.031743	0.007026	-0.010054	0.757324	0.696289	-0.396240	-0.095952	-0.010393	-0.016456	0.428196	-0.618755	0.446761	0.483936	-149.409594	78.955638	-46.271797
12656		-9.547797	-0.985876	-1.638747	0.043040	-0.024502	-0.075366	0.029848	0.004431	-0.008858	0.748291	0.698242	-0.394043	-0.095479	-0.009852	-0.016387	0.428227	-0.618680	0.446852	0.483921	-149.431387	78.959766	-46.305911
12657		-9.597718	-1.008804	-1.642883	0.060314	-0.016489	-0.023457	0.029527	0.000916	-0.014503	0.750488	0.698242	-0.391846	-0.095978	-0.010079	-0.016430	0.428279	-0.618610	0.446915	0.483907	-149.434107	78.964259	-46.320220
12658		-9.571326	-1.042205	-1.652804	0.098893	-0.022176	-0.044476	0.031823	0.004662	-0.011520	0.754883	0.700684	-0.389648	-0.095714	-0.010414	-0.016527	0.428322	-0.618537	0.447003	0.483881	-149.448371	78.967494	-46.347816
12659		-9.576443	-0.925054	-1.625765	-0.020315	-0.022984	-0.055323	0.030440	0.003412	-0.014378	0.754883	0.702881	-0.400635	-0.095765	-0.009241	-0.016257	0.428370	-0.618470	0.447074	0.483858	-149.454630	78.970790	-46.366263
12660		-9.570343	-0.995479	-1.631808	0.050415	-0.013512	-0.053460	0.022265	0.001583	-0.016174	0.752686	0.698486	-0.389648	-0.095704	-0.009945	-0.016318	0.428402	-0.618421	0.447117	0.483853	-149.458014	78.974186	-46.377180
12661		-9.606401	-0.963865	-1.654809	0.020374	-0.038405	-0.017358	0.020606	0.002136	-0.019666	0.750488	0.698486	-0.396240	-0.096065	-0.009627	-0.016548	0.428435	-0.618384	0.447146	0.483844	-149.454618	78.976571	-46.380049
12662		-9.569929	-0.999601	-1.631716	0.055126	-0.013264	-0.053485	0.015276	0.000437	-0.017207	0.750732	0.693848	-0.394043	-0.095700	-0.009987	-0.016318	0.428451	-0.618349	0.447166	0.483856	-149.457683	78.980230	-46.386565
12663		-9.566744	-1.035898	-1.634690	0.091699	-0.008479	-0.052595	0.021793	0.002826	-0.018907	0.752686	0.698486	-0.398438	-0.095669	-0.010348	-0.016347	0.428484	-0.618309	0.447202	0.483844	-149.456565	78.982497	-46.392449
12664		-9.545686	-0.950610	-1.617735	0.008642	-0.015115	-0.084350	0.017372	0.003615	-0.016319	0.754639	0.705078	-0.396484	-0.095458	-0.009497	-0.016176	0.428497	-0.618276	0.447237	0.483843	-149.465428	78.984847	-46.406133
12665		-9.533000	-1.039089	-1.608817	0.094589	0.012101	-0.089674	0.017649	0.001812	-0.015685	0.754883	0.702881	-0.392090	-0.095331	-0.010382	-0.016088	0.428513	-0.618235	0.447270	0.483851	-149.473344	78.988551	-46.418802
12666		-9.572089	-0.972895	-1.628974	0.030351	-0.017452	-0.054422	0.021205	0.003868	-0.013397	0.755127	0.696289	-0.391846	-0.095722	-0.009721	-0.016289	0.428529	-0.618188	0.447324	0.483847	-149.487794	78.991620	-46.440348
12667		-9.548636	-0.971939	-1.636003	0.034723	-0.027838	-0.076383	0.018836	0.002501	-0.014924	0.752686	0.698486	-0.396240	-0.095487	-0.009711	-0.016360	0.428545	-0.618145	0.447364	0.483851	-149.498006	78.995205	-46.456048
12668		-9.565211	-0.994380	-1.614075	0.050238	0.000544	-0.061546	0.020298	0.001383	-0.013526	0.752686	0.696289	-0.396240	-0.095653	-0.009936	-0.016141	0.428565	-0.618093	0.447410	0.483857	-149.508980	78.999462	-46.473558
12669		-9.581114	-0.925389	-1.641060	-0.011933	-0.039545	-0.048187	0.013505	0.000798	-0.012463	0.754883	0.702881	-0.398438	-0.095812	-0.009247	-0.016411	0.428562	-0.618052	0.447441	0.483884	-149.525973	79.004601	-46.493054
12670		-9.577983	-0.961294	-1.643777	0.024601	-0.034723	-0.047338	0.011017	-0.003522	-0.017537	0.754883	0.698486	-0.391846	-0.095780	-0.009604	-0.016440	0.428574	-0.618018	0.447441	0.483916	-149.524730	79.010116	-46.492725
12671		-9.564795	-0.999182	-1.613574	0.057316	0.000895	-0.061585	0.006238	0.001445	-0.014130	0.757324	0.696289	-0.391846	-0.095649	-0.009985	-0.016135	0.428551	-0.617997	0.447451	0.483954	-149.542641	79.014451	-46.508915
12672		-9.587400	-0.953182	-1.585690	0.004448	0.019893	-0.048426	0.015085	-0.000118	-0.019310	0.754883	0.698486	-0.389648	-0.095875	-0.009521	-0.015858	0.428572	-0.617966	0.447463	0.483963	-149.539704	79.017762	-46.509162
12673		-9.564437	-1.002847	-1.613421	0.062020	0.001140	-0.061613	0.015481	0.001031	-0.015126	0.752686	0.700684	-0.396240	-0.095645	-0.010020	-0.016134	0.428581	-0.617927	0.447491	0.483979	-149.549177	79.022011	-46.522150
12674		-9.567309	-0.970479	-1.610275	0.030156	-0.003423	-0.062441	0.021170	-0.001440	-0.018410	0.761475	0.702881	-0.391846	-0.095674	-0.009694	-0.016104	0.428622	-0.617878	0.447518	0.483981	-149.543016	79.026239	-46.522687
12675		-9.613520	-0.937268	-1.665984	0.004138	-0.059160	-0.011145	0.014970	-0.003063	-0.022861	0.757080	0.700684	-0.391846	-0.096136	-0.009360	-0.016662	0.428657	-0.617848	0.447512	0.483995	-149.526953	79.030263	-46.509364
12676		-9.576998	-0.973381	-1.642404	0.038748	-0.033999	-0.047382	0.009955	-0.004000	-0.026549	0.752686	0.698486	-0.398438	-0.095771	-0.009720	-0.016426	0.428688	-0.617835	0.447481	0.484012	-149.502673	79.033384	-46.484832
12677		-9.599607	-0.928457	-1.614210	-0.014064	-0.015049	-0.034153	0.005847	-0.002447	-0.030113	0.757324	0.698486	-0.398438	-0.095997	-0.009270	-0.016144	0.428711	-0.617842	0.447432	0.484028	-149.474261	79.034993	-46.453607
12678		-9.549794	-0.960389	-1.630590	0.026361	-0.031200	-0.077285	0.000123	-0.005303	-0.031834	0.755127	0.691895	-0.396240	-0.095499	-0.009589	-0.016308	0.428728	-0.617858	0.447358	0.484060	-149.440124	79.037225	-46.413464
12679		-9.572816	-0.966197	-1.623189	0.026791	-0.020600	-0.055334	-0.002523	-0.004867	-0.033998	0.754883	0.698486	-0.394043	-0.095729	-0.009646	-0.016234	0.428741	-0.617885	0.447272	0.484094	-149.402951	79.038888	-46.368430
12680		-9.559029	-0.955117	-1.571936	0.006164	0.023402	-0.078331	-0.007422	-0.002855	-0.034140	0.752441	0.702881	-0.396484	-0.095592	-0.009535	-0.015720	0.428734	-0.617929	0.447178	0.484130	-149.370979	79.039226	-46.326051
12681		-9.542444	-0.987954	-1.614486	0.048572	-0.013089	-0.084464	-0.006155	-0.004541	-0.034835	0.754883	0.702881	-0.394287	-0.095426	-0.009863	-0.016147	0.428737	-0.617967	0.447081	0.484170	-149.334231	79.040473	-46.279332
12682		-9.555686	-1.046206	-1.595341	0.098302	0.020023	-0.068934	0.007464	0.001990	-0.031969	0.759277	0.700684	-0.394043	-0.095559	-0.010446	-0.015953	0.428760	-0.617986	0.447040	0.484162	-149.306473	79.039047	-46.249883
12683		-9.571638	-0.978937	-1.622503	0.036208	-0.020117	-0.055363	0.014734	0.001363	-0.030307	0.757080	0.698486	-0.394043	-0.095718	-0.009774	-0.016225	0.428803	-0.617983	0.447020	0.484147	-149.278190	79.038701	-46.223977
12684		-9.574777	-0.998134	-1.640494	0.057606	-0.033025	-0.047471	0.016115	0.002626	-0.027454	0.757080	0.702881	-0.398438	-0.095749	-0.009967	-0.016404	0.428841	-0.617975	0.447015	0.484128	-149.258023	79.038274	-46.207274
12685		-9.571035	-0.984803	-1.622515	0.040917	-0.019871	-0.055381	0.020031	0.000511	-0.025986	0.752441	0.702881	-0.392090	-0.095712	-0.009834	-0.016226	0.428891	-0.617950	0.447019	0.484112	-149.236405	79.039609	-46.191247
12686		-9.570740	-0.987752	-1.622461	0.043249	-0.019735	-0.055391	0.015922	0.002062	-0.029552	0.755127	0.694092	-0.394043	-0.095709	-0.009862	-0.016224	0.428935	-0.617945	0.447007	0.484091	-149.210069	79.038843	-46.168173
12687		-9.583947	-1.005152	-1.673172	0.068644	-0.063483	-0.032445	0.007128	-0.004098	-0.030826	0.750244	0.707275	-0.400879	-0.095841	-0.010036	-0.016734	0.428967	-0.617947	0.446955	0.484108	-149.176551	79.041024	-46.132495
12688		-9.563631	-1.011615	-1.606802	0.063076	-0.001722	-0.062598	0.005545	-0.003184	-0.023978	0.754883	0.702881	-0.394287	-0.095637	-0.010104	-0.016070	0.428977	-0.617939	0.446923	0.484137	-149.162349	79.044475	-46.115823
12689		-9.566592	-0.980091	-1.603519	0.031253	-0.006344	-0.063302	0.003495	-0.003779	-0.031662	0.750244	0.705078	-0.400879	-0.095667	-0.009785	-0.016037	0.429000	-0.617951	0.446861	0.484160	-149.129246	79.046248	-46.078448
12690		-9.566620	-1.033290	-1.623904	0.086855	-0.014516	-0.054756	0.001010	-0.005360	-0.024936	0.750488	0.698486	-0.398438	-0.095667	-0.010321	-0.016242	0.429003	-0.617950	0.446811	0.484204	-149.111836	79.050482	-46.055826
12691		-9.539759	-1.016669	-1.612521	0.072031	-0.011863	-0.084608	-0.002711	-0.002672	-0.024313	0.754883	0.700684	-0.391846	-0.095399	-0.010155	-0.016126	0.428987	-0.617962	0.446758	0.484253	-149.102621	79.053868	-46.039162
12692		-9.589245	-0.990157	-1.595636	0.036401	0.004532	-0.041365	-0.002797	-0.000294	-0.022859	0.754639	0.709473	-0.396484	-0.095894	-0.009891	-0.015956	0.428962	-0.617977	0.446716	0.484295	-149.100434	79.056215	-46.029805
12693		-9.569231	-1.005560	-1.620421	0.059741	-0.018892	-0.055476	-0.004490	-0.002332	-0.019558	0.757080	0.700684	-0.400635	-0.095693	-0.010047	-0.016205	0.428927	-0.617982	0.446675	0.484357	-149.104840	79.060833	-46.025975
12694		-9.562398	-1.025609	-1.605271	0.077174	-0.000978	-0.062700	-0.003978	-0.000978	-0.023624	0.752441	0.707275	-0.396484	-0.095625	-0.010245	-0.016053	0.428902	-0.618000	0.446626	0.484402	-149.100286	79.063293	-46.013521
12695		-9.588636	-0.996327	-1.595458	0.043486	0.004886	-0.041394	0.000557	0.001207	-0.022670	0.754883	0.700684	-0.391846	-0.095888	-0.009952	-0.015954	0.428883	-0.618010	0.446594	0.484434	-149.099267	79.065255	-46.007113
12696		-9.575225	-0.993816	-1.635407	0.051678	-0.036281	-0.048304	0.012646	0.000970	-0.019413	0.750244	0.702881	-0.394287	-0.095753	-0.009928	-0.016354	0.428894	-0.617988	0.446602	0.484446	-149.098877	79.067988	-46.008509
12697		-9.588026	-0.950354	-1.574542	-0.005099	0.013417	-0.049881	0.012063	-0.000737	-0.025699	0.752441	0.707275	-0.392090	-0.095881	-0.009490	-0.015746	0.428922	-0.617975	0.446586	0.484452	-149.080589	79.070013	-45.991225
12698		-9.567948	-0.966456	-1.599234	0.018183	-0.009974	-0.064006	0.007246	-0.001115	-0.027295	0.757080	0.702881	-0.396240	-0.095681	-0.009651	-0.015993	0.428940	-0.617977	0.446552	0.484465	-149.059999	79.071449	-45.968882
12699		-9.594358	-0.988197	-1.609944	0.037810	-0.012396	-0.034212	0.006348	-0.003605	-0.027420	0.752686	0.698486	-0.396240	-0.095945	-0.009868	-0.016101	0.428961	-0.617974	0.446509	0.484490	-149.036214	79.074375	-45.942666
12700		-9.567468	-0.972009	-1.598740	0.022883	-0.009728	-0.064015	0.007952	0.000815	-0.029270	0.752686	0.700684	-0.394043	-0.095676	-0.009705	-0.015987	0.428982	-0.617983	0.446476	0.484490	-149.013236	79.074282	-45.918422
12701		-9.570620	-0.990933	-1.616442	0.044364	-0.022644	-0.056196	0.003193	-0.004528	-0.025520	0.752441	0.705078	-0.394287	-0.095707	-0.009897	-0.016167	0.428991	-0.617980	0.446430	0.484529	-148.994663	79.078217	-45.895673
12702		-9.600406	-1.028746	-1.645106	0.083084	-0.038054	-0.018601	0.009613	0.000277	-0.025777	0.752441	0.705078	-0.396484	-0.096005	-0.010274	-0.016451	0.429010	-0.617976	0.446410	0.484535	-148.978733	79.079413	-45.879501
12703		-9.613221	-0.985686	-1.584279	0.026293	0.011625	-0.020103	0.004603	-0.000674	-0.029468	0.752686	0.700684	-0.394043	-0.096134	-0.009842	-0.015843	0.429024	-0.617988	0.446363	0.484550	-148.955185	79.080287	-45.852509
12704		-9.589792	-1.036151	-1.611808	0.083763	-0.006993	-0.033700	0.002719	-0.003285	-0.028259	0.754883	0.698486	-0.396240	-0.095899	-0.010348	-0.016120	0.429035	-0.617997	0.446311	0.484577	-148.931411	79.082495	-45.824366
12705		-9.589523	-1.038863	-1.611668	0.086142	-0.006879	-0.033721	0.002344	0.000896	-0.027445	0.750244	0.702881	-0.396484	-0.095897	-0.010375	-0.016116	0.429034	-0.618013	0.446269	0.484597	-148.916701	79.083193	-45.805056
12706		-9.612439	-0.993768	-1.583974	0.033346	0.012012	-0.020125	0.000369	0.000657	-0.024780	0.748047	0.702637	-0.389893	-0.096126	-0.009926	-0.015839	0.429021	-0.618027	0.446231	0.484624	-148.909179	79.084496	-45.792176
12707		-9.579146	-1.004880	-1.648818	0.062533	-0.052696	-0.041211	0.000370	0.000660	-0.024782	0.752686	0.700684	-0.392090	-0.095793	-0.010037	-0.016488	0.429008	-0.618041	0.446191	0.484655	-148.902008	79.086097	-45.779392
12708		-9.592060	-1.011866	-1.608934	0.058995	-0.011250	-0.034316	-0.001799	-0.000149	-0.024212	0.754883	0.702881	-0.394287	-0.095922	-0.010107	-0.016089	0.428988	-0.618058	0.446147	0.484692	-148.895923	79.087949	-45.766515
12709		-9.581707	-1.015899	-1.576245	0.057302	0.019666	-0.049387	0.002355	0.006222	-0.022443	0.752441	0.702881	-0.394287	-0.095819	-0.010148	-0.015760	0.428963	-0.618076	0.446132	0.484705	-148.902101	79.087512	-45.768485
12710		-9.564948	-0.997100	-1.598367	0.046370	-0.008480	-0.064098	-0.001033	-0.003187	-0.020838	0.752441	0.705078	-0.389893	-0.095650	-0.009961	-0.015985	0.428945	-0.618076	0.446093	0.484757	-148.899507	79.091858	-45.759679
12711		-9.564718	-1.049591	-1.619146	0.102068	-0.016601	-0.055823	0.002927	0.002617	-0.021165	0.750488	0.698242	-0.391846	-0.095648	-0.010486	-0.016190	0.428926	-0.618081	0.446076	0.484783	-148.903075	79.093569	-45.759325
12712		-9.561181	-0.984910	-1.580445	0.031926	0.004786	-0.071897	0.003499	-0.000991	-0.019886	0.752686	0.700684	-0.396240	-0.095613	-0.009839	-0.015805	0.428914	-0.618075	0.446055	0.484820	-148.903682	79.097110	-45.756348
12713		-9.571066	-0.984883	-1.613438	0.038387	-0.025904	-0.056851	-0.002206	0.001440	-0.016595	0.750488	0.700684	-0.394287	-0.095712	-0.009841	-0.016134	0.428871	-0.618078	0.446037	0.484871	-148.920027	79.100750	-45.766010
12714		-9.570874	-0.986623	-1.613513	0.040716	-0.025763	-0.056860	0.001045	0.000004	-0.019957	0.754883	0.702881	-0.394287	-0.095710	-0.009857	-0.016135	0.428851	-0.618079	0.446014	0.484909	-148.923358	79.103796	-45.764597
12715		-9.570689	-0.988441	-1.613497	0.043089	-0.025651	-0.056870	0.004874	0.000272	-0.017029	0.757080	0.700684	-0.396240	-0.095708	-0.009876	-0.016135	0.428833	-0.618065	0.446009	0.484948	-148.932759	79.107881	-45.771318
12716		-9.563784	-1.008297	-1.598313	0.060459	-0.007712	-0.064174	0.005957	-0.001976	-0.019820	0.754883	0.702881	-0.398438	-0.095639	-0.010073	-0.015984	0.428831	-0.618051	0.445993	0.484982	-148.930669	79.111932	-45.767141
12717		-9.573701	-1.008375	-1.631040	0.066945	-0.038398	-0.049138	0.003981	-0.002220	-0.017153	0.763916	0.700928	-0.391846	-0.095738	-0.010075	-0.016312	0.428817	-0.618033	0.445980	0.485029	-148.936440	79.117203	-45.769644
12718		-9.590098	-0.980845	-1.588027	0.029207	-0.001743	-0.042682	0.010103	-0.000911	-0.023061	0.752686	0.700684	-0.394043	-0.095902	-0.009797	-0.015881	0.428833	-0.618020	0.445967	0.485044	-148.925414	79.119767	-45.758707
12719		-9.583177	-1.001059	-1.572638	0.046614	0.016167	-0.049995	0.010870	-0.003951	-0.019684	0.748047	0.702881	-0.400879	-0.095832	-0.010000	-0.015729	0.428850	-0.617989	0.445959	0.485076	-148.918106	79.125138	-45.751912
12720		-9.563150	-1.016250	-1.597067	0.069850	-0.007196	-0.064237	0.011254	-0.002815	-0.015492	0.757080	0.700684	-0.398438	-0.095632	-0.010154	-0.015973	0.428857	-0.617950	0.445969	0.485110	-148.922540	79.130893	-45.757696
12721		-9.563016	-1.017885	-1.596825	0.072221	-0.007082	-0.064254	0.013327	0.000374	-0.014608	0.754883	0.698486	-0.391846	-0.095631	-0.010171	-0.015969	0.428859	-0.617913	0.445992	0.485134	-148.933460	79.135643	-45.770895
12722		-9.562885	-1.019368	-1.596664	0.074547	-0.006935	-0.064271	0.013807	-0.000862	-0.011871	0.754883	0.702881	-0.396484	-0.095629	-0.010187	-0.015968	0.428860	-0.617867	0.446022	0.485164	-148.948942	79.141494	-45.789214
12723		-9.536296	-1.001348	-1.585256	0.059486	-0.004326	-0.093988	0.016042	-0.005015	-0.007089	0.752686	0.700684	-0.398438	-0.095363	-0.010009	-0.015856	0.428865	-0.617794	0.446064	0.485215	-148.969281	79.151109	-45.813588
12724		-9.529946	-0.979370	-1.639622	0.052672	-0.063285	-0.093602	0.019074	-0.004300	-0.000731	0.757324	0.698486	-0.396240	-0.095299	-0.009792	-0.016399	0.428863	-0.617702	0.446135	0.485267	-149.004901	79.161942	-45.855597
12725		-9.423627	-1.003886	-1.636574	0.091977	-0.069577	-0.196159	0.028007	-0.005436	0.004431	0.754883	0.702881	-0.398438	-0.094236	-0.010039	-0.016370	0.428878	-0.617577	0.446239	0.485317	-149.047424	79.175156	-45.909536
12726		-9.347819	-0.972148	-1.711288	0.090320	-0.160042	-0.261691	0.041825	-0.011139	0.016538	0.757080	0.700684	-0.402832	-0.093476	-0.009726	-0.017120	0.428919	-0.617382	0.446404	0.485377	-149.104176	79.194414	-45.986270
12727		-9.334650	-1.057707	-1.699825	0.176035	-0.132500	-0.268301	0.064608	-0.020683	0.021982	0.757324	0.698486	-0.400635	-0.093344	-0.010582	-0.017011	0.429038	-0.617102	0.446619	0.485430	-149.147806	79.220269	-46.062677
12728		-9.826548	-0.982055	-1.506645	0.001405	0.099734	0.176582	0.093714	-0.023012	0.028602	0.761475	0.703125	-0.396240	-0.098262	-0.009828	-0.015082	0.429238	-0.616739	0.446922	0.485436	-149.188200	79.248893	-46.153218
12729		-9.960003	-0.864154	-1.384382	-0.151540	0.205177	0.276905	0.136902	-0.025242	0.035771	0.750488	0.700684	-0.400635	-0.099597	-0.008650	-0.013862	0.429556	-0.616262	0.447346	0.485371	-149.219749	79.281017	-46.259473
12730		-9.482174	-1.184123	-1.543098	0.259289	0.058758	-0.136725	0.211891	-0.014157	0.066653	0.755127	0.694092	-0.402832	-0.094817	-0.011856	-0.015450	0.430006	-0.615582	0.448069	0.485168	-149.306021	79.316385	-46.465240
12731		-9.174946	-1.616506	-1.797875	0.779122	-0.133340	-0.357516	0.307145	-0.014117	0.117833	0.754883	0.698486	-0.400635	-0.091739	-0.016191	-0.018010	0.430624	-0.614580	0.449181	0.484862	-149.473614	79.366900	-46.809156
12732		-9.181204	-1.726857	-1.849078	0.907329	-0.162483	-0.333976	0.393827	-0.014134	0.182898	0.757324	0.694092	-0.400635	-0.091795	-0.017316	-0.018531	0.431349	-0.613244	0.450701	0.484497	-149.765825	79.435691	-47.330557
12733		-9.237903	-1.600819	-1.801826	0.784508	-0.142833	-0.298899	0.432663	-0.016844	0.244417	0.759277	0.700928	-0.409424	-0.092358	-0.016082	-0.018061	0.432048	-0.611675	0.452496	0.484186	-150.202794	79.523179	-48.021445
12734		-9.349026	-1.557260	-1.795461	0.750047	-0.136291	-0.196460	0.436132	-0.028728	0.322105	0.766357	0.694336	-0.416016	-0.093462	-0.015684	-0.018002	0.432592	-0.609892	0.454506	0.484066	-150.840470	79.636933	-48.918127
12735		-9.358845	-1.509276	-1.873562	0.747522	-0.226083	-0.181169	0.422338	-0.051961	0.391206	0.764404	0.687744	-0.411621	-0.093554	-0.015236	-0.018792	0.432977	-0.607918	0.456641	0.484196	-151.662085	79.779706	-49.993431
12736		-9.485474	-1.655171	-1.974557	0.930913	-0.282947	-0.031792	0.479707	-0.062602	0.458041	0.766846	0.683350	-0.416016	-0.094810	-0.016721	-0.019815	0.433395	-0.605639	0.459088	0.484364	-152.651814	79.942304	-51.272350
12737		-9.511869	-1.677673	-1.864955	0.970676	-0.177621	-0.025227	0.656623	-0.067296	0.525634	0.769287	0.678955	-0.422607	-0.095068	-0.016965	-0.018737	0.434188	-0.602797	0.462154	0.484283	-153.770073	80.120991	-52.784052
12738		-9.344162	-1.556043	-1.828215	0.907818	-0.199129	-0.209925	0.762890	-0.059764	0.595057	0.773926	0.672363	-0.426758	-0.093389	-0.015768	-0.018370	0.435108	-0.599574	0.465690	0.484071	-155.094486	80.306890	-54.565760
12739		-9.141250	-1.314737	-1.567044	0.696102	-0.027000	-0.471323	0.767407	-0.057535	0.668282	0.778809	0.667969	-0.428955	-0.091364	-0.013392	-0.015748	0.435848	-0.596157	0.469453	0.483991	-156.711032	80.501371	-56.645498
12740		-9.348714	-0.940537	-1.127313	0.294077	0.358572	-0.360781	0.735540	-0.042677	0.714396	0.783691	0.656982	-0.433350	-0.093450	-0.009698	-0.011328	0.436333	-0.592727	0.473291	0.484028	-158.587227	80.686853	-58.968306
12741		-9.778481	-0.386851	-0.985362	-0.244534	0.464424	0.008893	0.673721	-0.013427	0.731830	0.788086	0.661621	-0.439941	-0.097769	-0.004193	-0.009874	0.436514	-0.589441	0.477087	0.484152	-160.677033	80.847360	-61.470945
12742		-10.030937	-0.055780	-1.085956	-0.507694	0.355661	0.257939	0.582783	0.002362	0.710623	0.790527	0.652832	-0.441895	-0.100307	-0.000883	-0.010861	0.436430	-0.586434	0.480619	0.484386	-162.837178	80.979972	-63.990575
12743		-9.969957	-0.004984	-1.304703	-0.456516	0.136096	0.230971	0.481359	0.022365	0.678730	0.788330	0.650635	-0.448486	-0.099700	-0.000357	-0.013036	0.436069	-0.583756	0.483851	0.484729	-165.030913	81.081769	-66.485007
12744		-9.711221	0.097757	-1.459780	-0.460127	-0.056481	-0.002837	0.421193	0.028666	0.632554	0.795410	0.644043	-0.448486	-0.097117	0.000701	-0.014582	0.435624	-0.581328	0.486807	0.485086	-167.145824	81.158675	-68.864422
12745		-9.617657	0.013919	-1.671046	-0.289830	-0.254189	-0.058554	0.466086	0.024284	0.573272	0.802490	0.637695	-0.452881	-0.096179	-0.000098	-0.016699	0.435456	-0.578925	0.489684	0.485214	-169.054170	81.218406	-71.060132
12746		-9.490271	0.060613	-1.676532	-0.283634	-0.276044	-0.183415	0.532789	0.022200	0.519216	0.798096	0.635254	-0.455078	-0.094906	0.000404	-0.016754	0.435612	-0.576498	0.492556	0.485057	-170.747089	81.262982	-73.076562
12747		-9.411302	0.031695	-1.593532	-0.222509	-0.195148	-0.271971	0.552542	0.016978	0.474497	0.804932	0.628906	-0.457275	-0.094115	0.000138	-0.015927	0.435939	-0.574116	0.495327	0.484766	-172.279432	81.298365	-74.941445
12748		-9.497892	0.170327	-1.462666	-0.343770	-0.065020	-0.207696	0.561863	0.028132	0.431475	0.809570	0.628906	-0.457031	-0.094984	0.001539	-0.014609	0.436366	-0.571841	0.498016	0.484316	-173.660413	81.316906	-76.658796
12749		-9.657710	0.186138	-1.326616	-0.348020	0.098162	-0.069224	0.550265	0.041712	0.392873	0.805420	0.619873	-0.465820	-0.096583	0.001708	-0.013241	0.436812	-0.569713	0.500590	0.483769	-174.915675	81.319801	-78.241881
12750		-9.822806	0.286820	-1.211123	-0.435593	0.233801	0.076303	0.523182	0.061173	0.349299	0.812256	0.620117	-0.461426	-0.098237	0.002728	-0.012074	0.437234	-0.567794	0.503011	0.483131	-176.026057	81.304417	-79.663041
12751		-9.945889	0.298418	-1.125770	-0.432226	0.345145	0.185869	0.470828	0.064979	0.298456	0.807861	0.617676	-0.463623	-0.099467	0.002862	-0.011219	0.437616	-0.566121	0.505165	0.482502	-176.974477	81.281477	-80.889769
12752		-10.003970	0.357891	-1.081352	-0.473187	0.402312	0.236741	0.419341	0.083139	0.260275	0.816650	0.620117	-0.463623	-0.100049	0.003471	-0.010765	0.437896	-0.564697	0.507124	0.481861	-177.804433	81.244041	-81.967189
12753		-9.928913	0.373391	-1.186228	-0.455748	0.298445	0.178963	0.382440	0.094993	0.222583	0.807861	0.617920	-0.470215	-0.099299	0.003646	-0.011808	0.438129	-0.563474	0.508909	0.481198	-178.510776	81.197153	-82.897966
12754		-9.815399	0.369139	-1.248293	-0.426178	0.232725	0.076738	0.322739	0.095879	0.188406	0.810303	0.611328	-0.479004	-0.098163	0.003619	-0.012430	0.438273	-0.562470	0.510455	0.480604	-179.114688	81.147535	-83.690866
12755		-9.757088	0.348546	-1.238598	-0.390763	0.247084	0.018010	0.259091	0.101610	0.162231	0.814941	0.609131	-0.468018	-0.097580	0.003422	-0.012332	0.438284	-0.561682	0.511784	0.480101	-179.653472	81.093456	-84.380774
12756		-9.738944	0.319870	-1.360954	-0.338102	0.138310	0.019305	0.210896	0.105401	0.135724	0.808105	0.608887	-0.465820	-0.097399	0.003147	-0.013555	0.438213	-0.561077	0.512931	0.479649	179.885956	81.036071	-84.963921
12757		-9.726341	0.236513	-1.497012	-0.231935	0.021432	0.028269	0.160085	0.105666	0.114745	0.812500	0.609131	-0.472412	-0.097273	0.002321	-0.014917	0.438048	-0.560636	0.513897	0.479282	179.476848	80.978090	-85.465323
12758		-9.714679	0.082600	-1.628919	-0.057441	-0.085654	0.037416	0.115851	0.103665	0.097334	0.812500	0.611328	-0.468018	-0.097156	0.000788	-0.016238	0.437806	-0.560332	0.514703	0.478993	179.112426	80.920686	-85.896140
12759		-9.614180	0.105230	-1.651251	-0.068028	-0.114985	-0.058084	0.081447	0.100828	0.089522	0.812744	0.604736	-0.472412	-0.096151	0.001016	-0.016464	0.437492	-0.560116	0.515398	0.478786	178.759147	80.864729	-86.295527
12760		-9.518005	-0.148047	-1.658072	0.194726	-0.105217	-0.152742	0.060125	0.097902	0.089297	0.814941	0.606934	-0.468018	-0.095187	-0.001518	-0.016535	0.437128	-0.559940	0.516035	0.478639	178.400569	80.809897	-86.688216
12761		-9.457458	-0.294356	-1.623555	0.347464	-0.058323	-0.218839	0.051039	0.108635	0.095445	0.817139	0.606934	-0.470215	-0.094582	-0.002985	-0.016185	0.436694	-0.559792	0.516690	0.478500	178.019169	80.748567	-87.098569
12762		-9.533410	0.016954	-1.500086	0.036159	0.060087	-0.162220	0.053004	0.116159	0.102531	0.810547	0.602295	-0.465820	-0.095343	0.000125	-0.014945	0.436231	-0.559640	0.517386	0.478348	177.622319	80.682166	-87.526049
12763		-9.621353	0.025275	-1.557065	0.042577	0.029665	-0.066262	0.039898	0.123830	0.104673	0.814941	0.606934	-0.468018	-0.096223	0.000205	-0.015511	0.435704	-0.559529	0.518073	0.478216	177.215869	80.610999	-87.955475
12764		-9.609083	-0.140093	-1.599554	0.221702	0.012555	-0.072906	0.023824	0.130909	0.102748	0.812988	0.595703	-0.465820	-0.096101	-0.001448	-0.015933	0.435119	-0.559475	0.518731	0.478098	176.816344	80.535193	-88.368896
12765		-9.654622	0.001386	-1.443261	0.078553	0.175636	-0.052682	0.011067	0.141953	0.108095	0.812988	0.597900	-0.461426	-0.096556	-0.000038	-0.014364	0.434455	-0.559459	0.519397	0.477996	176.398349	80.452563	-88.793470
12766		-9.688980	0.050428	-1.412522	0.039217	0.222216	-0.023757	-0.015748	0.147758	0.121464	0.817383	0.602539	-0.461426	-0.096900	0.000444	-0.014054	0.433671	-0.559482	0.520049	0.477973	175.930504	80.365414	-89.253389
12767		-9.597202	0.063186	-1.381422	0.037399	0.252019	-0.119717	-0.032365	0.160843	0.125272	0.815186	0.597900	-0.461426	-0.095983	0.000570	-0.013737	0.432795	-0.559560	0.520699	0.477968	175.450432	80.270140	-89.715914
12768		-9.692217	0.319414	-1.416495	-0.201275	0.228578	-0.017037	-0.058111	0.159148	0.127475	0.819580	0.600342	-0.459229	-0.096935	0.003128	-0.014089	0.431847	-0.559685	0.521290	0.478036	174.958909	80.174940	-90.175488
12769		-9.665113	0.377883	-1.529947	-0.236119	0.122938	-0.023558	-0.085741	0.142441	0.112768	0.817383	0.597900	-0.457031	-0.096664	0.003718	-0.015232	0.430898	-0.559866	0.521737	0.478193	174.501682	80.089533	-90.584040
12770		-9.658112	0.210084	-1.679716	-0.042245	0.003002	-0.007440	-0.139085	0.136599	0.112527	0.817627	0.595703	-0.461182	-0.096594	0.002035	-0.016733	0.429817	-0.560148	0.522042	0.478501	174.021983	80.006781	-90.984742
12771		-9.720358	-0.072779	-1.786909	0.264568	-0.052918	0.067134	-0.191010	0.137453	0.123376	0.817871	0.591309	-0.461182	-0.097215	-0.000805	-0.017802	0.428560	-0.560515	0.522254	0.478968	173.483694	79.922372	-91.414574
12772		-9.528988	-0.339171	-1.806186	0.547996	-0.067017	-0.123821	-0.205476	0.141022	0.138204	0.824463	0.593750	-0.452393	-0.095300	-0.003476	-0.017991	0.427218	-0.560881	0.522480	0.479491	172.901305	79.834080	-91.881162
12773		-9.560311	-0.046920	-1.893370	0.284292	-0.157676	-0.072006	-0.207796	0.140232	0.161493	0.820068	0.591309	-0.452393	-0.095616	-0.000566	-0.018866	0.425813	-0.561188	0.522763	0.480073	172.251456	79.743750	-92.414813
12774		-9.601456	0.077956	-1.897579	0.181088	-0.151719	-0.028057	-0.193621	0.119783	0.162439	0.826904	0.589355	-0.450195	-0.096026	0.000683	-0.018919	0.424501	-0.561412	0.523037	0.480674	171.609632	79.663768	-92.948984
12775		-9.585189	-0.179494	-1.903346	0.458380	-0.123196	-0.050236	-0.163624	0.121200	0.171701	0.820068	0.589111	-0.452393	-0.095862	-0.001893	-0.018974	0.423243	-0.561550	0.523412	0.481214	170.964335	79.581224	-93.504019
12776		-9.709966	-0.154681	-1.916088	0.457691	-0.101848	0.074621	-0.141990	0.119586	0.188263	0.822510	0.582520	-0.450195	-0.097110	-0.001652	-0.019102	0.422012	-0.561595	0.523881	0.481732	170.291438	79.496789	-94.100165
12777		-9.844751	0.338412	-1.957798	-0.003506	-0.151817	0.229399	-0.168590	0.111180	0.206465	0.826660	0.593750	-0.450195	-0.098462	0.003266	-0.019526	0.420681	-0.561626	0.524317	0.482385	169.552105	79.414053	-94.748255
12778		-9.729281	0.521102	-1.769678	-0.180851	0.004975	0.088294	-0.225246	0.093501	0.203346	0.824951	0.580322	-0.443604	-0.097306	0.005092	-0.017657	0.419246	-0.561741	0.524570	0.483224	168.792095	79.339947	-95.384822
12779		-9.757857	0.600016	-1.716035	-0.239332	0.064430	0.109968	-0.268166	0.082011	0.189600	0.827148	0.578125	-0.441406	-0.097591	0.005885	-0.017128	0.417751	-0.561952	0.524655	0.484182	168.048866	79.272445	-95.979132
12780		-9.847470	0.576501	-1.677006	-0.193827	0.128831	0.190470	-0.325272	0.055505	0.172511	0.827148	0.578125	-0.437012	-0.098484	0.005653	-0.016752	0.416206	-0.562261	0.524496	0.485323	167.316044	79.220352	-96.529956
12781		-9.906744	0.497361	-1.696461	-0.087338	0.133452	0.249293	-0.373128	0.026628	0.160994	0.820557	0.573486	-0.437012	-0.099074	0.004862	-0.016961	0.414627	-0.562627	0.524127	0.486648	166.573859	79.184647	-97.062185
12782		-9.928704	0.813039	-1.747208	-0.370175	0.055599	0.294378	-0.427645	0.006402	0.145518	0.824951	0.575684	-0.434814	-0.099293	0.008021	-0.017486	0.412985	-0.563095	0.523537	0.488135	165.836756	79.160937	-97.557779
12783		-9.707489	0.406314	-1.870891	0.067362	-0.062402	0.081361	-0.482439	-0.020482	0.134065	0.822998	0.571289	-0.432617	-0.097076	0.003953	-0.018728	0.411283	-0.563637	0.522722	0.489818	165.081796	79.152660	-98.039327
12784		-9.705663	0.339208	-2.027228	0.178231	-0.209855	0.104406	-0.495770	-0.039821	0.132291	0.829590	0.571533	-0.437012	-0.097055	0.003278	-0.020300	0.409597	-0.564160	0.521826	0.491580	164.311605	79.154050	-98.528891
12785		-9.613622	0.445139	-1.885379	0.077950	-0.104798	-0.006698	-0.486957	-0.043920	0.131508	0.827637	0.566895	-0.432617	-0.096135	0.004342	-0.018886	0.407944	-0.564653	0.520938	0.493328	163.543386	79.156665	-99.021307
12786		-9.494743	0.303967	-1.966386	0.249475	-0.191859	-0.116805	-0.440301	-0.047428	0.132045	0.827393	0.571289	-0.428223	-0.094945	0.002934	-0.019693	0.406430	-0.565037	0.520156	0.494960	162.798874	79.159806	-99.517080
12787		-9.529927	0.205623	-1.970486	0.372273	-0.179740	-0.087788	-0.388870	-0.046565	0.134772	0.832275	0.564941	-0.430420	-0.095296	0.001954	-0.019731	0.405048	-0.565309	0.519507	0.496462	162.074737	79.160890	-100.021825
12788		-9.739648	0.444855	-1.939980	0.161171	-0.146086	0.125864	-0.336516	-0.050313	0.135706	0.829834	0.569092	-0.426025	-0.097395	0.004350	-0.019432	0.403821	-0.565461	0.518983	0.497835	161.376233	79.162583	-100.531306
12789		-9.575158	0.195159	-2.110723	0.448537	-0.311308	-0.020917	-0.190383	-0.027735	0.140371	0.825684	0.560303	-0.428223	-0.095750	0.001864	-0.021122	0.402935	-0.565359	0.518878	0.498776	160.768440	79.150160	-101.033390
12790		-9.463970	0.481441	-2.312146	0.208625	-0.567796	-0.077258	-0.089638	-0.020597	0.114442	0.829834	0.564697	-0.426025	-0.094640	0.004750	-0.023133	0.402381	-0.565140	0.518966	0.499380	160.301708	79.137860	-101.450945
12791		-9.481157	0.769404	-2.156402	-0.084652	-0.452929	-0.069892	0.028452	-0.012478	0.103179	0.830078	0.560303	-0.426025	-0.094814	0.007648	-0.021569	0.402165	-0.564732	0.519332	0.499634	159.941490	79.122897	-101.828649
12792		-9.449453	0.601446	-2.096162	0.080924	-0.377285	-0.122543	0.117114	-0.019113	0.081052	0.830078	0.560303	-0.430420	-0.094495	0.005988	-0.020967	0.402274	-0.564187	0.519845	0.499629	159.689990	79.115394	-102.147696
12793		-9.452645	0.570624	-1.916016	0.092035	-0.197633	-0.153407	0.186494	-0.018135	0.072757	0.827881	0.558105	-0.428223	-0.094527	0.005690	-0.019163	0.402595	-0.563525	0.520508	0.499427	159.500748	79.108892	-102.443524
12794		-9.493949	0.437919	-1.941758	0.234161	-0.198363	-0.117169	0.204344	-0.030110	0.071468	0.832275	0.560303	-0.432373	-0.094938	0.004365	-0.019427	0.403002	-0.562801	0.521188	0.499206	159.315046	79.108780	-102.746476
12795		-9.512302	0.303831	-1.971858	0.377764	-0.209585	-0.103012	0.224501	-0.053032	0.083739	0.832520	0.558105	-0.434570	-0.095119	0.003021	-0.019740	0.403492	-0.561945	0.521906	0.499024	159.080278	79.118347	-103.110839
12796		-9.592002	0.399243	-1.997229	0.297294	-0.236932	-0.014203	0.244816	-0.073338	0.097287	0.834717	0.555908	-0.432373	-0.095915	0.003970	-0.020003	0.404060	-0.560963	0.522671	0.498870	158.799145	79.135561	-103.534570
12797		-9.542360	0.539939	-1.930905	0.155324	-0.205834	-0.065377	0.227418	-0.095767	0.110298	0.830322	0.555908	-0.430176	-0.095417	0.005369	-0.019349	0.404603	-0.559924	0.523382	0.498852	158.443895	79.161690	-104.023268
12798		-9.550493	0.650158	-2.062612	0.074746	-0.354551	-0.027102	0.187300	-0.110706	0.122496	0.834717	0.560547	-0.434570	-0.095497	0.006462	-0.020673	0.405043	-0.558896	0.523997	0.499002	158.015112	79.192434	-104.563709
12799		-9.418059	0.407394	-2.057591	0.320070	-0.352119	-0.175621	0.138183	-0.097021	0.126611	0.830566	0.551514	-0.441162	-0.094173	0.004029	-0.020619	0.405297	-0.557990	0.524527	0.499253	157.557493	79.214350	-105.104481
12800		-9.479434	0.372472	-1.800155	0.337091	-0.092376	-0.162983	0.136161	-0.080734	0.146113	0.832520	0.553711	-0.436768	-0.094790	0.003668	-0.018037	0.405455	-0.557078	0.525140	0.499499	157.064099	79.222389	-105.680799
12801		-9.498876	0.457624	-1.608389	0.244164	0.082848	-0.171189	0.144892	-0.070657	0.165370	0.834717	0.558350	-0.443359	-0.094987	0.004509	-0.016114	0.405561	-0.556120	0.525846	0.499736	156.531567	79.219921	-106.301711
12802		-9.530385	0.299659	-1.666406	0.426436	0.045835	-0.142580	0.197391	-0.070950	0.183393	0.835205	0.544922	-0.436768	-0.095301	0.002926	-0.016695	0.405770	-0.555008	0.526734	0.499868	155.981955	79.212250	-106.970985
12803		-9.455621	0.377915	-1.681275	0.364548	0.004274	-0.208243	0.235311	-0.073159	0.205617	0.839600	0.547363	-0.443359	-0.094554	0.003702	-0.016843	0.406031	-0.553753	0.527771	0.499954	155.389166	79.199339	-107.706011
12804		-9.430553	0.667359	-1.753417	0.104012	-0.107709	-0.198493	0.248951	-0.078595	0.215217	0.835205	0.544922	-0.449951	-0.094306	0.006594	-0.017563	0.406322	-0.552431	0.528857	0.500033	154.775325	79.185402	-108.470817
12805		-9.493513	0.900036	-1.585659	-0.123753	0.037728	-0.146540	0.211873	-0.083043	0.218142	0.842285	0.538574	-0.447754	-0.094938	0.008914	-0.015887	0.406511	-0.551162	0.529848	0.500231	154.125945	79.171543	-109.249853
12806		-9.530162	0.922323	-1.532549	-0.128755	0.089189	-0.117389	0.168863	-0.091304	0.228377	0.844482	0.540771	-0.449951	-0.095305	0.009127	-0.015361	0.406579	-0.549933	0.530741	0.500581	153.417895	79.157532	-110.063927
12807		-9.625753	0.916206	-1.497687	-0.097599	0.135693	-0.029557	0.137299	-0.089545	0.237359	0.840088	0.538574	-0.447754	-0.096262	0.009058	-0.015014	0.406530	-0.548746	0.531582	0.501031	152.669988	79.138415	-110.899858
12808		-9.594507	0.849628	-1.444779	-0.015442	0.183581	-0.074626	0.110666	-0.091720	0.247251	0.844482	0.536377	-0.443359	-0.095949	0.008386	-0.014487	0.406390	-0.547582	0.532378	0.501573	151.883137	79.115601	-111.760317
12809		-9.564043	0.676919	-1.535097	0.190359	0.102238	-0.105014	0.103864	-0.085702	0.270661	0.849121	0.534180	-0.451904	-0.095643	0.006648	-0.015388	0.406154	-0.546381	0.533232	0.502166	151.041378	79.081097	-112.672454
12810		-9.677419	0.382438	-1.548128	0.520157	0.134392	-0.019490	0.112089	-0.076874	0.291652	0.849365	0.529785	-0.458496	-0.096774	0.003692	-0.015516	0.405865	-0.545130	0.534180	0.502751	150.171592	79.033674	-113.618418
12811		-9.770651	0.574170	-1.568646	0.370428	0.107339	0.092217	0.118828	-0.072980	0.317340	0.847168	0.527588	-0.454102	-0.097710	0.005596	-0.015719	0.405516	-0.543803	0.535221	0.503362	149.252194	78.974133	-114.618671
12812		-9.773353	0.518794	-1.542975	0.455861	0.134902	0.083890	0.116266	-0.072280	0.343532	0.854248	0.520996	-0.454102	-0.097737	0.005029	-0.015462	0.405093	-0.542412	0.536328	0.504025	148.280310	78.903319	-115.671502
12813		-9.868037	0.593755	-1.616734	0.434047	0.068577	0.194876	0.091133	-0.069877	0.369173	0.849609	0.520996	-0.451904	-0.098685	0.005763	-0.016199	0.404527	-0.541006	0.537442	0.504803	147.245968	78.819977	-116.773218
12814		-9.964440	0.592871	-1.491344	0.469512	0.205033	0.267146	0.040320	-0.075644	0.403766	0.854492	0.512207	-0.458496	-0.099650	0.005731	-0.014950	0.403752	-0.539595	0.538508	0.505797	146.109418	78.724514	-117.950185
12815		-10.132793	0.636313	-1.451242	0.482222	0.264975	0.428483	0.002735	-0.092975	0.431641	0.856934	0.507813	-0.458496	-0.101335	0.006145	-0.014559	0.402847	-0.538136	0.539516	0.506997	144.875428	78.623432	-119.204576
12816		-10.110850	0.942175	-1.392409	0.220125	0.283940	0.430676	-0.069661	-0.117223	0.463623	0.854736	0.507813	-0.451904	-0.101122	0.009182	-0.013987	0.401733	-0.536673	0.540376	0.508514	143.511845	78.517402	-120.549727
12817		-9.973423	0.574331	-1.438237	0.628166	0.241894	0.257775	-0.111533	-0.122296	0.500176	0.854980	0.500977	-0.456055	-0.099739	0.005486	-0.014446	0.400421	-0.535178	0.541212	0.510232	142.058101	78.394422	-121.962552
12818		-10.173242	1.190194	-1.487923	0.104386	0.161000	0.535657	-0.175233	-0.132151	0.533075	0.857666	0.492188	-0.462646	-0.101754	0.011618	-0.014957	0.398881	-0.533693	0.541950	0.512206	140.513986	78.256811	-123.431470
12819		-10.293814	1.309326	-1.144503	0.023870	0.496112	0.615150	-0.279959	-0.150300	0.554156	0.862061	0.490234	-0.462646	-0.102965	0.012792	-0.011540	0.397050	-0.532307	0.542434	0.514554	138.867836	78.110975	-124.943663
12820		-10.277438	1.295146	-1.308793	0.121793	0.320381	0.622744	-0.342430	-0.161930	0.578295	0.864746	0.481445	-0.464844	-0.102801	0.012632	-0.013193	0.395021	-0.530944	0.542792	0.517139	137.158883	77.951983	-126.484735
12821		-10.304293	1.152426	-1.460914	0.355193	0.175053	0.650752	-0.400729	-0.180298	0.611707	0.869385	0.474854	-0.458252	-0.103064	0.011180	-0.014725	0.392791	-0.529550	0.543044	0.519995	135.360706	77.777492	-128.083437
12822		-10.331108	0.790685	-1.492401	0.794214	0.170048	0.623981	-0.408951	-0.194512	0.652245	0.869873	0.465820	-0.462402	-0.103321	0.007539	-0.015040	0.390470	-0.528017	0.543346	0.522978	133.509413	77.581690	-129.733236
12823		-10.515235	0.594166	-1.762684	1.129050	-0.059548	0.805756	-0.380496	-0.213349	0.711652	0.878906	0.461670	-0.462402	-0.105154	0.005534	-0.017750	0.388110	-0.526208	0.543832	0.526044	131.590661	77.356431	-131.469743
12824		-10.482143	0.568110	-1.823798	1.247179	-0.137799	0.767916	-0.300120	-0.226399	0.794476	0.870117	0.457031	-0.460205	-0.104822	0.005237	-0.018365	0.385775	-0.523974	0.544713	0.529071	129.627416	77.087618	-133.301243
12825		-10.530216	0.897373	-1.754670	1.020343	-0.113422	0.851026	-0.223566	-0.233533	0.885992	0.872803	0.448242	-0.462402	-0.105320	0.008487	-0.017679	0.383406	-0.521312	0.546009	0.532079	127.633826	76.766303	-135.210617
12826		-10.679987	0.837665	-1.305873	1.148869	0.341672	0.912583	-0.181523	-0.259718	0.982075	0.882080	0.439453	-0.459961	-0.106822	0.007840	-0.013205	0.380957	-0.518225	0.547604	0.535206	125.576928	76.394978	-137.213067
12827		-10.439844	0.215400	-1.805919	1.897851	-0.134676	0.612137	-0.170174	-0.261683	1.065926	0.875732	0.428223	-0.459961	-0.104384	0.001582	-0.018197	0.378302	-0.514865	0.549426	0.538455	123.523592	75.967962	-139.221411
12828		-10.920557	0.205541	-1.326001	2.053698	0.399629	0.989176	-0.140592	-0.242223	1.169550	0.887451	0.417480	-0.470947	-0.109199	0.001407	-0.013393	0.375383	-0.511200	0.551612	0.541744	121.527171	75.468598	-141.193147
12829		-11.538876	0.567421	-0.304645	1.822523	1.445941	1.507480	-0.115712	-0.274654	1.278279	0.888184	0.397461	-0.468506	-0.115418	0.004935	-0.003208	0.372302	-0.507078	0.554059	0.545235	119.501505	74.907815	-143.214039
12830		-12.008854	0.561669	-0.872195	2.166836	0.945648	2.006657	-0.101640	-0.314165	1.383731	0.884277	0.384277	-0.472900	-0.120110	0.004781	-0.008913	0.369066	-0.502507	0.556713	0.548952	117.460880	74.287259	-145.265079
12831		-13.088714	1.066267	-1.766326	2.231989	0.160402	3.247189	-0.132876	-0.315558	1.485975	0.893799	0.373291	-0.470703	-0.130933	0.009678	-0.017876	0.365449	-0.497675	0.559503	0.552922	115.469254	73.595294	-147.252481
12832		-14.013500	1.299079	-1.375441	2.386187	0.638470	4.110379	-0.216425	-0.347338	1.557216	0.892334	0.351074	-0.472656	-0.140206	0.011884	-0.014011	0.361499	-0.492679	0.562146	0.557295	113.487185	72.855735	-149.187950
12833		-13.762698	0.868143	-1.584987	2.992869	0.414566	3.735157	-0.275741	-0.366507	1.614020	0.892822	0.337646	-0.474854	-0.137662	0.007548	-0.016113	0.357267	-0.487542	0.564690	0.561951	111.564079	72.071056	-151.033175
12834		-13.695180	1.027635	-1.538720	3.048425	0.405738	3.660224	-0.326514	-0.374179	1.666077	0.900391	0.315674	-0.476807	-0.137002	0.009110	-0.015659	0.352768	-0.482291	0.567162	0.566813	109.730404	71.243022	-152.762779
12835		-14.049360	1.034626	-1.181671	3.331916	0.778959	3.903638	-0.401073	-0.397292	1.705069	0.903320	0.300293	-0.474365	-0.140551	0.009124	-0.012115	0.348007	-0.476956	0.569430	0.571973	107.949177	70.380562	-154.399484
12836		-14.132186	0.515532	-1.431770	4.131671	0.568874	3.775338	-0.482572	-0.432674	1.742600	0.904297	0.273682	-0.476563	-0.141328	0.003889	-0.014634	0.343025	-0.471515	0.571445	0.577458	106.198916	69.488304	-155.963402
12837		-14.631426	-0.322212	-2.253622	5.458788	-0.109509	3.951183	-0.594275	-0.455691	1.801085	0.902832	0.258057	-0.478516	-0.146225	-0.004607	-0.022857	0.337636	-0.465987	0.573182	0.583370	104.468057	68.550363	-157.446432
12838		-15.168622	-1.208739	-3.334533	6.908014	-1.027740	4.111462	-0.739609	-0.463518	1.877330	0.901367	0.233643	-0.474121	-0.151485	-0.013634	-0.033648	0.331684	-0.460417	0.574600	0.589777	102.756447	67.556694	-158.829899
12839		-15.162124	-2.321200	-4.699489	8.445915	-2.256198	3.638286	-0.955001	-0.420552	1.996703	0.904541	0.209229	-0.473877	-0.151279	-0.024949	-0.047197	0.324710	-0.454930	0.575660	0.596839	101.077571	66.474973	-160.053034
12840		-15.202259	-3.216941	-5.413648	9.712469	-2.829987	3.164633	-1.175084	-0.331984	2.141217	0.903076	0.189209	-0.476074	-0.151574	-0.034112	-0.054192	0.316517	-0.449587	0.576455	0.604473	99.481489	65.291051	-161.059311
12841		-15.156822	-4.142379	-5.641238	10.900596	-2.889652	2.496770	-1.347673	-0.243659	2.322486	0.900146	0.149170	-0.469238	-0.151002	-0.043559	-0.056308	0.307067	-0.444183	0.577177	0.612600	97.976158	63.984597	-161.864401
12842		-15.699618	-4.659948	-4.571586	11.725636	-1.611658	2.393279	-1.506535	-0.148907	2.480621	0.903320	0.129395	-0.473389	-0.156365	-0.048885	-0.045470	0.296461	-0.438772	0.577795	0.621082	96.574561	62.575016	-162.462725
12843		-16.534807	-5.335011	-3.780564	12.874833	-0.500831	2.439641	-1.768715	-0.125548	2.626560	0.902588	0.089355	-0.470947	-0.164602	-0.055847	-0.037423	0.284673	-0.433293	0.577816	0.630354	95.127469	61.072710	-162.948266
12844		-17.427647	-5.607235	-3.040927	13.723333	0.534639	2.668042	-1.886260	-0.153916	2.765660	0.897217	0.053955	-0.470703	-0.173453	-0.058759	-0.029997	0.272220	-0.427380	0.577575	0.640039	93.669425	59.489329	-163.378587
12845		-17.988777	-4.693253	-2.787111	13.551029	0.837013	3.188481	-1.868716	-0.219529	2.901265	0.898438	0.025146	-0.477051	-0.179149	-0.049794	-0.027612	0.259457	-0.420710	0.577418	0.649826	92.240101	57.822955	-163.791815
12846		-17.819869	-2.889488	-2.763730	12.391202	0.598451	3.588979	-1.626843	-0.256683	3.093783	0.893311	-0.019531	-0.472412	-0.177686	-0.031871	-0.027614	0.246633	-0.412928	0.578229	0.659025	90.996751	56.045434	-164.159427
12847		-17.202746	-2.788540	-4.550472	12.879014	-1.132237	2.726595	-1.299317	-0.238971	3.247554	0.890137	-0.054932	-0.476563	-0.171487	-0.030969	-0.045515	0.233823	-0.404219	0.580276	0.667243	90.022107	54.173098	-164.433130
12848		-16.972423	-4.913172	-6.277504	15.282610	-2.257960	0.813538	-1.166765	-0.312440	3.302613	0.885254	-0.097168	-0.480713	-0.168780	-0.052290	-0.062740	0.221271	-0.394835	0.582612	0.675061	89.125767	52.270223	-164.714132
12849		-16.039978	-6.017120	-6.918372	16.096238	-2.665152	-1.145246	-0.955177	-0.286708	3.328768	0.873047	-0.132813	-0.482910	-0.159266	-0.063159	-0.069116	0.208871	-0.385094	0.585559	0.682052	88.415473	50.346888	-164.915731
12850		-14.217838	-4.216187	-5.675752	13.591451	-2.090310	-1.874324	-0.692303	-0.281628	3.238592	0.867920	-0.172852	-0.491455	-0.141389	-0.044652	-0.056805	0.197249	-0.375260	0.589068	0.687947	87.894292	48.478332	-165.076792
12851		-10.373045	0.791605	-3.688572	7.253369	-1.919864	-1.717892	-0.731599	-0.221531	2.945794	0.857910	-0.206299	-0.491211	-0.103790	0.006252	-0.037026	0.186293	-0.366425	0.591794	0.693403	87.403672	46.773672	-165.165881
12852		-8.374817	7.152368	-1.969519	1.324423	-2.070775	1.101596	-1.374153	-0.162648	2.656857	0.850342	-0.239746	-0.495361	-0.084671	0.070265	-0.020249	0.174988	-0.359177	0.591688	0.700197	86.597197	45.240262	-165.189865
12853		-10.196407	-4.184395	-4.109564	11.012621	-1.036102	-5.811942	-1.780895	-0.173398	1.955272	0.853271	-0.257324	-0.495117	-0.101511	-0.043202	-0.040803	0.165361	-0.354235	0.588762	0.707483	85.546998	44.102690	-165.224281
12854		-10.327277	-12.317213	-6.656077	17.221037	-1.295905	-11.915621	-0.416153	0.081349	1.204173	0.840576	-0.277588	-0.497314	-0.102555	-0.123929	-0.066262	0.160086	-0.351253	0.589487	0.709577	85.400589	43.410403	-165.088820
12855		-5.917420	-14.489912	-1.846165	14.006933	3.000620	-16.384065	0.390554	0.027054	0.552507	0.847656	-0.286377	-0.490723	-0.058776	-0.145025	-0.018737	0.158649	-0.349328	0.591862	0.708872	85.654667	43.082869	-165.036428
12856		-4.393388	-10.152794	-0.351485	9.707662	2.956232	-14.231400	1.406397	0.125020	0.111263	0.850098	-0.292969	-0.479736	-0.043880	-0.101524	-0.004201	0.160310	-0.348258	0.597134	0.704591	86.526838	43.016681	-164.937433
12857		-3.625203	-7.404978	-1.172940	7.682203	1.251939	-12.773500	1.889622	0.306505	-0.400768	0.859131	-0.295166	-0.466553	-0.036419	-0.073862	-0.012372	0.164008	-0.348925	0.603312	0.698117	87.755298	43.241691	-164.716012
12858		-3.514451	-6.861410	-2.140284	7.566034	0.072830	-12.412543	1.723522	0.373522	-0.888596	0.872559	-0.292725	-0.451172	-0.035489	-0.068269	-0.021926	0.168960	-0.351418	0.608064	0.691532	88.926942	43.749799	-164.447075
12859		-3.158533	-6.283134	-2.109934	6.962145	-0.178221	-12.136655	1.665122	0.393066	-1.302703	0.880859	-0.277100	-0.448975	-0.032035	-0.062445	-0.021558	0.175106	-0.355233	0.611831	0.684697	90.084744	44.485126	-164.146373
12860		-3.269582	-5.658475	-1.559693	6.503374	0.176470	-11.490240	1.586611	0.386969	-1.736747	0.891602	-0.265869	-0.431396	-0.033215	-0.056172	-0.015980	0.182655	-0.360395	0.614484	0.677615	91.221504	45.471014	-163.823315
12861		-4.159442	-5.078218	-1.183547	6.628442	0.550721	-10.310858	1.362991	0.331793	-2.193660	0.906250	-0.241211	-0.420654	-0.042167	-0.050240	-0.012109	0.191431	-0.366906	0.615403	0.670830	92.230085	46.708735	-163.499634
12862		-5.042624	-4.448875	-0.958289	6.705127	0.790994	-9.070134	1.128866	0.282673	-2.658049	0.918945	-0.218994	-0.411865	-0.051025	-0.043758	-0.009759	0.201512	-0.374854	0.614531	0.664251	93.125204	48.216230	-163.162163
12863		-5.522448	-4.164473	-0.762819	6.725094	0.995775	-8.329586	0.915208	0.275572	-3.096056	0.935303	-0.176514	-0.398926	-0.055871	-0.040748	-0.007739	0.212560	-0.384234	0.611970	0.657780	93.947830	49.964286	-162.760225
12864		-6.038239	-4.260117	-0.571589	7.010401	1.270214	-7.770461	0.790977	0.281045	-3.495756	0.949463	-0.140869	-0.392578	-0.061122	-0.041514	-0.005796	0.224669	-0.394894	0.608069	0.651026	94.780941	51.943303	-162.271065
12865		-6.742508	-3.935341	-0.161162	6.981773	1.726042	-6.772584	0.783567	0.313983	-3.871206	0.959229	-0.100830	-0.381836	-0.068172	-0.038032	-0.001656	0.237741	-0.406654	0.603218	0.643615	95.726756	54.122953	-161.642386
12866		-7.775358	-3.314837	0.340789	6.791245	2.279357	-5.314518	0.808610	0.336548	-4.226375	0.972900	-0.049561	-0.373291	-0.078425	-0.031510	0.003410	0.251904	-0.419372	0.597501	0.635345	96.843546	56.503408	-160.848192
12867		-8.867342	-2.779248	0.775900	6.591853	2.784385	-3.834695	0.808255	0.349246	-4.527579	0.970947	-0.000732	-0.360352	-0.089259	-0.025808	0.007808	0.266794	-0.432807	0.590868	0.626397	98.145245	59.036893	-159.850574
12868		-9.947252	-2.361125	0.931665	6.413301	3.023458	-2.389767	0.854385	0.359892	-4.784069	0.973389	0.050049	-0.347656	-0.099983	-0.021264	0.009402	0.282474	-0.446747	0.583513	0.616554	99.734499	61.707729	-158.586514
12869		-11.050870	-2.116098	1.182253	6.236069	3.373374	-0.997725	0.929821	0.349154	-5.020712	0.971191	0.103271	-0.330322	-0.110974	-0.018434	0.011926	0.298840	-0.460944	0.575482	0.605843	101.692888	64.485130	-156.982200
12870		-12.141905	-1.528370	1.165249	5.657091	3.390249	0.559871	1.042037	0.339262	-5.251286	0.962646	0.151855	-0.323975	-0.121746	-0.012151	0.011790	0.316056	-0.475309	0.566855	0.594025	104.214697	67.369663	-154.875827
12871		-13.280178	-0.824896	1.069468	4.834802	3.303108	2.181425	1.075469	0.293783	-5.467834	0.955811	0.207031	-0.311279	-0.132946	-0.004673	0.010858	0.333820	-0.489730	0.557318	0.581486	107.436513	70.327041	-152.077161
12872		-14.439576	-0.372057	0.802220	4.100810	3.070614	3.714437	1.054925	0.252904	-5.675774	0.952148	0.246826	-0.298340	-0.144414	0.000335	0.008199	0.352051	-0.504270	0.546697	0.568237	111.770397	73.339695	-148.154792
12873		-15.529158	0.083264	0.632950	3.147801	2.900273	5.126320	0.946995	0.208287	-5.856798	0.945557	0.297852	-0.296631	-0.155172	0.005348	0.006509	0.370279	-0.518923	0.534770	0.554647	117.878487	76.328415	-142.385125
12874		-16.346384	0.257879	0.207457	2.295028	2.459865	6.184699	0.800881	0.175948	-5.976968	0.938965	0.350830	-0.288086	-0.163288	0.007452	0.002242	0.388284	-0.533632	0.521588	0.540757	127.200629	79.166992	-133.320170
12875		-17.013273	0.669850	-0.280088	1.077473	1.881005	7.074895	0.650230	0.152341	-6.058299	0.943604	0.404297	-0.288574	-0.169828	0.011855	-0.002638	0.405747	-0.548279	0.507263	0.526730	142.325784	81.583420	-118.357054
12876		-17.590212	0.760820	-0.483018	0.018111	1.598856	7.725102	0.431766	0.127465	-6.114544	0.937256	0.455078	-0.288818	-0.175563	0.012990	-0.004694	0.422509	-0.562952	0.491683	0.512658	166.381444	83.065771	-94.342892
12877		-18.026038	0.639654	-0.833302	-0.881822	1.171199	8.181455	0.203055	0.123486	-6.157756	0.927734	0.523682	-0.280518	-0.179955	0.011949	-0.008212	0.438287	-0.577662	0.474931	0.498650	-164.567144	82.938281	-65.194293
12878		-19.160436	0.466551	-1.115880	-1.859826	0.880762	9.272183	0.004286	0.145409	-6.212255	0.909668	0.585449	-0.281006	-0.191344	0.010612	-0.011019	0.453217	-0.592457	0.457116	0.484391	-141.856042	81.229306	-42.276321
12879		-20.976439	0.798476	-1.461569	-3.557619	0.489593	10.917605	-0.113390	0.227941	-6.253188	0.893311	0.653809	-0.277100	-0.209395	0.014528	-0.014384	0.467211	-0.607225	0.438646	0.469660	-128.199598	78.596723	-28.339538
12880		-22.615419	2.057832	-1.956314	-6.298824	-0.255542	12.087360	-0.108971	0.350403	-6.227135	0.861816	0.717529	-0.279785	-0.225402	0.027594	-0.019182	0.480490	-0.621639	0.420121	0.454085	-120.249424	75.530616	-20.122482
12881		-23.011317	3.643296	-2.448228	-9.150915	-1.178222	11.716153	0.022590	0.490116	-6.111541	0.827393	0.787842	-0.282471	-0.228916	0.043444	-0.023916	0.493110	-0.635207	0.402196	0.437713	-115.438066	72.313067	-15.125137
12882		-22.652585	5.455758	-3.176872	-11.879596	-2.409144	10.334468	0.294143	0.653833	-5.900433	0.780273	0.846924	-0.282959	-0.224886	0.061255	-0.030945	0.505403	-0.647477	0.385568	0.420331	-112.344129	69.074300	-12.026819
12883		-23.284884	8.404105	-1.952778	-16.130181	-1.824901	8.974351	0.549238	0.735750	-5.548381	0.735596	0.899414	-0.283447	-0.230467	0.090509	-0.018434	0.517154	-0.658047	0.370510	0.402800	-110.200871	65.971676	-10.042720
12884		-23.470772	12.315182	1.961442	-21.251990	1.202895	6.097629	0.658384	0.489764	-5.133340	0.686523	0.945068	-0.283936	-0.231396	0.129053	0.020602	0.528549	-0.666603	0.356124	0.386591	-108.346149	63.108275	-8.406098
12885		-20.171217	14.216519	-0.278059	-21.817595	-1.582792	1.608449	1.187258	0.463107	-4.518523	0.640137	0.984131	-0.297607	-0.198436	0.146685	-0.001457	0.540204	-0.672199	0.344529	0.370982	-106.690033	60.572698	-7.293294
12886		-16.940578	18.554160	-3.110621	-24.049848	-5.198618	-3.863243	1.701782	0.567180	-3.928855	0.598877	1.007813	-0.315430	-0.165799	0.189075	-0.029034	0.552075	-0.675253	0.335971	0.355487	-105.201387	58.325906	-6.695253
12887		-15.738885	24.648510	-0.339890	-29.057158	-3.281272	-9.366426	1.420838	0.552643	-3.279892	0.564209	1.031494	-0.324463	-0.153324	0.249036	-0.001208	0.561620	-0.677693	0.328938	0.342220	-104.128626	56.441011	-6.381641
12888		-12.460586	27.830072	0.052159	-29.912162	-3.342395	-14.694449	0.757183	0.403995	-2.139558	0.541260	1.042236	-0.329102	-0.121616	0.279607	0.001826	0.567106	-0.679720	0.324136	0.333627	-103.598082	55.203640	-6.261547
12889		-9.765639	26.716919	-2.563969	-27.186749	-5.774689	-16.390114	0.479682	0.348441	-0.813858	0.534668	1.042236	-0.337891	-0.096612	0.267624	-0.024829	0.569460	-0.680234	0.323200	0.329451	-103.450297	54.716858	-6.409906
12890		-11.917501	24.271593	-2.299144	-26.463749	-4.848889	-13.358959	0.722207	0.293695	0.522487	0.534424	1.048828	-0.348877	-0.119841	0.242484	-0.021940	0.570528	-0.677798	0.327041	0.328834	-103.372863	54.978686	-6.816874
12891		-13.762056	22.822328	0.355659	-26.570276	-1.632792	-11.120380	1.055378	0.183219	1.728976	0.552979	1.036133	-0.361816	-0.139582	0.226999	0.004884	0.570871	-0.672208	0.335187	0.331500	-103.253607	55.931810	-7.399435
12892		-19.710076	15.015418	-3.851316	-23.085695	-4.081547	-0.916576	1.270394	0.281351	2.479700	0.573486	1.025391	-0.375000	-0.198997	0.147934	-0.037290	0.570451	-0.664811	0.346439	0.335548	-103.263751	57.288714	-8.278077
12893		-9.146747	9.175294	-4.991986	-12.381234	-5.113948	-6.164669	1.825678	0.408125	2.983390	0.594727	1.005859	-0.379150	-0.092927	0.090823	-0.048899	0.570657	-0.654997	0.360572	0.339584	-103.218101	58.912405	-9.449809
12894		-17.232523	-24.566642	1.684018	12.672082	5.269421	16.925089	0.105013	-0.242482	2.791396	0.619873	0.995361	-0.392090	-0.168894	-0.248048	0.016504	0.566585	-0.649170	0.369206	0.348205	-103.566961	60.512251	-9.917702
12895		-13.978792	-15.069441	4.200302	6.518114	6.566160	9.015740	0.966767	-0.032018	2.550913	0.640625	0.978027	-0.402832	-0.137856	-0.152662	0.041246	0.565226	-0.641583	0.379085	0.353816	-103.611880	61.950509	-10.594470
12896		-18.257151	6.328692	4.949148	-13.924969	6.122219	3.088572	1.273146	0.230548	3.288827	0.661865	0.956299	-0.411377	-0.183518	0.059957	0.050091	0.562914	-0.632036	0.392516	0.359985	-104.015767	63.760342	-11.862934
12897		-21.433507	6.605489	1.796195	-14.932405	3.449898	6.658904	1.040510	0.307831	3.731302	0.687500	0.932373	-0.411133	-0.215488	0.061946	0.018622	0.558714	-0.622193	0.407011	0.367502	-104.922797	65.799810	-13.518139
12898		-15.884790	1.983075	-3.434545	-7.906733	-1.919880	4.393882	0.483104	0.516650	3.546372	0.717773	0.906494	-0.415283	-0.159255	0.017091	-0.033891	0.552502	-0.614446	0.420342	0.374847	-106.599608	67.687419	-15.638997
12899		-13.574990	1.482612	-1.400888	-6.144554	-0.009183	2.461968	-0.075867	0.549993	3.363673	0.741211	0.877930	-0.417236	-0.136011	0.012535	-0.013640	0.544667	-0.608496	0.432028	0.382653	-108.913205	69.440361	-18.071494
12900		-11.840447	3.725850	-4.272081	-7.331437	-3.025501	0.647285	0.007200	0.659977	3.188709	0.762207	0.858398	-0.410400	-0.119119	0.035365	-0.042327	0.537032	-0.602738	0.443516	0.389354	-111.669757	71.035788	-20.999224
12901		-11.822438	6.846768	-5.416832	-10.025493	-4.128371	0.108053	0.243922	0.830460	2.921444	0.778809	0.836426	-0.406006	-0.119432	0.066795	-0.053592	0.530114	-0.597117	0.455008	0.394206	-114.868043	72.399218	-24.508500
12902		-13.037337	3.778294	-0.323950	-7.064532	1.275684	1.711439	-0.078382	0.656948	2.738013	0.790771	0.816650	-0.403564	-0.130884	0.035992	-0.002824	0.522875	-0.592295	0.464757	0.399735	-118.332585	73.646514	-28.078017
12903		-9.699265	3.095088	-2.605286	-5.332998	-1.317194	-0.853847	0.012935	0.740422	2.512391	0.814209	0.792725	-0.396729	-0.097467	0.029730	-0.025691	0.516064	-0.587814	0.474152	0.404143	-122.196087	74.689319	-32.095472
12904		-10.259377	0.938286	-3.191840	-3.144856	-1.695892	0.363348	0.084967	0.701919	2.308778	0.821533	0.775146	-0.387695	-0.102804	0.008210	-0.031554	0.509884	-0.583458	0.482919	0.407902	-126.225948	75.569999	-36.309336
12905		-10.420849	1.806834	-1.987285	-3.789233	-0.424783	0.250352	-0.292520	0.485182	2.099823	0.831299	0.755371	-0.385498	-0.104438	0.016944	-0.019645	0.503484	-0.580048	0.489689	0.412617	-130.274975	76.355192	-40.304287
12906		-10.322582	2.096266	-1.555510	-3.840268	0.024374	0.117942	-0.690540	0.323975	1.960875	0.843262	0.739990	-0.383057	-0.103449	0.019896	-0.015458	0.496551	-0.577580	0.494772	0.418378	-134.493207	77.071884	-44.225984
12907		-10.236216	0.883972	-1.620296	-2.430955	-0.008092	0.300374	-0.953511	0.213346	1.770570	0.859375	0.724609	-0.372070	-0.102452	0.007856	-0.016133	0.489478	-0.575940	0.498426	0.424589	-138.747379	77.691194	-48.019751
12908		-10.561100	0.131909	-1.816164	-1.542995	-0.112804	0.791852	-1.070312	0.138812	1.569478	0.864746	0.704834	-0.365234	-0.105629	0.000393	-0.018092	0.482630	-0.574873	0.501022	0.430774	-142.907297	78.208343	-51.640320
12909		-10.910647	-0.487306	-1.796057	-0.794303	0.003765	1.226883	-0.983805	0.125703	1.407453	0.878418	0.700684	-0.358643	-0.109079	-0.005729	-0.017865	0.476373	-0.573926	0.503264	0.436351	-146.941892	78.622882	-55.177631
12910		-10.604882	-0.763492	-1.555579	-0.327282	0.225240	0.925398	-0.887766	0.107171	1.298952	0.876953	0.680664	-0.356201	-0.106004	-0.008392	-0.015463	0.470640	-0.572943	0.505326	0.441452	-150.883411	78.964022	-58.671233
12911		-10.035402	-0.623618	-1.510688	-0.266982	0.191101	0.349551	-0.812833	0.097175	1.198812	0.884033	0.671875	-0.351807	-0.100321	-0.006899	-0.015031	0.465343	-0.571980	0.507212	0.446129	-154.712639	79.237182	-62.090794
12912		-10.037686	-0.524315	-1.612207	-0.233897	0.105862	0.363860	-0.642172	0.105492	1.095313	0.888916	0.660889	-0.347412	-0.100354	-0.005844	-0.016051	0.460718	-0.570873	0.509178	0.450089	-158.330536	79.439768	-65.391886
12913		-9.741964	-0.411900	-2.013429	-0.191277	-0.325403	0.136484	-0.358663	0.130273	1.000320	0.893799	0.647461	-0.342773	-0.097410	-0.004642	-0.020063	0.457039	-0.569391	0.511549	0.453020	-161.647569	79.573047	-68.550637
12914		-9.464755	-0.250603	-1.931152	-0.239422	-0.280764	-0.156761	-0.177492	0.159070	0.902852	0.900879	0.641113	-0.349365	-0.094650	-0.002950	-0.019234	0.454009	-0.567794	0.514106	0.455172	-164.663369	79.642334	-71.507411
12915		-9.651969	0.032493	-1.594745	-0.463034	0.085046	-0.041169	-0.103061	0.151254	0.821981	0.900879	0.636475	-0.333984	-0.096532	-0.000080	-0.015874	0.451387	-0.566206	0.516574	0.456960	-167.412807	79.677895	-74.236520
12916		-9.812881	0.130125	-1.835792	-0.477239	-0.112518	0.159214	-0.087284	0.117062	0.733502	0.903320	0.634521	-0.344971	-0.098143	0.000933	-0.018301	0.449090	-0.564723	0.518742	0.458599	-169.874308	79.700332	-76.681670
12917		-9.806236	0.140152	-1.930438	-0.410051	-0.192665	0.172444	-0.082262	0.100600	0.669360	0.908203	0.623535	-0.338379	-0.098076	0.001065	-0.019256	0.446993	-0.563350	0.520696	0.460119	-172.129866	79.708359	-78.920552
12918		-9.835857	0.323309	-1.960366	-0.525337	-0.215970	0.205731	-0.142767	0.062941	0.611812	0.908691	0.614502	-0.338135	-0.098374	0.002918	-0.019575	0.444949	-0.562169	0.522259	0.461770	-174.229439	79.718619	-80.965363
12919		-9.894804	0.004535	-2.104932	-0.137410	-0.321676	0.297468	-0.195824	0.019718	0.564455	0.908691	0.614502	-0.340332	-0.098950	-0.000255	-0.021039	0.442975	-0.561125	0.523464	0.463570	-176.200730	79.738397	-82.849055
12920		-9.703325	0.002390	-2.240696	-0.063253	-0.484943	0.133961	-0.205998	-0.004765	0.524299	0.913574	0.601318	-0.329346	-0.097032	-0.000254	-0.022409	0.441124	-0.560146	0.524475	0.465374	-178.055112	79.759714	-84.607652
12921		-9.622166	0.302367	-2.409874	-0.294646	-0.683602	0.083303	-0.238364	-0.047858	0.491081	0.918213	0.599121	-0.331543	-0.096223	0.002759	-0.024125	0.439371	-0.559220	0.525217	0.467304	-179.825982	79.795562	-86.262633
12922		-9.578307	0.438325	-2.242800	-0.385952	-0.540129	0.012043	-0.311568	-0.085253	0.443828	0.916260	0.592529	-0.338135	-0.095783	0.004136	-0.022475	0.437616	-0.558488	0.525571	0.469425	178.496640	79.844162	-87.779551
12923		-9.604689	0.537479	-2.048280	-0.445762	-0.360377	0.005948	-0.411989	-0.137996	0.411111	0.918457	0.592529	-0.333740	-0.096043	0.005135	-0.020560	0.435794	-0.557932	0.525476	0.471880	176.845215	79.916054	-89.211618
12924		-9.639837	0.483849	-1.779857	-0.360496	-0.100882	-0.005133	-0.486666	-0.166161	0.382697	0.923340	0.581543	-0.335693	-0.096392	0.004611	-0.017890	0.433898	-0.557541	0.525060	0.474544	175.212527	79.997769	-90.580615
12925		-9.708013	0.459635	-1.539083	-0.305148	0.133040	0.021668	-0.542458	-0.180240	0.374010	0.925781	0.577148	-0.331299	-0.097075	0.004373	-0.015490	0.431902	-0.557255	0.524450	0.477368	173.549155	80.081271	-91.948209
12926		-9.795115	0.476238	-1.188048	-0.300929	0.475099	0.049669	-0.608110	-0.168641	0.371746	0.925781	0.579346	-0.329102	-0.097950	0.004544	-0.011977	0.429689	-0.557136	0.523695	0.480323	171.834378	80.151164	-93.329234
12927		-9.867492	0.109054	-1.122513	0.108446	0.567583	0.102212	-0.657525	-0.159341	0.388696	0.928223	0.570557	-0.329102	-0.098668	0.000862	-0.011307	0.427270	-0.557093	0.522881	0.483408	170.021872	80.207116	-94.780690
12928		-9.939889	-0.001119	-1.436729	0.299596	0.269268	0.222406	-0.675376	-0.152145	0.406950	0.930664	0.563965	-0.326904	-0.099388	-0.000262	-0.014442	0.424728	-0.557049	0.522082	0.486553	168.125219	80.248834	-96.306703
12929		-10.054491	0.457345	-1.588034	-0.084142	0.084308	0.376000	-0.724047	-0.160679	0.411613	0.930908	0.557129	-0.326904	-0.100541	0.004309	-0.015977	0.422057	-0.557065	0.521149	0.489848	166.167345	80.286161	-97.866593
12930		-10.003614	0.506483	-1.654161	-0.068891	-0.008788	0.339157	-0.791104	-0.169310	0.418999	0.935547	0.557373	-0.326660	-0.100032	0.004790	-0.016646	0.419192	-0.557171	0.520044	0.493349	164.125777	80.317793	-99.472028
12931		-9.842841	0.432911	-1.765062	0.072313	-0.151213	0.195109	-0.809527	-0.176185	0.424493	0.938232	0.543945	-0.322266	-0.098422	0.004048	-0.017754	0.416274	-0.557271	0.518882	0.496916	162.040510	80.342693	-101.111172
12932		-9.803698	0.211038	-1.751144	0.349361	-0.131043	0.141409	-0.731688	-0.154885	0.432123	0.938477	0.539551	-0.317871	-0.098028	0.001834	-0.017594	0.413487	-0.557232	0.517970	0.500229	159.990815	80.344502	-102.759194
12933		-9.382814	-0.183581	-1.978590	0.812228	-0.382461	-0.263893	-0.575800	-0.132246	0.450061	0.936523	0.530762	-0.320068	-0.093810	-0.002104	-0.019842	0.411027	-0.556870	0.517534	0.503101	158.005410	80.320968	-104.432870
12934		-9.390921	0.007324	-2.003599	0.683318	-0.434070	-0.244601	-0.437049	-0.105307	0.468617	0.936523	0.528564	-0.320068	-0.093898	-0.000191	-0.020085	0.408828	-0.556236	0.517549	0.505573	156.088314	80.269325	-106.117897
12935		-9.240159	0.348939	-1.949054	0.386637	-0.452959	-0.381557	-0.378789	-0.095713	0.491149	0.945801	0.521973	-0.322021	-0.092400	0.003225	-0.019541	0.406708	-0.555443	0.517786	0.507907	154.172838	80.197992	-107.835650
12936		-9.448546	0.414073	-1.698340	0.354513	-0.184829	-0.212128	-0.354782	-0.076010	0.524078	0.943604	0.519775	-0.317627	-0.094489	0.003863	-0.017026	0.404513	-0.554560	0.518211	0.510186	152.232203	80.098101	-109.593176
12937		-9.558653	0.495132	-1.638185	0.333341	-0.120298	-0.108526	-0.409341	-0.081033	0.568712	0.941895	0.510742	-0.322021	-0.095593	0.004646	-0.016430	0.402063	-0.553652	0.518604	0.512703	150.166184	79.978170	-111.447021
12938		-9.870203	0.196289	-1.757118	0.734515	-0.144806	0.186613	-0.472154	-0.084195	0.626854	0.946533	0.504150	-0.319824	-0.098700	0.001612	-0.017617	0.399291	-0.552703	0.518983	0.515503	147.948779	79.830544	-113.418690
12939		-10.493600	-0.312209	-2.007170	1.398177	-0.214265	0.781671	-0.487112	-0.106014	0.713393	0.953613	0.495605	-0.315430	-0.104913	-0.003545	-0.020119	0.396305	-0.551493	0.519509	0.518564	145.522609	79.652503	-115.594960
12940		-10.650045	-0.673777	-2.486378	1.937610	-0.601934	0.954949	-0.462001	-0.140184	0.832564	0.951904	0.484375	-0.317383	-0.106454	-0.007239	-0.024922	0.393158	-0.549823	0.520350	0.521878	142.834996	79.433039	-118.052980
12941		-10.555446	-1.491071	-2.665641	2.869331	-0.666417	0.773536	-0.381439	-0.133315	0.963695	0.952148	0.477783	-0.319580	-0.105463	-0.015470	-0.026698	0.389864	-0.547656	0.521761	0.525208	140.013629	79.142648	-120.696252
12942		-10.876382	-1.078198	-2.046376	2.511022	-0.068733	1.019418	-0.289254	-0.157847	1.114547	0.957275	0.457764	-0.317383	-0.108685	-0.011417	-0.020533	0.386476	-0.544835	0.523764	0.528642	137.022811	78.780785	-123.568821
12943		-11.419466	-0.774948	-1.628208	2.340964	0.383258	1.502209	-0.269565	-0.187265	1.282493	0.962158	0.451416	-0.323730	-0.114126	-0.008503	-0.016378	0.382761	-0.541436	0.526197	0.532408	133.847970	78.334488	-126.644711
12944		-11.445233	-0.507791	-0.856250	2.109732	1.100656	1.426510	-0.296523	-0.218565	1.444813	0.967285	0.431396	-0.321533	-0.114402	-0.005917	-0.008679	0.378603	-0.537551	0.528911	0.536611	130.551192	77.797455	-129.834917
12945		-11.851163	-0.760974	-0.284479	2.492807	1.763195	1.667029	-0.261673	-0.258806	1.630414	0.968262	0.411621	-0.325684	-0.118441	-0.008579	-0.002987	0.374123	-0.532966	0.532107	0.541149	127.189273	77.154744	-133.119382
12946		-12.465503	-1.245854	-0.462207	3.300344	1.763192	2.151798	-0.139716	-0.283832	1.834304	0.978027	0.387451	-0.332031	-0.124527	-0.013604	-0.004790	0.369453	-0.527500	0.536087	0.545765	123.899916	76.385040	-136.410417
12947		-13.438688	-0.623383	-0.828285	3.178711	1.468405	3.202926	-0.032539	-0.300292	2.034782	0.983154	0.376465	-0.334229	-0.134302	-0.007602	-0.008483	0.364526	-0.521201	0.540804	0.550455	120.768596	75.482311	-139.613407
12948		-14.288491	-0.997963	-1.707970	4.151582	0.803162	3.978063	-0.039449	-0.318092	2.208878	0.977051	0.358643	-0.343018	-0.142736	-0.011560	-0.017305	0.359109	-0.514335	0.545861	0.555461	117.809560	74.457647	-142.648069
12949		-15.072740	-0.386701	-2.234643	4.156237	0.327577	4.848084	-0.138720	-0.320471	2.347343	0.982666	0.332031	-0.338379	-0.150632	-0.005651	-0.022584	0.353009	-0.507192	0.550919	0.560919	115.052712	73.324450	-145.428864
12950		-15.718593	-0.361614	-1.641022	4.545035	1.011450	5.293747	-0.325439	-0.334826	2.470204	0.981689	0.298828	-0.346924	-0.157097	-0.005584	-0.016665	0.346079	-0.499924	0.555656	0.567056	112.440505	72.095583	-147.963635
12951		-16.805262	-0.975737	-1.564207	5.800681	1.352588	6.008865	-0.481376	-0.389110	2.590444	0.987305	0.270020	-0.346680	-0.167876	-0.011971	-0.015942	0.338507	-0.492351	0.560062	0.573877	109.920543	70.780926	-150.324838
12952		-17.129466	-1.675725	-2.031153	7.072204	1.050231	5.973821	-0.636066	-0.408901	2.699166	0.986084	0.243408	-0.353027	-0.171005	-0.019132	-0.020603	0.330238	-0.484586	0.564152	0.581250	107.548789	69.380587	-152.454117
12953		-17.652720	-2.709789	-2.283976	8.699057	1.049528	5.915631	-0.877980	-0.381770	2.808404	0.987305	0.210205	-0.354980	-0.176079	-0.029673	-0.023050	0.320914	-0.476888	0.567729	0.589301	105.323205	67.887387	-154.297570
12954		-18.483334	-4.466660	-2.845527	11.179354	0.936688	5.801318	-1.160470	-0.337380	2.931996	0.981934	0.178955	-0.357178	-0.184102	-0.047534	-0.028496	0.310357	-0.469311	0.570703	0.598101	103.215819	66.295807	-155.857851
12955		-19.740617	-6.717729	-3.759657	14.365222	0.683889	5.746473	-1.406774	-0.292640	3.064802	0.974121	0.147949	-0.367920	-0.196288	-0.070455	-0.037396	0.298605	-0.461741	0.573166	0.607545	101.219383	64.602954	-157.160220
12956		-20.662000	-9.219247	-4.520102	17.632072	0.645247	5.052865	-1.540601	-0.222887	3.204361	0.966553	0.112305	-0.374268	-0.205054	-0.095832	-0.044701	0.285840	-0.454044	0.575473	0.617228	99.401974	62.808478	-158.197224
12957		-20.960263	-10.264465	-4.823441	19.241594	0.781626	4.224573	-1.950324	-0.226109	3.278231	0.956787	0.076660	-0.378418	-0.207824	-0.106526	-0.047444	0.271817	-0.446551	0.576480	0.627996	97.512870	60.957288	-159.065564
12958		-19.944837	-10.929859	-5.820117	20.070427	0.022627	2.362684	-2.299485	-0.263484	3.376030	0.944336	0.047607	-0.378418	-0.197482	-0.113305	-0.057175	0.256723	-0.438961	0.576329	0.639728	95.542524	59.042011	-159.814018
12959		-17.906090	-9.505700	-6.373062	18.481754	-0.893774	0.635552	-2.082729	-0.215093	3.582704	0.930420	0.005127	-0.386963	-0.177244	-0.098901	-0.062905	0.241178	-0.430458	0.577141	0.650729	93.870554	56.993669	-160.371501
12960		-17.953130	-5.019817	-5.022546	14.944464	-0.353207	2.403090	-1.379263	-0.149189	3.879197	0.916260	-0.039307	-0.395508	-0.178471	-0.054012	-0.049995	0.225909	-0.420288	0.580708	0.659622	92.755066	54.769449	-160.759250
12961		-19.105100	-3.195530	-5.269419	14.731057	-0.611054	3.809007	-0.861446	-0.106226	3.959834	0.901855	-0.070801	-0.404053	-0.190338	-0.035956	-0.052646	0.211222	-0.409255	0.585957	0.666746	92.039588	52.492359	-161.027767
12962		-19.279440	-4.185027	-7.101341	16.659889	-1.952072	2.765841	-1.104211	-0.275473	3.834989	0.878662	-0.106689	-0.408447	-0.191842	-0.045927	-0.071032	0.196887	-0.398123	0.589721	0.674509	91.125104	50.290361	-161.383390
12963		-17.166684	-7.182207	-7.696459	18.191900	-2.137860	-1.449273	-1.117252	-0.372641	3.767435	0.855469	-0.146973	-0.419189	-0.170125	-0.075466	-0.076868	0.182938	-0.386705	0.592976	0.682182	90.199344	48.121487	-161.753123
12964		-11.262915	-2.497559	-5.430593	10.715251	-2.198405	-3.261601	-0.770135	-0.230929	3.430425	0.840820	-0.176025	-0.418945	-0.112114	-0.027111	-0.054334	0.170354	-0.376328	0.596684	0.687986	89.612018	46.146310	-161.947593
12965		-6.530441	7.042535	-4.339117	1.014368	-4.324222	-0.255738	-1.069728	-0.077833	2.949318	0.826172	-0.200684	-0.432129	-0.066314	0.069219	-0.043789	0.158326	-0.368048	0.598417	0.693808	88.966746	44.443083	-161.985205
12966		-8.629207	1.534873	-5.094027	6.582670	-3.267359	-2.830223	-2.125230	-0.211690	1.838396	0.809082	-0.220947	-0.442871	-0.086371	0.014012	-0.051185	0.148605	-0.363395	0.594206	0.701983	87.656057	43.377209	-162.114435
12967		-12.902556	-13.974232	-8.167543	20.598023	-1.202021	-11.465042	-1.672257	-0.046690	0.793349	0.798096	-0.227783	-0.453857	-0.128449	-0.140929	-0.080530	0.142833	-0.362023	0.589720	0.707650	86.686125	42.908819	-162.123519
12968		-5.205720	-17.933433	-2.557083	15.764425	3.568355	-19.507738	-0.866791	-0.177544	0.157725	0.794189	-0.240967	-0.456055	-0.051893	-0.179484	-0.024839	0.141178	-0.361484	0.586811	0.710669	86.095160	42.803067	-162.257649
12969		-2.392279	-13.459645	0.149322	10.046783	4.335006	-18.008841	-0.071135	-0.233360	-0.420782	0.784912	-0.236816	-0.460449	-0.024208	-0.134545	0.001513	0.143146	-0.361860	0.585634	0.711055	85.907264	43.021129	-162.465553
12970		-1.012183	-8.665164	0.408312	6.036577	2.945976	-15.394482	0.786369	-0.143851	-0.826150	0.789307	-0.232178	-0.460449	-0.010482	-0.086624	0.003735	0.147879	-0.363140	0.586827	0.708446	86.244587	43.478977	-162.626426
12971		-1.621683	-7.559956	-1.173055	6.366520	1.239378	-14.181751	1.106917	0.000033	-1.311869	0.789063	-0.227783	-0.456055	-0.016712	-0.075425	-0.012148	0.154448	-0.366080	0.588348	0.704257	86.827512	44.216150	-162.692421
12972		-1.908813	-6.432011	-2.362366	6.297594	-0.180503	-13.114315	1.324175	0.147627	-1.784627	0.792725	-0.207764	-0.451904	-0.019678	-0.063988	-0.024034	0.162667	-0.370746	0.589826	0.698707	87.615034	45.233010	-162.647240
12973		-2.501596	-5.463968	-2.417671	6.125404	-0.416081	-11.877153	1.352363	0.212747	-2.209186	0.796875	-0.196777	-0.438721	-0.025642	-0.054194	-0.024517	0.172169	-0.376797	0.590583	0.692527	88.462616	46.489166	-162.538161
12974		-2.845526	-4.085394	-2.258008	5.388636	-0.580698	-10.526393	1.222273	0.209994	-2.628993	0.811768	-0.178711	-0.440918	-0.029012	-0.040336	-0.022797	0.182894	-0.384138	0.589986	0.686225	89.254418	47.989209	-162.409670
12975		-3.205408	-3.085156	-2.338236	4.937695	-0.858644	-9.438575	1.006174	0.203502	-3.064263	0.820068	-0.158691	-0.432373	-0.032544	-0.030237	-0.023503	0.194635	-0.392830	0.587669	0.680035	89.941438	49.732710	-162.255578
12976		-4.032307	-2.906636	-2.646779	5.377224	-1.063486	-8.522446	0.865637	0.229379	-3.483584	0.832520	-0.136230	-0.430176	-0.040850	-0.028243	-0.026545	0.207432	-0.402884	0.583905	0.673581	90.603134	51.719811	-162.037969
12977		-4.983225	-2.706071	-2.721432	5.736088	-1.033667	-7.449332	0.812808	0.283298	-3.872646	0.835693	-0.100586	-0.426025	-0.050381	-0.025978	-0.027250	0.221163	-0.414149	0.579029	0.666553	91.322257	53.922747	-161.713033
12978		-5.844483	-2.607193	-2.422046	5.931984	-0.649552	-6.465401	0.777583	0.350567	-4.223737	0.854736	-0.067139	-0.424072	-0.059019	-0.024735	-0.024215	0.235740	-0.426536	0.573137	0.658792	92.154017	56.327543	-161.239118
12979		-6.920507	-2.436916	-1.808467	6.005057	0.046620	-5.226902	0.785466	0.416735	-4.556180	0.866943	-0.035889	-0.411133	-0.069773	-0.022713	-0.018031	0.251085	-0.439855	0.566357	0.650173	93.159953	58.911412	-160.574523
12980		-8.063956	-2.314500	-1.252793	6.053675	0.696371	-3.912914	0.785947	0.479053	-4.842906	0.874023	0.008545	-0.404785	-0.081197	-0.021134	-0.012420	0.267081	-0.453956	0.558702	0.640659	94.402632	61.654301	-159.659507
12981		-9.314970	-2.039924	-0.834034	5.928174	1.181808	-2.392090	0.782368	0.524454	-5.098671	0.890137	0.055420	-0.400635	-0.093650	-0.017984	-0.008169	0.283553	-0.468615	0.550164	0.630332	95.946199	64.524148	-158.425440
12982		-10.363520	-1.488188	-0.447012	5.332930	1.521681	-0.922529	0.756927	0.557369	-5.332897	0.901855	0.097900	-0.383301	-0.103995	-0.012096	-0.004230	0.300454	-0.483750	0.540657	0.619196	97.911311	67.511584	-156.747204
12983		-11.371670	-1.114648	-0.363218	4.810546	1.588736	0.433762	0.718258	0.589702	-5.549096	0.908936	0.151123	-0.372559	-0.113977	-0.007974	-0.003329	0.317577	-0.499243	0.530150	0.607324	100.504678	70.584258	-154.405911
12984		-12.228838	-0.903196	-0.143144	4.204908	1.786003	1.565711	0.705137	0.624985	-5.734060	0.915527	0.208740	-0.357422	-0.122484	-0.005518	-0.001072	0.334915	-0.514968	0.518763	0.594579	104.160426	73.711529	-150.988487
12985		-13.245584	-0.861431	-0.122772	3.715094	1.837234	2.795804	0.683324	0.644194	-5.871268	0.924072	0.277832	-0.349121	-0.132636	-0.004719	-0.000821	0.352230	-0.530682	0.506551	0.581134	109.578692	76.815255	-145.787242
12986		-14.555604	-0.961152	-0.313222	3.312386	1.737396	4.288097	0.666299	0.670260	-6.006557	0.915039	0.335205	-0.340820	-0.145766	-0.005226	-0.002666	0.369547	-0.546386	0.493515	0.566869	118.402619	79.805388	-137.167343
12987		-15.971344	-1.145399	-0.618617	2.844167	1.537424	5.879438	0.667719	0.711495	-6.158797	0.903076	0.407959	-0.325928	-0.159985	-0.006510	-0.005645	0.386813	-0.562047	0.479686	0.551707	134.235789	82.422625	-121.529864
12988		-17.557156	-1.044319	-1.204660	1.965198	0.994610	7.675570	0.714489	0.767167	-6.293432	0.882324	0.483154	-0.317627	-0.175828	-0.004871	-0.011396	0.404100	-0.577557	0.465233	0.535435	162.559990	83.981716	-93.425185
12989		-18.913844	-0.654012	-1.308626	0.459739	0.799331	9.131893	0.732012	0.786645	-6.408904	0.854492	0.557861	-0.316162	-0.189267	-0.000430	-0.012351	0.421250	-0.592740	0.450062	0.518317	-163.059073	83.530084	-59.267527
12990		-20.446513	-1.004284	-1.172943	-0.598185	1.004184	10.655004	0.706850	0.771171	-6.506739	0.816162	0.621582	-0.314453	-0.204690	-0.003346	-0.010960	0.438198	-0.607541	0.434016	0.500506	-139.553711	81.312205	-35.970726
12991		-22.303761	-1.252604	-2.148407	-1.764279	0.110900	12.555433	0.884589	0.802837	-6.531904	0.773193	0.685059	-0.312744	-0.223370	-0.005141	-0.020621	0.455172	-0.621411	0.417945	0.481653	-126.721660	78.260200	-23.447530
12992		-24.955027	0.472063	-3.928233	-5.072296	-1.975939	14.855942	1.116023	0.911822	-6.465705	0.714844	0.739502	-0.319824	-0.249395	0.013001	-0.038088	0.472009	-0.634214	0.402418	0.461562	-119.457237	74.872683	-16.636779
12993		-26.615741	3.305966	-4.645567	-9.656720	-3.335535	15.411656	1.098738	1.024837	-6.351126	0.659424	0.782715	-0.318115	-0.265156	0.041741	-0.044882	0.487764	-0.646394	0.387059	0.440962	-115.067377	71.379888	-12.703622
12994		-24.798274	4.483192	-6.086370	-11.466506	-5.197981	12.844977	1.106786	1.193809	-6.196156	0.617432	0.821777	-0.318604	-0.246785	0.052821	-0.059110	0.502394	-0.657968	0.372219	0.419681	-112.289778	67.861265	-10.414872
12995		-26.202073	7.882259	0.603516	-17.636366	0.638792	11.100683	1.002388	1.007225	-5.878868	0.560059	0.851807	-0.325684	-0.259518	0.086440	0.007767	0.515854	-0.668176	0.357386	0.399639	-110.178788	64.525407	-8.730116
12996		-24.811252	11.415775	2.910530	-21.651104	2.030432	6.959654	1.172014	0.731433	-5.410721	0.523193	0.875488	-0.330322	-0.244797	0.120634	0.030699	0.529024	-0.676008	0.343434	0.381051	-108.286527	61.468766	-7.356504
12997		-21.381647	13.291071	-2.332674	-21.651478	-3.608571	2.729724	1.874634	0.818221	-4.916814	0.481934	0.894775	-0.345947	-0.210550	0.138319	-0.021181	0.543068	-0.680791	0.332475	0.362024	-106.532631	58.653642	-6.566066
12998		-20.251821	21.597459	-2.947078	-28.547688	-5.558300	-3.550362	2.076499	1.066776	-4.508783	0.438477	0.916260	-0.350586	-0.197722	0.220751	-0.026132	0.556299	-0.684348	0.323714	0.342650	-105.165354	56.011228	-6.350489
12999		-17.097440	32.803789	-0.905958	-36.390583	-5.293956	-13.906198	1.076864	0.978016	-3.658620	0.415771	0.924561	-0.357178	-0.164971	0.331132	-0.006466	0.564498	-0.688800	0.315745	0.327416	-104.560071	53.854672	-6.358072
13000		-12.703279	36.538601	0.481941	-36.755712	-4.731821	-20.913766	-0.288985	0.554474	-2.333992	0.406494	0.928955	-0.353027	-0.122744	0.366842	0.004634	0.566353	-0.694148	0.308818	0.319429	-104.691306	52.491364	-6.309096
13001		-11.739707	32.270649	-1.252427	-32.456268	-5.949003	-19.403212	-0.612534	0.360569	-0.653946	0.402344	0.924316	-0.342041	-0.116365	0.323048	-0.013303	0.564646	-0.697444	0.306635	0.317365	-105.181695	52.089362	-6.478288
13002		-13.998899	25.251568	-0.256651	-28.396365	-3.634733	-13.568363	0.078137	0.260069	0.970699	0.405029	0.913330	-0.346191	-0.141215	0.251833	-0.002285	0.562912	-0.696128	0.310921	0.319162	-105.520713	52.598391	-6.956142
13003		-15.974759	21.920278	2.385726	-27.226480	-0.101344	-10.042071	0.980005	0.161719	2.323734	0.423340	0.904785	-0.357178	-0.162259	0.217206	0.025055	0.562256	-0.689943	0.321051	0.323687	-105.562508	53.869567	-7.702257
13004		-16.453849	22.933484	1.902012	-28.283293	-0.300580	-9.399838	1.294288	0.139038	3.371873	0.452881	0.894287	-0.367920	-0.168358	0.226388	0.020608	0.560883	-0.680988	0.335164	0.330651	-105.674132	55.721951	-8.739184
13005		-17.815898	0.236738	-5.952604	-9.454149	-4.306952	5.837873	0.984524	0.328170	3.376425	0.464844	0.874756	-0.378662	-0.178266	-0.000350	-0.059231	0.557954	-0.672986	0.349201	0.337397	-106.197812	57.543886	-10.034852
13006		-9.135140	-32.447813	-3.110982	23.165288	1.960346	14.793101	0.876062	0.240086	2.671940	0.485840	0.855225	-0.380615	-0.087045	-0.325520	-0.032428	0.555851	-0.666194	0.360352	0.342581	-106.616542	58.987466	-11.110053
13007		-13.447130	-24.851208	6.223082	14.574232	10.345090	12.939344	1.390237	0.004571	2.309473	0.504395	0.844482	-0.398193	-0.131585	-0.250467	0.060497	0.556405	-0.658094	0.370449	0.346546	-106.474255	60.268429	-11.861910
13008		-16.863816	3.592734	9.446286	-11.413417	10.783557	2.016191	2.512130	0.176886	3.311216	0.527588	0.824951	-0.408936	-0.169105	0.031939	0.095030	0.558421	-0.645114	0.386152	0.350543	-106.188364	62.073782	-13.171978
13009		-23.103995	9.434764	5.875211	-18.664456	7.764282	5.953483	2.348922	0.411255	3.926671	0.548584	0.807861	-0.426270	-0.232701	0.089087	0.060296	0.558112	-0.631499	0.404020	0.355651	-106.546994	64.179497	-15.076380
13010		-18.754258	6.425254	0.144163	-13.441142	2.065745	4.611092	1.310139	0.550923	3.777418	0.576416	0.781738	-0.417236	-0.188706	0.060682	0.002366	0.554242	-0.621034	0.419771	0.361835	-107.839184	66.167876	-17.320585
13011		-14.860030	3.192080	-1.497051	-8.473648	0.264610	2.889749	0.195711	0.667179	3.642104	0.599854	0.757813	-0.416992	-0.149198	0.029222	-0.014444	0.546704	-0.613917	0.433247	0.369482	-110.201803	68.029819	-20.000625
13012		-13.323539	3.560858	-9.017640	-8.019632	-7.249998	2.621767	0.163892	0.893960	3.485554	0.616455	0.738037	-0.416748	-0.134231	0.033348	-0.089550	0.538678	-0.607436	0.446661	0.375955	-113.264625	69.709979	-23.378035
13013		-13.112648	5.044659	-7.551391	-8.989505	-5.671464	2.079180	0.508744	1.118129	3.274413	0.637451	0.716309	-0.409912	-0.132350	0.048477	-0.074651	0.531428	-0.600727	0.460540	0.380282	-116.855672	71.151991	-27.492164
13014		-13.442990	3.765514	1.637937	-7.216939	3.647331	1.683937	0.054761	0.806926	3.088640	0.647461	0.692139	-0.407715	-0.134922	0.035569	0.016933	0.523726	-0.594889	0.472045	0.385996	-120.672193	72.495377	-31.535182
13015		-8.579552	7.232974	-1.035399	-9.129352	0.328478	-3.214603	-0.247107	0.807308	2.824428	0.661621	0.674561	-0.400879	-0.086846	0.071096	-0.010093	0.515517	-0.590324	0.482065	0.391628	-124.991120	73.617658	-35.895851
13016		-9.179635	-0.371745	-4.977039	-1.793471	-3.348777	-0.079310	0.074719	0.830451	2.644313	0.673340	0.656982	-0.394043	-0.091942	-0.004914	-0.049391	0.508439	-0.585285	0.492148	0.395881	-129.522359	74.549506	-40.645314
13017		-9.265528	1.392880	-3.128965	-3.252654	-1.440205	-0.597351	0.139396	0.578812	2.319230	0.685547	0.637207	-0.396240	-0.092899	0.012874	-0.031012	0.502735	-0.580285	0.500680	0.399808	-133.673964	75.335267	-45.021220
13018		-10.135546	3.691847	-2.155607	-5.427199	-0.258198	-0.248177	-0.185300	0.373774	2.112901	0.694824	0.626221	-0.389404	-0.101778	0.035825	-0.021400	0.496939	-0.576130	0.507387	0.404580	-137.803684	76.039363	-49.166876
13019		-10.606112	0.353673	-1.484133	-1.972685	0.488276	0.707937	-0.671562	0.180771	1.936048	0.699951	0.613037	-0.378418	-0.106102	0.002460	-0.014755	0.490542	-0.573178	0.512059	0.410648	-142.000091	76.685601	-53.083185
13020		-11.389292	-0.596155	-1.601710	-0.926688	0.523725	1.654649	-0.910718	0.053948	1.789055	0.707275	0.597656	-0.380615	-0.113837	-0.007053	-0.015956	0.484024	-0.570865	0.515459	0.417296	-146.241952	77.272454	-56.894688
13021		-11.645263	-0.742612	-1.620760	-0.599444	0.561564	1.939433	-0.742868	0.060755	1.636302	0.718994	0.580078	-0.378174	-0.116391	-0.008439	-0.016142	0.478252	-0.568503	0.518737	0.423075	-150.400462	77.744772	-60.712248
13022		-11.175127	-1.348227	-0.897712	0.254680	1.201858	1.412068	-0.526019	0.129058	1.513884	0.723877	0.569092	-0.371582	-0.111651	-0.014351	-0.008868	0.473132	-0.566039	0.522254	0.427782	-154.514728	78.089762	-64.604872
13023		-10.426897	-0.718189	-1.069993	-0.141054	0.906456	0.653320	-0.409812	0.149074	1.432947	0.724365	0.557861	-0.371338	-0.104222	-0.007951	-0.010606	0.468442	-0.563522	0.525801	0.431901	-158.581084	78.346189	-68.513108
13024		-10.006104	0.512303	-1.668429	-1.193586	0.243412	0.271102	-0.377021	0.103552	1.287658	0.733887	0.547119	-0.373535	-0.100100	0.004447	-0.016641	0.464244	-0.561179	0.528879	0.435709	-162.363446	78.544584	-72.146664
13025		-9.688917	0.849582	-1.518332	-1.382352	0.336196	-0.072198	-0.412319	0.076724	1.155305	0.738525	0.540527	-0.362549	-0.096942	0.007905	-0.015163	0.460295	-0.559189	0.531420	0.439350	-165.885798	78.689842	-75.492975
13026		-10.050226	1.433051	-1.042840	-1.868783	0.869137	0.182284	-0.502328	0.051608	1.026305	0.745850	0.529541	-0.362305	-0.100577	0.013788	-0.010438	0.456419	-0.557669	0.533330	0.442997	-169.163864	78.794047	-78.535376
13027		-10.265825	1.116228	-1.289274	-1.452317	0.673301	0.469916	-0.669005	0.032584	0.898710	0.746094	0.522705	-0.357910	-0.102709	0.010658	-0.012912	0.452406	-0.556813	0.534449	0.446825	-172.203616	78.864039	-81.237409
13028		-10.186000	0.918356	-1.523272	-1.150064	0.429774	0.454263	-0.809490	0.003738	0.780849	0.746338	0.513916	-0.353516	-0.101895	0.008724	-0.015267	0.448317	-0.556503	0.534847	0.450838	-175.010287	78.916339	-83.618524
13029		-10.159948	0.835534	-1.745006	-0.970816	0.203780	0.482121	-0.901067	-0.027993	0.683282	0.750977	0.511719	-0.351318	-0.101625	0.007929	-0.017501	0.444273	-0.556573	0.534675	0.454941	-177.590493	78.961425	-85.715827
13030		-9.997812	0.437368	-2.119556	-0.473846	-0.188041	0.403948	-0.924356	-0.052107	0.593299	0.751221	0.502930	-0.353516	-0.099985	0.003979	-0.021241	0.440410	-0.556858	0.534132	0.458968	-179.942046	79.001952	-87.565504
13031		-9.991210	0.195570	-2.589424	-0.132256	-0.647125	0.489297	-0.926713	-0.089437	0.531611	0.755859	0.496338	-0.346680	-0.099905	0.001570	-0.025947	0.436777	-0.557215	0.533309	0.462946	177.879039	79.050460	-89.238458
13032		-9.922536	0.175039	-2.994928	-0.010899	-1.066370	0.498432	-0.945776	-0.133611	0.489785	0.756348	0.485352	-0.348877	-0.099209	0.001366	-0.030023	0.433283	-0.557602	0.532217	0.467002	175.781202	79.113634	-90.816641
13033		-9.741201	0.154106	-2.943213	0.084913	-1.061568	0.308708	-0.958835	-0.169159	0.462278	0.756348	0.485107	-0.340088	-0.097390	0.001175	-0.029521	0.429908	-0.557994	0.530922	0.471109	173.735123	79.187747	-92.334901
13034		-9.635477	-0.036899	-2.587851	0.323682	-0.734200	0.131986	-0.878459	-0.181486	0.454002	0.760742	0.487549	-0.340088	-0.096330	-0.000702	-0.025963	0.426789	-0.558187	0.529754	0.475014	171.724162	79.259176	-93.863194
13035		-9.693817	-0.080550	-2.190068	0.403652	-0.342980	0.111630	-0.737950	-0.168455	0.453684	0.768066	0.474365	-0.348877	-0.096917	-0.001106	-0.021979	0.424027	-0.558103	0.528932	0.478491	169.787673	79.313554	-95.398039
13036		-9.788506	0.033265	-2.135923	0.351100	-0.294517	0.195698	-0.675405	-0.184408	0.463522	0.761475	0.469727	-0.344482	-0.097866	0.000033	-0.021450	0.421441	-0.557808	0.528246	0.481866	167.824008	79.365845	-96.996038
13037		-9.737934	0.236201	-2.301930	0.227173	-0.498900	0.181370	-0.663816	-0.198520	0.461089	0.766113	0.465332	-0.335449	-0.097361	0.002061	-0.023123	0.418931	-0.557454	0.527538	0.485228	165.855481	79.416417	-98.606164
13038		-9.669181	0.393821	-2.108117	0.113782	-0.353393	0.084490	-0.708696	-0.217017	0.463290	0.770752	0.461182	-0.342041	-0.096678	0.003639	-0.021199	0.416323	-0.557129	0.526681	0.488763	163.816379	79.466191	-100.260998
13039		-9.467922	0.463452	-1.887897	0.078245	-0.200015	-0.149664	-0.753627	-0.233251	0.464483	0.766602	0.452148	-0.342041	-0.094667	0.004343	-0.019006	0.413630	-0.556846	0.525671	0.492446	161.724039	79.514031	-101.944196
13040		-9.657578	0.629930	-1.815652	-0.023780	-0.133606	0.033299	-0.800431	-0.236963	0.472295	0.768799	0.454346	-0.342041	-0.096569	0.005998	-0.018295	0.410779	-0.556614	0.524550	0.496275	159.555937	79.550568	-103.676304
13041		-9.715557	0.711265	-1.718255	-0.047860	-0.059323	0.078933	-0.855564	-0.247207	0.475850	0.773682	0.445557	-0.331055	-0.097151	0.006808	-0.017332	0.407791	-0.556451	0.523264	0.500264	157.329286	79.580147	-105.436274
13042		-9.849908	0.728072	-1.523217	-0.016215	0.128667	0.179997	-0.913356	-0.270319	0.479451	0.773682	0.443359	-0.339844	-0.098495	0.006975	-0.015398	0.404673	-0.556318	0.521786	0.504469	155.013532	79.607903	-107.252404
13043		-9.930853	0.794490	-1.322806	-0.038105	0.303364	0.232659	-0.981481	-0.286489	0.476802	0.778809	0.430176	-0.343994	-0.099308	0.007643	-0.013408	0.401411	-0.556276	0.520076	0.508868	152.641228	79.631696	-109.086796
13044		-10.088566	0.757563	-1.204926	0.058956	0.422363	0.366831	-1.051250	-0.295431	0.495029	0.776611	0.425781	-0.339600	-0.100886	0.007262	-0.012237	0.397910	-0.556281	0.518206	0.513500	150.152231	79.640443	-110.998506
13045		-10.173122	0.651130	-1.001268	0.207334	0.623859	0.409166	-1.086798	-0.282526	0.516962	0.785889	0.419189	-0.339600	-0.101733	0.006193	-0.010191	0.394212	-0.556315	0.516309	0.518205	147.611828	79.621816	-112.942377
13046		-9.988429	0.224361	-0.887377	0.665664	0.749577	0.167348	-1.039046	-0.253847	0.556759	0.786377	0.410400	-0.341797	-0.099879	0.001919	-0.009011	0.390448	-0.556201	0.514685	0.522772	145.052926	79.560773	-114.932572
13047		-9.957427	-0.345363	-1.019555	1.319053	0.699347	0.090831	-0.841172	-0.195000	0.637187	0.792969	0.412598	-0.337402	-0.099553	-0.003814	-0.010277	0.386866	-0.555633	0.513897	0.526798	142.554704	79.430084	-116.977520
13048		-10.048519	-0.277469	-1.213257	1.375703	0.511965	0.205622	-0.605941	-0.153608	0.716312	0.791016	0.401611	-0.343750	-0.100465	-0.003171	-0.012201	0.383606	-0.554496	0.514017	0.530251	140.139391	79.236115	-119.075819
13049		-10.215956	-0.252837	-1.226355	1.456125	0.522978	0.362731	-0.472879	-0.147224	0.810352	0.793945	0.388184	-0.332764	-0.102139	-0.002971	-0.012332	0.380447	-0.552870	0.514749	0.533505	137.694200	78.988283	-121.284227
13050		-10.516467	-0.527560	-1.451386	1.897093	0.405328	0.637995	-0.374171	-0.169481	0.932178	0.798340	0.386230	-0.339355	-0.105126	-0.005793	-0.014592	0.377277	-0.550666	0.516027	0.536791	135.112366	78.682889	-123.691160
13051		-10.691970	-0.776026	-1.660078	2.313626	0.279582	0.781841	-0.321725	-0.189017	1.069207	0.799316	0.366211	-0.339111	-0.106860	-0.008358	-0.016689	0.373929	-0.547944	0.517768	0.540232	132.401738	78.307938	-126.263524
13052		-11.065754	-1.077111	-1.796041	2.810665	0.265391	1.089828	-0.257603	-0.247769	1.231910	0.801758	0.359619	-0.339111	-0.110566	-0.011476	-0.018083	0.370449	-0.544498	0.520001	0.543956	129.493594	77.859305	-129.078697
13053		-11.255612	-1.441493	-2.264634	3.438959	-0.090474	1.235311	-0.187631	-0.256169	1.421986	0.802002	0.350830	-0.345703	-0.112421	-0.015236	-0.022776	0.366653	-0.540382	0.522898	0.547842	126.530154	77.299239	-131.997298
13054		-11.797817	-1.898248	-2.280168	4.141658	0.069388	1.625383	-0.114562	-0.249955	1.641912	0.813965	0.333252	-0.352051	-0.117788	-0.019963	-0.022938	0.362406	-0.535537	0.526570	0.551893	123.576335	76.601692	-134.955858
13055		-12.570811	-1.459236	-1.320170	3.854891	1.051694	2.267318	-0.021783	-0.254651	1.861139	0.816895	0.315674	-0.347656	-0.125548	-0.015763	-0.013360	0.357792	-0.529893	0.531033	0.556060	120.710199	75.766778	-137.888673
13056		-13.191215	-0.555462	-0.263828	3.129005	2.023104	2.856027	0.005996	-0.301542	2.070063	0.820068	0.295654	-0.347412	-0.131841	-0.006919	-0.002837	0.352754	-0.523459	0.535989	0.560599	117.887776	74.806355	-140.804129
13057		-13.639863	-0.939368	-0.354735	3.893165	2.082793	3.131469	-0.057142	-0.355410	2.262098	0.820557	0.282471	-0.358398	-0.136274	-0.010937	-0.003787	0.347118	-0.516408	0.541109	0.565714	115.119170	73.726780	-143.640520
13058		-14.341934	-1.013182	-1.284538	4.638101	1.314373	3.793099	-0.144197	-0.368338	2.446553	0.826172	0.255859	-0.355957	-0.143257	-0.011894	-0.013101	0.340717	-0.508896	0.546359	0.571339	112.501455	72.518173	-146.283454
13059		-15.135794	-0.924014	-1.704224	5.203673	1.033757	4.494295	-0.331457	-0.357899	2.626738	0.831543	0.229492	-0.360107	-0.151188	-0.011255	-0.017295	0.333242	-0.501156	0.551457	0.577656	110.034829	71.178791	-148.673321
13060		-16.644259	-1.503900	-1.184407	6.466230	1.908961	5.524223	-0.612063	-0.351740	2.782567	0.832764	0.202881	-0.364258	-0.166190	-0.017389	-0.012086	0.324530	-0.493373	0.556038	0.584881	107.669769	69.723372	-150.804588
13061		-18.326319	-2.950362	-1.208668	8.788247	2.446667	6.397623	-0.907732	-0.394350	2.927913	0.840576	0.174072	-0.364258	-0.182780	-0.032237	-0.012305	0.314710	-0.485430	0.559917	0.593134	105.326562	68.167266	-152.751900
13062		-19.596562	-5.055324	-2.243156	11.875924	2.077852	6.595338	-1.181938	-0.401308	3.061435	0.837158	0.143066	-0.372803	-0.195115	-0.053677	-0.022513	0.303767	-0.477398	0.563150	0.602228	103.064290	66.511167	-154.463183
13063		-20.441699	-7.267131	-3.380598	14.973468	1.610653	6.164083	-1.395917	-0.377708	3.218840	0.840820	0.109863	-0.372559	-0.203146	-0.076183	-0.033667	0.291682	-0.469178	0.565984	0.611927	100.932911	64.740032	-155.918668
13064		-21.364380	-10.037618	-4.123836	18.511487	1.722685	5.303198	-1.615975	-0.332131	3.404376	0.839600	0.081055	-0.376709	-0.211822	-0.104323	-0.040759	0.278289	-0.460735	0.568453	0.622205	98.926555	62.839644	-157.116561
13065		-21.427871	-13.046013	-6.297426	22.234742	0.450404	3.390974	-1.792623	-0.344035	3.576378	0.836670	0.043213	-0.374268	-0.211786	-0.134822	-0.062145	0.263878	-0.451834	0.570535	0.633013	96.990391	60.825109	-158.141129
13066		-21.268001	-12.341755	-7.021899	22.262297	-0.182928	2.765922	-1.543275	-0.275492	3.747409	0.824707	0.005371	-0.378418	-0.210215	-0.127910	-0.069534	0.249192	-0.442150	0.573644	0.642915	95.425713	58.696208	-158.922418
13067		-19.817811	-7.130498	-6.109676	17.505386	-0.502262	3.384265	-1.243145	-0.137368	3.907801	0.828369	-0.030029	-0.391357	-0.196688	-0.075536	-0.060771	0.234144	-0.431887	0.578005	0.651583	94.279642	56.459241	-159.429510
13068		-19.734467	-2.625003	-5.806641	14.328912	-1.035335	5.140695	-0.981683	0.004466	4.103585	0.814209	-0.068115	-0.384766	-0.196748	-0.030576	-0.057919	0.218524	-0.421031	0.583551	0.659127	93.480690	54.102311	-159.711013
13069		-19.407051	-3.537875	-5.775963	15.442318	-0.668480	3.734964	-0.681634	0.113128	4.141738	0.806396	-0.103760	-0.386719	-0.193312	-0.039584	-0.057520	0.202982	-0.409899	0.590026	0.665320	92.988088	51.716647	-159.831858
13070		-19.700439	-2.842279	-7.333967	16.125022	-2.047788	3.814506	-0.858699	-0.006504	4.045125	0.794678	-0.145996	-0.395264	-0.196369	-0.032713	-0.073212	0.187678	-0.398663	0.595332	0.671882	92.351263	49.391058	-160.013106
13071		-19.266085	-7.243932	-8.807109	20.007464	-2.406908	-0.062791	-0.915666	-0.215689	4.034910	0.782471	-0.179443	-0.395020	-0.191047	-0.076707	-0.087933	0.172820	-0.386626	0.599974	0.678738	91.589807	47.072014	-160.322980
13072		-14.665254	-5.342570	-8.031756	15.822857	-3.034010	-2.847097	-0.501511	-0.182239	3.839660	0.770264	-0.208496	-0.401367	-0.145515	-0.056428	-0.080312	0.159275	-0.374786	0.605426	0.683832	91.132619	44.865016	-160.552884
13073		-7.643728	3.125335	-4.439981	4.555398	-3.061968	-2.211802	-0.929527	-0.255575	3.025987	0.762207	-0.235352	-0.396973	-0.076839	0.029886	-0.044639	0.147860	-0.365366	0.607642	0.689504	90.427210	43.120513	-160.793591
13074		-8.550756	8.569474	-5.346200	2.262075	-4.903811	2.268533	-1.931924	-0.235799	2.259600	0.753906	-0.250977	-0.410156	-0.086401	0.084200	-0.054382	0.137183	-0.359011	0.604869	0.697442	89.193653	41.815487	-160.974706
13075		-14.614925	-4.718619	-8.118218	16.042407	-2.922296	-3.824713	-2.608102	-0.094893	1.052576	0.745605	-0.266602	-0.416504	-0.145856	-0.049008	-0.080620	0.129023	-0.357170	0.597541	0.706206	87.657968	41.198141	-161.028663
13076		-7.014317	-17.272809	-4.710946	17.117983	1.832367	-18.377153	-2.073687	-0.347888	0.227053	0.752686	-0.275391	-0.425293	-0.069867	-0.173284	-0.045436	0.125491	-0.356519	0.590368	0.713170	86.296124	41.047863	-161.286524
13077		-2.854626	-15.500086	-0.696141	11.567470	4.354802	-19.616336	-1.471539	-0.495178	-0.325446	0.754883	-0.270752	-0.429688	-0.028783	-0.155000	-0.005892	0.125404	-0.356547	0.584214	0.718222	85.186540	41.199621	-161.683173
13078		-0.882391	-10.614907	1.100976	6.580044	4.296499	-17.086568	-0.493927	-0.493901	-0.736167	0.754639	-0.268555	-0.434082	-0.009242	-0.106088	0.011249	0.128550	-0.357170	0.580811	0.720113	84.616559	41.585155	-162.111072
13079		-0.907629	-8.320732	0.861183	5.367011	3.424792	-15.314049	0.620642	-0.314626	-1.124269	0.763428	-0.261719	-0.429688	-0.009557	-0.083181	0.008339	0.134534	-0.358818	0.580826	0.718187	84.750459	42.196681	-162.434746
13080		-1.837019	-8.014630	-0.840085	6.540141	1.906408	-14.492907	1.250261	-0.113536	-1.621578	0.771729	-0.246094	-0.414307	-0.019014	-0.079939	-0.008912	0.142866	-0.362203	0.582299	0.713671	85.327350	43.107435	-162.634515
13081		-2.578437	-7.091715	-2.113819	7.019205	0.527314	-13.256232	1.675765	0.004381	-2.100711	0.780029	-0.228271	-0.403564	-0.026527	-0.070461	-0.021729	0.153288	-0.367028	0.584428	0.707274	86.197412	44.294811	-162.756864
13082		-2.490319	-5.348401	-2.508730	6.036916	-0.430938	-11.926296	1.868426	0.063020	-2.551944	0.785889	-0.208252	-0.388184	-0.025589	-0.052923	-0.025575	0.165484	-0.373174	0.586328	0.699697	87.213770	45.747635	-162.827733
13083		-2.653603	-3.712115	-2.852409	5.192801	-1.225912	-10.510328	1.837671	0.080793	-3.002758	0.793945	-0.186035	-0.375244	-0.027098	-0.036453	-0.028850	0.179073	-0.380606	0.587135	0.691625	88.235241	47.455500	-162.863423
13084		-3.091697	-2.377458	-3.529029	4.739433	-2.175035	-9.127915	1.694995	0.095281	-3.441781	0.806396	-0.156982	-0.359863	-0.031333	-0.022938	-0.035472	0.193835	-0.389397	0.586425	0.683303	89.211701	49.419451	-162.851066
13085		-3.631619	-1.900482	-3.963284	4.791326	-2.654827	-8.231772	1.490901	0.123768	-3.890286	0.812012	-0.132568	-0.349121	-0.036697	-0.017997	-0.039747	0.209542	-0.399623	0.583945	0.674835	90.127425	51.635817	-162.764320
13086		-4.362071	-2.477629	-3.982841	5.561970	-2.462903	-7.807173	1.274937	0.139128	-4.300547	0.815186	-0.097168	-0.333984	-0.044164	-0.023576	-0.039951	0.226089	-0.411161	0.579656	0.666205	90.987488	54.090375	-162.596962
13087		-5.642360	-2.591039	-4.028188	6.239654	-2.319761	-6.579739	1.239936	0.181514	-4.635864	0.820557	-0.066162	-0.314453	-0.057037	-0.024343	-0.040384	0.243408	-0.423610	0.574304	0.656873	91.936750	56.730144	-162.300304
13088		-7.318694	-1.756946	-3.281559	6.010266	-1.581038	-4.447846	1.260097	0.242686	-4.937757	0.841553	-0.030273	-0.297119	-0.073627	-0.015548	-0.032829	0.261466	-0.436866	0.568098	0.646567	93.072982	59.542157	-161.808254
13089		-8.689835	-0.987550	-2.617131	5.519154	-0.970828	-2.607496	1.150908	0.294375	-5.178535	0.842285	0.005127	-0.284180	-0.087151	-0.007471	-0.026091	0.279712	-0.450800	0.560705	0.635728	94.371655	62.479353	-161.071472
13090		-9.800012	-0.544482	-2.377279	5.133269	-0.751464	-1.149689	0.995279	0.336792	-5.378639	0.852295	0.036133	-0.260010	-0.098137	-0.002689	-0.023626	0.297951	-0.465344	0.552014	0.624469	95.891476	65.523521	-160.011186
13091		-10.750676	-0.022152	-2.160571	4.471076	-0.606553	0.180070	0.847823	0.384564	-5.576641	0.862305	0.069580	-0.247070	-0.107497	0.002867	-0.021391	0.316075	-0.480423	0.542056	0.612753	97.779018	68.657531	-158.484035
13092		-11.653021	0.141417	-1.763626	3.931282	-0.229326	1.294815	0.715558	0.437565	-5.751539	0.885254	0.109863	-0.220947	-0.116462	0.004827	-0.017368	0.334044	-0.495978	0.530905	0.600467	100.310306	71.865381	-156.227191
13093		-12.502159	0.306160	-1.372448	3.251056	0.126059	2.338427	0.663547	0.520549	-5.876731	0.899414	0.147705	-0.203613	-0.124894	0.006778	-0.013381	0.351725	-0.511754	0.518981	0.587415	104.043832	75.083268	-152.725124
13094		-13.550381	0.335536	-1.090654	2.641734	0.422854	3.517784	0.640078	0.619925	-5.959221	0.924072	0.205811	-0.179688	-0.135356	0.007424	-0.010467	0.369045	-0.527644	0.506480	0.573476	110.046261	78.240352	-146.931702
13095		-14.379944	-0.068085	-1.133432	2.350694	0.472437	4.409061	0.680889	0.747142	-6.042771	0.937500	0.265869	-0.166992	-0.143773	0.003701	-0.010790	0.386025	-0.543531	0.493657	0.558446	120.709798	81.186708	-136.489270
13096		-15.542786	-0.703224	-1.424063	2.247905	0.369441	5.641498	0.825663	0.860938	-6.134717	0.955078	0.330322	-0.143066	-0.155604	-0.002204	-0.013587	0.403033	-0.559186	0.480727	0.542012	141.213224	83.549193	-116.283872
13097		-16.915813	-0.832014	-1.523099	1.448441	0.363620	7.123342	0.990250	0.932331	-6.232954	0.956543	0.405762	-0.130371	-0.169375	-0.002970	-0.014465	0.420170	-0.574366	0.467648	0.524278	175.473989	84.405651	-82.409628
13098		-18.497667	-0.684234	-1.784212	0.201663	0.158444	8.778403	1.121129	0.980030	-6.326503	0.957520	0.492188	-0.111328	-0.185152	-0.000890	-0.016951	0.437408	-0.589042	0.454249	0.505333	-152.203016	83.077120	-50.546817
13099		-20.898100	-0.451117	-2.206797	-1.412016	-0.149954	11.154633	1.202653	0.999857	-6.411417	0.947266	0.582764	-0.107422	-0.209086	0.002320	-0.021022	0.454566	-0.603136	0.440379	0.485452	-133.701989	80.383971	-32.550258
13100		-23.594121	0.445366	-2.930196	-3.990729	-0.860541	13.609400	1.253885	1.015840	-6.431999	0.928223	0.666748	-0.099365	-0.235776	0.012217	-0.028044	0.471421	-0.616560	0.426114	0.464804	-123.684139	77.140181	-23.069659
13101		-25.263058	1.566594	-3.609623	-6.878546	-1.644619	14.752516	1.352639	1.065836	-6.383220	0.895020	0.768066	-0.100098	-0.252141	0.023957	-0.034608	0.487825	-0.629075	0.411898	0.443432	-117.762457	73.693232	-17.748809
