// General information: 
//  MT Manager version: 2019.2.0 
//  XDA version: 2019.2.0 build 3853 rev 94535 built on 2019-09-09
// Device information: 
//  DeviceId: 00B40ACF
//  ProductCode: MTW2-3A7G6
//  Firmware Version: 4.3.5
//  Hardware Version: 1.1.0
// Device settings: 
//  Filter Profile: human(46.1)
//  Option Flags: Orientation Smoother Disabled, AHS Disabled, ICC Disabled
// Coordinate system: ENU
PacketCounter	SampleTimeFine	Acc_X	Acc_Y	Acc_Z	FreeAcc_E	FreeAcc_N	FreeAcc_U	Gyr_X	Gyr_Y	Gyr_Z	Mag_X	Mag_Y	Mag_Z	VelInc_X	VelInc_Y	VelInc_Z	Quat_q0	Quat_q1	Quat_q2	Quat_q3	Roll	Pitch	Yaw
11662		9.299964	-0.563890	-3.403255	0.000000	-0.000000	0.106455	0.266515	0.003436	0.204321	-0.834717	0.499268	-0.394043	0.093005	-0.005499	-0.034042	0.549177	-0.280092	-0.770158	-0.163737	-170.824596	-69.657063	133.638371
11663		9.323935	0.235247	-3.368632	-0.000000	0.000000	0.103901	0.278511	0.030153	0.186881	-0.837158	0.508057	-0.389648	0.093232	0.002487	-0.033697	0.533649	-0.282882	-0.768036	-0.212877	175.779775	-70.078766	142.520629
11664		9.420880	0.062910	-3.409210	0.125973	0.174067	0.203970	0.251699	0.041817	0.193347	-0.832764	0.510498	-0.396240	0.094201	0.000763	-0.034111	0.542202	-0.281799	-0.768935	-0.188002	-177.239206	-70.016989	137.812385
11665		9.366587	-0.366248	-3.415320	-0.107514	-0.154023	0.162087	0.274809	0.050606	0.217343	-0.832764	0.508301	-0.398438	0.093661	-0.003514	-0.034182	0.542987	-0.281842	-0.768749	-0.186428	-176.735368	-70.039399	137.443836
11666		9.354434	-0.169708	-3.167347	-0.137075	0.161935	0.062597	0.268513	0.050191	0.230446	-0.832764	0.510498	-0.398438	0.093538	-0.001547	-0.031699	0.543763	-0.281993	-0.768529	-0.184836	-176.205635	-70.058400	137.041046
11667		9.282291	-0.052200	-3.317306	0.088404	0.167477	0.042881	0.258643	0.050911	0.236019	-0.835449	0.519287	-0.396484	0.092815	-0.000370	-0.033197	0.544541	-0.282149	-0.768296	-0.183272	-175.679768	-70.077928	136.639306
11668		9.280793	-0.240739	-3.276992	-0.036827	0.066575	0.032305	0.249389	0.047437	0.241382	-0.837646	0.519287	-0.400879	0.092803	-0.002255	-0.032795	0.545267	-0.282445	-0.768041	-0.181721	-175.135552	-70.089633	136.205423
11669		9.283382	-0.356355	-3.181149	-0.157815	0.054363	0.005660	0.236557	0.045933	0.245811	-0.831055	0.521729	-0.398682	0.092831	-0.003412	-0.031837	0.546000	-0.282702	-0.767782	-0.180207	-174.606084	-70.103254	135.786467
11670		9.286465	-0.473201	-3.060667	-0.298080	0.056657	-0.028113	0.211459	0.045907	0.247245	-0.831299	0.528320	-0.405273	0.092863	-0.004585	-0.030633	0.546663	-0.283156	-0.767477	-0.178780	-174.067779	-70.109902	135.333412
11671		9.345968	-0.533335	-3.085049	-0.310072	0.029418	0.038810	0.199304	0.046198	0.241932	-0.833496	0.528320	-0.407471	0.093459	-0.005190	-0.030877	0.547338	-0.283498	-0.767185	-0.177419	-173.564681	-70.121286	134.919851
11672		9.294701	-0.378335	-3.013940	-0.230511	0.199266	-0.038971	0.179088	0.049699	0.237986	-0.833740	0.532715	-0.400879	0.092944	-0.003646	-0.030166	0.547965	-0.284024	-0.766836	-0.176143	-173.051059	-70.128503	134.472018
11673		9.357882	-0.454877	-3.113244	-0.198934	0.115454	0.057277	0.170522	0.047929	0.233629	-0.831543	0.532715	-0.400879	0.093577	-0.004413	-0.031159	0.548597	-0.284410	-0.766523	-0.174917	-172.576294	-70.139003	134.071095
11674		9.319928	-0.891315	-3.209646	-0.369887	-0.268932	0.074077	0.174861	0.063703	0.234139	-0.831787	0.541504	-0.398682	0.093199	-0.008776	-0.032134	0.549261	-0.284977	-0.766115	-0.173688	-172.056666	-70.150746	133.609889
11675		9.310485	-0.340138	-3.159569	-0.036553	0.203346	0.023011	0.173006	0.061452	0.236198	-0.833984	0.539307	-0.405273	0.093099	-0.003264	-0.031627	0.549948	-0.285353	-0.765759	-0.172464	-171.572421	-70.166328	133.200464
11676		9.409664	-0.456293	-3.285787	-0.014977	0.081372	0.164259	0.167602	0.068498	0.232138	-0.833984	0.541504	-0.409668	0.094091	-0.004426	-0.032894	0.550694	-0.285722	-0.765351	-0.171280	-171.086118	-70.190600	132.786585
11677		9.417521	-0.785687	-3.299227	-0.189015	-0.163648	0.193777	0.190172	0.079985	0.243057	-0.836426	0.543701	-0.405273	0.094171	-0.007711	-0.033037	0.551479	-0.286059	-0.764946	-0.169997	-170.574953	-70.213651	132.359114
11678		9.331115	-0.683851	-3.326304	-0.058525	-0.104485	0.116423	0.194336	0.090297	0.250932	-0.832275	0.554932	-0.407715	0.093305	-0.006689	-0.033312	0.552365	-0.286410	-0.764466	-0.168683	-170.032538	-70.246198	131.902478
11679		9.326909	-0.971480	-3.283550	-0.241941	-0.288091	0.115811	0.211921	0.105376	0.251138	-0.829834	0.550537	-0.407471	0.093264	-0.009563	-0.032895	0.553282	-0.286696	-0.763993	-0.167330	-169.486527	-70.280031	131.451389
11680		9.323765	-0.700783	-3.251522	-0.066403	-0.042882	0.086290	0.230825	0.118680	0.250158	-0.827881	0.557373	-0.411865	0.093227	-0.006854	-0.032579	0.554330	-0.286930	-0.763458	-0.165897	-168.903850	-70.324864	130.975678
11681		9.387324	-0.768839	-3.193907	-0.136685	-0.031251	0.131871	0.225101	0.128353	0.243947	-0.830078	0.559570	-0.412109	0.093862	-0.007538	-0.032008	0.555345	-0.287130	-0.762937	-0.164545	-168.350572	-70.369400	130.525127
11682		9.413178	-1.570896	-3.275000	-0.546386	-0.681864	0.239063	0.236699	0.140895	0.257175	-0.832520	0.559326	-0.418701	0.094129	-0.015549	-0.032835	0.556494	-0.287358	-0.762325	-0.163095	-167.737894	-70.422999	130.021891
11683		9.344193	-0.941932	-3.216934	-0.152198	-0.159805	0.112081	0.260365	0.160371	0.261736	-0.826172	0.568359	-0.412109	0.093428	-0.009255	-0.032256	0.557692	-0.287500	-0.761714	-0.161604	-167.120166	-70.480043	129.524680
11684		9.445414	-0.671188	-3.210151	0.025242	0.098392	0.185361	0.248760	0.166128	0.264123	-0.828369	0.570557	-0.425293	0.094436	-0.006547	-0.032188	0.558973	-0.287732	-0.761011	-0.160067	-166.451134	-70.541343	128.972570
11685		9.416660	-1.083139	-3.333349	-0.093886	-0.285895	0.230579	0.260929	0.174405	0.279345	-0.828613	0.574951	-0.420898	0.094152	-0.010656	-0.033430	0.560234	-0.287925	-0.760329	-0.158544	-165.793171	-70.599964	128.433405
11686		9.482336	-0.657552	-3.170069	0.070105	0.174507	0.205342	0.261747	0.186314	0.292598	-0.828613	0.579590	-0.425293	0.094803	-0.006395	-0.031797	0.561625	-0.288215	-0.759534	-0.156897	-165.053922	-70.663051	127.815483
11687		9.528912	-0.965587	-3.066822	-0.168821	0.020298	0.242602	0.271311	0.180753	0.313989	-0.828613	0.579590	-0.423096	0.095276	-0.009465	-0.030767	0.562947	-0.288503	-0.758785	-0.155245	-164.325236	-70.715437	127.208073
11688		9.539848	-0.410202	-2.825258	0.026206	0.615079	0.126119	0.271524	0.180558	0.337771	-0.826904	0.588379	-0.425293	0.095380	-0.003902	-0.028344	0.564366	-0.288930	-0.757936	-0.153439	-163.507018	-70.764517	126.512294
11689		9.595387	-0.460917	-2.857967	0.048475	0.592717	0.192214	0.251570	0.166545	0.354878	-0.817871	0.588623	-0.431885	0.095938	-0.004403	-0.028665	0.565631	-0.289436	-0.757145	-0.151724	-162.725265	-70.796774	125.837046
11690		9.693316	-0.803862	-2.927841	-0.083316	0.333006	0.339198	0.250025	0.163065	0.387280	-0.826904	0.593018	-0.431885	0.096925	-0.007814	-0.029367	0.567000	-0.290071	-0.756239	-0.149910	-161.866436	-70.829168	125.082151
11691		9.591138	-0.946706	-2.984636	-0.064497	0.187710	0.274662	0.237252	0.172511	0.429777	-0.813721	0.602051	-0.429688	0.095906	-0.009225	-0.029940	0.568316	-0.290893	-0.755301	-0.148044	-160.968213	-70.844386	124.275146
11692		9.650627	-0.821556	-3.253225	0.255988	0.180034	0.399796	0.211888	0.186936	0.460452	-0.818359	0.604248	-0.434082	0.096494	-0.007959	-0.032631	0.569782	-0.291871	-0.754173	-0.146229	-160.005885	-70.871834	123.386847
11693		9.573708	-0.978106	-3.625498	0.511932	-0.140646	0.457399	0.219325	0.209164	0.489947	-0.812012	0.613037	-0.432129	0.095723	-0.009507	-0.036366	0.571246	-0.292940	-0.753019	-0.144311	-159.000728	-70.885795	122.455999
11694		9.617478	-0.876799	-3.573341	0.579202	0.009299	0.468243	0.238781	0.230809	0.518249	-0.809814	0.615479	-0.438721	0.096156	-0.008476	-0.035855	0.572897	-0.294013	-0.751727	-0.142309	-157.923101	-70.909984	121.460104
11695		9.806464	-0.749886	-3.495154	0.620334	0.237442	0.603818	0.249303	0.255287	0.555263	-0.805908	0.628906	-0.440918	0.098040	-0.007183	-0.035086	0.574615	-0.295202	-0.750353	-0.140156	-156.768765	-70.922431	120.389788
11696		9.800845	-0.642642	-3.462729	0.721601	0.370596	0.570065	0.240730	0.275843	0.596545	-0.810547	0.633301	-0.449707	0.097979	-0.006092	-0.034770	0.576411	-0.296503	-0.748856	-0.138027	-155.570328	-70.934942	119.263690
11697		10.051531	-0.444573	-3.207879	0.668003	0.774510	0.698012	0.252267	0.290628	0.644172	-0.801758	0.637939	-0.451904	0.100482	-0.004081	-0.032230	0.578314	-0.297985	-0.747232	-0.135655	-154.254449	-70.929257	118.024354
11698		10.136366	-0.281802	-3.147306	0.773282	0.996779	0.729548	0.224687	0.306033	0.704738	-0.802002	0.644531	-0.451904	0.101324	-0.002425	-0.031631	0.580201	-0.299648	-0.745505	-0.133416	-152.930145	-70.916259	116.749180
11699		10.526146	-0.417725	-3.163239	0.724445	1.041377	1.112982	0.231058	0.316748	0.790137	-0.795410	0.651367	-0.451904	0.105226	-0.003725	-0.031804	0.582250	-0.301708	-0.743549	-0.130736	-151.397632	-70.865346	115.267413
11700		10.621923	-0.024558	-3.290765	1.128231	1.355358	1.166571	0.229909	0.324986	0.893811	-0.793457	0.660156	-0.460693	0.106165	0.000267	-0.033080	0.584282	-0.303941	-0.741501	-0.128105	-149.850313	-70.797912	113.750823
11701		10.897291	0.504445	-3.219801	1.448324	1.953850	1.298393	0.258132	0.330218	0.996418	-0.782471	0.662842	-0.467285	0.108892	0.005629	-0.032371	0.586529	-0.306665	-0.739176	-0.124737	-148.024123	-70.665393	111.972958
11702		11.278371	0.586102	-3.323768	1.628067	2.139207	1.648732	0.288201	0.335579	1.122774	-0.780762	0.678223	-0.465332	0.112692	0.006542	-0.033418	0.588739	-0.309397	-0.736820	-0.121479	-146.245293	-70.520155	110.231563
11703		11.517410	0.793230	-3.304392	1.828593	2.473727	1.794796	0.292344	0.349304	1.278059	-0.770020	0.694092	-0.469727	0.115062	0.008716	-0.033233	0.591241	-0.313025	-0.733975	-0.117177	-144.069530	-70.266007	108.099722
11704		11.903436	0.698481	-3.477444	1.987425	2.511702	2.187764	0.315025	0.357540	1.438751	-0.766113	0.707520	-0.476318	0.118917	0.007896	-0.034975	0.593641	-0.316596	-0.731118	-0.113243	-142.037303	-70.009233	106.084358
11705		12.421035	1.347275	-3.497519	2.494164	3.294990	2.485609	0.375934	0.354334	1.607327	-0.755127	0.714355	-0.482910	0.124034	0.014536	-0.035168	0.596420	-0.321144	-0.727709	-0.107655	-139.533965	-69.584207	103.646478
11706		12.650375	1.139682	-3.527922	2.520264	3.307620	2.696505	0.426703	0.326081	1.801717	-0.751465	0.734375	-0.483154	0.126336	0.012611	-0.035459	0.598925	-0.325437	-0.724472	-0.102568	-137.315577	-69.158343	101.471751
11707		13.424299	1.133656	-3.619582	2.722771	3.697101	3.359603	0.571421	0.289282	1.987863	-0.733643	0.741455	-0.491943	0.134068	0.012773	-0.036355	0.601889	-0.330760	-0.720625	-0.095010	-134.577699	-68.485358	98.886791
11708		13.861605	0.950129	-3.529644	2.690772	3.924974	3.709527	0.690540	0.239400	2.213911	-0.716553	0.761719	-0.496338	0.138456	0.011157	-0.035426	0.604527	-0.335457	-0.717125	-0.088020	-132.234678	-67.834312	96.702250
11709		14.611597	1.323442	-3.964695	3.455606	4.506645	4.283611	0.846043	0.158917	2.397044	-0.706055	0.779785	-0.496338	0.145910	0.015152	-0.039702	0.607521	-0.341397	-0.712939	-0.078001	-129.433147	-66.854513	94.191917
11710		14.965027	0.897937	-4.043651	3.457084	4.506129	4.638527	1.050645	0.074978	2.564554	-0.686279	0.791260	-0.509521	0.149502	0.011110	-0.040438	0.610093	-0.345929	-0.709490	-0.068866	-127.185426	-65.973365	92.285600
11711		14.801433	0.426995	-3.706020	3.164614	4.581232	4.399285	1.225728	0.031693	2.715472	-0.668945	0.811523	-0.516113	0.147930	0.006506	-0.037048	0.613193	-0.351774	-0.705040	-0.056282	-124.466521	-64.722324	90.066969
11712		15.342068	-0.177990	-3.774238	3.083948	4.584325	4.989677	1.335036	0.032276	2.771030	-0.647217	0.829834	-0.529297	0.153417	0.000598	-0.037768	0.615899	-0.355773	-0.701418	-0.045907	-122.386436	-63.723651	88.471093
11713		14.354751	-0.692436	-3.252104	2.618420	4.368145	4.013418	1.391049	0.052697	2.783545	-0.636475	0.845703	-0.536133	0.143615	-0.004699	-0.032597	0.619122	-0.361196	-0.696538	-0.032545	-119.915849	-62.374264	86.593817
11714		12.304844	-1.730708	-3.111928	2.076362	2.949534	2.478165	1.323868	0.152183	2.780352	-0.614746	0.861572	-0.542725	0.123247	-0.015388	-0.031319	0.621994	-0.364872	-0.692440	-0.022771	-118.067320	-61.402546	85.204387
11715		12.276663	-3.678369	-4.132562	2.150673	1.303350	3.415587	1.225854	0.145672	2.737157	-0.592773	0.877686	-0.547119	0.123222	-0.034845	-0.041633	0.624976	-0.370478	-0.687055	-0.010279	-115.961681	-60.043233	83.595778
11716		11.336293	-4.914437	-5.295229	2.644051	-0.401167	3.360663	1.235959	0.130797	2.734848	-0.575439	0.891357	-0.562500	0.113983	-0.047260	-0.053323	0.627354	-0.374138	-0.682969	-0.000949	-114.450325	-59.052268	82.502175
11717		10.728241	-4.703938	-5.447666	3.108376	-0.341081	2.721590	1.282498	0.239735	2.743824	-0.553467	0.907227	-0.573486	0.107845	-0.045211	-0.054900	0.630512	-0.379440	-0.677012	0.011588	-112.494780	-57.664956	81.068447
11718		10.250181	-4.523967	-4.950639	2.927981	-0.036296	2.080835	1.144289	0.348856	2.735999	-0.540527	0.918701	-0.584473	0.103018	-0.043548	-0.049938	0.633007	-0.383484	-0.672181	0.020384	-111.086553	-56.652998	79.993683
11719		9.237639	-5.223223	-4.258014	2.129580	-0.520250	1.409267	1.047598	0.396537	2.612151	-0.518555	0.932617	-0.588867	0.092961	-0.050796	-0.043033	0.636018	-0.388948	-0.665743	0.031409	-109.402867	-55.327441	78.686754
11720		7.362585	-4.798638	-3.905585	1.976064	-0.960567	-0.450260	1.133644	0.399579	2.435434	-0.502930	0.939697	-0.608643	0.074122	-0.046863	-0.039471	0.638350	-0.392101	-0.661228	0.039282	-108.224762	-54.428014	77.846805
11721		5.545244	-3.816134	-2.866332	1.469041	-0.701604	-2.679999	1.200730	0.320103	2.227751	-0.482910	0.946777	-0.617432	0.055825	-0.037368	-0.028978	0.641273	-0.395664	-0.655550	0.049730	-106.772128	-53.265899	76.899826
11722		3.973084	-3.178498	-2.197628	1.042979	-0.811448	-4.430271	1.109000	0.258889	1.796709	-0.476563	0.953613	-0.626221	0.039985	-0.031304	-0.022202	0.642983	-0.396900	-0.652616	0.056003	-105.959963	-52.635080	76.476961
11723		5.733717	-5.322828	-2.712076	0.888732	-1.379955	-1.696783	1.082973	0.084461	1.122855	-0.476563	0.955811	-0.637207	0.057623	-0.052757	-0.027432	0.645073	-0.397093	-0.649793	0.062976	-105.056337	-52.028218	76.119233
11724		6.345980	-3.022978	-3.452474	2.679687	0.250481	-2.458400	1.187566	-0.113302	0.358300	-0.472168	0.955811	-0.639404	0.063533	-0.029910	-0.034667	0.646029	-0.393461	-0.650762	0.065908	-104.766051	-52.088249	76.414692
11725		4.385417	0.892340	-2.266090	3.034399	2.277677	-6.531239	0.964709	-0.074567	-0.216892	-0.474609	0.962646	-0.652588	0.043872	0.008985	-0.022601	0.647747	-0.389609	-0.651105	0.068491	-104.306763	-52.197957	76.532983
11726		3.312345	1.743350	-1.447380	2.484182	2.566460	-7.982962	0.711755	-0.068845	-0.588567	-0.482910	0.949219	-0.661133	0.033180	0.017387	-0.014400	0.648087	-0.384453	-0.654010	0.066710	-104.465627	-52.789265	77.038599
11727		3.046211	2.604073	-0.366192	1.815384	3.457804	-8.841834	0.530483	-0.128836	-0.833882	-0.489746	0.948975	-0.663574	0.030573	0.025923	-0.003573	0.648955	-0.379959	-0.655846	0.065989	-104.414896	-53.233699	77.355535
11728		2.878382	2.824157	0.119364	1.421747	3.711592	-9.121481	0.302092	-0.244880	-0.961414	-0.500488	0.939941	-0.659180	0.028918	0.028101	0.001272	0.648048	-0.374704	-0.660153	0.061876	-105.036719	-54.022882	78.139708
11729		3.035784	2.590575	0.025447	1.407862	3.597240	-8.810020	-0.009115	-0.335309	-1.068788	-0.509521	0.937500	-0.654785	0.030495	0.025743	0.000304	0.647245	-0.371095	-0.663235	0.059008	-105.524492	-54.563150	78.733881
11730		3.418659	1.871132	-0.414671	1.520832	3.103941	-7.965327	-0.353990	-0.379690	-1.193073	-0.511475	0.933105	-0.652588	0.034305	0.018500	-0.004115	0.644785	-0.366961	-0.668489	0.052097	-106.720053	-55.469910	79.755094
11731		3.766323	1.148632	-0.677102	1.461684	2.646660	-7.200908	-0.691131	-0.384143	-1.364862	-0.526611	0.917236	-0.641357	0.037753	0.011206	-0.006738	0.642568	-0.364515	-0.672392	0.046088	-107.766938	-56.151728	80.541857
11732		4.085903	0.522722	-0.790899	1.274084	2.267506	-6.522090	-1.004929	-0.365896	-1.573522	-0.546875	0.914551	-0.637207	0.040913	0.004866	-0.007859	0.639006	-0.361050	-0.678263	0.035679	-109.525643	-57.252746	81.776427
11733		4.257282	-0.029278	-0.882255	1.077340	1.864673	-6.035737	-1.295566	-0.354881	-1.800016	-0.557861	0.909668	-0.626221	0.042583	-0.000733	-0.008743	0.635745	-0.358998	-0.682835	0.026171	-111.136711	-58.149411	82.804057
11734		4.443542	-0.427596	-0.842224	0.792348	1.599984	-5.635540	-1.520822	-0.342160	-2.029098	-0.570801	0.891602	-0.604248	0.044403	-0.004790	-0.008311	0.631255	-0.355485	-0.689195	0.012525	-113.506917	-59.452849	84.387490
11735		4.812954	-0.624170	-0.872772	0.669259	1.548722	-5.179322	-1.677513	-0.331190	-2.241068	-0.590576	0.880127	-0.595459	0.048069	-0.006853	-0.008592	0.627210	-0.353000	-0.694261	0.000257	-115.693007	-60.541630	85.801740
11736		5.177699	-0.891829	-0.922680	0.481113	1.387138	-4.684545	-1.789145	-0.321375	-2.418495	-0.610352	0.866455	-0.586670	0.051678	-0.009625	-0.009060	0.622097	-0.348819	-0.700772	-0.015504	-118.678582	-61.971211	87.883110
11737		5.612465	-1.302981	-1.082775	0.307685	1.096766	-4.062046	-1.843494	-0.296901	-2.580342	-0.621094	0.852783	-0.557861	0.055965	-0.013851	-0.010619	0.617562	-0.345489	-0.705964	-0.029471	-121.445953	-63.165909	89.810683
11738		6.067371	-1.923630	-1.254557	-0.029766	0.590786	-3.352506	-1.865651	-0.266079	-2.728817	-0.638428	0.834473	-0.546875	0.060419	-0.020177	-0.012280	0.612180	-0.340264	-0.712250	-0.046433	-125.083585	-64.641975	92.530885
11739		6.648208	-2.704093	-1.624867	-0.311531	-0.090978	-2.461448	-1.839444	-0.231078	-2.890827	-0.660156	0.816406	-0.535889	0.066099	-0.028146	-0.015917	0.607466	-0.335602	-0.717344	-0.061434	-128.522474	-65.889385	95.156318
11740		7.398313	-3.535715	-2.036948	-0.681115	-0.849591	-1.434583	-1.746853	-0.191066	-3.063095	-0.670410	0.791748	-0.524902	0.073448	-0.036660	-0.019983	0.602117	-0.328653	-0.723339	-0.078879	-132.979355	-67.356463	98.797661
11741		8.112487	-4.159184	-2.294050	-1.085014	-1.412053	-0.582664	-1.612147	-0.149664	-3.239527	-0.696777	0.773438	-0.513916	0.080452	-0.043081	-0.022537	0.597550	-0.321794	-0.728360	-0.094205	-137.307710	-68.605652	102.469593
11742		8.757226	-4.518866	-2.460675	-1.478502	-1.838200	0.065949	-1.460506	-0.112096	-3.404318	-0.720459	0.750732	-0.502930	0.086798	-0.046848	-0.024220	0.592427	-0.312630	-0.734089	-0.111387	-142.869389	-69.956640	107.416737
11743		9.334568	-4.555965	-2.549565	-1.735536	-2.010941	0.546935	-1.286488	-0.079147	-3.547947	-0.732910	0.723877	-0.498291	0.092526	-0.047369	-0.025158	0.588043	-0.303405	-0.739022	-0.126477	-148.424172	-71.067525	112.526356
11744		9.873740	-4.428434	-2.590555	-1.976520	-2.112596	0.931053	-1.112375	-0.063499	-3.658863	-0.749756	0.690186	-0.493652	0.097912	-0.046224	-0.025621	0.583107	-0.292197	-0.744467	-0.142749	-155.335014	-72.106316	119.054892
11745		10.367336	-4.217861	-2.627445	-2.152746	-2.165610	1.270399	-0.959113	-0.061010	-3.746395	-0.764404	0.665283	-0.482666	0.102866	-0.044236	-0.026034	0.578694	-0.281035	-0.749295	-0.157128	-162.268994	-72.851211	125.748922
11746		10.877676	-4.069368	-2.705774	-2.377535	-2.344334	1.634509	-0.828203	-0.058355	-3.801149	-0.781250	0.636230	-0.480469	0.107984	-0.042863	-0.026852	0.573717	-0.268429	-0.754394	-0.172290	-170.340161	-73.358031	133.624505
11747		11.482278	-3.944058	-2.900315	-2.540653	-2.596883	2.128491	-0.734585	-0.056810	-3.829803	-0.797852	0.598145	-0.482422	0.114046	-0.041736	-0.028820	0.569108	-0.256087	-0.758922	-0.185939	-178.127395	-73.546512	141.307991
11748		12.199133	-3.802134	-3.066017	-2.783868	-2.858023	2.706721	-0.671221	-0.050230	-3.837605	-0.814697	0.571289	-0.477783	0.121238	-0.040455	-0.030497	0.564001	-0.242876	-0.763451	-0.200141	173.637927	-73.414144	149.450783
11749		12.929406	-3.734933	-3.231999	-3.083486	-3.200012	3.294309	-0.650323	-0.030611	-3.815810	-0.822754	0.546631	-0.471191	0.128554	-0.039912	-0.032173	0.559169	-0.230128	-0.767378	-0.213311	166.133929	-73.012006	156.898491
11750		13.611742	-3.586694	-3.447246	-3.321155	-3.563153	3.835607	-0.694411	0.000853	-3.749095	-0.837158	0.515381	-0.475342	0.135412	-0.038529	-0.034342	0.554034	-0.217300	-0.770933	-0.226915	158.927107	-72.337896	164.003874
11751		13.966250	-3.568089	-3.553597	-3.626958	-4.008003	4.013775	-0.791784	0.034445	-3.641189	-0.840576	0.486328	-0.470947	0.138974	-0.038356	-0.035412	0.549078	-0.205380	-0.773762	-0.240054	152.617296	-71.498392	170.163327
11752		13.932030	-3.596564	-3.527700	-3.938966	-4.436138	3.761662	-0.886873	0.068847	-3.485167	-0.857422	0.452881	-0.468506	0.138652	-0.038542	-0.035158	0.544088	-0.194110	-0.775991	-0.253234	146.976674	-70.514448	175.582724
11753		13.583402	-3.639193	-3.391766	-4.212244	-4.782896	3.172575	-0.961896	0.080810	-3.289221	-0.858643	0.428223	-0.463867	0.135196	-0.038782	-0.033790	0.539223	-0.183832	-0.777632	-0.265957	142.134305	-69.458199	-179.850913
11754		13.120081	-3.682633	-3.386822	-4.313567	-5.154272	2.515269	-1.016672	0.063426	-3.057367	-0.864502	0.406006	-0.459473	0.130605	-0.038998	-0.033715	0.534516	-0.174731	-0.778778	-0.277970	138.068939	-68.384647	-176.107779
11755		12.436046	-3.871961	-3.453919	-4.337707	-5.624972	1.637530	-1.020485	0.008945	-2.801022	-0.875000	0.385742	-0.459229	0.123799	-0.040632	-0.034341	0.529705	-0.166518	-0.779696	-0.289409	134.624353	-67.279842	-173.020061
11756		11.665744	-4.277885	-3.428220	-4.472930	-6.120267	0.611692	-0.956458	-0.076327	-2.533840	-0.875977	0.356934	-0.452637	0.116115	-0.044415	-0.034028	0.525199	-0.159689	-0.780479	-0.299196	131.979758	-66.258321	-170.708103
11757		10.943900	-4.774141	-3.372264	-4.675688	-6.610887	-0.412680	-0.836127	-0.193609	-2.264999	-0.875488	0.341309	-0.454590	0.108920	-0.049117	-0.033414	0.520348	-0.153321	-0.781488	-0.308232	129.801681	-65.204209	-168.844668
11758		10.355913	-5.233883	-3.098315	-5.021851	-6.865379	-1.334475	-0.677188	-0.321757	-2.005378	-0.881592	0.325684	-0.450195	0.103076	-0.053478	-0.030637	0.515933	-0.148427	-0.782700	-0.314901	128.398589	-64.305904	-167.669469
11759		10.213165	-5.487621	-2.801878	-5.444585	-6.958731	-1.800092	-0.523159	-0.428554	-1.742196	-0.883545	0.316895	-0.441406	0.101708	-0.055836	-0.027655	0.511101	-0.143625	-0.784241	-0.321113	127.247108	-63.366490	-166.720693
11760		10.425803	-5.527851	-2.481335	-5.885603	-6.859597	-1.830575	-0.416402	-0.490764	-1.451281	-0.878174	0.296875	-0.436768	0.103913	-0.056085	-0.024442	0.507210	-0.140740	-0.785770	-0.324801	126.743386	-62.688567	-166.346547
11761		10.817232	-5.516943	-2.301255	-6.286827	-6.831775	-1.655144	-0.347956	-0.487878	-1.137658	-0.880127	0.285889	-0.438965	0.107912	-0.055823	-0.022652	0.503189	-0.137941	-0.787227	-0.328706	126.232769	-61.997974	-165.995293
11762		11.012419	-5.488943	-2.062055	-6.594083	-6.683498	-1.596746	-0.294354	-0.448592	-0.793366	-0.884521	0.283447	-0.432373	0.109951	-0.055356	-0.020293	0.500806	-0.137501	-0.788309	-0.329933	126.273987	-61.680008	-166.135376
11763		10.906891	-5.510507	-1.860831	-6.767863	-6.566330	-1.820972	-0.244751	-0.379751	-0.421034	-0.884521	0.281250	-0.432373	0.108988	-0.055357	-0.018334	0.498443	-0.137079	-0.789142	-0.331692	126.194029	-61.356536	-166.204079
11764		10.554370	-5.666038	-1.703282	-6.817685	-6.498632	-2.217511	-0.166814	-0.312347	-0.061226	-0.884521	0.281250	-0.425781	0.105553	-0.056707	-0.016821	0.498104	-0.139201	-0.789530	-0.330392	126.696226	-61.463933	-166.769507
11765		10.158769	-5.762996	-1.716591	-6.703250	-6.506983	-2.595704	-0.042470	-0.272080	0.271317	-0.877930	0.287842	-0.423584	0.101689	-0.057496	-0.017015	0.497446	-0.140825	-0.789947	-0.329696	127.072692	-61.494459	-167.225780
11766		11.461854	-5.249657	-2.226041	-6.643348	-6.513466	-1.019029	0.122779	-0.267057	0.549278	-0.884766	0.292236	-0.427979	0.114792	-0.052168	-0.022139	0.498673	-0.144749	-0.790200	-0.325510	128.154050	-61.925599	-168.244093
11767		20.338985	3.221155	-1.104703	-6.755709	-0.237360	9.669932	0.353284	0.336402	0.698964	-0.882813	0.296875	-0.436768	0.203257	0.032942	-0.011331	0.501390	-0.146080	-0.789424	-0.322613	128.540270	-62.359058	-168.452085
11768		9.352253	3.836031	1.254078	-2.896343	2.898848	-0.487522	-0.432654	0.412034	1.255832	-0.878662	0.305664	-0.437012	0.093305	0.038973	0.012265	0.506164	-0.153171	-0.786391	-0.319258	129.267897	-63.365984	-169.422658
11769		10.461454	2.944892	-0.458915	-2.580656	1.057656	0.701386	-0.629734	0.342995	0.810137	-0.874268	0.310303	-0.439209	0.104486	0.029857	-0.004862	0.508316	-0.157400	-0.783886	-0.319943	129.191637	-63.849668	-169.740397
11770		8.823550	4.283748	-0.812892	-0.743098	2.027304	-0.210410	0.202684	0.098381	0.718904	-0.876709	0.316895	-0.439209	0.088077	0.043163	-0.008129	0.511457	-0.161138	-0.782914	-0.315425	130.174867	-64.489523	-170.600353
11771		10.664327	5.373563	1.389355	-2.371077	4.226603	1.189410	0.250107	0.204347	0.965996	-0.872803	0.328125	-0.441406	0.106396	0.054233	0.013852	0.513974	-0.163955	-0.781997	-0.312137	130.891647	-64.986162	-171.234528
11772		11.895731	1.935802	0.282291	-3.954294	0.950404	1.536070	0.130671	0.227541	1.073240	-0.870850	0.339111	-0.443604	0.118854	0.019994	0.002701	0.518045	-0.168880	-0.780156	-0.307351	132.007867	-65.800489	-172.297867
11773		11.428675	-0.002399	-1.183086	-3.771053	-1.358327	0.955185	0.456146	0.057809	1.062063	-0.871094	0.345947	-0.441406	0.114281	0.000610	-0.011863	0.520279	-0.171749	-0.779798	-0.302865	133.140424	-66.270954	-173.251283
11774		12.003715	0.758597	-1.842256	-2.963303	-1.088653	1.938501	0.654458	-0.076752	1.117380	-0.869385	0.356934	-0.443848	0.119999	0.008317	-0.018350	0.523375	-0.176698	-0.779203	-0.296141	135.021650	-66.967822	-174.923682
11775		11.146434	1.121827	-2.463593	-1.899241	-1.059428	1.449613	0.522082	-0.162022	1.205624	-0.867432	0.365967	-0.441650	0.111414	0.011954	-0.024515	0.524978	-0.180265	-0.779318	-0.290803	136.651791	-67.382502	-176.367783
11776		10.884622	0.525417	-3.788969	-1.088604	-2.196079	1.461074	0.250317	-0.215715	1.253985	-0.859131	0.379395	-0.441650	0.108851	0.005984	-0.037765	0.527288	-0.186949	-0.778254	-0.285198	138.737968	-68.027471	-178.502828
11777		10.086828	-0.933356	-4.979363	-0.741266	-3.953134	0.733931	0.007137	-0.162300	1.254293	-0.861572	0.390381	-0.441650	0.100965	-0.008699	-0.049712	0.528442	-0.192039	-0.777504	-0.281706	140.261324	-68.423558	179.861173
11778		9.599270	-1.075657	-4.747543	-0.722762	-3.779057	0.239048	-0.005365	-0.110262	1.203961	-0.859863	0.403809	-0.446289	0.096081	-0.010180	-0.047422	0.530699	-0.198984	-0.775817	-0.277258	142.262517	-69.033613	177.682601
11779		9.211665	0.104702	-3.485872	-0.714377	-1.979801	-0.190518	-0.046615	-0.058043	1.171356	-0.853516	0.408203	-0.439697	0.092119	0.001578	-0.034832	0.532043	-0.203729	-0.774727	-0.274268	143.701065	-69.411233	176.115418
11780		9.170202	0.204518	-3.517078	-0.524270	-1.812122	-0.171896	-0.134481	-0.031084	1.101632	-0.849609	0.423828	-0.441895	0.091694	0.002527	-0.035158	0.534214	-0.210364	-0.772755	-0.270579	145.629877	-69.963144	173.964541
11781		9.499652	-0.629071	-3.748089	-0.929158	-2.513947	0.061691	-0.154424	-0.003166	1.007535	-0.847656	0.432861	-0.439697	0.095027	-0.005841	-0.037475	0.535396	-0.214672	-0.771484	-0.268477	146.872062	-70.282473	172.549574
11782		10.083047	-2.754075	-4.100215	-2.110739	-4.231963	0.370588	-0.109529	-0.012640	0.915772	-0.849854	0.430420	-0.433105	0.100958	-0.027101	-0.040981	0.537293	-0.220407	-0.769682	-0.265191	148.709807	-70.732752	170.525758
11783		9.512416	-5.191098	-4.045274	-3.443363	-6.014044	-0.551399	0.190947	-0.097811	0.861697	-0.841309	0.441895	-0.435547	0.095366	-0.051462	-0.040455	0.538265	-0.223339	-0.769240	-0.262030	150.124563	-70.935852	169.143807
11784		9.311155	-1.831927	-2.391228	-2.381723	-2.295868	-0.602511	0.471328	-0.145403	0.753183	-0.845947	0.448242	-0.433350	0.093197	-0.017912	-0.023887	0.540042	-0.227026	-0.768734	-0.256636	152.340759	-71.230962	167.095364
11785		9.330094	-0.666978	-1.852818	-2.006959	-0.995771	-0.543996	0.416832	-0.174861	0.615784	-0.843750	0.450684	-0.433350	0.093337	-0.006344	-0.018460	0.540630	-0.228492	-0.769036	-0.253170	153.641224	-71.302092	165.974338
11786		9.266902	-1.219510	-1.966844	-2.196904	-1.406947	-0.624380	0.304189	-0.225049	0.530147	-0.841797	0.457275	-0.431152	0.092723	-0.011920	-0.019582	0.541582	-0.231845	-0.768734	-0.248970	155.538313	-71.461222	164.160907
11787		9.371577	-0.598577	-1.845949	-1.910884	-0.793111	-0.468621	0.168925	-0.212642	0.453352	-0.839600	0.457275	-0.433350	0.093749	-0.005758	-0.018365	0.541524	-0.233396	-0.768991	-0.246844	156.491114	-71.455680	163.258034
11788		9.744498	-0.766501	-1.439426	-2.378812	-0.550065	-0.239119	0.123330	-0.242646	0.408396	-0.842041	0.463867	-0.428955	0.097478	-0.007457	-0.014281	0.542030	-0.236696	-0.768635	-0.243676	158.107343	-71.550194	161.635844
11789		9.679510	0.000606	-1.582722	-1.768075	-0.009498	-0.165328	0.114287	-0.269605	0.396907	-0.844482	0.463867	-0.433350	0.096816	0.000207	-0.015697	0.541612	-0.238242	-0.769032	-0.241840	158.976164	-71.489822	160.788842
11790		9.616088	0.402224	-2.033179	-1.136241	0.086701	-0.042017	0.125301	-0.274990	0.364565	-0.837646	0.466309	-0.428955	0.096181	0.004210	-0.020197	0.541951	-0.241257	-0.768812	-0.238771	160.513987	-71.536915	159.258556
11791		9.514268	-0.270644	-2.976607	-0.849782	-0.987637	0.074525	0.107845	-0.299312	0.385132	-0.840088	0.468262	-0.422363	0.095192	-0.002507	-0.029625	0.541390	-0.242804	-0.769284	-0.236949	161.367286	-71.447094	158.423902
11792		9.263394	-0.129693	-3.669593	-0.155462	-1.266364	0.069880	0.169147	-0.274933	0.372925	-0.840332	0.472900	-0.428955	0.092686	-0.001093	-0.036570	0.541767	-0.245576	-0.769129	-0.233712	162.903616	-71.471581	156.929642
11793		9.280443	0.295685	-3.505702	-0.004984	-0.786754	0.080989	0.182685	-0.253643	0.351718	-0.840332	0.477295	-0.416016	0.092843	0.003152	-0.034936	0.541428	-0.246732	-0.769594	-0.231743	163.708502	-71.390493	156.191005
11794		9.220847	-0.013442	-3.649012	-0.045026	-1.050879	0.047989	0.157402	-0.224175	0.346331	-0.838379	0.483887	-0.416016	0.092249	0.000054	-0.036387	0.541888	-0.249270	-0.769357	-0.228718	165.134318	-71.412088	154.809017
11795		9.287980	-0.116041	-3.505129	-0.226361	-0.989086	0.063359	0.153995	-0.218042	0.331075	-0.836182	0.486084	-0.420410	0.092920	-0.000980	-0.034951	0.541620	-0.250379	-0.769708	-0.226954	165.861844	-71.338870	154.134440
11796		9.374058	-0.336351	-3.419892	-0.417994	-1.026655	0.109655	0.152710	-0.205048	0.334791	-0.836426	0.490723	-0.422607	0.093781	-0.003180	-0.034105	0.542056	-0.252836	-0.769442	-0.224074	167.225903	-71.346181	152.807785
11797		9.336240	-0.150070	-3.417985	-0.282826	-0.847577	0.090444	0.171724	-0.177330	0.313820	-0.843262	0.492676	-0.420410	0.093395	-0.001325	-0.034098	0.541943	-0.253779	-0.769715	-0.222335	167.909936	-71.285901	152.189615
11798		9.385431	-0.337781	-3.251515	-0.500893	-0.820053	0.079191	0.176746	-0.162918	0.304404	-0.832275	0.497314	-0.413818	0.093886	-0.003206	-0.032442	0.542506	-0.255868	-0.769440	-0.219500	169.187546	-71.294299	150.977708
11799		9.387195	-0.250688	-3.133750	-0.521800	-0.643866	0.052185	0.168300	-0.152504	0.304778	-0.839111	0.497070	-0.411621	0.093899	-0.002337	-0.031268	0.542471	-0.256755	-0.769645	-0.217827	169.839122	-71.240391	150.391572
11800		9.474217	-0.542320	-3.096849	-0.722597	-0.772857	0.113329	0.149917	-0.147454	0.313780	-0.836914	0.503906	-0.411621	0.094773	-0.005251	-0.030903	0.543008	-0.258933	-0.769284	-0.215168	171.083126	-71.241737	149.189672
11801		9.306557	-0.268250	-3.129730	-0.468437	-0.573470	-0.018263	0.152501	-0.137323	0.311862	-0.834961	0.506104	-0.413818	0.093091	-0.002514	-0.031235	0.543014	-0.259870	-0.769414	-0.213553	171.726642	-71.190867	148.602320
11802		9.345496	-0.205907	-3.160814	-0.383798	-0.480987	0.035799	0.119275	-0.136104	0.298965	-0.832520	0.506104	-0.411621	0.093479	-0.001901	-0.031546	0.543504	-0.262002	-0.769020	-0.211110	172.894830	-71.182783	147.460770
11803		9.316687	-0.692694	-3.401958	-0.499028	-0.976946	0.069127	0.108957	-0.127335	0.294941	-0.837158	0.508301	-0.411621	0.093199	-0.006771	-0.033964	0.543470	-0.262979	-0.769091	-0.209718	173.476575	-71.130604	146.912126
11804		9.304997	-0.560220	-3.522525	-0.292448	-0.897026	0.107733	0.112383	-0.109877	0.277986	-0.832764	0.510498	-0.411621	0.093077	-0.005453	-0.035177	0.544009	-0.264904	-0.768679	-0.207396	174.568943	-71.123164	145.853922
11805		9.233518	-1.075489	-3.564085	-0.558131	-1.304799	0.041406	0.124706	-0.092710	0.267491	-0.835205	0.514893	-0.400879	0.092366	-0.010609	-0.035605	0.544097	-0.265694	-0.768703	-0.206062	175.102728	-71.084257	145.365343
11806		9.143900	-0.923527	-3.285424	-0.608877	-0.986768	-0.121799	0.156830	-0.083569	0.244401	-0.837646	0.521484	-0.411865	0.091464	-0.009098	-0.032823	0.544715	-0.267326	-0.768318	-0.203740	176.138284	-71.077570	144.389640
11807		9.282348	-0.834131	-3.165926	-0.664750	-0.794613	-0.024557	0.150329	-0.073177	0.211982	-0.831055	0.521729	-0.411865	0.092844	-0.008219	-0.031632	0.544853	-0.267811	-0.768384	-0.202482	176.588030	-71.043618	144.005314
11808		9.332227	-1.551072	-3.000271	-1.222023	-1.196994	-0.036608	0.149041	-0.072334	0.208690	-0.831055	0.523926	-0.405273	0.093349	-0.015391	-0.029980	0.545441	-0.269270	-0.768020	-0.200332	177.535434	-71.033058	143.117508
11809		9.186457	-0.843250	-3.048388	-0.691747	-0.684536	-0.145858	0.141586	-0.068682	0.186993	-0.828857	0.523926	-0.405273	0.091883	-0.008325	-0.030458	0.545558	-0.269676	-0.768094	-0.199181	177.935059	-70.998142	142.780794
11810		9.273075	-0.595169	-3.136861	-0.465378	-0.489117	-0.028608	0.130702	-0.057861	0.159055	-0.833740	0.532715	-0.414063	0.092745	-0.005857	-0.031346	0.546097	-0.270988	-0.767733	-0.197307	178.770953	-70.987683	141.993349
11811		9.205611	-0.966390	-3.185693	-0.638582	-0.802218	-0.077470	0.153664	-0.052248	0.145772	-0.831299	0.532715	-0.409668	0.092071	-0.009572	-0.031840	0.546251	-0.271185	-0.767826	-0.196243	179.105729	-70.959456	141.732475
11812		9.276672	-0.499904	-3.137057	-0.372291	-0.361770	-0.020947	0.137661	-0.049877	0.124185	-0.831299	0.528320	-0.409668	0.092778	-0.004920	-0.031351	0.546773	-0.272295	-0.767509	-0.194485	179.864749	-70.947768	141.029258
11813		9.255556	-1.021405	-3.342514	-0.538173	-0.878342	0.027020	0.130532	-0.046308	0.124384	-0.833740	0.532715	-0.405273	0.092570	-0.010135	-0.033410	0.546897	-0.272467	-0.767590	-0.193576	-179.851131	-70.921368	140.807902
11814		9.220702	-0.302949	-3.323981	-0.065664	-0.284293	-0.010809	0.140675	-0.035787	0.110347	-0.833740	0.532715	-0.409668	0.092215	-0.002955	-0.033225	0.547451	-0.273432	-0.767278	-0.191877	-179.135456	-70.913254	140.155684
11815		9.289847	-0.543333	-3.440934	-0.141692	-0.512725	0.094558	0.134067	-0.036561	0.099468	-0.824951	0.539551	-0.409668	0.092907	-0.005364	-0.034396	0.547592	-0.273488	-0.767368	-0.191035	-178.891807	-70.891453	139.979267
11816		9.374338	-0.806558	-3.167288	-0.506089	-0.506813	0.089205	0.142800	-0.028578	0.109400	-0.833984	0.541504	-0.409668	0.093752	-0.007992	-0.031665	0.548143	-0.274416	-0.767050	-0.189394	-178.199576	-70.882904	139.348638
11817		9.319609	-0.736309	-3.161951	-0.444308	-0.447466	0.036046	0.132204	-0.029611	0.120437	-0.831787	0.543945	-0.407471	0.093205	-0.007286	-0.031611	0.548328	-0.274550	-0.767087	-0.188510	-177.923163	-70.863721	139.136389
11818		9.321605	-0.612945	-3.302455	-0.238446	-0.405187	0.084443	0.136743	-0.016446	0.122930	-0.836182	0.541504	-0.409668	0.093223	-0.006050	-0.033021	0.549049	-0.274995	-0.766877	-0.186606	-177.243785	-70.863178	138.584073
11819		9.320474	-0.551142	-3.323424	-0.174246	-0.355822	0.089996	0.136956	-0.016481	0.136008	-0.834229	0.548340	-0.407471	0.093211	-0.005425	-0.033230	0.549305	-0.275163	-0.766860	-0.185678	-176.938893	-70.849884	138.344558
11820		9.323813	-0.509945	-3.419065	-0.052202	-0.349510	0.125050	0.136748	-0.014005	0.146978	-0.834229	0.550537	-0.409668	0.093244	-0.005008	-0.034188	0.550032	-0.275681	-0.766616	-0.183754	-176.237824	-70.846119	137.765689
11821		9.401376	-0.611642	-3.353139	-0.171389	-0.357478	0.179625	0.148578	-0.003375	0.168898	-0.834229	0.548340	-0.409668	0.094019	-0.006012	-0.033534	0.550382	-0.275930	-0.766525	-0.182709	-175.871446	-70.837603	137.468130
11822		9.372691	-0.225711	-3.453207	0.179693	-0.089592	0.176435	0.137768	0.005072	0.187841	-0.829834	0.550537	-0.411865	0.093728	-0.002145	-0.034536	0.551194	-0.276568	-0.766179	-0.180735	-175.117955	-70.838558	136.830864
11823		9.399425	-0.339799	-3.506121	0.157434	-0.186017	0.222157	0.149000	0.019044	0.203278	-0.832275	0.554932	-0.409912	0.093994	-0.003276	-0.035073	0.551660	-0.276926	-0.765976	-0.179623	-174.692041	-70.839131	136.470546
11824		9.352740	-0.363995	-3.329833	0.054116	-0.081635	0.121314	0.152148	0.036166	0.220007	-0.832520	0.561523	-0.412109	0.093525	-0.003512	-0.033318	0.552609	-0.277602	-0.765520	-0.177595	-173.891423	-70.850821	135.788212
11825		9.375689	-0.635443	-3.385905	-0.057713	-0.303627	0.171104	0.138560	0.055742	0.235965	-0.830322	0.561523	-0.405518	0.093755	-0.006220	-0.033890	0.553228	-0.278080	-0.765157	-0.176482	-173.410679	-70.867632	135.363586
11826		9.292350	-0.558528	-3.420342	0.070964	-0.251511	0.101449	0.148362	0.065089	0.253438	-0.832764	0.570557	-0.412109	0.092919	-0.005442	-0.034238	0.554286	-0.278854	-0.764574	-0.174456	-172.566344	-70.887904	134.629296
11827		9.394371	-0.503197	-3.462180	0.136892	-0.190302	0.209242	0.142459	0.075503	0.253721	-0.828369	0.572754	-0.416504	0.093937	-0.004888	-0.034661	0.554997	-0.279370	-0.764131	-0.173305	-172.047795	-70.911303	134.167148
11828		9.364366	-1.026806	-3.448489	-0.152614	-0.569303	0.201816	0.160651	0.086731	0.266718	-0.828369	0.572754	-0.416504	0.093642	-0.010115	-0.034534	0.556139	-0.280127	-0.763484	-0.171263	-171.182429	-70.936390	133.414904
11829		9.303025	-0.847462	-3.427519	-0.016505	-0.412503	0.129235	0.166789	0.098537	0.280990	-0.828613	0.577148	-0.409912	0.093025	-0.008315	-0.034328	0.556992	-0.280659	-0.762954	-0.169974	-170.596247	-70.966596	132.896116
11830		9.326036	-1.128721	-3.401975	-0.173211	-0.582287	0.159936	0.181248	0.112505	0.288623	-0.826416	0.577393	-0.416504	0.093257	-0.011122	-0.034082	0.558255	-0.281409	-0.762224	-0.167856	-169.684297	-70.997125	132.104763
11831		9.374962	-0.973231	-3.335115	-0.107878	-0.390826	0.177087	0.201858	0.114098	0.298070	-0.831299	0.588379	-0.416504	0.093745	-0.009559	-0.033414	0.559227	-0.281893	-0.761650	-0.166406	-169.041264	-71.029763	131.547311
11832		9.445705	-0.890276	-3.246599	-0.095384	-0.226511	0.211973	0.214099	0.128304	0.303524	-0.826904	0.590576	-0.425293	0.094450	-0.008725	-0.032536	0.560585	-0.282583	-0.760881	-0.164168	-168.087431	-71.060012	130.729437
11833		9.488773	-1.525598	-3.204453	-0.492745	-0.670623	0.283852	0.235175	0.119702	0.324752	-0.824707	0.594971	-0.418701	0.094893	-0.015064	-0.032119	0.561642	-0.283069	-0.760274	-0.162523	-167.375315	-71.087357	130.119353
11834		9.465136	-0.839139	-3.117823	-0.086432	-0.053000	0.187479	0.236393	0.129337	0.353099	-0.820557	0.599609	-0.420898	0.094646	-0.008187	-0.031249	0.563055	-0.283874	-0.759445	-0.160086	-166.333038	-71.103870	129.219464
11835		9.562476	-0.596507	-3.245221	0.176235	0.116079	0.300845	0.222902	0.126836	0.380315	-0.820557	0.601807	-0.418945	0.095615	-0.005747	-0.032519	0.564160	-0.284597	-0.758721	-0.158340	-165.531155	-71.121209	128.507231
11836		9.585931	-0.832026	-3.432236	0.221002	-0.129430	0.399892	0.237764	0.132909	0.417089	-0.816406	0.608643	-0.427734	0.095853	-0.008079	-0.034396	0.565614	-0.285623	-0.757786	-0.155757	-164.394468	-71.121087	127.505383
11837		9.663815	-0.407583	-3.407790	0.488142	0.269841	0.427290	0.233198	0.146666	0.461778	-0.818848	0.615234	-0.427734	0.096622	-0.003813	-0.034153	0.566864	-0.286606	-0.756887	-0.153767	-163.444339	-71.128299	126.642783
11838		9.674456	-0.887321	-3.474186	0.302464	-0.098053	0.499975	0.233887	0.162531	0.513990	-0.816650	0.619629	-0.432129	0.096739	-0.008584	-0.034831	0.568469	-0.287971	-0.755721	-0.151000	-162.155725	-71.115933	125.474806
11839		9.588893	-0.312231	-3.539261	0.768775	0.333332	0.378891	0.223149	0.182458	0.561948	-0.810303	0.628662	-0.429932	0.095865	-0.002813	-0.035483	0.569905	-0.289330	-0.754554	-0.148812	-161.033397	-71.113147	124.424087
11840		9.817877	-0.471323	-3.550398	0.704002	0.312355	0.609624	0.218595	0.205468	0.611970	-0.808594	0.637695	-0.432129	0.098156	-0.004374	-0.035610	0.571686	-0.291059	-0.753105	-0.145919	-159.594247	-71.088753	123.084328
11841		10.000675	-0.771997	-3.705164	0.671871	0.082092	0.858726	0.233042	0.233348	0.661786	-0.806396	0.642090	-0.434326	0.099988	-0.007346	-0.037177	0.573387	-0.292721	-0.751635	-0.143479	-158.283021	-71.076853	121.839738
11842		10.153185	-0.719908	-3.385465	0.506932	0.397064	0.894858	0.250478	0.273852	0.722450	-0.799805	0.648926	-0.445313	0.101510	-0.006790	-0.034002	0.575510	-0.294705	-0.749839	-0.140281	-156.635133	-71.042994	120.294927
11843		10.069606	-0.749619	-3.329326	0.534071	0.430306	0.797317	0.243397	0.282119	0.785127	-0.795410	0.651367	-0.443115	0.100677	-0.007060	-0.033444	0.577476	-0.296756	-0.748029	-0.137514	-155.104484	-71.006107	118.824161
11844		10.313039	-0.564324	-3.226052	0.614661	0.766029	0.963174	0.261488	0.278295	0.851870	-0.791260	0.660156	-0.441162	0.103108	-0.005162	-0.032411	0.579677	-0.299167	-0.746012	-0.133941	-153.284085	-70.914718	117.099228
11845		10.430719	-0.615821	-3.269162	0.685737	0.797967	1.084952	0.270914	0.284109	0.930557	-0.787354	0.671387	-0.449951	0.104288	-0.005629	-0.032848	0.581762	-0.301668	-0.743963	-0.130646	-151.544747	-70.811478	115.422842
11846		10.572543	-0.425189	-3.432873	1.009410	0.978732	1.222076	0.309208	0.282580	1.015571	-0.778809	0.682617	-0.454346	0.105696	-0.003662	-0.034484	0.584107	-0.304518	-0.741684	-0.126463	-149.516353	-70.642031	113.500361
11847		10.697891	-0.129564	-3.523481	1.342470	1.277542	1.297700	0.348338	0.293949	1.115697	-0.774658	0.691650	-0.454346	0.106932	-0.000637	-0.035393	0.586427	-0.307456	-0.739328	-0.122347	-147.519338	-70.451066	111.594520
11848		10.760970	-0.011453	-3.687277	1.651889	1.397110	1.354769	0.383273	0.302917	1.226555	-0.770508	0.700684	-0.465332	0.107551	0.000616	-0.037035	0.589023	-0.310819	-0.736664	-0.117343	-145.246413	-70.181125	109.448250
11849		11.076904	0.084127	-3.508178	1.650845	1.768122	1.552098	0.432474	0.308621	1.331927	-0.757324	0.709717	-0.465332	0.110706	0.001655	-0.035250	0.591602	-0.314271	-0.733915	-0.112293	-143.007048	-69.876298	107.329690
11850		11.528882	0.100523	-3.448488	1.705530	2.082577	1.916264	0.462316	0.309724	1.484800	-0.750977	0.723145	-0.467529	0.115223	0.001941	-0.034660	0.594402	-0.318295	-0.730805	-0.106293	-140.522450	-69.463582	104.992275
11851		12.027060	0.704128	-3.520886	2.222751	2.812353	2.215974	0.493134	0.294402	1.635531	-0.744873	0.736816	-0.474365	0.120155	0.008111	-0.035367	0.597114	-0.322646	-0.727556	-0.100083	-138.073182	-68.979252	102.675305
11852		12.590416	0.885779	-3.418606	2.370712	3.363399	2.599087	0.537611	0.279475	1.806820	-0.731934	0.754639	-0.480957	0.125769	0.010087	-0.034336	0.599972	-0.327562	-0.723957	-0.092856	-135.462953	-68.363351	100.228080
11853		12.876727	0.739543	-3.707667	2.677929	3.380842	2.895414	0.620189	0.231687	1.989602	-0.716553	0.763916	-0.485352	0.128641	0.008791	-0.037200	0.602721	-0.332787	-0.720246	-0.085006	-132.901420	-67.637068	97.849168
11854		13.706162	1.032359	-3.325854	2.693949	4.330935	3.376809	0.727690	0.193632	2.181222	-0.703857	0.781982	-0.485352	0.136905	0.011939	-0.033350	0.605589	-0.338420	-0.716222	-0.075893	-130.254462	-66.757077	95.447961
11855		14.383240	0.570768	-4.003635	3.170824	4.143880	4.187124	0.853353	0.111998	2.382792	-0.684326	0.800049	-0.496338	0.143727	0.007591	-0.040087	0.608294	-0.344308	-0.712111	-0.065794	-127.697321	-65.734611	93.188929
11856		14.572601	0.962093	-4.033800	3.648906	4.790191	4.089939	1.023958	0.077838	2.563615	-0.664551	0.813965	-0.502930	0.145569	0.011694	-0.040338	0.611171	-0.350307	-0.707674	-0.054343	-125.116254	-64.567611	91.002012
11857		15.301964	0.385934	-4.039550	3.569235	4.989343	4.780681	1.197359	0.001681	2.688026	-0.649658	0.836426	-0.511963	0.152947	0.006157	-0.040365	0.613942	-0.356129	-0.703202	-0.041878	-122.670216	-63.288145	89.043285
11858		15.288056	0.192070	-3.966457	3.658054	5.222859	4.637767	1.340726	-0.010192	2.782781	-0.634521	0.847900	-0.518555	0.152834	0.004313	-0.039633	0.616835	-0.361767	-0.698443	-0.028571	-120.291565	-61.923564	87.232683
11859		14.457870	-0.914760	-3.251945	2.699711	4.710306	4.005746	1.408448	0.045677	2.838080	-0.616943	0.861572	-0.527344	0.144679	-0.006866	-0.032606	0.619873	-0.367291	-0.693275	-0.014967	-117.998713	-60.514454	85.538072
11860		13.907383	-1.194540	-3.419858	2.932041	4.479785	3.523595	1.364107	0.118268	2.790443	-0.595215	0.879639	-0.536133	0.139200	-0.009770	-0.034352	0.622947	-0.372662	-0.687791	-0.001879	-115.867085	-59.127913	83.972716
11861		12.508481	-3.285846	-3.436635	2.051768	2.555958	3.160850	1.303208	0.146158	2.805933	-0.575439	0.893555	-0.544922	0.125502	-0.030874	-0.034663	0.625832	-0.378215	-0.682030	0.011082	-113.894559	-57.703012	82.534379
11862		11.371796	-4.583427	-4.167026	2.210824	0.988011	2.907859	1.260549	0.179494	2.830369	-0.560303	0.909424	-0.558105	0.114311	-0.043955	-0.042054	0.628615	-0.383846	-0.675974	0.023756	-112.057947	-56.265244	81.197012
11863		10.366509	-5.130253	-4.754370	2.629159	0.079647	2.412547	1.216489	0.217049	2.896279	-0.531494	0.916748	-0.573486	0.104339	-0.049504	-0.047961	0.631263	-0.389798	-0.669498	0.036563	-110.317261	-54.761222	79.931468
11864		10.610080	-5.266287	-5.194573	3.233024	0.213473	2.708496	1.106228	0.298099	2.867545	-0.514160	0.937012	-0.575684	0.106761	-0.050846	-0.052389	0.633817	-0.395874	-0.662722	0.048574	-108.716569	-53.286078	78.725371
11865		10.303557	-5.539867	-4.741237	2.931016	0.318832	2.460410	1.055637	0.387578	2.714296	-0.489746	0.946289	-0.584473	0.103680	-0.053742	-0.047899	0.636465	-0.401582	-0.655785	0.059913	-107.207307	-51.873467	77.587231
11866		8.075721	-5.016547	-3.751333	2.222111	-0.021377	0.162811	1.059326	0.410147	2.553664	-0.474365	0.955566	-0.591064	0.081310	-0.048929	-0.037941	0.639083	-0.406633	-0.649039	0.070509	-105.820038	-50.555125	76.570654
11867		6.294842	-4.355047	-2.866274	1.643677	-0.136520	-1.807515	1.071438	0.427340	2.393186	-0.457031	0.969238	-0.608643	0.063401	-0.042639	-0.029028	0.641749	-0.411098	-0.642365	0.080770	-104.497802	-49.293960	75.645565
11868		4.043993	-3.683031	-2.540909	1.405087	-0.867045	-4.012075	1.038267	0.369875	2.117040	-0.445801	0.969482	-0.613037	0.040778	-0.036267	-0.025674	0.644129	-0.414657	-0.636448	0.089954	-103.356049	-48.185622	74.899857
11869		3.953727	-4.718760	-2.363722	0.906503	-1.429781	-3.439419	1.006839	0.259854	1.557246	-0.434814	0.978760	-0.628418	0.039871	-0.046758	-0.023925	0.646315	-0.416477	-0.631894	0.097641	-102.399168	-47.347316	74.387174
11870		6.782000	-6.142517	-3.788050	2.231004	-1.012209	-0.217265	1.092607	0.010513	0.767354	-0.426025	0.983398	-0.635010	0.068052	-0.060956	-0.038218	0.648177	-0.415349	-0.629811	0.103388	-101.690173	-46.934584	74.254478
11871		6.010533	-1.241936	-3.292125	3.613973	1.830258	-4.147335	1.182779	-0.054904	0.007832	-0.434570	0.974365	-0.639404	0.060115	-0.012222	-0.032977	0.650446	-0.411513	-0.629343	0.107261	-101.043557	-46.922295	74.297525
11872		3.768795	0.832318	-2.259022	3.057392	2.107847	-7.320885	0.982348	0.024249	-0.490381	-0.441406	0.974365	-0.650391	0.037706	0.008342	-0.022554	0.652715	-0.406769	-0.629860	0.108528	-100.550904	-47.218265	74.369843
11873		3.051466	1.807024	-1.027642	2.155978	2.759266	-8.641796	0.831147	0.038423	-0.826989	-0.452393	0.969727	-0.663574	0.030587	0.017986	-0.010207	0.654965	-0.401474	-0.630947	0.108378	-100.142879	-47.686659	74.462906
11874		2.807753	2.598046	-0.337057	1.751261	3.392376	-9.398374	0.652033	-0.024733	-1.037445	-0.458740	0.962891	-0.663330	0.028212	0.025845	-0.003283	0.656657	-0.396022	-0.632889	0.106868	-99.932411	-48.291335	74.655703
11875		2.584072	2.763979	0.014200	1.430550	3.500256	-9.675676	0.397003	-0.113985	-1.157852	-0.462891	0.953857	-0.663330	0.026000	0.027489	0.000211	0.657689	-0.390993	-0.635324	0.104557	-99.906705	-48.931905	74.925111
11876		2.800483	2.393473	-0.112531	1.434783	3.341537	-9.213163	0.067615	-0.202117	-1.257939	-0.474121	0.953613	-0.656982	0.028156	0.023758	-0.001089	0.657741	-0.386620	-0.638551	0.100766	-100.180864	-49.648518	75.309615
11877		3.184946	1.640970	-0.429178	1.501667	2.941412	-8.358822	-0.273507	-0.254039	-1.388163	-0.494141	0.946777	-0.663574	0.031968	0.016182	-0.004273	0.657085	-0.382957	-0.642184	0.095827	-100.679146	-50.402756	75.755788
11878		3.502766	0.893492	-0.693792	1.500447	2.499212	-7.565171	-0.598960	-0.271264	-1.563795	-0.504883	0.935303	-0.652344	0.035105	0.008640	-0.006917	0.655714	-0.379701	-0.646489	0.088982	-101.457429	-51.283641	76.287417
11879		3.834403	0.286253	-0.820832	1.409820	2.192199	-6.869129	-0.918034	-0.269104	-1.767168	-0.513672	0.930664	-0.643799	0.038378	0.002486	-0.008169	0.653856	-0.376867	-0.651096	0.080738	-102.439899	-52.240712	76.868977
11880		4.095462	-0.135886	-0.925849	1.336586	1.955602	-6.343263	-1.210283	-0.274116	-1.985388	-0.529053	0.921387	-0.632813	0.040951	-0.001821	-0.009192	0.651358	-0.374153	-0.656333	0.070490	-103.714132	-53.347247	77.567921
11881		4.428436	-0.393239	-1.050799	1.334786	1.849202	-5.854458	-1.458046	-0.271724	-2.196941	-0.546631	0.909912	-0.610840	0.044251	-0.004495	-0.010416	0.648457	-0.371571	-0.661778	0.059063	-105.186825	-54.525810	78.356613
11882		4.752325	-0.743583	-1.185602	1.275132	1.639940	-5.315327	-1.657216	-0.268115	-2.384852	-0.568848	0.898438	-0.599854	0.047445	-0.008099	-0.011727	0.645040	-0.368852	-0.667650	0.045992	-106.937461	-55.831920	79.301906
11883		5.075848	-1.176876	-1.289243	1.123184	1.359545	-4.743229	-1.800336	-0.262779	-2.559248	-0.586182	0.884521	-0.586670	0.050618	-0.012532	-0.012715	0.641353	-0.366016	-0.673543	0.032218	-108.865410	-57.179566	80.377067
11884		5.378848	-1.743864	-1.384690	0.863597	0.943295	-4.133601	-1.868343	-0.255801	-2.720218	-0.608154	0.868652	-0.569092	0.053561	-0.018296	-0.013610	0.637328	-0.362664	-0.679697	0.017306	-111.056135	-58.630423	81.668942
11885		5.847371	-2.472774	-1.521671	0.537807	0.446888	-3.322004	-1.865234	-0.255542	-2.885996	-0.621094	0.852783	-0.553711	0.058127	-0.025708	-0.014906	0.633235	-0.358732	-0.685799	0.002242	-113.408874	-60.104369	83.161343
11886		6.567550	-3.144494	-1.810728	0.330640	0.001083	-2.317070	-1.815563	-0.248779	-3.052995	-0.638184	0.827881	-0.542480	0.065206	-0.032605	-0.017733	0.628955	-0.353855	-0.692111	-0.013563	-116.056462	-61.667990	84.971625
11887		7.340463	-3.705552	-2.133622	0.157238	-0.406148	-1.329274	-1.737919	-0.229206	-3.220980	-0.666504	0.807373	-0.527100	0.072817	-0.038414	-0.020923	0.624766	-0.348138	-0.698291	-0.029288	-118.906902	-63.243586	87.063382
11888		8.087263	-4.066376	-2.394925	-0.022380	-0.710676	-0.476780	-1.622033	-0.195865	-3.385556	-0.685791	0.782471	-0.516113	0.080190	-0.042217	-0.023532	0.620539	-0.341254	-0.704560	-0.045524	-122.132274	-64.888580	89.588706
11889		8.818151	-4.232054	-2.557084	-0.217326	-0.878710	0.255926	-1.489185	-0.155272	-3.528367	-0.698486	0.760010	-0.509277	0.087434	-0.044056	-0.025179	0.616537	-0.333425	-0.710588	-0.061434	-125.644069	-66.516515	92.505438
11890		9.456578	-4.390721	-2.672336	-0.484728	-1.114092	0.881046	-1.349134	-0.116316	-3.650378	-0.722168	0.735107	-0.500488	0.093757	-0.045802	-0.026364	0.612515	-0.324492	-0.716596	-0.077592	-129.689684	-68.157165	96.026347
11891		10.006669	-4.557060	-2.764082	-0.793480	-1.419889	1.406850	-1.195876	-0.089079	-3.758926	-0.739258	0.708008	-0.489502	0.099197	-0.047604	-0.027316	0.608681	-0.314665	-0.722359	-0.093220	-134.210743	-69.724803	100.136328
11892		10.577546	-4.625998	-2.736592	-1.174684	-1.629319	1.880046	-1.052888	-0.070756	-3.850404	-0.758057	0.676514	-0.487061	0.104867	-0.048428	-0.027078	0.604727	-0.303842	-0.728098	-0.108895	-139.533703	-71.222442	105.121208
11893		11.185568	-4.705174	-2.828175	-1.483733	-1.935263	2.405596	-0.932439	-0.066058	-3.922960	-0.770508	0.645264	-0.482666	0.110912	-0.049365	-0.028018	0.600814	-0.292362	-0.733598	-0.124020	-145.594872	-72.559618	110.935467
11894		11.801764	-4.768240	-2.969653	-1.775111	-2.300651	2.929730	-0.827501	-0.076068	-3.970158	-0.793945	0.613770	-0.478027	0.117050	-0.050135	-0.029448	0.596616	-0.280190	-0.739051	-0.139088	-152.696882	-73.699420	117.841817
11895		12.492591	-4.675484	-3.235244	-1.905618	-2.626348	3.522870	-0.761247	-0.076539	-3.974223	-0.799561	0.584717	-0.473389	0.123975	-0.049347	-0.032120	0.592385	-0.267779	-0.744163	-0.153611	-160.548630	-74.564151	125.550276
11896		13.064984	-4.677308	-3.700290	-1.945131	-3.207707	4.049590	-0.754679	-0.060056	-3.943886	-0.816406	0.555664	-0.479980	0.129703	-0.049476	-0.036781	0.587885	-0.255262	-0.748964	-0.168183	-169.179956	-75.121208	134.028896
11897		13.656243	-4.819450	-3.948181	-2.256382	-3.808338	4.529022	-0.786441	-0.032637	-3.854155	-0.828369	0.515381	-0.468750	0.135604	-0.050969	-0.039263	0.583408	-0.243127	-0.753169	-0.182374	-177.968127	-75.350380	142.650251
11898		13.928055	-5.144509	-3.995599	-2.783557	-4.516196	4.618147	-0.830562	-0.009072	-3.703657	-0.845215	0.490723	-0.466553	0.138296	-0.054178	-0.039728	0.578776	-0.231514	-0.756867	-0.196396	173.390601	-75.251023	151.080819
11899		13.915215	-5.430164	-3.867614	-3.348982	-5.111255	4.354599	-0.843382	-0.020647	-3.501767	-0.850830	0.457275	-0.457520	0.138175	-0.056889	-0.038426	0.574193	-0.220693	-0.760027	-0.209658	165.521462	-74.871777	158.724469
11900		13.603745	-5.479885	-3.581384	-3.808538	-5.411182	3.756031	-0.831045	-0.036706	-3.248632	-0.858887	0.434814	-0.457520	0.135128	-0.057147	-0.035555	0.569566	-0.210713	-0.762792	-0.222133	158.620064	-74.266476	165.384797
11901		13.055499	-5.612340	-3.261471	-4.238464	-5.710746	2.914758	-0.794060	-0.077099	-2.949105	-0.860107	0.408203	-0.459473	0.129720	-0.058169	-0.032336	0.565097	-0.201796	-0.765145	-0.233445	152.892227	-73.532177	170.872687
11902		12.359533	-5.797266	-3.026126	-4.554539	-6.029849	1.952034	-0.723847	-0.138501	-2.634639	-0.868408	0.390381	-0.450684	0.122837	-0.059703	-0.029962	0.560552	-0.194218	-0.767258	-0.243673	148.293131	-72.712774	175.203358
11903		11.590192	-6.081284	-2.825131	-4.828749	-6.381967	0.922343	-0.642958	-0.206701	-2.320945	-0.872314	0.372559	-0.450439	0.115214	-0.062243	-0.027933	0.556270	-0.187362	-0.769249	-0.252418	144.659536	-71.880059	178.630885
11904		11.115412	-6.631822	-2.781654	-5.191754	-6.968964	0.174490	-0.542156	-0.275750	-2.033641	-0.878418	0.359131	-0.443848	0.110510	-0.067519	-0.027482	0.551976	-0.181748	-0.771167	-0.259984	141.895181	-71.055663	-178.818399
11905		10.778923	-7.214069	-2.763492	-5.562997	-7.556585	-0.441934	-0.421808	-0.340600	-1.762952	-0.877930	0.343506	-0.447998	0.107194	-0.073145	-0.027298	0.547968	-0.176557	-0.773126	-0.266148	139.775957	-70.267222	-176.828467
11906		10.555394	-7.748430	-2.664157	-5.984690	-8.013756	-0.951994	-0.288065	-0.392463	-1.496690	-0.877197	0.330322	-0.443604	0.105022	-0.078310	-0.026323	0.544092	-0.172509	-0.775080	-0.271028	138.317446	-69.543609	-175.485218
11907		10.470859	-7.882258	-2.477335	-6.265730	-8.082552	-1.250167	-0.138473	-0.433471	-1.217104	-0.879150	0.321289	-0.439209	0.104280	-0.079475	-0.024492	0.540635	-0.168761	-0.777103	-0.274488	137.318607	-68.892256	-174.501565
11908		10.507477	-7.704417	-2.131087	-6.516909	-7.777798	-1.366315	0.008616	-0.426918	-0.902973	-0.878906	0.310059	-0.432617	0.104771	-0.077517	-0.021090	0.537675	-0.166330	-0.778974	-0.276477	136.875991	-68.379141	-174.052907
11909		10.468251	-7.359893	-1.805638	-6.605925	-7.339075	-1.475305	0.139674	-0.396474	-0.539612	-0.876465	0.310303	-0.432617	0.104519	-0.073869	-0.017901	0.535502	-0.164408	-0.780675	-0.277044	136.783555	-68.002952	-173.866970
11910		10.116902	-7.075076	-1.492697	-6.584699	-6.904931	-1.837716	0.224148	-0.359915	-0.139616	-0.874268	0.310303	-0.428223	0.101146	-0.070805	-0.014824	0.534038	-0.164425	-0.781986	-0.276163	137.231412	-67.825125	-174.251235
11911		17.263028	-4.678564	-2.587588	-7.146215	-5.913242	5.697364	0.351396	-0.295637	0.139493	-0.872070	0.312500	-0.432617	0.172701	-0.046620	-0.025703	0.533366	-0.164449	-0.783142	-0.274165	137.859983	-67.755138	-174.712536
11912		15.168308	1.981855	0.632929	-5.025775	1.476226	4.573645	0.158756	0.523230	0.802994	-0.875000	0.325684	-0.434814	0.151618	0.020423	0.005949	0.536581	-0.167326	-0.781166	-0.271778	138.445524	-68.320975	-175.304065
11913		10.526846	3.007419	2.080636	-3.702367	3.366657	0.144440	-0.688033	0.410307	1.111807	-0.870361	0.325928	-0.441406	0.105141	0.030730	0.020486	0.539110	-0.172963	-0.778179	-0.271811	138.879540	-68.919322	-176.193331
11914		10.727663	2.888873	-1.809813	-0.836524	0.946639	1.372458	-0.551906	0.248889	0.536623	-0.868408	0.330322	-0.434814	0.107176	0.029126	-0.018312	0.540307	-0.177039	-0.776123	-0.272687	139.060963	-69.267321	-176.783897
11915		8.716926	5.849694	0.251839	0.079144	4.618923	-0.382624	0.341577	0.083879	0.591398	-0.871094	0.341309	-0.432617	0.086997	0.058750	0.002582	0.541742	-0.178307	-0.775832	-0.269827	139.862011	-69.525198	-177.430447
11916		11.734471	5.196153	1.248388	-2.017293	4.735018	2.009553	0.214431	0.255520	0.890327	-0.873291	0.345947	-0.445801	0.117128	0.052470	0.012390	0.544137	-0.181562	-0.774463	-0.266754	140.923937	-69.999912	-178.479370
11917		12.461161	0.758692	-0.268384	-3.583098	0.364227	2.143720	0.240382	0.190389	0.951095	-0.860107	0.348389	-0.443604	0.124571	0.008183	-0.002793	0.546358	-0.184345	-0.773390	-0.263396	142.062081	-70.425694	-179.542402
11918		11.675377	-0.670057	-1.532109	-3.109505	-1.435853	1.473534	0.565474	-0.035795	0.984661	-0.864990	0.361572	-0.441650	0.116787	-0.006082	-0.015318	0.548095	-0.187299	-0.773132	-0.258415	143.820646	-70.786803	178.895853
11919		11.532944	0.359993	-2.691254	-1.536500	-1.207813	1.873203	0.508298	-0.155621	1.063482	-0.869873	0.372559	-0.443848	0.115329	0.004281	-0.026812	0.549338	-0.190226	-0.773203	-0.253376	145.704512	-71.066660	177.210874
11920		10.415292	0.163391	-4.341182	0.016797	-2.247875	1.246077	0.179790	-0.242732	1.122200	-0.859375	0.388184	-0.441650	0.104194	0.002257	-0.043284	0.550025	-0.195131	-0.772801	-0.249350	147.748523	-71.339526	175.105877
11921		9.598454	-0.807933	-5.056747	0.299160	-3.368878	0.527232	-0.076744	-0.246186	1.128630	-0.854980	0.392822	-0.441650	0.096090	-0.007557	-0.050446	0.550401	-0.200019	-0.772265	-0.246288	149.573903	-71.556445	173.134220
11922		9.513793	-1.229980	-4.485137	-0.310798	-3.265281	0.256182	-0.144035	-0.158585	1.055119	-0.855225	0.395020	-0.441895	0.095237	-0.011830	-0.044767	0.550951	-0.205485	-0.771235	-0.243774	151.372618	-71.806733	171.093329
11923		9.311947	-1.498735	-3.652933	-0.992056	-2.907713	-0.176149	-0.092502	-0.070268	0.954288	-0.851074	0.406006	-0.433105	0.093202	-0.014560	-0.036490	0.551746	-0.209516	-0.770323	-0.241417	152.862959	-72.027850	169.469941
11924		9.382982	-1.323679	-2.983225	-1.369376	-2.280936	-0.241182	-0.025430	-0.054622	0.848544	-0.842529	0.415283	-0.437500	0.093893	-0.012842	-0.029805	0.552562	-0.213653	-0.769342	-0.239040	154.416477	-72.243603	167.775389
11925		9.468593	-1.285855	-3.544824	-0.916014	-2.519867	0.020125	0.000477	-0.075121	0.756129	-0.847412	0.423828	-0.430908	0.094747	-0.012500	-0.035413	0.553178	-0.216662	-0.768733	-0.236857	155.711824	-72.388167	166.416212
11926		9.354849	-1.021984	-3.997465	-0.352584	-2.523406	0.089086	0.023846	-0.095194	0.675068	-0.847168	0.424072	-0.439697	0.093601	-0.009899	-0.039931	0.553645	-0.220108	-0.768066	-0.234744	157.104681	-72.517678	164.914631
11927		9.538857	-0.880478	-3.895655	-0.369844	-2.279896	0.267301	0.018390	-0.098270	0.614441	-0.845459	0.432861	-0.430908	0.095434	-0.008508	-0.038910	0.554012	-0.222545	-0.767675	-0.232852	158.226351	-72.600267	163.750072
11928		9.202780	-1.676384	-3.460378	-1.047989	-2.615607	-0.245258	0.055721	-0.090284	0.560188	-0.845703	0.439453	-0.439941	0.092090	-0.016496	-0.034567	0.554398	-0.225401	-0.767155	-0.230890	159.474010	-72.689159	162.429570
11929		9.342419	-1.974439	-2.624485	-1.867886	-2.289484	-0.360905	0.174821	-0.074771	0.457003	-0.843262	0.437256	-0.433105	0.093479	-0.019508	-0.026227	0.554840	-0.226770	-0.767042	-0.228856	160.418755	-72.739536	161.545155
11930		9.315176	-1.347725	-2.100427	-1.850125	-1.431920	-0.457091	0.231029	-0.084530	0.352693	-0.847900	0.441650	-0.431152	0.093184	-0.013289	-0.020980	0.555201	-0.228351	-0.766925	-0.226791	161.426121	-72.779086	160.581868
11931		9.522746	-0.779557	-1.756160	-1.810208	-0.722081	-0.295536	0.184800	-0.121971	0.273607	-0.841553	0.448486	-0.431152	0.095249	-0.007649	-0.017511	0.555259	-0.229040	-0.767155	-0.225171	162.090026	-72.762579	159.997740
11932		9.589968	-0.344483	-1.622239	-1.656563	-0.249321	-0.225645	0.093160	-0.175082	0.227200	-0.841553	0.446289	-0.431152	0.095918	-0.003328	-0.016140	0.554958	-0.230686	-0.767248	-0.223911	162.854152	-72.724356	159.198180
11933		9.760636	-0.397956	-1.521307	-1.813271	-0.182909	-0.095627	0.007451	-0.226381	0.225287	-0.841553	0.446289	-0.428955	0.097628	-0.003869	-0.015103	0.554355	-0.231799	-0.767619	-0.222983	163.383038	-72.638489	158.648751
11934		9.630801	0.021216	-1.791042	-1.322290	0.017251	-0.106414	-0.057294	-0.287704	0.246479	-0.845947	0.446045	-0.424561	0.096333	0.000326	-0.017772	0.553492	-0.234004	-0.767833	-0.222085	164.139353	-72.537942	157.773839
11935		9.540741	0.875524	-2.211904	-0.475725	0.465954	-0.002424	-0.138359	-0.320774	0.242963	-0.841553	0.448486	-0.424561	0.095432	0.008856	-0.021972	0.552373	-0.235692	-0.768276	-0.221555	164.648990	-72.399116	157.156341
11936		9.489111	0.171635	-2.916776	-0.370965	-0.475525	0.097731	-0.191973	-0.363066	0.269110	-0.841797	0.455078	-0.424561	0.094941	0.001816	-0.028997	0.551109	-0.238345	-0.768531	-0.220975	165.376576	-72.255657	156.241081
11937		9.439454	0.129658	-3.318114	-0.100550	-0.718610	0.167460	-0.180175	-0.356607	0.277880	-0.837402	0.457275	-0.413574	0.094452	0.001398	-0.033014	0.549835	-0.240320	-0.768976	-0.220462	165.918809	-72.097889	155.563176
11938		9.384080	-0.017024	-3.771157	0.152427	-1.070945	0.242789	-0.143555	-0.292717	0.257472	-0.844238	0.457031	-0.413574	0.093896	-0.000076	-0.037574	0.548879	-0.242700	-0.769100	-0.219805	166.598318	-71.985528	154.727667
11939		9.270368	0.189549	-3.853242	0.362896	-0.942025	0.177505	-0.090612	-0.232306	0.243620	-0.844238	0.461426	-0.406982	0.092746	0.001991	-0.038426	0.548148	-0.244159	-0.769335	-0.219189	167.064525	-71.888407	154.182785
11940		9.141751	0.029362	-4.171072	0.535615	-1.243141	0.144119	-0.036106	-0.164092	0.206861	-0.842041	0.459473	-0.406982	0.091451	0.000381	-0.041636	0.547763	-0.245854	-0.769299	-0.218382	167.652756	-71.835876	153.514350
11941		9.353096	-0.527252	-3.929672	-0.044582	-1.479455	0.237681	0.057311	-0.136806	0.193973	-0.842285	0.468262	-0.406982	0.093563	-0.005171	-0.039234	0.547525	-0.246611	-0.769491	-0.217447	168.075077	-71.783261	153.104481
11942		9.387568	-0.283956	-3.631314	-0.113811	-1.071283	0.198949	0.106556	-0.094027	0.191739	-0.840088	0.466064	-0.411377	0.093895	-0.002730	-0.036270	0.547563	-0.247765	-0.769443	-0.216207	168.687846	-71.763594	152.498141
11943		9.230278	-0.380111	-3.956593	0.118019	-1.343189	0.146178	0.187650	-0.061016	0.172366	-0.842529	0.470459	-0.404785	0.092318	-0.003684	-0.039541	0.547753	-0.247999	-0.769592	-0.214923	169.118749	-71.748914	152.157743
11944		9.214613	0.100732	-3.198822	-0.124115	-0.481224	-0.070784	0.243452	-0.074419	0.162637	-0.844727	0.468262	-0.404785	0.092157	0.001121	-0.031953	0.548000	-0.248630	-0.769677	-0.213251	169.750790	-71.733251	151.615379
11945		9.333076	0.286504	-3.101280	-0.107383	-0.235691	0.022922	0.177313	-0.105586	0.170907	-0.840332	0.470459	-0.402588	0.093345	0.002972	-0.030961	0.548002	-0.248934	-0.769936	-0.211954	170.185320	-71.691315	151.264841
11946		9.414082	-0.102397	-3.060583	-0.388804	-0.472890	0.067989	0.143164	-0.110869	0.177574	-0.849365	0.477051	-0.407227	0.094159	-0.000918	-0.030554	0.547996	-0.249929	-0.769994	-0.210585	170.790134	-71.653278	150.690409
11947		9.478382	0.027277	-2.869434	-0.463322	-0.222952	0.077192	0.137156	-0.113807	0.177473	-0.847168	0.477051	-0.402832	0.094800	0.000377	-0.028640	0.547922	-0.250376	-0.770221	-0.209413	171.211414	-71.605313	150.329425
11948		9.400130	0.054644	-2.900294	-0.392594	-0.199914	0.014977	0.129966	-0.121208	0.186084	-0.840332	0.474854	-0.405029	0.094018	0.000653	-0.028946	0.547862	-0.251456	-0.770275	-0.208069	171.818955	-71.559023	149.742181
11949		9.365334	-0.087307	-3.332964	-0.146580	-0.549824	0.112125	0.139705	-0.130713	0.188950	-0.847168	0.477051	-0.402832	0.093676	-0.000761	-0.033269	0.547737	-0.251959	-0.770533	-0.206832	172.260859	-71.500328	149.360786
11950		9.277344	-0.475977	-3.628838	-0.132865	-1.011881	0.108124	0.174431	-0.127746	0.195187	-0.840576	0.481445	-0.398438	0.092801	-0.004638	-0.036233	0.547728	-0.252904	-0.770650	-0.205259	172.900886	-71.448087	148.772434
11951		9.110584	-0.008569	-3.684299	0.247148	-0.676686	-0.011778	0.213142	-0.117875	0.193804	-0.836182	0.483887	-0.398438	0.091128	0.000042	-0.036789	0.547748	-0.253209	-0.770939	-0.203741	173.385060	-71.394720	148.390598
11952		9.357795	0.252440	-3.543481	0.247981	-0.311923	0.188786	0.204572	-0.098616	0.181095	-0.840820	0.483643	-0.400635	0.093593	0.002645	-0.035386	0.547852	-0.254042	-0.771007	-0.202161	174.007129	-71.353640	147.831060
11953		9.334436	-0.214358	-3.424266	-0.112441	-0.588022	0.114284	0.188300	-0.093151	0.203403	-0.843018	0.485840	-0.400635	0.093362	-0.002016	-0.034201	0.547943	-0.254427	-0.771186	-0.200742	174.484405	-71.312591	147.441283
11954		9.251045	-0.044773	-3.250302	-0.101576	-0.332943	-0.013346	0.160958	-0.088346	0.210426	-0.843262	0.488037	-0.398438	0.092525	-0.000324	-0.032462	0.548066	-0.255435	-0.771154	-0.199243	175.120856	-71.275709	146.845509
11955		9.293152	-0.107862	-3.163957	-0.207668	-0.300011	-0.001890	0.108607	-0.090921	0.211047	-0.841064	0.492676	-0.396240	0.092947	-0.000963	-0.031598	0.548071	-0.256064	-0.771234	-0.198112	175.561272	-71.233914	146.446260
11956		9.292282	-0.203808	-3.272760	-0.172874	-0.408458	0.031205	0.088851	-0.085755	0.212501	-0.848145	0.499023	-0.400635	0.092939	-0.001925	-0.032689	0.548104	-0.257289	-0.771112	-0.196902	176.153244	-71.194933	145.850750
11957		9.369347	-0.352905	-3.262902	-0.283570	-0.483637	0.098991	0.108428	-0.063244	0.206050	-0.843750	0.505859	-0.396240	0.093707	-0.003415	-0.032601	0.548209	-0.257872	-0.771119	-0.195820	176.578651	-71.166493	145.467076
11958		9.280613	-0.879254	-3.454592	-0.425101	-0.997089	0.069727	0.126375	-0.063579	0.223307	-0.845947	0.501465	-0.394043	0.092827	-0.008667	-0.034522	0.548371	-0.259050	-0.770945	-0.194492	177.203360	-71.136756	144.853743
11959		9.201996	-0.203425	-3.284183	-0.105912	-0.355040	-0.047102	0.138891	-0.050007	0.212328	-0.846191	0.510254	-0.394287	0.092030	-0.001914	-0.032820	0.548570	-0.259560	-0.770933	-0.193291	177.653267	-71.113762	144.462494
11960		9.284193	-0.242782	-3.341241	-0.093164	-0.374190	0.049885	0.130780	-0.048249	0.209135	-0.841797	0.512451	-0.398682	0.092852	-0.002309	-0.033392	0.548778	-0.260658	-0.770736	-0.192007	178.251865	-71.088769	143.878577
11961		9.258503	-0.406163	-3.397613	-0.132567	-0.518685	0.043374	0.151807	-0.042990	0.213222	-0.841553	0.503662	-0.398438	0.092597	-0.003937	-0.033959	0.549021	-0.261130	-0.770712	-0.190762	178.708353	-71.067482	143.488083
11962		9.377861	-0.203414	-3.276279	-0.112570	-0.234706	0.119676	0.155135	-0.036980	0.219814	-0.839600	0.512695	-0.398682	0.093787	-0.001906	-0.032747	0.549321	-0.262144	-0.770502	-0.189350	179.332291	-71.046097	142.897432
11963		9.243321	-0.491471	-3.331159	-0.199777	-0.497165	0.010245	0.153043	-0.047880	0.230562	-0.839600	0.510498	-0.398682	0.092447	-0.004783	-0.033293	0.549562	-0.262683	-0.770466	-0.188044	179.816531	-71.019660	142.478235
11964		9.230494	-0.099811	-3.346428	0.072181	-0.168156	0.004493	0.151862	-0.037045	0.220817	-0.840088	0.525879	-0.405273	0.092312	-0.000871	-0.033448	0.549858	-0.263696	-0.770251	-0.186639	-179.564813	-70.994811	141.892288
11965		9.324572	-0.429465	-3.337654	-0.147012	-0.382188	0.092073	0.151339	-0.040396	0.217399	-0.840088	0.525879	-0.398682	0.093257	-0.004168	-0.033361	0.550111	-0.264181	-0.770207	-0.185384	-179.105674	-70.970152	141.498482
11966		9.295943	-0.782497	-3.298904	-0.366940	-0.615011	0.056289	0.155968	-0.035597	0.220622	-0.844971	0.532471	-0.396484	0.092974	-0.007697	-0.032979	0.550399	-0.265227	-0.769973	-0.184001	-178.489097	-70.942180	140.909633
11967		9.207937	-0.732694	-3.392848	-0.229734	-0.625527	0.005166	0.148543	-0.025557	0.219761	-0.840332	0.532471	-0.396484	0.092092	-0.007201	-0.033922	0.550706	-0.265714	-0.769879	-0.182769	-178.029076	-70.923560	140.513077
11968		9.248951	-0.549638	-3.585855	0.035530	-0.554472	0.106728	0.142571	-0.006029	0.215724	-0.837891	0.528076	-0.398682	0.092496	-0.005371	-0.035860	0.551073	-0.266782	-0.769545	-0.181510	-177.428790	-70.908720	139.928585
11969		9.235643	-0.682281	-3.635262	0.011394	-0.670782	0.113420	0.156032	0.015130	0.209132	-0.838623	0.541504	-0.394287	0.092361	-0.006698	-0.036365	0.551536	-0.267171	-0.769356	-0.180332	-176.980027	-70.911285	139.548423
11970		9.231519	-0.837700	-3.682862	-0.024402	-0.796564	0.129697	0.170863	0.040817	0.202559	-0.843018	0.541260	-0.396484	0.092316	-0.008252	-0.036855	0.552108	-0.268049	-0.768938	-0.179056	-176.383624	-70.920323	138.987065
11971		9.171704	-0.703840	-3.646514	0.065229	-0.665825	0.059748	0.191207	0.066828	0.199153	-0.843018	0.543701	-0.398682	0.091712	-0.006912	-0.036502	0.552805	-0.268256	-0.768647	-0.177839	-175.924599	-70.950529	138.617421
11972		9.208933	-0.479844	-3.635446	0.211029	-0.452757	0.086888	0.196986	0.087747	0.187155	-0.838623	0.543701	-0.403076	0.092078	-0.004676	-0.036400	0.553704	-0.268466	-0.768285	-0.176283	-175.345987	-70.989197	138.157683
11973		9.315677	-0.570235	-3.605751	0.131816	-0.470693	0.180783	0.222734	0.114543	0.184699	-0.836426	0.545898	-0.400879	0.093141	-0.005576	-0.036117	0.554612	-0.268486	-0.767906	-0.175047	-174.882736	-71.045143	137.802881
11974		9.371417	-0.657275	-3.497950	0.015250	-0.447561	0.201827	0.241686	0.131729	0.193205	-0.834473	0.552734	-0.398926	0.093697	-0.006440	-0.035049	0.555737	-0.268556	-0.767450	-0.173365	-174.258718	-71.105479	137.321923
11975		9.447167	-0.451952	-3.385953	0.065536	-0.190438	0.231080	0.247097	0.147102	0.222747	-0.834717	0.557129	-0.403320	0.094452	-0.004372	-0.033934	0.556832	-0.268625	-0.766945	-0.171972	-173.706562	-71.175391	136.888210
11976		9.467336	0.098109	-3.440138	0.469640	0.243241	0.246875	0.233990	0.155522	0.250331	-0.837158	0.563721	-0.409912	0.094645	0.001140	-0.034474	0.558079	-0.268912	-0.766334	-0.170197	-172.981432	-71.242006	136.295505
11977		9.526700	-0.227437	-3.477847	0.322196	-0.005939	0.326405	0.235045	0.154148	0.298405	-0.830322	0.561768	-0.409912	0.095243	-0.002091	-0.034854	0.559245	-0.269298	-0.765690	-0.168647	-172.299726	-71.307054	135.718083
11978		9.596740	-0.142238	-3.244178	0.219636	0.236486	0.313418	0.241321	0.161027	0.355162	-0.835205	0.570557	-0.409912	0.095944	-0.001213	-0.032521	0.560600	-0.269958	-0.764922	-0.166567	-171.387470	-71.363150	134.931688
11979		9.676243	-0.030145	-3.181640	0.261118	0.404919	0.361843	0.222163	0.162506	0.407861	-0.830566	0.570557	-0.412109	0.096737	-0.000069	-0.031895	0.561867	-0.270789	-0.764088	-0.164769	-170.517649	-71.417562	134.148405
11980		9.645613	-0.196097	-3.140153	0.183956	0.324124	0.326234	0.215410	0.162644	0.470160	-0.831055	0.583740	-0.414307	0.096435	-0.001700	-0.031482	0.563276	-0.271955	-0.763127	-0.162475	-169.420660	-71.454927	133.150821
11981		9.605389	-0.135756	-3.269215	0.375065	0.325415	0.322540	0.202387	0.172693	0.521543	-0.831299	0.586182	-0.416504	0.096029	-0.001074	-0.032776	0.564638	-0.273264	-0.762082	-0.160444	-168.358892	-71.493467	132.153562
11982		9.624420	-0.704875	-3.493393	0.258745	-0.206800	0.444994	0.185740	0.190523	0.564143	-0.824951	0.597412	-0.418701	0.096230	-0.006745	-0.035032	0.566173	-0.274843	-0.760875	-0.158044	-167.107388	-71.522616	130.974439
11983		9.414700	-0.917149	-3.661533	0.360759	-0.480534	0.312682	0.213554	0.217726	0.610435	-0.822754	0.599609	-0.423096	0.094134	-0.008845	-0.036727	0.567781	-0.276418	-0.759574	-0.155776	-165.864858	-71.561002	129.793778
11984		9.460010	-0.403468	-3.521580	0.612441	0.062934	0.270795	0.221877	0.248671	0.629550	-0.816406	0.610840	-0.423340	0.094568	-0.003698	-0.035338	0.569617	-0.278092	-0.758123	-0.153134	-164.453115	-71.595484	128.467392
11985		9.536610	-0.861002	-3.664344	0.498625	-0.321151	0.422713	0.241995	0.261381	0.655085	-0.814453	0.615234	-0.425537	0.095346	-0.008253	-0.036778	0.571449	-0.279714	-0.756637	-0.150688	-163.090210	-71.632969	127.177576
11986		9.531171	-0.577851	-3.616251	0.700838	-0.022843	0.373686	0.244780	0.287113	0.678508	-0.814453	0.617432	-0.429932	0.095278	-0.005411	-0.036306	0.573475	-0.281471	-0.755005	-0.147876	-161.559202	-71.658754	125.738975
11987		9.639798	-0.977862	-3.460882	0.391235	-0.186088	0.466970	0.259710	0.298587	0.711661	-0.808105	0.628906	-0.438721	0.096380	-0.009391	-0.034765	0.575496	-0.283220	-0.753322	-0.145247	-160.064059	-71.684634	124.321000
11988		9.748817	-0.642543	-3.387906	0.591617	0.200029	0.509111	0.269655	0.328982	0.746832	-0.803955	0.637695	-0.432129	0.097455	-0.006016	-0.034048	0.577738	-0.285123	-0.751466	-0.142206	-158.379911	-71.694065	122.735539
11989		10.004259	-0.202540	-3.731947	1.159719	0.478319	0.792932	0.238919	0.354949	0.788737	-0.802246	0.648926	-0.436523	0.099983	-0.001586	-0.037499	0.579973	-0.287172	-0.749467	-0.139507	-156.731214	-71.707536	121.143550
11990		10.392577	-0.826480	-3.903363	0.953969	0.050015	1.278366	0.261021	0.378262	0.852069	-0.795654	0.653564	-0.445313	0.103885	-0.007771	-0.039240	0.582428	-0.289446	-0.747282	-0.136269	-154.855573	-71.688062	119.349955
11991		10.573602	-0.443877	-3.554433	0.973994	0.649372	1.289591	0.294120	0.424901	0.924762	-0.791260	0.660156	-0.447510	0.105679	-0.003898	-0.035775	0.585069	-0.291782	-0.744884	-0.133062	-152.912781	-71.671145	117.481319
11992		10.726849	-0.140622	-3.519573	1.212309	1.020057	1.365903	0.322538	0.425133	1.002306	-0.787354	0.671387	-0.452148	0.107198	-0.000812	-0.035425	0.587846	-0.294388	-0.742343	-0.129228	-150.754338	-71.595757	115.424867
11993		11.135153	0.163661	-3.410943	1.363931	1.508540	1.655322	0.396451	0.425731	1.090672	-0.783203	0.682617	-0.458740	0.111267	0.002311	-0.034342	0.590709	-0.297021	-0.739716	-0.125146	-148.529027	-71.487752	113.318737
11994		11.437314	0.608302	-3.578101	1.848784	1.950282	1.881806	0.420671	0.421345	1.226761	-0.774414	0.691650	-0.469727	0.114257	0.006860	-0.036008	0.593701	-0.300145	-0.736860	-0.120289	-146.054157	-71.290583	110.982863
11995		11.652610	0.807176	-3.643353	2.129511	2.239248	2.026103	0.498220	0.404114	1.378351	-0.763672	0.703125	-0.467529	0.116392	0.008965	-0.036647	0.596755	-0.303523	-0.733857	-0.114936	-143.474697	-71.020989	108.559386
11996		12.109377	1.397869	-3.287296	2.291347	3.162314	2.193272	0.561243	0.396178	1.557719	-0.752930	0.712158	-0.478516	0.120914	0.015014	-0.033071	0.599977	-0.307420	-0.730573	-0.108552	-140.653690	-70.630010	105.931916
11997		12.712580	1.328115	-3.390956	2.446900	3.391967	2.732198	0.606166	0.369026	1.769757	-0.744629	0.732422	-0.480957	0.126938	0.014508	-0.034101	0.603195	-0.311882	-0.727028	-0.101562	-137.754511	-70.123987	103.223210
11998		13.504869	1.736934	-3.866029	3.197291	3.911087	3.409184	0.700720	0.329408	1.970458	-0.731689	0.743652	-0.485352	0.134804	0.018834	-0.038818	0.606483	-0.316832	-0.723245	-0.093342	-134.727831	-69.458652	100.441562
11999		13.762796	1.146223	-3.689978	2.906686	3.845747	3.644514	0.826947	0.277147	2.205375	-0.716553	0.761719	-0.494141	0.137438	0.013131	-0.037038	0.609786	-0.322178	-0.719232	-0.084067	-131.682422	-68.642247	97.688524
12000		14.751832	1.596215	-3.826248	3.452075	4.745248	4.342080	0.995055	0.197856	2.399570	-0.701416	0.777588	-0.498535	0.147273	0.017921	-0.038322	0.613075	-0.327736	-0.715092	-0.073288	-128.648681	-67.645572	95.046510
12001		15.351676	1.517097	-4.052835	3.818296	5.100512	4.808861	1.119596	0.128426	2.607291	-0.688721	0.797852	-0.505127	0.153274	0.017397	-0.040534	0.616266	-0.333576	-0.710750	-0.061466	-125.726236	-66.495463	92.570528
12002		15.455027	1.261747	-4.464675	4.278485	5.086930	4.890405	1.264670	0.080741	2.790862	-0.664551	0.811768	-0.516113	0.154334	0.015054	-0.044619	0.619452	-0.339594	-0.706129	-0.048355	-122.886653	-65.184954	90.261000
12003		15.718496	0.473479	-4.279220	3.969940	5.058713	5.161744	1.387133	0.083016	2.920178	-0.654053	0.831787	-0.518555	0.157073	0.007326	-0.042813	0.622727	-0.345572	-0.701141	-0.034517	-120.168008	-63.778912	88.129902
12004		15.192107	-0.183346	-4.083775	3.736123	4.802615	4.694742	1.447111	0.160172	2.969145	-0.629883	0.847900	-0.536133	0.151890	0.000718	-0.040960	0.626208	-0.351448	-0.695653	-0.020380	-117.557481	-62.321925	86.135846
12005		14.254125	-0.795327	-3.825780	3.456993	4.386239	3.870889	1.417319	0.247287	2.957326	-0.612549	0.864014	-0.544922	0.142588	-0.005573	-0.038479	0.629776	-0.357253	-0.689717	-0.006591	-115.116142	-60.861315	84.284254
12006		12.602362	-2.251028	-3.537748	2.677775	2.958613	2.854710	1.315601	0.356729	2.971417	-0.593018	0.882080	-0.553711	0.126274	-0.020401	-0.035741	0.633353	-0.363334	-0.683233	0.006711	-112.832897	-59.381634	82.520961
12007		11.771771	-4.237960	-4.363386	2.654259	1.014640	3.128864	1.257956	0.355290	3.003876	-0.568848	0.898193	-0.562500	0.118256	-0.040330	-0.044102	0.636666	-0.369603	-0.676501	0.019906	-110.751202	-57.854059	80.927556
12008		11.800910	-5.046978	-5.529583	3.590418	0.248702	3.690619	1.255312	0.361561	3.019714	-0.553467	0.909668	-0.580078	0.118649	-0.048332	-0.055818	0.639796	-0.375839	-0.669559	0.033116	-108.830510	-56.291294	79.494425
12009		11.287844	-5.133717	-5.389969	3.676041	0.289378	3.195358	1.187279	0.443490	3.003309	-0.524902	0.925781	-0.584473	0.113509	-0.049314	-0.054448	0.642928	-0.382146	-0.662194	0.045893	-107.024693	-54.727169	78.129549
12010		9.951613	-5.078273	-4.958038	3.436721	0.046388	1.916783	1.103690	0.516588	2.885399	-0.504883	0.930664	-0.602051	0.100103	-0.049066	-0.050112	0.645964	-0.388257	-0.654707	0.057839	-105.376462	-53.218295	76.869055
12011		7.798089	-4.410687	-4.240153	3.028051	-0.212111	-0.377534	1.088656	0.558962	2.723474	-0.487549	0.948730	-0.610840	0.078450	-0.042808	-0.042856	0.649045	-0.393801	-0.647210	0.069139	-103.833958	-51.783878	75.711703
12012		6.112593	-3.365666	-3.465562	2.694669	-0.015897	-2.502674	1.110743	0.513587	2.509462	-0.472168	0.960205	-0.628418	0.061451	-0.032693	-0.034997	0.651907	-0.398493	-0.640190	0.079859	-102.449772	-50.447607	74.744049
12013		4.042665	-2.425317	-2.509830	1.993071	-0.147392	-4.859996	1.064153	0.459862	2.117484	-0.452148	0.965088	-0.632813	0.040621	-0.023689	-0.025319	0.654603	-0.401983	-0.633983	0.089277	-101.237057	-49.309117	73.956105
12014		4.654201	-4.221107	-2.402964	1.391535	-0.830034	-3.283743	0.910375	0.271233	1.442606	-0.445557	0.969727	-0.641602	0.046812	-0.041764	-0.024284	0.656557	-0.403721	-0.629811	0.096330	-100.377809	-48.524055	73.498974
12015		6.119900	-3.721903	-3.817126	3.213754	-0.091453	-2.360233	0.841360	0.052689	0.606917	-0.445801	0.971924	-0.648193	0.061301	-0.036872	-0.038343	0.658116	-0.402916	-0.627982	0.100897	-99.792627	-48.181814	73.361535
12016		4.256363	1.395028	-2.567933	3.663331	2.602582	-7.270335	0.686561	0.049124	-0.078821	-0.447510	0.960938	-0.654541	0.042563	0.014022	-0.025642	0.659612	-0.400474	-0.627685	0.102684	-99.394364	-48.228937	73.344106
12017		2.971132	2.692984	-1.885049	3.267879	2.919333	-9.155700	0.406152	0.040304	-0.470380	-0.449707	0.963135	-0.656738	0.029771	0.026898	-0.018802	0.660786	-0.397703	-0.628265	0.102359	-99.183844	-48.493475	73.374342
12018		2.767596	3.135016	-1.027791	2.599935	3.429811	-9.668013	0.230913	-0.012891	-0.704049	-0.463379	0.965088	-0.663574	0.027787	0.031264	-0.010240	0.661477	-0.394756	-0.629655	0.100745	-99.153847	-48.891508	73.497050
12019		2.519070	3.189976	-0.665666	2.234920	3.458669	-9.898789	0.048178	-0.151312	-0.836770	-0.469971	0.960449	-0.654785	0.025329	0.031796	-0.006630	0.661507	-0.391909	-0.631761	0.098460	-99.312877	-49.345673	73.744425
12020		2.579304	2.596082	-0.820107	2.163693	3.037807	-9.418895	-0.219924	-0.256772	-0.956055	-0.480713	0.951416	-0.652588	0.025927	0.025828	-0.008196	0.660644	-0.389513	-0.634663	0.095038	-99.738681	-49.865734	74.122831
12021		2.856127	1.878678	-1.161128	2.251751	2.582374	-8.674311	-0.524654	-0.310790	-1.127894	-0.485352	0.953369	-0.652588	0.028685	0.018595	-0.011616	0.659154	-0.387537	-0.638106	0.090283	-100.383657	-50.465811	74.571784
12022		3.130716	1.180066	-1.329645	2.175788	2.189098	-7.959199	-0.815633	-0.328665	-1.344172	-0.505127	0.941895	-0.637207	0.031407	0.011536	-0.013292	0.657027	-0.385796	-0.642227	0.083793	-101.280557	-51.193487	75.109288
12023		3.400134	0.568922	-1.374726	2.001091	1.883053	-7.317937	-1.092505	-0.334250	-1.604501	-0.516113	0.935059	-0.624023	0.034068	0.005341	-0.013720	0.654482	-0.384100	-0.646831	0.075688	-102.379834	-52.048950	75.713512
12024		3.686371	0.119120	-1.393778	1.844811	1.688665	-6.764643	-1.322146	-0.348882	-1.873546	-0.531738	0.930176	-0.615234	0.036896	0.000754	-0.013879	0.651392	-0.382224	-0.652119	0.065836	-103.736040	-53.057747	76.450074
12025		3.945848	-0.269178	-1.411672	1.684838	1.501847	-6.271528	-1.494279	-0.342310	-2.145196	-0.544678	0.914307	-0.597656	0.039450	-0.003220	-0.014026	0.648066	-0.379977	-0.657754	0.054658	-105.266195	-54.193609	77.287532
12026		4.307927	-0.577854	-1.480345	1.589777	1.385215	-5.733968	-1.619102	-0.347121	-2.398531	-0.566650	0.900635	-0.591064	0.043030	-0.006414	-0.014679	0.644342	-0.377208	-0.663902	0.042092	-107.038659	-55.467533	78.303073
12027		4.764113	-0.844666	-1.589269	1.531535	1.307218	-5.135128	-1.726601	-0.336658	-2.618901	-0.590576	0.882324	-0.577881	0.047550	-0.009206	-0.015735	0.640437	-0.373987	-0.670192	0.028585	-108.991177	-56.829989	79.463188
12028		5.273435	-1.225298	-1.708809	1.399044	1.138398	-4.429903	-1.798589	-0.325160	-2.807058	-0.601563	0.870850	-0.558105	0.052582	-0.013144	-0.016887	0.636197	-0.370242	-0.676740	0.014039	-111.201738	-58.286115	80.843513
12029		5.715548	-1.799361	-1.662199	0.984319	0.835550	-3.730146	-1.819821	-0.308332	-2.978796	-0.623291	0.852539	-0.540527	0.056903	-0.018992	-0.016364	0.631895	-0.365902	-0.683245	-0.000994	-113.597980	-59.792098	82.422107
12030		6.297646	-2.429141	-1.724924	0.598389	0.473592	-2.888170	-1.794149	-0.302924	-3.153751	-0.647217	0.832031	-0.531494	0.062607	-0.025433	-0.016929	0.627354	-0.360733	-0.689943	-0.016673	-116.297232	-61.366814	84.323217
12031		7.057295	-3.041529	-2.054443	0.406623	0.034639	-1.868936	-1.739620	-0.288030	-3.330834	-0.664307	0.807373	-0.513916	0.070081	-0.031762	-0.020171	0.622833	-0.354688	-0.696573	-0.032569	-119.251464	-62.974171	86.536704
12032		7.822528	-3.638523	-2.453177	0.217696	-0.489666	-0.859940	-1.637190	-0.258993	-3.512379	-0.685791	0.780273	-0.505127	0.077599	-0.037950	-0.024125	0.618230	-0.347519	-0.703301	-0.048883	-122.597352	-64.632580	89.203451
12033		8.561745	-4.117337	-2.608441	-0.162448	-0.880254	-0.002190	-1.498206	-0.220732	-3.687526	-0.700684	0.759766	-0.491943	0.084865	-0.042936	-0.025673	0.613828	-0.339198	-0.709873	-0.065126	-126.297583	-66.299648	92.327061
12034		9.183935	-4.358338	-2.549741	-0.631262	-1.089850	0.591132	-1.342479	-0.198443	-3.850175	-0.724609	0.734863	-0.480713	0.091001	-0.045510	-0.025106	0.609352	-0.329635	-0.716513	-0.081487	-130.584197	-67.962585	96.129186
12035		9.758553	-4.479729	-2.380273	-1.145963	-1.214425	1.057341	-1.179501	-0.187640	-3.987021	-0.745117	0.690186	-0.482666	0.096687	-0.046870	-0.023439	0.604982	-0.318980	-0.723009	-0.097503	-135.465875	-69.556580	100.641055
12036		10.185128	-4.519779	-2.293883	-1.564701	-1.413366	1.365942	-1.052188	-0.197682	-4.112750	-0.760254	0.669922	-0.476074	0.100914	-0.047399	-0.022593	0.600334	-0.307308	-0.729571	-0.113523	-141.258858	-71.039987	106.140293
12037		11.043145	-4.536561	-2.319806	-1.939723	-1.559079	2.090951	-0.959724	-0.198569	-4.214435	-0.778809	0.629639	-0.467041	0.109464	-0.047789	-0.022864	0.595606	-0.294887	-0.735917	-0.129313	-147.949628	-72.344735	112.607678
12038		12.026505	-4.660575	-2.488556	-2.327688	-1.897524	2.974202	-0.907296	-0.198503	-4.269078	-0.804688	0.600098	-0.464844	0.119257	-0.049271	-0.024547	0.590527	-0.281928	-0.742112	-0.145135	-155.705195	-73.397363	120.167682
12039		13.084121	-4.900062	-2.903535	-2.645228	-2.515019	3.981527	-0.860956	-0.184558	-4.283760	-0.812256	0.564453	-0.458008	0.129777	-0.051912	-0.028696	0.585383	-0.268673	-0.747885	-0.160654	-164.236231	-74.138501	128.537977
12040		14.122848	-5.177186	-3.278209	-3.068324	-3.219184	4.924682	-0.855246	-0.158049	-4.239637	-0.826416	0.526611	-0.457764	0.140113	-0.054889	-0.032441	0.580000	-0.255380	-0.753245	-0.176078	-173.336617	-74.514399	137.471910
12041		14.989976	-5.548782	-3.887526	-3.366783	-4.222430	5.724264	-0.932916	-0.113143	-4.121936	-0.838623	0.490723	-0.448975	0.148733	-0.058742	-0.038522	0.574630	-0.242636	-0.757839	-0.191334	177.603456	-74.536941	146.316902
12042		15.368456	-6.060822	-4.255093	-3.855841	-5.310256	5.932863	-1.039573	-0.058374	-3.934061	-0.846436	0.461670	-0.444336	0.152462	-0.063835	-0.042180	0.569178	-0.230723	-0.761685	-0.206495	168.986659	-74.228662	154.640257
12043		15.210292	-6.527545	-4.158753	-4.527450	-6.141339	5.451909	-1.079411	0.009383	-3.659731	-0.861084	0.434814	-0.442139	0.150870	-0.068267	-0.041232	0.564092	-0.219838	-0.764620	-0.220968	161.323604	-73.696303	161.969450
12044		14.592646	-6.652640	-3.630589	-5.163967	-6.414412	4.419175	-1.045724	0.015189	-3.305281	-0.862549	0.410400	-0.444092	0.144796	-0.069114	-0.035960	0.559149	-0.210264	-0.766962	-0.234331	154.859624	-72.986249	168.071628
12045		13.493585	-6.699621	-3.159617	-5.500905	-6.587682	2.964995	-0.960276	-0.018805	-2.895234	-0.870605	0.387939	-0.441895	0.133949	-0.069091	-0.031255	0.554617	-0.201876	-0.768839	-0.246035	149.654459	-72.205568	172.949730
12046		12.339983	-6.932030	-2.917457	-5.687234	-6.932135	1.519952	-0.826997	-0.089070	-2.486338	-0.869629	0.361328	-0.435059	0.122537	-0.070967	-0.028829	0.550245	-0.194878	-0.770532	-0.255997	145.644659	-71.394551	176.658475
12047		11.380805	-7.517778	-2.937376	-5.880760	-7.620618	0.286950	-0.689127	-0.179793	-2.111104	-0.873291	0.343506	-0.434814	0.113032	-0.076474	-0.029010	0.546152	-0.188891	-0.772149	-0.264244	142.591027	-70.604246	179.470542
12048		10.769758	-8.421231	-3.073310	-6.244806	-8.554940	-0.638830	-0.532883	-0.277881	-1.789182	-0.879639	0.330078	-0.434814	0.106980	-0.085253	-0.030358	0.542131	-0.183981	-0.773878	-0.270846	140.386971	-69.842301	-178.518361
12049		10.473550	-9.123985	-2.919939	-6.778015	-9.111751	-1.298064	-0.342203	-0.351788	-1.512359	-0.876709	0.316895	-0.430420	0.104092	-0.092078	-0.028859	0.538398	-0.179560	-0.775731	-0.275913	138.787675	-69.129690	-177.019966
12050		10.411923	-9.355624	-2.447693	-7.327803	-9.070664	-1.691678	-0.144463	-0.387474	-1.223266	-0.878662	0.305664	-0.428223	0.103591	-0.094208	-0.024208	0.535040	-0.175953	-0.777673	-0.279279	137.807185	-68.505490	-176.058976
12051		10.588143	-9.045891	-1.816679	-7.742978	-8.496499	-1.744742	0.050081	-0.394307	-0.891861	-0.880859	0.303467	-0.421631	0.105512	-0.090925	-0.017981	0.532307	-0.172933	-0.779569	-0.281096	137.283198	-67.996693	-175.463742
12052		10.681406	-8.620010	-1.280964	-7.970809	-7.862126	-1.769636	0.201627	-0.376958	-0.503068	-0.873779	0.299072	-0.423584	0.106621	-0.086456	-0.012696	0.530297	-0.171257	-0.781290	-0.281143	137.325342	-67.657428	-175.386521
12053		13.159666	-7.440449	-1.529235	-8.085243	-7.177608	0.863754	0.341233	-0.338266	-0.114146	-0.878418	0.299072	-0.419189	0.131580	-0.074454	-0.015197	0.529114	-0.170415	-0.782758	-0.279797	137.730926	-67.473167	-175.613589
12054		21.589469	-2.010927	0.046736	-9.357857	-2.164336	9.626867	0.504115	0.351064	0.341281	-0.869629	0.308105	-0.426025	0.215929	-0.019741	0.000038	0.531397	-0.170329	-0.782216	-0.277025	138.149179	-67.774966	-175.761979
12055		7.931001	1.462687	2.063863	-3.647976	2.230310	-2.670088	-0.299122	0.385730	1.242236	-0.874512	0.314697	-0.426025	0.079257	0.015150	0.020463	0.534367	-0.175479	-0.779698	-0.275191	138.951249	-68.414627	-176.810965
12056		13.294049	4.268349	-1.072587	-1.606758	2.444158	3.881994	-0.597008	0.374633	0.656197	-0.874512	0.316895	-0.434814	0.132779	0.043087	-0.011103	0.536213	-0.179590	-0.777231	-0.275927	139.086049	-68.848517	-177.340290
12057		8.800488	5.290229	-1.819083	1.222864	2.887411	0.132732	0.357772	0.133253	0.490267	-0.875000	0.325684	-0.432617	0.087863	0.053150	-0.018154	0.537734	-0.180387	-0.776919	-0.273314	139.727976	-69.092099	-177.808211
12058		10.715085	7.037408	0.539804	-0.136842	5.758155	1.652632	0.443956	0.271822	0.845065	-0.870605	0.332520	-0.434814	0.106860	0.070814	0.005410	0.540384	-0.182481	-0.775968	-0.269369	140.809717	-69.545578	-178.700278
12059		12.331075	3.072016	-0.627124	-2.026182	1.980004	2.591288	0.230227	0.289348	1.030320	-0.868896	0.343750	-0.437012	0.123141	0.031362	-0.006414	0.543104	-0.185500	-0.774540	-0.265925	141.925794	-70.046387	-179.748761
12060		11.529773	0.245966	-2.309556	-2.031621	-1.181536	1.711425	0.464624	0.071882	1.080596	-0.866943	0.350342	-0.439453	0.115274	0.003136	-0.023130	0.545285	-0.188712	-0.773872	-0.261102	143.599223	-70.477000	178.743538
12061		11.052452	1.271949	-2.688314	-0.914810	-0.487142	1.585799	0.510191	-0.068092	1.230847	-0.860596	0.361572	-0.441650	0.110452	0.013468	-0.026812	0.547105	-0.192204	-0.773540	-0.255674	145.608080	-70.856250	176.924642
12062		10.890650	1.301610	-3.404570	-0.224221	-0.764362	1.643973	0.196821	-0.126375	1.332784	-0.861084	0.372559	-0.435059	0.108838	0.013775	-0.033964	0.548541	-0.197381	-0.772753	-0.250990	147.808791	-71.236547	174.702696
12063		9.916255	-0.685313	-4.385347	-0.261141	-2.842962	0.669720	-0.041803	-0.178129	1.364991	-0.852539	0.388428	-0.435059	0.099245	-0.006185	-0.043764	0.549519	-0.203025	-0.771818	-0.247198	149.945517	-71.555688	172.423124
12064		9.613738	-1.967720	-4.513738	-0.762410	-3.833650	0.256583	-0.027318	-0.128987	1.297509	-0.850586	0.392822	-0.435059	0.096291	-0.019059	-0.045073	0.550611	-0.208708	-0.770710	-0.243464	152.134849	-71.869210	170.081988
12065		9.215807	-1.867543	-3.632418	-1.183979	-3.142551	-0.308226	0.097331	-0.033116	1.162445	-0.855469	0.403809	-0.430908	0.092270	-0.018122	-0.036318	0.551998	-0.212994	-0.769687	-0.239822	154.062622	-72.155560	168.113994
12066		9.638004	-1.300104	-2.663513	-1.637339	-1.986575	-0.063460	0.093069	0.011318	1.040870	-0.851318	0.415039	-0.437500	0.096444	-0.012487	-0.026646	0.553408	-0.217174	-0.768552	-0.236437	155.944775	-72.428691	166.177446
12067		9.387946	-1.805306	-3.515173	-1.173017	-2.844532	-0.102841	-0.011738	0.039482	0.929402	-0.849609	0.423828	-0.426514	0.093955	-0.017619	-0.035169	0.554647	-0.220767	-0.767404	-0.233921	157.482519	-72.661592	164.558623
12068		9.259480	-2.097716	-3.988594	-0.908796	-3.301881	-0.100918	0.024964	0.025304	0.785579	-0.845215	0.430664	-0.437500	0.092671	-0.020608	-0.039900	0.555700	-0.224179	-0.766381	-0.231520	158.986165	-72.854592	162.977361
12069		9.406727	-1.976552	-3.731398	-1.030357	-2.980319	0.004251	0.036398	-0.014920	0.705935	-0.847656	0.435059	-0.435303	0.094139	-0.019427	-0.037311	0.556504	-0.226838	-0.765661	-0.229371	160.269138	-72.988730	161.657201
12070		9.270849	-2.520124	-3.223528	-1.666918	-3.052995	-0.294753	0.034766	-0.096915	0.648758	-0.839111	0.441895	-0.437744	0.092805	-0.024895	-0.032195	0.556927	-0.229840	-0.765120	-0.227152	161.671217	-73.067472	160.191301
12071		9.140876	-1.329566	-2.657835	-1.310332	-1.729951	-0.449061	0.168899	-0.128185	0.522185	-0.841309	0.444092	-0.433350	0.091460	-0.013034	-0.026531	0.557228	-0.231552	-0.765057	-0.224873	162.797139	-73.089931	159.115749
12072		9.485039	-0.870960	-2.297879	-1.373159	-1.060943	-0.169377	0.194966	-0.134176	0.411822	-0.843750	0.446045	-0.431152	0.094883	-0.008492	-0.022923	0.557413	-0.233262	-0.765054	-0.222648	163.904971	-73.091950	158.052523
12073		9.332489	-1.735251	-2.302144	-1.839633	-1.722674	-0.375828	0.136593	-0.201532	0.362769	-0.837158	0.450684	-0.426758	0.093379	-0.017167	-0.022939	0.557211	-0.234533	-0.765334	-0.220848	164.762308	-73.037815	157.238295
12074		9.380545	-0.366865	-2.110638	-1.159604	-0.470766	-0.272373	0.167512	-0.224878	0.284508	-0.839355	0.448486	-0.433350	0.093834	-0.003518	-0.021004	0.556867	-0.235963	-0.765682	-0.218981	165.666597	-72.961491	156.367955
12075		9.636290	0.132063	-1.545408	-1.349792	0.328185	-0.151731	0.137320	-0.217819	0.226464	-0.841553	0.450684	-0.426758	0.096378	0.001440	-0.015348	0.556449	-0.236726	-0.766161	-0.217536	166.273047	-72.872637	155.815976
12076		9.782697	-0.442059	-1.715504	-1.609235	-0.166653	-0.003406	0.096759	-0.307170	0.253074	-0.839600	0.455078	-0.431152	0.097859	-0.004289	-0.017007	0.555689	-0.238265	-0.766698	-0.215900	167.095441	-72.741298	154.995158
12077		9.471934	0.254219	-2.399883	-0.599381	-0.021149	-0.056573	0.059469	-0.313712	0.251445	-0.842041	0.459473	-0.422363	0.094754	0.002668	-0.023849	0.554835	-0.239444	-0.767324	-0.214567	167.725469	-72.597910	154.371011
12078		9.486251	0.094801	-2.874721	-0.348898	-0.382123	0.086509	0.011377	-0.307702	0.248995	-0.837646	0.463867	-0.420166	0.094905	0.001068	-0.028601	0.553960	-0.241216	-0.767760	-0.213277	168.468920	-72.460427	153.578472
12079		9.355166	-0.003284	-3.272711	-0.084472	-0.675147	0.075017	0.013871	-0.313630	0.263110	-0.837646	0.463867	-0.420166	0.093603	0.000093	-0.032580	0.553059	-0.242565	-0.768315	-0.212084	169.072750	-72.314027	152.953425
12080		9.440084	0.221768	-3.535931	0.222128	-0.595614	0.250262	0.028544	-0.282231	0.259149	-0.839844	0.463867	-0.415771	0.094448	0.002345	-0.035226	0.552305	-0.244310	-0.768676	-0.210734	169.813261	-72.186254	152.171717
12081		9.414124	-0.579339	-4.176361	0.216950	-1.575554	0.379162	0.107092	-0.220634	0.275724	-0.842285	0.463867	-0.411377	0.094195	-0.005641	-0.041663	0.551884	-0.245350	-0.769050	-0.209258	170.444801	-72.089158	151.572794
12082		9.075174	-0.002815	-4.360972	0.804772	-1.234415	0.147500	0.232097	-0.158783	0.236642	-0.835693	0.470703	-0.413574	0.090786	0.000130	-0.043538	0.551834	-0.246274	-0.769318	-0.207311	171.208324	-72.023445	150.894318
12083		9.228336	0.026723	-3.959786	0.489255	-0.916027	0.175518	0.246584	-0.145064	0.232274	-0.838135	0.472900	-0.413574	0.092312	0.000423	-0.039530	0.551827	-0.246682	-0.769676	-0.205509	171.812441	-71.961105	150.407774
12084		9.126279	-0.138009	-3.852355	0.348505	-0.959856	0.041540	0.229361	-0.114296	0.220598	-0.835938	0.477295	-0.416016	0.091286	-0.001235	-0.038473	0.551913	-0.247526	-0.769829	-0.203682	172.527179	-71.913734	149.775723
12085		9.404411	-0.183831	-3.353781	-0.117614	-0.631484	0.152850	0.227904	-0.084696	0.199963	-0.835938	0.477295	-0.416016	0.094060	-0.001706	-0.033500	0.552079	-0.247797	-0.770036	-0.202114	173.044509	-71.880053	149.368956
12086		9.371029	-0.369636	-3.145322	-0.363386	-0.628368	0.052347	0.219936	-0.083378	0.216530	-0.842773	0.479248	-0.416016	0.093727	-0.003560	-0.031418	0.552262	-0.248619	-0.770095	-0.200371	173.734403	-71.845759	148.757033
12087		9.351731	0.251206	-3.256263	0.111039	-0.175386	0.090750	0.238799	-0.064936	0.195544	-0.843018	0.483887	-0.416016	0.093525	0.002642	-0.032529	0.552511	-0.248823	-0.770259	-0.198796	174.243341	-71.820426	148.365512
12088		9.463615	-0.234629	-3.275853	-0.181950	-0.523290	0.189276	0.219408	-0.057637	0.195683	-0.843018	0.486084	-0.422607	0.094648	-0.002218	-0.032734	0.552771	-0.249531	-0.770269	-0.197142	174.887658	-71.795987	147.801832
12089		9.418099	-0.626602	-3.506754	-0.219025	-0.952828	0.209021	0.210633	-0.038141	0.209198	-0.843262	0.490479	-0.413818	0.094194	-0.006131	-0.035056	0.553099	-0.249838	-0.770309	-0.195669	175.397977	-71.784157	147.391765
12090		9.346476	-0.336876	-3.450997	-0.049006	-0.670608	0.133533	0.223708	-0.008087	0.207159	-0.838379	0.483887	-0.416016	0.093470	-0.003233	-0.034510	0.553558	-0.250545	-0.770162	-0.194036	176.056742	-71.784845	146.813208
12091		9.356875	-0.275439	-3.522351	0.056084	-0.638424	0.168452	0.224215	0.004219	0.203875	-0.843262	0.490479	-0.413818	0.093571	-0.002620	-0.035228	0.554059	-0.250753	-0.770101	-0.192578	176.560362	-71.794428	146.418375
12092		9.300397	-0.355297	-3.544647	0.061189	-0.696416	0.122067	0.221818	0.019749	0.202851	-0.843262	0.492676	-0.413818	0.093004	-0.003419	-0.035459	0.554619	-0.251405	-0.769881	-0.190990	177.207463	-71.807404	145.852949
12093		9.278151	-0.503493	-3.420728	-0.096756	-0.727149	0.061562	0.218243	0.026169	0.211686	-0.847900	0.494873	-0.416016	0.092782	-0.004899	-0.034225	0.555202	-0.251638	-0.769738	-0.189559	177.721043	-71.827248	145.444087
12094		9.247101	-0.060001	-3.410897	0.191870	-0.344122	0.035734	0.219256	0.036372	0.208342	-0.843262	0.494873	-0.420410	0.092465	-0.000466	-0.034126	0.555818	-0.252321	-0.769453	-0.187996	178.378168	-71.845908	144.864045
12095		9.345283	-0.177550	-3.336926	0.059914	-0.358333	0.105420	0.205285	0.034787	0.213880	-0.843750	0.501465	-0.413818	0.093449	-0.001641	-0.033387	0.556417	-0.252590	-0.769267	-0.186618	178.890207	-71.868096	144.449074
12096		9.309456	-0.118109	-3.111940	-0.043365	-0.161520	0.002406	0.228544	0.039974	0.224646	-0.841553	0.506104	-0.420410	0.093090	-0.001041	-0.031139	0.557070	-0.253301	-0.768957	-0.184979	179.582009	-71.885328	143.838332
12097		9.449102	-0.325996	-2.965134	-0.293864	-0.198620	0.089734	0.227570	0.034226	0.222304	-0.848389	0.505859	-0.416016	0.094489	-0.003121	-0.029671	0.557701	-0.253540	-0.768777	-0.183490	-179.875843	-71.904438	143.405196
12098		9.312580	-0.229526	-2.909861	-0.221129	-0.086175	-0.056268	0.229660	0.025264	0.237596	-0.846436	0.512695	-0.416260	0.093125	-0.002151	-0.029113	0.558302	-0.254330	-0.768481	-0.181805	-179.158850	-71.909067	142.765853
12099		9.363935	0.035583	-3.103358	0.091043	0.049945	0.051618	0.209185	0.022337	0.223313	-0.837402	0.514893	-0.420410	0.093635	0.000493	-0.031044	0.558862	-0.254634	-0.768312	-0.180367	-178.623887	-71.918381	142.329229
12100		9.356625	-0.745872	-3.075225	-0.369573	-0.535763	0.043076	0.213320	0.024008	0.232003	-0.844238	0.514893	-0.431641	0.093571	-0.007317	-0.030771	0.559422	-0.255468	-0.767999	-0.178774	-177.925987	-71.918107	141.696817
12101		9.222762	-0.538879	-3.118607	-0.161253	-0.397523	-0.071469	0.215974	0.026726	0.224149	-0.842041	0.519287	-0.425049	0.092229	-0.005252	-0.031204	0.560006	-0.255752	-0.767818	-0.177313	-177.384282	-71.926965	141.257196
12102		9.360277	-0.824995	-3.311326	-0.192050	-0.682525	0.124993	0.196553	0.024779	0.226441	-0.844482	0.521484	-0.422852	0.093608	-0.008111	-0.033133	0.560652	-0.256185	-0.767599	-0.175588	-176.728781	-71.929805	140.713349
12103		9.222297	-0.726826	-3.354543	-0.047630	-0.632851	0.007147	0.215559	0.028866	0.228358	-0.837646	0.521729	-0.418457	0.092226	-0.007127	-0.033566	0.561245	-0.256483	-0.767401	-0.174117	-176.178697	-71.936862	140.264723
12104		9.328047	-0.388034	-3.306806	0.113815	-0.284644	0.087007	0.212354	0.033511	0.226067	-0.842529	0.528320	-0.425049	0.093279	-0.003740	-0.033088	0.561938	-0.256862	-0.767167	-0.172343	-175.513356	-71.940959	139.719959
12105		9.455133	-1.134089	-3.295969	-0.341793	-0.834515	0.224035	0.209273	0.038516	0.243611	-0.835693	0.530518	-0.425049	0.094559	-0.011191	-0.032990	0.562570	-0.257227	-0.766913	-0.170864	-174.937814	-71.949801	139.240830
12106		9.237640	-0.538963	-3.197414	0.007983	-0.314679	-0.027558	0.212951	0.042445	0.252261	-0.842773	0.534912	-0.425049	0.092376	-0.005239	-0.031999	0.563315	-0.257696	-0.766615	-0.169025	-174.224494	-71.953707	138.645825
12107		9.320006	-0.267729	-3.222819	0.189465	-0.069509	0.050372	0.191116	0.046861	0.253439	-0.840576	0.539307	-0.420654	0.093196	-0.002528	-0.032252	0.563960	-0.258142	-0.766305	-0.167598	-173.639503	-71.963338	138.145883
12108		9.344564	-0.793426	-3.307079	-0.031879	-0.508518	0.118449	0.201741	0.043778	0.260959	-0.842773	0.539307	-0.425049	0.093449	-0.007779	-0.033099	0.564698	-0.258673	-0.765978	-0.165781	-172.917871	-71.963142	137.535008
12109		9.437902	-0.596474	-3.086993	-0.086138	-0.185693	0.133031	0.199158	0.056962	0.271775	-0.838379	0.541748	-0.431641	0.094378	-0.005806	-0.030903	0.565403	-0.259156	-0.765616	-0.164283	-172.292891	-71.973554	136.997915
12110		9.377336	-1.003155	-3.339674	-0.083330	-0.636996	0.171369	0.193942	0.061827	0.289275	-0.836426	0.546143	-0.431641	0.093777	-0.009864	-0.033435	0.566217	-0.259801	-0.765189	-0.162440	-171.522367	-71.976706	136.330663
12111		9.266787	-0.578350	-3.242884	0.139098	-0.239082	0.018260	0.209506	0.077324	0.285539	-0.836426	0.550537	-0.427246	0.092663	-0.005617	-0.032471	0.567021	-0.260290	-0.764755	-0.160888	-170.860610	-71.993314	135.761213
12112		9.337425	-0.848671	-3.326450	0.062657	-0.460475	0.124966	0.195209	0.088279	0.284322	-0.834473	0.557373	-0.429688	0.093371	-0.008321	-0.033314	0.567927	-0.260890	-0.764255	-0.159089	-170.089935	-72.006547	135.094373
12113		9.354290	-1.246466	-3.379148	-0.101560	-0.786312	0.179627	0.214956	0.099669	0.283871	-0.836670	0.554932	-0.436035	0.093544	-0.012296	-0.033851	0.568818	-0.261338	-0.763758	-0.157548	-169.418483	-72.031480	134.518152
12114		9.276019	-1.021292	-3.324483	0.036155	-0.563554	0.077750	0.220986	0.113967	0.287887	-0.839355	0.563965	-0.442871	0.092756	-0.010043	-0.033309	0.569851	-0.261856	-0.763195	-0.155673	-168.616008	-72.053290	133.833372
12115		9.281327	-1.000799	-3.312923	0.068623	-0.518053	0.079071	0.228898	0.123921	0.282035	-0.832520	0.561768	-0.438477	0.092807	-0.009839	-0.033198	0.570848	-0.262237	-0.762636	-0.154114	-167.927290	-72.087407	133.247597
12116		9.297009	-1.131657	-3.222360	-0.046762	-0.546728	0.076570	0.238138	0.127204	0.278465	-0.832764	0.570557	-0.436279	0.092965	-0.011149	-0.032296	0.571939	-0.262659	-0.762054	-0.152218	-167.122952	-72.112072	132.571141
12117		9.389480	-1.125637	-3.112056	-0.117992	-0.441584	0.132425	0.232742	0.132639	0.282665	-0.835205	0.574951	-0.438477	0.093890	-0.011087	-0.031196	0.572969	-0.263023	-0.761465	-0.150653	-166.422620	-72.146214	131.975700
12118		9.430846	-1.197200	-3.119995	-0.125198	-0.468697	0.180962	0.238800	0.135758	0.289006	-0.835449	0.579590	-0.445068	0.094304	-0.011798	-0.031278	0.574094	-0.263475	-0.760838	-0.148735	-165.592315	-72.168539	131.272315
12119		9.412255	-0.844477	-3.046821	0.055471	-0.124441	0.115460	0.243363	0.141342	0.305183	-0.830811	0.577393	-0.447266	0.094114	-0.008264	-0.030545	0.575183	-0.263886	-0.760196	-0.147073	-164.838345	-72.199203	130.627138
12120		9.500135	-0.777908	-3.232564	0.261235	-0.118462	0.248364	0.227361	0.128122	0.330657	-0.826660	0.584229	-0.447266	0.094993	-0.007585	-0.032395	0.576288	-0.264533	-0.759519	-0.145070	-163.943911	-72.204767	129.849319
12121		9.658222	-0.675601	-3.127149	0.240105	0.083932	0.358443	0.231170	0.144229	0.363029	-0.826904	0.593018	-0.442871	0.096572	-0.006545	-0.031349	0.577408	-0.265194	-0.758775	-0.143291	-163.092519	-72.221724	129.094628
12122		9.581742	-0.528269	-3.389504	0.590687	0.083782	0.347108	0.232942	0.148273	0.415390	-0.824707	0.593018	-0.449463	0.095803	-0.005044	-0.033972	0.578647	-0.266129	-0.757923	-0.141052	-162.040435	-72.216157	128.154120
12123		9.633517	-0.226053	-3.489104	0.874250	0.324441	0.393182	0.221786	0.162694	0.456533	-0.825195	0.606445	-0.454102	0.096312	-0.002002	-0.034972	0.579883	-0.267156	-0.756985	-0.139060	-161.023737	-72.218146	127.220227
12124		9.687928	-0.634835	-3.623842	0.790946	-0.026137	0.520008	0.238474	0.187142	0.500498	-0.822998	0.608643	-0.456299	0.096861	-0.006063	-0.036336	0.581321	-0.268365	-0.755899	-0.136610	-159.806567	-72.206319	126.108865
12125		9.952839	-0.338402	-3.572811	0.922295	0.347247	0.721396	0.230823	0.219670	0.562876	-0.818848	0.615479	-0.456299	0.099498	-0.003063	-0.035841	0.582847	-0.269725	-0.754645	-0.134348	-158.571963	-72.205480	124.951527
12126		9.969451	-0.517438	-3.738058	1.014277	0.167962	0.797370	0.224823	0.243216	0.634124	-0.814453	0.622070	-0.460693	0.099665	-0.004816	-0.037507	0.584550	-0.271434	-0.753191	-0.131639	-157.111193	-72.179092	123.575160
12127		10.163372	-0.376809	-3.380883	0.837171	0.564449	0.857197	0.241526	0.262151	0.698742	-0.810547	0.635498	-0.458496	0.101602	-0.003372	-0.033946	0.586324	-0.273239	-0.751615	-0.128994	-155.622369	-72.151891	122.156978
12128		10.220289	-0.146835	-3.175310	0.865027	0.930880	0.814774	0.216195	0.290541	0.783772	-0.808350	0.635498	-0.465088	0.102161	-0.001034	-0.031903	0.588264	-0.275495	-0.749790	-0.125948	-153.905585	-72.090799	120.504924
12129		10.553529	-0.371367	-3.279179	0.850461	0.841552	1.179834	0.195364	0.298384	0.868168	-0.802002	0.646729	-0.469482	0.105501	-0.003224	-0.032953	0.590195	-0.278039	-0.747816	-0.123023	-152.163107	-72.012834	118.791434
12130		10.606086	-0.460304	-3.246526	0.855745	0.872968	1.221142	0.206571	0.310709	0.974102	-0.797607	0.651367	-0.473877	0.106031	-0.004053	-0.032634	0.592282	-0.281009	-0.745627	-0.119486	-150.176846	-71.877825	116.847335
12131		10.778180	0.542433	-2.993496	1.281505	1.941820	1.142227	0.206517	0.310848	1.075856	-0.786865	0.665039	-0.478271	0.107704	0.006035	-0.030096	0.594367	-0.284273	-0.743290	-0.115915	-148.150363	-71.709472	114.839112
12132		11.197810	-0.013787	-3.438184	1.383291	1.476783	1.724908	0.252359	0.287787	1.186042	-0.787354	0.673828	-0.478516	0.111926	0.000570	-0.034542	0.596511	-0.287887	-0.740846	-0.111552	-145.931084	-71.454869	112.671580
12133		11.383444	0.470958	-3.104786	1.472283	2.194925	1.696299	0.300903	0.320723	1.304847	-0.776611	0.687256	-0.485107	0.113750	0.005499	-0.031222	0.598848	-0.291692	-0.738145	-0.106954	-143.620090	-71.167879	110.414491
12134		11.614616	0.161371	-3.346822	1.600794	2.011899	1.998895	0.311491	0.327953	1.450304	-0.765625	0.696533	-0.487305	0.116075	0.002508	-0.033655	0.601302	-0.296052	-0.735158	-0.101648	-141.120971	-70.784953	107.977351
12135		11.873704	0.199017	-3.737847	2.057839	2.057350	2.292062	0.383856	0.328750	1.596113	-0.757568	0.716553	-0.489502	0.118654	0.003009	-0.037568	0.603871	-0.300641	-0.731959	-0.095870	-138.559130	-70.332605	105.494430
12136		12.245891	0.920990	-3.746131	2.588149	2.906110	2.422305	0.435843	0.327017	1.734007	-0.749023	0.729980	-0.491699	0.122311	0.010353	-0.037640	0.606550	-0.305621	-0.728509	-0.089257	-135.885835	-69.770142	102.932002
12137		12.573248	0.099221	-3.894784	2.399392	2.457951	2.894058	0.538024	0.301053	1.903629	-0.735840	0.737061	-0.498291	0.125656	0.002294	-0.039132	0.609289	-0.310827	-0.724873	-0.081927	-133.195227	-69.106592	100.388215
12138		13.475034	0.753345	-4.046791	3.015959	3.424645	3.517297	0.690574	0.269843	2.060774	-0.727539	0.759521	-0.505127	0.134607	0.009061	-0.040620	0.612158	-0.316174	-0.721056	-0.073315	-130.436750	-68.304436	97.866039
12139		13.667523	0.877271	-3.863419	3.121935	3.915516	3.506823	0.801904	0.232376	2.252441	-0.710449	0.777588	-0.509521	0.136519	0.010466	-0.038753	0.615045	-0.321785	-0.717007	-0.063839	-127.713601	-67.378778	95.422551
12140		14.676229	0.753281	-4.380988	3.672406	4.225635	4.463046	0.989190	0.171368	2.394147	-0.692871	0.789063	-0.518311	0.146619	0.009506	-0.043892	0.617962	-0.327346	-0.712854	-0.052986	-125.028278	-66.308548	93.129608
12141		14.788039	1.387049	-4.249684	4.124827	5.131088	4.162732	1.133463	0.130656	2.549556	-0.679932	0.802490	-0.524902	0.147658	0.015995	-0.042507	0.620896	-0.332916	-0.708488	-0.041224	-122.433196	-65.127112	90.995901
12142		15.061823	0.726103	-3.887950	3.704355	5.234079	4.377696	1.258777	0.105976	2.676909	-0.653564	0.820801	-0.531494	0.150480	0.009521	-0.038904	0.623836	-0.338522	-0.703862	-0.028451	-119.922274	-63.825100	89.020842
12143		14.801837	-0.016847	-3.517215	3.247432	5.056788	4.163417	1.344921	0.134064	2.734386	-0.647461	0.836670	-0.544922	0.147976	0.002092	-0.035262	0.626897	-0.343943	-0.698904	-0.015358	-117.523912	-62.479663	87.197234
12144		14.817479	-0.300639	-3.522464	3.357244	5.185379	4.111366	1.327940	0.134287	2.755685	-0.625732	0.854736	-0.553711	0.148172	-0.000730	-0.035334	0.629766	-0.349438	-0.693746	-0.002175	-115.317003	-61.082284	85.561242
12145		12.874614	-2.244893	-3.350753	2.431123	3.179834	3.070908	1.279188	0.175281	2.798732	-0.605957	0.868652	-0.562500	0.129012	-0.020429	-0.033755	0.632559	-0.355124	-0.688214	0.010824	-113.258258	-59.653317	84.036766
12146		12.294589	-3.774265	-4.003287	2.494854	1.778039	3.303264	1.222699	0.178216	2.839244	-0.588623	0.886719	-0.564697	0.123427	-0.035747	-0.040365	0.635086	-0.361062	-0.682447	0.023796	-111.374058	-58.172689	82.657173
12147		11.292656	-5.026250	-5.110865	3.081268	0.179844	3.201430	1.160865	0.163054	2.883347	-0.566650	0.902588	-0.580078	0.113591	-0.048330	-0.051485	0.637310	-0.367239	-0.676481	0.036671	-109.662317	-56.649421	81.415823
12148		10.734798	-5.543053	-5.452723	3.359062	-0.322154	3.004990	1.059262	0.226248	2.879537	-0.551758	0.918457	-0.584473	0.108066	-0.053588	-0.054936	0.639378	-0.373667	-0.670192	0.049098	-108.088681	-55.116812	80.248875
12149		10.307348	-5.931243	-4.979541	2.972781	-0.348342	2.727105	1.041583	0.331340	2.721818	-0.522705	0.927979	-0.595459	0.103783	-0.057642	-0.050270	0.641688	-0.379547	-0.663697	0.060722	-106.586901	-53.675883	79.136638
12150		8.347666	-5.610728	-3.950101	2.192164	-0.593295	0.751495	1.138860	0.366221	2.529175	-0.514160	0.937012	-0.599854	0.084102	-0.054820	-0.039969	0.644180	-0.384427	-0.657316	0.071997	-105.147233	-52.326295	78.149823
12151		6.299323	-4.551155	-3.323438	1.989516	-0.643960	-1.623505	1.210279	0.320728	2.331906	-0.489990	0.950928	-0.613037	0.063463	-0.044571	-0.033608	0.646654	-0.388322	-0.651283	0.082919	-103.803618	-51.069646	77.322122
12152		4.314244	-3.266172	-2.919415	1.990977	-0.693241	-4.037110	1.193331	0.299223	1.989973	-0.483398	0.955566	-0.630615	0.043419	-0.032055	-0.029451	0.649011	-0.391111	-0.645924	0.092733	-102.610000	-49.985847	76.658843
12153		4.909028	-4.971181	-2.857180	1.472439	-1.360237	-2.535684	1.192390	0.154011	1.377472	-0.469727	0.953613	-0.637207	0.049408	-0.049201	-0.028904	0.651162	-0.391791	-0.642126	0.100806	-101.629248	-49.223794	76.268889
12154		6.616435	-4.300403	-4.156775	3.273941	-0.243831	-1.519906	1.381963	-0.119721	0.606777	-0.472168	0.960205	-0.641602	0.066319	-0.042515	-0.041823	0.653087	-0.389242	-0.640629	0.107532	-100.848024	-48.856204	76.278976
12155		4.896756	0.861293	-2.893545	3.735988	2.654479	-6.335816	1.365412	-0.080758	-0.022003	-0.474365	0.958252	-0.659180	0.048980	0.008805	-0.028856	0.655469	-0.384705	-0.640162	0.112046	-100.119308	-48.851221	76.350907
12156		3.454619	1.535093	-2.266950	3.158227	2.443397	-7.945782	1.153609	-0.050265	-0.396556	-0.478516	0.951416	-0.667725	0.034582	0.015413	-0.022572	0.657654	-0.379693	-0.640462	0.114601	-99.549912	-49.058413	76.466228
12157		3.295486	2.052122	-1.300022	2.391520	3.052996	-8.500715	0.995060	-0.059523	-0.678104	-0.489502	0.947021	-0.680908	0.033028	0.020474	-0.012888	0.659715	-0.374254	-0.641340	0.115727	-99.090984	-49.427314	76.613764
12158		2.987401	2.564114	-0.663139	1.895404	3.442292	-9.107743	0.731028	-0.127266	-0.858941	-0.498535	0.944580	-0.676758	0.029988	0.025536	-0.006519	0.661075	-0.369076	-0.642975	0.115520	-98.864107	-49.892641	76.857834
12159		2.944208	2.671733	-0.530022	1.777411	3.541271	-9.190191	0.350771	-0.201871	-1.001373	-0.500488	0.937744	-0.674316	0.029581	0.026579	-0.005224	0.661629	-0.364621	-0.645257	0.113767	-98.905575	-50.432671	77.174290
12160		3.233010	2.343865	-0.649281	1.808141	3.446640	-8.708725	-0.074513	-0.256166	-1.139951	-0.511230	0.928711	-0.672119	0.032471	0.023251	-0.006460	0.661220	-0.361097	-0.648262	0.110244	-99.269824	-51.047639	77.580666
12161		3.399312	1.674449	-0.791418	1.733999	3.009672	-8.103791	-0.491151	-0.285326	-1.301100	-0.524658	0.926270	-0.669922	0.034112	0.016503	-0.007906	0.660095	-0.358384	-0.651788	0.104922	-99.907827	-51.746516	78.037651
12162		3.597540	1.010867	-0.803294	1.535006	2.621526	-7.493106	-0.864317	-0.309514	-1.484067	-0.535400	0.912598	-0.661133	0.036061	0.009807	-0.008020	0.658209	-0.356276	-0.655951	0.097760	-100.843927	-52.546487	78.586150
12163		3.783669	0.507306	-0.873290	1.426892	2.304292	-6.986047	-1.209182	-0.343067	-1.674444	-0.548828	0.910156	-0.647949	0.037892	0.004703	-0.008697	0.655700	-0.354623	-0.660597	0.088947	-102.043669	-53.438880	79.221589
12164		3.996284	0.085411	-1.078993	1.455350	1.996232	-6.490321	-1.491848	-0.353635	-1.876107	-0.566650	0.900879	-0.630615	0.039987	0.000399	-0.010723	0.652591	-0.353179	-0.665756	0.078475	-103.517172	-54.439477	79.976527
12165		4.248446	-0.292264	-1.228912	1.428711	1.741905	-5.995823	-1.732285	-0.354205	-2.070729	-0.575195	0.889404	-0.619385	0.042472	-0.003468	-0.012185	0.649094	-0.351815	-0.671166	0.066628	-105.208570	-55.529632	80.830409
12166		4.552454	-0.883873	-1.429496	1.339972	1.314385	-5.337771	-1.911341	-0.344937	-2.258267	-0.599609	0.882324	-0.602051	0.045444	-0.009488	-0.014128	0.645173	-0.350325	-0.676880	0.053456	-107.145978	-56.715427	81.834128
12167		5.030811	-1.400243	-1.465171	1.106719	1.071465	-4.612550	-2.019627	-0.315883	-2.439044	-0.612305	0.859619	-0.586426	0.050154	-0.014761	-0.014426	0.641127	-0.348506	-0.682606	0.039357	-109.249684	-57.977740	82.958825
12168		5.540610	-1.963823	-1.657746	0.954625	0.714533	-3.822852	-2.055237	-0.285429	-2.598789	-0.634521	0.852539	-0.575684	0.055167	-0.020525	-0.016291	0.636910	-0.346155	-0.688421	0.024467	-111.555617	-59.314969	84.269320
12169		6.038382	-2.685025	-1.760118	0.606609	0.230817	-3.005048	-2.028292	-0.252587	-2.760743	-0.649170	0.827637	-0.555664	0.060026	-0.027857	-0.017246	0.632767	-0.343080	-0.694131	0.009184	-114.006203	-60.708807	85.757294
12170		6.657128	-3.325602	-1.950139	0.328101	-0.211287	-2.130109	-1.950148	-0.209583	-2.917208	-0.668945	0.811768	-0.542480	0.066095	-0.034410	-0.019100	0.628645	-0.339095	-0.699841	-0.006495	-116.663962	-62.166538	87.500726
12171		7.341645	-3.830195	-2.105698	0.042012	-0.551240	-1.286786	-1.844563	-0.174105	-3.073182	-0.683594	0.784912	-0.529297	0.072833	-0.039616	-0.020632	0.624702	-0.334142	-0.705408	-0.022257	-119.508019	-63.664871	89.508302
12172		7.926630	-4.087443	-2.212740	-0.203656	-0.772507	-0.659133	-1.702568	-0.124583	-3.220877	-0.700928	0.764404	-0.518311	0.078606	-0.042330	-0.021722	0.620870	-0.328088	-0.710931	-0.038146	-122.631556	-65.206166	91.879900
12173		8.468796	-4.303023	-2.277080	-0.487599	-1.003092	-0.108719	-1.559049	-0.083696	-3.355540	-0.720459	0.746338	-0.504883	0.083958	-0.044619	-0.022392	0.617266	-0.321013	-0.716260	-0.053906	-126.038808	-66.759131	94.632264
12174		9.026841	-4.534902	-2.386707	-0.768217	-1.305974	0.455579	-1.414753	-0.050353	-3.485146	-0.739258	0.710205	-0.496094	0.089464	-0.047080	-0.023516	0.613680	-0.312885	-0.721558	-0.069666	-129.906539	-68.311526	97.932051
12175		9.567563	-4.724185	-2.426639	-1.104803	-1.592079	0.956478	-1.280188	-0.024878	-3.607934	-0.758545	0.687744	-0.491699	0.094804	-0.049111	-0.023944	0.610217	-0.303802	-0.726685	-0.085250	-134.278919	-69.829405	101.827877
12176		10.074134	-4.809782	-2.452404	-1.418742	-1.842393	1.377163	-1.158662	-0.024248	-3.717962	-0.770996	0.658691	-0.487061	0.099825	-0.050100	-0.024226	0.606586	-0.293813	-0.731829	-0.100765	-139.400416	-71.270764	106.548319
12177		10.621106	-4.729765	-2.537400	-1.613085	-2.014487	1.803611	-1.049386	-0.023592	-3.807015	-0.787598	0.622803	-0.484619	0.105286	-0.049440	-0.025106	0.602922	-0.283075	-0.736809	-0.116044	-145.303770	-72.587485	112.125140
12178		11.322994	-4.646126	-2.709818	-1.776075	-2.226501	2.394167	-0.951827	-0.035448	-3.864766	-0.799805	0.591553	-0.480225	0.112307	-0.048766	-0.026850	0.599004	-0.271706	-0.741738	-0.131126	-152.158859	-73.712053	118.712593
12179		12.101387	-4.678209	-3.016669	-1.930875	-2.631057	3.100691	-0.882369	-0.045988	-3.882064	-0.818848	0.562256	-0.475586	0.120081	-0.049251	-0.029925	0.594974	-0.259984	-0.746413	-0.145885	-159.838835	-74.589700	126.169930
12180		13.011299	-4.794033	-3.364071	-2.156669	-3.149119	3.935002	-0.862056	-0.044455	-3.858149	-0.820068	0.533447	-0.475342	0.129162	-0.050582	-0.033398	0.590685	-0.248171	-0.750834	-0.160472	-168.235847	-75.163707	134.353140
12181		13.755671	-5.016030	-3.745296	-2.416650	-3.853593	4.598669	-0.894271	-0.030746	-3.781445	-0.839111	0.501953	-0.462158	0.136579	-0.052916	-0.037199	0.586319	-0.236651	-0.754748	-0.174878	-176.918356	-75.424292	142.799370
12182		14.241892	-5.389299	-4.023193	-2.817797	-4.696756	4.953264	-0.939963	-0.020881	-3.646538	-0.846680	0.470703	-0.464111	0.141407	-0.056666	-0.039955	0.581773	-0.225668	-0.758214	-0.189012	174.540777	-75.358168	151.068191
12183		14.324365	-5.587128	-3.922459	-3.333216	-5.236542	4.789729	-0.976660	-0.003987	-3.441923	-0.854736	0.446045	-0.459717	0.142253	-0.058516	-0.038940	0.577316	-0.215486	-0.761057	-0.202642	166.649063	-75.032923	158.651725
12184		13.945714	-5.613691	-3.514293	-3.866258	-5.462119	4.099261	-0.978019	-0.017946	-3.161603	-0.862793	0.419434	-0.457275	0.138548	-0.058503	-0.034848	0.572812	-0.206493	-0.763435	-0.215442	159.788002	-74.489773	165.163823
12185		13.277933	-5.586946	-3.078029	-4.270293	-5.577252	3.134693	-0.946045	-0.042010	-2.822424	-0.866211	0.394775	-0.452881	0.131978	-0.057880	-0.030482	0.568579	-0.198510	-0.765359	-0.227021	154.063110	-73.835153	170.551191
12186		12.408072	-5.792469	-2.831387	-4.554617	-5.909451	2.013241	-0.900663	-0.092485	-2.445398	-0.872314	0.374756	-0.454834	0.123372	-0.059563	-0.027991	0.564423	-0.192032	-0.766978	-0.237266	149.540024	-73.122068	174.717173
12187		11.495223	-6.364664	-2.726463	-4.873050	-6.542000	0.842395	-0.833646	-0.155461	-2.085643	-0.878418	0.356934	-0.446045	0.114300	-0.064954	-0.026907	0.560526	-0.186618	-0.768376	-0.246136	145.983083	-72.412350	177.941462
12188		10.949140	-7.120754	-2.816584	-5.219383	-7.357049	0.043700	-0.731565	-0.227656	-1.754722	-0.875732	0.345703	-0.441650	0.108892	-0.072267	-0.027779	0.556721	-0.182439	-0.769733	-0.253554	143.343140	-71.726132	-179.733561
12189		10.599745	-7.669671	-2.823452	-5.546133	-7.908858	-0.547867	-0.610737	-0.300327	-1.444619	-0.879883	0.336914	-0.437012	0.105481	-0.077545	-0.027840	0.553168	-0.179015	-0.771083	-0.259596	141.380723	-71.088452	-178.031919
12190		10.309682	-7.972466	-2.644104	-5.874052	-8.107343	-1.060251	-0.479640	-0.356908	-1.130775	-0.877197	0.327881	-0.439209	0.102690	-0.080369	-0.026065	0.549833	-0.176731	-0.772456	-0.264125	140.128324	-70.527438	-177.005456
12191		10.235322	-7.924278	-2.282526	-6.187592	-7.891809	-1.315764	-0.325831	-0.392364	-0.793639	-0.879395	0.323486	-0.439209	0.102082	-0.079685	-0.022495	0.546986	-0.175139	-0.773792	-0.267168	139.399634	-70.066566	-176.429361
12192		10.278765	-7.713165	-1.845315	-6.484288	-7.469260	-1.403479	-0.187796	-0.395448	-0.427462	-0.881348	0.316895	-0.437012	0.102659	-0.077368	-0.018178	0.544682	-0.174861	-0.775000	-0.268553	139.291287	-69.747385	-176.436091
12193		10.219301	-7.289887	-1.458463	-6.564248	-6.884886	-1.493283	-0.086786	-0.397421	-0.029433	-0.874512	0.316895	-0.428223	0.102211	-0.072920	-0.014350	0.543036	-0.175578	-0.775984	-0.268575	139.627414	-69.567916	-176.847226
12194		14.572918	-5.541014	-2.156370	-6.602838	-5.946281	3.178331	0.011617	-0.360017	0.305414	-0.876953	0.321289	-0.432617	0.145852	-0.055186	-0.021304	0.542034	-0.177609	-0.776700	-0.267192	140.466955	-69.538461	-177.744840
12195		18.682322	2.883450	-0.247485	-4.637594	1.910882	8.414869	-0.014599	0.439183	0.719179	-0.881836	0.330078	-0.439209	0.186712	0.029506	-0.002887	0.544693	-0.179916	-0.774839	-0.265640	140.912915	-69.998611	-178.228665
12196		10.378446	3.557634	1.582724	-2.638625	3.715937	0.291840	-0.803440	0.382217	1.141941	-0.870605	0.330322	-0.439209	0.103609	0.036231	0.015484	0.546944	-0.186439	-0.771656	-0.265783	141.622583	-70.597651	-179.481969
12197		10.550241	2.638145	-1.398429	-0.901093	1.196467	1.049130	-0.741890	0.271322	0.574141	-0.871094	0.341309	-0.434814	0.105407	0.026632	-0.014226	0.548066	-0.190383	-0.769377	-0.267277	141.683862	-70.927977	-179.996729
