// General information: 
//  MT Manager version: 2019.2.0 
//  XDA version: 2019.2.0 build 3853 rev 94535 built on 2019-09-09
// Device information: 
//  DeviceId: 00B40ACF
//  ProductCode: MTW2-3A7G6
//  Firmware Version: 4.3.5
//  Hardware Version: 1.1.0
// Device settings: 
//  Filter Profile: human(46.1)
//  Option Flags: Orientation Smoother Disabled, AHS Disabled, ICC Disabled
// Coordinate system: ENU
PacketCounter	SampleTimeFine	Acc_X	Acc_Y	Acc_Z	FreeAcc_E	FreeAcc_N	FreeAcc_U	Gyr_X	Gyr_Y	Gyr_Z	Mag_X	Mag_Y	Mag_Z	VelInc_X	VelInc_Y	VelInc_Z	Quat_q0	Quat_q1	Quat_q2	Quat_q3	Roll	Pitch	Yaw
43209		9.788639	0.340557	-1.417624	-0.799020	0.179321	0.049897	0.650121	-0.010263	1.460011	-0.796387	0.449951	-0.525391	0.097859	0.004166	-0.014158	-0.455601	0.480387	0.595274	0.455307	148.497957	-78.482150	128.138603
43210		10.383397	-0.493130	-1.256720	-1.561797	0.351744	0.534905	0.599336	-0.098246	1.360876	-0.794189	0.454346	-0.529785	0.103870	-0.004187	-0.012529	-0.459862	0.483384	0.593506	0.450130	152.424893	-78.823127	124.479265
43211		10.702417	1.116701	-0.962294	0.104735	0.927733	0.950276	0.447036	-0.130188	1.282730	-0.797119	0.469727	-0.534180	0.106956	0.011875	-0.009527	-0.463440	0.486531	0.591643	0.445500	156.290681	-79.076326	120.796305
43212		10.069737	1.258455	-1.336674	0.477012	0.512570	0.399002	0.199073	-0.203241	1.106714	-0.790771	0.476563	-0.527588	0.100639	0.013155	-0.013252	-0.465808	0.489889	0.589784	0.441799	159.768451	-79.209148	117.366922
43213		10.391582	-0.987482	-1.499786	-1.648296	0.150935	0.602153	0.065460	-0.196253	0.961422	-0.793213	0.485352	-0.527832	0.103976	-0.009370	-0.014899	-0.467513	0.493086	0.587969	0.438851	162.796487	-79.280375	114.317775
43214		10.204632	-2.231616	-1.361777	-2.789546	0.127179	0.344606	0.099923	-0.173429	0.847504	-0.788818	0.487793	-0.536377	0.102151	-0.021877	-0.013540	-0.469131	0.495819	0.586428	0.436099	165.542165	-79.319209	111.577403
43215		10.125529	-2.017113	-1.770306	-2.444089	-0.231169	0.370709	0.171238	-0.127942	0.708235	-0.789063	0.492188	-0.532227	0.101337	-0.019797	-0.017655	-0.470727	0.497856	0.585286	0.433585	167.880242	-79.341015	109.292871
43216		10.466618	-2.156526	-2.285654	-2.468365	-0.675465	0.811595	0.324241	-0.057150	0.610337	-0.789307	0.500977	-0.536621	0.104738	-0.021209	-0.022861	-0.472713	0.499099	0.584530	0.431008	169.999880	-79.376726	107.320820
43217		9.569178	-1.000764	-2.433412	-1.190631	-0.818338	0.005899	0.465043	-0.007981	0.479589	-0.787354	0.505615	-0.541016	0.095716	-0.009722	-0.024353	-0.474886	0.499503	0.584295	0.428462	171.773850	-79.414793	105.781943
43218		9.633313	-0.264056	-2.030277	-0.459191	-0.311675	0.020128	0.592818	0.045822	0.398860	-0.782959	0.507813	-0.543213	0.096333	-0.002388	-0.020332	-0.477377	0.499258	0.584386	0.425847	173.385767	-79.470150	104.483437
43219		9.479271	-0.166483	-2.129130	-0.293838	-0.422242	-0.109456	0.555882	0.091029	0.322280	-0.789551	0.507813	-0.547607	0.094785	-0.001453	-0.021339	-0.479718	0.498763	0.584490	0.423648	174.721213	-79.539601	103.444023
43220		9.960791	-0.459650	-2.170478	-0.552457	-0.424779	0.368364	0.567687	0.121182	0.306306	-0.787354	0.510010	-0.552002	0.099602	-0.004382	-0.021778	-0.482159	0.498137	0.584564	0.421506	176.042436	-79.622022	102.427007
43221		9.814185	0.288685	-1.732231	0.173096	0.080260	0.155545	0.507253	0.136941	0.283730	-0.785400	0.514648	-0.556396	0.098126	0.003070	-0.017382	-0.484422	0.497539	0.584539	0.419647	177.253025	-79.707801	101.486719
43222		9.743497	0.695388	-1.708137	0.612532	0.148730	0.083757	0.442184	0.121757	0.266552	-0.783203	0.516846	-0.556396	0.097415	0.007122	-0.017125	-0.486459	0.497089	0.584438	0.417963	178.410876	-79.781755	100.563160
43223		9.734848	0.390975	-1.588152	0.328972	0.212804	0.050819	0.377901	0.106395	0.261935	-0.785400	0.514648	-0.558594	0.097335	0.004067	-0.015926	-0.488259	0.496798	0.584262	0.416453	179.511825	-79.842928	99.659406
43224		9.660508	0.485337	-1.663907	0.471909	0.138061	-0.010254	0.343105	0.108239	0.286229	-0.787598	0.516846	-0.565186	0.096589	0.005020	-0.016683	-0.490044	0.496669	0.583931	0.414972	-179.297315	-79.902542	98.644989
43225		9.777645	0.540230	-1.511786	0.535016	0.309589	0.076574	0.232563	0.152542	0.304766	-0.787842	0.521240	-0.565186	0.097756	0.005569	-0.015186	-0.491702	0.496758	0.583227	0.413892	-178.112853	-79.983036	97.572214
43226		9.314409	0.414896	-1.612855	0.476445	0.102181	-0.363132	0.116112	0.175142	0.348409	-0.785645	0.521240	-0.571777	0.093122	0.004321	-0.016208	-0.493243	0.497223	0.582102	0.413083	-176.811381	-80.071762	96.313890
43227		9.144683	0.076273	-1.843159	0.222805	-0.215700	-0.488955	0.077107	0.172471	0.392276	-0.785645	0.525879	-0.576172	0.091429	0.000949	-0.018510	-0.494749	0.497904	0.580806	0.412286	-175.386245	-80.151638	94.906957
43228		9.486699	0.428643	-2.058097	0.647369	-0.316423	-0.122614	0.167412	0.166784	0.470482	-0.788086	0.530273	-0.582764	0.094839	0.004527	-0.020656	-0.496639	0.498608	0.579497	0.411003	-173.611106	-80.217497	93.198334
43229		10.092917	0.156759	-2.112899	0.440677	-0.319571	0.485819	0.282874	0.194706	0.542774	-0.790527	0.534424	-0.574219	0.100904	0.001871	-0.021225	-0.499024	0.499162	0.578185	0.409285	-171.514639	-80.283794	91.230450
43230		10.148898	0.613521	-2.160855	0.970959	-0.288981	0.532315	0.350891	0.222118	0.658445	-0.786133	0.536865	-0.580811	0.101444	0.006507	-0.021710	-0.501905	0.499829	0.576633	0.407132	-168.935064	-80.340716	88.813035
43231		10.086987	0.995662	-1.945184	1.390566	-0.030477	0.414103	0.336781	0.181164	0.723096	-0.783936	0.541504	-0.589600	0.100815	0.010354	-0.019526	-0.504740	0.500782	0.574999	0.404761	-166.178718	-80.347838	86.207677
43232		10.194478	0.568299	-2.102879	1.085443	-0.240281	0.552440	0.362459	0.176660	0.779937	-0.781982	0.548096	-0.589600	0.101903	0.006119	-0.021108	-0.507747	0.501843	0.573261	0.402142	-163.212662	-80.321800	83.405074
43233		10.004457	0.718494	-1.446475	1.202913	0.392344	0.241967	0.355943	0.141038	0.838049	-0.780273	0.559326	-0.585205	0.100003	0.007630	-0.014522	-0.510726	0.503139	0.571456	0.399309	-160.148363	-80.241593	80.497938
43234		10.705366	0.130753	-0.757510	0.616998	1.079743	0.847912	0.364217	0.126526	0.914227	-0.775879	0.565918	-0.591797	0.107041	0.001811	-0.007640	-0.513840	0.504658	0.569487	0.396199	-156.906649	-80.110259	77.415242
43235		11.039991	0.157089	-0.954466	0.801748	0.954651	1.199207	0.315961	0.150677	1.005986	-0.776367	0.574951	-0.593994	0.110383	0.002141	-0.009625	-0.517054	0.506491	0.567126	0.393054	-153.499709	-79.939825	74.134697
43236		10.865329	0.205677	-1.467505	1.058728	0.442538	1.092964	0.273773	0.145161	1.087335	-0.771973	0.579346	-0.598389	0.108629	0.002668	-0.014751	-0.520303	0.508667	0.564460	0.389779	-150.008814	-79.709893	70.742852
43237		11.438149	0.011206	-1.852604	1.108941	0.135512	1.720471	0.295599	0.211558	1.172173	-0.772461	0.592773	-0.600830	0.114358	0.000810	-0.018646	-0.523927	0.510870	0.561440	0.386390	-146.350673	-79.450645	67.190465
43238		11.486568	-0.041072	-2.373430	1.312374	-0.372436	1.836907	0.287536	0.293655	1.265218	-0.766357	0.610596	-0.603027	0.114830	0.000350	-0.023903	-0.527933	0.513183	0.557916	0.382961	-142.498838	-79.156080	63.433630
43239		11.466448	-0.650292	-2.803249	0.965427	-0.908546	1.934673	0.338817	0.329342	1.391362	-0.764893	0.626221	-0.603027	0.114659	-0.005658	-0.028231	-0.532371	0.515610	0.554057	0.379140	-138.503032	-78.785427	59.555316
43240		11.911158	-0.906012	-2.188309	0.822009	-0.293273	2.300134	0.445566	0.367434	1.480269	-0.758301	0.633057	-0.609619	0.119134	-0.008129	-0.022121	-0.537340	0.517904	0.550025	0.374851	-134.454317	-78.343053	55.680503
43241		11.593107	-0.396298	-1.872134	1.415068	0.040971	1.851556	0.646936	0.425384	1.580743	-0.747803	0.648682	-0.609863	0.115917	-0.002986	-0.018979	-0.543126	0.519780	0.545927	0.369873	-130.315872	-77.828255	51.824689
43242		11.261531	0.299073	-2.087523	2.297178	-0.104071	1.411290	0.791911	0.439433	1.687725	-0.734863	0.664551	-0.614258	0.112538	0.004024	-0.021108	-0.549491	0.521491	0.541722	0.364203	-126.237219	-77.213075	48.107486
43243		11.730850	0.477375	-1.707357	2.679343	0.366957	1.738826	0.877082	0.488600	1.862813	-0.735352	0.680176	-0.620850	0.117215	0.005941	-0.017336	-0.556461	0.523292	0.537036	0.357922	-122.164960	-76.476830	44.436497
43244		11.951294	1.660628	-1.305297	4.007460	1.016931	1.597622	0.789312	0.548585	2.064416	-0.715576	0.691650	-0.636230	0.119296	0.017891	-0.013311	-0.563666	0.525713	0.531423	0.351420	-118.212913	-75.599736	40.825575
43245		12.985553	0.878203	-1.138714	3.692795	1.179712	2.663530	0.623192	0.604732	2.259467	-0.703125	0.718506	-0.638672	0.129710	0.010284	-0.011749	-0.570836	0.528943	0.524783	0.344917	-114.525667	-74.582380	37.374346
43246		13.183579	1.296138	-0.917450	4.390578	1.495344	2.629405	0.518978	0.657314	2.443181	-0.694824	0.734131	-0.640869	0.131633	0.014595	-0.009571	-0.578105	0.532782	0.517235	0.338240	-111.117454	-73.425216	34.133565
43247		13.573171	1.330305	-1.025316	4.874916	1.442857	2.883530	0.397505	0.695169	2.594111	-0.670654	0.750244	-0.649658	0.135507	0.015083	-0.010696	-0.585291	0.537199	0.508887	0.331490	-108.070774	-72.147001	31.177387
43248		14.234881	0.610605	-0.676059	4.659511	1.719098	3.558236	0.257490	0.723143	2.752918	-0.657959	0.770508	-0.660645	0.142221	0.008073	-0.007265	-0.592329	0.542280	0.499691	0.324634	-105.388413	-70.742922	28.498851
43249		14.759181	0.544843	-0.563513	5.126787	1.875950	3.921511	0.149153	0.746036	2.912205	-0.634277	0.797607	-0.658691	0.147469	0.007601	-0.006180	-0.599251	0.547923	0.489719	0.317576	-103.045580	-69.218929	26.091168
43250		15.040851	0.524672	-1.251538	5.791125	1.227101	4.080024	0.073866	0.762118	3.026774	-0.621582	0.817871	-0.669678	0.150257	0.007526	-0.013086	-0.606053	0.553917	0.479141	0.310323	-101.014115	-67.601391	23.947091
43251		15.774335	1.049248	-1.480826	7.023650	1.193811	4.376928	0.082946	0.769428	3.099447	-0.597412	0.831543	-0.667480	0.157497	0.012941	-0.015409	-0.612850	0.559905	0.468241	0.302774	-99.235569	-65.919318	22.057924
43252		16.712037	1.745908	-2.439270	8.691978	0.502439	4.763403	0.125032	0.845647	3.123497	-0.569092	0.856689	-0.674072	0.166715	0.020080	-0.025086	-0.619825	0.565558	0.456976	0.295185	-97.575968	-64.207842	20.301656
43253		16.481032	1.974030	-4.350629	9.709067	-1.395852	4.265975	0.222104	0.886915	3.168066	-0.547363	0.876953	-0.687256	0.164275	0.022394	-0.044212	-0.627062	0.570799	0.445482	0.287275	-96.023859	-62.454355	18.701713
43254		16.401922	2.127637	-5.944297	10.634556	-2.978376	3.858131	0.518361	0.895456	3.218865	-0.523438	0.893066	-0.689453	0.163379	0.024065	-0.060115	-0.635063	0.575050	0.434115	0.278491	-94.479316	-60.653578	17.277529
43255		16.173833	3.788260	-6.502565	12.523155	-3.283725	2.458489	0.942057	0.896478	3.288171	-0.494629	0.906982	-0.698242	0.160790	0.040839	-0.065560	-0.644186	0.577932	0.423006	0.268485	-92.863189	-58.795252	16.025528
43256		15.991243	4.849342	-6.441295	13.733120	-3.055868	1.266697	1.284827	0.879091	3.359464	-0.472412	0.916504	-0.720215	0.158779	0.051582	-0.064788	-0.654145	0.579692	0.412071	0.257390	-91.225930	-56.879272	14.955283
43257		16.199531	5.013230	-6.155442	14.326663	-2.689065	0.813810	1.557546	0.839582	3.436871	-0.441406	0.928223	-0.726807	0.160837	0.053384	-0.061824	-0.664678	0.580564	0.401240	0.245268	-89.610824	-54.902751	14.076546
43258		16.229170	3.566658	-5.271440	13.407324	-2.073250	1.132669	1.721298	0.738695	3.546486	-0.421631	0.939697	-0.748779	0.161425	0.038990	-0.052986	-0.675353	0.581005	0.390479	0.232073	-88.109728	-52.853486	13.432758
43259		17.325084	2.109667	-2.983074	12.809551	0.042469	2.409391	1.702268	0.625507	3.761096	-0.388184	0.947021	-0.759766	0.172716	0.024604	-0.030172	-0.685721	0.581819	0.379282	0.217756	-86.810164	-50.674061	13.013726
43260		18.433179	3.045635	-1.057859	14.154346	2.348581	2.198535	1.965706	0.708290	3.852946	-0.363770	0.954346	-0.785889	0.183660	0.034105	-0.010907	-0.696789	0.581542	0.367661	0.202779	-85.394854	-48.435780	12.626883
43261		19.638342	2.327551	0.280916	14.536003	3.707964	3.074103	1.554711	0.775051	3.781204	-0.321533	0.968506	-0.796875	0.195906	0.026964	0.002249	-0.706400	0.582235	0.355415	0.188894	-84.245380	-46.227512	12.268375
43262		20.749055	-0.642923	0.367109	13.786264	3.250999	5.365785	1.107124	0.884016	3.835296	-0.296875	0.971191	-0.805664	0.207577	-0.002466	0.002733	-0.714641	0.584246	0.342073	0.175869	-83.353557	-43.981093	11.897185
43263		19.399314	0.816315	-2.747871	15.226716	0.494046	2.532283	1.086610	0.757474	3.974585	-0.261230	0.978760	-0.814209	0.193672	0.012166	-0.028154	-0.722431	0.586434	0.328591	0.161917	-82.598561	-41.657409	11.695064
43264		16.640921	2.577455	-1.951609	14.496761	1.384224	-1.137345	1.003450	0.446640	3.906914	-0.236572	0.981445	-0.827393	0.165818	0.029116	-0.019746	-0.729090	0.588805	0.316248	0.147390	-82.071442	-39.398772	11.760004
43265		12.126028	3.950696	0.402678	11.444753	3.374719	-5.293320	1.018916	0.346613	3.351753	-0.214355	0.986328	-0.842773	0.120583	0.041511	0.004025	-0.734974	0.590109	0.305773	0.134489	-81.557003	-37.459298	11.863495
43266		11.267075	-1.246719	3.342215	7.192574	4.698931	-1.697841	0.522093	0.397134	2.812347	-0.189697	0.991211	-0.838135	0.112898	-0.010967	0.033168	-0.738903	0.592218	0.296323	0.124474	-81.278459	-35.826962	11.888405
43267		13.433728	-6.005677	-1.392635	8.033752	-0.643008	2.576895	0.339564	0.266855	2.957606	-0.174316	0.996094	-0.838135	0.135187	-0.058038	-0.014206	-0.742039	0.595176	0.286714	0.113750	-81.167173	-34.118578	12.024831
43268		8.525013	3.848969	-1.398545	9.287249	1.153958	-8.449341	-0.809863	0.286350	2.032066	-0.161133	1.005127	-0.824951	0.084833	0.039296	-0.014265	-0.741116	0.600948	0.279117	0.108178	-81.647679	-32.938284	12.044239
43269		4.547126	3.631778	-2.268415	6.171355	-0.478343	-10.647435	-1.796585	0.286481	0.889628	-0.152100	1.005127	-0.811768	0.045277	0.036313	-0.023075	-0.736537	0.608722	0.274352	0.108172	-82.625251	-32.400526	11.938864
43270		3.362701	3.785477	-2.049286	5.201766	-0.530579	-11.392693	-2.311353	0.168884	0.196918	-0.154785	1.013916	-0.798828	0.033572	0.037647	-0.020957	-0.729755	0.617423	0.271855	0.111089	-83.905534	-32.272927	11.845671
43271		3.248095	2.707798	-1.992093	4.549416	-0.818459	-10.507532	-2.876017	-0.021335	-0.245658	-0.157715	1.027100	-0.765869	0.032516	0.026748	-0.020304	-0.720612	0.627591	0.271019	0.115745	-85.560306	-32.403642	11.849142
43272		2.164752	1.398232	-2.670684	3.138479	-1.975044	-9.961008	-3.084221	-0.165001	-0.629456	-0.162354	1.026855	-0.737305	0.021713	0.013500	-0.026900	-0.710220	0.637918	0.271761	0.121629	-87.381774	-32.765277	11.939038
43273		1.370268	-0.221984	-3.046357	1.688403	-2.760810	-8.956246	-2.995912	-0.218759	-1.008221	-0.178467	1.037354	-0.706787	0.013723	-0.002745	-0.030410	-0.699642	0.647299	0.273849	0.128496	-89.175587	-33.335662	12.071403
43274		1.168162	-1.389618	-3.169836	0.862852	-3.056707	-8.008657	-2.672204	-0.277658	-1.424789	-0.192139	1.041504	-0.693848	0.011624	-0.014401	-0.031492	-0.689580	0.654850	0.277670	0.136197	-90.821080	-34.147733	12.266379
43275		1.435265	-1.481533	-3.109799	0.941732	-2.935041	-7.709473	-2.271694	-0.314686	-1.853199	-0.209961	1.034424	-0.671875	0.014261	-0.015300	-0.030904	-0.680346	0.660313	0.283194	0.144626	-92.273942	-35.193340	12.523305
43276		1.696048	-1.253616	-2.855044	1.155365	-2.598473	-7.688610	-1.791260	-0.303765	-2.304543	-0.232422	1.033691	-0.654297	0.016856	-0.012986	-0.028410	-0.672224	0.663344	0.290495	0.153956	-93.482072	-36.498898	12.822902
43277		1.670075	-0.851921	-2.547722	1.247080	-2.260726	-7.985354	-1.288257	-0.253620	-2.786113	-0.261475	1.028809	-0.638916	0.016611	-0.008915	-0.025400	-0.665338	0.663805	0.299508	0.164266	-94.420935	-38.070396	13.145797
43278		1.878116	-0.371712	-2.234551	1.585532	-1.881214	-8.198596	-0.788453	-0.221138	-3.298977	-0.281250	1.014893	-0.634521	0.018740	-0.004114	-0.022309	-0.659546	0.661627	0.310485	0.175638	-95.110792	-39.938990	13.513717
43279		2.196161	0.281867	-1.710726	2.097191	-1.268341	-8.463029	-0.344427	-0.199877	-3.796385	-0.312256	1.003418	-0.636963	0.022027	0.002372	-0.017090	-0.654623	0.656988	0.323289	0.187934	-95.590268	-42.082956	13.935814
43280		2.713736	0.650350	-1.217537	2.576409	-0.665892	-8.333759	-0.015183	-0.197247	-4.255955	-0.354736	0.998047	-0.636963	0.027280	0.005923	-0.012149	-0.650068	0.650250	0.337809	0.201174	-95.944866	-44.493232	14.430584
43281		3.486818	0.689135	-0.578990	2.948108	0.103433	-7.747800	0.293922	-0.200351	-4.641701	-0.387451	0.977539	-0.634766	0.035021	0.006088	-0.005746	-0.645824	0.641548	0.353700	0.214996	-96.189660	-47.114650	14.999712
43282		4.265036	0.316653	0.015512	2.957885	0.790312	-6.827118	0.472055	-0.212288	-4.945241	-0.424561	0.950195	-0.641357	0.042711	0.002110	0.000206	-0.641409	0.631366	0.370629	0.229360	-96.417587	-49.913187	15.656088
43283		4.931384	-0.184182	0.370873	2.743936	1.194268	-5.872011	0.667285	-0.276135	-5.206164	-0.468506	0.924805	-0.641357	0.049238	-0.003137	0.003768	-0.636799	0.619748	0.388531	0.243809	-96.664318	-52.847628	16.454565
43284		5.631321	-0.194451	0.646311	2.851672	1.562950	-5.166802	0.837025	-0.343878	-5.464354	-0.500977	0.893311	-0.647705	0.056220	-0.003509	0.006547	-0.631782	0.606709	0.407412	0.258402	-96.988293	-55.928633	17.434696
43285		6.306449	-0.133666	0.820407	2.936348	1.828966	-4.475700	0.972626	-0.424152	-5.757896	-0.542725	0.865967	-0.649902	0.062973	-0.003191	0.008325	-0.626149	0.592272	0.427245	0.273154	-97.470143	-59.159907	18.659830
43286		7.028278	0.334295	0.876955	3.324071	2.045119	-3.894101	1.095037	-0.531497	-6.043415	-0.583740	0.822998	-0.658691	0.070316	0.001170	0.008967	-0.619668	0.576439	0.448081	0.288014	-98.244912	-62.544440	20.257396
43287		7.761915	0.789480	0.875196	3.635429	2.214450	-3.217570	1.110361	-0.698369	-6.245502	-0.618164	0.786865	-0.662842	0.077783	0.005418	0.009058	-0.611989	0.559800	0.469561	0.302664	-99.588045	-66.007023	22.448005
43288		8.952058	1.176606	0.701787	3.992880	2.285934	-2.014046	0.937317	-0.880150	-6.378628	-0.652344	0.741699	-0.658447	0.089802	0.008870	0.007459	-0.602533	0.543055	0.491262	0.317344	-101.946735	-69.500154	25.568319
43289		10.294331	1.270333	0.589964	3.956408	2.380308	-0.508027	0.661449	-1.035108	-6.499999	-0.679932	0.701416	-0.656006	0.103251	0.009330	0.006468	-0.591142	0.526527	0.512757	0.332267	-105.907175	-72.963634	30.143870
43290		11.537604	1.057839	0.584587	3.389744	2.481839	0.998261	0.244945	-1.173662	-6.611432	-0.714111	0.654053	-0.638184	0.115604	0.006751	0.006534	-0.577425	0.510568	0.533732	0.347894	-112.654790	-76.319079	37.276639
43291		13.167857	0.956635	0.592287	2.790799	2.659487	2.825703	-0.181733	-1.273450	-6.741169	-0.743896	0.606689	-0.624756	0.131860	0.005129	0.006756	-0.561499	0.495106	0.553935	0.364340	-124.303766	-79.371279	49.074992
43292		14.859916	0.953869	0.722490	2.006378	2.966891	4.655589	-0.627015	-1.318408	-6.893881	-0.768555	0.552979	-0.615723	0.148759	0.004437	0.008186	-0.543355	0.479930	0.573199	0.381936	-144.602512	-81.692371	69.273515
43293		16.436696	0.561217	0.841452	0.586105	3.129176	6.340935	-1.050701	-1.323931	-7.025980	-0.789307	0.503662	-0.591553	0.164370	-0.000115	0.009493	-0.523275	0.464955	0.591223	0.400569	-174.375058	-82.409489	98.708894
43294		18.395145	-0.063144	0.909760	-1.312399	3.213851	8.270923	-1.480174	-1.286719	-7.122592	-0.802979	0.447754	-0.577881	0.183711	-0.007104	0.010317	-0.501377	0.450095	0.607759	0.420315	157.515326	-81.039517	126.237634
43295		20.959544	-1.544122	0.562662	-4.302313	2.751021	10.576817	-1.890300	-1.195517	-7.176120	-0.814453	0.400879	-0.564453	0.208824	-0.022882	0.007069	-0.478067	0.435316	0.622453	0.441026	139.204801	-78.271045	143.734707
43296		23.351133	-3.660557	0.010224	-8.167937	1.922126	12.278492	-2.219767	-1.058707	-7.125452	-0.821533	0.349609	-0.551025	0.232004	-0.044877	0.001801	-0.453864	0.420533	0.635130	0.462353	127.975710	-74.882688	153.958472
43297		25.100278	-6.528420	-0.749242	-12.781804	0.695050	12.749679	-2.398635	-0.925047	-6.944876	-0.826416	0.300781	-0.533203	0.248562	-0.074019	-0.005486	-0.429534	0.405868	0.645801	0.483440	120.676807	-71.300154	160.141330
43298		25.946421	-9.462267	-0.710841	-17.342334	0.201970	11.685275	-2.175696	-0.754058	-6.631782	-0.838135	0.256104	-0.524170	0.256158	-0.103217	-0.005046	-0.406372	0.390763	0.655189	0.502886	115.651088	-67.746686	164.165867
43299		25.363729	-10.167590	-1.267942	-19.050627	-0.540054	9.804665	-1.836388	-0.665097	-6.107110	-0.841064	0.211670	-0.515137	0.250412	-0.109461	-0.010862	-0.385060	0.376055	0.663469	0.519732	112.195096	-64.401693	166.788550
43300		24.090864	-11.780188	-3.817106	-20.762538	-3.401797	7.242047	-1.758322	-0.729956	-5.319514	-0.842041	0.180420	-0.512695	0.237791	-0.124479	-0.036224	-0.365348	0.363609	0.670003	0.534233	109.817358	-61.410756	168.319911
43301		21.570829	-15.831075	-5.189866	-23.790639	-5.513758	2.283673	-1.687267	-0.780516	-4.383408	-0.845459	0.151611	-0.501709	0.212361	-0.163415	-0.049701	-0.347875	0.354082	0.674653	0.546309	108.168267	-58.899795	169.100373
43302		17.454714	-21.215044	-4.822627	-26.778785	-6.126102	-4.987720	-1.496244	-0.807225	-3.328093	-0.842041	0.125000	-0.494873	0.171170	-0.215367	-0.045928	-0.333356	0.347678	0.677700	0.555623	107.094489	-56.949057	169.348806
43303		13.626655	-26.990500	-2.776081	-29.832882	-5.025489	-12.376585	-1.039812	-0.743635	-2.229155	-0.843994	0.113770	-0.490479	0.133345	-0.271540	-0.025852	-0.322830	0.343987	0.679821	0.561514	106.559280	-55.612803	169.269866
43304		13.783838	-31.756813	-0.899279	-33.941092	-3.617968	-15.660741	-0.156885	-0.526615	-0.993859	-0.841797	0.113770	-0.481689	0.136281	-0.318255	-0.008383	-0.317993	0.342424	0.681880	0.562731	106.654455	-54.989866	169.038318
43305		15.783593	-31.256573	0.489477	-34.700598	-2.013648	-14.072282	0.687096	-0.123216	0.341876	-0.837646	0.122803	-0.483887	0.158367	-0.312310	0.003919	-0.319731	0.342933	0.683369	0.559622	107.229762	-55.166268	168.810607
43306		16.938685	-26.524400	0.479239	-31.441161	-1.410406	-10.166992	0.958657	0.104777	1.745980	-0.835938	0.138184	-0.483887	0.171696	-0.263770	0.003436	-0.326636	0.347157	0.682800	0.553692	108.144479	-56.149220	168.362268
43307		28.350280	-17.885180	-1.466644	-30.106933	-0.811143	4.972386	0.686074	-0.141121	2.979242	-0.834717	0.162598	-0.488525	0.286135	-0.174551	-0.015069	-0.335575	0.356649	0.679628	0.546165	109.506045	-57.748269	167.200924
43308		0.411255	25.193735	-6.188969	21.855314	-2.276891	3.982525	0.322740	0.020719	3.047532	-0.830811	0.178223	-0.490723	0.000266	0.252060	-0.061483	-0.344551	0.366478	0.674896	0.539901	110.661685	-59.406108	166.058452
43309		12.947648	45.269068	-9.473983	33.727085	-1.258983	24.356380	-1.015031	0.104414	1.519266	-0.829102	0.191650	-0.488770	0.125985	0.453168	-0.097105	-0.347149	0.373148	0.669113	0.540866	110.516163	-60.251236	165.548201
43310		15.463532	8.868767	-4.837872	0.727700	-1.708120	8.564689	-1.274210	0.316970	1.372242	-0.824951	0.202881	-0.493164	0.153946	0.089434	-0.049191	-0.349558	0.379178	0.662470	0.543292	109.974710	-61.063086	165.326532
43311		17.706927	-3.597406	3.733163	-11.492188	5.422010	3.563784	-0.333882	0.247765	2.227744	-0.823486	0.220703	-0.497559	0.177501	-0.033936	0.037170	-0.355794	0.386534	0.656811	0.540926	110.359570	-62.319451	164.666369
43312		18.894450	-2.908419	1.995463	-10.936562	3.976023	5.484349	0.025881	0.108601	2.836452	-0.822021	0.240723	-0.500000	0.189342	-0.026403	0.019848	-0.363869	0.395572	0.651080	0.535927	111.411000	-63.871774	163.498878
43313		20.054460	-1.249866	3.285883	-9.516414	5.649214	7.276455	0.135912	-0.102315	2.803102	-0.820557	0.265137	-0.497803	0.200677	-0.009709	0.032954	-0.371297	0.404775	0.645968	0.530114	112.887952	-65.346371	161.944731
43314		17.190580	-5.625531	4.224183	-11.990662	5.807517	3.128746	0.142481	-0.109723	2.906432	-0.816895	0.280762	-0.491455	0.172676	-0.053780	0.042298	-0.378933	0.414249	0.640533	0.523952	114.626037	-66.857546	160.128049
43315		13.487184	-3.286463	-1.234916	-7.796387	0.275053	1.735268	-0.011983	-0.219107	3.087423	-0.812988	0.300781	-0.495850	0.135371	-0.030778	-0.012199	-0.386264	0.424772	0.634391	0.517606	116.770628	-68.406017	157.796305
43316		12.336016	-3.165786	-4.495053	-6.798199	-2.992203	1.466692	-0.280640	-0.269002	3.007539	-0.807129	0.322998	-0.493896	0.123878	-0.029860	-0.044741	-0.392594	0.435606	0.627652	0.512025	119.103551	-69.868908	155.123000
43317		10.274714	-3.321987	-2.946848	-6.101302	-1.693095	-0.582911	-0.356167	-0.269727	2.923629	-0.812256	0.338379	-0.491699	0.103258	-0.031765	-0.029272	-0.398427	0.446211	0.620778	0.506740	121.695834	-71.243960	152.152413
43318		10.116760	-2.359050	-2.574420	-4.906423	-1.194293	-0.376810	-0.263228	-0.191628	2.729571	-0.799561	0.358643	-0.483154	0.101502	-0.022240	-0.025617	-0.404163	0.455757	0.614272	0.501606	124.460432	-72.506708	149.080461
43319		9.609486	-4.359160	-4.636111	-6.407062	-3.409080	-0.859461	-0.125987	-0.118593	2.457049	-0.802734	0.378418	-0.487549	0.096648	-0.042436	-0.046277	-0.409655	0.463908	0.608493	0.496697	127.301551	-73.615115	146.029922
43320		11.401592	-6.335778	-3.978346	-8.550375	-2.588273	0.490170	0.267788	0.005067	2.397657	-0.802979	0.385254	-0.491943	0.114763	-0.061932	-0.039870	-0.416256	0.470714	0.603467	0.490904	130.524535	-74.697108	142.835018
43321		10.215441	0.580231	-1.138674	-1.416267	0.549508	0.369446	0.567210	0.223634	2.290693	-0.808350	0.407227	-0.492188	0.102066	0.007004	-0.011482	-0.423869	0.475950	0.598903	0.484893	133.863497	-75.762158	139.712992
43322		8.175985	-1.658900	-2.761142	-2.953789	-1.551002	-1.683129	0.302776	0.297424	1.916391	-0.797363	0.418701	-0.505371	0.081872	-0.015763	-0.027757	-0.430145	0.480410	0.594342	0.480562	136.779451	-76.665283	136.885073
43323		9.051741	-0.489828	-2.773000	-1.776988	-1.348865	-0.599467	0.459692	0.318327	1.899421	-0.795654	0.431885	-0.503174	0.090514	-0.003975	-0.027884	-0.436748	0.484364	0.590113	0.475825	140.108288	-77.529186	133.735141
43324		9.065564	2.327489	-0.884997	1.079762	0.723600	-0.501786	0.413558	0.197398	1.807213	-0.800537	0.443115	-0.512207	0.090432	0.024111	-0.008890	-0.442649	0.488409	0.586187	0.471066	143.887570	-78.264219	130.108247
43325		9.653530	1.992293	-0.723156	0.828972	0.952190	-0.010298	0.174268	0.010495	1.615016	-0.790039	0.458740	-0.510010	0.096370	0.020708	-0.007219	-0.446903	0.492802	0.582554	0.466963	147.791294	-78.792946	126.221757
43326		10.610133	1.386389	0.096661	0.232453	1.876526	0.719583	0.118736	-0.075299	1.528200	-0.788330	0.472168	-0.512207	0.105991	0.014673	0.001015	-0.450566	0.497255	0.579140	0.462952	151.938472	-79.201439	122.062122
43327		10.461399	1.149578	-0.110605	0.180127	1.652657	0.580057	-0.124548	-0.167836	1.383395	-0.790771	0.480957	-0.514404	0.104532	0.012218	-0.001026	-0.452969	0.502003	0.575719	0.459738	155.925665	-79.465885	117.927113
43328		10.930668	-1.311076	-0.981019	-2.111893	0.721563	1.012209	-0.177883	-0.181825	1.295451	-0.789063	0.489746	-0.514648	0.109397	-0.012411	-0.009700	-0.455001	0.506645	0.572381	0.456799	159.848215	-79.652756	113.830741
43329		10.346660	-2.694230	-2.012828	-3.255760	-0.454874	0.558206	0.035659	-0.112400	1.204963	-0.791748	0.503174	-0.508057	0.103638	-0.026315	-0.020075	-0.457520	0.510345	0.569597	0.453633	163.656128	-79.808700	109.976488
43330		10.010292	-1.847693	-1.859713	-2.282102	-0.283220	0.276374	0.343875	-0.082545	1.053395	-0.785156	0.505371	-0.512451	0.100206	-0.017917	-0.018587	-0.460578	0.512840	0.567791	0.449973	167.271762	-79.916281	106.499537
43331		10.148054	-1.806095	-1.389236	-2.169490	0.214687	0.356939	0.586175	-0.042358	0.914955	-0.780762	0.510010	-0.514648	0.101565	-0.017556	-0.013923	-0.464019	0.514260	0.566795	0.446056	170.596502	-79.992546	103.458983
43332		9.868994	-1.284812	-1.506676	-1.533107	0.092981	0.135081	0.735084	-0.008154	0.795114	-0.778809	0.516846	-0.523438	0.098740	-0.012400	-0.015109	-0.467684	0.514922	0.566323	0.442047	173.673040	-80.050296	100.758715
43333		9.366280	-0.890401	-1.644432	-1.030100	-0.095226	-0.317765	0.689457	-0.000473	0.668300	-0.779053	0.525635	-0.527832	0.093692	-0.008534	-0.016474	-0.470935	0.515282	0.566063	0.438494	176.304295	-80.081742	98.483307
43334		9.672803	0.248614	-1.467895	0.154097	0.230349	-0.029922	0.532219	0.012743	0.583490	-0.777100	0.534424	-0.521484	0.096719	0.002807	-0.014678	-0.473650	0.515750	0.565614	0.435589	178.606229	-80.102469	96.451957
43335		9.843260	0.554296	-1.490846	0.519265	0.267138	0.141124	0.386693	0.070095	0.514232	-0.772705	0.532471	-0.534424	0.098413	0.005825	-0.014932	-0.475968	0.516218	0.564904	0.433424	-179.424418	-80.142119	94.672714
43336		9.473091	0.855791	-1.810888	0.908096	-0.086125	-0.173242	0.212233	0.140593	0.450248	-0.772949	0.543457	-0.536865	0.094699	0.008790	-0.018166	-0.477917	0.516780	0.563788	0.432061	-177.715782	-80.213741	93.057913
43337		10.035889	-0.747819	-1.336651	-0.690747	0.316401	0.310925	0.028388	0.167637	0.409566	-0.770508	0.539063	-0.536865	0.100363	-0.007271	-0.013452	-0.479351	0.517588	0.562332	0.431402	-176.248522	-80.294046	91.580519
43338		9.963934	-0.426465	-1.360392	-0.326417	0.297246	0.243032	-0.112946	0.190513	0.357650	-0.775146	0.541260	-0.545654	0.099634	-0.004094	-0.013696	-0.480394	0.518553	0.560628	0.431300	-174.978290	-80.383938	90.222176
43339		10.188952	-0.819654	-1.818932	-0.641922	-0.164380	0.548583	-0.169196	0.170142	0.306896	-0.773193	0.550293	-0.541260	0.101886	-0.008056	-0.018269	-0.481098	0.519537	0.559001	0.431444	-173.924785	-80.460235	89.050317
43340		9.965725	0.024788	-2.051947	0.248241	-0.368729	0.352406	-0.132620	0.151967	0.246737	-0.768555	0.543701	-0.550049	0.099641	0.000357	-0.020595	-0.481738	0.520317	0.557631	0.431562	-173.017047	-80.526806	88.048674
43341		9.711274	-0.679624	-2.643850	-0.378703	-1.064132	0.211525	-0.019305	0.125026	0.216492	-0.773193	0.545898	-0.547852	0.097103	-0.006694	-0.026499	-0.482508	0.520782	0.556668	0.431386	-172.175921	-80.577789	87.179621
43342		9.663176	-0.515336	-2.668627	-0.185830	-1.091513	0.164191	0.144283	0.113089	0.247688	-0.775391	0.545898	-0.552246	0.096623	-0.005014	-0.026745	-0.483760	0.520979	0.555984	0.430626	-171.103147	-80.616856	86.171781
43343		9.464006	-0.607408	-2.635145	-0.246145	-1.108499	-0.035630	0.340349	0.132186	0.329632	-0.770996	0.550293	-0.547852	0.094632	-0.005873	-0.026424	-0.485727	0.520870	0.555480	0.429193	-169.645038	-80.655475	84.886475
43344		9.106427	0.212820	-2.481243	0.601374	-0.951794	-0.439265	0.570593	0.167213	0.435703	-0.775635	0.552490	-0.556641	0.091038	0.002397	-0.024882	-0.488636	0.520432	0.555084	0.426928	-167.628739	-80.694985	83.170205
43345		9.102635	0.793123	-2.493319	1.245305	-0.916252	-0.468550	0.728049	0.172832	0.598890	-0.771240	0.557129	-0.561035	0.090980	0.008295	-0.024982	-0.492287	0.520025	0.554595	0.423855	-164.977053	-80.704756	80.900760
43346		9.364575	1.388666	-1.990525	1.871182	-0.323456	-0.326945	0.691831	0.185293	0.736704	-0.776123	0.565918	-0.569824	0.093575	0.014300	-0.019943	-0.496179	0.520064	0.553608	0.420545	-161.847859	-80.679471	78.127186
43347		9.730208	1.120094	-1.120073	1.608820	0.559472	-0.102689	0.537699	0.169341	0.898629	-0.771729	0.570313	-0.574219	0.097241	0.011668	-0.011252	-0.499932	0.520939	0.551918	0.417226	-158.352565	-80.589186	74.891789
43348		10.806775	1.440455	-0.502387	2.001913	1.369130	0.828297	0.296923	0.144296	0.960262	-0.771973	0.579346	-0.576416	0.107993	0.014931	-0.005080	-0.503123	0.522637	0.549595	0.414323	-154.892129	-80.438720	71.551502
43349		11.886243	-0.486402	0.119245	0.187158	1.935345	1.924085	0.186494	0.124179	0.983305	-0.765625	0.585938	-0.574463	0.118885	-0.004281	0.001114	-0.505985	0.524689	0.547036	0.411620	-151.596427	-80.241249	68.311667
43350		11.811514	-0.810164	0.019496	-0.005856	1.790316	1.890398	0.218910	0.098973	0.980771	-0.763428	0.588379	-0.574463	0.118153	-0.007522	0.000128	-0.508863	0.526704	0.544584	0.408741	-148.451430	-80.000357	65.242242
43351		11.637133	-0.786684	-1.116903	0.266840	0.652841	1.883063	0.351668	0.084236	1.008293	-0.763672	0.597168	-0.574463	0.116404	-0.007260	-0.011231	-0.512075	0.528459	0.542369	0.405398	-145.358963	-79.717069	62.300254
43352		11.446170	-0.633288	-1.530928	0.583751	0.236650	1.735534	0.403244	0.102680	1.072322	-0.762207	0.612793	-0.581055	0.114485	-0.005688	-0.015380	-0.515639	0.530165	0.540055	0.401725	-142.198833	-79.391179	59.327379
43353		11.136231	-0.014168	-1.583862	1.309734	0.209276	1.357075	0.348603	0.132183	1.215730	-0.760254	0.624023	-0.581055	0.111350	0.000563	-0.015912	-0.519353	0.532356	0.537124	0.397954	-138.898572	-78.997923	56.165766
43354		11.193468	0.212605	-1.764672	1.712999	0.068297	1.390525	0.232372	0.171548	1.336425	-0.751709	0.630615	-0.578857	0.111902	0.002894	-0.017740	-0.523098	0.535081	0.533499	0.394253	-135.557637	-78.538729	52.890892
43355		10.703061	0.327175	-2.107824	1.973640	-0.334143	0.915606	0.211723	0.206622	1.493110	-0.743164	0.646484	-0.583496	0.106980	0.004093	-0.021185	-0.527144	0.538170	0.529310	0.390286	-132.149451	-77.993920	49.528757
43356		11.166645	0.058786	-2.241273	1.970625	-0.427781	1.396739	0.286684	0.266751	1.657501	-0.737061	0.664307	-0.587891	0.111626	0.001545	-0.022560	-0.531853	0.541353	0.524616	0.385808	-128.606606	-77.357191	46.066006
43357		11.586180	-0.583913	-2.174836	1.605090	-0.380961	1.874260	0.448956	0.326505	1.833787	-0.737549	0.673096	-0.592285	0.115873	-0.004728	-0.021949	-0.537437	0.544396	0.519570	0.380580	-124.964330	-76.617100	42.586664
43358		12.267218	0.047031	-2.194671	2.583278	-0.232531	2.376247	0.600525	0.369564	2.030037	-0.722168	0.684570	-0.596680	0.122618	0.001781	-0.022169	-0.543877	0.547411	0.514094	0.374494	-121.296027	-75.745743	39.158873
43359		12.792197	0.593978	-1.948002	3.451827	0.142501	2.671106	0.659023	0.411515	2.175574	-0.709717	0.709229	-0.607910	0.127806	0.007395	-0.019720	-0.550774	0.550486	0.508164	0.367944	-117.796374	-74.766449	35.925450
43360		13.197203	0.707802	-1.747255	3.917065	0.400001	2.923397	0.636929	0.447829	2.336256	-0.692383	0.727539	-0.614502	0.131837	0.008675	-0.017742	-0.557931	0.553890	0.501566	0.361041	-114.519682	-73.664745	32.895038
43361		13.108291	1.130648	-1.298600	4.547600	0.861587	2.571144	0.523801	0.487779	2.506610	-0.684082	0.743164	-0.612305	0.130895	0.012982	-0.013273	-0.565080	0.557867	0.494110	0.354012	-111.530905	-72.440894	30.079234
43362		13.358309	0.960876	-0.787181	4.701923	1.357737	2.678297	0.365984	0.527273	2.657954	-0.671387	0.765625	-0.619141	0.133418	0.011397	-0.008204	-0.572062	0.562499	0.485742	0.346980	-108.861105	-71.102704	27.484486
43363		13.562322	0.945218	-0.526866	5.056015	1.616942	2.713976	0.276348	0.542276	2.793470	-0.649658	0.783691	-0.621338	0.135459	0.011353	-0.005621	-0.578940	0.567573	0.476708	0.339763	-106.510881	-69.660758	25.152358
43364		13.904757	0.661499	-0.238927	5.223138	1.890262	2.953233	0.305261	0.535326	2.888928	-0.630127	0.804199	-0.619141	0.138926	0.008626	-0.002749	-0.585930	0.572685	0.467362	0.332100	-104.427451	-68.134493	23.101823
43365		13.955225	1.050570	-0.566306	6.038387	1.600427	2.722631	0.484926	0.561525	2.964792	-0.608643	0.826660	-0.632324	0.139359	0.012587	-0.006026	-0.593479	0.577271	0.457923	0.323802	-102.459244	-66.545758	21.264780
43366		14.512957	1.000751	-0.179307	6.530892	2.030335	3.027389	0.579704	0.571612	3.068504	-0.588867	0.840576	-0.634521	0.144947	0.012238	-0.002174	-0.601354	0.581655	0.448189	0.314924	-100.640042	-64.876555	19.628337
43367		15.759662	2.612914	-0.450784	8.945535	2.112373	3.259833	0.567333	0.668804	3.143988	-0.567139	0.860840	-0.641113	0.157144	0.028616	-0.004955	-0.609366	0.585940	0.437813	0.306052	-98.918969	-63.155148	18.069913
43368		15.941872	3.348604	-2.604701	10.480031	0.068898	2.926217	0.484610	0.768214	3.226462	-0.540771	0.872559	-0.649902	0.158749	0.036115	-0.026572	-0.617315	0.590341	0.426641	0.297316	-97.321498	-61.375682	16.573634
43369		15.941829	3.069770	-4.462005	10.993571	-1.845582	2.804053	0.503755	0.773516	3.325274	-0.514404	0.888672	-0.654297	0.158703	0.033454	-0.045153	-0.625294	0.594716	0.415069	0.288163	-95.877542	-59.522797	15.239934
43370		16.261053	3.180886	-4.371748	11.667522	-1.747118	2.614595	0.780168	0.758079	3.403788	-0.488281	0.915771	-0.663330	0.161869	0.034740	-0.044200	-0.633983	0.598223	0.403582	0.278060	-94.442829	-57.608920	14.076801
43371		16.776036	3.484663	-3.866444	12.546876	-1.175659	2.421957	1.166517	0.775752	3.443641	-0.459717	0.929688	-0.678711	0.166974	0.037953	-0.039098	-0.643704	0.600364	0.392321	0.267006	-92.916585	-55.657389	13.043766
43372		16.953998	3.085075	-4.135752	12.825286	-1.486040	2.325130	1.362403	0.721137	3.499108	-0.437500	0.939209	-0.693848	0.168812	0.034092	-0.041742	-0.653748	0.601837	0.381196	0.255139	-91.453990	-53.660195	12.201687
43373		17.032564	3.152917	-3.869207	13.331383	-1.194255	1.841871	1.349010	0.603578	3.620266	-0.404053	0.946533	-0.704834	0.169597	0.034866	-0.038977	-0.663438	0.603512	0.369925	0.242443	-90.197593	-51.580234	11.587085
43374		18.157702	2.762817	-2.008348	13.812682	0.729639	2.434902	1.089775	0.628070	3.745525	-0.373047	0.960449	-0.715820	0.180952	0.031132	-0.020489	-0.672279	0.606009	0.357749	0.229805	-89.159893	-49.423753	11.044809
43375		19.354468	2.503026	-0.507488	14.567945	2.309188	2.974556	1.052485	0.761748	3.773699	-0.342041	0.972168	-0.726807	0.193005	0.028704	-0.005666	-0.681017	0.608294	0.344840	0.217438	-88.132256	-47.241074	10.469810
43376		20.248046	2.757557	-0.001002	15.745679	2.935472	2.875524	0.587351	0.842435	3.843179	-0.308838	0.986084	-0.733398	0.201899	0.031461	-0.000773	-0.688275	0.611943	0.330822	0.205815	-87.392080	-45.014620	9.902629
43377		20.690142	0.888022	-0.413302	15.381247	2.234794	3.877006	0.002974	0.866684	3.884240	-0.275391	0.991211	-0.733154	0.206656	0.012896	-0.005029	-0.693562	0.617410	0.315842	0.194989	-87.025681	-42.756845	9.369321
43378		17.955941	1.393964	-3.367863	14.805288	-0.943056	0.937768	-0.155755	0.744981	3.945074	-0.251221	1.005127	-0.735352	0.179111	0.017449	-0.034359	-0.697937	0.623382	0.300840	0.183777	-86.851743	-40.470826	8.965072
43379		13.405626	3.478174	-4.971239	13.319295	-2.753074	-4.198727	-0.227570	0.472419	3.719922	-0.215820	1.014648	-0.730957	0.133261	0.037209	-0.050069	-0.701214	0.629290	0.287284	0.172511	-86.863900	-38.317145	8.770784
43380		10.202025	0.651379	-3.168912	8.979322	-1.789637	-4.271240	0.018240	0.359618	3.168459	-0.195313	1.012695	-0.735352	0.101843	0.008131	-0.031872	-0.704401	0.633439	0.276015	0.162450	-86.781249	-36.488007	8.642786
43381		12.099700	-11.717190	-3.128109	3.676037	-3.316792	6.586744	0.858128	0.197764	3.049108	-0.168701	1.022217	-0.746094	0.122732	-0.115174	-0.031899	-0.709760	0.634444	0.266273	0.151063	-86.291600	-34.726678	8.637604
43382		11.456182	-1.599905	-0.487454	8.621911	0.682913	-2.116633	1.131666	0.547025	2.617924	-0.148438	1.018311	-0.750488	0.114744	-0.014469	-0.005273	-0.715947	0.633485	0.256839	0.141950	-85.513031	-33.203409	8.394373
43383		6.995642	1.376712	-3.238977	7.145880	-2.102276	-7.395856	0.214774	0.212557	1.468221	-0.141846	1.020508	-0.757080	0.069818	0.014315	-0.032449	-0.717901	0.634492	0.251524	0.137016	-85.362257	-32.344555	8.333795
43384		3.781063	2.752644	-1.958077	4.945870	-1.024973	-10.254592	0.022384	0.160617	0.534523	-0.139648	1.025146	-0.757080	0.037721	0.027630	-0.019608	-0.718503	0.635023	0.249255	0.135543	-85.315647	-32.027564	8.259348
43385		3.130225	2.455331	-0.550695	3.984615	0.220792	-10.264683	-0.329623	0.091593	-0.024817	-0.141846	1.024902	-0.754883	0.031303	0.024540	-0.005562	-0.717531	0.636171	0.248732	0.136262	-85.478375	-32.026925	8.200498
43386		2.368591	1.970781	-0.406641	3.072774	0.184846	-10.240966	-0.472055	0.012155	-0.497742	-0.146240	1.020508	-0.752686	0.023735	0.019639	-0.004114	-0.715666	0.637285	0.249939	0.138639	-85.739047	-32.306631	8.170991
43387		1.621747	1.182687	-0.618523	2.080697	-0.238818	-9.970824	-0.478997	-0.040119	-0.964923	-0.153076	1.020264	-0.743896	0.016275	0.011734	-0.006210	-0.713390	0.637870	0.252772	0.142489	-86.010024	-32.849081	8.155117
43388		1.144261	0.201867	-0.984160	1.230019	-0.801847	-9.409308	-0.399072	-0.101365	-1.377141	-0.171143	1.022217	-0.739502	0.011461	0.001920	-0.009840	-0.710954	0.637660	0.257225	0.147545	-86.250106	-33.636132	8.165177
43389		0.710176	-0.379025	-1.440609	0.630442	-1.386097	-9.176595	-0.328265	-0.192151	-1.845810	-0.186768	1.021729	-0.735352	0.007080	-0.003879	-0.014393	-0.708248	0.636626	0.263489	0.153838	-86.474593	-34.687898	8.220953
43390		0.747268	-0.497720	-1.510045	0.591327	-1.467371	-9.048826	-0.214345	-0.277147	-2.339359	-0.208984	1.014648	-0.735352	0.007435	-0.005080	-0.015085	-0.705316	0.634524	0.271722	0.161479	-86.661567	-36.031101	8.321499
43391		1.086937	-0.085087	-1.676926	1.111797	-1.533229	-9.169431	-0.116217	-0.355697	-2.807867	-0.233643	1.011963	-0.730957	0.010886	-0.001013	-0.016749	-0.702108	0.631404	0.281713	0.170324	-86.819612	-37.638195	8.465562
43392		1.439850	0.838592	-1.078768	1.818908	-0.769613	-9.614855	-0.027999	-0.419080	-3.294024	-0.264648	1.004883	-0.735352	0.014557	0.008146	-0.010758	-0.698493	0.627187	0.293508	0.180548	-86.954271	-39.531396	8.646032
43393		2.181961	1.632365	-0.818709	2.824494	-0.307061	-9.661515	-0.056485	-0.484083	-3.788568	-0.298096	0.992920	-0.729004	0.022143	0.015904	-0.008138	-0.694042	0.622211	0.306924	0.192243	-87.136113	-41.702802	8.867797
43394		3.019404	1.730641	-0.567692	3.440327	0.054325	-9.042274	-0.144152	-0.544539	-4.208963	-0.331055	0.979004	-0.729004	0.030565	0.016662	-0.005606	-0.688521	0.616691	0.321686	0.205300	-87.411508	-44.122075	9.141971
43395		4.127697	1.361800	-0.548905	3.910401	0.143757	-7.843320	-0.184274	-0.625423	-4.545580	-0.366211	0.958496	-0.726807	0.041589	0.012670	-0.005371	-0.682086	0.610561	0.337529	0.219197	-87.777870	-46.728525	9.500814
43396		5.230725	0.889144	-0.262613	4.139190	0.474579	-6.517792	-0.148345	-0.695774	-4.816188	-0.408203	0.937500	-0.715820	0.052510	0.007627	-0.002450	-0.674945	0.603578	0.354328	0.233654	-88.209871	-49.495965	9.958623
43397		6.020369	0.504961	0.039540	4.108135	0.796369	-5.455789	-0.082611	-0.780848	-5.021824	-0.445801	0.921387	-0.715820	0.060303	0.003536	0.000629	-0.667217	0.595749	0.371855	0.248252	-88.722176	-52.373461	10.550740
43398		6.487717	0.423481	0.016849	4.086049	0.813438	-4.822416	-0.090938	-0.894044	-5.200775	-0.489502	0.891602	-0.704834	0.064956	0.002546	0.000457	-0.658563	0.587344	0.390072	0.262995	-89.421166	-55.357047	11.343919
43399		7.210857	0.126622	0.017570	3.952882	0.845332	-3.841102	-0.111877	-0.954588	-5.419091	-0.515625	0.868896	-0.702637	0.072106	-0.000687	0.000520	-0.648990	0.578251	0.408781	0.278094	-90.323280	-58.452428	12.337764
43400		7.767169	-0.506165	-0.065442	3.359731	0.713263	-2.828699	-0.168064	-1.019271	-5.670325	-0.556885	0.832520	-0.691406	0.077489	-0.007261	-0.000254	-0.638234	0.568444	0.428064	0.293752	-91.538482	-61.687389	13.621321
43401		8.560712	-1.149690	-0.447401	2.806205	0.307040	-1.638564	-0.128640	-1.084738	-5.902729	-0.593994	0.800781	-0.680420	0.085241	-0.014019	-0.004003	-0.626586	0.557636	0.447867	0.309592	-93.135030	-65.030640	15.318587
43402		9.452327	-1.195925	-0.692681	2.651906	0.151025	-0.638164	-0.045512	-1.167031	-6.114892	-0.637451	0.762207	-0.667236	0.094137	-0.014843	-0.006374	-0.614045	0.545684	0.468268	0.325428	-95.330566	-68.471701	17.672063
43403		10.232479	-0.938085	-0.854830	2.592932	0.123452	0.164262	0.010354	-1.270921	-6.307501	-0.667236	0.719238	-0.664795	0.102013	-0.012601	-0.007900	-0.600516	0.532753	0.489100	0.341081	-98.559512	-71.961472	21.102739
43404		11.083820	-0.272906	-0.612740	2.730593	0.585758	0.932414	0.017891	-1.369956	-6.454403	-0.701416	0.676514	-0.658203	0.110712	-0.006303	-0.005369	-0.585849	0.519025	0.510152	0.356566	-103.638339	-75.438239	26.395887
43405		12.105553	0.165040	-0.256688	2.545666	1.142087	1.968567	-0.069684	-1.467764	-6.534728	-0.726807	0.633789	-0.642578	0.121038	-0.002306	-0.001678	-0.569949	0.504973	0.530946	0.371830	-112.208175	-78.740148	35.137344
43406		13.602781	0.303118	0.011828	2.005784	1.610844	3.545439	-0.192219	-1.536543	-6.567850	-0.747314	0.584473	-0.624756	0.136023	-0.001436	0.001163	-0.552820	0.490719	0.551228	0.386954	-127.604636	-81.583495	50.638129
43407		15.330519	0.210296	0.441458	1.008503	2.214546	5.328416	-0.354752	-1.573575	-6.590750	-0.772461	0.537354	-0.613525	0.153223	-0.002939	0.005623	-0.534549	0.476386	0.570692	0.402024	-154.398021	-83.296682	77.444939
43408		17.005142	0.122802	0.688759	-0.185834	2.636346	6.997070	-0.585890	-1.590853	-6.639816	-0.786377	0.488281	-0.595703	0.169906	-0.004392	0.008247	-0.514926	0.461990	0.589225	0.417409	172.428768	-82.974735	110.500231
43409		18.978104	0.154920	0.890170	-1.504195	3.071030	8.872909	-0.911477	-1.555831	-6.683138	-0.804932	0.441162	-0.577881	0.189616	-0.004745	0.010389	-0.493991	0.447710	0.606361	0.433422	148.559552	-80.811700	134.066893
43410		21.034028	-0.645581	1.001706	-3.884021	3.233774	10.635677	-1.316221	-1.469410	-6.718858	-0.818604	0.391846	-0.562256	0.209885	-0.013440	0.011634	-0.471703	0.433566	0.621781	0.450449	134.628031	-77.739342	147.465077
43411		22.656900	-2.902690	0.854086	-7.751518	2.783267	11.505344	-1.720281	-1.356625	-6.641913	-0.825928	0.345215	-0.544434	0.225375	-0.036442	0.010365	-0.448523	0.419859	0.635073	0.468217	126.130933	-74.335801	155.195509
43412		24.027409	-6.072632	1.275844	-12.604348	2.709009	11.386237	-1.974954	-1.174354	-6.409807	-0.835205	0.296143	-0.533203	0.238084	-0.068242	0.014810	-0.425365	0.406508	0.646140	0.486126	120.372565	-70.894836	160.034447
43413		24.686383	-7.956166	2.147624	-16.019381	3.311630	10.424255	-2.065251	-0.948926	-6.048100	-0.844971	0.253662	-0.519775	0.244205	-0.086738	0.023510	-0.403197	0.393549	0.655044	0.503456	116.137569	-67.592105	163.290671
43414		24.345615	-8.898726	1.534687	-17.822116	2.580624	8.889902	-2.253067	-0.761659	-5.535359	-0.848389	0.226807	-0.510986	0.240810	-0.095489	0.017319	-0.382145	0.381771	0.661465	0.520270	112.787421	-64.528425	165.535794
43415		22.429696	-10.834679	-0.301602	-19.487818	0.380885	5.695870	-2.394735	-0.612594	-4.872812	-0.851563	0.195801	-0.499756	0.221574	-0.113788	-0.000994	-0.362749	0.371776	0.665411	0.536120	110.052692	-61.810130	167.056391
43416		19.694630	-14.091097	-2.619172	-21.566613	-2.451211	1.235550	-2.466547	-0.578045	-4.081812	-0.852539	0.162354	-0.495117	0.194083	-0.145196	-0.023855	-0.345200	0.364187	0.667197	0.550503	107.847744	-59.497149	167.957331
43417		16.538075	-18.361085	-4.388685	-23.993037	-4.752196	-4.194406	-2.255395	-0.622935	-3.266695	-0.854248	0.144531	-0.486328	0.162479	-0.186756	-0.041283	-0.329975	0.358915	0.667828	0.562408	106.221099	-57.612643	168.343149
43418		14.480862	-22.940317	-3.844013	-27.007306	-4.568818	-9.176517	-1.645607	-0.621233	-2.437238	-0.851318	0.126953	-0.477295	0.142111	-0.231449	-0.036097	-0.318074	0.355282	0.668473	0.570743	105.224997	-56.180731	168.399907
43419		14.281746	-26.795702	-1.619330	-30.198957	-2.493819	-12.339105	-0.648788	-0.420216	-1.476371	-0.853271	0.120117	-0.479492	0.140866	-0.269052	-0.015024	-0.311316	0.352657	0.669838	0.574485	104.875029	-55.311110	168.367429
43420		14.532613	-27.913246	-0.104521	-31.265531	-1.034259	-13.240881	0.399615	-0.127905	-0.304068	-0.848633	0.115723	-0.477295	0.144902	-0.279350	-0.001510	-0.310749	0.351479	0.671662	0.573383	105.143447	-55.134940	168.313141
43421		14.646106	-25.212635	-0.499379	-29.084601	-1.317134	-11.478077	1.044714	0.063501	0.926088	-0.849121	0.129150	-0.475098	0.147624	-0.251414	-0.006355	-0.315468	0.352866	0.672863	0.568525	105.899941	-55.665667	168.115133
43422		14.683191	-21.424462	-0.340689	-25.943217	-0.961703	-8.967678	1.134511	0.186598	2.070945	-0.849609	0.144775	-0.484131	0.149036	-0.212685	-0.004755	-0.324008	0.357596	0.672029	0.561712	106.902317	-56.847485	167.685782
43423		17.158108	-18.161304	-0.731841	-24.397933	-0.808627	-4.445821	0.855141	0.218600	3.083177	-0.842041	0.177979	-0.484131	0.174344	-0.178905	-0.008277	-0.334910	0.366001	0.668426	0.554153	108.046985	-58.579673	166.905466
43424		19.848550	-0.062867	-6.874506	-9.523248	-4.373604	8.390620	0.612462	-0.230756	3.550021	-0.838379	0.197998	-0.484375	0.198532	0.003105	-0.068510	-0.345095	0.377536	0.663834	0.545619	109.737598	-60.476444	165.346314
43425		2.178865	57.118262	-9.524170	49.829855	-2.232553	19.680509	0.397454	-0.192722	1.957149	-0.831787	0.207031	-0.490967	0.016288	0.571548	-0.094089	-0.350546	0.383944	0.661471	0.540519	110.859831	-61.499140	164.317702
43426		12.989623	24.519905	-4.564984	16.073543	-0.000436	13.261688	-0.929694	0.385198	0.696112	-0.825439	0.216064	-0.490967	0.128953	0.245432	-0.047039	-0.351951	0.386936	0.656871	0.543076	110.212067	-61.962967	164.443327
43427		15.164929	-3.341523	-0.692617	-9.716073	0.845369	2.290967	0.222951	0.354377	1.580897	-0.823975	0.231689	-0.491211	0.151894	-0.032207	-0.007232	-0.357846	0.390851	0.653720	0.540216	110.587000	-62.891955	164.158747
43428		17.579892	-2.687777	0.640503	-9.975384	2.516542	4.707335	0.441603	0.286638	2.345880	-0.822266	0.249512	-0.493408	0.176107	-0.024827	0.006096	-0.365994	0.397032	0.649704	0.535069	111.512635	-64.217852	163.402530
43429		19.484451	-1.122073	-2.318277	-8.795140	0.038271	7.762848	0.352649	-0.003027	2.585699	-0.818359	0.265137	-0.493408	0.194968	-0.008660	-0.023197	-0.373588	0.404850	0.645412	0.529124	112.923564	-65.597808	162.062193
43430		18.018896	1.310558	2.611488	-5.802973	5.045256	6.742420	0.178311	-0.085133	2.548974	-0.818848	0.273926	-0.502441	0.179991	0.015377	0.026205	-0.380428	0.413042	0.640763	0.523540	114.475998	-66.928416	160.473161
43431		13.654199	-1.802217	2.801620	-6.697569	4.379609	1.740799	-0.239068	-0.057719	2.793082	-0.811035	0.302979	-0.493652	0.136767	-0.016080	0.028076	-0.387039	0.422645	0.634361	0.518805	116.086233	-68.370186	158.578699
43432		11.967038	-2.098973	-0.670704	-5.885060	0.762407	0.809919	-0.274089	-0.111443	2.939576	-0.809326	0.320801	-0.493896	0.119965	-0.019237	-0.006613	-0.393731	0.432849	0.627513	0.513659	118.106573	-69.853595	156.243559
43433		10.721188	-1.424717	-1.088005	-4.537880	0.301323	0.059819	-0.260028	-0.108123	2.872655	-0.807617	0.336426	-0.498291	0.107408	-0.012719	-0.010805	-0.400179	0.442694	0.620720	0.508512	120.406901	-71.267774	153.641031
43434		9.607791	-1.734008	-3.026090	-4.172681	-1.744618	-0.646799	-0.471302	-0.152267	2.680448	-0.808350	0.354004	-0.502686	0.096322	-0.016121	-0.030149	-0.405483	0.452409	0.613761	0.504189	122.854855	-72.542378	150.777216
43435		10.203667	-2.173248	-3.334435	-4.522031	-1.949070	-0.029859	-0.549959	-0.057769	2.490352	-0.800049	0.369629	-0.496338	0.102307	-0.020551	-0.033257	-0.410320	0.461362	0.606753	0.500633	125.288546	-73.713597	147.899656
43436		9.280076	-2.193709	-3.257405	-4.126976	-1.975465	-0.834653	-0.455569	0.030211	2.261133	-0.800537	0.383057	-0.496338	0.093036	-0.020960	-0.032540	-0.415034	0.469157	0.600218	0.497370	127.746064	-74.776917	145.070725
43437		8.299520	-4.108772	-5.563902	-5.554606	-4.490702	-1.707235	-0.272409	-0.014464	2.058296	-0.792480	0.403076	-0.498779	0.083417	-0.040306	-0.055578	-0.419459	0.475997	0.594653	0.493831	130.466082	-75.693839	142.091300
43438		11.722980	-3.700813	-3.312643	-5.704655	-1.698617	1.441826	0.000709	0.069006	2.081353	-0.790283	0.409912	-0.498779	0.117595	-0.035785	-0.033167	-0.424822	0.482095	0.589447	0.489554	133.635449	-76.616578	138.823425
43439		10.432850	0.203462	0.568103	-1.536407	2.158812	0.295934	0.217640	0.164640	1.895496	-0.797607	0.425293	-0.503174	0.104308	0.003017	0.005598	-0.430463	0.486880	0.584976	0.485235	136.858883	-77.454237	135.638551
43440		9.062330	-2.527901	-1.211890	-3.793274	0.042087	-1.118319	0.268957	0.069385	1.624674	-0.800293	0.436279	-0.514160	0.090820	-0.024525	-0.012184	-0.435286	0.490976	0.581426	0.481053	140.171458	-78.109910	132.402776
43441		10.639547	-1.224443	-0.067701	-2.605218	1.484787	0.468832	0.332790	0.073051	1.585978	-0.796387	0.449707	-0.514404	0.106488	-0.011399	-0.000735	-0.440126	0.494756	0.578097	0.476770	143.771422	-78.707521	128.917420
43442		10.263850	-0.400616	0.136450	-1.594012	1.677361	0.195792	0.298803	0.048635	1.382029	-0.794189	0.454346	-0.518799	0.102663	-0.003299	0.001334	-0.444327	0.498072	0.575190	0.472921	147.275420	-79.186323	125.517535
43443		10.368068	-0.057664	-0.944035	-1.082961	0.652728	0.521286	0.364262	-0.006921	1.260432	-0.792480	0.465332	-0.516602	0.103682	0.000094	-0.009437	-0.448194	0.500978	0.572857	0.469017	150.848376	-79.557631	122.089454
43444		10.429173	-0.550399	-1.278459	-1.432363	0.313410	0.606229	0.271448	-0.031118	1.177157	-0.790527	0.469971	-0.516602	0.104324	-0.004873	-0.012775	-0.451575	0.503911	0.570525	0.465463	154.429162	-79.857481	118.604060
43445		10.375911	-1.011418	-1.201068	-1.764704	0.366617	0.525357	0.253196	-0.060583	1.169821	-0.784424	0.487793	-0.519043	0.103819	-0.009492	-0.011992	-0.454763	0.506893	0.568235	0.461908	158.183829	-80.097049	114.933414
43446		9.773551	-1.083533	-1.240593	-1.673055	0.242715	-0.046604	0.127303	-0.053756	1.098861	-0.784668	0.494385	-0.519043	0.097796	-0.010290	-0.012386	-0.457500	0.509947	0.565777	0.458851	161.829301	-80.287019	111.303785
43447		9.948937	-0.174190	-1.476286	-0.658597	0.103009	0.224536	0.079991	-0.033522	1.029253	-0.780518	0.503418	-0.523438	0.099499	-0.001224	-0.014747	-0.459972	0.512830	0.563347	0.456148	165.298919	-80.436006	107.825857
43448		9.834972	-0.770980	-2.368618	-1.101145	-0.820656	0.239410	0.201208	-0.011346	0.928525	-0.782715	0.505615	-0.530029	0.098385	-0.007229	-0.023688	-0.462604	0.515107	0.561365	0.453357	168.611476	-80.551372	104.579954
43449		9.862636	-1.077936	-2.536985	-1.301468	-0.996539	0.295829	0.457936	0.029675	0.875012	-0.781006	0.519043	-0.532227	0.098668	-0.010290	-0.025408	-0.465851	0.516514	0.560015	0.450087	171.904426	-80.652178	101.503026
43450		9.263546	-0.271544	-2.087014	-0.408459	-0.600150	-0.340887	0.623746	0.074387	0.786562	-0.779053	0.523438	-0.536621	0.092637	-0.002286	-0.020912	-0.469469	0.517194	0.559127	0.446639	175.061940	-80.745351	98.661473
43451		9.656338	1.112444	-1.619964	1.019358	0.014638	-0.011320	0.711377	0.089276	0.735074	-0.774902	0.532471	-0.534424	0.096514	0.011537	-0.016202	-0.473199	0.517457	0.558540	0.443118	178.104352	-80.819488	95.987052
43452		9.352544	1.963497	-1.229984	1.925240	0.417032	-0.380967	0.547872	0.075057	0.689655	-0.776855	0.530273	-0.545410	0.093452	0.019991	-0.012280	-0.476382	0.518019	0.557707	0.440090	-179.037633	-80.863665	93.405945
43453		9.902920	0.901543	-1.147113	0.929411	0.509916	0.140814	0.352824	0.057992	0.713911	-0.768066	0.534912	-0.552002	0.098993	0.009389	-0.011483	-0.479030	0.519121	0.556435	0.437520	-176.221909	-80.876808	90.753709
43454		9.728748	0.677716	-1.292401	0.795024	0.324243	-0.012663	0.148863	0.042772	0.739790	-0.770996	0.548096	-0.554443	0.097259	0.007147	-0.012940	-0.481181	0.520828	0.554655	0.435386	-173.404343	-80.859328	87.982167
43455		10.048357	-0.199036	-1.551918	0.021264	0.053739	0.356565	-0.007179	0.033630	0.775051	-0.770996	0.552490	-0.547852	0.100488	-0.001602	-0.015536	-0.482944	0.523001	0.552479	0.433592	-170.606384	-80.812454	85.138739
43456		10.117566	-0.691073	-1.604922	-0.382749	-0.021981	0.447478	-0.074194	0.048149	0.795578	-0.764404	0.554932	-0.556641	0.101198	-0.006514	-0.016071	-0.484633	0.525370	0.550039	0.431943	-167.770540	-80.748981	82.218498
43457		9.819303	0.251137	-1.595763	0.628496	0.011299	0.118708	-0.042640	0.065602	0.778552	-0.764648	0.559326	-0.558838	0.098177	0.002890	-0.015990	-0.486384	0.527552	0.547680	0.430308	-165.033883	-80.675446	79.415602
43458		9.960635	-0.993012	-1.887251	-0.505626	-0.344089	0.355277	0.042826	0.059952	0.749865	-0.764893	0.565918	-0.556641	0.099637	-0.009553	-0.018904	-0.488299	0.529468	0.545567	0.428467	-162.370096	-80.581376	76.736406
43459		9.965006	-0.740126	-1.539997	-0.200723	0.016904	0.295705	0.217953	0.064613	0.776760	-0.760742	0.572754	-0.554443	0.099673	-0.006997	-0.015440	-0.490716	0.530996	0.543758	0.426109	-159.600881	-80.465259	74.050348
43460		9.824431	-0.720375	-1.315765	-0.121709	0.215633	0.122490	0.358836	0.065878	0.776220	-0.765137	0.570313	-0.554443	0.098267	-0.006799	-0.013202	-0.493524	0.532179	0.542217	0.423343	-156.796463	-80.327332	71.410330
43461		9.929471	-0.216001	-1.316951	0.470760	0.268142	0.191377	0.454365	0.068671	0.791180	-0.763184	0.579346	-0.561035	0.099298	-0.001737	-0.013208	-0.496593	0.533135	0.540841	0.420302	-153.996858	-80.167366	68.828686
43462		9.961525	-0.019777	-1.619232	0.784424	-0.008502	0.249033	0.493425	0.064137	0.819605	-0.754395	0.586182	-0.567627	0.099610	0.000250	-0.016224	-0.499824	0.534084	0.539450	0.417042	-151.168543	-79.974745	66.240095
43463		10.319917	0.062099	-1.529605	0.977183	0.145094	0.573241	0.453226	0.065849	0.869326	-0.759277	0.594971	-0.570068	0.103190	0.001104	-0.015328	-0.503022	0.535235	0.537845	0.413782	-148.356138	-79.748658	63.641741
43464		10.390204	-0.661141	-1.631080	0.377605	-0.003019	0.718713	0.371668	0.062952	0.930718	-0.752441	0.597412	-0.574463	0.103926	-0.006097	-0.016355	-0.506129	0.536763	0.535882	0.410548	-145.538908	-79.477935	60.989764
43465		10.387996	-1.046509	-1.526724	0.093549	0.068010	0.738243	0.340840	0.054236	1.005581	-0.746338	0.610840	-0.574463	0.103927	-0.009917	-0.015313	-0.509248	0.538559	0.533680	0.407193	-142.738364	-79.156964	58.333421
43466		10.466998	-0.682209	-1.692915	0.596965	-0.047449	0.795310	0.335744	0.065648	1.087099	-0.757813	0.614990	-0.570068	0.104699	-0.006225	-0.016974	-0.512555	0.540558	0.531185	0.403643	-139.881948	-78.785825	55.614921
43467		10.921693	-0.539723	-1.279448	0.870426	0.448303	1.153242	0.307859	0.075273	1.168473	-0.749268	0.628418	-0.578857	0.109241	-0.004739	-0.012843	-0.515937	0.542793	0.528388	0.399989	-137.057438	-78.364902	52.908129
43468		11.211675	-1.264979	-1.464007	0.351660	0.250993	1.556426	0.323992	0.084718	1.237066	-0.733887	0.637695	-0.572266	0.112186	-0.011932	-0.014707	-0.519525	0.545140	0.525373	0.396106	-134.259830	-77.892204	50.234721
43469		11.480070	-0.857253	-1.597592	0.954816	0.202869	1.768522	0.370641	0.100924	1.272862	-0.738770	0.646484	-0.574707	0.114844	-0.007812	-0.016049	-0.523310	0.547390	0.522307	0.392053	-131.568261	-77.387553	47.691533
43470		11.704744	-0.940064	-2.298873	1.148718	-0.456520	2.088548	0.441000	0.118316	1.288432	-0.723389	0.655762	-0.579102	0.117091	-0.008596	-0.023078	-0.527393	0.549405	0.519296	0.387741	-128.972133	-76.855417	45.293226
43471		11.864840	-0.489858	-2.531884	1.807884	-0.615507	2.177945	0.491731	0.111161	1.277801	-0.726074	0.666748	-0.583496	0.118662	-0.004078	-0.025395	-0.531497	0.551279	0.516377	0.383351	-126.585593	-76.305452	43.124167
43472		11.932074	-1.440173	-2.532572	1.060879	-0.699415	2.403912	0.588718	0.129990	1.292114	-0.715332	0.677979	-0.592285	0.119394	-0.013556	-0.025444	-0.535936	0.552879	0.513511	0.378687	-124.258883	-75.732176	41.069584
43473		11.968460	-1.039463	-2.189261	1.588539	-0.319579	2.290582	0.696876	0.156328	1.347748	-0.718018	0.689209	-0.590088	0.119734	-0.009511	-0.022020	-0.540799	0.554241	0.510614	0.373667	-121.939672	-75.123542	39.080640
43474		12.353028	-1.807520	-1.990491	1.081051	-0.151004	2.782225	0.764624	0.174345	1.420918	-0.702881	0.709473	-0.603516	0.123637	-0.017121	-0.020079	-0.546015	0.555549	0.507543	0.368284	-119.637319	-74.461786	37.144229
43475		12.456675	-0.957319	-1.864553	2.109307	0.075224	2.641357	0.836048	0.220146	1.539987	-0.700928	0.713867	-0.601318	0.124614	-0.008535	-0.018820	-0.551708	0.556828	0.504128	0.362513	-117.288090	-73.735278	35.194391
43476		12.344590	-0.322764	-2.011475	2.931783	-0.018880	2.350339	0.854064	0.241292	1.659720	-0.687988	0.729736	-0.607910	0.123442	-0.002117	-0.020274	-0.557691	0.558283	0.500295	0.356378	-114.975615	-72.928700	33.286736
43477		12.229426	0.029438	-1.594237	3.397233	0.410611	2.035813	0.856073	0.272267	1.785694	-0.683838	0.740967	-0.612305	0.122263	0.001455	-0.016104	-0.563912	0.559930	0.495996	0.349956	-112.720898	-72.044874	31.431521
43478		11.976755	0.780400	-1.203683	4.208969	0.844909	1.459679	0.800717	0.333428	1.939632	-0.666748	0.761230	-0.621094	0.119664	0.009013	-0.012202	-0.570353	0.561956	0.490928	0.343356	-110.497731	-71.068301	29.566956
43479		12.161464	1.305645	-1.335443	5.019232	0.809571	1.391561	0.667518	0.396680	2.099486	-0.651367	0.772705	-0.625488	0.121442	0.014377	-0.013549	-0.576766	0.564569	0.484958	0.336778	-108.378274	-69.998321	27.719371
43480		12.529450	0.539860	-1.382489	4.684870	0.707853	1.880622	0.548986	0.435747	2.259762	-0.638916	0.795166	-0.630127	0.125192	0.006852	-0.014080	-0.583143	0.567776	0.478145	0.330078	-106.398922	-68.823905	25.936223
43481		12.945685	0.677885	-1.144812	5.191145	1.011275	2.077713	0.478437	0.463087	2.391785	-0.621338	0.806641	-0.634521	0.129336	0.008354	-0.011729	-0.589505	0.571370	0.470703	0.323202	-104.575350	-67.562814	24.262018
43482		13.222364	0.400768	-1.423210	5.390157	0.730211	2.328990	0.447317	0.461489	2.492841	-0.599365	0.822510	-0.634521	0.132126	0.005687	-0.014526	-0.595852	0.575207	0.462839	0.316035	-102.923823	-66.225256	22.740197
43483		13.903760	-0.229333	-1.211167	5.360651	0.944973	3.040056	0.492915	0.446086	2.592312	-0.586670	0.844971	-0.647705	0.139024	-0.000461	-0.012424	-0.602338	0.579058	0.454737	0.308376	-101.410794	-64.815937	21.382594
43484		15.371431	0.469893	-0.534467	6.805983	1.916692	3.853958	0.575447	0.531711	2.694167	-0.562500	0.856689	-0.654297	0.153617	0.006785	-0.005736	-0.609307	0.582652	0.446114	0.300406	-99.882637	-63.342613	20.045027
43485		15.939336	1.816759	-1.369546	8.785317	1.351144	3.611687	0.570645	0.614527	2.749675	-0.545166	0.872559	-0.654297	0.159080	0.020396	-0.014129	-0.616398	0.586139	0.436988	0.292464	-98.409340	-61.831930	18.748113
43486		15.542584	1.094304	-2.849971	8.657047	-0.288733	3.447996	0.714514	0.617044	2.805585	-0.523193	0.888428	-0.669678	0.155162	0.013224	-0.028934	-0.623872	0.589175	0.427802	0.283977	-96.983039	-60.274514	17.580745
43487		15.538086	2.212028	-2.662983	9.965781	0.035143	2.600153	1.129051	0.633412	2.883575	-0.503418	0.900146	-0.676270	0.154954	0.024508	-0.026987	-0.632559	0.590922	0.418827	0.274344	-95.429130	-58.660128	16.521994
43488		16.057097	3.812892	-1.889268	11.789621	1.106931	1.836124	1.535406	0.710393	2.945868	-0.479248	0.913818	-0.687256	0.159917	0.040634	-0.019156	-0.642523	0.591246	0.409869	0.263818	-93.697947	-56.999163	15.510527
43489		17.035390	4.347352	-2.041053	13.153117	1.197407	1.968816	1.738510	0.800238	3.048391	-0.452637	0.925537	-0.707031	0.169581	0.046241	-0.020696	-0.653208	0.590830	0.400460	0.252728	-91.900566	-55.266034	14.539605
43490		17.199265	5.221996	-2.338440	14.394453	1.110163	1.145743	1.754420	0.775619	3.208473	-0.428223	0.935059	-0.724609	0.171032	0.055175	-0.023574	-0.663869	0.590507	0.390550	0.240935	-90.236187	-53.426764	13.722456
43491		17.452377	4.109376	-1.334581	13.823390	1.955533	1.514725	1.662863	0.718851	3.364876	-0.410645	0.942139	-0.744385	0.173750	0.044134	-0.013613	-0.674101	0.590656	0.380110	0.228538	-88.777708	-51.484526	13.078428
43492		18.602755	4.586630	-0.465466	15.073934	3.090468	1.611120	1.753378	0.886619	3.472800	-0.368408	0.956299	-0.759766	0.185171	0.049130	-0.005056	-0.684779	0.590278	0.368757	0.216029	-87.249769	-49.470246	12.393653
43493		18.949360	4.352889	-1.083001	15.691375	2.510034	1.440594	1.408756	0.975577	3.545971	-0.345947	0.958984	-0.770508	0.188626	0.046958	-0.011429	-0.694417	0.590894	0.356353	0.204066	-85.957802	-47.398323	11.739126
43494		19.803397	3.518936	-0.697914	16.008771	2.804250	2.055434	0.831792	1.058387	3.616048	-0.317139	0.970703	-0.781494	0.197314	0.038793	-0.007868	-0.702296	0.593315	0.342750	0.193079	-85.026849	-45.278693	11.104208
43495		19.551714	3.156738	-1.552560	16.248831	1.819748	1.468370	0.183044	1.074605	3.607691	-0.290527	0.978027	-0.779297	0.194818	0.035101	-0.016543	-0.708022	0.597779	0.328342	0.183185	-84.517236	-43.153551	10.516668
43496		17.096256	4.502245	-3.525842	16.207053	-0.188353	-1.923176	-0.591467	0.921337	3.592260	-0.259521	0.989502	-0.774902	0.169953	0.047975	-0.036182	-0.710904	0.604871	0.313728	0.174128	-84.566400	-41.049484	10.076966
43497		14.076220	3.196505	-5.427331	13.827532	-2.769335	-3.573724	-0.872836	0.740624	3.419702	-0.233398	1.007813	-0.772705	0.139988	0.034124	-0.054938	-0.712269	0.612659	0.299894	0.165486	-84.871122	-39.048840	9.765399
43498		11.410623	2.684452	-3.722302	11.254265	-1.613983	-5.123347	-0.511751	0.699336	3.059791	-0.210938	1.008301	-0.766113	0.113548	0.028489	-0.037692	-0.714160	0.618461	0.287560	0.157450	-84.980712	-37.263473	9.459549
43499		12.567501	-10.430326	-2.045233	4.472378	-2.240102	5.867833	-0.249535	0.369100	2.880980	-0.184082	1.015381	-0.765869	0.127122	-0.102505	-0.020557	-0.716091	0.623199	0.277058	0.148577	-85.081478	-35.590101	9.379906
43500		12.337949	-8.050795	-1.985475	6.024347	-1.752047	3.663362	0.429535	0.659950	2.871821	-0.161865	1.018066	-0.772461	0.124451	-0.078683	-0.020435	-0.720363	0.625127	0.266031	0.139713	-84.683981	-33.914477	9.104653
43501		8.155513	0.888140	-3.127620	7.838147	-1.828141	-6.305170	-0.154048	0.476557	1.787696	-0.159912	1.026855	-0.768066	0.081397	0.009585	-0.031477	-0.721712	0.627760	0.258559	0.134892	-84.663245	-32.858722	8.897352
43502		4.457662	4.203758	-3.259056	6.538016	-1.885743	-11.177185	-0.637100	0.324528	0.589946	-0.150879	1.022705	-0.768066	0.044399	0.042064	-0.032797	-0.720486	0.630643	0.255104	0.134579	-84.937303	-32.502792	8.718254
43503		3.885195	3.407178	-2.366173	5.460647	-1.265829	-10.751384	-1.041191	0.187501	-0.172525	-0.148682	1.027100	-0.754883	0.038859	0.033914	-0.023875	-0.717294	0.634097	0.254219	0.137046	-85.467647	-32.581721	8.585719
43504		3.000130	1.603260	-2.197949	3.745046	-1.535045	-9.670297	-1.183484	0.097330	-0.573044	-0.159912	1.024658	-0.737305	0.030036	0.015816	-0.022088	-0.713220	0.637579	0.254873	0.140891	-86.102744	-32.903022	8.495326
43505		1.802351	0.398048	-2.058666	2.076127	-1.742888	-9.267775	-1.039044	0.035031	-0.942680	-0.171387	1.031006	-0.733154	0.018038	0.003788	-0.020610	-0.709250	0.640102	0.256965	0.145613	-86.670020	-33.430136	8.434760
43506		1.250981	-0.185338	-1.822076	1.247886	-1.664661	-9.044017	-0.882248	-0.024370	-1.359478	-0.184814	1.026367	-0.728760	0.012499	-0.002019	-0.018211	-0.705343	0.641527	0.260754	0.151466	-87.165266	-34.206750	8.405486
43507		1.295852	-0.741678	-1.696740	0.932390	-1.609709	-8.529097	-0.763715	-0.102277	-1.828167	-0.198242	1.028076	-0.722168	0.012898	-0.007600	-0.016932	-0.701321	0.641943	0.266337	0.158503	-87.617675	-35.245073	8.422587
43508		1.508521	-1.195474	-1.621243	0.795792	-1.566068	-8.010705	-0.570353	-0.165246	-2.354389	-0.222900	1.025391	-0.713379	0.014956	-0.012177	-0.016166	-0.697313	0.640939	0.274003	0.166958	-87.984287	-36.594696	8.479935
43509		1.514406	-1.150152	-1.448139	0.747524	-1.389849	-8.017518	-0.344336	-0.219791	-2.872121	-0.249512	1.013916	-0.711426	0.014992	-0.011742	-0.014445	-0.693419	0.638382	0.283605	0.176652	-88.243858	-38.232795	8.574054
43510		1.358994	-0.545700	-1.250424	0.913095	-1.141674	-8.559355	-0.162398	-0.259690	-3.345177	-0.273926	1.008789	-0.709229	0.013512	-0.005694	-0.012482	-0.689440	0.634390	0.294999	0.187609	-88.421986	-40.150920	8.698744
43511		1.553874	0.556099	-0.725824	1.637640	-0.466401	-9.220365	-0.037431	-0.314624	-3.855350	-0.313721	0.992676	-0.709229	0.015653	0.005259	-0.007235	-0.685096	0.629073	0.308170	0.199854	-88.558139	-42.353080	8.864968
43512		2.083202	1.515430	-0.351249	2.576718	0.087341	-9.478818	-0.035602	-0.345450	-4.350939	-0.349121	0.978516	-0.707031	0.021161	0.014696	-0.003479	-0.679900	0.622737	0.322929	0.213661	-88.720557	-44.847961	9.061703
43513		3.238432	1.995949	0.161713	3.599247	0.787001	-8.853151	-0.067141	-0.395199	-4.774977	-0.384521	0.964600	-0.702637	0.032845	0.019179	0.001675	-0.673744	0.615567	0.338922	0.228644	-88.945230	-47.577076	9.312517
43514		4.373404	1.709743	0.016619	4.093062	0.727830	-7.630376	-0.110424	-0.487839	-5.086070	-0.424072	0.941650	-0.702637	0.044149	0.015978	0.000265	-0.666502	0.607728	0.355981	0.244374	-89.289518	-50.493335	9.676218
43515		5.293702	1.215411	-0.004037	4.151650	0.732380	-6.389094	0.007204	-0.557742	-5.290283	-0.458984	0.914307	-0.696045	0.053234	0.010749	0.000108	-0.658822	0.598826	0.373744	0.260147	-89.667909	-53.516422	10.154996
43516		5.895637	0.692743	-0.072225	3.888452	0.646256	-5.374559	-0.006174	-0.663875	-5.481423	-0.507568	0.888916	-0.693848	0.059119	0.005308	-0.000526	-0.650141	0.589289	0.392191	0.276117	-90.224247	-56.655926	10.821246
43517		6.691790	-0.408945	-0.422760	3.185899	0.206639	-3.903295	0.058020	-0.759794	-5.724115	-0.533203	0.859619	-0.682861	0.066780	-0.006001	-0.003975	-0.640642	0.578755	0.411389	0.292198	-90.959809	-59.920141	11.718646
43518		7.561782	-1.173532	-0.480315	2.586774	0.101077	-2.596791	0.278736	-0.849648	-5.987090	-0.572266	0.821045	-0.687012	0.075241	-0.013985	-0.004501	-0.630619	0.566575	0.431652	0.308202	-91.872304	-63.336239	12.929599
43519		8.124035	-1.232927	-0.175574	2.257313	0.423769	-1.922602	0.525693	-0.952880	-6.262867	-0.617920	0.782471	-0.678223	0.080809	-0.014861	-0.001407	-0.620080	0.552663	0.452936	0.323904	-93.092089	-66.886979	14.599987
43520		8.948720	-0.585380	-0.287661	2.649575	0.491673	-1.256145	0.660969	-1.126903	-6.468037	-0.654541	0.741943	-0.675781	0.089250	-0.008735	-0.002399	-0.608499	0.537543	0.475123	0.339166	-95.060448	-70.537042	17.111007
43521		10.311995	0.414899	-0.141305	3.370097	0.953629	-0.105881	0.596471	-1.295505	-6.614589	-0.682129	0.701416	-0.666992	0.103188	0.000739	-0.000739	-0.595461	0.521989	0.497528	0.354146	-98.452786	-74.204244	21.021773
43522		11.870225	0.498871	0.136192	3.059842	1.397634	1.580204	0.310711	-1.462368	-6.716409	-0.716064	0.647461	-0.657959	0.118766	0.000997	0.002234	-0.580346	0.506690	0.519663	0.369343	-104.696652	-77.810157	27.629928
43523		13.784826	0.496176	0.513249	2.463737	1.960055	3.623916	0.000057	-1.569234	-6.788787	-0.743652	0.602295	-0.635742	0.137865	0.000282	0.006214	-0.563385	0.491729	0.541047	0.384796	-116.637900	-81.139539	39.763796
43524		15.560077	0.092711	0.911745	1.173442	2.442028	5.533833	-0.296269	-1.621691	-6.858800	-0.772949	0.550781	-0.626709	0.155430	-0.004391	0.010382	-0.544680	0.476876	0.561566	0.400695	-140.922506	-83.674110	64.073399
43525		17.305364	-0.392335	1.210033	-0.438873	2.802340	7.302293	-0.541441	-1.638617	-6.928047	-0.786865	0.501465	-0.606689	0.172673	-0.009875	0.013538	-0.524570	0.461969	0.581052	0.416881	-179.881762	-84.141391	102.920016
43526		19.220498	-0.945604	1.441102	-2.368013	3.097422	9.082821	-0.860031	-1.635358	-6.984817	-0.805420	0.454590	-0.591309	0.191594	-0.016089	0.016039	-0.502890	0.447091	0.599293	0.433657	149.305008	-82.106881	133.438644
43527		21.390918	-2.146536	1.273625	-5.125516	2.895082	10.898496	-1.286884	-1.615700	-6.977999	-0.821289	0.400879	-0.571289	0.212876	-0.028816	0.014629	-0.479722	0.432719	0.615716	0.451126	133.393550	-78.862624	148.810382
43528		23.015095	-3.979063	0.970419	-8.609167	2.395656	11.783318	-1.699320	-1.527497	-6.859691	-0.832764	0.351807	-0.551025	0.228523	-0.047554	0.011836	-0.455521	0.418892	0.629969	0.469223	124.617357	-75.247518	156.804674
43529		24.053489	-6.422468	1.551763	-12.771638	2.608127	11.449304	-1.877268	-1.288111	-6.642197	-0.838135	0.311523	-0.540039	0.238120	-0.072001	0.017708	-0.431685	0.405104	0.641971	0.487249	118.931482	-71.628324	161.606158
43530		24.444969	-6.721555	2.770043	-14.736379	3.818967	10.643307	-1.812114	-0.989961	-6.344905	-0.838379	0.258301	-0.528564	0.242016	-0.074658	0.029557	-0.409112	0.390891	0.652161	0.504497	114.793585	-68.128394	164.898277
43531		24.727591	-6.607172	1.593259	-15.803988	2.750781	10.190464	-2.072157	-0.801032	-5.833095	-0.843750	0.222656	-0.517334	0.245144	-0.073066	0.017650	-0.387557	0.378034	0.659606	0.521354	111.560385	-64.883769	167.122306
43532		24.387174	-8.722234	-0.591625	-18.391901	0.298475	8.425958	-2.463115	-0.662405	-5.141869	-0.848877	0.184814	-0.510742	0.241537	-0.093510	-0.003988	-0.367139	0.367480	0.663880	0.537987	108.827844	-61.990798	168.591327
43533		21.124861	-13.106310	-3.117343	-21.339850	-2.937162	2.978235	-2.766935	-0.641321	-4.330513	-0.854980	0.164551	-0.506104	0.208434	-0.136005	-0.028643	-0.348176	0.359879	0.665299	0.553748	106.527114	-59.524720	169.404903
43534		16.526965	-18.961583	-4.837767	-24.477322	-5.422300	-4.574247	-2.645734	-0.709980	-3.443177	-0.847168	0.138184	-0.494873	0.162130	-0.193038	-0.045260	-0.331438	0.354978	0.665200	0.567140	104.781282	-57.521174	169.666883
43535		13.359748	-25.140341	-3.341913	-28.266345	-4.431817	-11.541848	-1.828451	-0.663087	-2.558405	-0.848633	0.120361	-0.490479	0.130469	-0.253375	-0.030673	-0.318712	0.351425	0.665519	0.576201	103.747314	-56.016772	169.644415
43536		13.800046	-29.245246	-0.522586	-31.965097	-1.672226	-14.439859	-0.467518	-0.384348	-1.564127	-0.855225	0.113525	-0.490479	0.135716	-0.293531	-0.004278	-0.312113	0.348143	0.667457	0.579554	103.484594	-55.102733	169.631258
43537		15.261171	-29.080059	0.523684	-32.622571	-0.520771	-13.596694	0.753644	-0.030879	-0.408736	-0.848389	0.111328	-0.483887	0.152016	-0.291129	0.004164	-0.312158	0.345780	0.670344	0.577610	103.864225	-54.880907	169.688758
43538		15.601471	-24.910971	-0.303780	-29.354870	-1.187631	-10.771655	1.335516	0.185684	0.850561	-0.848877	0.124756	-0.490479	0.157068	-0.248415	-0.004844	-0.317575	0.346099	0.672359	0.572097	104.655851	-55.391643	169.650242
43539		14.859082	-20.494503	-0.056257	-25.269127	-0.823904	-8.555035	1.238790	0.382396	2.066637	-0.844971	0.142578	-0.497070	0.150695	-0.203385	-0.002112	-0.326915	0.350051	0.671618	0.565262	105.511807	-56.601727	169.467824
43540		15.283644	-18.583700	-0.354133	-23.805933	-1.034148	-6.462596	0.984565	0.479381	3.169899	-0.832520	0.167236	-0.499512	0.155745	-0.183362	-0.004819	-0.339215	0.357796	0.667905	0.557510	106.451309	-58.438290	169.017341
43541		20.202170	7.715782	-7.727410	-2.973963	-4.569745	12.494103	1.054603	-0.273021	3.341829	-0.833252	0.187256	-0.501709	0.200795	0.080925	-0.076579	-0.349473	0.367964	0.665175	0.547734	108.275918	-60.228749	167.592914
43542		4.950922	57.590599	-9.473396	48.686336	-1.220718	22.729700	0.652641	-0.162240	1.543771	-0.829102	0.191650	-0.501953	0.045136	0.576571	-0.092815	-0.354409	0.372510	0.664310	0.542515	109.321244	-61.051982	166.817661
43543		13.575544	18.553365	-4.483335	10.322960	-0.508188	11.206230	-0.450182	0.441014	1.007590	-0.822754	0.205078	-0.504150	0.134719	0.186112	-0.045550	-0.357781	0.375543	0.660368	0.543024	108.979069	-61.689598	166.907844
43544		14.366092	1.362508	0.535658	-5.342020	2.241997	3.414495	0.254625	0.300462	1.830253	-0.823486	0.220703	-0.512939	0.143536	0.014932	0.005159	-0.364242	0.380403	0.656994	0.539425	109.479925	-62.748905	166.501326
43545		16.047483	-2.491556	-0.796325	-9.146596	0.637957	3.614240	-0.412500	0.073270	2.554753	-0.822021	0.240723	-0.508789	0.160773	-0.022880	-0.007974	-0.370577	0.389407	0.650782	0.536207	110.165325	-64.149521	165.465304
43546		20.132342	0.986555	-2.228140	-7.202872	0.171098	9.142853	-0.758670	-0.184869	2.848262	-0.815918	0.258545	-0.504395	0.201177	0.012647	-0.022140	-0.376134	0.400641	0.643408	0.532951	111.182647	-65.652102	163.856866
43547		16.960621	2.499128	2.373862	-4.314648	4.600174	6.303885	-1.055984	-0.311707	2.831485	-0.819092	0.282959	-0.502441	0.169191	0.027514	0.023862	-0.380535	0.412609	0.635380	0.530320	112.342082	-67.101850	161.925608
43548		12.025234	-4.745422	1.703984	-8.779122	2.750954	-0.572895	-1.384456	-0.309784	2.953112	-0.813232	0.307373	-0.498047	0.120907	-0.045552	0.017547	-0.384516	0.425497	0.626050	0.528357	113.586480	-68.604022	159.720830
43549		12.065029	-4.129876	-3.251974	-7.763758	-1.965556	0.629770	-1.004498	-0.182923	3.139594	-0.813965	0.322754	-0.493896	0.121310	-0.039560	-0.032207	-0.390064	0.437769	0.616928	0.524984	115.257905	-70.207686	157.315278
43550		9.773705	-0.327458	-5.260222	-3.131873	-3.928030	0.089783	-0.710810	-0.217891	2.987743	-0.808105	0.345215	-0.496094	0.097830	-0.002000	-0.052487	-0.395677	0.448999	0.608798	0.520772	117.395067	-71.700495	154.619044
43551		9.046660	-1.452709	-4.347911	-3.793281	-3.140640	-0.947058	-0.389430	-0.233876	2.753436	-0.799805	0.360840	-0.494141	0.090707	-0.013364	-0.043346	-0.401237	0.458803	0.601949	0.515913	119.941742	-73.029057	151.707564
43552		9.864742	-5.224616	-3.455084	-7.446852	-2.271650	-1.099219	-0.134305	-0.138225	2.573163	-0.802734	0.378418	-0.491943	0.099333	-0.050994	-0.034448	-0.407160	0.467245	0.595850	0.510750	122.739878	-74.260105	148.707044
43553		12.939183	-13.012386	-5.535194	-15.470990	-4.181960	0.700181	0.398033	-0.068591	2.709939	-0.798828	0.394287	-0.500732	0.131157	-0.128244	-0.055564	-0.414780	0.474725	0.590562	0.503816	126.376968	-75.524514	145.171013
43554		13.591849	-1.394068	0.374900	-3.967618	2.249733	3.071645	1.342139	0.087400	2.921495	-0.799561	0.416260	-0.503174	0.136105	-0.011978	0.003605	-0.425575	0.480400	0.586670	0.493883	131.310613	-76.872404	140.878960
43555		7.428570	-2.154949	-1.083053	-3.319051	-0.119000	-2.743929	1.127742	0.005132	2.219792	-0.793457	0.429932	-0.505371	0.074518	-0.020662	-0.010951	-0.433759	0.484547	0.584009	0.485799	135.888911	-77.802033	136.843820
43556		10.323529	-1.384193	-0.034065	-2.848076	1.373739	0.111501	1.394607	0.061995	2.135124	-0.793945	0.443115	-0.516357	0.103375	-0.012736	-0.000464	-0.442514	0.487681	0.581959	0.477151	141.035727	-78.650294	132.398864
43557		9.004417	0.345782	0.414643	-0.789838	1.745785	-0.998093	0.995871	0.070192	1.903588	-0.792236	0.458740	-0.520996	0.090007	0.004294	0.004135	-0.449672	0.490906	0.579447	0.470157	146.042506	-79.335604	127.874548
43558		9.226780	0.722577	0.859056	-0.304531	2.256897	-0.801292	0.535947	0.000607	1.724377	-0.788086	0.465576	-0.516602	0.092201	0.007998	0.008611	-0.455069	0.494787	0.576366	0.464651	151.023702	-79.859432	123.118472
43559		9.547715	1.536436	0.699413	0.639733	2.224211	-0.397259	-0.106461	-0.057459	1.602664	-0.786377	0.480957	-0.514404	0.095348	0.016132	0.007013	-0.458356	0.499851	0.572209	0.461125	155.786769	-80.243873	118.215724
43560		9.554275	1.585876	-0.785290	0.929871	0.775664	-0.171731	-0.594600	-0.123756	1.437130	-0.777588	0.487793	-0.507813	0.095430	0.016521	-0.007842	-0.459858	0.505705	0.567428	0.459151	160.196911	-80.491617	113.393032
43561		9.628263	0.741496	-1.436218	0.244210	0.100943	-0.053325	-0.988434	-0.181695	1.284073	-0.785156	0.509766	-0.508057	0.096246	0.007962	-0.014313	-0.459783	0.512105	0.562253	0.458497	164.095308	-80.618951	108.861860
43562		10.722021	-3.315174	-2.713992	-3.689696	-1.176175	1.064779	-0.923103	-0.160517	1.250252	-0.781006	0.516602	-0.508057	0.107447	-0.032605	-0.026902	-0.459860	0.518201	0.557203	0.457734	168.029846	-80.704431	104.334509
43563		10.448775	-3.216084	-3.079794	-3.460869	-1.526299	0.896977	-0.486175	-0.105834	1.142283	-0.776855	0.520996	-0.503662	0.104686	-0.031638	-0.030665	-0.460918	0.522817	0.553304	0.456148	171.829128	-80.758448	100.197624
43564		10.332157	-2.712741	-2.065496	-2.884882	-0.500380	0.666095	0.076958	-0.050439	0.951191	-0.774902	0.532227	-0.508301	0.103454	-0.026628	-0.020639	-0.463184	0.525488	0.551017	0.453545	175.331382	-80.790366	96.690231
43565		9.627339	-2.055214	-2.146738	-2.118980	-0.663806	0.015167	0.484583	-0.012552	0.758255	-0.772705	0.534424	-0.506104	0.096352	-0.020135	-0.021510	-0.466144	0.526561	0.550088	0.450384	178.352077	-80.805031	93.906289
43566		9.671806	-0.801402	-2.047559	-0.787231	-0.512097	0.061323	0.657285	0.036703	0.660059	-0.779785	0.541016	-0.521484	0.096740	-0.007627	-0.020519	-0.469496	0.526865	0.549653	0.447067	-178.829117	-80.825421	91.428461
43567		9.668138	0.721123	-1.369072	0.775542	0.223141	-0.054836	0.502593	0.065340	0.588687	-0.764160	0.545654	-0.510498	0.096655	0.007530	-0.013704	-0.472318	0.527236	0.549010	0.444440	-176.381000	-80.845587	89.235243
43568		10.237117	0.206800	-1.449086	0.332435	0.207213	0.521112	0.252731	0.082134	0.558704	-0.762451	0.556885	-0.521484	0.102359	0.002372	-0.014530	-0.474487	0.528095	0.547817	0.442578	-174.128976	-80.862320	87.096950
43569		9.856768	0.658781	-1.648764	0.850041	-0.032351	0.166513	0.113191	0.091997	0.515277	-0.764648	0.556885	-0.528076	0.098543	0.006851	-0.016529	-0.476181	0.529115	0.546428	0.441254	-172.141248	-80.875392	85.144256
43570		9.973837	-0.078077	-1.726290	0.174962	-0.134643	0.307324	0.130633	0.110352	0.487040	-0.762451	0.561523	-0.532471	0.099730	-0.000527	-0.017318	-0.477938	0.529996	0.545079	0.439965	-170.189171	-80.890161	83.239017
43571		9.902549	-0.284205	-1.685924	0.017991	-0.125557	0.235561	0.110130	0.129076	0.479448	-0.762451	0.561523	-0.528076	0.099021	-0.002595	-0.016925	-0.479640	0.530836	0.543682	0.438826	-168.296883	-80.906873	81.381366
43572		10.234747	-0.882079	-1.329980	-0.535615	0.237188	0.529148	0.067021	0.123467	0.518681	-0.762695	0.568115	-0.530273	0.102362	-0.008551	-0.013366	-0.481324	0.531918	0.542070	0.437664	-166.254796	-80.904477	79.348141
43573		10.237451	-0.732997	-1.220639	-0.336318	0.344458	0.512070	0.010111	0.117242	0.528685	-0.760742	0.574707	-0.530273	0.102386	-0.007059	-0.012267	-0.482829	0.533151	0.540344	0.436640	-164.258073	-80.886979	77.326671
43574		9.973795	-0.464794	-1.516412	-0.005073	0.018827	0.286397	0.057590	0.081053	0.506065	-0.753906	0.572754	-0.536865	0.099743	-0.004391	-0.015206	-0.484339	0.534304	0.538839	0.435416	-162.323791	-80.841102	75.396893
43575		9.776981	-0.759473	-1.736205	-0.240908	-0.246321	0.140284	0.183308	0.040526	0.495711	-0.758789	0.579346	-0.534668	0.097785	-0.007336	-0.017389	-0.486020	0.535189	0.537755	0.433793	-160.457178	-80.766445	73.607232
43576		9.846651	-0.246798	-1.759198	0.331939	-0.232639	0.184695	0.335461	0.021396	0.516709	-0.756836	0.590332	-0.539307	0.098471	-0.002184	-0.017606	-0.488126	0.535817	0.536963	0.431629	-158.456919	-80.666073	71.771086
43577		9.897762	-0.247064	-1.454621	0.375523	0.076808	0.187085	0.439899	0.016164	0.540089	-0.758789	0.581543	-0.539063	0.098983	-0.002171	-0.014559	-0.490515	0.536238	0.536364	0.429135	-156.406548	-80.549195	69.943181
43578		9.931518	0.693344	-1.397787	1.376112	0.195034	0.144094	0.511655	0.012220	0.598400	-0.754639	0.590576	-0.552490	0.099293	0.007266	-0.013966	-0.493231	0.536660	0.535741	0.426263	-154.160863	-80.403279	67.959235
43579		10.249390	0.567448	-0.974360	1.309384	0.660292	0.393708	0.480102	0.005245	0.627004	-0.752686	0.597168	-0.548096	0.102475	0.006019	-0.009732	-0.495870	0.537222	0.535007	0.423406	-151.955790	-80.235846	65.996219
43580		10.338217	-0.107022	-0.901299	0.715189	0.708251	0.516345	0.467199	0.007192	0.721945	-0.747803	0.590576	-0.550293	0.103385	-0.000676	-0.009019	-0.498697	0.538076	0.533953	0.420321	-149.532039	-80.027495	63.803591
43581		10.259793	-0.067305	-0.802259	0.824169	0.801199	0.414224	0.388023	0.013065	0.798953	-0.748291	0.599609	-0.561279	0.102599	-0.000248	-0.008030	-0.501453	0.539291	0.532523	0.417288	-147.060821	-79.785252	61.514196
43582		10.524717	-1.200170	-1.293967	-0.142211	0.282083	0.854263	0.326693	0.032247	0.895101	-0.746338	0.610596	-0.552490	0.105297	-0.011509	-0.012976	-0.504309	0.540880	0.530624	0.414196	-144.436558	-79.501187	59.032535
43583		10.600282	-1.046167	-1.406851	0.132831	0.196806	0.928929	0.272770	0.031450	0.976023	-0.744385	0.617432	-0.554688	0.106050	-0.009925	-0.014099	-0.507148	0.542792	0.528405	0.411054	-141.814437	-79.171288	56.518224
43584		10.774019	-0.403700	-1.343727	0.894514	0.336700	1.010135	0.270366	0.049503	1.013222	-0.742676	0.628418	-0.552490	0.107755	-0.003473	-0.013469	-0.510149	0.544726	0.526046	0.407795	-139.212756	-78.812398	54.031348
43585		11.095546	-1.166314	-1.754714	0.334955	-0.071836	1.475883	0.312765	0.064022	1.059657	-0.745117	0.637451	-0.563721	0.111009	-0.011048	-0.017600	-0.513324	0.546658	0.523569	0.404399	-136.646497	-78.423460	51.591252
43586		11.093382	-0.423858	-2.019927	1.222797	-0.276071	1.401145	0.373997	0.076382	1.101653	-0.736328	0.644287	-0.563721	0.110947	-0.003590	-0.020249	-0.516824	0.548469	0.521078	0.400690	-134.091540	-77.998783	49.205863
43587		11.559824	-1.216783	-2.142979	0.654373	-0.384896	1.982414	0.444960	0.081480	1.138156	-0.732422	0.655518	-0.565918	0.115656	-0.011462	-0.021503	-0.520528	0.550192	0.518570	0.396766	-131.612432	-77.542582	46.924893
43588		11.759462	-0.640381	-1.812651	1.365347	0.017123	2.024305	0.540125	0.096920	1.189189	-0.730469	0.664307	-0.561523	0.117621	-0.005655	-0.018199	-0.524669	0.551716	0.516077	0.392423	-129.125984	-77.046444	44.698931
43589		11.575380	-1.086856	-1.600480	1.028301	0.157823	1.876963	0.634352	0.104687	1.228588	-0.723877	0.671143	-0.570313	0.115809	-0.010106	-0.016098	-0.529088	0.553084	0.513588	0.387803	-126.705014	-76.517655	42.580249
43590		11.836164	-1.517406	-1.199483	0.768459	0.551749	2.143014	0.776607	0.101620	1.305400	-0.724609	0.688965	-0.572754	0.118451	-0.014354	-0.012112	-0.534031	0.554262	0.511124	0.382565	-124.272078	-75.929061	40.528996
43591		12.115787	-1.378640	-1.142136	1.126878	0.656933	2.364877	0.951280	0.169737	1.427165	-0.711426	0.697998	-0.577148	0.121242	-0.012867	-0.011587	-0.539811	0.555105	0.508459	0.376739	-121.665828	-75.285279	38.395817
43592		11.788100	-0.298206	-2.202817	2.448688	-0.338175	1.925562	0.998901	0.226931	1.580203	-0.702881	0.707031	-0.581543	0.117874	-0.001940	-0.022173	-0.546130	0.556066	0.505244	0.370488	-118.964337	-74.555576	36.186299
43593		11.970094	0.712160	-2.522661	3.726859	-0.519332	1.848800	0.962607	0.267387	1.759609	-0.696777	0.720459	-0.585938	0.119598	0.008296	-0.025349	-0.552712	0.557439	0.501323	0.363933	-116.285326	-73.722347	33.969432
43594		12.034372	1.240853	-2.477515	4.477627	-0.405935	1.688815	0.838313	0.306973	1.919593	-0.686279	0.740723	-0.594727	0.120178	0.013667	-0.024904	-0.559293	0.559433	0.496549	0.357303	-113.721075	-72.786063	31.788692
43595		12.311180	0.885197	-1.784830	4.347893	0.269858	1.872825	0.721065	0.358144	2.074776	-0.675537	0.758789	-0.601563	0.122979	0.010193	-0.018033	-0.565868	0.561973	0.490945	0.350646	-111.291357	-71.755163	29.666355
43596		12.565480	1.219626	-1.207886	4.906135	0.904787	1.846722	0.660782	0.434438	2.222494	-0.658203	0.772461	-0.608154	0.125482	0.013632	-0.012308	-0.572657	0.564845	0.484526	0.343874	-108.937277	-70.631384	27.574804
43597		12.689297	1.397130	-1.253489	5.396507	0.885116	1.790224	0.535956	0.475170	2.365567	-0.647461	0.788086	-0.614746	0.126685	0.015505	-0.012796	-0.579341	0.568260	0.477313	0.337071	-106.776867	-69.413465	25.597561
43598		12.894885	1.533505	-1.122199	5.860054	1.042524	1.782687	0.392396	0.495317	2.486028	-0.625977	0.808594	-0.619141	0.128717	0.016958	-0.011509	-0.585785	0.572257	0.469370	0.330256	-104.851598	-68.107155	23.768385
43599		13.090510	1.048541	-1.283129	5.816025	0.830244	2.001769	0.295888	0.513606	2.622328	-0.613037	0.826660	-0.614746	0.130719	0.012219	-0.013150	-0.592108	0.576723	0.460753	0.323273	-103.127790	-66.709050	22.079581
43600		13.327167	0.709553	-1.500863	5.959952	0.586459	2.207826	0.220452	0.507839	2.741570	-0.600342	0.846924	-0.625977	0.133119	0.008938	-0.015338	-0.598289	0.581587	0.451591	0.316025	-101.612966	-65.224511	20.554272
43601		14.328995	0.462048	-1.368914	6.466002	0.808957	3.029781	0.251128	0.537288	2.880379	-0.569336	0.858643	-0.628174	0.143166	0.006700	-0.014066	-0.604711	0.586504	0.441901	0.308320	-100.190729	-63.650902	19.131744
43602		15.209089	1.560539	-2.069077	8.323371	0.350931	3.172412	0.245467	0.608018	2.965903	-0.552002	0.876709	-0.632568	0.151773	0.017883	-0.021131	-0.611274	0.591385	0.431632	0.300503	-98.838342	-62.020668	17.764566
43603		15.116042	1.400953	-3.552665	8.793675	-1.178946	3.006859	0.360576	0.626474	3.024723	-0.532471	0.894775	-0.639160	0.150813	0.016357	-0.035971	-0.618154	0.595872	0.421208	0.292244	-97.544118	-60.345235	16.517580
43604		15.286380	1.205021	-4.288283	9.239814	-1.938186	3.007682	0.732562	0.628663	3.101292	-0.506104	0.908691	-0.645752	0.152515	0.014575	-0.043312	-0.626102	0.599213	0.410985	0.282898	-96.164722	-58.613075	15.398008
43605		16.125837	2.454266	-3.747519	11.047836	-1.163771	2.704252	1.201307	0.649840	3.170748	-0.479492	0.918213	-0.656738	0.160717	0.027320	-0.037839	-0.635418	0.601032	0.401034	0.272353	-94.626722	-56.828322	14.387180
43606		17.210540	3.025190	-3.315081	12.454776	-0.531439	2.872258	1.541521	0.718567	3.235015	-0.455566	0.938721	-0.674316	0.171463	0.033286	-0.033519	-0.645776	0.601610	0.391014	0.261049	-92.963182	-54.996251	13.438974
43607		17.162993	4.340863	-4.046794	14.068352	-1.064055	1.619698	1.665008	0.701769	3.384543	-0.428955	0.948242	-0.696289	0.170716	0.046641	-0.040689	-0.656443	0.601896	0.380615	0.248871	-91.362800	-53.062641	12.634237
43608		16.951855	4.393466	-3.243500	14.239636	-0.257416	0.879247	1.594367	0.566466	3.503514	-0.402100	0.955322	-0.711426	0.168619	0.047153	-0.032546	-0.666533	0.602576	0.370086	0.235950	-90.011112	-51.050892	12.071978
43609		17.706940	3.046521	-1.483860	13.732086	1.394839	1.783185	1.659123	0.572296	3.645905	-0.364502	0.967285	-0.720215	0.176430	0.033810	-0.015073	-0.676741	0.603064	0.359024	0.222345	-88.705922	-48.947589	11.602691
43610		18.281408	4.576429	-1.077280	15.551255	2.185749	0.658837	1.682176	0.672355	3.667367	-0.342041	0.972168	-0.739990	0.181896	0.049197	-0.010981	-0.686929	0.603142	0.347457	0.208857	-87.404290	-46.827546	11.140056
43611		19.031270	3.609406	-0.212923	15.581655	2.991050	1.299677	1.210895	0.692983	3.682959	-0.306396	0.979736	-0.752930	0.189597	0.039605	-0.002554	-0.695481	0.604608	0.335117	0.196090	-86.428281	-44.688372	10.739213
43612		19.651180	2.647578	0.104492	15.718266	3.212616	1.838883	0.682723	0.757587	3.674996	-0.284180	0.986816	-0.757324	0.195983	0.030078	0.000400	-0.702261	0.607595	0.321964	0.184386	-85.769958	-42.552770	10.344018
43613		17.874339	3.931673	-1.708908	16.062496	1.458548	-0.997812	0.270928	0.722422	3.554850	-0.255127	0.991699	-0.757324	0.177944	0.042508	-0.017677	-0.707389	0.611664	0.308775	0.173566	-85.396414	-40.479545	10.007071
43614		14.530407	4.154924	-3.133317	14.273534	-0.335203	-3.952094	0.027310	0.557136	3.251047	-0.233154	1.001221	-0.759521	0.144515	0.043907	-0.031731	-0.711025	0.616070	0.296835	0.163677	-85.252181	-38.593215	9.796305
43615		11.408048	2.753772	-2.798624	11.120591	-0.691697	-5.186394	0.384896	0.566607	2.873141	-0.206543	1.010498	-0.766113	0.113589	0.029226	-0.028253	-0.715305	0.618498	0.286204	0.154551	-84.898470	-36.914652	9.570540
43616		12.005312	-6.776957	0.929712	5.531808	1.218932	2.789734	0.623544	0.567821	2.568280	-0.184082	1.013184	-0.770264	0.120936	-0.066248	0.008746	-0.719929	0.619496	0.276685	0.146190	-84.413251	-35.416553	9.343966
43617		13.283567	-11.628262	-2.059378	4.941845	-2.468745	7.080270	0.652080	0.572603	2.774486	-0.161865	1.018066	-0.779053	0.134371	-0.114357	-0.021352	-0.724672	0.620564	0.266430	0.136989	-83.933449	-33.791276	9.148105
43618		8.852029	-0.551491	-2.980101	7.659112	-1.837815	-4.762759	-0.027647	0.430611	1.804222	-0.152588	1.013916	-0.781250	0.088501	-0.004721	-0.029991	-0.726327	0.622794	0.259243	0.131794	-83.868949	-32.734836	8.990949
43619		4.618999	3.901703	-2.377042	6.343028	-0.994119	-10.805744	-1.011611	0.311906	0.659045	-0.144043	1.022705	-0.765869	0.046024	0.039048	-0.024040	-0.723980	0.627164	0.255339	0.131609	-84.367350	-32.330388	8.830494
43620		3.626723	3.669952	-1.349868	5.180215	-0.226635	-11.060624	-1.702979	0.197926	-0.139477	-0.150635	1.020264	-0.750488	0.036279	0.036557	-0.013846	-0.718734	0.633044	0.253934	0.134882	-85.275499	-32.397803	8.692983
43621		3.322662	2.266496	-1.101875	4.154391	-0.313351	-9.996248	-2.032365	0.096458	-0.621276	-0.151123	1.029053	-0.728516	0.033291	0.022448	-0.011264	-0.711943	0.639517	0.254120	0.139921	-86.395543	-32.738181	8.601032
43622		2.078705	0.701218	-1.519764	2.364689	-1.140741	-9.334027	-2.048033	0.025336	-0.996393	-0.169189	1.031006	-0.713379	0.020819	0.006752	-0.015270	-0.704644	0.645529	0.255769	0.146123	-87.548387	-33.305665	8.552110
43623		1.112309	-0.614694	-1.897991	0.897041	-1.803834	-8.736260	-1.987785	-0.041811	-1.407703	-0.178223	1.030518	-0.691406	0.011083	-0.006413	-0.018915	-0.697073	0.650773	0.258938	0.153408	-88.692761	-34.101800	8.552761
43624		1.160296	-1.902740	-2.261845	0.232887	-2.277757	-7.612752	-1.830486	-0.116449	-1.841647	-0.191895	1.032471	-0.680420	0.011439	-0.019339	-0.022436	-0.689455	0.654849	0.263910	0.161787	-89.786445	-35.155714	8.620860
43625		1.466233	-2.429569	-2.311895	0.111208	-2.310010	-6.975748	-1.561875	-0.183417	-2.285890	-0.218750	1.027588	-0.671875	0.014403	-0.024641	-0.022914	-0.682165	0.657362	0.270685	0.171043	-90.768743	-36.454031	8.761516
43626		1.597730	-2.648725	-2.085690	-0.040278	-2.061355	-6.703527	-1.256325	-0.187635	-2.730296	-0.245605	1.026855	-0.660889	0.015632	-0.026832	-0.020674	-0.675329	0.658086	0.279190	0.181402	-91.603642	-38.013413	8.941160
43627		1.573839	-2.152406	-1.492642	0.066481	-1.428336	-7.112224	-0.788098	-0.140231	-3.218575	-0.268066	1.024170	-0.652100	0.015399	-0.021832	-0.014830	-0.669510	0.656353	0.289446	0.192816	-92.176187	-39.842930	9.125558
43628		1.451304	-1.135284	-0.613063	0.423709	-0.505167	-7.986252	-0.319985	-0.081912	-3.731826	-0.307617	1.003418	-0.652100	0.014300	-0.011631	-0.006106	-0.664586	0.652037	0.301601	0.205451	-92.484688	-41.974741	9.306823
43629		1.747264	0.245273	-0.254749	1.457936	-0.027348	-8.787407	0.034404	-0.083780	-4.234851	-0.333984	0.987549	-0.656494	0.017520	0.002083	-0.002540	-0.660058	0.645541	0.315598	0.219086	-92.618517	-44.385632	9.523735
43630		2.634784	1.417694	0.306782	2.782013	0.718179	-8.924414	0.293935	-0.104725	-4.679853	-0.373779	0.971191	-0.652344	0.026668	0.013551	0.003102	-0.655494	0.637175	0.331275	0.233651	-92.647632	-47.058580	9.790682
43631		3.643191	1.656242	0.666075	3.519176	1.215832	-8.202284	0.391609	-0.187367	-4.980080	-0.413574	0.957031	-0.654541	0.036823	0.015636	0.006726	-0.650397	0.627731	0.348053	0.248591	-92.702310	-49.892881	10.156577
43632		4.487497	1.227329	0.838526	3.587672	1.450642	-7.098567	0.447967	-0.327355	-5.121746	-0.452881	0.925293	-0.654297	0.045155	0.011100	0.008485	-0.644613	0.617612	0.365625	0.263342	-92.868813	-52.812157	10.690244
43633		5.629215	0.926441	0.825488	3.846275	1.541553	-5.806462	0.418747	-0.496232	-5.263646	-0.487793	0.897949	-0.665283	0.056489	0.007762	0.008412	-0.637833	0.607148	0.383845	0.277856	-93.256454	-55.797583	11.456530
43634		6.650423	-0.004329	0.722457	3.392177	1.455211	-4.234682	0.342568	-0.618393	-5.499083	-0.529541	0.875000	-0.660889	0.066447	-0.001884	0.007428	-0.629763	0.596180	0.402829	0.292739	-93.932316	-58.917457	12.484539
43635		7.573206	-0.927353	0.480274	2.747003	1.204848	-2.782057	0.375545	-0.709547	-5.792749	-0.563965	0.836670	-0.656494	0.075403	-0.011470	0.005051	-0.620700	0.584190	0.422652	0.307925	-94.896163	-62.184501	13.832171
43636		8.265719	-1.150391	0.402690	2.425584	1.164837	-1.904122	0.461362	-0.805400	-6.078701	-0.603027	0.802490	-0.651855	0.082240	-0.014018	0.004328	-0.610656	0.570930	0.443407	0.323307	-96.274503	-65.603723	15.653823
43637		9.026936	-0.740308	0.521067	2.556227	1.411981	-1.224959	0.436666	-0.934247	-6.317128	-0.637695	0.766357	-0.654053	0.089950	-0.010260	0.005611	-0.599306	0.556890	0.464715	0.338741	-98.415605	-69.114776	18.238094
43638		10.051396	0.085831	0.868338	3.010203	1.988632	-0.392535	0.272820	-1.048029	-6.492418	-0.678467	0.716797	-0.640625	0.100424	-0.002415	0.009208	-0.586273	0.542516	0.486131	0.354453	-101.874475	-72.669843	22.055585
43639		11.472998	0.451189	1.382886	2.968299	2.715640	1.027575	0.030605	-1.143911	-6.569649	-0.701416	0.671875	-0.627441	0.114714	0.000741	0.014485	-0.571609	0.528268	0.507033	0.370288	-107.563014	-76.137259	27.971441
43640		13.291915	0.283546	1.813639	2.307377	3.322154	2.978681	-0.225504	-1.209382	-6.560462	-0.731201	0.626953	-0.616211	0.132804	-0.001502	0.018940	-0.555447	0.514280	0.527104	0.386207	-117.275450	-79.356055	37.766739
43641		14.979386	0.073308	2.121710	1.368162	3.786738	4.768008	-0.472671	-1.216262	-6.539251	-0.754150	0.582031	-0.600586	0.149580	-0.004109	0.022133	-0.538096	0.500509	0.546036	0.402229	-134.402294	-82.004067	54.835208
43642		16.266746	-0.491963	2.105276	-0.105406	3.821597	6.142568	-0.737230	-1.171743	-6.552695	-0.783447	0.525879	-0.587158	0.162265	-0.010161	0.022035	-0.519539	0.486732	0.563780	0.418716	-162.931364	-83.421871	83.152984
43643		17.794878	-0.953519	2.169331	-1.667407	3.972192	7.611410	-0.989488	-1.096577	-6.607492	-0.799805	0.485596	-0.575928	0.177384	-0.015292	0.022733	-0.499919	0.472784	0.580260	0.435723	164.696871	-82.826119	115.170720
43644		19.474289	-1.286675	2.084649	-3.290208	4.007456	9.114167	-1.244904	-1.017469	-6.633094	-0.811279	0.432129	-0.560303	0.194067	-0.019177	0.021941	-0.479253	0.458646	0.595410	0.453263	142.336608	-80.567219	137.030646
43645		21.065403	-1.947643	1.866672	-5.395219	3.842745	10.361423	-1.539336	-0.922148	-6.574511	-0.816406	0.389648	-0.546875	0.209776	-0.026233	0.019820	-0.457814	0.444677	0.608809	0.471190	129.389677	-77.553420	149.307503
43646		22.224906	-3.928265	1.414682	-8.809857	3.199685	10.762828	-1.863704	-0.794246	-6.442591	-0.830322	0.344971	-0.540039	0.220774	-0.046271	0.015435	-0.435791	0.431004	0.620183	0.489587	121.292779	-74.273701	156.543849
43647		22.813770	-6.005479	1.488717	-12.248319	3.033946	10.170963	-2.041581	-0.578961	-6.211504	-0.833496	0.304932	-0.526611	0.226084	-0.066938	0.016204	-0.414173	0.417469	0.629446	0.507915	115.646962	-70.992684	161.225852
43648		23.140944	-6.734597	0.608193	-14.145557	2.128927	9.589156	-2.295784	-0.423372	-5.838691	-0.844971	0.253662	-0.524170	0.229299	-0.073981	0.007393	-0.393004	0.404774	0.636330	0.526108	111.372131	-67.830336	164.378452
43649		22.812875	-8.727621	-1.768165	-16.765189	-0.394984	8.029440	-2.673877	-0.415748	-5.266757	-0.841553	0.224854	-0.510986	0.225756	-0.093464	-0.015989	-0.372264	0.394279	0.640442	0.543873	108.035184	-64.918069	166.341910
43650		21.042786	-12.518781	-3.891713	-20.245542	-2.819716	4.212144	-2.801798	-0.475815	-4.518742	-0.840332	0.191406	-0.501953	0.207609	-0.130424	-0.036618	-0.352797	0.386241	0.642341	0.560134	105.450806	-62.365610	167.426668
43651		18.368561	-16.715772	-4.347860	-23.338310	-3.497223	-0.940412	-2.503917	-0.536084	-3.621904	-0.844238	0.178223	-0.499512	0.180724	-0.170971	-0.040867	-0.336032	0.380522	0.643058	0.573377	103.612194	-60.289597	167.881055
43652		15.639583	-21.027718	-3.584112	-26.063296	-2.843716	-6.325479	-1.918691	-0.524141	-2.692022	-0.847656	0.151367	-0.492920	0.153633	-0.212686	-0.033403	-0.322945	0.376614	0.643416	0.582996	102.419332	-58.727177	167.982324
43653		14.568279	-25.309080	-2.080835	-29.245198	-1.272527	-10.237494	-1.139460	-0.423204	-1.765285	-0.847412	0.142578	-0.488525	0.143482	-0.254476	-0.019056	-0.314298	0.374076	0.644011	0.588671	101.809344	-57.697429	167.925890
43654		14.855233	-28.223956	-0.280436	-31.805662	0.640421	-12.121783	-0.205394	-0.108530	-0.815192	-0.847168	0.140381	-0.488281	0.147402	-0.282845	-0.002434	-0.311193	0.372179	0.645034	0.590401	101.638749	-57.238409	167.981876
43655		14.602725	-27.319522	-0.285494	-30.901535	0.567265	-11.921447	0.604678	0.175146	0.321270	-0.847412	0.146973	-0.490723	0.146463	-0.272950	-0.003809	-0.313854	0.371843	0.645890	0.588264	101.892974	-57.449152	168.085390
43656		14.836770	-23.055125	-2.341800	-27.460898	-1.512507	-8.951429	0.967667	0.333418	1.573444	-0.841309	0.158203	-0.488525	0.150134	-0.229257	-0.024779	-0.321394	0.374514	0.645188	0.583248	102.454686	-58.384781	168.070566
43657		14.547730	-20.553685	-2.592492	-25.115584	-1.906294	-7.295091	1.043938	0.481867	2.720911	-0.835693	0.187256	-0.495361	0.148189	-0.203393	-0.027345	-0.332826	0.380256	0.642238	0.576335	103.184799	-59.976124	167.911028
43658		19.381414	0.120491	-10.300195	-9.163240	-8.169053	8.380820	1.148008	-0.081942	3.207482	-0.831787	0.205078	-0.497559	0.193797	0.004904	-0.102901	-0.344002	0.388943	0.639412	0.567043	104.724810	-61.764845	166.895730
43659		6.580386	44.774798	-11.202652	36.989458	-7.683420	17.504647	1.496179	0.063864	1.684008	-0.830078	0.218262	-0.504150	0.061991	0.449102	-0.108690	-0.351890	0.391636	0.640175	0.559438	106.006102	-62.714665	166.410832
43660		13.066790	17.711502	-5.943858	10.233009	-3.234873	10.301521	1.077600	0.454217	0.942857	-0.825439	0.218506	-0.512939	0.129696	0.178046	-0.058776	-0.358130	0.391588	0.640456	0.555174	106.437121	-63.320516	166.614879
43661		15.011577	0.482019	-1.050176	-5.968905	0.539425	3.998796	2.016838	0.434683	1.720659	-0.823730	0.229736	-0.515137	0.150043	0.006219	-0.010770	-0.368235	0.392334	0.641796	0.546420	107.703804	-64.345623	166.485451
43662		15.797295	-0.494653	-1.477640	-6.846775	0.094006	4.507974	1.552802	0.140972	2.454185	-0.831299	0.249512	-0.510986	0.158006	-0.002892	-0.014916	-0.378444	0.397034	0.640828	0.537106	109.400175	-65.718220	165.590696
43663		19.353543	1.952270	-1.991549	-5.547765	0.269214	8.934642	0.636678	-0.154732	2.727733	-0.825439	0.271729	-0.510986	0.193260	0.022223	-0.019698	-0.386518	0.405035	0.637300	0.529528	111.208892	-67.162587	164.010091
43664		16.508551	1.232505	1.227671	-4.878097	3.156474	5.736647	-0.245893	-0.247487	2.743437	-0.823975	0.293945	-0.513428	0.164880	0.014603	0.012464	-0.392503	0.414980	0.631440	0.524421	112.856255	-68.580515	162.074998
43665		12.692206	-2.898808	2.901597	-7.135353	4.034954	0.709093	-0.728236	-0.215996	2.799488	-0.817871	0.311768	-0.504639	0.127279	-0.027102	0.029254	-0.397624	0.425859	0.624025	0.520703	114.454817	-70.009169	159.914741
43666		11.405069	-3.561174	0.075503	-6.892985	1.119240	-0.117989	-0.576552	-0.224276	2.890327	-0.814453	0.333984	-0.502686	0.114548	-0.033956	0.000983	-0.403225	0.436671	0.616672	0.516182	116.515536	-71.463009	157.377359
43667		9.960110	-1.408776	-2.680847	-4.028182	-1.520261	-0.334705	-0.570626	-0.320842	2.727070	-0.810303	0.347412	-0.498291	0.099824	-0.012804	-0.026611	-0.408003	0.447102	0.609776	0.511670	118.965084	-72.769115	154.454787
43668		10.402351	-2.555102	-4.308056	-4.964354	-3.088880	0.142486	-0.600495	-0.327228	2.507989	-0.802246	0.367432	-0.502930	0.104404	-0.024372	-0.042836	-0.412092	0.456884	0.603170	0.507566	121.615194	-73.929194	151.325281
43669		9.803085	-2.133130	-3.367080	-4.243110	-2.144370	-0.358497	-0.483640	-0.225591	2.282909	-0.807373	0.385010	-0.494141	0.098304	-0.020291	-0.033510	-0.416085	0.465393	0.597094	0.503747	124.309422	-74.964331	148.235902
43670		8.168826	-5.288497	-5.529297	-6.746741	-4.633849	-2.178748	-0.426444	-0.212735	2.009623	-0.810059	0.396240	-0.489990	0.082274	-0.052178	-0.055094	-0.419542	0.472903	0.591675	0.500268	127.065505	-75.841214	145.131273
43671		11.593230	-6.706981	-4.039654	-8.703199	-2.695299	0.802822	-0.179230	-0.109817	2.031209	-0.808350	0.409424	-0.494385	0.116628	-0.065924	-0.040273	-0.423864	0.479624	0.586566	0.496226	130.171080	-76.718397	141.823688
43672		11.731380	-0.706407	1.296266	-2.729561	2.914919	1.316241	0.427645	0.069917	1.971931	-0.804688	0.429443	-0.494385	0.117381	-0.005935	0.012908	-0.430012	0.484418	0.582638	0.490879	133.652471	-77.597637	138.500430
43673		9.851856	-3.008630	-1.090156	-4.444801	0.175915	-0.458036	0.688807	-0.014230	1.655369	-0.798096	0.436279	-0.498779	0.098764	-0.029232	-0.010996	-0.435695	0.487860	0.580269	0.485232	137.276072	-78.262990	135.193405
43674		11.051576	-1.003383	-1.142504	-2.452716	0.404521	1.062362	1.086740	-0.022488	1.672047	-0.801025	0.454102	-0.503418	0.110595	-0.009047	-0.011464	-0.442362	0.490488	0.578763	0.478300	141.612761	-78.886138	131.400422
43675		10.110383	-0.038199	0.537883	-1.274136	1.998536	0.030640	1.075275	-0.062039	1.568383	-0.797119	0.465088	-0.496826	0.101101	0.000382	0.005411	-0.448560	0.492860	0.577542	0.471518	146.171655	-79.391503	127.380637
43676		9.715033	2.042353	-0.410221	1.033519	1.175874	-0.001023	0.717546	-0.154309	1.399935	-0.795166	0.474121	-0.501221	0.097007	0.021117	-0.003952	-0.453213	0.495754	0.576027	0.465852	150.629866	-79.744148	123.261639
43677		10.303012	1.893384	-0.645740	0.980488	1.051925	0.583680	0.181589	-0.176341	1.285301	-0.793457	0.487549	-0.501465	0.102911	0.019601	-0.006349	-0.456148	0.499530	0.573594	0.461940	154.711769	-79.995225	119.215687
43678		10.312091	0.521906	-1.320938	-0.214377	0.314521	0.589736	-0.212829	-0.210753	1.171954	-0.791260	0.491943	-0.503662	0.103102	0.005809	-0.013107	-0.457753	0.503965	0.570562	0.459283	158.478588	-80.156248	115.263907
43679		10.269619	-2.562854	-1.780404	-3.144242	-0.328118	0.444415	-0.316159	-0.167172	1.082579	-0.785156	0.505371	-0.499268	0.102848	-0.025100	-0.017678	-0.458965	0.508237	0.567424	0.457249	161.930360	-80.277391	111.572263
43680		10.027761	-2.106920	-2.087371	-2.554681	-0.605176	0.309498	-0.262042	-0.131141	1.065703	-0.778809	0.514404	-0.499268	0.100402	-0.020562	-0.020781	-0.460398	0.512264	0.564324	0.455146	165.440663	-80.379696	107.855126
43681		9.474748	-1.605442	-2.337941	-1.919594	-0.884034	-0.151049	-0.144238	-0.110699	0.946761	-0.772217	0.518799	-0.492676	0.094835	-0.015622	-0.023316	-0.461872	0.515597	0.561761	0.453054	168.632402	-80.439407	104.529207
43682		9.808899	-1.298995	-2.352260	-1.537682	-0.809631	0.208009	0.256518	-0.084125	0.851354	-0.781494	0.529785	-0.499512	0.098153	-0.012542	-0.023498	-0.464261	0.517691	0.560251	0.450085	171.788306	-80.475621	101.474165
43683		9.450001	-0.617194	-2.404898	-0.754011	-0.868431	-0.109921	0.614771	-0.066248	0.751723	-0.774902	0.532227	-0.497314	0.094530	-0.005743	-0.024036	-0.467359	0.518597	0.559778	0.446409	174.779345	-80.486891	98.793390
43684		9.471745	0.420032	-1.680827	0.321081	-0.072284	-0.189449	0.749629	-0.102292	0.698915	-0.777100	0.532227	-0.508301	0.094710	0.004594	-0.016743	-0.470609	0.519132	0.559786	0.442345	177.712204	-80.453487	96.251116
43685		9.560632	0.438225	-1.422167	0.396314	0.219110	-0.147557	0.679231	-0.161201	0.660236	-0.775146	0.538818	-0.506104	0.095602	0.004746	-0.014129	-0.473382	0.519816	0.559890	0.438434	-179.591660	-80.364807	93.906309
43686		9.865582	1.465550	-1.388636	1.486931	0.406973	0.138634	0.661682	-0.159383	0.612619	-0.773193	0.547852	-0.512695	0.098621	0.015003	-0.013759	-0.476030	0.520417	0.560036	0.434651	-177.076697	-80.260598	91.735655
43687		10.197641	1.353418	-1.424225	1.444997	0.443608	0.461884	0.587762	-0.065582	0.583175	-0.766602	0.547852	-0.508301	0.101941	0.013873	-0.014168	-0.478644	0.520873	0.559890	0.431410	-174.763479	-80.195874	89.724957
43688		10.045349	0.872628	-1.347166	1.028122	0.469634	0.297080	0.376508	-0.065780	0.615577	-0.769043	0.554688	-0.514893	0.100430	0.009061	-0.013422	-0.480800	0.521940	0.559170	0.428648	-172.461097	-80.115173	87.603152
43689		10.167079	-1.522311	-1.307811	-1.289146	0.333534	0.464652	0.184403	-0.074178	0.688706	-0.762451	0.556885	-0.519287	0.101727	-0.014861	-0.013054	-0.482551	0.523662	0.557885	0.426247	-170.112058	-80.009055	85.320449
43690		9.820934	-0.905678	-1.336574	-0.601856	0.315084	0.116837	0.078112	-0.089361	0.750390	-0.760254	0.561523	-0.517090	0.098248	-0.008683	-0.013325	-0.484135	0.525858	0.556217	0.423921	-167.659016	-79.870635	82.870584
43691		9.819897	-0.526618	-1.477235	-0.137163	0.227339	0.128086	0.042016	-0.104337	0.733198	-0.760498	0.568115	-0.519287	0.098225	-0.004903	-0.014722	-0.485510	0.528097	0.554569	0.421719	-165.393847	-79.709438	80.588281
43692		10.331069	0.514992	-1.812722	1.020478	0.090768	0.638728	0.074433	0.001386	0.695589	-0.758301	0.570313	-0.519287	0.103292	0.005516	-0.018126	-0.487206	0.529943	0.552801	0.419764	-163.168830	-79.595721	78.365845
43693		10.152160	-0.289753	-2.137760	0.317696	-0.324309	0.556198	0.079460	0.043844	0.687994	-0.760742	0.574707	-0.519287	0.101526	-0.002540	-0.021401	-0.488982	0.531639	0.550977	0.417948	-161.002442	-79.492451	76.204017
43694		10.306784	-0.443977	-1.998983	0.234325	-0.171519	0.691504	0.219779	0.039025	0.690795	-0.756836	0.585938	-0.517334	0.103078	-0.004062	-0.020015	-0.491145	0.533023	0.549420	0.415694	-158.769378	-79.369714	74.056479
43695		10.417194	-0.627250	-2.291143	0.165413	-0.451725	0.861054	0.363993	0.037390	0.682642	-0.754395	0.585938	-0.523926	0.104188	-0.005875	-0.022942	-0.493635	0.534006	0.548204	0.413079	-156.559953	-79.234253	72.015056
43696		10.746940	-0.168175	-2.036814	0.699616	-0.100540	1.103972	0.543681	0.039690	0.679342	-0.754639	0.588135	-0.528320	0.107470	-0.001261	-0.020393	-0.496623	0.534541	0.547330	0.409954	-154.282935	-79.084356	70.009757
43697		10.870658	-0.204758	-1.525893	0.704138	0.421666	1.135703	0.635729	0.045989	0.698578	-0.754639	0.592773	-0.530518	0.108709	-0.001619	-0.015290	-0.499876	0.534857	0.546588	0.406563	-151.981650	-78.919640	68.031313
43698		11.020791	-0.323098	-1.318950	0.666138	0.639445	1.252959	0.616018	0.102071	0.752734	-0.757324	0.599365	-0.530518	0.110212	-0.002775	-0.013255	-0.503354	0.535261	0.545486	0.403206	-149.516645	-78.750304	65.874394
43699		10.761433	-1.018104	-1.719795	0.104460	0.124930	1.131500	0.560406	0.137174	0.860425	-0.755371	0.605957	-0.534912	0.107645	-0.009670	-0.017299	-0.506957	0.535997	0.543904	0.399838	-146.868103	-78.549205	63.495354
43700		10.953439	-0.725140	-1.770701	0.530081	0.134199	1.293118	0.535810	0.138210	0.958974	-0.753418	0.617188	-0.543701	0.109555	-0.006679	-0.017801	-0.510738	0.537014	0.542015	0.396210	-144.079559	-78.292403	60.968096
43701		11.269123	-0.254346	-1.842512	1.158001	0.166284	1.548770	0.548737	0.171147	1.024332	-0.744629	0.624023	-0.545898	0.112686	-0.001916	-0.018527	-0.514696	0.538124	0.539849	0.392523	-141.229704	-78.005539	58.372264
43702		11.678736	0.256937	-2.239014	1.894464	-0.098757	1.929190	0.603503	0.233437	1.067008	-0.756348	0.632568	-0.546143	0.116745	0.003260	-0.022517	-0.519091	0.539033	0.537521	0.388664	-138.270126	-77.701029	55.704399
43703		11.956356	-0.281926	-2.663076	1.605771	-0.540776	2.322093	0.682456	0.285123	1.130397	-0.736572	0.646484	-0.559326	0.119538	-0.002052	-0.026809	-0.523882	0.539816	0.534992	0.384617	-135.216509	-77.366685	52.972350
43704		11.855691	0.600500	-2.674386	2.620112	-0.478071	2.060582	0.729196	0.325938	1.191888	-0.736572	0.644287	-0.559326	0.118474	0.006809	-0.026913	-0.529054	0.540503	0.532281	0.380309	-132.098740	-76.989105	50.209041
43705		11.678184	-0.001759	-3.014475	2.223979	-0.933428	2.004553	0.719694	0.331358	1.257504	-0.741699	0.666260	-0.559326	0.116728	0.000825	-0.030336	-0.534257	0.541384	0.529304	0.375913	-129.062503	-76.555285	47.508478
43706		11.920019	-0.305448	-2.314849	2.033188	-0.267339	2.159383	0.833554	0.367021	1.347845	-0.730713	0.668701	-0.568115	0.119174	-0.002154	-0.023377	-0.540050	0.542065	0.526198	0.370981	-125.945146	-76.057572	44.797092
43707		12.116299	0.279808	-2.170824	2.804494	-0.033037	2.175875	1.008206	0.409278	1.481396	-0.719971	0.684570	-0.574707	0.121093	0.003805	-0.021939	-0.546583	0.542541	0.522870	0.365381	-122.706330	-75.478203	42.046512
43708		12.508912	-0.209938	-2.088074	2.607966	0.022302	2.599821	1.082754	0.444325	1.652820	-0.715820	0.695801	-0.583740	0.125053	-0.000952	-0.021166	-0.553687	0.543156	0.519052	0.359162	-119.407802	-74.784720	39.271111
43709		12.777696	0.276281	-1.278051	3.222355	0.909450	2.587436	1.088895	0.480662	1.853510	-0.703125	0.711670	-0.592529	0.127712	0.004017	-0.013068	-0.561184	0.544138	0.514557	0.352446	-116.138712	-73.962322	36.519243
43710		12.707494	0.942652	-0.601248	3.969483	1.645699	2.198105	1.008803	0.529842	2.048105	-0.699219	0.729492	-0.596924	0.126953	0.010758	-0.006297	-0.568873	0.545696	0.509171	0.345463	-112.976005	-73.007393	33.818781
43711		12.604914	2.031885	-0.112879	5.144383	2.269733	1.650373	0.862193	0.585441	2.227346	-0.677490	0.747559	-0.610107	0.125809	0.021727	-0.001406	-0.576516	0.547942	0.502826	0.338459	-110.013757	-71.931535	31.225167
43712		12.692194	2.512607	0.148034	5.840953	2.602221	1.435887	0.644041	0.639377	2.377955	-0.671143	0.759033	-0.618896	0.126615	0.026629	0.001159	-0.583873	0.551024	0.495450	0.331653	-107.323343	-70.744533	28.770307
43713		12.901599	2.283000	-0.167337	6.047673	2.264466	1.588167	0.421648	0.690842	2.528150	-0.645264	0.786133	-0.619141	0.128707	0.024462	-0.002068	-0.590882	0.554942	0.487070	0.325056	-104.923933	-69.451489	26.470221
43714		13.253959	1.915116	-0.839179	6.278681	1.570590	1.940589	0.224483	0.708521	2.639807	-0.627930	0.802002	-0.623535	0.132241	0.020908	-0.008838	-0.597469	0.559586	0.477907	0.318591	-102.849015	-68.067771	24.377311
43715		13.415553	1.493309	-1.576508	6.437914	0.770460	2.130507	0.185787	0.719953	2.714101	-0.610352	0.815674	-0.630127	0.133878	0.016766	-0.016232	-0.603967	0.564392	0.468358	0.311973	-101.011356	-66.620207	22.496018
43716		13.959536	1.663502	-1.860331	7.197749	0.566571	2.391994	0.253399	0.751950	2.768199	-0.597656	0.835938	-0.634521	0.139276	0.018588	-0.019105	-0.610698	0.568956	0.458561	0.305056	-99.299267	-65.122816	20.774158
43717		14.608131	2.091500	-3.052330	8.448471	-0.474940	2.656074	0.271629	0.828296	2.814571	-0.571289	0.849609	-0.641113	0.145639	0.023009	-0.031097	-0.617588	0.573331	0.448336	0.298112	-97.677272	-63.586625	19.142106
43718		14.742149	2.081863	-4.260081	9.118871	-1.694196	2.587770	0.294357	0.888075	2.873521	-0.556152	0.865479	-0.645508	0.146911	0.022995	-0.043221	-0.624631	0.577548	0.437688	0.291039	-96.146754	-62.002106	17.605620
43719		14.520329	1.361113	-5.062981	8.936736	-2.689399	2.484020	0.556374	0.925896	2.941273	-0.527588	0.881592	-0.652100	0.144744	0.015884	-0.051259	-0.632458	0.580904	0.427006	0.283220	-94.589323	-60.362730	16.186285
43720		14.452760	2.677658	-4.989919	10.390154	-2.460981	1.453101	1.015551	0.928648	2.989679	-0.502930	0.888916	-0.674072	0.143870	0.029186	-0.050424	-0.641527	0.582753	0.416716	0.274207	-92.922737	-58.677934	14.922001
43721		14.739051	3.178292	-4.610132	11.243824	-1.995117	1.057748	1.378602	0.913626	3.034082	-0.479004	0.907227	-0.682861	0.146671	0.034331	-0.046542	-0.651501	0.583387	0.406720	0.264167	-91.210700	-56.948541	13.826601
43722		15.403693	2.743677	-4.714447	11.653742	-2.094496	1.447969	1.507657	0.829576	3.204426	-0.457031	0.920898	-0.696045	0.153371	0.030255	-0.047561	-0.661693	0.583869	0.396553	0.252991	-89.630850	-55.106896	12.957036
43723		15.608857	3.435461	-4.562494	12.691499	-1.762244	0.772357	1.393369	0.643676	3.454229	-0.423828	0.932861	-0.711426	0.155313	0.037361	-0.045872	-0.671276	0.585261	0.385980	0.240576	-88.379366	-53.110854	12.391613
43724		17.103251	2.059669	-2.169558	12.370414	0.532229	2.357883	1.140902	0.548124	3.706855	-0.408447	0.944336	-0.726807	0.170550	0.023886	-0.022033	-0.679979	0.587880	0.374559	0.227446	-87.432974	-50.969027	12.013466
43725		18.368849	3.026653	-1.088659	14.082606	2.000409	2.245288	1.286521	0.649989	3.808717	-0.364014	0.956299	-0.742188	0.183031	0.033828	-0.011272	-0.689153	0.589848	0.362490	0.213889	-86.402789	-48.759239	11.623687
43726		19.258208	2.438350	-0.705893	14.617335	2.417547	2.747693	0.923382	0.642424	3.849273	-0.337402	0.965820	-0.748535	0.192041	0.028117	-0.007552	-0.696990	0.592899	0.349814	0.200764	-85.648603	-46.527041	11.311484
43727		20.202698	0.817743	-0.914925	14.699603	2.041293	3.947986	0.645746	0.643698	3.882685	-0.306396	0.977539	-0.755127	0.201786	0.012127	-0.009764	-0.703772	0.596743	0.336591	0.187908	-85.096469	-44.269323	11.048643
43728		17.971438	2.122818	-3.879791	15.217227	-0.788502	0.689843	0.641286	0.490151	3.791039	-0.279541	0.982422	-0.763916	0.179172	0.024753	-0.039162	-0.709907	0.600351	0.324080	0.174881	-84.658140	-42.075772	10.936688
43729		14.734426	3.035344	-4.651076	13.969350	-1.714482	-2.752960	0.646894	0.295560	3.577711	-0.243896	0.992188	-0.770508	0.146699	0.033132	-0.046624	-0.715319	0.603559	0.312755	0.161925	-84.320413	-40.008566	10.979138
43730		10.647515	3.850239	-2.470156	11.031119	0.043383	-6.263542	0.958251	0.334325	3.086028	-0.223633	0.992432	-0.783447	0.105822	0.040257	-0.024689	-0.721100	0.604662	0.302976	0.150347	-83.775219	-38.226361	10.975629
43731		12.792893	-9.763752	0.168854	4.355913	-0.097769	5.679741	0.920012	0.161133	2.860923	-0.203857	1.001709	-0.787842	0.129309	-0.095800	0.001141	-0.726174	0.605553	0.294356	0.139039	-83.326747	-36.576701	11.096812
43732		13.820281	-5.999720	-0.935901	7.975250	-0.135048	3.002639	1.095084	0.473844	2.842818	-0.176758	0.998047	-0.803223	0.139013	-0.057971	-0.010009	-0.732037	0.605413	0.284755	0.128495	-82.657920	-34.923869	11.015360
43733		10.001735	0.180413	-2.724549	8.906183	-0.993172	-4.599152	0.201571	0.195329	1.823092	-0.167969	1.004883	-0.807617	0.099969	0.002743	-0.027341	-0.734044	0.607182	0.278593	0.122050	-82.566260	-33.863180	11.048562
43734		5.489696	3.421116	-2.190913	6.815233	-0.439174	-9.831778	-0.188211	0.242734	0.804445	-0.165771	1.004883	-0.805420	0.054732	0.034411	-0.022008	-0.734253	0.608892	0.275148	0.120068	-82.631451	-33.385782	10.959946
43735		3.513017	3.348320	-1.391288	4.951089	-0.025314	-10.799711	-0.741847	0.164677	0.020155	-0.167969	1.004883	-0.794434	0.035115	0.033435	-0.014066	-0.732206	0.611602	0.273989	0.121444	-83.003529	-33.352098	10.854411
43736		3.249911	2.298484	-1.399678	4.198403	-0.340492	-10.060449	-1.135465	0.064846	-0.403360	-0.181885	1.013428	-0.783447	0.032541	0.022839	-0.014137	-0.728521	0.615208	0.274297	0.124647	-83.621488	-33.575219	10.783495
43737		2.228827	0.785469	-1.640064	2.629764	-1.076545	-9.365800	-1.293125	-0.010548	-0.708658	-0.179688	1.015625	-0.772461	0.022317	0.007669	-0.016449	-0.724046	0.618997	0.275656	0.128895	-84.345588	-33.969135	10.744122
43738		1.415978	-0.454351	-1.746254	1.320139	-1.561705	-8.773931	-1.305365	-0.125834	-1.052022	-0.197510	1.012939	-0.763916	0.014146	-0.004732	-0.017423	-0.719086	0.622384	0.278522	0.134086	-85.114299	-34.573896	10.769402
43739		1.185952	-1.014982	-2.138884	0.893325	-2.081005	-8.440578	-1.317356	-0.246563	-1.461230	-0.206787	1.017090	-0.750732	0.011811	-0.010377	-0.021306	-0.713607	0.625282	0.283011	0.140330	-85.929483	-35.408979	10.865838
43740		1.148498	-0.982936	-2.269253	0.872884	-2.201714	-8.461756	-1.215653	-0.379595	-1.914507	-0.222412	1.012207	-0.737549	0.011432	-0.010077	-0.022610	-0.707835	0.627188	0.289483	0.147663	-86.742456	-36.515238	11.052730
43741		1.235636	-0.538504	-2.096817	1.119888	-1.940925	-8.720969	-1.074512	-0.471814	-2.396113	-0.240234	1.009766	-0.728760	0.012339	-0.005645	-0.020909	-0.701931	0.627878	0.297798	0.156136	-87.518456	-37.889214	11.309466
43742		1.089520	0.239316	-1.780506	1.371900	-1.528302	-9.369402	-0.898772	-0.516090	-2.859442	-0.271484	1.004639	-0.722412	0.010973	0.002157	-0.017787	-0.695983	0.627160	0.307851	0.165850	-88.231869	-39.534808	11.615789
43743		1.320798	1.113587	-1.085628	1.924028	-0.678831	-9.822312	-0.788775	-0.534098	-3.331382	-0.300293	0.995117	-0.713623	0.013420	0.010871	-0.010864	-0.689802	0.625190	0.319406	0.176890	-88.912031	-41.439803	11.959362
43744		1.958675	1.477251	-0.421911	2.475349	0.121697	-9.580867	-0.693579	-0.574064	-3.804149	-0.331543	0.985596	-0.707031	0.019875	0.014382	-0.004213	-0.683176	0.621951	0.332602	0.189268	-89.595959	-43.620788	12.372923
43745		2.989476	1.488800	0.211836	3.046159	0.900342	-8.760531	-0.606035	-0.612613	-4.239313	-0.364502	0.967285	-0.704834	0.030195	0.014257	0.002167	-0.676086	0.617474	0.347174	0.202742	-90.297752	-46.039226	12.868449
43746		3.852301	1.193901	0.711533	3.242751	1.475096	-7.793323	-0.472042	-0.655689	-4.577843	-0.402100	0.948730	-0.689453	0.038760	0.011071	0.007215	-0.668623	0.611677	0.362949	0.216938	-91.020253	-48.654926	13.473580
43747		4.624798	1.035177	0.729964	3.499104	1.587676	-6.944853	-0.378927	-0.739056	-4.821165	-0.441895	0.932373	-0.685059	0.046452	0.009248	0.007453	-0.660680	0.604885	0.379593	0.231356	-91.832449	-51.394990	14.243216
43748		5.312425	1.108278	0.708102	3.810746	1.686503	-6.265957	-0.331555	-0.829323	-5.022748	-0.483398	0.902588	-0.680664	0.053350	0.009757	0.007285	-0.652035	0.597266	0.397012	0.245977	-92.814620	-54.248585	15.228700
43749		6.378585	0.837302	0.764896	3.960338	1.863961	-5.037310	-0.338934	-0.890321	-5.267622	-0.516357	0.882080	-0.671875	0.063942	0.006703	0.007921	-0.642534	0.588870	0.415033	0.261017	-94.029041	-57.220040	16.456559
43750		7.084492	0.361543	1.098531	3.560230	2.215716	-3.987752	-0.348386	-0.917399	-5.555071	-0.553223	0.850098	-0.665283	0.070858	0.001667	0.011306	-0.632056	0.579481	0.433711	0.276769	-95.544930	-60.345519	17.987267
43751		7.928659	-0.198183	0.820226	3.164795	1.969888	-2.765614	-0.315940	-0.966356	-5.816346	-0.590088	0.813965	-0.656494	0.079144	-0.004272	0.008590	-0.620714	0.569030	0.452937	0.292859	-97.477062	-63.583119	19.964532
43752		8.785154	-0.168624	0.443499	3.174038	1.729032	-1.792969	-0.286970	-1.019357	-6.050141	-0.626709	0.775391	-0.645264	0.087723	-0.004335	0.004887	-0.608396	0.557500	0.472673	0.309239	-100.055442	-66.918223	22.614141
