// General information: 
//  MT Manager version: 2019.2.0 
//  XDA version: 2019.2.0 build 3853 rev 94535 built on 2019-09-09
// Device information: 
//  DeviceId: 00B40A40
//  ProductCode: MTW2-3A7G6
//  Firmware Version: 4.4.0
//  Hardware Version: 1.1.0
// Device settings: 
//  Filter Profile: human(46.1)
//  Option Flags: Orientation Smoother Disabled, AHS Disabled, ICC Disabled
// Coordinate system: ENU
PacketCounter	SampleTimeFine	Acc_X	Acc_Y	Acc_Z	FreeAcc_E	FreeAcc_N	FreeAcc_U	Gyr_X	Gyr_Y	Gyr_Z	Mag_X	Mag_Y	Mag_Z	VelInc_X	VelInc_Y	VelInc_Z	Quat_q0	Quat_q1	Quat_q2	Quat_q3	Roll	Pitch	Yaw
43209		9.587155	2.691865	1.396468	-0.128473	-3.254205	-0.299361	-0.235619	0.197390	-0.141854	-1.122559	0.243164	0.088135	0.095904	0.026867	0.013838	-0.181570	0.580355	0.121390	0.784528	-3.907850	-72.686689	-151.062333
43210		9.464636	2.568942	1.468074	-0.115780	-3.095735	-0.392657	-0.269069	0.214920	-0.229418	-1.124512	0.234131	0.088623	0.094691	0.025600	0.014545	-0.180043	0.579686	0.120789	0.785467	-3.636329	-72.581385	-151.508934
43211		10.018482	2.553582	1.534845	-0.244654	-3.128021	0.157368	-0.345664	0.210416	-0.299585	-1.126709	0.234131	0.088623	0.100239	0.025412	0.015199	-0.178019	0.579057	0.120095	0.786498	-3.286220	-72.480187	-152.083717
43212		10.536837	2.518185	1.832129	-0.182888	-3.043219	0.743260	-0.488775	0.276688	-0.356879	-1.124268	0.229736	0.084473	0.105438	0.025038	0.018114	-0.175388	0.578256	0.118945	0.787852	-2.913123	-72.341933	-152.769456
43213		10.307736	2.094956	2.059080	-0.149224	-2.527293	0.602126	-0.563849	0.274330	-0.441143	-1.130615	0.222900	0.082764	0.103151	0.020780	0.020391	-0.172210	0.577472	0.117743	0.789307	-2.442055	-72.205592	-153.603287
43214		9.739600	1.176280	2.088158	-0.382612	-1.579242	0.084954	-0.496044	0.086150	-0.503219	-1.123779	0.218506	0.083008	0.097434	0.011569	0.020811	-0.168865	0.577329	0.117150	0.790223	-1.840698	-72.176052	-154.533750
43215		9.305792	0.226863	2.066409	-0.674196	-0.626503	-0.322056	-0.419449	-0.234775	-0.474466	-1.134521	0.209473	0.088135	0.093039	0.002091	0.020769	-0.165669	0.578398	0.117045	0.790133	-1.261525	-72.326859	-155.394321
43216		9.247648	-0.464231	1.988034	-0.980428	0.028610	-0.393321	-0.426334	-0.486614	-0.402235	-1.123291	0.207520	0.099365	0.092418	-0.004786	0.020115	-0.162584	0.580503	0.116912	0.789249	-0.808663	-72.618990	-156.125753
43217		9.331918	-0.965860	2.003666	-1.146651	0.528708	-0.302818	-0.438146	-0.536252	-0.319100	-1.127441	0.200684	0.104248	0.093249	-0.009763	0.020308	-0.159766	0.582854	0.116528	0.788148	-0.499501	-72.937377	-156.712366
43218		9.114442	-1.205196	2.065979	-1.083589	0.831814	-0.489193	-0.493221	-0.417487	-0.231657	-1.123291	0.205322	0.106201	0.091087	-0.012106	0.020880	-0.157193	0.584827	0.115577	0.787344	-0.369342	-73.187209	-157.144432
43219		8.906278	-1.295786	2.114213	-0.986557	0.976535	-0.672460	-0.532067	-0.238903	-0.149644	-1.134277	0.198486	0.111084	0.089028	-0.012968	0.021283	-0.154938	0.586165	0.114091	0.787012	-0.410927	-73.333764	-157.419467
43220		8.601506	-1.162022	2.154923	-0.801316	0.904961	-0.951602	-0.547109	0.022573	-0.061221	-1.127686	0.205322	0.110596	0.086014	-0.011588	0.021571	-0.153132	0.586532	0.112083	0.787380	-0.625208	-73.330409	-157.523207
43221		8.030967	-0.993591	2.181302	-0.565489	0.809105	-1.489992	-0.480244	0.278477	0.019184	-1.134033	0.196289	0.104492	0.080341	-0.009876	0.021725	-0.151983	0.585880	0.109906	0.788395	-0.948517	-73.179771	-157.473045
43222		7.419935	-0.799138	2.107973	-0.412306	0.648998	-2.096061	-0.370684	0.427127	0.082122	-1.131836	0.196289	0.102295	0.074247	-0.007922	0.020936	-0.151484	0.584589	0.107863	0.789730	-1.318168	-72.943118	-157.308668
43223		6.966462	-0.680747	2.060525	-0.312819	0.548260	-2.543422	-0.242817	0.510445	0.131207	-1.132080	0.202881	0.097412	0.069721	-0.006737	0.020436	-0.151596	0.582894	0.106116	0.791197	-1.693978	-72.657761	-157.061021
43224		6.464236	-0.664978	2.149749	-0.116516	0.596449	-2.995025	-0.129156	0.526065	0.172558	-1.138916	0.204834	0.086182	0.064704	-0.006580	0.021332	-0.152209	0.581068	0.104687	0.792612	-2.068089	-72.362138	-156.746538
43225		6.041904	-0.629755	2.029779	-0.117954	0.549573	-3.432627	-0.008165	0.475825	0.166645	-1.134277	0.202881	0.086182	0.060472	-0.006246	0.020154	-0.153123	0.579342	0.103791	0.793816	-2.356058	-72.094938	-156.449172
43226		5.738662	-0.591808	2.115921	0.036265	0.562349	-3.693701	0.053990	0.398885	0.152462	-1.134766	0.211670	0.087891	0.057433	-0.005880	0.021043	-0.154120	0.577861	0.103243	0.794773	-2.580817	-71.871399	-156.180323
43227		5.345739	-0.513956	2.035869	0.088181	0.497731	-4.091648	0.095010	0.328878	0.127654	-1.141357	0.207031	0.079102	0.053494	-0.005115	0.020268	-0.155101	0.576614	0.102982	0.795521	-2.739942	-71.688637	-155.955608
43228		4.874525	-0.459394	2.026164	0.221172	0.494871	-4.541677	0.120107	0.258681	0.070726	-1.136963	0.213867	0.076660	0.048773	-0.004589	0.020196	-0.155890	0.575598	0.103038	0.796096	-2.789492	-71.547680	-155.831164
43229		4.649964	-0.268883	1.988921	0.312655	0.329194	-4.768469	0.121224	0.193548	0.037474	-1.139404	0.213867	0.076660	0.046519	-0.002692	0.019843	-0.156517	0.574821	0.103246	0.796507	-2.785938	-71.444722	-155.761789
43230		4.629912	-0.025765	2.065856	0.467471	0.128838	-4.765968	0.059774	0.192832	0.024718	-1.141602	0.216064	0.076416	0.046319	-0.000258	0.020614	-0.156918	0.574088	0.103245	0.796957	-2.796180	-71.342633	-155.714983
43231		4.838966	0.098409	2.230107	0.587149	0.038570	-4.516236	0.010017	0.256595	-0.014344	-1.148193	0.209229	0.072510	0.048418	0.000980	0.022239	-0.157051	0.573118	0.103108	0.797646	-2.762900	-71.205038	-155.744183
43232		5.376894	0.278491	2.456050	0.682255	-0.126119	-3.935670	-0.003427	0.244094	-0.038036	-1.141357	0.211426	0.063232	0.053799	0.002775	0.024495	-0.157043	0.572198	0.102995	0.798322	-2.699197	-71.075517	-155.813972
43233		6.250099	0.501311	2.814329	0.810300	-0.329750	-2.995784	-0.041093	0.167105	-0.026572	-1.141357	0.209229	0.072266	0.062525	0.005011	0.028090	-0.156935	0.571619	0.102760	0.798789	-2.682840	-70.989453	-155.856285
43234		6.808988	0.631300	3.125601	0.961619	-0.421306	-2.367687	-0.072084	0.014846	-0.006249	-1.141602	0.213623	0.069824	0.068092	0.006322	0.031249	-0.156739	0.571682	0.102462	0.798820	-2.729723	-70.990117	-155.850739
43235		7.179631	0.586462	3.359336	1.049930	-0.349555	-1.941753	-0.111204	-0.201985	0.014584	-1.141357	0.209229	0.070068	0.071762	0.005889	0.033663	-0.156406	0.572652	0.102118	0.798235	-2.851651	-71.114152	-155.789312
43236		7.520339	0.489784	3.471633	1.038732	-0.262976	-1.584722	-0.119366	-0.400864	0.029723	-1.136963	0.213867	0.069824	0.075133	0.004930	0.034864	-0.156006	0.574430	0.101853	0.797069	-3.022504	-71.351713	-155.681451
43237		7.911942	0.477561	3.779709	1.232358	-0.190447	-1.120281	-0.087035	-0.515483	0.054201	-1.139160	0.209473	0.083496	0.079020	0.004814	0.037999	-0.155738	0.576646	0.101736	0.795534	-3.231318	-71.653745	-155.513966
43238		8.767917	0.719050	4.211813	1.504338	-0.371008	-0.182947	-0.093212	-0.470105	0.062284	-1.139404	0.213867	0.087891	0.087578	0.007237	0.042321	-0.155507	0.578687	0.101535	0.794122	-3.459255	-71.929351	-155.330453
43239		9.287426	0.902238	4.421124	1.646220	-0.534206	0.366763	-0.110310	-0.214013	0.047254	-1.139160	0.211670	0.090088	0.092825	0.009069	0.044306	-0.155296	0.579714	0.101111	0.793468	-3.647805	-72.058828	-155.198770
43240		9.381060	0.848145	4.271306	1.479478	-0.547524	0.408812	-0.041945	0.015193	-0.029668	-1.134766	0.211670	0.090088	0.093815	0.008476	0.042704	-0.155092	0.579741	0.101001	0.793502	-3.636514	-72.060092	-155.236211
43241		9.683866	0.814279	4.119868	1.239373	-0.603196	0.652192	0.112798	0.147184	-0.089700	-1.132568	0.211670	0.090088	0.096873	0.008076	0.041132	-0.155167	0.579092	0.101578	0.793888	-3.416646	-71.987855	-155.399537
43242		10.053468	0.728678	4.405385	1.338541	-0.461346	1.096300	0.264427	0.156270	-0.139758	-1.139404	0.213867	0.087891	0.100574	0.007158	0.043985	-0.155485	0.578264	0.102894	0.794259	-3.022878	-71.911886	-155.654644
43243		10.502839	0.802677	4.929185	1.685057	-0.383889	1.687917	0.354122	0.051155	-0.158715	-1.134521	0.207275	0.090332	0.105047	0.007856	0.049279	-0.155934	0.577771	0.104703	0.794294	-2.556027	-71.895887	-155.932453
43244		11.046304	0.980653	5.403882	2.006213	-0.423651	2.352016	0.342107	0.002816	-0.118310	-1.136963	0.211670	0.087891	0.110470	0.009649	0.054054	-0.156481	0.577501	0.106384	0.794159	-2.170759	-71.906188	-156.131897
43245		11.136647	1.174043	5.694724	2.301735	-0.485323	2.528284	0.313665	0.028687	-0.086495	-1.136719	0.207275	0.088135	0.111380	0.011603	0.056950	-0.157088	0.577163	0.107841	0.794088	-1.855716	-71.900433	-156.274386
43246		11.434763	1.389042	5.874691	2.447615	-0.636724	2.867966	0.252620	0.050811	-0.059188	-1.136719	0.207275	0.081543	0.114367	0.013782	0.058735	-0.157637	0.576800	0.108958	0.794091	-1.622531	-71.881484	-156.367713
43247		11.863373	1.591607	6.044100	2.544008	-0.804248	3.328286	0.181474	0.048793	0.000382	-1.134521	0.205078	0.079346	0.118648	0.015861	0.060426	-0.158218	0.576532	0.109623	0.794078	-1.534628	-71.862507	-156.350919
43248		12.061188	1.703545	6.175466	2.639038	-0.885799	3.557486	0.083108	0.107717	0.073998	-1.134521	0.207275	0.081543	0.120639	0.017054	0.061697	-0.158838	0.576146	0.109639	0.794233	-1.628043	-71.808365	-156.202589
43249		11.851274	1.650496	6.224351	2.712941	-0.806018	3.374792	0.042227	0.148789	0.119092	-1.134521	0.207275	0.081543	0.118549	0.016562	0.062159	-0.159543	0.575655	0.109330	0.794490	-1.820850	-71.730059	-155.974240
43250		11.888031	1.760828	6.157709	2.677517	-0.957301	3.387979	0.032125	0.136789	0.171719	-1.130371	0.214111	0.078857	0.118907	0.017700	0.061499	-0.160419	0.575247	0.108839	0.794676	-2.108416	-71.657165	-155.652182
43251		12.363295	2.110935	5.951609	2.482397	-1.445602	3.769528	-0.022624	0.224432	0.191606	-1.132324	0.211670	0.074463	0.123679	0.021235	0.059375	-0.161266	0.574546	0.108002	0.795126	-2.453466	-71.533210	-155.302312
43252		13.593599	2.219392	6.136003	2.307770	-1.681201	4.993044	-0.062759	0.321795	0.158339	-1.127930	0.214111	0.072021	0.136017	0.022321	0.061134	-0.161917	0.573468	0.107024	0.795904	-2.751448	-71.353495	-155.025923
43253		14.255997	1.814809	6.265170	2.045274	-1.388179	5.668558	-0.068566	0.260853	0.101509	-1.132568	0.216064	0.062988	0.142632	0.018242	0.062459	-0.162293	0.572608	0.106233	0.796552	-2.957949	-71.210170	-154.849490
43254		13.631959	1.254793	6.006058	1.763758	-0.904143	5.004504	-0.061378	0.179942	0.057179	-1.137207	0.216064	0.065186	0.136370	0.012605	0.059934	-0.162470	0.572036	0.105666	0.797002	-3.089452	-71.113820	-154.747551
43255		12.725475	0.751727	5.303633	1.196263	-0.587165	3.929778	-0.070605	0.312125	0.065060	-1.127930	0.213867	0.058594	0.127335	0.007577	0.052835	-0.162721	0.570952	0.104929	0.797825	-3.227142	-70.942015	-154.644850
43256		12.197020	0.017248	4.424258	0.262327	-0.170931	3.158179	-0.037026	0.424195	0.021215	-1.130371	0.218262	0.058350	0.122064	0.000194	0.043984	-0.162950	0.569364	0.104364	0.798987	-3.259429	-70.706915	-154.632993
43257		12.502280	-0.703253	3.437077	-1.003687	0.088151	3.133348	-0.067115	0.237415	-0.052398	-1.132568	0.213867	0.054199	0.125062	-0.007054	0.034225	-0.162703	0.568511	0.104036	0.799687	-3.208001	-70.581600	-154.728380
43258		12.468042	-1.211353	2.724533	-1.821293	0.312381	2.873046	-0.128436	-0.018088	-0.076649	-1.134766	0.211670	0.054199	0.124673	-0.012144	0.027264	-0.162050	0.568713	0.103743	0.799714	-3.174489	-70.602756	-154.841837
43259		12.266402	-1.597596	2.088123	-2.449033	0.485037	2.481380	-0.225516	-0.186092	-0.061029	-1.135010	0.220459	0.055908	0.122640	-0.015990	0.021013	-0.161098	0.569676	0.103150	0.799297	-3.238507	-70.719974	-154.911049
43260		12.106080	-2.048266	1.550682	-3.014981	0.747804	2.166786	-0.249725	-0.183109	-0.015226	-1.137207	0.220459	0.055908	0.121045	-0.020472	0.015643	-0.160261	0.570665	0.102330	0.798865	-3.390230	-70.833548	-154.901713
43261		12.168769	-2.314290	1.457300	-3.192868	0.957588	2.205932	-0.325011	-0.052417	-0.003656	-1.134766	0.213867	0.065430	0.121683	-0.023121	0.014642	-0.159322	0.571201	0.101068	0.798831	-3.593297	-70.872429	-154.883996
43262		11.668890	-2.565406	1.163158	-3.381016	1.155039	1.647322	-0.446923	0.015496	0.063330	-1.132813	0.218262	0.058350	0.116698	-0.025591	0.011680	-0.158336	0.571592	0.099076	0.798997	-3.969090	-70.869604	-154.757109
43263		10.703926	-2.812215	0.996315	-3.313833	1.454024	0.693479	-0.400526	-0.063262	0.102998	-1.134766	0.211670	0.067627	0.107051	-0.028047	0.010053	-0.157601	0.572280	0.097216	0.798878	-4.394016	-70.910153	-154.550389
43264		10.353514	-2.588785	0.991584	-3.106652	1.281775	0.365032	-0.285903	-0.164321	0.203669	-1.132813	0.220459	0.062744	0.103553	-0.025768	0.010038	-0.157546	0.573326	0.095606	0.798333	-4.934411	-71.002943	-154.152040
43265		9.875305	-2.530301	1.172253	-2.761897	1.334338	-0.020362	-0.105309	-0.037794	0.288858	-1.128418	0.220703	0.067139	0.098787	-0.025154	0.011754	-0.158409	0.573766	0.094371	0.797993	-5.497943	-71.018051	-153.620005
43266		9.218629	-2.489071	1.326648	-2.409140	1.415848	-0.586097	0.118102	0.027470	0.277165	-1.130615	0.220703	0.062744	0.092222	-0.024771	0.013239	-0.159898	0.573759	0.094010	0.797744	-5.903274	-70.994941	-153.119735
43267		8.966742	-2.387577	1.495886	-2.148468	1.393395	-0.769282	0.300816	0.009467	0.212675	-1.130859	0.227295	0.069092	0.089693	-0.023803	0.014919	-0.161644	0.573648	0.094577	0.797405	-6.099864	-70.985308	-152.729628
43268		9.117479	-2.320401	1.587933	-2.094342	1.324438	-0.598906	0.448696	0.095987	0.137978	-1.129150	0.238525	0.061523	0.091198	-0.023177	0.015784	-0.163554	0.573034	0.095876	0.797301	-6.072141	-70.930667	-152.487226
43269		9.183875	-1.962071	1.696799	-1.904670	1.004716	-0.515640	0.449861	0.233374	0.131395	-1.131104	0.236084	0.059570	0.091871	-0.019598	0.016817	-0.165509	0.571865	0.097087	0.797591	-6.008328	-70.798271	-152.282065
43270		9.144672	-1.620691	1.886187	-1.621281	0.741776	-0.505136	0.292477	0.240293	0.168708	-1.128906	0.236084	0.052734	0.091483	-0.016157	0.018728	-0.167169	0.570814	0.097556	0.797941	-6.093828	-70.659547	-152.013787
43271		8.834244	-1.602125	2.148684	-1.302314	0.844750	-0.712255	0.185791	0.033432	0.231800	-1.129150	0.240723	0.059082	0.088365	-0.015939	0.021457	-0.168670	0.570706	0.097593	0.797697	-6.375928	-70.634557	-151.602087
43272		8.327347	-1.377959	2.385013	-0.848244	0.785534	-1.118141	0.177221	-0.253458	0.270178	-1.127197	0.245117	0.058838	0.083262	-0.013688	0.023943	-0.170162	0.571766	0.097726	0.796604	-6.780672	-70.769500	-151.065716
43273		7.980574	-0.962828	2.449523	-0.497001	0.471936	-1.437315	0.178493	-0.494557	0.337192	-1.126953	0.242920	0.068115	0.079761	-0.009516	0.024684	-0.171803	0.573815	0.097878	0.794758	-7.352044	-71.035327	-150.352963
43274		7.840116	-0.765113	2.330621	-0.435921	0.263307	-1.613601	0.126952	-0.573067	0.379278	-1.122803	0.251953	0.074219	0.078348	-0.007517	0.023526	-0.173424	0.576234	0.097770	0.792666	-8.061375	-71.339991	-149.527002
43275		7.793338	-0.458032	2.295835	-0.283372	-0.029080	-1.680317	0.194421	-0.546409	0.316596	-1.123535	0.265381	0.080078	0.077877	-0.004479	0.023167	-0.175001	0.578451	0.098087	0.790663	-8.642128	-71.631628	-148.797200
43276		7.566168	-0.096221	2.187110	-0.132702	-0.362781	-1.945650	0.311605	-0.460319	0.233952	-1.116455	0.261230	0.084717	0.075612	-0.000908	0.022044	-0.176635	0.580180	0.099027	0.788914	-9.011104	-71.880013	-148.220727
43277		7.330277	0.123767	1.990072	-0.125431	-0.592417	-2.240242	0.390862	-0.308055	0.156380	-1.123779	0.270020	0.084229	0.073271	0.001256	0.020016	-0.178262	0.581193	0.100372	0.787631	-9.165803	-72.048289	-147.822634
43278		7.258308	0.012695	1.839058	-0.266881	-0.527533	-2.348385	0.488573	-0.127296	0.070219	-1.118896	0.263428	0.084717	0.072571	0.000107	0.018437	-0.179929	0.581362	0.102189	0.786894	-9.068051	-72.122151	-147.631059
43279		7.213388	-0.160630	1.934864	-0.237327	-0.318212	-2.353138	0.559882	-0.022459	0.019037	-1.116699	0.265625	0.084473	0.072132	-0.001654	0.019352	-0.181648	0.581022	0.104342	0.786467	-8.808336	-72.141328	-147.567009
43280		7.227855	0.045252	2.109556	-0.006491	-0.433311	-2.295617	0.531978	-0.003298	-0.001722	-1.121582	0.272217	0.084229	0.072278	0.000396	0.021098	-0.183217	0.580618	0.106426	0.786122	-8.524187	-72.151621	-147.545323
43281		7.145988	-0.167560	2.306946	0.097026	-0.140092	-2.303615	0.476291	-0.030918	-0.017864	-1.116943	0.270020	0.082031	0.071456	-0.001737	0.023076	-0.184542	0.580360	0.108363	0.785738	-8.249096	-72.178866	-147.547748
43282		7.218000	-0.346793	2.494989	0.167456	0.095318	-2.170200	0.457815	-0.089299	-0.003544	-1.119141	0.270020	0.079834	0.072169	-0.003526	0.024974	-0.185843	0.580354	0.110239	0.785174	-8.026531	-72.238139	-147.505796
43283		7.151488	-0.392363	2.587857	0.247860	0.194765	-2.203788	0.467337	-0.083115	0.049637	-1.116943	0.270020	0.077637	0.071505	-0.003966	0.025899	-0.187376	0.580340	0.111992	0.784572	-7.888624	-72.289641	-147.369578
43284		6.906622	-0.402129	2.652944	0.364426	0.276655	-2.417290	0.472831	-0.051997	0.110001	-1.112549	0.274658	0.079590	0.069062	-0.004046	0.026538	-0.189185	0.580229	0.113562	0.783994	-7.849112	-72.318691	-147.126400
43285		6.621987	-0.470154	2.641333	0.399761	0.385253	-2.689474	0.477912	-0.081642	0.137154	-1.114990	0.274658	0.086182	0.066212	-0.004719	0.026429	-0.191090	0.580241	0.115100	0.783299	-7.861123	-72.362578	-146.826548
43286		6.496075	-0.607022	2.435497	0.197618	0.451044	-2.865989	0.455835	-0.097858	0.123824	-1.112549	0.272461	0.081787	0.064953	-0.006086	0.024373	-0.192875	0.580328	0.116604	0.782574	-7.869150	-72.416811	-146.543975
43287		6.517446	-0.722474	2.417921	0.128811	0.548993	-2.846525	0.470007	-0.081934	0.096380	-1.110352	0.274658	0.083984	0.065168	-0.007250	0.024189	-0.194596	0.580318	0.118229	0.781911	-7.814324	-72.464073	-146.319143
43288		6.454559	-0.884832	2.577432	0.209479	0.777060	-2.852824	0.505861	-0.061633	0.067677	-1.114990	0.276855	0.081543	0.064541	-0.008892	0.025772	-0.196322	0.580175	0.120054	0.781308	-7.684293	-72.502275	-146.151666
43289		6.785329	-0.896284	2.843247	0.346657	0.850291	-2.458444	0.530016	-0.047508	0.075194	-1.104004	0.283691	0.083496	0.067850	-0.009013	0.028425	-0.198152	0.579952	0.121940	0.780719	-7.548998	-72.531861	-145.975248
43290		7.157380	-0.839398	2.967332	0.379564	0.795093	-2.069207	0.551297	0.035672	0.118041	-1.108887	0.292480	0.078369	0.071584	-0.008433	0.029637	-0.200265	0.579406	0.123698	0.780308	-7.461370	-72.511208	-145.735924
43291		6.896901	-0.786976	3.148501	0.614082	0.873084	-2.265486	0.536486	0.043474	0.130531	-1.111084	0.290283	0.076416	0.068981	-0.007909	0.031449	-0.202382	0.578846	0.125356	0.779913	-7.400191	-72.485174	-145.477888
43292		6.834979	-0.750519	3.210330	0.692483	0.881555	-2.307372	0.505912	-0.015445	0.147676	-1.106445	0.288086	0.076416	0.068353	-0.007536	0.032090	-0.204451	0.578554	0.126901	0.779340	-7.404836	-72.491280	-145.168621
43293		6.815023	-0.601182	3.349681	0.880633	0.817056	-2.290506	0.464882	0.022017	0.141283	-1.111328	0.294678	0.078369	0.068158	-0.006041	0.033475	-0.206387	0.578150	0.128269	0.778906	-7.408883	-72.476676	-144.885187
43294		6.819813	-0.551813	3.676694	1.173162	0.919686	-2.189677	0.470988	0.046476	0.131874	-1.102295	0.294922	0.080566	0.068210	-0.005560	0.036738	-0.208326	0.577636	0.129658	0.778541	-7.389604	-72.448914	-144.622300
43295		7.238876	-0.470056	4.091996	1.452650	0.965540	-1.668718	0.464869	0.001154	0.089447	-1.104492	0.292480	0.073975	0.072391	-0.004763	0.040909	-0.210043	0.577272	0.131195	0.778092	-7.304838	-72.450053	-144.431969
43296		7.712712	-0.380904	4.445894	1.676196	0.976898	-1.115964	0.454616	-0.150709	0.056214	-1.102295	0.294922	0.073730	0.077095	-0.003889	0.044508	-0.211508	0.577488	0.132943	0.777238	-7.204639	-72.540157	-144.264007
43297		8.218372	-0.351796	4.556380	1.672683	0.938087	-0.606820	0.476118	-0.372010	0.049905	-1.108887	0.294678	0.080566	0.082100	-0.003606	0.045708	-0.212854	0.578529	0.135031	0.775735	-7.129057	-72.756439	-144.057509
43298		8.549871	-0.279911	4.571490	1.666714	0.857985	-0.296232	0.483155	-0.459241	0.061339	-1.104736	0.299316	0.084717	0.085394	-0.002884	0.045904	-0.214211	0.579904	0.137199	0.773952	-7.095771	-73.021548	-143.802792
43299		8.663833	-0.396314	4.519544	1.567749	0.950354	-0.206222	0.454411	-0.419068	0.046786	-1.100098	0.294922	0.087158	0.086544	-0.004046	0.045368	-0.215446	0.581137	0.139259	0.772315	-7.042661	-73.264913	-143.586358
43300		9.052639	-0.439677	4.373262	1.358888	0.886338	0.118915	0.388877	-0.367656	-0.002115	-1.097900	0.297363	0.093750	0.090446	-0.004483	0.043890	-0.216343	0.582204	0.141146	0.770916	-6.926961	-73.482568	-143.474758
43301		10.411988	-0.062982	4.253477	1.148859	0.300598	1.371912	0.234643	-0.106030	-0.076377	-1.102295	0.294922	0.091797	0.104097	-0.000720	0.042589	-0.216682	0.582373	0.142375	0.770467	-6.692320	-73.556489	-143.579370
43302		10.521938	-0.320150	4.302324	1.030068	0.547186	1.499392	0.168084	0.053656	-0.160294	-1.104492	0.297119	0.089355	0.105228	-0.003322	0.042992	-0.216621	0.581941	0.143415	0.770618	-6.300313	-73.544894	-143.888035
43303		11.158405	-0.578725	4.186505	0.637644	0.627636	2.085680	0.125309	0.122817	-0.217108	-1.104248	0.288086	0.094238	0.111603	-0.005935	0.041793	-0.216262	0.581245	0.144384	0.771063	-5.807220	-73.496532	-144.327497
43304		11.522285	-0.683232	4.439317	0.674831	0.791992	2.510239	0.110796	0.314452	-0.264281	-1.101807	0.285889	0.085449	0.115283	-0.007009	0.044208	-0.215819	0.579792	0.145223	0.772123	-5.203551	-73.340382	-144.891547
43305		11.889054	-0.680256	4.595885	0.660392	0.809142	2.909075	0.064059	0.499596	-0.292323	-1.104004	0.285889	0.085449	0.118995	-0.006991	0.045659	-0.215264	0.577648	0.145766	0.773781	-4.554043	-73.078039	-145.531758
43306		12.123408	-0.938783	4.654070	0.442443	1.020622	3.159613	0.058359	0.628363	-0.339322	-1.105957	0.279053	0.070313	0.121363	-0.009607	0.046157	-0.214603	0.574975	0.146278	0.775856	-3.826947	-72.742028	-146.257990
43307		11.805639	-1.511152	4.949819	0.396378	1.708009	2.957688	0.056115	0.528953	-0.325980	-1.105957	0.276855	0.068115	0.118162	-0.015318	0.049181	-0.213911	0.572691	0.146853	0.777626	-3.160436	-72.459677	-146.922883
43308		11.077124	-2.153911	4.910614	0.168474	2.371083	2.262311	0.056635	0.260783	-0.232882	-1.107910	0.270264	0.068604	0.110810	-0.021682	0.048956	-0.213386	0.571514	0.147445	0.778523	-2.704980	-72.325964	-147.367105
43309		11.719899	-2.104774	4.955300	0.036749	2.252635	2.886342	0.016498	0.119459	-0.135042	-1.108154	0.274658	0.065918	0.117214	-0.021131	0.049481	-0.213021	0.571001	0.147756	0.778940	-2.462399	-72.269948	-147.611940
43310		13.157053	-1.423083	5.266044	0.251350	1.580931	4.340118	-0.096132	0.068402	-0.112303	-1.110107	0.270020	0.066406	0.131581	-0.014279	0.052622	-0.212385	0.570826	0.147612	0.779269	-2.332207	-72.242511	-147.807236
43311		14.477076	-0.735981	5.398425	0.367150	0.847600	5.628074	-0.199540	-0.142690	-0.163637	-1.109863	0.263428	0.075684	0.144726	-0.007424	0.054095	-0.211098	0.571542	0.147441	0.779127	-2.181787	-72.336801	-148.085275
43312		14.780277	-0.429823	4.855350	0.022746	0.313415	5.747411	-0.134072	-0.386773	-0.187611	-1.112305	0.265625	0.071045	0.147704	-0.004404	0.048842	-0.209719	0.573125	0.147845	0.778260	-1.964495	-72.571442	-148.394854
43313		14.231852	-0.513180	3.785806	-0.720428	0.017654	4.905383	-0.034966	-0.423419	-0.157349	-1.114258	0.259033	0.082764	0.142234	-0.005237	0.038160	-0.208718	0.574760	0.148591	0.777179	-1.739220	-72.825777	-148.651907
43314		14.536388	-0.400119	3.167460	-1.210016	-0.375141	5.016147	-0.034454	-0.363810	-0.092984	-1.112061	0.261230	0.082520	0.145304	-0.004063	0.031940	-0.208009	0.576212	0.149086	0.776199	-1.625754	-73.044813	-148.792250
43315		14.862890	0.181081	2.644881	-1.397012	-1.145579	5.176293	-0.097353	-0.294028	-0.026960	-1.114502	0.263428	0.084717	0.148590	0.001804	0.026666	-0.207430	0.577503	0.149080	0.775396	-1.665768	-73.222621	-148.808842
43316		14.179223	0.650205	1.706950	-1.740653	-1.875031	4.252912	-0.101968	-0.250900	0.020746	-1.116699	0.263428	0.086914	0.141770	0.006526	0.017244	-0.207052	0.578667	0.148866	0.774669	-1.799533	-73.374944	-148.730956
43317		13.339292	1.059836	1.134499	-1.778387	-2.364543	3.286673	-0.118986	-0.230063	0.028528	-1.114258	0.256836	0.093994	0.133378	0.010624	0.011492	-0.206672	0.579771	0.148549	0.774006	-1.956906	-73.515098	-148.638017
43318		12.564269	1.329519	0.808206	-1.706858	-2.632289	2.452684	-0.174148	-0.129743	0.032933	-1.109863	0.263672	0.093750	0.125635	0.013323	0.008152	-0.206220	0.580549	0.147896	0.773669	-2.150459	-73.597776	-148.541085
43319		11.454373	1.438364	0.681628	-1.487818	-2.630126	1.349972	-0.285102	0.124130	0.061435	-1.121094	0.261230	0.096191	0.114543	0.014428	0.006725	-0.205746	0.580476	0.146475	0.774119	-2.443470	-73.534203	-148.406022
43320		10.263843	1.477313	0.655804	-1.217645	-2.519425	0.193748	-0.375139	0.262342	0.070214	-1.121094	0.260986	0.080322	0.102642	0.014821	0.006396	-0.205144	0.579969	0.144532	0.775024	-2.791907	-73.391393	-148.267516
43321		9.430660	1.719395	0.711468	-0.874628	-2.606273	-0.601711	-0.472915	0.343363	0.084605	-1.114502	0.263428	0.084717	0.094311	0.017250	0.006912	-0.204373	0.579251	0.142089	0.776216	-3.209965	-73.201221	-148.114056
43322		9.143093	1.961344	0.745033	-0.688324	-2.788267	-0.882419	-0.593747	0.359857	0.066298	-1.118896	0.260986	0.080322	0.091438	0.019665	0.007227	-0.203190	0.578572	0.139210	0.777553	-3.654495	-73.001588	-148.005246
43323		8.850202	2.020036	0.599987	-0.743397	-2.888226	-1.217809	-0.690545	0.374986	0.021053	-1.118652	0.256592	0.082764	0.088511	0.020230	0.005764	-0.201560	0.577895	0.136070	0.779036	-4.062313	-72.795150	-147.992637
43324		8.502355	1.923374	0.445620	-0.867015	-2.838017	-1.604046	-0.701297	0.302786	-0.073744	-1.123291	0.263184	0.073486	0.085037	0.019218	0.004260	-0.199472	0.577437	0.133232	0.780402	-4.306908	-72.633984	-148.157837
43325		8.967928	2.182639	0.614313	-0.759730	-3.079797	-1.123469	-0.729486	0.321780	-0.170525	-1.116455	0.258789	0.075928	0.089708	0.021772	0.005919	-0.196939	0.576859	0.130543	0.781925	-4.390324	-72.466241	-148.508644
43326		9.393643	2.179845	1.169694	-0.449312	-2.914146	-0.557095	-0.736713	0.441004	-0.315063	-1.125244	0.254150	0.067383	0.093996	0.021693	0.011410	-0.193895	0.575716	0.128124	0.783926	-4.206376	-72.236327	-149.144662
43327		9.607412	1.838831	1.418315	-0.504919	-2.538691	-0.273552	-0.687156	0.353451	-0.429629	-1.122559	0.245361	0.074463	0.096138	0.018230	0.013950	-0.190485	0.574785	0.126310	0.785737	-3.812878	-72.060239	-149.971809
43328		9.495097	1.321334	1.461175	-0.716110	-2.028860	-0.357077	-0.693633	0.209335	-0.450867	-1.126709	0.236328	0.066162	0.094996	0.013050	0.014467	-0.186874	0.574402	0.124669	0.787146	-3.410253	-71.965560	-150.813137
43329		9.023812	0.401114	1.582338	-0.909127	-1.059461	-0.749308	-0.671270	-0.106513	-0.409523	-1.124512	0.236328	0.070557	0.090238	0.003880	0.015858	-0.183294	0.575257	0.123288	0.787580	-3.102954	-72.048621	-151.540742
43330		8.902148	-0.393760	1.679188	-1.122828	-0.256014	-0.818437	-0.669819	-0.386088	-0.320354	-1.126709	0.236328	0.077393	0.088982	-0.004023	0.016977	-0.179889	0.577256	0.121915	0.787117	-2.969605	-72.287897	-152.084091
43331		8.798797	-0.927958	1.712689	-1.263744	0.284325	-0.894435	-0.677007	-0.327237	-0.265196	-1.124268	0.229736	0.082275	0.087947	-0.009338	0.017302	-0.176718	0.579055	0.120295	0.786763	-2.928812	-72.491795	-152.533977
43332		8.618835	-1.107347	1.751770	-1.233185	0.507082	-1.049052	-0.683352	-0.140374	-0.203663	-1.124023	0.227539	0.086914	0.086165	-0.011101	0.017616	-0.173879	0.580152	0.118307	0.786888	-2.981203	-72.586919	-152.889459
43333		8.760703	-1.136452	1.671821	-1.338427	0.492433	-0.935608	-0.672947	-0.031480	-0.141655	-1.123779	0.220947	0.089600	0.087596	-0.011370	0.016770	-0.171378	0.580842	0.116082	0.787259	-3.130466	-72.618080	-153.137215
43334		8.615909	-1.185652	1.746708	-1.247389	0.585835	-1.049613	-0.600605	0.087495	-0.067675	-1.124023	0.225342	0.086914	0.086163	-0.011833	0.017465	-0.169441	0.581040	0.113826	0.787862	-3.359803	-72.579172	-153.257725
43335		8.322925	-1.083677	2.014153	-0.894560	0.622496	-1.250299	-0.520600	0.196768	0.010051	-1.124023	0.225342	0.089355	0.083250	-0.010780	0.020088	-0.168108	0.580778	0.111564	0.788664	-3.673797	-72.475065	-153.241372
43336		7.982596	-0.978865	2.146498	-0.652657	0.603598	-1.536388	-0.432231	0.272651	0.062057	-1.128418	0.222900	0.084961	0.079858	-0.009718	0.021377	-0.167278	0.580167	0.109435	0.789588	-4.019245	-72.325599	-153.138775
43337		7.676893	-0.831680	2.214514	-0.465384	0.512587	-1.809498	-0.341361	0.347307	0.102842	-1.130859	0.229492	0.080078	0.076811	-0.008240	0.022026	-0.166912	0.579204	0.107483	0.790639	-4.372154	-72.131530	-152.973687
43338		7.315408	-0.636352	2.323211	-0.212898	0.397758	-2.124137	-0.275720	0.400827	0.115851	-1.128662	0.229736	0.077881	0.073204	-0.006289	0.023094	-0.166815	0.577977	0.105709	0.791796	-4.696720	-71.905891	-152.798506
43339		6.902454	-0.552931	2.443853	0.018848	0.398471	-2.480375	-0.204379	0.424930	0.112103	-1.131104	0.234131	0.072998	0.069079	-0.005466	0.024297	-0.166922	0.576591	0.104206	0.792982	-4.965205	-71.666512	-152.639258
43340		6.479526	-0.443607	2.418112	0.134853	0.327865	-2.891521	-0.142668	0.420379	0.088916	-1.131104	0.234131	0.070801	0.064848	-0.004390	0.024048	-0.167114	0.575156	0.103018	0.794138	-5.154755	-71.430594	-152.525430
43341		6.033089	-0.262724	2.375491	0.272805	0.193955	-3.332098	-0.098738	0.376593	0.061801	-1.128662	0.229492	0.066650	0.060376	-0.002597	0.023643	-0.167299	0.573843	0.102118	0.795165	-5.276484	-71.221086	-152.456773
43342		5.705673	-0.197997	2.399861	0.395604	0.179100	-3.634935	-0.093877	0.303923	0.009456	-1.128662	0.231689	0.062012	0.057093	-0.001966	0.023913	-0.167252	0.572786	0.101449	0.796022	-5.317610	-71.055826	-152.470178
43343		5.553752	-0.203712	2.348259	0.378317	0.180481	-3.794028	-0.111841	0.250729	-0.023400	-1.135498	0.231689	0.057617	0.055567	-0.002031	0.023414	-0.166995	0.571937	0.100846	0.796762	-5.322828	-70.922609	-152.532556
43344		5.438363	-0.204648	2.341182	0.394812	0.189923	-3.904486	-0.122521	0.191742	-0.028319	-1.128906	0.234131	0.061768	0.054406	-0.002040	0.023361	-0.166659	0.571328	0.100265	0.797343	-5.335033	-70.823112	-152.593868
43345		5.533212	-0.124676	2.407116	0.449082	0.119926	-3.795202	-0.156137	0.106965	-0.037601	-1.140137	0.231445	0.062012	0.055345	-0.001238	0.024043	-0.166147	0.571081	0.099646	0.797705	-5.364858	-70.772676	-152.657136
43346		5.810653	-0.091536	2.577028	0.527122	0.102912	-3.478282	-0.174760	0.053126	-0.042205	-1.135498	0.229492	0.059814	0.058113	-0.000905	0.025756	-0.165535	0.571063	0.099010	0.797923	-5.406331	-70.753472	-152.719409
43347		6.052430	0.090345	2.771416	0.695940	-0.037748	-3.191882	-0.192504	0.009267	-0.038149	-1.133057	0.225098	0.066895	0.060526	0.000919	0.027710	-0.164868	0.571235	0.098328	0.798023	-5.471210	-70.758823	-152.767634
43348		6.395479	0.298544	3.011953	0.889492	-0.201782	-2.796191	-0.241210	-0.079448	-0.053703	-1.133301	0.231689	0.064209	0.063944	0.003005	0.030141	-0.163951	0.571795	0.097570	0.797904	-5.551650	-70.816056	-152.829249
43349		6.846403	0.321974	3.233630	0.973791	-0.215375	-2.300125	-0.278558	-0.215467	-0.063687	-1.130859	0.227295	0.066650	0.068430	0.003243	0.032406	-0.162825	0.572920	0.096802	0.797421	-5.659827	-70.951030	-152.883796
43350		7.467826	0.346271	3.459660	1.025691	-0.249310	-1.643030	-0.267124	-0.375468	-0.062339	-1.130859	0.225098	0.073486	0.074614	0.003486	0.034732	-0.161659	0.574672	0.096205	0.796469	-5.790641	-71.177409	-152.907470
43351		8.131346	0.324125	3.684674	1.063767	-0.240688	-0.946405	-0.249298	-0.512982	-0.052743	-1.128418	0.222900	0.082764	0.081219	0.003266	0.037051	-0.160515	0.576957	0.095763	0.795101	-5.952649	-71.481392	-152.887355
43352		8.658941	0.287573	4.074423	1.296966	-0.137278	-0.327981	-0.197802	-0.595359	-0.044705	-1.135498	0.227295	0.089111	0.086468	0.002897	0.040999	-0.159506	0.579529	0.095567	0.793455	-6.116072	-71.832280	-152.835056
43353		9.036975	0.275786	4.419254	1.551591	-0.046230	0.130295	-0.154346	-0.611595	-0.041566	-1.128174	0.218506	0.092041	0.090235	0.002773	0.044466	-0.158631	0.582124	0.095547	0.791731	-6.268066	-72.191703	-152.768350
43354		9.173787	0.269067	4.409667	1.557457	-0.044105	0.249524	-0.111893	-0.501932	-0.042072	-1.131104	0.229736	0.102539	0.091627	0.002696	0.044325	-0.157923	0.584247	0.095609	0.790301	-6.375725	-72.488907	-152.723026
43355		9.251337	0.204145	4.256014	1.415539	-0.030513	0.273828	-0.088169	-0.312498	-0.067836	-1.130615	0.218506	0.107666	0.092447	0.002029	0.042704	-0.157278	0.585586	0.095689	0.789428	-6.387408	-72.679625	-152.763845
43356		9.773910	0.248851	3.982825	1.063426	-0.224564	0.688400	-0.075695	-0.000365	-0.113512	-1.121826	0.225342	0.104980	0.097740	0.002448	0.039827	-0.156635	0.585663	0.095706	0.789497	-6.243943	-72.695863	-152.959928
43357		9.609699	0.081640	3.677260	0.758164	-0.144559	0.447889	-0.044919	0.278441	-0.147201	-1.126221	0.220947	0.098633	0.096149	0.000754	0.036639	-0.156085	0.584595	0.095725	0.790394	-5.968211	-72.554695	-153.275928
43358		9.834696	-0.089937	3.854745	0.759399	0.046635	0.723411	0.014060	0.376849	-0.190326	-1.128174	0.214111	0.094482	0.098418	-0.000996	0.038362	-0.155585	0.583070	0.096027	0.791581	-5.568726	-72.359380	-153.686482
43359		10.141703	0.014527	4.126495	0.920971	0.002890	1.097584	0.054310	0.240565	-0.137348	-1.130127	0.211914	0.096924	0.101467	0.000064	0.041143	-0.155345	0.582077	0.096438	0.792309	-5.271411	-72.238162	-153.966028
43360		10.673857	0.209714	4.341134	1.011996	-0.174767	1.666247	0.059817	0.176747	-0.078967	-1.128174	0.214111	0.089844	0.106778	0.002042	0.043318	-0.155315	0.581360	0.096753	0.792803	-5.086294	-72.150082	-154.124887
43361		10.907915	0.603932	4.663115	1.355211	-0.465695	1.978770	0.052586	0.186219	-0.044625	-1.130371	0.214111	0.090088	0.109124	0.006003	0.046531	-0.155410	0.580628	0.096930	0.793299	-4.967988	-72.054648	-154.217668
43362		11.196952	0.844024	4.905711	1.556639	-0.651794	2.324120	0.008425	0.197450	-0.008403	-1.136963	0.213867	0.087891	0.112018	0.008433	0.048947	-0.155524	0.579900	0.096820	0.793822	-4.936555	-71.950889	-154.245827
43363		11.487221	1.120989	5.034095	1.669820	-0.918176	2.634142	-0.050481	0.197894	0.039084	-1.135010	0.216064	0.087646	0.114920	0.011245	0.050224	-0.155659	0.579241	0.096336	0.794336	-5.022998	-71.844604	-154.185432
43364		11.252201	1.363564	5.144478	1.903508	-1.095631	2.439380	-0.112292	0.201915	0.084207	-1.128174	0.216309	0.083008	0.112568	0.013712	0.051323	-0.155791	0.578634	0.095474	0.794856	-5.219909	-71.733680	-154.046110
43365		11.136321	1.626663	5.253494	2.110925	-1.315406	2.355981	-0.169347	0.209889	0.098773	-1.135010	0.216064	0.083252	0.111410	0.016366	0.052404	-0.155824	0.578047	0.094335	0.795413	-5.472537	-71.617247	-153.882318
43366		11.589576	1.887847	5.068461	1.880620	-1.717284	2.720686	-0.210941	0.429149	0.079136	-1.128174	0.218506	0.076172	0.115997	0.018978	0.050416	-0.155757	0.576607	0.092919	0.796637	-5.674507	-71.376576	-153.796921
43367		12.536045	1.829040	5.296019	1.732131	-1.762956	3.694226	-0.239570	0.606937	0.009359	-1.132568	0.216064	0.067383	0.125519	0.018359	0.052557	-0.155416	0.574445	0.091448	0.798433	-5.744726	-71.038553	-153.867861
43368		13.856124	1.987726	5.659887	1.655995	-2.022159	5.058277	-0.276831	0.484960	-0.049367	-1.128174	0.218506	0.062744	0.138703	0.019921	0.056235	-0.154673	0.572764	0.090095	0.799938	-5.758288	-70.773061	-154.021248
43369		13.400918	1.197065	5.889125	1.658645	-1.174152	4.732736	-0.302413	0.374813	-0.089358	-1.130127	0.211670	0.061035	0.134125	0.012000	0.058622	-0.153649	0.571525	0.088836	0.801161	-5.743360	-70.573050	-154.220805
43370		11.706480	0.121960	5.096782	1.048003	-0.198406	2.911146	-0.364960	0.301493	-0.072535	-1.130127	0.211670	0.061035	0.117142	0.001270	0.050789	-0.152477	0.570627	0.087338	0.802189	-5.802604	-70.413443	-154.379628
43371		11.411058	-0.540830	3.890240	-0.192354	0.062508	2.253699	-0.507675	0.326713	-0.049934	-1.132324	0.207031	0.052246	0.114173	-0.005338	0.038730	-0.151001	0.569748	0.085178	0.803325	-5.978263	-70.238689	-154.502108
43372		12.282096	-0.492764	3.478354	-0.833293	-0.261136	2.932076	-0.610877	0.262851	-0.064816	-1.132324	0.209473	0.054443	0.122865	-0.004862	0.034637	-0.149136	0.569186	0.082699	0.804330	-6.196333	-70.100945	-154.642398
43373		12.516172	-0.533578	2.958802	-1.395429	-0.431123	2.976397	-0.663554	0.109758	-0.098483	-1.129883	0.205078	0.054688	0.125175	-0.005299	0.029537	-0.146928	0.569264	0.080212	0.804933	-6.420756	-70.053107	-154.808200
43374		11.771563	-0.984057	2.014858	-2.158578	-0.181290	1.973126	-0.609310	0.056524	-0.136964	-1.134277	0.204834	0.052490	0.117715	-0.009860	0.020145	-0.144689	0.569490	0.078097	0.805386	-6.559887	-70.037910	-155.031646
43375		11.316015	-1.566457	1.266790	-2.871566	0.226280	1.314469	-0.575999	0.015609	-0.175024	-1.134521	0.209229	0.049805	0.113147	-0.015727	0.012704	-0.142382	0.569841	0.076247	0.805726	-6.630858	-70.048979	-155.307368
43376		11.344716	-2.082376	1.130164	-3.156981	0.690126	1.317150	-0.511113	-0.058644	-0.206301	-1.132080	0.202637	0.059326	0.113422	-0.020912	0.011388	-0.140101	0.570422	0.074806	0.805850	-6.625998	-70.103663	-155.623694
43377		11.162386	-2.408337	1.185771	-3.135213	1.062009	1.180379	-0.454985	-0.108430	-0.179103	-1.134033	0.198242	0.057373	0.111596	-0.024156	0.011973	-0.138073	0.571176	0.073542	0.805782	-6.642529	-70.185659	-155.883403
43378		10.692326	-2.614336	0.903098	-3.289455	1.263029	0.654422	-0.345591	-0.084561	-0.131011	-1.134033	0.198242	0.059570	0.106902	-0.026198	0.009121	-0.136554	0.571771	0.072569	0.805708	-6.664564	-70.250606	-156.070421
43379		10.299023	-2.649555	0.668806	-3.379106	1.298097	0.208984	-0.174856	-0.009398	-0.078327	-1.131836	0.198242	0.059570	0.102980	-0.026530	0.006716	-0.135768	0.571967	0.072078	0.805745	-6.660633	-70.269588	-156.181159
43380		10.076475	-2.737633	0.677049	-3.326915	1.419919	0.005858	-0.010109	0.013700	-0.035207	-1.129639	0.198242	0.063965	0.100760	-0.027394	0.006765	-0.135631	0.571970	0.072115	0.805763	-6.624282	-70.272143	-156.225852
43381		10.022739	-2.824211	0.935472	-3.103811	1.581891	0.044825	0.128289	-0.012589	-0.014613	-1.133789	0.191406	0.057617	0.100225	-0.028255	0.009343	-0.135967	0.571996	0.072664	0.805638	-6.548234	-70.288704	-156.228675
43382		9.844289	-2.991112	1.307416	-2.766375	1.866599	0.007145	0.273166	-0.022085	0.029265	-1.129395	0.193848	0.066406	0.098446	-0.029915	0.013044	-0.136885	0.571975	0.073682	0.805406	-6.458242	-70.307635	-156.158202
43383		9.664835	-2.852153	1.531824	-2.471665	1.816923	-0.092607	0.392398	-0.023182	0.089234	-1.132324	0.207275	0.061279	0.096659	-0.028508	0.015274	-0.138390	0.571899	0.075005	0.805080	-6.397910	-70.323563	-155.983618
43384		9.897695	-2.447105	1.800750	-2.177233	1.469495	0.202083	0.445569	-0.123161	0.137161	-1.132324	0.209473	0.061035	0.098983	-0.024443	0.018014	-0.140200	0.572205	0.076475	0.804411	-6.401281	-70.393558	-155.709184
43385		10.340881	-1.832633	2.154415	-1.796986	0.916923	0.716507	0.380471	-0.084848	0.194841	-1.132080	0.205078	0.065918	0.103417	-0.018267	0.021553	-0.142071	0.572421	0.077490	0.803832	-6.528896	-70.437743	-155.342474
43386		10.413871	-1.462784	2.492797	-1.393391	0.637606	0.885648	0.317557	0.001253	0.256196	-1.127930	0.213867	0.065186	0.104158	-0.014534	0.024904	-0.144043	0.572357	0.078014	0.803476	-6.775754	-70.428541	-154.887468
43387		10.028262	-1.348723	2.420248	-1.303895	0.539788	0.495131	0.332776	0.049342	0.324626	-1.127930	0.213867	0.065186	0.100310	-0.013365	0.024155	-0.146350	0.572112	0.078370	0.803198	-7.112836	-70.386383	-154.327406
43388		9.146440	-1.345662	2.389499	-1.060185	0.630330	-0.343975	0.423315	-0.045745	0.376473	-1.128418	0.220703	0.064941	0.091484	-0.013335	0.023888	-0.149087	0.572202	0.079008	0.802568	-7.499720	-70.393692	-153.659455
43389		8.593817	-1.185033	2.464755	-0.754921	0.564432	-0.843605	0.519829	-0.337075	0.405714	-1.126221	0.222900	0.071533	0.085920	-0.011740	0.024762	-0.152100	0.573391	0.080167	0.801038	-7.943783	-70.562144	-152.872422
43390		8.665792	-0.688311	2.420111	-0.612516	0.060270	-0.810038	0.555314	-0.447594	0.432326	-1.124512	0.236328	0.072998	0.086618	-0.006763	0.024376	-0.155273	0.575003	0.081474	0.799140	-8.449184	-70.789579	-152.000155
43391		8.517089	-0.239387	2.470734	-0.333325	-0.332225	-0.953732	0.577034	-0.299625	0.377772	-1.122559	0.243164	0.074707	0.085138	-0.002305	0.024828	-0.158349	0.575970	0.082909	0.797691	-8.829351	-70.934989	-151.247912
43392		8.312174	0.029979	2.345657	-0.268078	-0.599764	-1.200857	0.590334	-0.138692	0.316730	-1.122559	0.245361	0.072266	0.083105	0.000362	0.023515	-0.161292	0.576256	0.084442	0.796733	-9.069583	-70.993875	-150.635990
43393		8.016855	-0.064680	2.237038	-0.304366	-0.505652	-1.510269	0.622698	0.000749	0.242300	-1.124756	0.245361	0.072266	0.080169	-0.000619	0.022368	-0.164082	0.575917	0.086207	0.796219	-9.130558	-70.979635	-150.194249
43394		7.711892	-0.143575	2.267070	-0.223404	-0.377701	-1.785177	0.630716	0.140467	0.173017	-1.122803	0.247559	0.070068	0.077136	-0.001440	0.022612	-0.166683	0.574983	0.088087	0.796148	-9.037660	-70.892919	-149.910202
43395		7.386101	-0.175777	2.439206	-0.004711	-0.241460	-2.036008	0.580880	0.244794	0.150048	-1.127441	0.251953	0.060791	0.073892	-0.001773	0.024296	-0.169088	0.573655	0.089748	0.796413	-8.906000	-70.749128	-149.697340
43396		6.932039	-0.150688	2.480055	0.152266	-0.180682	-2.452614	0.510941	0.250119	0.155840	-1.120605	0.251953	0.065186	0.069353	-0.001516	0.024710	-0.171320	0.572365	0.091108	0.796711	-8.822919	-70.602103	-149.475150
43397		6.553760	-0.181042	2.455518	0.212268	-0.103136	-2.815660	0.474942	0.211143	0.179159	-1.125488	0.258545	0.060303	0.065565	-0.001810	0.024482	-0.173519	0.571264	0.092291	0.796888	-8.804933	-70.475001	-149.205735
43398		6.277887	-0.143716	2.558499	0.384624	-0.059788	-3.043129	0.496635	0.164306	0.183474	-1.118652	0.260986	0.055664	0.062801	-0.001443	0.025530	-0.175777	0.570335	0.093586	0.796908	-8.793504	-70.374728	-148.916098
43399		5.862434	-0.323498	2.575686	0.441086	0.182877	-3.419023	0.533538	0.076932	0.148916	-1.121094	0.263184	0.053223	0.058637	-0.003260	0.025726	-0.177958	0.569695	0.095205	0.796690	-8.724490	-70.326352	-148.664905
43400		5.599021	-0.557202	2.476573	0.332744	0.412452	-3.687976	0.552621	0.000080	0.099599	-1.121338	0.269775	0.055176	0.055993	-0.005613	0.024750	-0.179965	0.569320	0.097105	0.796277	-8.587466	-70.326237	-148.474117
43401		5.665065	-0.529869	2.503949	0.344508	0.392667	-3.618286	0.535820	-0.036530	0.077100	-1.119141	0.267578	0.055176	0.056648	-0.005344	0.025036	-0.181809	0.569087	0.099037	0.795787	-8.430591	-70.348611	-148.314814
43402		6.224589	-0.458383	2.620996	0.311350	0.276409	-3.056068	0.485562	0.023641	0.126975	-1.119141	0.269775	0.050537	0.062252	-0.004608	0.026191	-0.183745	0.568688	0.100568	0.795436	-8.371206	-70.333419	-148.082483
43403		6.153355	-0.684561	2.767516	0.362170	0.551190	-3.063127	0.481583	0.028554	0.162164	-1.114746	0.272217	0.052734	0.061543	-0.006862	0.027650	-0.185803	0.568280	0.101982	0.795069	-8.364794	-70.311939	-147.796373
43404		6.430366	-0.803792	2.866333	0.318776	0.649087	-2.763672	0.473380	-0.104244	0.166040	-1.116943	0.272217	0.048340	0.064295	-0.008052	0.028678	-0.187792	0.568411	0.103471	0.794315	-8.403966	-70.365868	-147.466775
43405		6.788719	-0.727037	3.055421	0.419246	0.591309	-2.367859	0.457372	-0.196187	0.173087	-1.121582	0.274170	0.050293	0.067863	-0.007282	0.030604	-0.189707	0.568917	0.104966	0.793301	-8.483328	-70.470714	-147.104521
43406		7.008198	-0.877866	3.214237	0.442692	0.756542	-2.102405	0.461508	-0.236004	0.161701	-1.115234	0.285645	0.052002	0.070051	-0.008796	0.032205	-0.191572	0.569570	0.106544	0.792174	-8.556667	-70.599175	-146.746306
43407		6.859150	-0.954707	3.418448	0.639680	0.942659	-2.174142	0.500365	-0.262628	0.159558	-1.119629	0.283203	0.054443	0.068554	-0.009578	0.034251	-0.193517	0.570282	0.108310	0.790948	-8.611298	-70.742522	-146.384719
43408		6.799756	-1.019608	3.645520	0.835064	1.113919	-2.155800	0.497560	-0.261815	0.141998	-1.117676	0.287842	0.058594	0.067957	-0.010239	0.036519	-0.195396	0.570982	0.110107	0.789731	-8.646474	-70.887014	-146.045415
43409		7.030921	-0.861764	3.764903	0.952574	0.990807	-1.909405	0.469503	-0.198813	0.119612	-1.115234	0.283447	0.061035	0.070277	-0.008664	0.037699	-0.197128	0.571441	0.111801	0.788731	-8.643065	-70.997526	-145.764538
43410		7.300842	-0.770153	3.803387	0.958629	0.888090	-1.648528	0.491266	-0.140766	0.097565	-1.115479	0.287842	0.060791	0.072985	-0.007759	0.038066	-0.198873	0.571639	0.113580	0.787894	-8.581737	-71.077640	-145.531925
43411		7.542788	-0.645857	3.970232	1.094443	0.814486	-1.373949	0.517503	-0.126164	0.101717	-1.113281	0.292236	0.058350	0.075406	-0.006523	0.039733	-0.200709	0.571746	0.115440	0.787081	-8.505131	-71.148674	-145.299630
43412		7.600438	-0.454541	4.150320	1.321842	0.722047	-1.272793	0.507927	-0.135270	0.112853	-1.111084	0.292236	0.060547	0.075979	-0.004608	0.041543	-0.202565	0.571905	0.117233	0.786224	-8.460018	-71.224336	-145.039880
43413		7.766615	-0.426637	4.307817	1.429400	0.747178	-1.068653	0.477830	-0.138738	0.116701	-1.113281	0.287842	0.065186	0.077639	-0.004324	0.043122	-0.204336	0.572102	0.118906	0.785371	-8.435840	-71.301361	-144.776433
43414		8.176295	-0.541391	4.318154	1.283109	0.792476	-0.673926	0.433184	-0.122104	0.080079	-1.115723	0.292236	0.062744	0.081739	-0.005475	0.043220	-0.205850	0.572260	0.120485	0.784619	-8.376355	-71.372698	-144.577620
43415		9.274302	-0.141877	4.513561	1.347697	0.331932	0.408788	0.360137	-0.023398	0.030646	-1.108887	0.294678	0.060303	0.092738	-0.001486	0.045144	-0.207014	0.572067	0.121822	0.784247	-8.247605	-71.391660	-144.495862
43416		9.656859	-0.224876	4.704217	1.370379	0.430045	0.834953	0.297989	-0.063280	-0.003569	-1.111084	0.290039	0.062744	0.096554	-0.002321	0.047069	-0.207848	0.572078	0.123048	0.783827	-8.110278	-71.436460	-144.460854
43417		10.378659	-0.338803	4.845690	1.253173	0.476760	1.567746	0.262002	-0.128583	-0.045314	-1.115479	0.287842	0.069824	0.103755	-0.003475	0.048519	-0.208368	0.572350	0.124326	0.783289	-7.934367	-71.521305	-144.488178
43418		10.878454	-0.419999	5.068508	1.281725	0.577058	2.113379	0.227317	-0.155413	-0.082361	-1.111328	0.296875	0.066895	0.108743	-0.004302	0.050765	-0.208625	0.572746	0.125597	0.782727	-7.722943	-71.625122	-144.574517
43419		10.907477	-0.685505	5.081120	1.166235	0.837681	2.153886	0.199528	-0.129170	-0.110227	-1.106689	0.292480	0.071777	0.109038	-0.006966	0.050875	-0.208711	0.573043	0.126817	0.782291	-7.469490	-71.715150	-144.721206
43420		11.108209	-0.818597	5.077179	1.047636	0.940082	2.347034	0.139340	-0.018916	-0.138550	-1.108643	0.288086	0.067383	0.111072	-0.008298	0.050777	-0.208590	0.572961	0.127759	0.782230	-7.180645	-71.745180	-144.941802
43421		11.845103	-1.040095	5.225408	0.861262	1.084415	3.101465	0.083207	0.158026	-0.183791	-1.108398	0.283447	0.063232	0.118483	-0.010532	0.052156	-0.208238	0.572207	0.128434	0.782765	-6.803455	-71.676520	-145.288968
43422		12.337483	-1.138640	5.437010	0.831115	1.186394	3.639919	0.056885	0.259242	-0.199102	-1.106201	0.283447	0.058838	0.123434	-0.011525	0.054207	-0.207817	0.571078	0.128939	0.783617	-6.401158	-71.550957	-145.679082
43423		12.374774	-1.414328	5.567707	0.761593	1.487684	3.727673	0.068241	0.232214	-0.177961	-1.105957	0.279053	0.059082	0.123800	-0.014272	0.055528	-0.207491	0.570051	0.129461	0.784365	-6.035637	-71.438213	-146.023421
43424		12.278534	-1.677944	5.631201	0.679690	1.769891	3.666693	0.064810	0.231767	-0.133809	-1.108154	0.274658	0.061523	0.122839	-0.016880	0.056164	-0.207331	0.569061	0.129839	0.785064	-5.753697	-71.322760	-146.282217
43425		12.506075	-1.619974	5.681794	0.651611	1.696765	3.898813	0.001912	0.312539	-0.086952	-1.110352	0.274414	0.050293	0.125142	-0.016255	0.056622	-0.207225	0.567844	0.129758	0.785986	-5.573566	-71.158019	-146.471417
43426		13.707160	-1.221252	5.921172	0.674157	1.219185	5.103640	-0.112239	0.383149	-0.066221	-1.107910	0.272217	0.050537	0.137181	-0.012225	0.058956	-0.206919	0.566485	0.129091	0.787156	-5.486515	-70.952213	-146.632308
43427		14.501526	-0.660451	5.795917	0.581054	0.508601	5.799062	-0.172353	0.207893	-0.075964	-1.105957	0.274658	0.052490	0.145073	-0.006610	0.057814	-0.206293	0.565864	0.128401	0.787879	-5.445903	-70.846349	-146.779912
43428		14.087023	-0.422057	5.693086	0.711253	0.322700	5.367021	-0.100309	-0.024233	-0.052255	-1.112305	0.267822	0.052979	0.140862	-0.004229	0.056950	-0.205813	0.566105	0.128161	0.787871	-5.441815	-70.872200	-146.846035
43429		12.942075	-0.485844	5.409749	0.759820	0.468221	4.194531	0.020566	-0.012597	-0.083137	-1.110107	0.270020	0.050537	0.129415	-0.004918	0.054105	-0.205563	0.566149	0.128478	0.787853	-5.313628	-70.892423	-146.969355
43430		12.447804	-0.604043	4.789055	0.308581	0.400017	3.528694	0.060630	0.120546	-0.115022	-1.112305	0.267822	0.046143	0.124503	-0.006127	0.047814	-0.205380	0.565613	0.128902	0.788216	-5.090833	-70.838822	-147.169529
43431		12.480492	-0.675082	3.987724	-0.423213	0.113711	3.299456	0.011291	0.101462	-0.090710	-1.110107	0.270020	0.052734	0.124822	-0.006810	0.039814	-0.205147	0.565212	0.129087	0.788534	-4.939182	-70.794067	-147.323367
43432		11.813071	-0.507638	3.041380	-0.952645	-0.320775	2.354724	0.035557	-0.135077	-0.011124	-1.110107	0.267822	0.048584	0.118110	-0.005088	0.030493	-0.205140	0.565775	0.129380	0.788084	-4.939350	-70.880837	-147.302607
43433		11.182703	-0.123360	2.135191	-1.332667	-0.932669	1.455902	0.021094	-0.314736	0.049116	-1.114746	0.270020	0.052979	0.111794	-0.001208	0.021528	-0.205216	0.567094	0.129635	0.787074	-5.072585	-71.066637	-147.149009
43434		10.605437	-0.057263	1.469197	-1.668455	-1.171680	0.698280	-0.042905	-0.290236	0.088015	-1.110352	0.272217	0.057129	0.106033	-0.000523	0.014846	-0.205277	0.568410	0.129498	0.786131	-5.308311	-71.236631	-146.926763
43435		10.189064	0.345795	1.149119	-1.608541	-1.592067	0.194058	-0.166539	-0.165738	0.078438	-1.116699	0.267822	0.062012	0.101880	0.003508	0.011573	-0.205032	0.569352	0.128779	0.785631	-5.581317	-71.335465	-146.739385
43436		9.678449	0.545978	0.957057	-1.525870	-1.766231	-0.355490	-0.333378	-0.036046	0.038791	-1.119141	0.272217	0.061768	0.096782	0.005495	0.009579	-0.204234	0.569934	0.127379	0.785645	-5.864123	-71.362973	-146.643513
43437		9.336791	0.902489	0.924850	-1.290068	-2.040592	-0.701310	-0.398469	-0.038718	0.021659	-1.114746	0.270020	0.063965	0.093365	0.009053	0.009249	-0.203185	0.570575	0.125779	0.785710	-6.155212	-71.392238	-146.577382
43438		9.233724	1.360918	0.870865	-1.094146	-2.458227	-0.833149	-0.444034	0.002902	0.021955	-1.114746	0.272217	0.059570	0.092336	0.013639	0.008677	-0.202028	0.571102	0.123953	0.785916	-6.466413	-71.398337	-146.518406
43439		9.292755	1.931220	0.804047	-0.909367	-3.013244	-0.822426	-0.504799	0.060623	0.020424	-1.116699	0.263184	0.060059	0.092928	0.019342	0.007964	-0.200732	0.571453	0.121837	0.786323	-6.797787	-71.370915	-146.474055
43440		9.203242	2.352242	0.838183	-0.675969	-3.369410	-0.917443	-0.574736	0.063619	-0.012459	-1.119385	0.274414	0.061523	0.092037	0.023541	0.008285	-0.199100	0.571840	0.119535	0.786810	-7.111900	-71.344200	-146.490706
43441		9.028252	2.550852	1.178824	-0.264677	-3.383952	-0.987463	-0.636585	0.045406	-0.093999	-1.119141	0.267822	0.068848	0.090297	0.025503	0.011687	-0.196964	0.572304	0.117241	0.787354	-7.328499	-71.333524	-146.647184
43442		9.059480	2.513305	1.512646	-0.023101	-3.223945	-0.852521	-0.653388	0.043039	-0.201275	-1.119141	0.267578	0.064209	0.090623	0.025091	0.015025	-0.194351	0.572730	0.115188	0.787997	-7.375014	-71.332734	-146.993797
43443		9.753887	2.506634	1.847913	0.049425	-3.203573	-0.087930	-0.701065	0.094754	-0.295532	-1.118896	0.263184	0.064453	0.097585	0.024987	0.018345	-0.191260	0.572932	0.113166	0.788899	-7.279227	-71.308834	-147.519046
43444		10.403092	2.260273	2.161407	0.002753	-2.961219	0.638908	-0.754402	0.113502	-0.438605	-1.120850	0.256592	0.064941	0.104092	0.022456	0.021470	-0.187458	0.573022	0.111325	0.790007	-6.970283	-71.284122	-148.301791
43445		10.527161	1.751127	2.334790	-0.133416	-2.432920	0.836338	-0.747009	0.045280	-0.558435	-1.120361	0.247559	0.070068	0.105325	0.017304	0.023259	-0.183164	0.573295	0.109917	0.791013	-6.470325	-71.304221	-149.281624
43446		9.985366	0.926486	2.401484	-0.292060	-1.536275	0.379832	-0.713495	-0.102676	-0.570632	-1.122559	0.245361	0.067871	0.099867	0.009066	0.024034	-0.178826	0.574106	0.108812	0.791570	-5.952444	-71.407023	-150.259964
43447		9.281987	-0.074099	2.272811	-0.613040	-0.518895	-0.290021	-0.647602	-0.377546	-0.536584	-1.117676	0.236572	0.079590	0.092774	-0.000916	0.022906	-0.174665	0.575950	0.108112	0.791256	-5.491300	-71.661456	-151.137448
43448		9.229556	-0.811886	2.118766	-0.994503	0.156619	-0.361811	-0.565269	-0.610864	-0.451073	-1.119629	0.225342	0.086914	0.092212	-0.008266	0.021493	-0.170947	0.578681	0.107694	0.790132	-5.147739	-72.042894	-151.839961
43449		9.072922	-1.404959	2.023793	-1.218110	0.738670	-0.519803	-0.542883	-0.631787	-0.372966	-1.117188	0.225586	0.091553	0.090638	-0.014163	0.020563	-0.167590	0.581502	0.107152	0.788852	-4.913186	-72.430841	-152.412995
43450		8.994521	-1.620001	2.032162	-1.221491	0.993539	-0.583601	-0.527988	-0.532637	-0.311493	-1.126221	0.223145	0.102783	0.089865	-0.016286	0.020604	-0.164561	0.583944	0.106408	0.787786	-4.748314	-72.759068	-152.903180
43451		8.834271	-1.636430	1.991773	-1.179175	1.046733	-0.746092	-0.554356	-0.334575	-0.230688	-1.121582	0.218750	0.103027	0.088290	-0.016411	0.020111	-0.161884	0.585660	0.105157	0.787234	-4.710390	-72.969655	-153.275362
43452		8.472205	-1.631050	2.017202	-1.035727	1.114158	-1.083794	-0.519720	-0.054727	-0.159564	-1.125977	0.218750	0.107666	0.084703	-0.016326	0.020238	-0.159729	0.586280	0.103608	0.787418	-4.737995	-73.017448	-153.558142
43453		8.105379	-1.395183	2.104528	-0.768813	0.975398	-1.414457	-0.482826	0.144975	-0.098348	-1.121582	0.218750	0.105469	0.081062	-0.013941	0.021020	-0.158030	0.586110	0.101863	0.788115	-4.829132	-72.948011	-153.752258
43454		7.856620	-1.244699	2.185292	-0.583945	0.886832	-1.631993	-0.424157	0.294727	-0.029942	-1.118896	0.212158	0.110352	0.078596	-0.012413	0.021763	-0.156847	0.585336	0.100031	0.789161	-4.990095	-72.790142	-153.838258
43455		7.595651	-1.124699	2.296681	-0.388056	0.830919	-1.850745	-0.345318	0.378975	0.024308	-1.123779	0.220947	0.103027	0.076001	-0.011198	0.022842	-0.156151	0.584190	0.098283	0.790367	-5.191019	-72.581231	-153.835160
43456		7.327964	-0.993704	2.339344	-0.250376	0.739244	-2.095836	-0.266300	0.381481	0.058223	-1.125977	0.216309	0.092041	0.073327	-0.009885	0.023267	-0.155817	0.582991	0.096746	0.791507	-5.405201	-72.369896	-153.771003
43457		7.047848	-0.875225	2.328167	-0.159997	0.644378	-2.368383	-0.159234	0.320656	0.069541	-1.123779	0.220947	0.089600	0.070519	-0.008709	0.023176	-0.155813	0.581947	0.095646	0.792409	-5.585573	-72.191762	-153.677547
43458		6.700598	-0.628873	2.389486	0.063561	0.466021	-2.686547	-0.118785	0.265113	0.096634	-1.128418	0.220703	0.096191	0.067041	-0.006242	0.023810	-0.156009	0.581100	0.094672	0.793109	-5.797502	-72.043356	-153.526229
43459		6.305090	-0.491837	2.427667	0.245601	0.391319	-3.054273	-0.107945	0.194836	0.082524	-1.126221	0.220703	0.087402	0.063077	-0.004879	0.024218	-0.156144	0.580518	0.093836	0.793607	-5.988669	-71.935974	-153.390367
43460		6.092375	-0.336297	2.353802	0.288954	0.241004	-3.283604	-0.107701	0.104140	0.062053	-1.128174	0.218506	0.089600	0.060937	-0.003331	0.023508	-0.156156	0.580288	0.093131	0.793856	-6.159341	-71.881746	-153.275985
43461		6.070660	-0.144553	2.370430	0.377804	0.064233	-3.305316	-0.122743	0.010201	0.016168	-1.128418	0.223145	0.091553	0.060708	-0.001426	0.023702	-0.155899	0.580419	0.092572	0.793876	-6.275812	-71.883412	-153.227555
43462		6.308600	0.044359	2.517729	0.514425	-0.100391	-3.040343	-0.154805	-0.057666	-0.002925	-1.133057	0.222900	0.091797	0.063079	0.000462	0.025195	-0.155439	0.580838	0.091995	0.793727	-6.390317	-71.925295	-153.200734
43463		6.585355	0.181480	2.699402	0.657159	-0.210650	-2.726760	-0.216608	-0.119528	0.005889	-1.126221	0.225342	0.093750	0.065837	0.001846	0.027031	-0.154809	0.581550	0.091195	0.793421	-6.568600	-72.001411	-153.143880
43464		7.002561	0.194939	2.895486	0.736582	-0.221339	-2.271723	-0.275736	-0.189032	0.017578	-1.128174	0.218506	0.092041	0.069998	0.001996	0.029018	-0.154021	0.582591	0.090179	0.792927	-6.817518	-72.116541	-153.048452
43465		7.248896	0.175137	3.089726	0.856348	-0.178513	-1.979531	-0.269221	-0.241665	0.039795	-1.128174	0.218506	0.096436	0.072451	0.001807	0.030982	-0.153316	0.583841	0.089165	0.792258	-7.115121	-72.259610	-152.898005
43466		7.599187	0.274500	3.248741	0.962698	-0.274094	-1.604439	-0.306362	-0.263875	0.045721	-1.128662	0.225342	0.104980	0.075948	0.002812	0.032583	-0.152512	0.585207	0.088005	0.791536	-7.451863	-72.414511	-152.728997
43467		7.791269	0.256844	3.392783	1.059996	-0.244250	-1.380753	-0.317148	-0.245650	0.040525	-1.130615	0.218506	0.100830	0.077870	0.002638	0.034019	-0.151667	0.586505	0.086801	0.790870	-7.786964	-72.559255	-152.568273
43468		7.982462	0.147205	3.444269	1.041361	-0.157564	-1.181635	-0.275593	-0.199785	0.034212	-1.121826	0.225586	0.109375	0.079790	0.001533	0.034520	-0.150936	0.587584	0.085747	0.790323	-8.078258	-72.678168	-152.428605
43469		8.232384	0.070001	3.625882	1.132663	-0.068467	-0.888763	-0.214500	-0.147295	0.034825	-1.126221	0.225342	0.111816	0.082297	0.000753	0.036319	-0.150411	0.588410	0.084891	0.789901	-8.325253	-72.767102	-152.298766
43470		8.359858	-0.071856	3.728249	1.160892	0.073700	-0.733089	-0.155083	-0.134926	0.047340	-1.126221	0.220947	0.109863	0.083574	-0.000670	0.037339	-0.150117	0.589147	0.084223	0.789479	-8.560393	-72.847907	-152.145641
43471		8.392749	-0.250167	3.678616	1.063722	0.217309	-0.710254	-0.094283	-0.136034	0.050500	-1.123779	0.220947	0.114258	0.083903	-0.002463	0.036844	-0.150012	0.589843	0.083787	0.789025	-8.767796	-72.928795	-151.985274
43472		8.675491	-0.263296	3.748367	1.062467	0.210108	-0.420630	-0.047904	-0.085751	0.023560	-1.130859	0.225342	0.114014	0.086739	-0.002614	0.037521	-0.149956	0.590292	0.083577	0.788722	-8.884342	-72.983289	-151.892218
43473		9.248934	-0.035371	4.009109	1.229562	-0.007008	0.192567	-0.048839	0.092488	0.020529	-1.124023	0.223145	0.111816	0.092508	-0.000334	0.040048	-0.149962	0.590040	0.083237	0.788946	-8.945992	-72.937279	-151.857125
43474		9.201979	-0.075795	4.042570	1.246272	0.041213	0.160758	-0.009845	0.213389	-0.019570	-1.124023	0.223145	0.114014	0.092063	-0.000765	0.040328	-0.149975	0.589261	0.083080	0.789542	-8.875691	-72.826036	-151.936535
43475		9.420739	-0.231367	3.917374	0.998867	0.113863	0.343044	0.107909	0.314572	-0.042735	-1.121338	0.216553	0.107666	0.094268	-0.002355	0.039024	-0.150286	0.587987	0.083379	0.790401	-8.669658	-72.659823	-152.087659
43476		9.709738	-0.049564	4.044139	1.061314	-0.060156	0.651841	0.246516	0.400857	-0.055670	-1.126221	0.223145	0.107422	0.097178	-0.000572	0.040246	-0.150983	0.586259	0.084200	0.791464	-8.339957	-72.445570	-152.285493
43477		9.893479	0.154055	4.335577	1.301545	-0.186965	0.909847	0.251762	0.387762	-0.047454	-1.126221	0.220947	0.100830	0.099019	0.001463	0.043166	-0.151727	0.584580	0.085026	0.792474	-8.033173	-72.237785	-152.456184
43478		10.503322	0.413518	4.437821	1.277383	-0.485088	1.515061	0.251246	0.330794	-0.017497	-1.121582	0.220947	0.091797	0.105107	0.004070	0.044210	-0.152560	0.583138	0.085805	0.793293	-7.797416	-72.059852	-152.552918
43479		11.192251	0.684113	4.862859	1.527329	-0.705959	2.293123	0.224163	0.318812	0.011796	-1.126221	0.223145	0.091553	0.111999	0.006793	0.048458	-0.153428	0.581774	0.086400	0.794062	-7.634910	-71.886239	-152.588867
43480		11.547815	0.855010	5.306959	1.855898	-0.782001	2.764711	0.185395	0.231291	0.047443	-1.121826	0.223145	0.093994	0.115537	0.008528	0.052944	-0.154285	0.580798	0.086806	0.794566	-7.576555	-71.759268	-152.538483
43481		11.277694	0.938464	5.533389	2.140497	-0.757189	2.578050	0.146122	0.201953	0.080963	-1.124023	0.223145	0.087158	0.112829	0.009390	0.055227	-0.155149	0.579985	0.086979	0.794972	-7.605997	-71.646764	-152.419414
43482		11.097327	0.979606	5.744445	2.376295	-0.712768	2.473650	0.108624	0.181513	0.092366	-1.121826	0.225342	0.084717	0.111021	0.009816	0.057349	-0.155937	0.579287	0.086987	0.795326	-7.678926	-71.545136	-152.277247
43483		11.411280	1.057177	6.143942	2.652421	-0.717881	2.896844	0.085823	0.247051	0.090787	-1.128418	0.225098	0.080322	0.114184	0.010597	0.061303	-0.156685	0.578345	0.086856	0.795879	-7.747013	-71.406193	-152.153700
43484		12.405631	1.078417	6.470300	2.636143	-0.801762	3.947222	0.055226	0.390482	0.075278	-1.126465	0.231934	0.075439	0.124178	0.010813	0.064464	-0.157341	0.576844	0.086539	0.796873	-7.770505	-71.186714	-152.095548
43485		14.084675	1.226891	6.293431	2.004177	-1.279531	5.479021	-0.071872	0.393255	0.053732	-1.124023	0.225342	0.069092	0.140967	0.012329	0.062653	-0.157548	0.575424	0.085772	0.797941	-7.831151	-70.967599	-152.075090
43486		13.782918	0.552166	5.750905	1.325006	-0.808516	5.051263	-0.169390	0.356986	0.044589	-1.124268	0.231934	0.068604	0.137930	0.005601	0.057258	-0.157422	0.574213	0.084673	0.798954	-7.938075	-70.769150	-152.064405
43487		11.871586	-0.270357	5.014444	0.899431	-0.006200	3.045894	-0.107642	0.346008	0.038291	-1.119629	0.227539	0.064453	0.118803	-0.002654	0.049940	-0.157444	0.572999	0.083845	0.799908	-8.002651	-70.578052	-152.061452
43488		11.056308	-0.991644	4.586381	0.464340	0.639306	2.172120	0.027455	0.456052	0.008888	-1.124268	0.229736	0.057617	0.110668	-0.009918	0.045610	-0.157780	0.571219	0.083557	0.801144	-7.916901	-70.326365	-152.135558
43489		11.844804	-0.813272	4.206409	-0.093989	0.212632	2.780978	-0.043935	0.404047	-0.057990	-1.119629	0.227539	0.062256	0.118530	-0.008158	0.041826	-0.157622	0.569678	0.083212	0.802308	-7.781462	-70.109860	-152.306364
43490		12.365991	-0.663535	3.090383	-1.223184	-0.366856	2.886827	-0.255797	0.182208	-0.114473	-1.124023	0.225098	0.051025	0.123684	-0.006667	0.030800	-0.156538	0.569166	0.082355	0.802972	-7.727074	-70.023349	-152.520144
43491		11.790222	-1.129251	2.140599	-2.064744	-0.129829	2.044238	-0.262071	0.041476	-0.154639	-1.124023	0.227295	0.053223	0.117898	-0.011356	0.021396	-0.155220	0.569209	0.081695	0.803265	-7.645500	-70.019959	-152.766834
43492		11.143955	-1.540068	1.783796	-2.325194	0.261373	1.334805	-0.253165	-0.049234	-0.183550	-1.121582	0.220703	0.053711	0.111421	-0.015480	0.017885	-0.153773	0.569589	0.081226	0.803321	-7.530410	-70.069459	-153.043341
43493		10.800236	-1.840354	1.286735	-2.756912	0.463659	0.858400	-0.334069	-0.075144	-0.191644	-1.125977	0.220703	0.055908	0.107980	-0.018485	0.012939	-0.152053	0.570137	0.080472	0.803336	-7.455097	-70.134796	-153.327117
43494		10.899998	-2.014642	0.927273	-3.152752	0.524464	0.841589	-0.415913	-0.116742	-0.181100	-1.132568	0.216064	0.062988	0.108976	-0.020226	0.009378	-0.150122	0.570911	0.079394	0.803256	-7.448660	-70.222386	-153.587145
43495		11.055061	-1.969893	0.706781	-3.362570	0.416048	0.916447	-0.374747	-0.176805	-0.179586	-1.125732	0.214111	0.062988	0.110527	-0.019785	0.007203	-0.148292	0.571897	0.078517	0.802981	-7.433994	-70.344499	-153.830933
43496		11.006048	-1.727808	1.009557	-2.977947	0.305991	0.965799	-0.304147	-0.138194	-0.146641	-1.136719	0.209229	0.065674	0.110041	-0.017343	0.010198	-0.146805	0.572686	0.077804	0.802761	-7.419713	-70.442184	-154.031336
43497		10.539014	-1.684739	1.187327	-2.651268	0.400506	0.585835	-0.236773	-0.051609	-0.109201	-1.127686	0.207275	0.065674	0.105378	-0.016891	0.011920	-0.145700	0.573092	0.077188	0.802733	-7.410142	-70.487922	-154.185559
43498		10.079328	-2.009587	1.166044	-2.632811	0.780312	0.159792	-0.101943	0.002998	-0.139886	-1.132324	0.211670	0.065430	0.100779	-0.020160	0.011669	-0.144870	0.573165	0.077164	0.802833	-7.259033	-70.504689	-154.408208
43499		9.924900	-2.090021	1.299863	-2.495622	0.930941	0.059833	0.095389	0.030759	-0.155461	-1.123291	0.209717	0.063232	0.099235	-0.020984	0.012973	-0.144563	0.572980	0.077954	0.802944	-6.967338	-70.506607	-154.659786
43500		9.562887	-2.343965	1.428953	-2.362417	1.276530	-0.232797	0.276066	0.035296	-0.186769	-1.129883	0.207275	0.067871	0.095609	-0.023549	0.014240	-0.144648	0.572630	0.079557	0.803021	-6.519661	-70.507161	-154.966847
43501		9.343306	-2.394068	1.602512	-2.169549	1.424598	-0.386103	0.452445	-0.017534	-0.173587	-1.134521	0.207031	0.061279	0.093411	-0.024058	0.015979	-0.145271	0.572370	0.081866	0.802861	-6.002465	-70.536468	-155.240592
43502		9.931394	-2.057156	1.864776	-2.012936	1.120965	0.238848	0.495990	-0.057790	-0.104880	-1.130127	0.211670	0.072266	0.099298	-0.020670	0.018625	-0.146274	0.572264	0.084184	0.802515	-5.575529	-70.583874	-155.392136
43503		10.359424	-1.478436	2.181440	-1.676147	0.623667	0.725988	0.428971	0.020922	-0.008136	-1.127686	0.207275	0.063477	0.103596	-0.014835	0.021772	-0.147509	0.571930	0.085896	0.802346	-5.331532	-70.580948	-155.390364
43504		10.049534	-1.057655	2.408827	-1.246032	0.342198	0.494811	0.368541	0.037512	0.079532	-1.127686	0.207275	0.065674	0.100504	-0.010581	0.024050	-0.148929	0.571612	0.087101	0.802180	-5.262223	-70.564312	-155.240205
43505		9.623100	-0.891488	2.507386	-0.975310	0.273580	0.120072	0.411874	-0.027334	0.126325	-1.127686	0.205078	0.065918	0.096233	-0.008906	0.025069	-0.150632	0.571537	0.088396	0.801774	-5.252755	-70.581861	-155.000133
43506		8.889691	-0.840014	2.629762	-0.620406	0.367031	-0.532156	0.533380	-0.180165	0.167608	-1.130371	0.216064	0.067383	0.088880	-0.008396	0.026355	-0.152773	0.572000	0.090174	0.800840	-5.263309	-70.684874	-154.665552
43507		8.533539	-0.633277	2.634284	-0.415780	0.230885	-0.872021	0.624255	-0.391578	0.217331	-1.123779	0.220703	0.067139	0.085290	-0.006323	0.026490	-0.155282	0.573253	0.092335	0.799214	-5.339432	-70.905350	-154.206315
43508		8.362896	-0.514193	2.679999	-0.249522	0.169400	-1.021001	0.693453	-0.453701	0.218524	-1.126221	0.222900	0.073730	0.083574	-0.005144	0.026972	-0.157966	0.574694	0.094813	0.797361	-5.395681	-71.161263	-153.726794
43509		8.087984	-0.149271	2.523500	-0.142993	-0.169896	-1.341772	0.709391	-0.418502	0.193186	-1.122070	0.229736	0.075439	0.080828	-0.001505	0.025399	-0.160605	0.575957	0.097400	0.795609	-5.399860	-71.398143	-153.293348
43510		7.984269	0.015389	2.304431	-0.218867	-0.369134	-1.513593	0.696117	-0.296028	0.150858	-1.124023	0.227539	0.077881	0.079808	0.000134	0.023163	-0.163100	0.576715	0.099953	0.794234	-5.326755	-71.567762	-152.949811
43511		7.801756	0.076082	2.300992	-0.129125	-0.387393	-1.688590	0.702573	-0.202345	0.109094	-1.124268	0.231934	0.073242	0.077994	0.000722	0.023091	-0.165487	0.577065	0.102577	0.793151	-5.162722	-71.686085	-152.698608
43512		7.700005	0.303327	2.400837	0.086377	-0.535587	-1.759627	0.629542	-0.132629	0.112974	-1.126709	0.234131	0.077637	0.076982	0.003001	0.024069	-0.167718	0.577193	0.104840	0.792293	-5.038581	-71.764515	-152.449320
43513		7.386628	0.357317	2.485864	0.277967	-0.500662	-2.031844	0.533815	-0.079421	0.121548	-1.115479	0.236572	0.077393	0.073854	0.003552	0.024897	-0.169727	0.577190	0.106655	0.791625	-4.974934	-71.812381	-152.194462
43514		7.091504	0.216964	2.545084	0.362251	-0.301363	-2.289928	0.499914	-0.044464	0.134384	-1.124512	0.238770	0.079590	0.070908	0.002154	0.025472	-0.171714	0.577081	0.108266	0.791057	-4.950700	-71.839778	-151.918303
43515		6.713133	0.148555	2.548261	0.444625	-0.177933	-2.646621	0.491828	-0.006017	0.136608	-1.120117	0.240967	0.077148	0.067130	0.001469	0.025488	-0.173699	0.576823	0.109807	0.790599	-4.926880	-71.845095	-151.646927
43516		6.422673	0.088694	2.600822	0.546574	-0.057538	-2.904662	0.485254	0.013444	0.146252	-1.120117	0.238770	0.074951	0.064228	0.000871	0.026006	-0.175719	0.576498	0.111274	0.790184	-4.923323	-71.839122	-151.357992
43517		6.056220	0.182990	2.554356	0.644969	-0.103964	-3.269812	0.457448	-0.002543	0.153858	-1.115967	0.245605	0.074463	0.060560	0.001818	0.025549	-0.177672	0.576259	0.112625	0.789731	-4.948667	-71.841609	-151.055602
43518		5.780588	0.090575	2.353882	0.510860	-0.052056	-3.591718	0.455734	-0.069701	0.159398	-1.115967	0.250000	0.078857	0.057797	0.000898	0.023561	-0.179609	0.576287	0.114010	0.789073	-4.997230	-71.882173	-150.729602
43519		5.683974	0.061669	2.299015	0.483866	-0.028432	-3.700250	0.456126	-0.128777	0.161845	-1.115967	0.250000	0.078857	0.056824	0.000610	0.023028	-0.181517	0.576544	0.115445	0.788239	-5.058060	-71.956158	-150.390815
43520		5.702385	-0.026113	2.303357	0.455161	0.055211	-3.679735	0.463213	-0.179422	0.161227	-1.116455	0.256592	0.076172	0.057003	-0.000269	0.023084	-0.183419	0.576996	0.116950	0.787245	-5.127331	-72.059556	-150.038957
43521		5.922464	-0.206776	2.309194	0.337436	0.194404	-3.464535	0.473722	-0.267004	0.151532	-1.118408	0.254395	0.083008	0.059195	-0.002078	0.023166	-0.185253	0.577768	0.118608	0.786001	-5.186609	-72.212713	-149.691626
43522		6.386336	-0.344412	2.376669	0.232706	0.283738	-2.999629	0.469397	-0.364065	0.160187	-1.114258	0.259033	0.084961	0.063823	-0.003449	0.023875	-0.187059	0.578929	0.120308	0.784459	-5.287844	-72.420997	-149.302961
43523		6.879095	-0.348018	2.621514	0.339233	0.322934	-2.457692	0.434886	-0.433509	0.141001	-1.109375	0.252441	0.087646	0.068736	-0.003489	0.026357	-0.188637	0.580372	0.121997	0.782752	-5.388297	-72.669364	-148.936580
43524		7.209867	-0.403418	2.787112	0.405500	0.405611	-2.093630	0.399826	-0.524583	0.152436	-1.105225	0.256836	0.091797	0.072028	-0.004035	0.028052	-0.190105	0.582211	0.123597	0.780778	-5.556529	-72.969281	-148.520827
43525		7.565695	-0.520933	2.913532	0.411333	0.527475	-1.716256	0.406267	-0.553029	0.141306	-1.107422	0.257080	0.103027	0.075580	-0.005215	0.029334	-0.191524	0.584136	0.125283	0.778722	-5.713184	-73.285208	-148.114001
43526		7.825291	-0.655219	3.214729	0.585059	0.755241	-1.381427	0.425053	-0.510096	0.118343	-1.103271	0.265869	0.102539	0.078174	-0.006575	0.032333	-0.192933	0.585860	0.127063	0.776788	-5.818832	-73.578436	-147.750074
43527		7.975855	-0.699105	3.387679	0.710374	0.866328	-1.191543	0.419654	-0.427809	0.099586	-1.103027	0.261475	0.109375	0.079689	-0.007023	0.034033	-0.194303	0.587245	0.128800	0.775113	-5.880059	-73.824982	-147.435892
43528		7.952401	-0.841393	3.424511	0.707768	1.031245	-1.203887	0.423704	-0.324174	0.099007	-1.101074	0.268311	0.111328	0.079473	-0.008447	0.034356	-0.195754	0.588226	0.130448	0.773728	-5.925387	-74.012972	-147.136234
43529		8.078943	-0.863332	3.370716	0.638222	1.022618	-1.099290	0.400899	-0.205946	0.103691	-1.096680	0.270508	0.115479	0.080759	-0.008659	0.033773	-0.197225	0.588764	0.131881	0.772701	-5.968291	-74.132690	-146.852869
43530		8.346392	-0.876210	3.364456	0.573291	0.999788	-0.844894	0.381469	-0.082267	0.095994	-1.105957	0.272705	0.108887	0.083454	-0.008786	0.033662	-0.198699	0.588844	0.133134	0.772047	-5.988074	-74.183144	-146.605329
43531		8.796241	-0.768856	3.531985	0.664462	0.914429	-0.370112	0.344517	0.001071	0.106475	-1.103516	0.270508	0.115723	0.087967	-0.007703	0.035306	-0.200151	0.588636	0.134136	0.771658	-6.027524	-74.184651	-146.359285
43532		9.506075	-0.626849	3.711715	0.718311	0.760045	0.357936	0.273656	0.083964	0.088171	-1.105957	0.272705	0.106445	0.095079	-0.006277	0.037069	-0.201384	0.588170	0.134829	0.771571	-6.056869	-74.140489	-146.166024
43533		10.296226	-0.364777	3.906542	0.811126	0.486260	1.165106	0.169819	0.280661	0.060534	-1.099121	0.274902	0.104004	0.103018	-0.003650	0.038918	-0.202332	0.587025	0.135011	0.772163	-6.043731	-73.985420	-146.078617
43534		10.590716	-0.349252	3.940646	0.751667	0.426766	1.459699	0.106772	0.324549	0.028058	-1.099121	0.272705	0.099854	0.105971	-0.003499	0.039233	-0.203006	0.585752	0.134995	0.772955	-5.996403	-73.807296	-146.064169
43535		10.794793	-0.480967	4.074539	0.722858	0.555544	1.699457	0.102912	0.342218	-0.012108	-1.101318	0.272705	0.099854	0.108017	-0.004837	0.040558	-0.203517	0.584384	0.135068	0.773843	-5.866628	-73.621498	-146.138059
43536		10.666655	-0.725664	4.444680	0.916825	0.946151	1.690504	0.140507	0.297717	-0.049897	-1.099121	0.274902	0.093018	0.106731	-0.007314	0.044283	-0.203966	0.583126	0.135437	0.774608	-5.656616	-73.463453	-146.273341
43537		10.933746	-0.801867	4.723423	1.018630	1.089455	2.031125	0.112462	0.304091	-0.069941	-1.101563	0.277100	0.092773	0.109406	-0.008083	0.047063	-0.204255	0.581854	0.135754	0.775433	-5.423671	-73.302460	-146.449313
43538		11.385525	-0.715327	4.765475	0.942013	0.950569	2.477975	0.042247	0.454848	-0.114211	-1.098877	0.268066	0.082031	0.113959	-0.007228	0.047394	-0.204269	0.580038	0.135770	0.776786	-5.126623	-73.057550	-146.734659
43539		11.437072	-0.921317	4.706628	0.722952	1.081401	2.520816	0.005894	0.543988	-0.134527	-1.101074	0.265869	0.080078	0.114492	-0.009292	0.046755	-0.204159	0.577894	0.135614	0.778438	-4.806318	-72.762328	-147.066346
43540		11.352696	-1.288772	4.917905	0.686497	1.495223	2.517078	0.022824	0.505299	-0.116990	-1.107910	0.268066	0.075439	0.113643	-0.012960	0.048891	-0.204138	0.575892	0.135510	0.779944	-4.525449	-72.487826	-147.347277
43541		11.006566	-1.693301	5.083768	0.667710	1.966075	2.251513	0.059775	0.428905	-0.086941	-1.101074	0.265869	0.073242	0.110167	-0.016996	0.050596	-0.204287	0.574167	0.135543	0.781170	-4.295102	-72.255319	-147.553157
43542		11.518880	-1.815824	5.489620	0.773307	2.155247	2.870942	0.035162	0.375057	-0.030996	-1.101074	0.268066	0.070801	0.115289	-0.018186	0.054677	-0.204548	0.572714	0.135371	0.782198	-4.190903	-72.050924	-147.641846
43543		13.319377	-1.413240	5.655268	0.594013	1.554414	4.630852	-0.083042	0.359925	0.006446	-1.112305	0.267822	0.066406	0.133296	-0.014105	0.056319	-0.204605	0.571463	0.134647	0.783222	-4.222451	-71.853688	-147.658827
43544		14.401183	-0.963016	5.506315	0.371538	0.883514	5.605557	-0.128003	0.179500	0.063682	-1.105469	0.265625	0.066650	0.144064	-0.009549	0.054940	-0.204636	0.571003	0.133764	0.783701	-4.403058	-71.756918	-147.546357
43545		13.658496	-0.827475	5.163257	0.340706	0.717755	4.790982	-0.023514	0.009966	0.077038	-1.112061	0.263428	0.064453	0.136591	-0.008216	0.051627	-0.204904	0.571109	0.133430	0.783611	-4.567675	-71.756445	-147.387333
43546		12.864055	-1.088682	4.810536	0.133252	0.919479	3.933119	0.167430	0.009062	0.054303	-1.116699	0.265381	0.062012	0.128646	-0.010892	0.048090	-0.205628	0.571006	0.133906	0.783414	-4.584795	-71.757259	-147.268761
43547		12.791445	-1.008953	4.435743	-0.132188	0.692519	3.745255	0.232436	0.109264	0.045626	-1.107910	0.267822	0.064209	0.127941	-0.010112	0.044276	-0.206570	0.570439	0.134562	0.783468	-4.534479	-71.701438	-147.181623
43548		12.715908	-0.833706	3.700470	-0.652972	0.218740	3.439053	0.239028	0.023776	0.084144	-1.107666	0.265625	0.059814	0.127167	-0.008328	0.036980	-0.207625	0.570224	0.135217	0.783233	-4.559760	-71.692494	-147.011230
43549		12.019422	-0.396304	3.008281	-0.828563	-0.357114	2.550938	0.337499	-0.165331	0.144180	-1.114746	0.270020	0.068604	0.120172	-0.003927	0.030176	-0.209066	0.570686	0.136287	0.782326	-4.658071	-71.788935	-146.704201
43550		11.545222	0.038272	2.315550	-1.046325	-0.965413	1.876132	0.407954	-0.249534	0.170890	-1.110352	0.276855	0.068115	0.115423	0.000434	0.023300	-0.210754	0.571419	0.137640	0.781100	-4.778589	-71.931830	-146.331902
43551		11.393195	0.334914	1.720885	-1.325216	-1.467005	1.543814	0.342839	-0.238984	0.192457	-1.106201	0.281250	0.070068	0.113908	0.003429	0.017351	-0.212347	0.572191	0.138669	0.779921	-4.975581	-72.067516	-145.918351
43552		11.124672	0.542922	1.255256	-1.513391	-1.819606	1.143014	0.210542	-0.131586	0.177447	-1.114990	0.278809	0.065674	0.111234	0.005515	0.012632	-0.213576	0.572673	0.139106	0.779154	-5.210221	-72.142064	-145.545473
43553		10.508490	0.595485	0.859029	-1.645705	-1.947697	0.435191	0.057696	-0.017519	0.077918	-1.108154	0.276855	0.072510	0.105082	0.005993	0.008601	-0.214059	0.572802	0.139115	0.778924	-5.337883	-72.156540	-145.376746
43554		10.693539	0.636486	0.856203	-1.672627	-2.022531	0.608524	-0.043336	0.072986	0.014284	-1.114746	0.274414	0.063721	0.106938	0.006374	0.008522	-0.214067	0.572644	0.138813	0.779092	-5.396861	-72.122673	-145.341278
43555		10.427459	0.872410	0.866024	-1.489230	-2.184851	0.348591	-0.164276	0.160531	0.007864	-1.114990	0.278809	0.061279	0.104281	0.008735	0.008569	-0.213765	0.572269	0.137967	0.779601	-5.497666	-72.039248	-145.334376
43556		10.006458	1.290228	0.897446	-1.164606	-2.473264	-0.059436	-0.263917	0.192898	0.030948	-1.121582	0.274170	0.057129	0.100071	0.012930	0.008861	-0.213282	0.571890	0.136631	0.780246	-5.688768	-71.936301	-145.293150
43557		9.631278	1.680806	0.980640	-0.824847	-2.728146	-0.409228	-0.367812	0.236284	0.062972	-1.119629	0.283203	0.065430	0.096319	0.016856	0.009662	-0.212663	0.571471	0.134753	0.781048	-5.986829	-71.806474	-145.201389
43558		9.271236	1.976591	1.161019	-0.456495	-2.863198	-0.713000	-0.473326	0.230341	0.058359	-1.117676	0.285645	0.065430	0.092720	0.019820	0.011457	-0.211713	0.571185	0.132480	0.781905	-6.334726	-71.680624	-145.121348
43559		8.983611	2.214711	1.214596	-0.242053	-3.018297	-0.985646	-0.559228	0.196054	0.017788	-1.117188	0.278809	0.065918	0.089846	0.022189	0.011996	-0.210341	0.571088	0.130024	0.782757	-6.667102	-71.576308	-145.108865
43560		9.407659	2.456899	1.371037	-0.128179	-3.257567	-0.550297	-0.629726	0.197430	-0.066397	-1.121826	0.278809	0.061279	0.094098	0.024581	0.013540	-0.208430	0.571012	0.127526	0.783734	-6.895771	-71.478313	-145.249216
43561		10.229622	2.497354	1.755820	-0.033044	-3.290427	0.342936	-0.729370	0.249470	-0.178556	-1.119385	0.274414	0.054932	0.102340	0.024946	0.017340	-0.205833	0.570745	0.124905	0.785036	-6.979954	-71.357178	-145.601406
43562		10.611491	2.167332	2.035445	-0.096721	-2.958685	0.802429	-0.799362	0.297543	-0.320795	-1.123779	0.271973	0.052734	0.106180	0.021584	0.020110	-0.202497	0.570265	0.122365	0.786651	-6.856588	-71.218950	-146.215681
43563		10.378562	1.768618	2.225227	-0.108443	-2.486062	0.656395	-0.852723	0.307721	-0.431111	-1.121338	0.269775	0.050537	0.103858	0.017557	0.022017	-0.198583	0.569716	0.119915	0.788422	-6.585500	-71.081179	-147.018514
43564		9.913044	0.963744	2.145083	-0.455289	-1.711831	0.220301	-0.847727	0.158054	-0.463684	-1.120850	0.256348	0.058105	0.099169	0.009498	0.021332	-0.194460	0.569716	0.117727	0.789778	-6.290233	-71.029220	-147.844028
43565		9.514907	-0.109300	2.297535	-0.707511	-0.599202	-0.067720	-0.738118	-0.050945	-0.446322	-1.118652	0.256592	0.062744	0.095141	-0.001220	0.023004	-0.190591	0.570435	0.116119	0.790440	-6.000229	-71.094105	-148.597861
43566		9.245917	-0.748739	2.339837	-0.867903	0.066321	-0.285637	-0.666739	-0.212765	-0.386069	-1.122803	0.247559	0.063232	0.092420	-0.007588	0.023522	-0.187058	0.571758	0.114776	0.790524	-5.790902	-71.247572	-149.223238
43567		9.015534	-1.128073	2.248378	-1.024561	0.438118	-0.519366	-0.677504	-0.248237	-0.320024	-1.120605	0.249756	0.062988	0.090109	-0.011348	0.022634	-0.183741	0.573253	0.113231	0.790442	-5.700346	-71.415977	-149.728682
43568		8.854059	-1.257051	2.234798	-1.024359	0.596494	-0.671370	-0.719973	-0.141673	-0.265639	-1.126953	0.242920	0.070313	0.088508	-0.012607	0.022456	-0.180571	0.574389	0.111266	0.790627	-5.702821	-71.520580	-150.161204
43569		8.555277	-1.329867	2.219641	-0.972566	0.713940	-0.956474	-0.730434	0.043072	-0.208052	-1.126953	0.238525	0.074951	0.085544	-0.013307	0.022227	-0.177702	0.574827	0.108922	0.791285	-5.778385	-71.516482	-150.522917
43570		8.154827	-1.156686	2.281095	-0.737890	0.639352	-1.322148	-0.706233	0.221575	-0.146595	-1.122314	0.238525	0.065918	0.081565	-0.011546	0.022761	-0.175233	0.574565	0.106340	0.792376	-5.912588	-71.407889	-150.808607
43571		7.671498	-1.018582	2.232032	-0.603106	0.557196	-1.800378	-0.667740	0.391871	-0.092467	-1.122314	0.238525	0.068359	0.076754	-0.010147	0.022204	-0.173184	0.573613	0.103601	0.793878	-6.089300	-71.198636	-151.026073
43572		7.266608	-1.001981	2.197818	-0.533940	0.573254	-2.195329	-0.576833	0.508865	-0.042812	-1.131348	0.238525	0.059326	0.072720	-0.009972	0.021822	-0.171651	0.572134	0.100981	0.795614	-6.275401	-70.919901	-151.178676
43573		6.876689	-1.086765	2.247970	-0.436127	0.709028	-2.544245	-0.481493	0.510838	-0.018516	-1.133545	0.240479	0.054688	0.068823	-0.010820	0.022330	-0.170487	0.570571	0.098665	0.797276	-6.446795	-70.638653	-151.289447
43574		6.550674	-1.111830	2.423873	-0.218311	0.826747	-2.791902	-0.376717	0.409799	-0.017026	-1.129150	0.238525	0.052490	0.065555	-0.011078	0.024125	-0.169578	0.569313	0.096849	0.798590	-6.577845	-70.414546	-151.379094
43575		6.331530	-0.828889	2.567590	0.064162	0.634420	-2.959863	-0.321466	0.316390	0.001521	-1.133301	0.233887	0.055176	0.063356	-0.008247	0.025589	-0.168852	0.568390	0.095278	0.799590	-6.724152	-70.242816	-151.419444
43576		5.974286	-0.597411	2.575175	0.253295	0.466542	-3.301260	-0.340110	0.252269	-0.009372	-1.131348	0.238281	0.052490	0.059775	-0.005933	0.025686	-0.167994	0.567733	0.093719	0.800421	-6.873998	-70.108591	-151.467512
43577		5.695240	-0.351863	2.457361	0.317620	0.232338	-3.612420	-0.365566	0.201875	-0.036310	-1.133301	0.233887	0.052979	0.056977	-0.003484	0.024523	-0.166936	0.567282	0.092175	0.801141	-7.006296	-70.004683	-151.549713
43578		5.596291	-0.203045	2.444355	0.385002	0.096593	-3.715392	-0.377714	0.170471	-0.077777	-1.128906	0.233887	0.050537	0.055983	-0.002006	0.024400	-0.165657	0.566950	0.090726	0.801807	-7.086084	-69.922200	-151.695553
43579		5.735290	-0.020085	2.561397	0.506979	-0.065092	-3.552221	-0.398745	0.162626	-0.099698	-1.133545	0.238281	0.045898	0.057374	-0.000178	0.025568	-0.164231	0.566650	0.089260	0.802477	-7.146454	-69.845193	-151.874689
43580		5.992755	0.171511	2.780467	0.685735	-0.221714	-3.243507	-0.457202	0.123581	-0.103550	-1.135498	0.233887	0.046143	0.059946	0.001748	0.027764	-0.162606	0.566551	0.087603	0.803060	-7.242134	-69.790930	-152.051922
43581		6.249846	0.019219	2.806620	0.575592	-0.119593	-2.986821	-0.463927	-0.034872	-0.130924	-1.135254	0.227051	0.053223	0.062494	0.000216	0.028077	-0.160781	0.567078	0.086124	0.803215	-7.330667	-69.828620	-152.240928
43582		6.669540	-0.039250	2.963446	0.576230	-0.083235	-2.537571	-0.418780	-0.206534	-0.125564	-1.142334	0.233643	0.055176	0.066665	-0.000372	0.029704	-0.159026	0.568258	0.084951	0.802855	-7.434149	-69.963940	-152.386601
43583		7.009580	0.050454	3.235791	0.769120	-0.131308	-2.131656	-0.416001	-0.376048	-0.122038	-1.135498	0.229492	0.062256	0.070035	0.000529	0.032489	-0.157225	0.570113	0.083911	0.802004	-7.577400	-70.195018	-152.487876
43584		7.661312	0.149774	3.571601	0.942592	-0.214904	-1.413899	-0.476650	-0.500679	-0.115128	-1.139648	0.220459	0.067139	0.076524	0.001539	0.035904	-0.155223	0.572515	0.082705	0.800807	-7.793775	-70.496983	-152.548388
43585		8.221921	0.020656	3.875510	1.049801	-0.079438	-0.784321	-0.509434	-0.533290	-0.106740	-1.133057	0.225098	0.078125	0.082116	0.000262	0.038974	-0.153147	0.575066	0.081368	0.799515	-8.052383	-70.816332	-152.583778
43586		8.526360	-0.206876	3.884374	0.938666	0.097674	-0.488568	-0.432459	-0.432831	-0.110769	-1.139648	0.222656	0.084961	0.085178	-0.002032	0.039033	-0.151306	0.577151	0.080274	0.798473	-8.237781	-71.079744	-152.650390
43587		8.566864	-0.289934	3.911293	0.958214	0.184414	-0.441391	-0.314391	-0.263875	-0.114058	-1.130615	0.218506	0.089600	0.085615	-0.002887	0.039230	-0.149869	0.578463	0.079531	0.797869	-8.312130	-71.247006	-152.762281
43588		8.619051	-0.277124	3.995154	1.043687	0.195624	-0.368191	-0.228649	-0.140806	-0.117222	-1.128174	0.218506	0.083008	0.086161	-0.002776	0.040015	-0.148707	0.579222	0.079048	0.797583	-8.300159	-71.345752	-152.913969
43589		8.776030	-0.281718	3.957029	0.972279	0.170641	-0.232410	-0.172665	-0.030571	-0.121962	-1.128174	0.216309	0.089844	0.087753	-0.002837	0.039586	-0.147740	0.579492	0.078718	0.797600	-8.221720	-71.381369	-153.101274
43590		9.012662	-0.399370	3.924772	0.835709	0.243800	-0.013017	-0.094393	0.066001	-0.150157	-1.130615	0.218506	0.083008	0.090137	-0.004043	0.039220	-0.146920	0.579307	0.078713	0.797886	-8.026168	-71.364588	-153.365009
43591		9.379273	-0.502740	4.098986	0.843079	0.349188	0.394783	0.008125	0.127729	-0.165314	-1.132568	0.211670	0.087891	0.093815	-0.005107	0.040930	-0.146366	0.578794	0.079113	0.798321	-7.734023	-71.313369	-153.668572
43592		10.004371	-0.254125	4.406855	0.997739	0.124932	1.075893	0.054641	0.280552	-0.151154	-1.143799	0.211426	0.076660	0.100103	-0.002629	0.043927	-0.146060	0.577642	0.079548	0.799168	-7.406238	-71.173884	-153.981916
43593		9.936092	-0.075511	4.552361	1.169017	0.012390	1.054175	0.039387	0.383862	-0.140491	-1.136719	0.207275	0.079102	0.099447	-0.000834	0.045333	-0.145796	0.576090	0.079813	0.800309	-7.089326	-70.974221	-154.293203
43594		9.917094	-0.032873	4.470816	1.073026	-0.047858	1.012478	0.087984	0.372844	-0.126130	-1.129883	0.202881	0.072754	0.099254	-0.000411	0.044523	-0.145718	0.574548	0.080243	0.801388	-6.774289	-70.779182	-154.573614
43595		10.283554	0.127817	4.834990	1.301128	-0.141500	1.475883	0.132756	0.366526	-0.106164	-1.141113	0.204834	0.072510	0.102925	0.001192	0.048162	-0.145852	0.573007	0.080795	0.802410	-6.475521	-70.586031	-154.809725
43596		10.679666	0.153615	5.267820	1.537858	-0.089759	1.996444	0.155379	0.308332	-0.092077	-1.138916	0.204834	0.072510	0.106878	0.001446	0.052515	-0.146074	0.571688	0.081443	0.803245	-6.199058	-70.425044	-155.009187
43597		11.132088	0.494042	5.492391	1.677939	-0.407679	2.489834	0.125165	0.274435	-0.014745	-1.132080	0.202637	0.063721	0.111396	0.004898	0.054774	-0.146515	0.570555	0.081771	0.803936	-6.074975	-70.278097	-155.064915
43598		11.145549	0.841623	5.746426	1.985951	-0.670445	2.579222	0.051690	0.259099	0.059102	-1.141602	0.213623	0.065430	0.111527	0.008434	0.057322	-0.147028	0.569571	0.081605	0.804557	-6.111191	-70.135920	-154.995632
43599		10.948596	1.120561	5.687538	2.060507	-0.940408	2.367023	0.003603	0.264879	0.095211	-1.138916	0.207031	0.059082	0.109556	0.011257	0.056731	-0.147561	0.568609	0.081137	0.805187	-6.231631	-69.987656	-154.865439
43600		10.816833	1.220448	5.692317	2.111406	-1.034788	2.244132	0.044761	0.313579	0.104368	-1.132568	0.213867	0.056396	0.108251	0.012248	0.056756	-0.148263	0.567426	0.080774	0.805929	-6.331744	-69.811384	-154.731913
43601		11.696296	1.418644	6.008045	2.144718	-1.280831	3.174686	0.062523	0.440685	0.100288	-1.136719	0.207031	0.043213	0.117088	0.014226	0.059827	-0.149054	0.565711	0.080398	0.807025	-6.392295	-69.562541	-154.629270
43602		13.079610	1.315708	6.357940	1.929193	-1.314027	4.601951	0.053562	0.504065	0.061060	-1.136963	0.215820	0.044922	0.130952	0.013180	0.063253	-0.149682	0.563726	0.080052	0.808331	-6.384449	-69.279906	-154.604962
43603		13.290604	1.001043	6.381106	1.717856	-1.069864	4.825099	0.014463	0.436178	0.037316	-1.136719	0.209229	0.038574	0.133043	0.010031	0.063522	-0.150080	0.562035	0.079662	0.809473	-6.376233	-69.037628	-154.605009
43604		12.146970	0.183911	5.787044	1.238330	-0.322227	3.582650	0.032360	0.382257	0.005406	-1.134766	0.213623	0.029297	0.121580	0.001833	0.057638	-0.150372	0.560532	0.079478	0.810478	-6.318231	-68.828109	-154.647481
43605		11.055374	-0.744753	5.010866	0.550670	0.475931	2.326289	0.075222	0.439230	-0.017334	-1.141602	0.215820	0.029297	0.110663	-0.007476	0.049863	-0.150719	0.558756	0.079485	0.811639	-6.196185	-68.587505	-154.732335
43606		11.618480	-1.186188	4.630292	-0.168598	0.678488	2.731104	-0.017230	0.423866	-0.063746	-1.134521	0.209229	0.020752	0.116279	-0.011895	0.046058	-0.150611	0.557088	0.079261	0.812827	-6.063458	-68.358071	-154.885539
43607		12.422707	-1.366918	4.074454	-1.018670	0.548109	3.281401	-0.213168	0.151020	-0.052326	-1.141357	0.211182	0.029541	0.124254	-0.013658	0.040665	-0.149897	0.556682	0.078411	0.813319	-6.103906	-68.283702	-154.973568
43608		12.630317	-1.374011	3.110017	-1.940801	0.230625	3.120414	-0.316309	-0.034391	0.005360	-1.147949	0.206787	0.032227	0.126298	-0.013687	0.031144	-0.149050	0.557129	0.077122	0.813292	-6.312709	-68.311488	-154.944196
43609		11.872815	-1.448963	2.312223	-2.403230	0.180730	2.128897	-0.321291	-0.032395	0.004771	-1.143555	0.208984	0.027588	0.118725	-0.014450	0.023165	-0.148195	0.557570	0.075811	0.813269	-6.525353	-68.338084	-154.913589
43610		11.156265	-1.887000	1.631370	-2.895259	0.509122	1.234604	-0.298904	-0.061288	-0.039526	-1.138916	0.209229	0.029785	0.111554	-0.018868	0.016376	-0.147199	0.558096	0.074737	0.813189	-6.664307	-68.384481	-154.949038
43611		11.111680	-2.159202	1.376297	-3.178219	0.708105	1.115408	-0.231474	-0.129745	-0.091614	-1.141357	0.208984	0.031982	0.111098	-0.021627	0.013860	-0.146164	0.558827	0.074131	0.812928	-6.703636	-68.472851	-155.049484
43612		11.190027	-2.129024	1.135100	-3.387728	0.613922	1.104466	-0.202919	-0.195923	-0.113128	-1.136719	0.207031	0.034424	0.111877	-0.021342	0.011482	-0.145091	0.559799	0.073751	0.812487	-6.704866	-68.600618	-155.173539
43613		10.983689	-2.127845	1.182524	-3.259384	0.673455	0.933957	-0.121086	-0.098282	-0.110128	-1.138916	0.209229	0.034180	0.109819	-0.021332	0.011892	-0.144301	0.560314	0.073622	0.812284	-6.647623	-68.672310	-155.309625
43614		10.470317	-2.052073	1.355729	-2.909243	0.739921	0.515204	0.008610	0.055311	-0.109768	-1.143555	0.208984	0.025146	0.104696	-0.020579	0.013527	-0.143928	0.560112	0.073909	0.812463	-6.489505	-68.656698	-155.474417
43615		10.022928	-2.124900	1.486748	-2.680745	0.921723	0.144656	0.129391	0.161209	-0.121831	-1.141113	0.204590	0.030029	0.100228	-0.021320	0.014773	-0.143888	0.559387	0.074644	0.812902	-6.228770	-68.581096	-155.674931
43616		9.594725	-2.226396	1.718539	-2.385764	1.156421	-0.172162	0.251626	0.164748	-0.132938	-1.140869	0.202393	0.027832	0.095947	-0.022349	0.017078	-0.144144	0.558553	0.075905	0.813314	-5.882354	-68.503537	-155.892308
43617		9.198442	-2.312161	1.953826	-2.093871	1.375186	-0.458578	0.383227	0.109370	-0.132466	-1.143311	0.202393	0.025635	0.091980	-0.023220	0.019444	-0.144749	0.557849	0.077738	0.813516	-5.471873	-68.457228	-156.097645
43618		9.121469	-2.249273	2.156287	-1.890939	1.398484	-0.465039	0.466779	0.115691	-0.115892	-1.136475	0.204590	0.025391	0.091214	-0.022596	0.021457	-0.145653	0.557064	0.079860	0.813688	-5.037246	-68.406049	-156.277796
43619		9.378664	-2.000337	2.364984	-1.739860	1.196747	-0.164143	0.482642	0.213210	-0.078314	-1.138916	0.204590	0.020996	0.093804	-0.020097	0.023501	-0.146796	0.555880	0.081870	0.814092	-4.638039	-68.296741	-156.409904
43620		9.403704	-1.597494	2.526266	-1.501517	0.865182	-0.098754	0.410304	0.190394	0.006648	-1.140869	0.202393	0.016602	0.094062	-0.016023	0.025140	-0.148073	0.554877	0.083364	0.814393	-4.407301	-68.196625	-156.405485
43621		9.093022	-1.310312	2.563170	-1.280416	0.652412	-0.383759	0.405725	-0.031775	0.096438	-1.132080	0.207031	0.016357	0.090932	-0.013111	0.025620	-0.149610	0.554814	0.084756	0.814012	-4.331745	-68.219252	-156.236626
43622		8.700448	-1.183165	2.592106	-1.069336	0.603926	-0.740287	0.524280	-0.288708	0.147953	-1.136963	0.213623	0.020508	0.086976	-0.011835	0.026016	-0.151577	0.555727	0.086678	0.812822	-4.291394	-68.386646	-155.956968
43623		8.484199	-0.991805	2.868288	-0.659887	0.554477	-0.843331	0.648046	-0.523219	0.166979	-1.136963	0.213623	0.029541	0.084775	-0.009941	0.028873	-0.153859	0.557499	0.089228	0.810901	-4.235295	-68.687183	-155.618400
43624		8.438887	-0.582531	3.072925	-0.276799	0.264061	-0.821002	0.703574	-0.689967	0.189196	-1.139160	0.213623	0.042969	0.084288	-0.005854	0.031000	-0.156314	0.559905	0.092064	0.808453	-4.205575	-69.082609	-155.218346
43625		8.551943	-0.012000	2.950053	-0.162698	-0.299778	-0.772663	0.708936	-0.680600	0.187015	-1.135010	0.218262	0.042725	0.085419	-0.000145	0.029791	-0.158770	0.562250	0.094922	0.806013	-4.173610	-69.472399	-154.818358
43626		8.372439	0.383081	2.690833	-0.137936	-0.701153	-1.039193	0.734264	-0.541095	0.143871	-1.132813	0.222656	0.049072	0.083648	0.003792	0.027149	-0.161186	0.563987	0.097886	0.803963	-4.052602	-69.785400	-154.499292
43627		8.126131	0.566926	2.427125	-0.183810	-0.899302	-1.362619	0.784903	-0.424562	0.091252	-1.135010	0.220459	0.053711	0.081207	0.005611	0.024466	-0.163587	0.565169	0.101110	0.802247	-3.807977	-70.033232	-154.281035
43628		7.990608	0.625447	2.326474	-0.179706	-0.943401	-1.522266	0.816361	-0.277560	0.047465	-1.128174	0.220459	0.049072	0.079872	0.006178	0.023401	-0.165974	0.565710	0.104458	0.800946	-3.462155	-70.199851	-154.151836
43629		7.810189	0.607620	2.518943	0.053717	-0.806519	-1.623676	0.842523	-0.200287	0.015815	-1.139893	0.231445	0.052979	0.078076	0.005976	0.025293	-0.168344	0.565885	0.107937	0.799865	-3.039709	-70.322712	-154.087911
43630		7.587739	0.579299	2.566880	0.163772	-0.705120	-1.814302	0.809828	-0.168126	0.027177	-1.135254	0.227051	0.046631	0.075855	0.005699	0.025756	-0.170686	0.565959	0.111222	0.798866	-2.651922	-70.427504	-154.007126
43631		7.331422	0.384403	2.768284	0.346979	-0.390455	-1.984021	0.783533	-0.157797	0.040097	-1.131104	0.231689	0.050781	0.073292	0.003750	0.027755	-0.173004	0.566007	0.114357	0.797890	-2.295525	-70.525724	-153.909069
43632		7.012767	0.306192	2.892344	0.524437	-0.205051	-2.241610	0.734984	-0.111766	0.094959	-1.131104	0.236084	0.052734	0.070110	0.002989	0.028974	-0.175434	0.565939	0.117100	0.797009	-2.054698	-70.596782	-153.717751
43633		6.741350	0.169597	2.866690	0.531689	-0.036006	-2.504577	0.711617	-0.087356	0.163848	-1.128662	0.231689	0.057373	0.067400	0.001649	0.028702	-0.178077	0.565825	0.119534	0.796142	-1.935436	-70.652470	-153.412090
43634		6.557680	0.185516	2.763638	0.509961	-0.055345	-2.712536	0.699157	-0.078958	0.256763	-1.131592	0.242920	0.047852	0.065564	0.001843	0.027669	-0.181063	0.565743	0.121642	0.795207	-1.978560	-70.702434	-152.942040
43635		6.280775	0.292827	2.622117	0.524350	-0.163782	-3.022430	0.737670	-0.093097	0.342029	-1.124756	0.240723	0.054688	0.062791	0.002939	0.026261	-0.184480	0.565718	0.123677	0.794125	-2.138417	-70.757630	-152.325079
43636		6.191958	0.376959	2.696310	0.660130	-0.193004	-3.083683	0.758894	-0.100288	0.328401	-1.125000	0.249756	0.049561	0.061900	0.003769	0.027008	-0.187903	0.565688	0.125835	0.793004	-2.269882	-70.817248	-151.725341
43637		6.065024	0.373669	2.785833	0.780467	-0.127252	-3.174940	0.721102	-0.099829	0.261945	-1.127197	0.249512	0.056396	0.060631	0.003716	0.027902	-0.190945	0.565637	0.128033	0.791961	-2.312154	-70.877305	-151.243344
43638		6.282922	0.061823	2.895035	0.678694	0.172093	-2.930108	0.665922	-0.142322	0.203937	-1.118408	0.251953	0.049561	0.062808	0.000586	0.028997	-0.193578	0.565768	0.130211	0.790873	-2.298189	-70.963741	-150.854490
43639		6.742385	-0.059841	2.994105	0.583666	0.260084	-2.462880	0.569885	-0.143586	0.153947	-1.122803	0.249756	0.056396	0.067403	-0.000632	0.029988	-0.195732	0.565951	0.132155	0.789888	-2.254451	-71.051347	-150.555549
43640		6.858354	-0.297044	3.086809	0.529223	0.503016	-2.321325	0.494731	-0.198481	0.140211	-1.123047	0.258545	0.053467	0.068555	-0.002999	0.030929	-0.197584	0.566417	0.133890	0.788800	-2.238293	-71.171464	-150.273261
43641		7.201534	-0.447637	3.129074	0.415414	0.610121	-1.982699	0.436661	-0.324088	0.213317	-1.116455	0.258789	0.060303	0.071969	-0.004468	0.031398	-0.199471	0.567473	0.135316	0.787321	-2.387783	-71.360972	-149.851345
43642		7.332275	-0.432421	3.253057	0.514574	0.638986	-1.821538	0.405994	-0.336857	0.229367	-1.118652	0.258789	0.067139	0.073273	-0.004306	0.032645	-0.201330	0.568624	0.136582	0.785798	-2.592826	-71.557748	-149.389897
43643		7.444167	-0.412852	3.473337	0.703722	0.711311	-1.648810	0.374792	-0.353402	0.199121	-1.118896	0.260986	0.069092	0.074384	-0.004120	0.034857	-0.202963	0.569838	0.137831	0.784279	-2.768516	-71.763540	-148.978699
43644		7.826445	-0.319630	3.591841	0.771570	0.633189	-1.253458	0.339569	-0.351542	0.156873	-1.114502	0.267822	0.068604	0.078204	-0.003196	0.036050	-0.204328	0.571058	0.139056	0.782819	-2.899172	-71.970395	-148.637156
43645		8.219253	-0.203187	3.735627	0.867733	0.546389	-0.840465	0.316122	-0.269900	0.107473	-1.116943	0.267822	0.073242	0.082143	-0.002047	0.037464	-0.205489	0.571934	0.140250	0.781662	-2.950838	-72.130531	-148.392576
43646		8.277031	-0.228716	3.911346	1.003427	0.652014	-0.733691	0.326950	-0.160760	0.086262	-1.118896	0.265625	0.075684	0.082740	-0.002315	0.039176	-0.206679	0.572363	0.141429	0.780821	-2.954031	-72.229664	-148.192771
43647		8.316279	-0.213943	3.974334	1.061143	0.672123	-0.679023	0.309573	-0.091832	0.070132	-1.119141	0.270020	0.075439	0.083145	-0.002172	0.039778	-0.207799	0.572520	0.142520	0.780211	-2.929368	-72.288986	-148.032559
43648		8.465919	-0.251869	4.111017	1.120097	0.751986	-0.495199	0.264108	-0.011139	0.042902	-1.112549	0.270020	0.075195	0.084657	-0.002555	0.041112	-0.208741	0.572396	0.143423	0.779884	-2.877185	-72.303950	-147.929067
43649		8.646840	-0.139849	4.112416	1.125258	0.630694	-0.323990	0.193561	0.060005	0.009069	-1.114746	0.272217	0.070801	0.086481	-0.001434	0.041097	-0.209399	0.572036	0.144078	0.779852	-2.796026	-72.278203	-147.897965
43650		8.947814	-0.109258	4.087293	1.032881	0.546416	-0.044584	0.144512	0.102650	-0.026914	-1.119141	0.270020	0.070801	0.089499	-0.001134	0.040826	-0.209810	0.571541	0.144594	0.780009	-2.678109	-72.229775	-147.935201
43651		9.328044	-0.142436	4.134665	0.944314	0.537938	0.333594	0.093458	0.135168	-0.069624	-1.116699	0.265625	0.066650	0.093308	-0.001476	0.041283	-0.209929	0.570934	0.145004	0.780344	-2.508152	-72.163087	-148.057587
43652		9.698869	-0.197626	4.232551	0.886517	0.574199	0.718502	0.021806	0.131239	-0.110767	-1.119141	0.270020	0.070801	0.097015	-0.002035	0.042262	-0.209680	0.570393	0.145253	0.780761	-2.309230	-72.100016	-148.253877
43653		10.126172	-0.354536	4.227629	0.677659	0.643406	1.126448	-0.050288	0.120447	-0.148305	-1.116699	0.263184	0.066650	0.101284	-0.003610	0.042216	-0.209071	0.569937	0.145342	0.781241	-2.085691	-72.043228	-148.519229
43654		10.386617	-0.598657	4.395489	0.611716	0.897396	1.429242	-0.101606	0.137145	-0.186539	-1.114258	0.258789	0.062500	0.103891	-0.006061	0.043887	-0.208178	0.569447	0.145318	0.781840	-1.826758	-71.977979	-148.853206
43655		10.353286	-1.032584	4.708837	0.650606	1.434267	1.498787	-0.083134	0.107281	-0.209372	-1.121094	0.260986	0.071289	0.103547	-0.010415	0.047037	-0.207226	0.569031	0.145466	0.782368	-1.518746	-71.929007	-149.227373
43656		11.011983	-1.234583	4.909537	0.532687	1.612914	2.187572	-0.057475	-0.014056	-0.196003	-1.118408	0.254395	0.071777	0.110104	-0.012440	0.049107	-0.206310	0.569078	0.145798	0.782515	-1.226964	-71.949400	-149.569560
43657		11.191594	-1.623724	5.182983	0.515176	2.067316	2.443427	-0.026890	0.025893	-0.176993	-1.116211	0.252197	0.067383	0.111908	-0.016329	0.051818	-0.205585	0.568945	0.146158	0.782735	-0.948030	-71.945518	-149.879262
43658		11.265814	-1.989384	5.244377	0.358520	2.415212	2.533077	-0.022851	0.065948	-0.132217	-1.120605	0.251953	0.069580	0.112662	-0.019962	0.052409	-0.205072	0.568690	0.146361	0.783017	-0.745524	-71.918731	-150.106953
43659		12.070416	-2.154049	5.405938	0.179173	2.510582	3.348766	-0.071230	0.204656	-0.091357	-1.120361	0.247559	0.065430	0.120750	-0.021576	0.053944	-0.204686	0.567965	0.146120	0.783689	-0.639534	-71.811179	-150.261550
43660		13.682241	-1.941428	5.729452	0.087555	2.211906	4.982554	-0.173678	0.287959	-0.067848	-1.118164	0.245361	0.056641	0.136898	-0.019411	0.057114	-0.204158	0.567039	0.145321	0.784645	-0.633559	-71.656368	-150.373609
43661		14.749201	-1.434197	5.733843	0.026987	1.585007	5.997429	-0.202551	0.122753	0.007263	-1.120605	0.251953	0.067383	0.147528	-0.014279	0.057262	-0.203727	0.566839	0.144369	0.785077	-0.776628	-71.595054	-150.345264
43662		14.183008	-1.051593	5.279035	-0.007948	1.112966	5.316522	-0.054433	0.005494	0.102894	-1.118408	0.254395	0.064941	0.141837	-0.010429	0.052789	-0.204002	0.567021	0.143841	0.784971	-1.002946	-71.600483	-150.140540
43663		13.331293	-1.113530	5.215840	0.152166	1.261511	4.489541	0.162653	-0.029905	0.120037	-1.118408	0.249756	0.062988	0.133312	-0.011098	0.052169	-0.204939	0.567129	0.144158	0.784591	-1.134837	-71.625359	-149.903469
43664		13.367146	-1.120499	4.753368	-0.241429	1.042155	4.378375	0.256119	0.031704	0.141348	-1.120850	0.254150	0.062744	0.133687	-0.011171	0.047498	-0.206265	0.566918	0.144711	0.784294	-1.249498	-71.615092	-149.629017
43665		13.314843	-0.572327	3.855454	-0.703370	0.143920	4.042336	0.211676	0.047982	0.187592	-1.120850	0.254150	0.062744	0.133163	-0.005639	0.038517	-0.207660	0.566717	0.144948	0.784028	-1.466739	-71.594061	-149.272388
43666		12.904742	0.133782	2.697077	-1.197362	-0.962393	3.281760	0.128603	0.020221	0.223586	-1.118652	0.260986	0.057861	0.129049	0.001465	0.026959	-0.208936	0.566741	0.144781	0.783702	-1.795287	-71.588328	-148.849568
43667		12.296628	0.589312	2.016947	-1.358257	-1.598379	2.484576	0.017554	0.008917	0.216197	-1.123291	0.263184	0.057861	0.122961	0.006024	0.020165	-0.209865	0.566913	0.144216	0.783433	-2.174250	-71.587868	-148.439681
43668		11.530257	0.736592	1.550833	-1.454217	-1.840899	1.606190	-0.070058	0.074503	0.210716	-1.123535	0.267578	0.057617	0.115300	0.007493	0.015463	-0.210570	0.566919	0.143250	0.783418	-2.590313	-71.549272	-148.044182
43669		10.544092	0.982366	1.269882	-1.298027	-2.046349	0.573989	-0.124797	0.150087	0.191429	-1.125488	0.260742	0.060303	0.105441	0.009932	0.012614	-0.211099	0.566668	0.142049	0.783675	-2.994810	-71.466890	-147.693182
43670		9.973640	1.304610	1.211838	-1.037996	-2.284268	0.003047	-0.159800	0.198224	0.188195	-1.121094	0.265381	0.053223	0.099736	0.013150	0.012009	-0.211545	0.566267	0.140665	0.784094	-3.406144	-71.356715	-147.356756
43671		9.715184	1.830372	1.285847	-0.657248	-2.693359	-0.236561	-0.237298	0.242070	0.189486	-1.121338	0.269775	0.052979	0.097150	0.018411	0.012719	-0.211812	0.565771	0.138930	0.784690	-3.854182	-71.220188	-147.027388
43672		9.677889	2.308400	1.386267	-0.342603	-3.089242	-0.260145	-0.330225	0.251214	0.158745	-1.121338	0.269775	0.050537	0.096778	0.023184	0.013703	-0.211696	0.565316	0.136905	0.785404	-4.297444	-71.079126	-146.759662
43673		9.720872	2.673619	1.434523	-0.151114	-3.423477	-0.223197	-0.415054	0.190638	0.104303	-1.121094	0.265381	0.051025	0.097208	0.026816	0.014197	-0.211089	0.565146	0.134767	0.786060	-4.701842	-70.974218	-146.583624
43674		9.486221	2.796300	1.472981	-0.014225	-3.496113	-0.444964	-0.498141	0.193829	0.010160	-1.124023	0.276367	0.054688	0.094875	0.028004	0.014568	-0.209870	0.564987	0.132564	0.786874	-4.994214	-70.872113	-146.577057
43675		9.036335	2.701143	1.551455	0.101964	-3.315187	-0.848449	-0.545671	0.236333	-0.121148	-1.128174	0.269775	0.052979	0.090398	0.026999	0.015334	-0.208035	0.564616	0.130499	0.787972	-5.092211	-70.751942	-146.804454
43676		9.134015	2.465029	1.669112	0.028959	-3.084261	-0.714395	-0.568252	0.205590	-0.217312	-1.130371	0.267334	0.048584	0.091384	0.024598	0.016527	-0.205729	0.564328	0.128646	0.789088	-5.052100	-70.655052	-147.192692
43677		9.804984	2.370035	1.886994	-0.050831	-3.026037	-0.006773	-0.655107	0.065235	-0.334360	-1.130127	0.262939	0.051025	0.098095	0.023598	0.018761	-0.202629	0.564595	0.126925	0.789977	-4.892832	-70.643042	-147.759443
43678		10.406806	2.073136	2.130130	-0.181920	-2.752575	0.652831	-0.765463	0.016411	-0.451443	-1.132080	0.256104	0.047119	0.104116	0.020578	0.021214	-0.198714	0.565087	0.125148	0.790903	-4.611834	-70.664320	-148.522661
43679		10.080375	1.550508	2.440897	-0.090950	-2.080612	0.465382	-0.830026	-0.032813	-0.487525	-1.127441	0.254150	0.056152	0.100837	0.015360	0.024362	-0.194446	0.565799	0.123262	0.791751	-4.314713	-70.713478	-149.341540
43680		9.428279	0.705580	2.531669	-0.216596	-1.153285	-0.095559	-0.821901	-0.190743	-0.493368	-1.129639	0.251709	0.058594	0.094276	0.006927	0.025378	-0.190070	0.567114	0.121577	0.792133	-4.016131	-70.852138	-150.156793
43681		8.965180	-0.170108	2.568320	-0.424658	-0.246471	-0.498266	-0.737940	-0.361660	-0.411586	-1.126709	0.236328	0.063965	0.089602	-0.001790	0.025852	-0.186154	0.569061	0.120151	0.791884	-3.815836	-71.083714	-150.816050
43682		8.403239	-0.860051	2.459038	-0.626614	0.451560	-1.048884	-0.663499	-0.421783	-0.352956	-1.133789	0.240723	0.070313	0.083965	-0.008667	0.024796	-0.182636	0.571203	0.118908	0.791348	-3.666049	-71.347331	-151.376151
43683		8.213082	-1.308374	2.295572	-0.869684	0.850017	-1.271189	-0.597454	-0.380406	-0.292350	-1.133301	0.233887	0.077637	0.082068	-0.013135	0.023151	-0.179574	0.573145	0.117711	0.790824	-3.569044	-71.584190	-151.839627
43684		8.138498	-1.511611	2.338202	-0.868978	1.084434	-1.324099	-0.582250	-0.193454	-0.261103	-1.133301	0.231689	0.077637	0.081343	-0.015154	0.023505	-0.176782	0.574348	0.116317	0.790786	-3.490819	-71.713323	-152.273850
43685		7.985611	-1.592779	2.488849	-0.716794	1.248512	-1.420505	-0.603063	0.093442	-0.198778	-1.139893	0.229492	0.075684	0.079852	-0.015932	0.024899	-0.174346	0.574462	0.114406	0.791523	-3.501333	-71.675608	-152.626846
43686		7.673512	-1.559031	2.407267	-0.692248	1.226354	-1.742674	-0.619250	0.359807	-0.131870	-1.133057	0.227295	0.077881	0.076768	-0.015567	0.023983	-0.172277	0.573568	0.112006	0.792966	-3.608799	-71.483400	-152.887701
43687		7.326407	-1.422237	2.430120	-0.539111	1.143342	-2.066300	-0.535683	0.525176	-0.066652	-1.128662	0.227295	0.066650	0.073323	-0.014182	0.024147	-0.170798	0.571974	0.109606	0.794771	-3.763782	-71.194334	-153.048195
43688		6.997708	-1.302115	2.483538	-0.377820	1.077130	-2.360957	-0.428346	0.589040	0.022734	-1.135254	0.227295	0.064453	0.070051	-0.012960	0.024657	-0.170013	0.570078	0.107321	0.796611	-3.998281	-70.865594	-153.059892
43689		6.714313	-1.070648	2.529068	-0.192055	0.895357	-2.616453	-0.341222	0.553164	0.100750	-1.130615	0.222900	0.060303	0.067218	-0.010630	0.025123	-0.169767	0.568284	0.105189	0.798228	-4.310439	-70.554015	-152.936425
43690		6.490731	-0.888049	2.537575	-0.069143	0.736442	-2.826251	-0.297691	0.433273	0.147752	-1.133301	0.231689	0.050781	0.064969	-0.008795	0.025248	-0.169764	0.566953	0.103199	0.799434	-4.680546	-70.308760	-152.724960
43691		6.165332	-0.777097	2.597490	0.111531	0.682318	-3.113126	-0.243779	0.240384	0.149096	-1.133057	0.227295	0.057861	0.061690	-0.007693	0.025910	-0.169822	0.566344	0.101583	0.800060	-5.042286	-70.172919	-152.489126
43692		5.823075	-0.646460	2.598391	0.264155	0.599415	-3.437057	-0.171101	0.062470	0.133573	-1.135498	0.229492	0.057617	0.058243	-0.006403	0.025971	-0.169932	0.566377	0.100453	0.800156	-5.359871	-70.139071	-152.255972
43693		5.686420	-0.412986	2.609692	0.410283	0.399889	-3.568636	-0.099920	-0.045549	0.107646	-1.142334	0.233643	0.057373	0.056860	-0.004086	0.026112	-0.170087	0.566767	0.099772	0.799932	-5.611906	-70.167716	-152.049010
43694		5.679271	-0.140576	2.723281	0.625020	0.184679	-3.546478	-0.090747	-0.104006	0.067451	-1.137939	0.233887	0.055176	0.056779	-0.001374	0.027263	-0.170072	0.567366	0.099292	0.799571	-5.804470	-70.232204	-151.900174
43695		6.048908	0.068921	2.902237	0.763335	-0.006521	-3.146783	-0.134508	-0.172590	0.024626	-1.137939	0.233887	0.057373	0.060464	0.000716	0.029074	-0.169733	0.568250	0.098816	0.799073	-5.967073	-70.337641	-151.809435
43696		6.597847	0.259689	3.050686	0.820110	-0.218186	-2.588735	-0.222020	-0.238065	0.005249	-1.142578	0.236084	0.063965	0.065942	0.002633	0.030582	-0.169033	0.569461	0.098102	0.798448	-6.160811	-70.481504	-151.739104
43697		7.134400	0.353664	3.152042	0.810539	-0.354437	-2.055274	-0.295404	-0.330748	0.006307	-1.137939	0.233887	0.070801	0.071292	0.003586	0.031633	-0.168084	0.571101	0.097169	0.797590	-6.417674	-70.677946	-151.646332
43698		7.744818	0.366888	3.207908	0.718231	-0.442496	-1.464290	-0.309755	-0.385481	0.021136	-1.135742	0.233887	0.070801	0.077386	0.003727	0.032223	-0.167122	0.572978	0.096182	0.796565	-6.720715	-70.904813	-151.513843
43699		7.981441	0.394678	3.483286	0.938520	-0.409957	-1.155698	-0.308107	-0.378793	0.032662	-1.139893	0.227295	0.077881	0.079748	0.004014	0.034978	-0.166217	0.574826	0.095162	0.795544	-7.046109	-71.126444	-151.356542
43700		8.212967	0.369879	3.600522	1.002724	-0.382875	-0.901950	-0.294967	-0.364081	0.023509	-1.133301	0.229492	0.082275	0.082064	0.003762	0.036149	-0.165313	0.576598	0.094210	0.794564	-7.349274	-71.340215	-151.215313
43701		8.583656	0.381165	3.946727	1.243193	-0.332047	-0.445445	-0.270508	-0.316794	-0.005364	-1.137695	0.229492	0.086914	0.085774	0.003863	0.039598	-0.164392	0.578144	0.093397	0.793727	-7.585391	-71.528923	-151.129855
43702		9.024418	0.507825	4.240083	1.457768	-0.416108	0.055343	-0.259647	-0.266369	-0.038348	-1.135498	0.229492	0.086914	0.090189	0.005116	0.042514	-0.163388	0.579464	0.092682	0.793055	-7.748184	-71.691587	-151.115587
43703		9.343318	0.619005	4.464112	1.632280	-0.493170	0.419687	-0.277518	-0.141730	-0.039777	-1.130859	0.225342	0.098389	0.093403	0.006233	0.044699	-0.162390	0.580301	0.091796	0.792751	-7.892727	-71.783435	-151.130940
43704		9.385412	0.701562	4.449095	1.649981	-0.588157	0.449096	-0.263169	-0.038693	0.000342	-1.137451	0.225098	0.089355	0.093845	0.007074	0.044500	-0.161632	0.580736	0.090769	0.792705	-8.071931	-71.813858	-151.101588
43705		9.194812	0.765689	4.343176	1.635356	-0.665616	0.231046	-0.215011	0.038141	0.017941	-1.135498	0.229492	0.093506	0.091956	0.007712	0.043406	-0.161127	0.580834	0.089818	0.792845	-8.237357	-71.799025	-151.057255
43706		9.056830	0.642608	4.279858	1.569511	-0.559080	0.085815	-0.113897	0.081268	-0.046422	-1.137695	0.229492	0.089111	0.090587	0.006429	0.042758	-0.160672	0.580648	0.089423	0.793118	-8.220568	-71.764838	-151.143981
43707		9.384372	0.585423	4.422118	1.577519	-0.508633	0.444847	-0.039713	0.098748	-0.109480	-1.135254	0.222900	0.091797	0.093869	0.005812	0.044174	-0.160197	0.580307	0.089488	0.793456	-8.051406	-71.725966	-151.346189
43708		9.739855	0.425111	4.519119	1.496208	-0.373262	0.821688	0.016008	0.100206	-0.159560	-1.133057	0.225098	0.093750	0.097425	0.004170	0.045143	-0.159679	0.579890	0.089920	0.793816	-7.762383	-71.689763	-151.641248
43709		10.143481	0.203181	4.578902	1.343589	-0.194572	1.235150	0.093733	0.106516	-0.149468	-1.137451	0.222900	0.084961	0.101461	0.001935	0.045736	-0.159436	0.579393	0.090625	0.794148	-7.448386	-71.648927	-151.915575
43710		10.232354	-0.021165	4.687634	1.322000	0.055402	1.364281	0.179221	0.034007	-0.171285	-1.139648	0.220459	0.091797	0.102331	-0.000341	0.046859	-0.159315	0.579103	0.091792	0.794250	-7.062796	-71.650203	-152.213930
43711		11.084918	0.337302	4.964852	1.455923	-0.293774	2.246869	0.100954	-0.043600	-0.080472	-1.134766	0.213867	0.090088	0.110840	0.003303	0.049674	-0.159298	0.579226	0.092444	0.794088	-6.896003	-71.688996	-152.328827
43712		11.206234	0.512073	4.965987	1.486920	-0.462186	2.356058	0.073499	-0.003515	-0.050901	-1.137207	0.218262	0.085205	0.112063	0.005074	0.049664	-0.159328	0.579225	0.092873	0.794032	-6.784145	-71.702931	-152.402889
43713		11.369090	0.842298	5.025964	1.611461	-0.768295	2.517719	0.082919	0.050574	-0.006224	-1.135010	0.218506	0.092041	0.113704	0.008399	0.050234	-0.159597	0.579023	0.093163	0.794091	-6.735576	-71.682995	-152.404127
43714		11.444300	1.118595	5.282429	1.909759	-0.950479	2.660351	0.102034	0.121025	0.002732	-1.130615	0.218506	0.083008	0.114475	0.011161	0.052761	-0.159983	0.578528	0.093451	0.794341	-6.674764	-71.622191	-152.406960
43715		11.444367	1.294010	5.530941	2.174990	-1.033961	2.734806	0.113961	0.234212	0.004714	-1.135010	0.216064	0.083252	0.114508	0.012911	0.055183	-0.160471	0.577576	0.093686	0.794907	-6.590772	-71.497018	-152.426791
43716		12.130909	1.557356	5.756830	2.242507	-1.313861	3.452686	0.088683	0.377760	0.001829	-1.130371	0.216309	0.080811	0.121417	0.015549	0.057346	-0.160935	0.576068	0.093718	0.795904	-6.486548	-71.289939	-152.483380
43717		13.524367	1.453211	5.910273	1.890571	-1.388975	4.831348	0.047415	0.463007	-0.020808	-1.135010	0.218262	0.078613	0.135382	0.014504	0.058793	-0.161235	0.574244	0.093578	0.797176	-6.356887	-71.036112	-152.591796
43718		13.888959	1.129618	5.537410	1.279632	-1.285238	5.071954	0.006751	0.386410	-0.034572	-1.130615	0.220703	0.071533	0.138998	0.011270	0.055106	-0.161320	0.572748	0.093379	0.798258	-6.242011	-70.826646	-152.709670
43719		12.871204	0.647688	5.119558	0.984485	-0.836748	3.994113	-0.002746	0.321713	-0.051662	-1.135010	0.218262	0.064941	0.128796	0.006444	0.050988	-0.161286	0.571510	0.093241	0.799168	-6.121205	-70.655063	-152.839427
43720		11.716061	0.141449	4.713210	0.738240	-0.337398	2.790543	0.019510	0.382222	-0.051953	-1.132813	0.218262	0.058350	0.117251	0.001379	0.046908	-0.161338	0.570006	0.093147	0.800242	-5.976997	-70.448621	-152.980627
43721		11.870610	-0.677108	4.047678	-0.244846	0.166384	2.743809	0.008844	0.488985	-0.072895	-1.134766	0.216064	0.058350	0.118802	-0.006816	0.040186	-0.161329	0.568076	0.092980	0.801634	-5.793593	-70.182732	-153.170154
43722		11.926250	-1.134277	3.153149	-1.273709	0.276238	2.506624	-0.080413	0.475648	-0.159130	-1.132568	0.213867	0.054199	0.119328	-0.011425	0.031252	-0.160709	0.566223	0.092714	0.803099	-5.530857	-69.928693	-153.498783
43723		11.574936	-1.514124	2.221832	-2.165945	0.376926	1.865274	-0.119631	0.245819	-0.189272	-1.139160	0.209229	0.049805	0.115762	-0.015238	0.022085	-0.159755	0.565312	0.092556	0.803949	-5.286147	-69.807270	-153.832544
43724		11.054301	-1.949715	1.819442	-2.534949	0.743162	1.247649	-0.080257	0.054527	-0.207651	-1.132324	0.207031	0.050049	0.110528	-0.019605	0.018172	-0.158741	0.565127	0.092765	0.804256	-5.017132	-69.795300	-154.168568
43725		10.915006	-2.177957	1.470632	-2.883420	0.883065	1.001638	-0.066587	-0.062004	-0.203390	-1.141357	0.209229	0.049805	0.109123	-0.021886	0.014747	-0.157737	0.565403	0.093105	0.804220	-4.764788	-69.849261	-154.478182
43726		10.828383	-2.429578	1.259955	-3.127387	1.084171	0.854468	-0.111287	-0.078791	-0.191223	-1.141357	0.209229	0.049805	0.108256	-0.024392	0.012656	-0.156640	0.565785	0.093248	0.804149	-4.555495	-69.911661	-154.769322
43727		10.911219	-2.446687	0.970777	-3.405412	1.011154	0.834570	-0.112101	-0.089560	-0.100769	-1.138916	0.204834	0.056885	0.109095	-0.024516	0.009770	-0.155907	0.566255	0.093136	0.803974	-4.490330	-69.976037	-154.907193
43728		10.670021	-2.218813	1.141706	-3.084971	0.898142	0.663583	-0.098889	-0.134729	-0.002998	-1.136719	0.207031	0.047852	0.106692	-0.022184	0.011500	-0.155578	0.566940	0.092838	0.803589	-4.574874	-70.061781	-154.877878
43729		10.510803	-2.041389	1.206686	-2.897473	0.776216	0.536344	-0.049657	-0.133144	0.092198	-1.138672	0.202637	0.057129	0.105109	-0.020362	0.012142	-0.155776	0.567625	0.092465	0.803110	-4.783367	-70.142156	-154.686529
43730		10.035473	-2.070300	1.312592	-2.656880	0.896848	0.129967	0.067156	0.004896	0.150399	-1.136719	0.209229	0.056641	0.100371	-0.020632	0.013117	-0.156599	0.567689	0.092290	0.802925	-4.997840	-70.140456	-154.417865
43731		9.514125	-2.195466	1.339514	-2.520301	1.084716	-0.346728	0.206770	0.101651	0.121520	-1.134766	0.211426	0.052002	0.095161	-0.021911	0.013324	-0.157751	0.567243	0.092680	0.802970	-5.074514	-70.084941	-154.210468
43732		8.978052	-2.419797	1.403718	-2.391554	1.384294	-0.824059	0.415615	0.085120	0.066661	-1.136719	0.209229	0.047607	0.089795	-0.024197	0.013949	-0.159264	0.566671	0.094077	0.802912	-4.946166	-70.041631	-154.093995
43733		9.105154	-2.178041	1.568902	-2.214861	1.188530	-0.658950	0.469315	0.130166	0.055154	-1.137207	0.218262	0.053955	0.091068	-0.021792	0.015579	-0.160907	0.565868	0.095685	0.802961	-4.763839	-69.973278	-154.001996
43734		9.680144	-1.800985	1.749686	-2.119140	0.802546	-0.072297	0.351990	0.276767	0.076191	-1.139404	0.220215	0.042480	0.096832	-0.018004	0.017331	-0.162368	0.564578	0.096645	0.803460	-4.662165	-69.820350	-153.895846
43735		9.761642	-1.603573	1.942486	-1.929160	0.655580	0.060652	0.232314	0.278287	0.130027	-1.137207	0.220459	0.044678	0.097654	-0.015995	0.019270	-0.163711	0.563402	0.096970	0.803974	-4.711997	-69.664000	-153.700970
43736		9.361016	-1.438511	2.181188	-1.549169	0.626226	-0.238587	0.206128	0.102663	0.202095	-1.135254	0.224854	0.046631	0.093636	-0.014313	0.021749	-0.165184	0.562987	0.097129	0.803944	-4.908748	-69.604371	-153.365324
43737		8.778373	-1.404410	2.347310	-1.204539	0.727066	-0.726297	0.298271	-0.155610	0.264838	-1.130859	0.229492	0.048584	0.087784	-0.013963	0.023521	-0.167043	0.563563	0.097696	0.803087	-5.183558	-69.688449	-152.890061
43738		8.475097	-1.216761	2.503495	-0.879966	0.646292	-0.959262	0.421975	-0.352729	0.318051	-1.133545	0.236084	0.050537	0.084726	-0.012086	0.025159	-0.169366	0.564852	0.098771	0.801562	-5.504077	-69.881762	-152.291290
43739		8.447888	-0.821133	2.663856	-0.546303	0.337838	-0.940004	0.473754	-0.415908	0.321951	-1.131348	0.238281	0.052490	0.084436	-0.008139	0.026795	-0.171818	0.566342	0.100098	0.799822	-5.819124	-70.109246	-151.667269
43740		8.351229	-0.393467	2.673540	-0.306189	-0.036393	-1.040545	0.516996	-0.402155	0.296606	-1.131348	0.240723	0.052490	0.083464	-0.003880	0.026893	-0.174298	0.567723	0.101653	0.798109	-6.078837	-70.329681	-151.076750
43741		8.197400	-0.023506	2.550621	-0.189510	-0.392800	-1.238696	0.540365	-0.311989	0.268765	-1.131592	0.245117	0.056641	0.081934	-0.000194	0.025633	-0.176775	0.568699	0.103303	0.796656	-6.271887	-70.499323	-150.543350
43742		8.025962	0.248268	2.443044	-0.100235	-0.649677	-1.445250	0.568839	-0.198914	0.216784	-1.131836	0.249512	0.054199	0.080233	0.002500	0.024517	-0.179183	0.569168	0.105112	0.795546	-6.350683	-70.607565	-150.114318
43743		7.876486	0.447335	2.431384	0.027472	-0.807456	-1.596970	0.579373	-0.066141	0.174068	-1.127441	0.251953	0.062988	0.078753	0.004471	0.024353	-0.181518	0.569069	0.106966	0.794839	-6.331101	-70.642682	-149.783315
43744		7.547704	0.485384	2.427397	0.138962	-0.785570	-1.909570	0.574112	0.021502	0.145658	-1.127441	0.251953	0.056152	0.075476	0.004839	0.024280	-0.183773	0.568610	0.108798	0.794401	-6.254387	-70.630038	-149.516124
43745		7.231193	0.425971	2.538743	0.299565	-0.631802	-2.168873	0.583005	0.068352	0.108870	-1.123047	0.256348	0.055908	0.072318	0.004225	0.025375	-0.185929	0.567928	0.110727	0.794121	-6.103107	-70.592875	-149.322503
43746		6.932688	0.413061	2.682086	0.497844	-0.507354	-2.401810	0.575533	0.074998	0.065105	-1.127441	0.251953	0.056152	0.069336	0.004076	0.026807	-0.187894	0.567200	0.112742	0.793895	-5.885594	-70.555050	-149.203626
43747		6.902841	0.467888	2.862138	0.677779	-0.473642	-2.371166	0.511925	0.091237	0.071135	-1.125244	0.256348	0.055908	0.069040	0.004630	0.028602	-0.189708	0.566464	0.114473	0.793741	-5.710326	-70.507454	-149.078547
43748		6.536566	0.315166	2.868094	0.714283	-0.264615	-2.708340	0.474767	0.113790	0.064611	-1.127686	0.258545	0.049072	0.065381	0.003105	0.028651	-0.191401	0.565671	0.116051	0.793671	-5.543231	-70.448077	-148.967673
43749		6.172500	0.175475	2.752795	0.651861	-0.115966	-3.084385	0.485972	0.069998	0.054518	-1.134521	0.262695	0.046631	0.061734	0.001705	0.027511	-0.193060	0.565028	0.117745	0.793478	-5.359578	-70.413753	-148.867197
43750		6.093968	0.010317	2.710754	0.561418	0.037442	-3.166776	0.529748	-0.012550	0.059604	-1.127686	0.260742	0.049072	0.060938	0.000050	0.027112	-0.194816	0.564671	0.119676	0.793014	-5.172732	-70.426645	-148.743474
43751		6.064408	-0.049648	2.751136	0.575114	0.123632	-3.179272	0.543221	-0.038097	0.049105	-1.125488	0.262939	0.046631	0.060639	-0.000556	0.027521	-0.196549	0.564389	0.121715	0.792476	-4.963677	-70.454512	-148.635152
43752		5.964283	-0.031829	2.870006	0.710857	0.186002	-3.234641	0.513901	-0.051084	0.058184	-1.127930	0.265137	0.046387	0.059636	-0.000375	0.028714	-0.198228	0.564193	0.123623	0.791902	-4.789093	-70.489895	-148.508203
43753		6.017352	-0.146392	2.807324	0.591805	0.263237	-3.202734	0.471084	-0.103146	0.084900	-1.125488	0.262939	0.048828	0.060160	-0.001505	0.028101	-0.199856	0.564255	0.125338	0.791179	-4.687865	-70.553419	-148.329403
43754		6.235347	-0.078933	2.857541	0.608359	0.195805	-2.983129	0.435264	-0.141793	0.119009	-1.123535	0.269775	0.043945	0.062334	-0.000814	0.028618	-0.201495	0.564527	0.126852	0.790328	-4.669452	-70.637922	-148.084784
43755		6.746774	-0.204202	2.990891	0.529433	0.283388	-2.454328	0.358572	-0.225327	0.123532	-1.123291	0.263184	0.053223	0.067435	-0.002054	0.029981	-0.202879	0.565202	0.128135	0.789283	-4.713622	-70.769455	-147.820432
43756		7.287753	-0.217346	3.221897	0.586001	0.311130	-1.869203	0.308380	-0.344219	0.124121	-1.121338	0.269775	0.057373	0.072823	-0.002178	0.032341	-0.204048	0.566398	0.129336	0.787927	-4.807911	-70.969113	-147.533852
43757		7.665025	-0.367417	3.407153	0.595510	0.473729	-1.451040	0.293608	-0.430565	0.109956	-1.117188	0.274414	0.063721	0.076579	-0.003682	0.034231	-0.205061	0.567933	0.130608	0.786348	-4.902380	-71.218226	-147.256301
