// General information: 
//  MT Manager version: 2019.2.0 
//  XDA version: 2019.2.0 build 3853 rev 94535 built on 2019-09-09
// Device information: 
//  DeviceId: 00B40ACF
//  ProductCode: MTW2-3A7G6
//  Firmware Version: 4.3.5
//  Hardware Version: 1.1.0
// Device settings: 
//  Filter Profile: human(46.1)
//  Option Flags: Orientation Smoother Disabled, AHS Disabled, ICC Disabled
// Coordinate system: ENU
PacketCounter	SampleTimeFine	Acc_X	Acc_Y	Acc_Z	FreeAcc_E	FreeAcc_N	FreeAcc_U	Gyr_X	Gyr_Y	Gyr_Z	Mag_X	Mag_Y	Mag_Z	VelInc_X	VelInc_Y	VelInc_Z	Quat_q0	Quat_q1	Quat_q2	Quat_q3	Roll	Pitch	Yaw
49788		19.668557	4.127497	-4.538708	0.000000	-0.000000	10.789151	-0.530393	0.997381	3.861508	-0.354004	0.982422	-0.619385	0.195612	0.044937	-0.046480	0.496542	-0.319957	-0.714447	-0.375020	135.967498	-71.710987	164.330169
49789		17.010665	5.597887	-4.534104	-0.000000	0.000000	8.659661	-1.171552	0.589245	3.417897	-0.331787	0.987305	-0.625732	0.168985	0.058604	-0.046178	0.463632	-0.291847	-0.734723	-0.400065	128.236883	-66.177167	171.760114
49790		11.981334	6.728402	-3.541026	2.892357	1.229614	4.024681	-1.200901	0.274994	2.880851	-0.323486	1.000732	-0.608398	0.118781	0.068785	-0.035984	0.478209	-0.318374	-0.719156	-0.390856	132.618233	-69.503018	166.103045
49791		5.805165	2.397848	-2.550092	1.208218	-0.537325	-3.164191	-0.933132	0.376639	2.350796	-0.305664	1.010010	-0.617188	0.057717	0.024539	-0.025723	0.482633	-0.328296	-0.712631	-0.389158	134.203872	-70.629976	163.847753
49792		9.209350	-6.178204	-2.425855	-7.057440	-4.232712	-1.993585	0.158210	0.620497	2.265498	-0.290283	1.019043	-0.619385	0.092709	-0.060715	-0.024594	0.487374	-0.332207	-0.710119	-0.384494	135.889202	-71.378838	162.309685
49793		14.053031	1.780261	-1.207310	-2.121391	1.215982	4.191966	0.748713	0.372803	1.707312	-0.288086	1.017090	-0.632568	0.140349	0.019047	-0.012265	0.493201	-0.335713	-0.707782	-0.378277	138.048901	-72.202605	160.487800
49794		3.665309	6.497858	-2.530736	5.672277	1.409948	-4.530806	0.483560	0.038236	0.627780	-0.285889	1.021484	-0.641357	0.036444	0.065154	-0.025157	0.499245	-0.341147	-0.705201	-0.370224	141.397103	-73.084830	157.468914
49795		0.088259	10.080784	-2.955461	9.881311	2.453271	-7.223148	0.427540	-0.045698	-0.129182	-0.301514	1.019043	-0.650146	0.000954	0.100870	-0.029339	0.499572	-0.339708	-0.706325	-0.368960	141.505660	-73.018228	157.611514
49796		-0.497212	8.748938	-2.151736	8.474418	2.432716	-7.892616	0.023631	-0.208068	-0.886313	-0.316895	1.012207	-0.650146	-0.004562	0.087513	-0.021512	0.488232	-0.329063	-0.714050	-0.378787	137.094445	-71.179445	161.930192
49797		0.078127	5.621761	-1.767587	5.475831	1.273307	-8.044081	-0.196550	-0.355798	-1.451041	-0.328125	1.011963	-0.650146	0.001221	0.056192	-0.017729	0.483876	-0.325027	-0.716914	-0.382434	135.656070	-70.458226	163.333840
49798		0.953840	4.461900	-0.982569	3.676303	1.406995	-7.305044	-0.073685	-0.417629	-1.910708	-0.343994	1.011719	-0.652344	0.009985	0.044521	-0.009822	0.457165	-0.300038	-0.732625	-0.405263	128.434123	-65.930255	170.247463
49799		0.938196	4.245255	-0.520559	3.252582	1.700616	-7.425001	0.072408	-0.468611	-2.395984	-0.374512	0.991211	-0.654541	0.009902	0.042338	-0.005167	0.450668	-0.292023	-0.737383	-0.409741	127.108456	-64.680553	171.752130
49800		0.853247	4.503330	-0.226356	3.110551	2.015122	-7.106863	0.163956	-0.504131	-2.918672	-0.401123	0.981689	-0.654541	0.009194	0.044904	-0.002204	0.420013	-0.260387	-0.752892	-0.434673	121.713888	-59.183903	176.984429
49801		1.194178	4.535366	0.179472	2.692008	2.394339	-6.805041	0.229762	-0.494262	-3.390987	-0.436523	0.967773	-0.658936	0.012704	0.045140	0.001877	0.411020	-0.248176	-0.758733	-0.440221	120.610911	-57.374688	178.435676
49802		2.054457	4.448070	0.998044	1.449401	2.949036	-6.044159	0.291552	-0.449824	-3.792052	-0.460449	0.949463	-0.658936	0.021360	0.044066	0.010092	0.380104	-0.212228	-0.770328	-0.465914	116.453985	-51.570037	-177.489879
49803		2.588924	4.447690	1.565485	0.717021	3.401882	-5.708473	0.233758	-0.423652	-4.157508	-0.500000	0.926514	-0.656738	0.026773	0.043908	0.015762	0.368952	-0.196712	-0.775920	-0.472363	115.586624	-49.322800	-176.191480
49804		3.112322	4.234867	1.646813	-0.218282	3.119103	-5.279302	0.127516	-0.392815	-4.533210	-0.534668	0.895020	-0.663330	0.032040	0.041619	0.016557	0.342331	-0.160610	-0.779779	-0.498958	111.832792	-43.960346	-172.726247
49805		4.122241	4.144382	1.599000	-1.220709	2.863823	-4.613915	0.105720	-0.315760	-4.892043	-0.567383	0.869873	-0.663330	0.042194	0.040411	0.016078	0.328879	-0.142097	-0.784277	-0.506515	111.104088	-41.285553	-171.561017
49806		5.294547	4.145443	1.619767	-2.540609	2.398091	-3.844035	0.051013	-0.284829	-5.235211	-0.602295	0.842529	-0.656494	0.053983	0.040046	0.016284	0.307483	-0.109009	-0.781786	-0.531397	107.861229	-36.628555	-168.765736
49807		6.579974	3.846987	1.303564	-3.916680	1.640152	-3.351309	-0.103555	-0.298384	-5.560462	-0.641357	0.806396	-0.654297	0.066816	0.036628	0.013116	0.291369	-0.088186	-0.784696	-0.539981	107.241406	-33.539314	-167.790989
49808		8.206174	3.078234	1.227598	-5.916292	0.573854	-3.257521	-0.181370	-0.330192	-5.869786	-0.671143	0.761230	-0.645264	0.082898	0.028369	0.012386	0.275098	-0.061732	-0.777751	-0.561796	104.512693	-29.819965	-165.783234
49809		9.595897	2.495104	1.236191	-7.685208	-0.127304	-3.431013	-0.251967	-0.398735	-6.141022	-0.705566	0.722900	-0.645264	0.096640	0.022006	0.012525	0.256092	-0.039292	-0.779118	-0.570832	104.023553	-26.353596	-165.051374
49810		11.604825	1.283692	0.685814	-9.845124	-1.828183	-3.773178	-0.353845	-0.487204	-6.357547	-0.737549	0.677979	-0.638428	0.116361	0.009153	0.007123	0.245991	-0.022590	-0.770234	-0.587978	101.839217	-23.922797	-163.835762
49811		13.421594	1.287464	0.760170	-11.815847	-2.428166	-3.746377	-0.466718	-0.621549	-6.517096	-0.764648	0.626221	-0.631592	0.134516	0.008512	0.007996	0.224256	0.000116	-0.769948	-0.597403	101.408141	-20.193584	-163.400445
49812		15.694911	1.358819	0.586959	-13.805338	-3.349297	-2.984421	-0.847285	-0.738156	-6.626313	-0.782959	0.574951	-0.615967	0.157262	0.008407	0.006407	0.220767	0.004442	-0.760465	-0.610684	99.553692	-19.289800	-162.972336
49813		18.606281	0.223013	0.778366	-17.179099	-4.444091	-4.169158	-1.336497	-0.846794	-6.676981	-0.803711	0.527832	-0.604736	0.185965	-0.003925	0.008584	0.197064	0.025762	-0.756724	-0.622793	98.747178	-15.435726	-162.836809
49814		21.730893	-1.566309	0.540216	-20.340834	-5.813090	-4.591736	-1.840301	-0.937342	-6.648050	-0.826416	0.476318	-0.591309	0.216601	-0.022815	0.006607	0.200500	0.015669	-0.745811	-0.635074	96.755774	-16.210632	-163.169063
49815		24.276595	-4.517176	-0.430112	-23.310928	-7.964881	-8.117252	-2.355364	-0.990231	-6.539216	-0.835693	0.427246	-0.573486	0.241131	-0.053111	-0.002510	0.176109	0.034535	-0.738355	-0.650096	95.448108	-12.424942	-163.340224
49816		26.533903	-10.071589	-1.316975	-26.680304	-9.599779	-11.521716	-2.949880	-0.914199	-6.344740	-0.854492	0.384521	-0.553711	0.262015	-0.109231	-0.010397	0.187518	0.007013	-0.726743	-0.660781	93.352179	-15.265221	-164.487613
49817		28.711866	-14.528523	0.686204	-30.182177	-8.340206	-17.233464	-2.245581	-0.567866	-6.025687	-0.859375	0.337891	-0.544678	0.282547	-0.153749	0.009364	0.165532	0.024920	-0.719268	-0.674264	92.103845	-11.801261	-164.652845
49818		25.321741	-15.693551	0.387919	-28.159998	-6.921302	-16.632466	-1.459644	-0.338961	-5.480609	-0.866699	0.295410	-0.540039	0.248783	-0.163758	0.005482	0.186545	-0.018918	-0.714876	-0.673643	91.366812	-16.989793	-166.436948
49819		22.348837	-19.310254	-3.399931	-25.084649	-9.901539	-22.321161	-1.199844	-0.107054	-4.717781	-0.869873	0.260010	-0.541992	0.218866	-0.198501	-0.032701	0.170104	-0.003531	-0.711170	-0.682122	90.682856	-14.286068	-166.450421
49820		21.732127	-20.177158	-6.085642	-25.914579	-11.707954	-20.189370	-0.738274	0.112339	-3.914250	-0.870605	0.226563	-0.537354	0.213281	-0.206195	-0.060221	0.196645	-0.059133	-0.709885	-0.673719	90.912684	-21.030758	-168.817746
49821		18.866874	-20.500415	-6.626720	-22.909431	-11.581776	-22.504567	-0.507903	0.150984	-3.308668	-0.872070	0.204346	-0.534912	0.185191	-0.208255	-0.065882	0.185859	-0.047372	-0.708905	-0.678724	90.580982	-19.136344	-168.699334
49822		18.570068	-21.452139	-7.451823	-24.821426	-11.830701	-20.032742	0.188459	0.183585	-2.798168	-0.870850	0.173340	-0.536865	0.182607	-0.217020	-0.074891	0.211416	-0.110306	-0.712355	-0.660066	92.513472	-26.540129	-172.165820
49823		15.220915	-21.027639	-6.141033	-21.551196	-10.177148	-21.791624	0.697880	0.099165	-2.169037	-0.873047	0.171143	-0.536865	0.149888	-0.211694	-0.062222	0.204982	-0.101509	-0.715703	-0.659885	92.857454	-25.301425	-172.037972
49824		13.148258	-23.288003	-3.956802	-23.155274	-7.649296	-21.482101	0.788931	-0.000635	-1.181351	-0.867920	0.157959	-0.536865	0.130105	-0.233493	-0.040488	0.228995	-0.172187	-0.719708	-0.632403	96.535885	-33.188965	-177.138097
49825		17.810226	-19.498427	-3.429518	-24.950989	-6.974578	-15.973406	1.079074	-0.147488	-0.400623	-0.870361	0.157959	-0.536865	0.177737	-0.195152	-0.035217	0.228122	-0.169974	-0.723622	-0.628840	97.190916	-32.951021	-177.205476
49826		16.484498	-17.421061	1.044209	-23.883256	-0.971103	-12.041444	0.817387	-0.055178	0.396239	-0.870605	0.166748	-0.536865	0.165187	-0.173924	0.009776	0.252572	-0.245174	-0.721065	-0.596793	102.258540	-41.062206	176.037342
49827		17.401341	-16.281780	0.370297	-23.787148	-1.417927	-10.246934	-0.156279	0.069337	1.630434	-0.864502	0.182373	-0.532715	0.175334	-0.161389	0.003769	0.257488	-0.251034	-0.718489	-0.595362	102.310624	-41.983505	175.823710
49828		19.800429	9.643380	1.091055	-5.106493	5.113587	11.019861	0.800439	0.468595	2.380685	-0.863037	0.202393	-0.541504	0.196864	0.098738	0.010841	0.290368	-0.322751	-0.703692	-0.562438	108.206103	-50.508038	168.425152
49829		12.016824	26.080340	8.826629	12.681963	14.349782	13.333134	0.400745	0.135097	1.767986	-0.865723	0.211182	-0.541504	0.117917	0.261675	0.088710	0.296450	-0.327997	-0.701740	-0.558656	108.741475	-51.493434	168.031740
49830		12.783156	-0.375054	5.781670	-7.191827	7.585157	-0.447318	-1.754751	-0.285720	1.938458	-0.864258	0.233398	-0.537354	0.127774	-0.002003	0.058022	0.322352	-0.374421	-0.678621	-0.543481	112.093259	-57.617436	162.864508
49831		16.821295	-10.339019	-1.478561	-17.339908	0.117775	-0.256706	-2.551247	-0.806211	2.672540	-0.860840	0.257813	-0.528809	0.169630	-0.101301	-0.012803	0.322045	-0.389725	-0.667864	-0.546223	112.256086	-58.861309	160.953860
49832		13.899817	-3.385791	-3.856495	-8.626377	-1.709807	2.111718	-1.980530	-0.906919	2.685741	-0.861572	0.280029	-0.515625	0.139611	-0.032361	-0.037607	0.351732	-0.427072	-0.642328	-0.530386	116.502915	-64.807169	155.646077
49833		15.072243	-9.441142	-7.461348	-14.488297	-5.172682	1.818660	-1.733275	-0.994513	2.708265	-0.853760	0.306641	-0.504883	0.152354	-0.092993	-0.073049	0.351970	-0.441395	-0.633606	-0.528991	118.167972	-65.924395	152.721956
49834		22.186016	-9.089378	-6.448302	-14.898949	-2.427518	9.897552	-0.544131	-0.797135	3.188508	-0.845703	0.331055	-0.498291	0.223527	-0.087512	-0.063353	0.380085	-0.475663	-0.611370	-0.505477	127.954467	-71.017575	142.644753
49835		11.400450	-0.336565	-1.207000	-3.127958	1.116468	1.164514	0.227144	-0.955283	2.984893	-0.849121	0.357666	-0.491943	0.114094	-0.001650	-0.011528	0.385203	-0.486712	-0.606585	-0.496775	132.637948	-71.968915	137.843569
49836		4.686592	-1.614094	-1.691988	-2.301177	-0.717660	-5.162935	0.124871	-0.797092	2.570520	-0.838623	0.377930	-0.487793	0.047135	-0.015526	-0.016742	0.410773	-0.512344	-0.588067	-0.472172	148.180527	-75.229115	122.646977
49837		7.975636	-2.374179	-4.386474	-3.368354	-2.611774	-1.427086	0.008032	-0.444971	2.221285	-0.834717	0.393555	-0.489990	0.080111	-0.022852	-0.043688	0.414703	-0.519877	-0.583271	-0.466416	152.933774	-75.633155	117.740799
49838		9.402560	0.976473	-2.328786	0.528080	-0.151478	-0.092590	0.221714	-0.160947	1.867109	-0.831055	0.413574	-0.485596	0.093948	0.010668	-0.023201	0.434488	-0.539240	-0.567047	-0.445981	170.598063	-76.838167	100.342866
49839		9.830690	1.693402	-1.091453	1.384563	1.179776	0.055959	0.043020	-0.150567	1.651739	-0.833496	0.422363	-0.488037	0.098171	0.017748	-0.010837	0.437846	-0.544147	-0.562996	-0.441848	174.691013	-76.873842	96.165219
49840		10.428506	1.390116	-1.040752	1.697402	1.385368	0.529780	-0.123751	-0.266813	1.562779	-0.829590	0.435791	-0.488037	0.104186	0.014709	-0.010277	0.452536	-0.559269	-0.549176	-0.425248	-170.298842	-76.581063	81.290787
49841		9.966749	1.411968	-1.829058	1.867877	0.540577	0.231829	-0.350067	-0.403249	1.437617	-0.825684	0.448975	-0.481445	0.099599	0.014804	-0.018115	0.453494	-0.564850	-0.545307	-0.421816	-167.346103	-76.194571	78.046413
49842		9.932585	0.423567	-1.052326	1.343423	1.309430	0.006788	-0.428279	-0.412120	1.364863	-0.821289	0.453613	-0.481445	0.099315	0.004891	-0.010329	0.464368	-0.576817	-0.533810	-0.408278	-157.014853	-75.188548	67.770763
49843		9.831605	0.122557	-0.255643	1.138229	2.094666	-0.270343	-0.390559	-0.350311	1.228178	-0.817139	0.460205	-0.477051	0.098310	0.001825	-0.002387	0.464804	-0.581705	-0.530271	-0.405449	-155.147487	-74.719634	65.605434
49844		10.430550	-0.334174	-0.400067	1.143409	2.095366	0.354368	-0.274304	-0.287001	1.086160	-0.815430	0.473633	-0.475098	0.104327	-0.002781	-0.003847	0.475310	-0.588883	-0.521469	-0.394167	-147.939083	-73.730625	58.733663
49845		10.639502	-0.165928	-0.340136	1.445917	2.233495	0.495660	-0.207171	-0.291418	1.005979	-0.815430	0.473633	-0.475098	0.106406	-0.001128	-0.003245	0.475917	-0.592565	-0.518783	-0.391452	-146.722929	-73.278831	57.341540
49846		10.909957	-1.338349	-0.326659	0.643456	2.283816	0.924829	-0.172817	-0.242636	0.928662	-0.815918	0.484619	-0.466309	0.109164	-0.012879	-0.003123	0.485919	-0.596054	-0.512427	-0.382127	-141.479164	-72.464920	52.648265
49847		11.147490	-1.781218	-0.700323	0.367258	2.005709	1.312559	0.063405	-0.181626	0.877583	-0.811523	0.489258	-0.468506	0.111558	-0.017321	-0.006907	0.487315	-0.598490	-0.510368	-0.379286	-140.426095	-72.067218	51.580824
49848		10.375767	-0.556128	-0.929831	1.665449	1.542732	0.369454	0.381278	-0.103865	0.820223	-0.809570	0.495850	-0.472900	0.103784	-0.005118	-0.009254	0.497977	-0.598155	-0.506651	-0.370856	-136.151658	-71.488518	48.219377
49849		9.854572	0.370818	-0.904720	2.538483	1.461327	-0.352838	0.515284	-0.054702	0.732407	-0.816895	0.509033	-0.475342	0.098534	0.004092	-0.009010	0.500733	-0.598824	-0.505546	-0.367559	-135.033531	-71.172343	47.350803
49850		10.104344	0.418818	-0.873402	2.790847	1.515650	-0.171653	0.514810	-0.018439	0.663327	-0.812256	0.509033	-0.475342	0.101030	0.004546	-0.008713	0.509612	-0.597044	-0.503462	-0.361054	-131.909599	-70.781570	45.104714
49851		9.977203	0.212923	-0.933642	2.632582	1.426442	-0.247332	0.499859	-0.012323	0.612574	-0.807861	0.509277	-0.481934	0.099765	0.002458	-0.009324	0.512176	-0.597331	-0.502562	-0.358194	-130.976316	-70.513645	44.419110
49852		9.925228	-0.098632	-1.027602	2.435327	1.278623	-0.220512	0.490749	-0.001749	0.573581	-0.812744	0.518066	-0.484131	0.099255	-0.000676	-0.010277	0.519238	-0.595133	-0.501437	-0.353227	-128.688222	-70.248037	42.894786
49853		9.877588	0.064912	-0.774169	2.612171	1.523149	-0.377295	0.544784	0.006408	0.514090	-0.812988	0.524658	-0.477539	0.098773	0.000924	-0.007743	0.521780	-0.594993	-0.500848	-0.350542	-127.862644	-70.018911	42.348875
49854		9.702118	0.065129	-0.678970	2.628302	1.549651	-0.577604	0.540897	-0.033097	0.456516	-0.808350	0.524902	-0.484131	0.097020	0.000891	-0.006771	0.527608	-0.592378	-0.500711	-0.346420	-126.153429	-69.847887	41.364770
49855		10.095893	-1.045874	-1.154951	1.768321	1.117018	0.186309	0.553012	-0.054206	0.427778	-0.812988	0.524658	-0.479736	0.100984	-0.010211	-0.011551	0.529849	-0.592081	-0.500540	-0.343743	-125.515577	-69.630828	41.022618
49856		9.914715	-0.693690	-0.972988	2.094067	1.247671	-0.128293	0.644168	-0.055951	0.420530	-0.813232	0.535889	-0.484131	0.099164	-0.006697	-0.009724	0.535136	-0.589173	-0.501011	-0.339842	-124.086041	-69.499621	40.326912
49857		9.557985	1.006207	-1.178554	3.691931	1.107279	-0.930126	0.606839	-0.127516	0.399681	-0.811279	0.540283	-0.484131	0.095567	0.010289	-0.011694	0.537281	-0.588764	-0.501201	-0.336874	-123.560392	-69.268532	40.136799
49858		9.439645	1.322387	-1.695673	4.078176	0.614184	-1.053581	0.483414	-0.186234	0.403012	-0.811523	0.546875	-0.477783	0.094385	0.013455	-0.016837	0.541094	-0.586605	-0.501956	-0.333393	-122.626798	-69.123693	39.800455
49859		9.617775	0.970980	-2.257709	3.918606	0.109242	-0.692711	0.367274	-0.284105	0.396450	-0.816162	0.551270	-0.477783	0.096190	0.009942	-0.022422	0.542117	-0.587079	-0.502171	-0.330563	-122.455075	-68.844464	39.841941
49860		10.162966	1.312654	-2.322767	4.441214	0.231105	-0.292913	0.381370	-0.303996	0.380359	-0.816650	0.560059	-0.471191	0.101640	0.013364	-0.023048	0.544392	-0.585889	-0.503130	-0.327463	-122.013920	-68.671939	39.842498
49861		10.507596	0.257696	-2.278448	3.575572	0.287481	0.326328	0.419270	-0.273547	0.418954	-0.816650	0.562256	-0.471191	0.105101	0.002845	-0.022635	0.545616	-0.586247	-0.503329	-0.324463	-121.789045	-68.385145	39.859011
49862		10.458987	0.357024	-1.749348	3.607936	0.823540	0.131268	0.552435	-0.262176	0.518234	-0.816895	0.571045	-0.468994	0.104603	0.003889	-0.017346	0.548077	-0.585297	-0.504007	-0.320962	-121.275978	-68.153635	39.793167
49863		9.994842	1.387656	-1.410984	4.444297	1.188422	-0.721555	0.580415	-0.239926	0.639196	-0.808350	0.580078	-0.460449	0.099920	0.014237	-0.013949	0.550192	-0.585697	-0.503719	-0.317041	-120.767781	-67.768755	39.603699
49864		9.897600	1.685487	-1.483673	4.760406	1.161613	-0.924877	0.466607	-0.250133	0.761041	-0.804199	0.589111	-0.464844	0.098929	0.017266	-0.014673	0.552660	-0.585539	-0.503588	-0.313225	-120.179378	-67.433883	39.390279
49865		10.243772	0.995826	-1.295832	4.258250	1.382565	-0.455301	0.342179	-0.226333	0.909501	-0.800049	0.597900	-0.458252	0.102406	0.010446	-0.012825	0.554510	-0.587231	-0.502079	-0.309183	-119.632705	-66.917323	39.009897
49866		10.695578	1.174260	-1.076975	4.593695	1.753490	-0.181684	0.227329	-0.194938	1.054522	-0.798584	0.615723	-0.451660	0.106902	0.012319	-0.010652	0.556809	-0.588261	-0.500658	-0.305375	-118.973355	-66.465887	38.572834
49867		11.138971	1.833410	-1.065005	5.448061	1.986499	-0.068805	0.150709	-0.136130	1.168085	-0.794678	0.629150	-0.451904	0.111287	0.018992	-0.010560	0.558686	-0.590964	-0.497821	-0.301339	-118.315688	-65.840952	37.948222
49868		11.777575	1.314558	-1.478821	5.354976	1.706657	0.724671	0.149012	-0.095323	1.241977	-0.781738	0.642578	-0.449707	0.117698	0.013888	-0.014722	0.561396	-0.592204	-0.495614	-0.297483	-117.505037	-65.341770	37.330321
49869		12.170263	0.523026	-1.549994	4.909932	1.668410	1.318260	0.250075	-0.060276	1.332587	-0.768799	0.656250	-0.449707	0.121669	0.006060	-0.015456	0.563957	-0.594881	-0.492196	-0.292937	-116.681817	-64.646111	36.580091
49870		12.432617	1.164952	-1.468798	5.698360	1.907890	1.231329	0.321015	-0.034952	1.430405	-0.764648	0.669678	-0.449707	0.124241	0.012562	-0.014647	0.567590	-0.595828	-0.489609	-0.288296	-115.676695	-64.071875	35.865969
49871		12.733751	1.234190	-1.489499	6.039165	1.998563	1.386469	0.343880	0.004291	1.528978	-0.754150	0.685303	-0.445557	0.127238	0.013340	-0.014875	0.570812	-0.598571	-0.485521	-0.283118	-114.720984	-63.280046	35.019553
49872		12.680380	1.373070	-1.368286	6.266314	2.131307	1.175334	0.389983	0.054465	1.632049	-0.736816	0.701172	-0.445557	0.126682	0.014791	-0.013689	0.575144	-0.599444	-0.482290	-0.277979	-113.573523	-62.627784	34.204096
49873		12.718155	1.460985	-1.157104	6.501382	2.371082	1.019233	0.373494	0.108076	1.745769	-0.728516	0.719238	-0.452148	0.127041	0.015741	-0.011611	0.578929	-0.602406	-0.477246	-0.272370	-112.509363	-61.731354	33.242880
49874		12.886221	1.101871	-0.989923	6.377665	2.532840	1.194300	0.327312	0.158777	1.882503	-0.717773	0.734863	-0.449951	0.128743	0.012247	-0.009982	0.583671	-0.603611	-0.473011	-0.266914	-111.288827	-60.972802	32.323510
49875		13.078216	1.467165	-0.932172	6.986021	2.691801	1.050315	0.288481	0.211153	2.033324	-0.693848	0.750977	-0.452148	0.130614	0.016014	-0.009437	0.587724	-0.607264	-0.466617	-0.260920	-110.195933	-59.925932	31.257273
49876		13.353031	1.631990	-1.308749	7.532832	2.420334	1.144984	0.286459	0.269474	2.188834	-0.678955	0.773438	-0.450195	0.133323	0.017799	-0.013242	0.593040	-0.608770	-0.461234	-0.254884	-108.896028	-59.025048	30.247832
49877		13.152765	3.960408	-1.424892	9.721657	2.547873	-0.341720	0.305443	0.343380	2.323956	-0.659424	0.791504	-0.454590	0.131031	0.041151	-0.014412	0.597682	-0.612744	-0.453498	-0.248316	-107.736086	-57.822574	29.091828
49878		13.549213	3.716690	-2.352523	10.120977	1.722043	0.062486	0.218380	0.381930	2.475347	-0.642334	0.811768	-0.456787	0.134973	0.038865	-0.023741	0.603217	-0.614702	-0.446934	-0.241911	-106.459665	-56.783097	28.051091
49879		14.134172	5.008626	-2.694474	11.827003	1.678046	-0.356800	0.225297	0.445551	2.616662	-0.617920	0.825684	-0.463379	0.140610	0.051960	-0.027201	0.608017	-0.619277	-0.437780	-0.234863	-105.353625	-55.410997	26.874134
49880		15.409016	5.704921	-3.850497	13.554785	0.957922	0.194399	0.201785	0.485159	2.766540	-0.603027	0.845703	-0.459229	0.153187	0.059211	-0.038818	0.613525	-0.621841	-0.429953	-0.228124	-104.167030	-54.221999	25.837984
49881		15.942089	5.222481	-4.415137	13.874171	0.448066	0.589369	0.441545	0.488227	2.878478	-0.581055	0.857422	-0.472168	0.158538	0.054609	-0.044420	0.619165	-0.626050	-0.419962	-0.219838	-103.023980	-52.684498	24.730219
49882		16.194395	5.730936	-4.299004	14.651905	0.673757	0.108256	0.965274	0.488266	2.986998	-0.556885	0.871338	-0.483154	0.160957	0.059926	-0.043099	0.626409	-0.627029	-0.412094	-0.211248	-101.641490	-51.370196	23.820730
49883		16.892251	6.670409	-4.072186	16.038989	1.197607	-0.447318	1.620131	0.540691	3.007109	-0.530762	0.891846	-0.498779	0.167781	0.069562	-0.040621	0.635685	-0.627486	-0.402622	-0.200155	-99.950896	-49.735591	22.833742
49884		18.524981	8.923325	-3.896979	18.925469	2.143241	-1.142284	2.339849	0.720599	3.069341	-0.510742	0.903320	-0.520508	0.183707	0.092513	-0.038564	0.646906	-0.624114	-0.395022	-0.189610	-97.888119	-48.396799	21.909936
49885		18.658364	13.026480	-3.690620	22.217782	3.104300	-4.510343	2.407387	0.834879	3.359488	-0.490967	0.915039	-0.546875	0.184204	0.133810	-0.036082	0.659108	-0.622033	-0.384033	-0.176552	-95.741730	-46.542162	20.869378
49886		18.876136	9.108565	-1.473727	19.116595	4.712529	-2.482016	1.484798	0.936522	3.765319	-0.464600	0.933350	-0.557861	0.186931	0.094727	-0.014921	0.667962	-0.622136	-0.372969	-0.166337	-94.231900	-44.847906	19.946307
49887		21.635659	0.792158	0.208966	15.220270	5.523261	4.558891	1.040757	1.148460	4.020384	-0.436035	0.949463	-0.577637	0.216147	0.012261	0.000904	0.676529	-0.625058	-0.357407	-0.154503	-92.870874	-42.589392	18.840175
49888		20.490211	2.622673	-1.201273	16.506086	4.131417	1.959573	1.206244	1.279494	4.034689	-0.402588	0.959229	-0.593018	0.204235	0.030429	-0.013146	0.685303	-0.625039	-0.344634	-0.144616	-91.429588	-40.778699	17.889299
49889		19.347206	3.890762	-1.039825	16.900709	4.131768	-0.443937	0.714611	1.330858	3.885671	-0.380615	0.972900	-0.601807	0.192593	0.042695	-0.011534	0.692490	-0.628187	-0.328373	-0.134199	-90.358796	-38.564395	16.853621
49890		18.382459	3.817253	-1.354626	16.512513	3.508065	-1.487445	0.008750	1.136921	3.593800	-0.354248	0.986816	-0.604004	0.183018	0.041467	-0.014586	0.696685	-0.630859	-0.316962	-0.127209	-89.777268	-37.023845	16.194422
49891		16.189825	3.795163	-1.198781	15.056205	3.071518	-3.347272	-0.313678	0.746597	3.247606	-0.336426	0.991699	-0.614990	0.161207	0.040554	-0.012653	0.698847	-0.636535	-0.303874	-0.118731	-89.651867	-35.160933	15.676491
49892		12.690342	4.631233	-1.939412	13.094727	1.702046	-6.367048	-0.248840	0.491219	2.896361	-0.321289	1.002930	-0.614990	0.126167	0.048119	-0.019764	0.700530	-0.639068	-0.296946	-0.112574	-89.527714	-34.050522	15.528469
49893		8.472194	2.872228	-2.123706	8.912477	0.277854	-7.571205	0.032622	0.466074	2.427246	-0.312500	1.009766	-0.621582	0.084315	0.029751	-0.021429	0.702639	-0.642247	-0.287553	-0.105504	-89.342257	-32.657234	15.225154
49894		7.176264	-2.203444	-1.799337	5.184398	-0.491634	-4.114489	0.494610	0.506656	2.085571	-0.294678	1.014648	-0.632568	0.071941	-0.021240	-0.018229	0.705901	-0.641206	-0.283344	-0.101363	-88.841784	-32.006433	15.054914
49895		10.621589	1.961575	-1.985461	10.259497	0.737710	-5.965124	0.635195	0.287709	1.548134	-0.294678	1.019287	-0.643555	0.106031	0.020500	-0.019943	0.709104	-0.640989	-0.277677	-0.095918	-88.389756	-31.115725	14.886599
49896		4.028028	7.644773	-2.036212	7.670267	0.180492	-14.278990	0.203046	-0.023481	0.637742	-0.294922	1.019287	-0.641357	0.040039	0.076596	-0.020280	0.709681	-0.639576	-0.279510	-0.095759	-88.281264	-31.279722	15.029206
49897		-0.769295	10.523743	-1.703571	5.040369	-0.090346	-19.237630	-0.123112	-0.168990	-0.277576	-0.308105	1.014404	-0.645752	-0.007532	0.105237	-0.017107	0.708917	-0.639705	-0.280938	-0.096377	-88.407981	-31.441563	15.137107
49898		-0.811042	10.256917	-0.660200	4.724510	0.870053	-18.935140	-0.408200	-0.203194	-0.883270	-0.312744	1.016602	-0.650146	-0.007651	0.102590	-0.006819	0.706348	-0.638691	-0.287647	-0.102009	-88.732443	-32.456740	15.347353
49899		0.374026	6.939622	-1.056536	4.190312	0.187242	-15.453580	-0.758657	-0.359211	-1.392585	-0.337402	1.013916	-0.634766	0.004242	0.069327	-0.010821	0.702675	-0.639529	-0.292967	-0.106869	-89.291150	-33.258174	15.575880
49900		1.253084	4.667801	-1.575457	3.950843	-0.485308	-12.974193	-0.679293	-0.435078	-1.811458	-0.350342	1.004639	-0.630371	0.012987	0.046508	-0.015885	0.698253	-0.638211	-0.303031	-0.115331	-89.880172	-34.777802	15.951750
49901		1.522638	4.159214	-1.802514	4.008375	-0.725016	-12.317246	-0.405696	-0.456613	-2.246990	-0.374756	0.997559	-0.634766	0.015733	0.041381	-0.018074	0.694924	-0.636443	-0.311541	-0.122326	-90.300150	-36.064974	16.275210
49902		1.495757	4.168121	-1.473429	3.983960	-0.396761	-12.210765	-0.217997	-0.468550	-2.731867	-0.399170	0.988281	-0.628174	0.015559	0.041455	-0.014744	0.690901	-0.632180	-0.324430	-0.133226	-90.714322	-38.078755	16.692762
49903		1.929383	4.285312	-0.989122	4.311146	0.208612	-11.918234	-0.038207	-0.443454	-3.169556	-0.436768	0.974365	-0.630615	0.019992	0.042538	-0.009856	0.687861	-0.627385	-0.335914	-0.142820	-90.963375	-39.891061	17.053728
49904		2.324067	4.348447	-0.206495	4.492640	1.090427	-11.538213	0.065766	-0.419764	-3.580267	-0.465332	0.956055	-0.628418	0.024018	0.043060	-0.002001	0.683658	-0.620450	-0.351071	-0.156215	-91.273229	-42.366555	17.489624
49905		2.984068	4.150260	0.505696	4.668108	1.913544	-10.776394	0.057325	-0.413668	-3.993075	-0.491455	0.933350	-0.634766	0.030651	0.040895	0.005132	0.679853	-0.613443	-0.364846	-0.168450	-91.518231	-44.648208	17.893066
49906		3.679373	3.672025	1.054734	4.663263	2.524505	-9.709392	-0.004856	-0.421402	-4.370125	-0.526367	0.906006	-0.634766	0.037562	0.035905	0.010625	0.674249	-0.604518	-0.382092	-0.184261	-91.942596	-47.563754	18.444564
49907		4.484661	3.159760	1.146965	4.746504	2.691981	-8.535888	-0.007590	-0.408681	-4.726109	-0.565918	0.883057	-0.630371	0.045553	0.030527	0.011561	0.668901	-0.595721	-0.397640	-0.198922	-92.331174	-50.261293	18.954137
49908		5.783354	2.693784	1.112994	5.061985	2.828760	-6.930314	0.104511	-0.366514	-5.075403	-0.593994	0.853760	-0.628174	0.058472	0.025453	0.011250	0.662449	-0.583754	-0.416574	-0.216468	-92.761404	-53.576146	19.638857
49909		7.049375	2.746591	1.025129	5.643478	2.987500	-5.629354	0.250704	-0.361487	-5.399943	-0.639404	0.810547	-0.627930	0.071182	0.025537	0.010412	0.656340	-0.571854	-0.433650	-0.232698	-93.143106	-56.655661	20.279017
49910		8.435281	2.711948	0.818004	6.061696	3.008439	-4.036764	0.387251	-0.381857	-5.702117	-0.665039	0.774658	-0.634521	0.085064	0.024685	0.008391	0.649132	-0.556176	-0.454177	-0.251038	-93.615529	-60.329166	21.234934
49911		10.117274	2.555821	0.870541	6.289870	3.252870	-2.100859	0.569066	-0.397324	-6.003527	-0.701416	0.727295	-0.632080	0.101861	0.022482	0.008974	0.641980	-0.540941	-0.472667	-0.268011	-94.156649	-63.746056	22.216320
49912		11.850143	2.588755	1.221937	6.295123	3.779217	-0.083315	0.705661	-0.454105	-6.230383	-0.726563	0.684814	-0.634033	0.119202	0.022137	0.012572	0.633703	-0.521468	-0.494420	-0.286426	-94.957515	-67.722041	23.741579
49913		13.667991	2.266404	1.309599	5.921559	3.906081	2.157106	0.646672	-0.555274	-6.403760	-0.753906	0.637695	-0.635986	0.137274	0.018231	0.013540	0.624515	-0.504113	-0.513543	-0.303520	-96.409334	-71.342466	25.685780
49914		15.722746	2.627570	1.210695	5.901397	4.012098	4.489759	0.579997	-0.684509	-6.484397	-0.785645	0.583740	-0.633545	0.157925	0.021126	0.012713	0.613812	-0.482893	-0.535357	-0.321624	-99.052833	-75.429120	29.062150
49915		18.054030	2.412709	1.468115	5.100275	4.257782	7.206713	0.215043	-0.868481	-6.602756	-0.801514	0.530273	-0.620117	0.181139	0.018136	0.015489	0.601049	-0.465689	-0.554011	-0.339037	-104.489805	-79.035963	34.760215
49916		21.118245	0.469613	1.885546	2.207884	3.997768	10.893042	-0.439042	-1.038305	-6.763260	-0.824219	0.478760	-0.611084	0.211080	-0.002401	0.019952	0.585363	-0.445509	-0.574420	-0.359044	-117.536671	-82.933524	48.037779
49917		24.125975	-1.629574	1.463017	-0.857279	2.863713	14.222672	-0.938424	-1.137631	-6.730361	-0.835693	0.429443	-0.597656	0.240442	-0.024324	0.016101	0.567577	-0.430704	-0.590715	-0.378690	-148.926092	-85.385952	79.035725
49918		25.759275	-4.396913	0.266258	-4.846356	0.490249	15.857545	-1.330073	-1.129928	-6.579446	-0.851807	0.378174	-0.584229	0.255940	-0.052382	0.004442	0.548997	-0.412299	-0.607438	-0.399539	157.247379	-85.151622	132.613538
49919		27.715337	-9.673526	0.485094	-11.711299	-1.230099	17.075601	-1.717459	-0.943849	-6.370161	-0.858887	0.331299	-0.575195	0.273857	-0.105440	0.007029	0.529561	-0.399322	-0.619391	-0.420073	131.497976	-82.524207	157.511586
49920		27.425866	-10.178212	2.332910	-14.477773	-0.114233	15.708811	-1.009057	-0.584556	-5.920050	-0.861572	0.284668	-0.563965	0.271018	-0.109715	0.024665	0.513647	-0.380756	-0.631822	-0.438170	118.525666	-79.338835	170.350427
49921		23.048903	-11.832494	1.173750	-16.133911	-2.126726	10.377618	-1.286994	-0.375852	-5.363598	-0.869141	0.242432	-0.559326	0.227184	-0.124367	0.012954	0.498063	-0.367794	-0.639937	-0.455128	112.512676	-76.469169	175.743680
49922		23.831595	-16.101690	-2.735871	-20.105099	-7.445934	9.549059	-1.667905	-0.276781	-4.559870	-0.870117	0.211182	-0.552490	0.234596	-0.166613	-0.025658	0.484565	-0.354817	-0.645784	-0.471450	107.950016	-73.822943	179.717597
49923		21.919015	-19.417429	-5.283863	-22.711821	-10.872087	6.037769	-1.549597	-0.250781	-3.952973	-0.866699	0.182373	-0.545898	0.215355	-0.198856	-0.051038	0.471577	-0.346316	-0.649606	-0.485481	105.413779	-71.611381	-178.556620
49924		19.534847	-21.607805	-6.377171	-24.249910	-12.531088	2.186933	-0.919633	-0.270385	-3.537710	-0.870117	0.151367	-0.543457	0.191568	-0.219778	-0.062506	0.460876	-0.336791	-0.654131	-0.496264	103.706150	-69.589929	-177.235191
49925		15.749544	-20.476569	-5.727711	-22.453149	-11.525195	-1.867573	-0.227384	-0.254006	-2.864365	-0.867188	0.133545	-0.541016	0.154613	-0.207059	-0.056845	0.452505	-0.328539	-0.658908	-0.503132	102.965210	-67.958885	-176.580260
49926		15.067987	-24.534455	-3.655035	-26.514026	-10.638395	-4.698680	0.154833	-0.160514	-1.765247	-0.866455	0.120361	-0.538818	0.148536	-0.246634	-0.036621	0.447523	-0.324184	-0.662200	-0.506081	102.922378	-67.047328	-176.528036
49927		13.608827	-25.765537	-1.409181	-27.627520	-8.940696	-7.015012	0.895820	-0.050682	-0.525355	-0.864258	0.118164	-0.543213	0.135415	-0.257945	-0.015212	0.447470	-0.320561	-0.665424	-0.504204	103.341121	-66.747063	-176.425362
49928		12.970321	-21.186473	-0.801835	-23.457789	-7.163521	-5.794240	1.226796	0.046942	0.443157	-0.864502	0.126953	-0.545410	0.130170	-0.211522	-0.009347	0.450420	-0.321923	-0.666969	-0.498638	104.491971	-67.202264	-177.075756
49929		18.084144	-12.984491	-2.754762	-17.552934	-6.851531	2.359692	0.962160	-0.037782	1.002859	-0.860596	0.138184	-0.538818	0.181494	-0.128802	-0.028135	0.454330	-0.323184	-0.667824	-0.493100	105.451101	-67.751262	-177.517366
49930		16.363792	-10.649669	-0.953776	-15.174428	-4.259401	1.749512	-0.158002	-0.119415	1.640249	-0.865479	0.149170	-0.539063	0.164510	-0.105157	-0.009356	0.457481	-0.332614	-0.664069	-0.488969	106.655643	-68.887458	-179.104330
49931		16.659792	-0.839105	-10.949133	-3.466244	-10.711875	6.660338	0.159182	-0.134021	2.561947	-0.859863	0.178223	-0.547852	0.166760	-0.006168	-0.109385	0.463525	-0.341054	-0.660451	-0.482320	108.121202	-70.264961	179.429161
49932		13.503575	31.290106	5.932639	22.170474	15.316684	11.876796	1.351485	0.422732	2.129988	-0.866699	0.182373	-0.552490	0.131824	0.313907	0.061164	0.471718	-0.347631	-0.657985	-0.472959	110.071878	-71.731456	177.940493
49933		10.385006	11.561186	12.125035	3.841827	15.229488	2.095976	-0.942845	-0.016131	1.844333	-0.870361	0.215576	-0.550293	0.102765	0.117133	0.120709	0.474361	-0.355940	-0.652553	-0.471660	110.706384	-72.718386	176.706840
49934		17.275230	-11.841901	5.188015	-17.186743	1.979956	3.080171	-2.926801	-0.446408	2.498933	-0.864014	0.224609	-0.539551	0.174088	-0.115470	0.053972	0.474069	-0.373063	-0.641534	-0.473832	111.759743	-74.112560	173.833304
49935		15.683552	-7.423448	-1.477326	-10.654973	-2.796044	3.674125	-2.249515	-0.658425	2.776907	-0.858398	0.253418	-0.537354	0.157893	-0.072203	-0.013435	0.474260	-0.388798	-0.632481	-0.473162	114.020791	-75.431824	170.154365
49936		14.337309	-2.706195	0.985910	-6.117247	0.985048	3.433050	-0.881527	-0.311116	2.645410	-0.864014	0.284424	-0.526611	0.143698	-0.025118	0.010196	0.478621	-0.400916	-0.625219	-0.468283	117.101607	-76.898649	166.462285
49937		15.614978	-10.276229	-1.486065	-12.691554	-2.987597	3.663614	-0.153537	-0.265971	2.903394	-0.853516	0.304688	-0.537842	0.157639	-0.100492	-0.014574	0.484227	-0.410938	-0.619611	-0.461235	121.306033	-78.277020	162.067497
49938		17.002870	-8.890307	-6.696179	-10.059221	-7.412729	6.212619	-0.009869	-0.535074	2.839734	-0.854492	0.326660	-0.522461	0.171446	-0.086479	-0.066500	0.489927	-0.421892	-0.614229	-0.452440	127.818647	-79.614096	155.433086
49939		15.028005	-3.632601	-4.073755	-4.868392	-3.589373	4.986984	0.372679	-0.491147	2.775882	-0.850830	0.351074	-0.524902	0.150864	-0.034159	-0.040433	0.495433	-0.430570	-0.610358	-0.443416	135.300220	-80.619305	148.056082
49940		7.068508	-0.425731	-0.006273	-1.281231	0.546006	-2.869869	0.684445	-0.384916	2.511946	-0.847412	0.375732	-0.527100	0.070731	-0.003369	0.000061	0.501717	-0.438755	-0.606505	-0.433503	144.663588	-81.490721	138.925367
49941		7.055429	-0.292130	-1.348363	-0.697105	-0.658235	-2.687972	0.241579	-0.333903	1.943884	-0.843262	0.386719	-0.520752	0.070601	-0.002219	-0.013369	0.505422	-0.444744	-0.603573	-0.427143	151.992429	-81.913385	131.659057
49942		10.975372	-1.513923	-2.037593	-1.896850	-1.127443	1.234019	0.072716	-0.183373	1.864161	-0.839355	0.400146	-0.527344	0.109907	-0.014108	-0.020280	0.509401	-0.451740	-0.599244	-0.421128	160.601010	-82.303380	122.970297
49943		9.693759	-0.377838	-2.077846	-0.519343	-0.975624	0.046591	0.053391	-0.216590	1.659824	-0.842041	0.411133	-0.522949	0.096987	-0.002968	-0.020674	0.512348	-0.457015	-0.596139	-0.416238	167.719408	-82.443803	115.819341
49944		9.818167	-0.129943	-2.863146	0.061116	-1.590083	0.290631	-0.038888	-0.274560	1.465989	-0.833740	0.427002	-0.518799	0.098227	-0.000585	-0.028496	0.514774	-0.463154	-0.592673	-0.411381	175.311406	-82.415503	108.093309
49945		10.190349	-0.332232	-2.143805	-0.184705	-0.837930	0.570547	0.043639	-0.238424	1.360293	-0.831787	0.435791	-0.523193	0.101948	-0.002624	-0.021317	0.516953	-0.467551	-0.590213	-0.407190	-178.825326	-82.302756	102.202775
49946		9.628391	0.290585	-1.414024	0.407034	0.002266	-0.085253	-0.009960	-0.336251	1.169029	-0.825439	0.447021	-0.518799	0.096288	0.003468	-0.013979	0.518469	-0.472772	-0.587651	-0.402917	-173.090489	-82.027274	96.354859
49947		9.962364	1.539929	-1.891814	1.825379	-0.070790	0.279934	-0.030767	-0.346388	1.058538	-0.825439	0.444824	-0.518799	0.099573	0.015923	-0.018748	0.519502	-0.476651	-0.585977	-0.399440	-169.123524	-81.737363	92.329923
49948		9.871587	1.068207	-1.956626	1.490033	-0.194665	0.195249	0.001033	-0.281004	0.961078	-0.828125	0.455811	-0.516602	0.098690	0.011156	-0.019428	0.520707	-0.480940	-0.583832	-0.395855	-165.014986	-81.407416	88.129103
49949		9.823553	1.767418	-2.153494	2.297059	-0.190541	0.134676	0.048145	-0.242163	0.856128	-0.823730	0.462646	-0.514404	0.098185	0.018100	-0.021412	0.521804	-0.483787	-0.582494	-0.392901	-162.179079	-81.135848	85.287839
49950		9.739799	1.884387	-2.373892	2.547809	-0.346479	0.058385	-0.002842	-0.202337	0.777423	-0.819580	0.469238	-0.514648	0.097348	0.019222	-0.023641	0.522771	-0.487265	-0.580634	-0.390062	-159.253115	-80.824099	82.276096
49951		9.444482	1.724249	-2.387823	2.452264	-0.411508	-0.237215	-0.120414	-0.176709	0.700923	-0.822021	0.471436	-0.516846	0.094405	0.017559	-0.023805	0.523327	-0.489954	-0.579150	-0.388148	-157.273773	-80.581438	80.200449
49952		9.925849	0.488671	-2.238070	1.298351	-0.426659	0.281972	-0.221217	-0.148136	0.682289	-0.824463	0.478027	-0.516846	0.099258	0.005201	-0.022313	0.523624	-0.493532	-0.577009	-0.386399	-155.128843	-80.289483	77.845788
49953		10.110303	-0.248336	-1.972620	0.587175	-0.272852	0.470870	-0.163368	-0.103169	0.672628	-0.822510	0.484619	-0.508057	0.101121	-0.002159	-0.019672	0.524219	-0.496095	-0.575301	-0.384854	-153.366775	-80.068935	75.962472
49954		9.803936	0.037652	-1.338844	0.782559	0.376035	0.044136	-0.014223	-0.083290	0.631198	-0.820313	0.489258	-0.512451	0.098043	0.000685	-0.013348	0.525063	-0.498785	-0.573545	-0.382842	-151.439502	-79.803601	73.945811
49955		9.688650	-0.218505	-0.880857	0.483438	0.764075	-0.123736	0.089507	-0.076634	0.598302	-0.824951	0.491455	-0.512451	0.096896	-0.001891	-0.008772	0.526209	-0.500409	-0.572424	-0.380824	-149.863398	-79.597468	72.395969
49956		10.014149	-0.829300	-0.657091	-0.077763	0.932546	0.213614	0.239791	-0.072143	0.568131	-0.820557	0.493652	-0.508057	0.100167	-0.008001	-0.006544	0.527630	-0.502084	-0.571328	-0.378290	-148.140617	-79.347193	70.744226
49957		10.203462	-1.049416	-0.006769	-0.372226	1.560282	0.318389	0.409112	-0.046332	0.505439	-0.820801	0.498047	-0.512451	0.102061	-0.010236	-0.000065	0.529477	-0.502533	-0.570952	-0.375671	-146.696227	-79.169045	69.512609
49958		10.472956	-0.681252	0.561742	-0.069867	2.246460	0.454291	0.531342	-0.019571	0.447604	-0.823242	0.502441	-0.516846	0.104744	-0.006593	0.005610	0.531648	-0.502808	-0.570616	-0.372735	-145.138000	-78.980551	68.216875
49959		10.355191	0.081716	0.750074	0.656060	2.579447	0.223010	0.466309	0.002279	0.357338	-0.825195	0.500244	-0.516846	0.103550	0.000985	0.007502	0.533490	-0.502581	-0.570579	-0.370460	-144.015699	-78.863124	67.345460
49960		10.360594	0.223491	0.500052	0.891171	2.381650	0.245910	0.406661	-0.038191	0.330863	-0.821289	0.513672	-0.510498	0.103601	0.002396	0.005025	0.535233	-0.502619	-0.570434	-0.368110	-142.886301	-78.715617	66.444360
49961		10.269427	-0.123839	-0.655576	0.857801	1.193321	0.372905	0.388652	-0.063010	0.327572	-0.825684	0.511230	-0.514893	0.102698	-0.001057	-0.006526	0.536630	-0.502627	-0.570493	-0.365967	-142.032911	-78.572812	65.801006
49962		10.408215	-0.618271	-1.361683	0.608318	0.441988	0.675487	0.465395	-0.047914	0.366923	-0.826172	0.524658	-0.512695	0.104096	-0.005960	-0.013606	0.538637	-0.502446	-0.570454	-0.363321	-140.857559	-78.416161	64.905706
49963		10.224335	0.133967	-1.343487	1.358557	0.614258	0.392053	0.568521	-0.039573	0.414181	-0.828613	0.529053	-0.517090	0.102243	0.001590	-0.013410	0.540700	-0.502163	-0.570549	-0.360483	-139.718680	-78.247279	64.075358
49964		9.883591	0.933863	-1.454727	2.179075	0.653768	-0.040397	0.591979	-0.082453	0.462274	-0.831055	0.531250	-0.519287	0.098820	0.009610	-0.014478	0.543069	-0.501918	-0.570612	-0.357149	-138.417955	-78.037477	63.126454
49965		9.914542	0.894991	-1.756578	2.273107	0.390792	0.029298	0.583086	-0.130986	0.484226	-0.824707	0.540283	-0.512695	0.099135	0.009241	-0.017474	0.545019	-0.501946	-0.570790	-0.353841	-137.358158	-77.795941	62.384249
49966		10.268428	0.953708	-1.742786	2.419188	0.516356	0.349396	0.606806	-0.136649	0.568980	-0.825195	0.551270	-0.510742	0.102668	0.009882	-0.017328	0.547398	-0.502003	-0.570786	-0.350074	-136.059703	-77.519717	61.443540
49967		10.067454	2.068205	-1.932014	3.577853	0.619931	-0.005657	0.552676	-0.206266	0.655926	-0.821045	0.562500	-0.510742	0.100626	0.021065	-0.019158	0.549338	-0.502718	-0.570667	-0.346182	-134.918902	-77.172160	60.598839
49968		10.172543	1.995438	-2.286750	3.686650	0.334744	0.136558	0.374273	-0.262421	0.747698	-0.821289	0.569092	-0.510742	0.101680	0.020377	-0.022696	0.551009	-0.504080	-0.570187	-0.342314	-133.810186	-76.771189	59.711631
49969		10.548274	1.335828	-2.071766	3.116674	0.495633	0.549869	0.357119	-0.259851	0.836952	-0.819336	0.577881	-0.506348	0.105452	0.013836	-0.020556	0.552594	-0.505921	-0.569399	-0.338333	-132.685962	-76.320071	58.766030
49970		10.658953	1.286982	-1.861471	3.108134	0.757167	0.603638	0.363056	-0.249959	0.930297	-0.812988	0.586914	-0.504395	0.106551	0.013399	-0.018458	0.554488	-0.507766	-0.568430	-0.334072	-131.447402	-75.844671	57.730527
49971		11.104568	0.888599	-1.938439	2.908210	0.729865	1.089924	0.366762	-0.241756	1.011511	-0.804688	0.600342	-0.495605	0.111022	0.009483	-0.019233	0.556413	-0.510019	-0.567137	-0.329608	-130.172305	-75.315671	56.630892
49972		11.514053	0.855735	-1.535517	2.922297	1.244525	1.393262	0.413537	-0.213376	1.106323	-0.798340	0.615967	-0.500000	0.115107	0.009226	-0.015214	0.558765	-0.512080	-0.565721	-0.324831	-128.786255	-74.772249	55.468511
49973		11.668032	1.164300	-1.602589	3.379344	1.357609	1.447947	0.409902	-0.188848	1.213200	-0.792236	0.627197	-0.497803	0.116622	0.012383	-0.015891	0.561239	-0.514662	-0.563797	-0.319793	-127.316923	-74.158360	54.187202
49974		11.410050	1.706524	-1.799106	4.035453	1.319231	1.064391	0.371359	-0.157230	1.329516	-0.783936	0.647217	-0.491455	0.113998	0.017857	-0.017869	0.563957	-0.517243	-0.561608	-0.314657	-125.803576	-73.526993	52.867765
49975		11.357568	1.826565	-2.053107	4.359098	1.160610	0.966680	0.343779	-0.117673	1.414476	-0.773193	0.660889	-0.491455	0.113455	0.019104	-0.020432	0.566726	-0.520415	-0.558808	-0.309392	-124.251082	-72.824815	51.451612
49976		11.700049	1.651668	-2.151592	4.436421	1.154722	1.288232	0.331067	-0.057877	1.510690	-0.767090	0.676514	-0.484863	0.116877	0.017435	-0.021454	0.569815	-0.523326	-0.555829	-0.304130	-122.668470	-72.130404	50.029561
49977		12.153047	1.582887	-2.000870	4.587476	1.437129	1.636841	0.355767	0.018138	1.629333	-0.750000	0.698975	-0.491699	0.121394	0.016854	-0.019990	0.573254	-0.526794	-0.552036	-0.298538	-120.947054	-71.342696	48.431483
49978		12.178876	2.113773	-1.593976	5.131628	2.011186	1.365471	0.372477	0.091113	1.749665	-0.734863	0.712646	-0.498291	0.121590	0.022232	-0.015954	0.577120	-0.529874	-0.548078	-0.292878	-119.188172	-70.559894	46.839119
49979		12.305334	2.170720	-0.930859	5.200100	2.719872	1.257828	0.317777	0.139351	1.877039	-0.726563	0.732666	-0.493896	0.122836	0.022876	-0.009359	0.581065	-0.533871	-0.543144	-0.286949	-117.403234	-69.650929	45.134543
49980		12.658062	1.739487	-0.715665	5.025535	2.929069	1.585714	0.237530	0.211679	1.992577	-0.707031	0.746338	-0.498291	0.126391	0.018663	-0.007269	0.585180	-0.537571	-0.538032	-0.281255	-115.669354	-68.761282	43.484973
49981		12.933086	1.328169	-1.087643	5.086311	2.578677	1.921242	0.229577	0.266659	2.108201	-0.691895	0.764404	-0.496338	0.129167	0.014656	-0.011032	0.589445	-0.542163	-0.531878	-0.275171	-113.920894	-67.728945	41.744097
49982		13.374232	0.984289	-1.297065	5.214613	2.433852	2.369168	0.364291	0.342993	2.228684	-0.670166	0.782715	-0.500732	0.133599	0.011356	-0.013180	0.594505	-0.545636	-0.525945	-0.268751	-112.103706	-66.727230	40.081460
49983		13.906849	2.042199	-1.283540	6.603286	2.885879	2.323093	0.537363	0.449229	2.338872	-0.650635	0.800781	-0.502930	0.138788	0.022081	-0.013090	0.600250	-0.549544	-0.518913	-0.261593	-110.160062	-65.570210	38.293033
49984		15.073131	4.055327	-2.035987	9.295125	3.024149	2.525557	0.679768	0.601075	2.402471	-0.639893	0.816650	-0.518311	0.150167	0.042429	-0.020670	0.606929	-0.551875	-0.512162	-0.254483	-108.099538	-64.498895	36.550467
49985		16.282796	4.193445	-2.529886	10.336241	2.918772	3.368394	0.892067	0.726206	2.461825	-0.613525	0.832764	-0.524902	0.162202	0.044048	-0.025695	0.614326	-0.554496	-0.504254	-0.246710	-105.934630	-63.272056	34.708763
49986		15.800519	4.573548	-2.082370	10.643113	3.326995	2.457125	1.386208	0.810903	2.517472	-0.600342	0.842041	-0.544678	0.157326	0.047864	-0.021136	0.623368	-0.554326	-0.497471	-0.238031	-103.553378	-62.141901	33.037986
49987		15.620490	5.527783	-0.921841	11.291487	4.648594	1.424832	2.006569	0.969782	2.586711	-0.576416	0.860352	-0.560059	0.155426	0.057385	-0.009405	0.634328	-0.553269	-0.489596	-0.227633	-100.828400	-60.810781	31.245233
49988		15.702267	8.208796	0.036442	13.426630	6.400504	-0.185202	2.589314	1.149415	2.587550	-0.561035	0.871826	-0.584229	0.155946	0.084104	0.000546	0.647235	-0.548547	-0.482973	-0.216608	-97.769373	-59.636321	29.573096
49989		16.705348	11.936127	0.365068	16.958689	8.220043	-1.659160	2.822313	1.306777	2.755839	-0.534424	0.883545	-0.606201	0.165415	0.121591	0.004272	0.660975	-0.544534	-0.474140	-0.204415	-94.635832	-58.147728	27.802178
49990		17.444965	14.610086	-0.470484	19.864670	8.708411	-2.919483	2.108257	1.319643	3.159990	-0.514648	0.892822	-0.625977	0.172083	0.148879	-0.004286	0.673123	-0.541679	-0.465058	-0.192900	-92.019783	-56.622240	26.343591
49991		19.368309	8.612535	0.120370	16.300695	7.752327	1.298487	0.974833	1.389495	3.639885	-0.490723	0.913330	-0.632568	0.192077	0.089628	0.000297	0.682368	-0.545411	-0.451372	-0.182111	-90.239018	-54.553092	24.862363
49992		21.144114	6.079522	-0.169725	15.918060	7.054567	3.635010	0.547154	1.654359	3.928798	-0.461914	0.929443	-0.650146	0.210170	0.064940	-0.003265	0.691298	-0.548374	-0.437831	-0.172330	-88.568112	-52.593469	23.469286
49993		22.251597	5.433409	-3.387172	18.039431	4.093157	4.110793	-0.148441	1.685934	4.176154	-0.431152	0.943359	-0.647949	0.221021	0.058934	-0.035782	0.698003	-0.556436	-0.420317	-0.162803	-87.545928	-50.169629	22.052388
49994		21.538978	2.319961	-4.441203	16.444665	1.881260	4.849762	-0.606091	1.504449	4.338209	-0.398193	0.961914	-0.652344	0.214479	0.027721	-0.046107	0.703127	-0.563703	-0.405295	-0.153581	-86.920590	-47.995877	21.104969
49995		19.641006	3.517106	-5.353014	16.990849	0.922929	1.900370	-0.944687	1.058184	4.167485	-0.378662	0.977783	-0.643555	0.195337	0.038992	-0.054744	0.705637	-0.574518	-0.389009	-0.143795	-86.953197	-45.579594	20.406986
49996		17.243081	5.967139	-5.749846	17.478007	0.690338	-2.066777	-1.526890	0.644477	3.739599	-0.354492	0.993652	-0.636963	0.171093	0.062435	-0.058521	0.705189	-0.584184	-0.377988	-0.136248	-87.481511	-43.811890	20.224976
49997		13.699092	6.370839	-4.974307	15.237895	0.540966	-5.285668	-1.750171	0.318083	3.211770	-0.336670	0.993896	-0.619385	0.135869	0.065456	-0.050527	0.702746	-0.596107	-0.366232	-0.129142	-88.376937	-41.966927	20.067012
49998		8.958541	5.606186	-3.134449	10.860949	0.786726	-8.102624	-1.417618	0.340981	2.613061	-0.321289	1.007324	-0.608398	0.088791	0.057001	-0.031898	0.700720	-0.603377	-0.359648	-0.124823	-89.000972	-40.893557	20.042933
49999		4.034732	-2.524781	-4.204845	2.846017	-3.488768	-5.333564	-0.554247	0.600998	2.191959	-0.305908	1.016602	-0.619385	0.040495	-0.024921	-0.042101	0.701448	-0.608842	-0.350562	-0.119950	-89.045083	-39.632664	19.619687
50000		11.340949	-7.915104	-3.738749	4.865283	-2.424964	3.441944	0.647878	0.584748	1.939211	-0.301514	1.019043	-0.628174	0.114059	-0.077925	-0.037974	0.705392	-0.607659	-0.346256	-0.115239	-88.400115	-38.942819	19.391188
50001		10.851662	1.951015	-4.338224	10.649857	-0.795257	-4.681337	0.973677	0.298530	1.190788	-0.299316	1.019043	-0.641357	0.108332	0.020367	-0.043446	0.709530	-0.606094	-0.342139	-0.110263	-87.724207	-38.255948	19.201836
50002		3.996102	6.889001	-4.445937	8.480121	-1.403187	-12.864113	1.176408	0.319706	0.412866	-0.308594	1.025635	-0.647949	0.039748	0.069232	-0.044116	0.713481	-0.600762	-0.343601	-0.109397	-86.922601	-38.443970	19.135364
50003		0.947667	9.849377	-2.858574	7.332613	0.129809	-17.044210	0.919932	0.248283	-0.379088	-0.312500	1.012207	-0.654541	0.009628	0.098606	-0.028144	0.716453	-0.596683	-0.344357	-0.109920	-86.272110	-38.653232	18.937142
50004		-0.370626	7.962837	-2.593168	5.271798	-0.354482	-16.320407	0.386645	0.013862	-1.106870	-0.325928	1.012207	-0.669922	-0.003267	0.079697	-0.025777	0.716473	-0.591812	-0.350983	-0.115050	-86.038141	-39.725879	19.013637
50005		-0.232397	5.403848	-2.233245	3.818766	-0.638919	-14.200293	0.228284	-0.089962	-1.624877	-0.350342	1.007324	-0.676514	-0.001875	0.054080	-0.022272	0.716030	-0.588172	-0.356237	-0.120207	-85.895473	-40.659169	18.995042
50006		0.384886	4.577247	-1.802931	3.703074	-0.271272	-13.062725	0.183475	-0.184194	-2.045121	-0.365479	0.993652	-0.676514	0.004333	0.045746	-0.017983	0.714313	-0.582446	-0.366063	-0.128497	-85.853088	-42.272183	19.159161
50007		0.804208	4.480341	-1.519809	3.895965	0.095152	-12.612911	0.116487	-0.284195	-2.518332	-0.394531	0.984131	-0.667725	0.008627	0.044706	-0.015160	0.712455	-0.577553	-0.374463	-0.136448	-85.840348	-43.724171	19.238134
50008		1.302089	4.530608	-1.044642	4.171123	0.708965	-12.138732	0.088799	-0.343122	-2.997273	-0.418701	0.972656	-0.676514	0.013716	0.045109	-0.010403	0.709169	-0.570283	-0.387312	-0.147802	-85.919666	-45.882812	19.478111
50009		1.996690	4.361903	-0.439783	4.343303	1.404184	-11.351543	0.125483	-0.353872	-3.418702	-0.445068	0.958740	-0.680908	0.020716	0.043272	-0.004334	0.706208	-0.563392	-0.398355	-0.158658	-85.914789	-47.852236	19.569727
50010		2.735211	4.275571	0.450760	4.446163	2.393863	-10.493168	0.142859	-0.341163	-3.791131	-0.479980	0.931641	-0.676514	0.028148	0.042224	0.004585	0.701942	-0.553877	-0.413178	-0.172573	-85.945575	-50.463776	19.780742
50011		3.244143	4.053261	1.077283	4.359769	3.015897	-9.729441	0.013466	-0.359415	-4.153621	-0.512939	0.910889	-0.676514	0.033254	0.039847	0.010835	0.697498	-0.545436	-0.425869	-0.186098	-85.985894	-52.853505	19.841756
50012		3.830153	3.879474	1.386141	4.411794	3.362048	-8.880130	-0.076344	-0.344033	-4.485347	-0.539063	0.888184	-0.672119	0.039135	0.037929	0.013914	0.691341	-0.534440	-0.442008	-0.202608	-86.116495	-55.865286	20.042425
50013		4.629399	3.743323	1.219582	4.735845	3.289498	-7.895539	-0.157319	-0.316460	-4.826856	-0.573730	0.858643	-0.669678	0.047160	0.036312	0.012241	0.685126	-0.524477	-0.455716	-0.218743	-86.199799	-58.638197	20.034065
50014		5.954467	3.722147	1.191662	5.225063	3.446208	-6.415372	-0.166952	-0.285493	-5.156769	-0.612793	0.822510	-0.667480	0.060461	0.035680	0.011972	0.677313	-0.511213	-0.472743	-0.237534	-86.288808	-62.037052	20.156408
50015		7.179602	3.709650	0.804645	5.707696	3.199970	-5.004171	-0.266290	-0.323734	-5.494831	-0.647461	0.790771	-0.665283	0.072766	0.035117	0.008116	0.669081	-0.499313	-0.487393	-0.255861	-86.410435	-65.192279	20.121615
50016		8.346819	3.081461	0.424175	5.445746	2.666777	-3.289298	-0.331339	-0.369726	-5.824513	-0.672852	0.750244	-0.658447	0.084310	0.028374	0.004349	0.658744	-0.483920	-0.505342	-0.276598	-86.658634	-68.984823	20.344047
50017		9.755919	2.690409	0.412669	5.174874	2.525140	-1.482087	-0.351744	-0.441756	-6.131810	-0.702881	0.709717	-0.651611	0.098313	0.023905	0.004300	0.647981	-0.469963	-0.520911	-0.296491	-87.030005	-72.508308	20.523572
50018		11.806900	2.435816	0.364219	4.899425	2.387296	0.944463	-0.404483	-0.558379	-6.354223	-0.732422	0.664795	-0.642822	0.118753	0.020600	0.003929	0.634895	-0.452456	-0.539457	-0.318085	-87.886163	-76.614932	21.345066
50019		14.135973	1.692299	0.495562	3.943659	2.168421	3.700614	-0.438980	-0.657820	-6.491085	-0.757813	0.619873	-0.635986	0.141793	0.012337	0.005391	0.621461	-0.437141	-0.555247	-0.338224	-89.584148	-80.343488	22.820174
50020		16.006840	1.712787	0.475455	3.219621	1.965162	5.841576	-0.593286	-0.793388	-6.608013	-0.776123	0.572754	-0.622559	0.160498	0.011844	0.005350	0.605447	-0.418631	-0.573320	-0.359841	-94.786098	-84.569443	27.903601
50021		18.273788	0.864488	0.701358	1.453244	1.629269	8.360844	-1.037052	-0.925533	-6.730051	-0.801025	0.519043	-0.611328	0.182857	0.002531	0.007836	0.588154	-0.403891	-0.588008	-0.381044	-123.351838	-88.148664	55.915904
50022		21.081706	-0.867515	0.405027	-1.432711	0.379668	11.234520	-1.576926	-1.028544	-6.775530	-0.826172	0.469727	-0.591309	0.210338	-0.015769	0.005239	0.567664	-0.387025	-0.603549	-0.404596	119.856659	-86.761967	172.034010
50023		23.663131	-2.396136	-0.442160	-4.164682	-1.268674	13.569081	-2.042883	-1.078018	-6.668272	-0.840088	0.420410	-0.577881	0.235675	-0.031865	-0.002851	0.546611	-0.374633	-0.615008	-0.427355	107.752301	-82.998149	-176.995164
50024		26.274157	-7.526133	-1.456046	-10.691124	-4.365053	14.995453	-2.765246	-1.044330	-6.544448	-0.845215	0.378174	-0.560059	0.260156	-0.083982	-0.012076	0.522918	-0.360865	-0.625600	-0.452724	102.871331	-78.818642	-173.497429
50025		29.239843	-13.367030	0.156359	-18.889811	-4.966691	15.717921	-2.105213	-0.641194	-6.356375	-0.861084	0.326660	-0.548828	0.287945	-0.142837	0.003963	0.502424	-0.347726	-0.633630	-0.474521	100.083158	-75.174128	-171.875330
50026		26.855220	-14.789401	-0.276374	-21.019994	-5.986836	11.682768	-1.055077	-0.271348	-5.801679	-0.861572	0.280029	-0.541992	0.264115	-0.155610	-0.001596	0.484906	-0.329952	-0.642840	-0.492701	98.030360	-71.544445	-170.249335
50027		24.280460	-18.429542	-3.630086	-23.561019	-10.305938	6.945014	-0.772906	-0.151961	-5.133550	-0.866699	0.239990	-0.541748	0.237993	-0.190584	-0.035390	0.470324	-0.315579	-0.649561	-0.507223	96.778512	-68.614254	-169.389514
50028		23.134441	-19.624656	-6.479609	-24.155607	-13.482581	4.219206	-0.310321	-0.089147	-4.337745	-0.867676	0.208984	-0.537109	0.227044	-0.201302	-0.064384	0.457733	-0.300859	-0.656383	-0.518773	96.011006	-65.930575	-168.693345
50029		19.420718	-21.072815	-8.111501	-23.916179	-15.282720	-0.791452	-0.085704	-0.056689	-3.747349	-0.868896	0.177979	-0.541504	0.190236	-0.214352	-0.080969	0.447608	-0.288840	-0.661816	-0.527464	95.568442	-63.788984	-168.259099
50030		19.064482	-22.072911	-8.802490	-24.648167	-16.344297	-2.504138	0.749372	0.009728	-3.199245	-0.868164	0.160156	-0.536865	0.187081	-0.223409	-0.088868	0.439411	-0.276386	-0.668644	-0.532394	95.715645	-61.873884	-167.967758
50031		15.671356	-21.074622	-7.468994	-22.641443	-14.726675	-5.816270	1.328009	-0.017870	-2.468920	-0.866943	0.131348	-0.538818	0.154107	-0.212157	-0.076082	0.434560	-0.265223	-0.675569	-0.533312	96.227050	-60.463711	-167.683264
50032		14.291558	-23.981519	-4.341674	-25.230765	-12.689146	-9.046348	1.389163	-0.079499	-1.359099	-0.866699	0.122559	-0.536621	0.141301	-0.240470	-0.045029	0.431582	-0.258952	-0.681316	-0.531497	97.114419	-59.695082	-167.883798
50033		13.963126	-24.207351	-0.813395	-26.214181	-9.717508	-9.830497	1.628578	-0.032607	-0.135334	-0.866943	0.131348	-0.538818	0.139469	-0.242091	-0.010082	0.433195	-0.255042	-0.685871	-0.526191	98.060928	-59.613560	-167.899654
50034		17.402951	-17.306017	0.127312	-22.543449	-7.219412	-3.328777	1.571100	-0.024733	0.787505	-0.867188	0.133545	-0.534424	0.174709	-0.172376	-0.000061	0.436486	-0.256340	-0.688867	-0.518877	99.308468	-60.155374	-168.431713
50035		17.642200	-7.087470	2.932440	-15.254107	-1.360284	1.829423	1.009172	-0.051242	0.834446	-0.862793	0.142578	-0.545410	0.176709	-0.070285	0.029014	0.439747	-0.257127	-0.690516	-0.513513	100.078367	-60.619548	-168.652514
50036		14.491596	-8.283317	-3.870512	-12.261455	-7.715891	-0.663252	-0.325740	-0.147367	2.117720	-0.870361	0.160156	-0.545654	0.145811	-0.081355	-0.038465	0.443876	-0.267630	-0.686878	-0.509457	100.640918	-61.941680	-169.636845
50037		15.003434	28.658915	4.010960	15.394388	12.368611	16.120200	1.187349	0.380602	2.057833	-0.861816	0.173584	-0.547852	0.147155	0.287869	0.041534	0.451971	-0.271061	-0.686259	-0.501295	101.340884	-63.138562	-169.659292
50038		8.806863	24.483905	12.357304	12.228947	19.402419	7.614588	-0.298940	0.097929	1.555792	-0.862549	0.191406	-0.550293	0.086220	0.245699	0.123164	0.455551	-0.278495	-0.682820	-0.498669	101.587085	-64.141258	-170.229720
50039		14.041359	-4.075632	9.155973	-12.407901	6.265039	0.403509	-2.766721	-0.342757	1.909635	-0.867920	0.213379	-0.545898	0.140628	-0.038140	0.092340	0.455214	-0.292120	-0.673950	-0.503227	100.857121	-65.174182	-171.176355
50040		17.108065	-11.061467	0.952030	-16.734768	-3.452502	1.319640	-3.302825	-0.748048	2.684739	-0.857666	0.235840	-0.530762	0.172502	-0.108121	0.011963	0.454757	-0.311290	-0.662932	-0.506770	100.600171	-66.700555	-173.002544
50041		12.631803	-1.885393	-0.349774	-6.384342	-1.397288	1.165331	-1.929948	-0.546365	2.689851	-0.864990	0.248779	-0.528564	0.126565	-0.017183	-0.002981	0.456683	-0.325923	-0.655010	-0.506139	100.925467	-68.154206	-174.552575
50042		13.462998	-4.532466	0.839333	-9.091183	-0.804329	1.104728	-1.185542	-0.355770	2.685289	-0.857178	0.282227	-0.524414	0.135206	-0.043460	0.008895	0.460635	-0.339191	-0.647954	-0.502911	101.624981	-69.736048	-176.066722
50043		15.901901	-9.853120	-6.283498	-12.672709	-8.907846	2.412891	-0.794082	-0.549736	2.888202	-0.846924	0.304688	-0.520264	0.160593	-0.096467	-0.062009	0.464707	-0.351709	-0.642256	-0.497851	103.036719	-71.283633	-178.047020
50044		18.842355	-7.079221	-8.516993	-10.247434	-10.072304	6.655490	-0.840946	-0.786116	2.802572	-0.850098	0.328857	-0.511475	0.189726	-0.068495	-0.084135	0.467888	-0.365659	-0.636488	-0.492197	105.271750	-72.855133	179.049634
50045		15.433159	-2.084105	-3.062587	-5.561427	-3.312399	4.678165	0.077056	-0.516747	3.000303	-0.851074	0.351074	-0.507324	0.154699	-0.018510	-0.030234	0.473704	-0.376246	-0.632333	-0.483940	107.954226	-74.416274	176.299940
50046		5.569642	-0.836485	-0.769680	-2.021589	-0.813885	-4.562749	0.120591	-0.587252	2.622587	-0.840576	0.375732	-0.505127	0.055822	-0.007629	-0.007538	0.478504	-0.386907	-0.628466	-0.475780	111.417320	-75.839178	172.722457
50047		7.362812	-1.697672	-3.446445	-2.517086	-3.489505	-2.709437	-0.181850	-0.506724	2.260389	-0.841309	0.391113	-0.500977	0.073901	-0.016174	-0.034262	0.481896	-0.395615	-0.624837	-0.469941	114.498181	-76.917063	169.445139
50048		10.548834	-1.497841	-3.257920	-2.895823	-3.030165	0.510256	0.205080	-0.234030	2.130445	-0.835205	0.408936	-0.505371	0.105678	-0.013820	-0.032470	0.486623	-0.403501	-0.621089	-0.463286	117.986105	-78.054405	165.927348
50049		8.893151	-0.043438	-3.221036	-1.001226	-2.651903	-0.788976	0.432583	-0.177240	1.856048	-0.831299	0.420166	-0.501221	0.088958	0.000461	-0.032131	0.491213	-0.408595	-0.618755	-0.457058	121.244115	-78.927346	162.855285
50050		9.803035	-0.200921	-2.625677	-1.276303	-1.994260	0.057742	0.621925	-0.106353	1.647255	-0.824951	0.435791	-0.510010	0.098056	-0.001120	-0.026209	0.495913	-0.413553	-0.616519	-0.450498	125.131412	-79.765580	159.194020
50051		10.372767	0.596331	-0.737542	-0.901446	0.118802	0.563490	0.597146	-0.091602	1.479871	-0.822998	0.442627	-0.505615	0.103683	0.006752	-0.007309	0.500174	-0.416818	-0.615018	-0.444794	128.619546	-80.411065	156.000181
50052		9.263424	1.234045	0.361414	-0.242913	1.329069	-0.558616	0.207130	-0.229249	1.294064	-0.816650	0.451660	-0.505615	0.092548	0.012936	0.003733	0.502771	-0.421838	-0.612844	-0.440109	132.884600	-80.949430	151.734585
50053		10.003536	1.363008	-1.093805	0.240838	0.069710	0.339205	-0.165723	-0.327703	1.140500	-0.819092	0.458252	-0.510010	0.099973	0.014191	-0.010786	0.503909	-0.426454	-0.610893	-0.437061	136.576995	-81.280350	147.901033
50054		10.212316	1.033681	-1.402922	0.086680	-0.231429	0.544244	-0.153695	-0.283380	1.051834	-0.817139	0.464844	-0.510010	0.102087	0.010863	-0.013893	0.505028	-0.431572	-0.608572	-0.433973	140.815389	-81.600239	143.472396
50055		10.285823	-0.056421	-0.930659	-0.995941	0.006202	0.467135	-0.100317	-0.229439	0.923773	-0.812988	0.471680	-0.508057	0.102870	-0.000094	-0.009188	0.506104	-0.435120	-0.606939	-0.431455	144.178918	-81.817126	140.015031
50056		10.456285	-0.410224	-1.006883	-1.241980	-0.087907	0.625948	0.031682	-0.166017	0.817878	-0.813477	0.480469	-0.497070	0.104587	-0.003673	-0.009983	0.507451	-0.438684	-0.605233	-0.428652	147.921166	-82.028873	136.206099
50057		10.357307	-0.059477	-0.687205	-0.895708	0.331955	0.523493	0.146084	-0.117436	0.716663	-0.815674	0.484863	-0.505859	0.103578	-0.000219	-0.006811	0.508941	-0.440722	-0.604274	-0.426140	150.788419	-82.179371	133.395668
50058		10.607915	-0.304822	-0.239615	-1.182972	0.763028	0.708538	0.214746	-0.082107	0.631155	-0.811523	0.489258	-0.505859	0.106089	-0.002711	-0.002356	0.510545	-0.442976	-0.603166	-0.423447	154.025001	-82.324384	130.212043
50059		10.834745	-1.167910	-0.591310	-1.889133	0.255197	0.933058	0.359093	-0.067656	0.602746	-0.811523	0.493896	-0.501465	0.108384	-0.011342	-0.005897	0.512402	-0.444009	-0.602766	-0.420682	156.685322	-82.432400	127.735350
50060		10.477207	-1.204303	-1.636251	-1.562988	-0.769708	0.716497	0.575882	-0.062858	0.576604	-0.811768	0.498291	-0.508057	0.104811	-0.011694	-0.016364	0.514767	-0.445037	-0.602495	-0.417080	160.020891	-82.534044	124.669148
50061		9.590667	0.034536	-1.893353	-0.173286	-0.774248	-0.069124	0.736359	-0.053876	0.532979	-0.811768	0.498291	-0.508057	0.095910	0.000671	-0.018906	0.517342	-0.444847	-0.602983	-0.413375	162.724023	-82.601742	122.368353
50062		9.096986	1.314308	-1.799743	1.134428	-0.369449	-0.523020	0.606974	-0.151745	0.465883	-0.809814	0.502686	-0.510254	0.090952	0.013409	-0.017888	0.519251	-0.445593	-0.603251	-0.409773	165.786918	-82.595467	119.597062
50063		9.375275	1.470911	-1.791212	1.309477	-0.254170	-0.247739	0.419571	-0.164614	0.455649	-0.809814	0.502686	-0.510254	0.093734	0.014960	-0.017804	0.520613	-0.446205	-0.603526	-0.406964	168.130336	-82.562052	117.476037
50064		9.498924	1.079271	-1.250364	0.830449	0.207778	-0.209313	0.263953	-0.184222	0.412319	-0.809814	0.504883	-0.510254	0.094978	0.011005	-0.012402	0.521517	-0.447680	-0.603319	-0.404486	170.688032	-82.499079	115.017429
50065		9.362226	1.199437	-1.484480	1.047505	0.031995	-0.315574	0.152770	-0.232094	0.353078	-0.814697	0.513672	-0.508301	0.093618	0.012171	-0.014727	0.521864	-0.448807	-0.603447	-0.402593	172.419383	-82.396945	113.358988
50066		9.364013	1.374536	-1.979921	1.381732	-0.357819	-0.249380	0.146266	-0.228584	0.285827	-0.814453	0.509277	-0.506104	0.093643	0.013894	-0.019682	0.522102	-0.450232	-0.603427	-0.400719	174.242947	-82.279273	111.575176
50067		9.854970	0.135371	-2.197048	0.247136	-0.812750	0.249322	0.178093	-0.208147	0.278820	-0.819336	0.520264	-0.510498	0.098570	0.001511	-0.021867	0.522425	-0.451017	-0.603705	-0.398994	175.575685	-82.174454	110.332828
50068		10.067852	-0.532096	-1.912201	-0.447281	-0.663960	0.417671	0.297731	-0.196711	0.308368	-0.812988	0.531494	-0.499512	0.100705	-0.005137	-0.019031	0.523119	-0.452015	-0.603873	-0.396694	177.431214	-82.062139	108.603839
50069		10.140545	-0.768153	-1.594071	-0.730052	-0.387176	0.447853	0.356442	-0.210892	0.397863	-0.819824	0.531250	-0.501709	0.101437	-0.007451	-0.015847	0.524068	-0.452693	-0.604236	-0.394107	179.270485	-81.947807	106.952512
50070		9.969444	0.011722	-1.479784	0.043662	-0.045740	0.265776	0.375695	-0.206083	0.485853	-0.808594	0.533691	-0.503906	0.099709	0.000387	-0.014695	0.525250	-0.454013	-0.604181	-0.391088	-178.243308	-81.813733	104.631661
50071		10.289512	1.182094	-1.058311	1.086373	0.766190	0.513192	0.344916	-0.202119	0.569397	-0.811279	0.540283	-0.497314	0.102871	0.012132	-0.010458	0.526526	-0.455212	-0.604096	-0.388098	-175.851961	-81.681287	102.414754
50072		10.557713	1.103179	-0.694110	0.965735	1.172263	0.716166	0.245301	-0.195963	0.692305	-0.813965	0.551270	-0.495361	0.105545	0.011406	-0.006824	0.527835	-0.457418	-0.603297	-0.384957	-172.838434	-81.515120	99.486952
50073		10.147469	1.604904	-0.316295	1.418182	1.655895	0.231865	0.176971	-0.183949	0.814218	-0.807617	0.560303	-0.495361	0.101411	0.016465	-0.003055	0.529240	-0.459749	-0.602262	-0.381859	-169.793936	-81.340636	96.510386
50074		10.177953	1.452721	-0.466610	1.401400	1.519024	0.269311	0.074717	-0.155411	0.934948	-0.803711	0.575928	-0.490967	0.101714	0.015005	-0.004581	0.530743	-0.462964	-0.600479	-0.378684	-166.255594	-81.127377	92.955908
50075		10.528352	1.228016	-0.880143	1.395550	1.160137	0.667501	0.036403	-0.138568	1.040487	-0.804199	0.589355	-0.493408	0.105224	0.012829	-0.008726	0.532367	-0.466240	-0.598505	-0.375496	-162.747449	-80.891843	89.425046
50076		10.741024	1.472322	-1.143359	1.818118	1.059592	0.883809	0.020594	-0.111082	1.137742	-0.795410	0.593750	-0.484619	0.107330	0.015335	-0.011372	0.534241	-0.470027	-0.596026	-0.372041	-158.920392	-80.603234	85.546973
50077		10.793896	1.282786	-1.157650	1.758809	1.046565	0.925269	0.001513	-0.121479	1.217538	-0.789307	0.611572	-0.480225	0.107865	0.013485	-0.011511	0.536131	-0.473861	-0.593487	-0.368500	-155.275075	-80.268048	81.850968
50078		11.665171	0.325781	-1.489095	1.095020	0.663680	1.881682	-0.003197	-0.105947	1.305682	-0.780762	0.622803	-0.480225	0.116635	0.004019	-0.014829	0.538234	-0.478108	-0.590537	-0.364668	-151.498649	-79.864987	78.006222
50079		12.223068	-0.141343	-1.694177	0.880410	0.491103	2.486693	0.076709	-0.062357	1.417876	-0.774902	0.645264	-0.478271	0.122242	-0.000540	-0.016904	0.540799	-0.482183	-0.587446	-0.360476	-147.725882	-79.423753	74.215502
50080		12.121728	0.665928	-1.884765	1.878306	0.571355	2.314745	0.181688	-0.022383	1.531541	-0.768555	0.652100	-0.478271	0.121164	0.007604	-0.018827	0.543945	-0.486361	-0.584019	-0.355666	-143.788131	-78.906025	70.305342
50081		11.891694	1.401747	-2.295373	2.868229	0.396732	2.030392	0.223112	0.003434	1.637348	-0.756104	0.678955	-0.480469	0.118796	0.015016	-0.022939	0.547385	-0.490506	-0.580411	-0.350566	-139.993539	-78.329237	66.564887
50082		12.019711	1.494607	-2.318896	3.172181	0.477181	2.094883	0.227072	0.038795	1.746675	-0.751709	0.685547	-0.480469	0.120056	0.016021	-0.023194	0.551107	-0.494976	-0.576319	-0.345161	-136.245353	-77.666202	62.859820
50083		12.383299	1.551750	-1.913693	3.356463	0.996377	2.317969	0.176523	0.074788	1.894507	-0.741211	0.698975	-0.478516	0.123671	0.016706	-0.019169	0.554998	-0.499790	-0.571710	-0.339610	-132.642206	-76.921989	59.269804
50084		12.576278	2.132426	-1.463535	4.032028	1.665705	2.262674	0.100935	0.123329	2.044561	-0.726563	0.728271	-0.469727	0.125527	0.022616	-0.014702	0.559039	-0.505186	-0.566357	-0.333919	-129.155273	-76.075565	55.738188
50085		12.897501	2.154363	-1.480841	4.353836	1.766831	2.479398	0.051745	0.144626	2.164396	-0.706787	0.739746	-0.478516	0.128721	0.022941	-0.014896	0.563154	-0.510893	-0.560546	-0.328077	-125.928091	-75.143615	52.437012
50086		13.560198	1.709896	-1.385577	4.287415	1.923970	3.095863	0.031514	0.172749	2.292569	-0.694092	0.761963	-0.472168	0.135382	0.018654	-0.013970	0.567428	-0.516911	-0.554225	-0.321966	-122.917972	-74.116868	49.332836
50087		14.330416	1.980578	-1.567825	5.041271	2.031766	3.685043	0.100243	0.230330	2.417079	-0.670166	0.782471	-0.474365	0.143033	0.021543	-0.015833	0.572169	-0.522910	-0.547452	-0.315411	-120.031161	-73.005614	46.382830
50088		14.861575	2.233302	-1.801978	5.789722	2.034997	4.023012	0.226961	0.288882	2.533809	-0.655273	0.800537	-0.472168	0.148291	0.024234	-0.018207	0.577484	-0.528625	-0.540378	-0.308316	-117.261784	-71.821128	43.617483
50089		16.183386	2.546306	-2.143541	6.857431	2.123683	5.067812	0.354444	0.347330	2.670486	-0.633545	0.823242	-0.483154	0.161437	0.027659	-0.021668	0.583417	-0.534227	-0.532821	-0.300547	-114.573760	-70.533011	40.992123
50090		16.833725	4.679628	-2.605062	9.524516	2.410791	4.867583	0.582256	0.386292	2.757918	-0.611816	0.841309	-0.491943	0.167619	0.049187	-0.026234	0.590052	-0.539096	-0.525285	-0.292045	-112.003295	-69.191159	38.616886
50091		17.170151	5.136613	-2.869274	10.534685	2.412545	4.768379	0.875528	0.383635	2.850877	-0.589844	0.855225	-0.491943	0.170890	0.053932	-0.028789	0.597510	-0.543373	-0.517696	-0.282345	-109.514998	-67.742925	36.481165
50092		17.461117	5.215798	-2.533102	11.008040	2.901347	4.640357	1.484597	0.434909	2.880579	-0.574951	0.875488	-0.507568	0.173779	0.054853	-0.025309	0.606578	-0.545477	-0.510846	-0.271210	-106.920373	-66.292891	34.596815
50093		18.947369	7.507253	-2.091135	13.813412	4.378251	4.669070	2.440048	0.641979	2.850433	-0.554932	0.882813	-0.535889	0.188309	0.078014	-0.020577	0.618622	-0.544382	-0.504349	-0.258044	-103.791659	-64.816819	32.695772
50094		18.503762	12.627322	-2.475930	18.578910	5.564202	1.666962	3.167337	0.819706	2.937055	-0.535156	0.898682	-0.562256	0.183055	0.129350	-0.023480	0.632832	-0.540458	-0.498185	-0.243392	-100.341146	-63.331934	30.893509
50095		15.952337	15.358292	-2.357996	20.096038	6.229548	-2.518963	2.920658	0.874908	3.205547	-0.513184	0.910400	-0.584229	0.156933	0.156441	-0.022000	0.646645	-0.537999	-0.490196	-0.228289	-97.181474	-61.594583	29.217497
50096		17.233065	9.555444	-0.519890	15.370400	6.620021	0.600819	2.032671	1.047941	3.468496	-0.493652	0.928711	-0.601807	0.170612	0.098576	-0.005104	0.658328	-0.538096	-0.480345	-0.215233	-94.621582	-59.778008	27.645602
50097		20.118905	1.596872	0.857533	10.231754	6.013394	6.532239	1.559078	1.313837	3.695700	-0.460205	0.938232	-0.623779	0.200900	0.019622	0.007398	0.669504	-0.540300	-0.467657	-0.202822	-92.280447	-57.711173	25.952104
50098		19.093006	2.052435	-0.768539	11.359505	4.441996	5.037384	1.337451	1.486331	3.820503	-0.433838	0.952148	-0.636963	0.190428	0.024222	-0.008948	0.680162	-0.542454	-0.454460	-0.191285	-90.160402	-55.663525	24.380409
50099		17.665624	2.429644	-0.940725	11.566169	4.064082	3.169056	0.759726	1.524671	3.759092	-0.409668	0.968262	-0.654541	0.176080	0.027649	-0.010650	0.689133	-0.546832	-0.439718	-0.180881	-88.531382	-53.501473	22.915685
50100		16.861935	2.784547	-2.122658	12.331167	2.898099	1.853209	0.081663	1.238080	3.523867	-0.385254	0.975342	-0.652344	0.167958	0.030818	-0.022256	0.695005	-0.552335	-0.426826	-0.172374	-87.647936	-51.601508	21.922582
50101		15.496987	3.285145	-2.156347	12.297158	2.705152	0.038122	-0.399250	0.840672	3.160401	-0.361084	0.989258	-0.654541	0.154333	0.035250	-0.022282	0.698322	-0.559662	-0.414784	-0.164554	-87.385042	-49.773327	21.286870
50102		13.832798	3.059010	-2.535957	11.541385	1.898610	-1.427361	-0.653842	0.554854	2.787934	-0.350098	0.998291	-0.652344	0.137813	0.032430	-0.025846	0.699706	-0.566427	-0.405618	-0.158258	-87.477099	-48.323428	20.976984
50103		8.371137	3.143365	-3.349665	8.683843	-0.126518	-5.844322	-0.157635	0.491862	2.341559	-0.332275	1.003174	-0.661133	0.083253	0.032384	-0.033727	0.702056	-0.571292	-0.397121	-0.151779	-87.325537	-46.972265	20.649357
50104		4.828048	-3.762369	-3.520999	1.971368	-3.221162	-3.846156	0.301867	0.609430	1.911200	-0.321045	1.005615	-0.665527	0.048529	-0.037107	-0.035414	0.705349	-0.572765	-0.390979	-0.146828	-86.849705	-46.033746	20.290612
50105		11.005976	-2.035239	-1.937103	6.658933	0.243125	-0.613660	0.859494	0.578445	1.542671	-0.321289	1.010010	-0.676514	0.110155	-0.019419	-0.019774	0.710040	-0.572295	-0.385145	-0.141370	-86.075497	-45.133017	19.895810
50106		7.275844	5.718894	-2.377836	9.410257	1.320540	-8.812553	0.605573	0.242250	0.832254	-0.314453	1.010254	-0.685303	0.072491	0.057563	-0.023692	0.712581	-0.570872	-0.383568	-0.138598	-85.636898	-44.820693	19.811891
50107		-0.881594	8.466199	-2.321891	5.696108	0.287331	-16.544452	0.244311	0.049312	-0.171956	-0.321045	1.003418	-0.687256	-0.008749	0.084698	-0.023113	0.713249	-0.569632	-0.384062	-0.138896	-85.461448	-44.918721	19.761232
50108		-1.471512	9.356390	-0.990437	5.403279	1.682748	-17.471721	-0.004485	-0.029814	-0.796115	-0.334717	1.007568	-0.689697	-0.014341	0.093621	-0.009909	0.712346	-0.567425	-0.387718	-0.142364	-85.461408	-45.556423	19.799182
50109		-0.397733	6.816201	-1.145416	4.605702	0.995960	-14.884714	-0.587499	-0.269397	-1.337180	-0.350098	0.998291	-0.680908	-0.003506	0.068152	-0.011659	0.709181	-0.567096	-0.392053	-0.147511	-85.897642	-46.334091	19.937403
50110		0.825329	3.363511	-2.142962	3.589910	-0.725783	-11.593691	-0.772478	-0.438955	-1.675697	-0.363281	0.993652	-0.674316	0.008581	0.033481	-0.021541	0.704569	-0.566101	-0.399073	-0.154444	-86.560042	-47.494343	20.280626
50111		1.278676	2.274590	-2.193120	3.189240	-1.014782	-10.458523	-0.593098	-0.502183	-2.060614	-0.383301	0.988770	-0.667725	0.013075	0.022547	-0.021966	0.700250	-0.564427	-0.406203	-0.161470	-87.148046	-48.691152	20.613684
50112		1.341719	2.614162	-2.237264	3.496566	-0.933781	-10.548087	-0.416619	-0.530803	-2.536675	-0.412354	0.981689	-0.663330	0.013806	0.025922	-0.022390	0.695542	-0.560379	-0.416109	-0.170441	-87.695972	-50.341801	21.052610
50113		1.605363	3.220232	-1.606761	3.856918	-0.098040	-10.614049	-0.247430	-0.493196	-3.026671	-0.431641	0.958984	-0.661133	0.016578	0.031934	-0.016067	0.691156	-0.555290	-0.426055	-0.180093	-88.110524	-52.087370	21.402125
50114		1.998040	4.086034	-0.747418	4.401170	1.069743	-10.666877	-0.224941	-0.472030	-3.471132	-0.467285	0.951660	-0.656738	0.020703	0.040497	-0.007472	0.685890	-0.548270	-0.438282	-0.192001	-88.565650	-54.268494	21.835562
50115		2.502236	4.216511	-0.250688	4.598660	1.684504	-10.151383	-0.300983	-0.454816	-3.873886	-0.497803	0.924316	-0.652344	0.025838	0.041666	-0.002512	0.680212	-0.541138	-0.450099	-0.204676	-89.049016	-56.495330	22.212898
50116		3.286793	4.223647	0.365000	4.757466	2.417289	-9.270104	-0.272448	-0.390478	-4.258748	-0.521729	0.904053	-0.647949	0.033750	0.041529	0.003658	0.673640	-0.531940	-0.463783	-0.219441	-89.565662	-59.126737	22.668209
50117		3.818597	4.403296	1.003845	4.866672	3.155576	-8.659312	-0.328821	-0.352663	-4.675244	-0.558594	0.872070	-0.647949	0.039184	0.043141	0.010036	0.666626	-0.522439	-0.476927	-0.234965	-90.097403	-61.808441	23.062311
50118		4.766701	4.596505	1.218063	5.267534	3.565985	-7.607964	-0.338771	-0.326360	-5.051293	-0.593506	0.842773	-0.647705	0.048788	0.044763	0.012183	0.658350	-0.510799	-0.491867	-0.252440	-90.769578	-64.895302	23.636188
50119		6.283496	4.586819	0.752632	5.881657	3.333809	-5.892850	-0.283098	-0.286234	-5.378490	-0.625732	0.808838	-0.638916	0.064027	0.044168	0.007554	0.649888	-0.498672	-0.506019	-0.270031	-91.445116	-67.975711	24.195626
50120		8.067015	3.592283	0.451222	5.465375	2.877119	-3.486898	-0.165670	-0.278917	-5.706774	-0.658203	0.777100	-0.643311	0.081645	0.033606	0.004597	0.640312	-0.483853	-0.521924	-0.288933	-92.347185	-71.439902	25.106320
50121		9.757978	2.490290	0.144010	4.692994	2.275421	-1.198256	0.134538	-0.280981	-5.976834	-0.690186	0.729980	-0.643066	0.098263	0.021972	0.001593	0.630976	-0.468007	-0.537252	-0.306920	-93.365711	-74.854819	26.250260
50122		10.968047	2.444080	0.322622	4.284861	2.373141	0.303794	0.469190	-0.328499	-6.188989	-0.722168	0.684814	-0.638428	0.110361	0.021024	0.003459	0.620857	-0.448958	-0.554394	-0.324993	-95.169050	-78.583785	28.435975
50123		12.885602	2.241137	0.166399	3.821517	2.106120	2.515753	0.625305	-0.388428	-6.406638	-0.747314	0.639893	-0.633789	0.129482	0.018264	0.001977	0.610443	-0.429648	-0.570716	-0.342119	-98.749047	-82.205306	32.427985
50124		15.333225	1.656522	0.077477	2.708332	1.668248	5.275551	0.850211	-0.416836	-6.517647	-0.767822	0.593018	-0.640137	0.153761	0.011554	0.001151	0.599016	-0.407600	-0.588235	-0.359195	-110.300177	-85.980878	44.586809
50125		17.346663	1.920888	0.603926	1.825674	2.004287	7.435504	0.969400	-0.493482	-6.551871	-0.792969	0.541504	-0.642090	0.173955	0.013484	0.006543	0.587434	-0.386080	-0.604488	-0.374776	-179.014670	-88.342103	113.910995
50126		19.514758	1.216473	0.871798	-0.181224	1.584862	9.690601	0.723407	-0.675759	-6.624685	-0.813232	0.485596	-0.633057	0.195376	0.005662	0.009406	0.573421	-0.363559	-0.621285	-0.391176	117.733946	-85.521238	177.702141
50127		22.205537	-0.464415	0.290027	-2.972635	-0.093199	12.195465	0.310862	-0.901893	-6.583838	-0.826904	0.432129	-0.626221	0.221726	-0.011953	0.003886	0.557981	-0.343769	-0.636108	-0.407243	108.740467	-81.836562	-173.075458
50128		24.701298	-2.594856	-0.440743	-6.441618	-2.194638	14.073466	-0.173602	-1.111967	-6.480563	-0.838623	0.387451	-0.608398	0.246019	-0.033935	-0.003010	0.540019	-0.324270	-0.650516	-0.424332	105.676093	-77.898561	-169.999013
50129		26.277198	-7.039756	-0.676205	-12.090039	-4.765304	14.090714	-0.904533	-1.188734	-6.289187	-0.852539	0.342773	-0.603760	0.260418	-0.078637	-0.004866	0.521050	-0.308597	-0.661669	-0.442118	104.078369	-74.238017	-168.887965
50130		27.751144	-15.294877	0.725593	-21.712064	-7.365800	12.064454	-1.028302	-0.936487	-5.930058	-0.859619	0.293701	-0.590332	0.272776	-0.161040	0.009355	0.502426	-0.292302	-0.671340	-0.459816	102.587656	-70.631833	-167.888975
50131		24.168682	-13.189240	3.935889	-21.160267	-3.577022	7.874639	-0.458219	-0.686540	-5.267992	-0.867188	0.253662	-0.576904	0.237966	-0.138102	0.040492	0.487149	-0.277230	-0.679477	-0.473434	101.669139	-67.595192	-167.187581
50132		19.594939	-11.703370	2.703118	-18.493469	-3.882164	3.266640	-1.349551	-0.612074	-4.457101	-0.863770	0.227051	-0.574707	0.193194	-0.121171	0.028434	0.472107	-0.265809	-0.684169	-0.488235	100.523886	-64.898267	-166.743164
50133		20.717662	-12.553118	-0.364009	-19.062424	-7.108409	3.338197	-1.967995	-0.511131	-3.847580	-0.867188	0.193604	-0.565674	0.204717	-0.129510	-0.001853	0.458224	-0.258461	-0.685529	-0.503268	99.213575	-62.673175	-166.540108
50134		19.716382	-15.818301	-4.554039	-20.321842	-11.930923	0.398743	-2.298100	-0.509907	-3.552114	-0.866211	0.171387	-0.554443	0.194419	-0.162158	-0.043194	0.444219	-0.252170	-0.685570	-0.518723	97.852355	-60.539960	-166.466363
50135		17.404095	-20.743919	-7.346745	-22.707482	-15.663737	-4.701779	-1.885477	-0.534966	-2.983199	-0.867432	0.146973	-0.556641	0.171107	-0.210683	-0.071031	0.432185	-0.247462	-0.685526	-0.531068	96.915249	-58.802420	-166.632787
50136		15.523829	-25.977861	-5.276449	-26.923141	-14.790966	-9.884272	-1.358098	-0.542531	-1.932802	-0.867188	0.140381	-0.552002	0.152855	-0.261612	-0.050575	0.423268	-0.245146	-0.685535	-0.539249	96.448537	-57.641947	-167.001624
50137		14.821571	-27.492013	-1.381499	-29.110059	-11.200534	-11.944240	-0.488453	-0.460178	-0.698125	-0.860107	0.131592	-0.552002	0.147285	-0.275467	-0.012803	0.419189	-0.245008	-0.686045	-0.541844	96.507384	-57.211642	-167.404017
50138		15.741995	-22.442431	-0.661511	-25.862125	-9.026890	-8.557323	0.148504	-0.326176	0.260933	-0.860352	0.133789	-0.541016	0.157723	-0.224214	-0.006525	0.418870	-0.246972	-0.686772	-0.540274	96.956683	-57.373407	-167.860412
50139		17.770410	-12.857152	-0.991624	-19.206452	-6.742779	-1.583364	0.522165	-0.151571	0.748025	-0.862793	0.140381	-0.547607	0.178191	-0.127879	-0.010116	0.420994	-0.248837	-0.687575	-0.536735	97.475504	-57.784598	-168.121069
50140		17.891074	-13.578466	-1.930911	-19.447844	-7.780365	-1.480582	-0.395550	0.036506	2.029036	-0.861572	0.164795	-0.541260	0.180273	-0.133998	-0.019076	0.426099	-0.257350	-0.683716	-0.533613	97.522250	-59.016170	-168.477067
50141		17.672933	13.226704	1.136007	1.652512	3.317822	11.977328	1.176412	0.495880	2.538366	-0.862061	0.180420	-0.558838	0.175061	0.134428	0.011711	0.436022	-0.262156	-0.682469	-0.524782	98.050629	-60.492570	-168.308877
50142		11.467077	24.830932	9.826705	11.774982	15.986842	11.409565	0.509740	0.173023	1.867600	-0.862549	0.193604	-0.554688	0.112432	0.249115	0.098803	0.442271	-0.267808	-0.680732	-0.518921	98.506239	-61.651899	-168.533184
50143		13.957389	-3.363726	8.800065	-11.973288	6.008434	0.389721	-1.507838	-0.127873	1.968671	-0.861328	0.215820	-0.550293	0.139835	-0.031597	0.088333	0.444875	-0.278139	-0.674420	-0.519502	98.087668	-62.754478	-169.037075
50144		18.005049	-11.920901	0.045328	-17.998443	-4.917773	1.055750	-2.346288	-0.524311	2.714406	-0.857666	0.235840	-0.548340	0.181642	-0.116731	0.002307	0.447081	-0.294364	-0.665362	-0.520347	97.789184	-64.327510	-170.224403
50145		13.498277	-0.913589	-2.462702	-5.717374	-3.516468	2.188956	-1.598971	-0.608690	2.692902	-0.851807	0.262451	-0.541748	0.135165	-0.007511	-0.024151	0.449637	-0.308428	-0.658522	-0.518698	98.073055	-65.804654	-171.548122
50146		13.349386	-4.235874	-1.531250	-8.574634	-3.309534	0.864593	-1.306134	-0.611158	2.614863	-0.861816	0.286621	-0.533203	0.134079	-0.040705	-0.014634	0.452619	-0.322181	-0.652104	-0.515844	98.664994	-67.324101	-173.031680
50147		17.149351	-11.484336	-5.924511	-15.132279	-9.335560	2.225538	-1.034311	-0.766573	2.879337	-0.853516	0.304688	-0.529053	0.173350	-0.112659	-0.057997	0.455809	-0.335832	-0.646460	-0.511415	99.808636	-68.879217	-174.903211
50148		17.770071	-6.108462	-5.158789	-10.437195	-6.936455	5.108035	-0.584272	-0.801434	2.787231	-0.847900	0.333496	-0.520264	0.178735	-0.058747	-0.050699	0.459573	-0.348979	-0.641691	-0.505211	101.576184	-70.462780	-177.173694
50149		10.662903	-2.215018	-0.924203	-5.254458	-1.546873	-0.354963	-0.102724	-0.666457	2.625014	-0.851074	0.353271	-0.520508	0.106938	-0.020753	-0.008875	0.463830	-0.359274	-0.638332	-0.498313	103.566778	-71.845023	-179.339449
50150		5.772468	-1.775701	-1.047711	-3.133836	-1.432093	-4.743291	-0.115701	-0.619938	2.199328	-0.840576	0.373535	-0.507324	0.057947	-0.017127	-0.010288	0.467331	-0.368925	-0.635110	-0.492068	105.733551	-73.074853	178.287644
50151		9.840265	-2.109326	-2.896417	-4.077717	-3.195963	-0.711916	0.012307	-0.376790	1.921854	-0.836670	0.386963	-0.509766	0.098654	-0.020144	-0.028780	0.470849	-0.375895	-0.632454	-0.486833	107.507735	-74.065610	176.444985
50152		10.256844	-0.856022	-2.224688	-3.002519	-2.148025	0.048996	0.232432	-0.240251	1.752479	-0.834961	0.400146	-0.509766	0.102665	-0.007635	-0.022133	0.474985	-0.382280	-0.629888	-0.481138	109.447983	-75.067967	174.539356
50153		8.699485	1.634842	-2.075172	-0.158815	-1.365028	-0.825474	0.155848	-0.376005	1.473200	-0.833008	0.408936	-0.498779	0.086910	0.017005	-0.020575	0.477615	-0.387430	-0.628330	-0.476428	111.444153	-75.781067	172.568753
50154		9.370368	2.532089	-3.232484	0.920536	-2.170583	0.142410	0.000127	-0.431489	1.326654	-0.828857	0.420410	-0.509766	0.093602	0.025942	-0.032123	0.479587	-0.393394	-0.626412	-0.472065	113.773345	-76.471415	170.139395
50155		9.747438	1.931642	-1.891978	0.066649	-0.937761	0.258969	-0.100157	-0.399163	1.209561	-0.824707	0.427002	-0.503418	0.097393	0.019896	-0.018735	0.480972	-0.398344	-0.624750	-0.468696	115.825497	-77.002162	167.971719
50156		9.809919	2.289150	-1.483754	0.414750	-0.383167	0.353742	-0.186976	-0.428769	1.125008	-0.820557	0.435791	-0.496826	0.098000	0.023429	-0.014649	0.482023	-0.404031	-0.622756	-0.465390	118.241636	-77.535259	165.355455
50157		9.681007	1.385503	-1.752507	-0.264861	-0.808302	0.086219	-0.238618	-0.397518	1.083208	-0.825684	0.451416	-0.494629	0.096768	0.014358	-0.017350	0.482802	-0.408884	-0.620969	-0.462724	120.413737	-77.962469	162.992505
50158		9.694225	0.325701	-1.550914	-1.226555	-0.800091	-0.099603	-0.323217	-0.365762	1.008456	-0.821289	0.453613	-0.496826	0.096952	0.003721	-0.015338	0.483442	-0.414301	-0.618724	-0.460238	122.813128	-78.403843	160.324739
50159		9.896147	0.889145	-1.932617	-0.563637	-0.973353	0.246810	-0.272295	-0.325178	0.935306	-0.821777	0.464600	-0.494873	0.098950	0.009328	-0.019178	0.484006	-0.418583	-0.616946	-0.458153	124.892801	-78.742888	158.043513
50160		9.894588	1.168841	-1.518035	-0.295155	-0.455235	0.251035	-0.219208	-0.268641	0.866607	-0.817139	0.462646	-0.496826	0.098914	0.012101	-0.015061	0.484792	-0.423021	-0.614982	-0.455880	127.204059	-79.103697	155.534671
50161		10.870008	-0.790574	-0.459905	-2.495426	0.246754	0.803568	-0.151549	-0.201589	0.805880	-0.817383	0.469238	-0.499268	0.108735	-0.007471	-0.004484	0.485672	-0.426310	-0.613424	-0.453975	129.089575	-79.393384	153.526747
50162		11.213582	-1.449756	-0.303668	-3.129008	0.322668	1.052072	0.196822	-0.107894	0.763652	-0.813232	0.473633	-0.494873	0.112192	-0.014066	-0.002990	0.487585	-0.428992	-0.612221	-0.451013	131.315342	-79.730781	151.354865
50163		10.826736	-0.989773	-0.168698	-2.576683	0.549425	0.736467	0.528536	-0.076732	0.716618	-0.815674	0.480469	-0.494873	0.108303	-0.009505	-0.001671	0.490083	-0.430054	-0.612066	-0.447491	133.337709	-80.002772	149.607745
50164		10.497670	-0.732249	0.378448	-2.316091	1.132668	0.396765	0.742494	-0.009064	0.645932	-0.813721	0.487061	-0.492676	0.104999	-0.006997	0.003763	0.493207	-0.430759	-0.612075	-0.443348	135.615802	-80.302890	147.707060
50165		10.237948	0.109160	0.472858	-1.429486	1.412572	0.237786	0.757165	-0.014021	0.603122	-0.813965	0.493652	-0.499268	0.102375	0.001382	0.004741	0.496114	-0.430752	-0.612490	-0.439521	137.558808	-80.532717	146.176190
50166		10.411803	0.057255	-0.030420	-1.319054	0.950692	0.471563	0.639783	-0.002867	0.590327	-0.813965	0.498291	-0.512451	0.104116	0.000881	-0.000300	0.498915	-0.431452	-0.612356	-0.435837	139.816187	-80.791273	144.243422
50167		10.667829	-0.611105	-0.511580	-1.819946	0.358167	0.722817	0.631482	0.031564	0.618116	-0.807373	0.502686	-0.505859	0.106696	-0.005765	-0.005151	0.501704	-0.431685	-0.612322	-0.432437	141.810475	-81.027396	142.589852
50168		10.507140	-0.337815	-1.083581	-1.317030	-0.124449	0.672432	0.716662	0.084064	0.641189	-0.809814	0.504883	-0.503662	0.105077	-0.003002	-0.010891	0.505038	-0.432098	-0.612007	-0.428574	144.272722	-81.319435	140.499499
50169		10.502424	-0.153498	-1.250652	-1.020414	-0.231404	0.713150	0.860463	0.151910	0.653639	-0.810059	0.513916	-0.510498	0.105019	-0.001138	-0.012592	0.508744	-0.431582	-0.612055	-0.424624	146.475736	-81.602368	138.770004
50170		9.978716	1.401412	-1.142024	0.590242	0.252152	0.308107	0.988010	0.147762	0.652978	-0.807861	0.516113	-0.517090	0.099732	0.014396	-0.011423	0.512851	-0.431152	-0.612102	-0.420027	149.283010	-81.900805	136.492129
50171		9.557663	2.334799	-1.250606	1.627464	0.389531	-0.037035	0.880024	0.074855	0.641532	-0.810547	0.527100	-0.521484	0.095496	0.023709	-0.012438	0.516306	-0.430684	-0.612374	-0.415856	151.903622	-82.117362	134.354664
50172		9.550779	2.071976	-1.445749	1.503387	0.164104	-0.049844	0.572247	-0.058316	0.632924	-0.812988	0.531494	-0.521484	0.095446	0.021063	-0.014370	0.518805	-0.431626	-0.612112	-0.412139	155.070176	-82.270434	131.477359
50173		9.163772	2.532309	-2.272735	2.269340	-0.493999	-0.317517	0.306352	-0.137551	0.655074	-0.808838	0.536133	-0.517090	0.091570	0.025658	-0.022625	0.520381	-0.433106	-0.611691	-0.409215	158.011610	-82.346485	128.686026
50174		9.075556	1.478772	-3.353101	1.637720	-1.795013	-0.331591	0.086274	-0.250780	0.658447	-0.804688	0.549561	-0.514893	0.090748	0.015101	-0.033411	0.521253	-0.435736	-0.610882	-0.406513	161.411233	-82.355609	125.294168
50175		9.945322	0.597120	-3.673008	0.872992	-2.215439	0.535559	0.066501	-0.294534	0.668333	-0.804932	0.553955	-0.512939	0.099486	0.006316	-0.036582	0.521843	-0.438189	-0.610333	-0.403935	164.518981	-82.305580	122.196506
50176		10.319438	-0.344723	-3.340065	-0.080841	-2.074649	0.838809	0.161248	-0.304830	0.708361	-0.805420	0.567139	-0.510742	0.103256	-0.003055	-0.033246	0.522764	-0.440871	-0.609706	-0.400760	168.147479	-82.235657	118.614424
50177		10.489793	-1.484343	-2.614064	-1.318609	-1.640614	0.894378	0.279712	-0.324981	0.772708	-0.803711	0.578369	-0.506348	0.104996	-0.014401	-0.025990	0.523923	-0.443132	-0.609416	-0.397179	171.703569	-82.129164	115.186440
50178		10.045569	-0.295771	-1.982624	-0.255877	-0.689148	0.404484	0.417349	-0.335428	0.796848	-0.801514	0.582764	-0.501953	0.100499	-0.002516	-0.019663	0.525454	-0.445462	-0.609164	-0.392913	175.657958	-81.984845	111.420315
50179		10.088332	0.814824	-2.142918	0.924100	-0.448274	0.481717	0.466647	-0.339469	0.793469	-0.795410	0.593994	-0.497803	0.100886	0.008598	-0.021238	0.527002	-0.447304	-0.609207	-0.388658	179.161281	-81.810757	108.151439
50180		10.943215	0.019974	-1.868283	0.132920	-0.244173	1.285359	0.557186	-0.293068	0.807447	-0.791016	0.600586	-0.495605	0.109457	0.000693	-0.018521	0.528960	-0.449176	-0.609072	-0.384023	-177.088853	-81.625479	104.670088
50181		10.863294	0.502004	-1.467471	0.561377	0.328092	1.141440	0.662508	-0.252117	0.852539	-0.796143	0.615967	-0.493408	0.108628	0.005531	-0.014520	0.531299	-0.450487	-0.609095	-0.379190	-173.533300	-81.441536	101.458838
50182		10.678507	0.865704	-1.334941	0.968482	0.599006	0.923433	0.675172	-0.200648	0.895392	-0.789795	0.627197	-0.502197	0.106758	0.009180	-0.013212	0.533937	-0.452087	-0.608715	-0.374159	-169.689018	-81.240204	97.947962
50183		10.313429	0.894163	-1.328161	1.095979	0.614624	0.548314	0.657600	-0.149861	0.998445	-0.776855	0.640869	-0.495850	0.103098	0.009500	-0.013174	0.536816	-0.453632	-0.608086	-0.369158	-165.857284	-81.035360	94.450981
50184		10.115045	1.724898	-1.076654	1.914354	1.138617	0.261346	0.578724	-0.115288	1.119237	-0.772949	0.652100	-0.495850	0.101058	0.017846	-0.010657	0.539869	-0.455947	-0.606759	-0.364001	-161.603908	-80.776910	90.467161
50185		10.820925	1.549599	-0.549514	1.692423	1.743522	0.859231	0.479959	-0.075754	1.247634	-0.766846	0.667725	-0.502441	0.108112	0.016184	-0.005416	0.542983	-0.458554	-0.604988	-0.359008	-157.375476	-80.486252	86.460028
50186		11.917148	0.797549	-0.079310	0.986336	2.181263	1.888919	0.379487	-0.038625	1.426642	-0.758057	0.674561	-0.498047	0.119111	0.008827	-0.000754	0.546319	-0.462114	-0.602350	-0.353781	-152.734789	-80.105041	81.962774
50187		12.549780	1.167576	0.183162	1.434722	2.714033	2.412945	0.336412	0.011953	1.580292	-0.749756	0.694580	-0.496094	0.125400	0.012664	0.001845	0.549901	-0.465908	-0.599251	-0.348479	-148.119327	-79.664755	77.470028
50188		13.122271	0.722972	0.529620	1.126888	3.059435	2.929484	0.259691	0.048770	1.725337	-0.736816	0.708252	-0.498291	0.131155	0.008354	0.005275	0.553686	-0.470426	-0.595406	-0.342962	-143.416326	-79.116289	72.830627
50189		13.640345	1.018276	0.785376	1.571223	3.550647	3.326251	0.317003	0.123505	1.835873	-0.726563	0.730469	-0.500488	0.136307	0.011422	0.007787	0.557915	-0.474772	-0.591273	-0.337223	-138.876126	-78.512326	68.387494
50190		14.128416	1.616916	0.105867	2.652597	3.267466	3.771083	0.333236	0.177769	1.941744	-0.711182	0.741943	-0.498291	0.141119	0.017538	0.000962	0.562548	-0.479363	-0.586597	-0.331143	-134.411886	-77.809953	64.020268
50191		14.702400	1.449681	-0.140346	2.908765	3.157840	4.323830	0.353746	0.240517	2.060517	-0.698486	0.760010	-0.496094	0.146862	0.016013	-0.001553	0.567473	-0.483977	-0.581544	-0.324880	-130.198118	-77.030598	59.910396
50192		14.364995	3.063484	-0.239176	4.703122	3.578854	3.635701	0.409848	0.297075	2.159640	-0.686035	0.784668	-0.507324	0.143304	0.032189	-0.002540	0.572879	-0.488624	-0.576028	-0.318194	-126.136747	-76.154324	55.979966
50193		14.340260	4.605795	-0.707225	6.585995	3.686384	3.240368	0.373514	0.381002	2.212520	-0.659424	0.793945	-0.505127	0.142868	0.047654	-0.007257	0.578364	-0.493280	-0.570098	-0.311703	-122.420834	-75.231048	52.365856
50194		15.138354	4.369265	-1.822448	7.197587	2.782214	4.044577	0.392934	0.476680	2.305512	-0.648926	0.814209	-0.509521	0.150822	0.045470	-0.018496	0.584316	-0.497908	-0.563573	-0.305036	-118.834244	-74.232036	48.888943
50195		15.322051	4.698612	-2.850461	8.235572	2.012278	4.082617	0.555418	0.571180	2.400756	-0.624756	0.828125	-0.518311	0.152559	0.048900	-0.028807	0.590915	-0.502131	-0.556740	-0.297867	-115.380997	-73.158172	45.622472
50196		15.754989	4.111541	-3.709166	8.463947	1.163405	4.535595	0.897662	0.663069	2.525682	-0.614014	0.841553	-0.524902	0.156889	0.043267	-0.037422	0.598763	-0.505390	-0.549748	-0.289551	-111.894661	-71.991554	42.516668
50197		15.598334	6.020948	-3.879235	10.600262	1.652886	3.584679	1.465123	0.773975	2.635176	-0.594482	0.862061	-0.542480	0.155019	0.062541	-0.038941	0.608328	-0.507057	-0.542837	-0.279568	-108.285576	-70.727515	39.593684
50198		15.755584	8.122224	-4.263218	13.031568	2.132786	2.756590	1.922792	0.866367	2.684784	-0.579102	0.873535	-0.553467	0.156259	0.083735	-0.042514	0.619215	-0.507086	-0.536096	-0.268399	-104.670952	-69.409799	36.929233
50199		17.223367	10.624171	-4.793986	16.220015	2.972729	2.857549	2.178892	0.978694	2.794175	-0.552734	0.887451	-0.575439	0.170489	0.109152	-0.047598	0.631000	-0.506422	-0.528825	-0.256357	-101.106997	-67.976083	34.443820
50200		17.732780	13.281995	-5.482111	19.314906	3.587419	1.803128	1.726085	0.984626	3.138633	-0.537354	0.898926	-0.595215	0.174941	0.136049	-0.054521	0.641824	-0.507738	-0.520093	-0.244475	-98.102975	-66.330163	32.265823
50201		18.638154	7.587819	-3.951855	14.644733	3.223560	4.175170	0.732821	0.960977	3.717833	-0.508789	0.917236	-0.606201	0.184735	0.079469	-0.040122	0.650598	-0.513774	-0.508378	-0.233045	-95.929533	-64.285116	30.335840
50202		19.692071	2.581559	-1.795740	10.589784	3.663478	6.681131	0.477809	1.085879	3.948655	-0.480225	0.933350	-0.610596	0.196258	0.029739	-0.018956	0.658929	-0.520624	-0.495482	-0.221949	-94.061723	-62.138285	28.559568
50203		19.757126	2.502649	-2.243549	11.423086	3.299642	6.318246	0.493306	1.285229	3.981104	-0.451416	0.945068	-0.619385	0.196871	0.029007	-0.023634	0.667662	-0.527312	-0.481333	-0.210921	-92.226098	-59.903085	26.784381
50204		19.635833	0.982578	-2.458729	10.932897	2.570272	6.508536	0.366578	1.328318	4.051136	-0.422852	0.958984	-0.632568	0.195936	0.013844	-0.025867	0.675814	-0.534009	-0.466918	-0.200243	-90.680893	-57.667900	25.236109
50205		19.339143	4.258471	-2.608839	14.001579	3.538411	3.983153	-0.011815	1.088865	3.863199	-0.398682	0.975098	-0.632568	0.192375	0.046306	-0.027140	0.682050	-0.541863	-0.452830	-0.190098	-89.731196	-55.458889	24.089797
50206		16.850448	5.815363	-1.786681	13.995397	4.242094	0.533736	-0.704739	0.806224	3.443077	-0.374268	0.984375	-0.628174	0.167396	0.060977	-0.018755	0.684982	-0.550860	-0.440531	-0.182442	-89.520557	-53.563196	23.349851
50207		13.122637	4.802213	-1.122646	11.261873	3.623079	-2.292522	-0.835995	0.548093	3.060531	-0.354492	0.991455	-0.630371	0.130440	0.049974	-0.011791	0.686584	-0.559886	-0.429417	-0.175303	-89.605587	-51.809618	22.854120
50208		9.514882	2.819274	-2.031759	8.320306	1.295045	-4.182519	-0.449734	0.517425	2.662191	-0.341553	1.004883	-0.630371	0.094710	0.029409	-0.020628	0.688551	-0.566244	-0.420378	-0.168962	-89.523775	-50.376326	22.436002
50209		5.692974	-1.056373	-4.154197	4.275560	-2.755833	-4.822063	0.413390	0.516252	2.254411	-0.325928	1.011963	-0.636963	0.056936	-0.009836	-0.041710	0.692658	-0.569078	-0.412550	-0.161796	-88.958443	-49.083220	22.005116
50210		10.928157	2.714966	-2.269632	9.444691	1.417860	-3.430626	0.528416	0.338037	1.730402	-0.321533	1.011963	-0.641357	0.109002	0.028154	-0.022807	0.696053	-0.570148	-0.407522	-0.156100	-88.477556	-48.186081	21.780806
50211		7.061971	8.361255	-2.718270	11.130861	1.762374	-10.222648	0.028326	0.015599	0.954510	-0.321533	1.016602	-0.647949	0.070217	0.083952	-0.027176	0.696897	-0.571969	-0.404777	-0.152778	-88.468012	-47.641592	21.789371
50212		1.052687	10.048307	-1.394840	8.013757	1.969615	-15.806213	-0.458317	-0.194101	-0.082973	-0.330566	1.011963	-0.641357	0.010582	0.100446	-0.014168	0.694925	-0.573151	-0.406060	-0.153923	-88.871792	-47.800031	21.991392
50213		-1.096718	10.115810	0.098973	6.197482	2.781306	-17.388740	-0.760163	-0.298051	-0.872148	-0.339355	1.011719	-0.634766	-0.010527	0.101207	0.000589	0.691452	-0.574234	-0.409016	-0.157656	-89.489864	-48.304640	22.236351
50214		-0.624007	7.348442	-0.185192	4.797076	1.795801	-15.121659	-0.910336	-0.313760	-1.378177	-0.352783	1.006836	-0.623779	-0.005730	0.073516	-0.002196	0.686871	-0.574357	-0.414080	-0.163891	-90.236413	-49.209385	22.548385
50215		0.581199	4.257914	-1.193183	3.811582	0.254665	-12.114352	-0.780186	-0.289389	-1.787846	-0.370361	0.997559	-0.623779	0.006209	0.042478	-0.012089	0.682527	-0.573537	-0.419562	-0.170823	-90.891582	-50.234644	22.820748
50216		1.398971	3.067736	-1.724164	3.677310	-0.377139	-10.634538	-0.354259	-0.237088	-2.279961	-0.390381	0.992920	-0.621582	0.014358	0.030484	-0.017279	0.678789	-0.569670	-0.427334	-0.179183	-91.318684	-51.655078	23.122175
50217		1.477265	3.383305	-1.810720	4.005685	-0.340701	-10.675975	-0.018404	-0.211367	-2.743757	-0.414795	0.981201	-0.626221	0.015254	0.033624	-0.018094	0.675756	-0.563998	-0.435823	-0.187931	-91.538320	-53.226280	23.385470
50218		1.788221	3.549301	-1.658761	4.264875	-0.058833	-10.406631	0.148597	-0.198545	-3.170239	-0.445313	0.962891	-0.623779	0.018458	0.035216	-0.016543	0.672412	-0.556235	-0.446266	-0.198269	-91.715384	-55.156764	23.719199
50219		2.378008	3.661667	-1.247606	4.511641	0.510525	-9.854011	0.338243	-0.153976	-3.541518	-0.473633	0.937988	-0.628174	0.024433	0.036209	-0.012396	0.669385	-0.547252	-0.456911	-0.208977	-91.745358	-57.185041	23.988127
50220		2.834151	3.839080	-0.405268	4.540901	1.464023	-9.401411	0.426071	-0.109875	-3.899463	-0.506836	0.924072	-0.630371	0.029085	0.037837	-0.003956	0.665792	-0.536434	-0.469050	-0.221250	-91.756270	-59.536416	24.297740
50221		3.412685	3.643209	0.188549	4.383427	2.075042	-8.616500	0.381778	-0.092783	-4.276687	-0.535156	0.903564	-0.636963	0.034894	0.035688	0.001970	0.661706	-0.525103	-0.481156	-0.234307	-91.767933	-61.986786	24.561344
50222		4.334410	3.440165	0.642407	4.346407	2.590631	-7.483232	0.336172	-0.074790	-4.631002	-0.560791	0.869873	-0.636963	0.044122	0.033375	0.006497	0.656474	-0.512249	-0.494567	-0.249091	-91.880425	-64.760668	24.916230
50223		5.545755	3.585060	0.913255	4.686574	3.066592	-6.198145	0.286905	-0.070642	-5.000722	-0.600098	0.840332	-0.641113	0.056327	0.034436	0.009202	0.650591	-0.498860	-0.507821	-0.264553	-92.030411	-67.625708	25.259357
50224		7.072129	3.502027	0.685018	4.993485	2.998026	-4.445170	0.288191	-0.096795	-5.381702	-0.625732	0.806396	-0.636719	0.071626	0.033091	0.006933	0.643355	-0.483582	-0.522489	-0.281511	-92.389959	-70.831772	25.839585
50225		8.548571	3.299894	1.051292	4.774299	3.351059	-2.669457	0.363692	-0.146138	-5.732863	-0.660156	0.765869	-0.643066	0.086376	0.030512	0.010633	0.635508	-0.467433	-0.537127	-0.298548	-92.930750	-74.112058	26.624570
50226		10.057052	3.198516	1.305285	4.476127	3.564875	-0.851642	0.422993	-0.240252	-6.017376	-0.687744	0.725342	-0.638672	0.101455	0.028913	0.013238	0.626198	-0.449367	-0.553056	-0.316346	-94.192347	-77.675863	28.199469
50227		12.071291	2.275847	0.908768	3.591887	2.826822	1.623160	0.461403	-0.354512	-6.278084	-0.721924	0.680420	-0.642822	0.121331	0.018935	0.009349	0.616003	-0.430890	-0.568736	-0.333787	-96.884251	-81.240769	31.204702
50228		14.472004	1.357271	1.096931	2.190273	2.527034	4.372780	0.616776	-0.435077	-6.406786	-0.751709	0.637695	-0.638184	0.145031	0.008895	0.011317	0.604671	-0.410483	-0.585295	-0.351150	-104.535694	-84.940850	39.293538
50229		16.261827	1.828569	1.242295	1.747494	2.625832	6.289822	0.568366	-0.574801	-6.436105	-0.771973	0.583984	-0.635742	0.163057	0.013006	0.012933	0.592527	-0.390712	-0.600940	-0.367595	-142.430454	-88.006567	77.568184
50230		18.499571	1.516571	1.117462	0.418301	2.081320	8.657640	0.080226	-0.785015	-6.496315	-0.792969	0.541504	-0.628906	0.185312	0.009145	0.011906	0.577637	-0.371334	-0.616408	-0.385342	127.772038	-86.659277	167.502498
50231		21.225225	0.049963	0.693681	-2.120801	0.714024	11.301886	-0.467384	-0.947840	-6.495753	-0.813477	0.492188	-0.615723	0.212084	-0.006373	0.007952	0.561009	-0.354277	-0.629978	-0.403589	111.965826	-83.125918	-176.905733
50232		23.451079	-1.249762	-0.614028	-4.447893	-1.453864	13.204623	-0.998107	-1.088100	-6.439709	-0.833984	0.442871	-0.602295	0.233974	-0.020064	-0.004779	0.542081	-0.337906	-0.642620	-0.423093	107.010072	-79.306874	-172.439837
50233		24.984842	-4.108579	-2.135199	-8.158036	-4.413807	13.839220	-1.583458	-1.193528	-6.342822	-0.838867	0.394043	-0.590820	0.248495	-0.049141	-0.019498	0.521842	-0.324142	-0.652873	-0.443136	104.605363	-75.620328	-170.907358
50234		27.376442	-11.005835	-1.903306	-16.532164	-7.297185	13.582826	-2.140031	-1.057437	-6.177652	-0.850586	0.344727	-0.570801	0.270279	-0.118628	-0.016359	0.500530	-0.310895	-0.660974	-0.464680	102.481814	-71.917032	-169.946545
50235		26.631779	-12.959821	0.779786	-20.395705	-5.676883	10.908099	-1.144483	-0.769049	-5.790292	-0.869141	0.302246	-0.568604	0.262384	-0.137182	0.009583	0.482520	-0.296258	-0.668954	-0.481566	101.134486	-68.576067	-169.212681
50236		22.803922	-13.581440	0.284677	-20.444460	-6.233632	5.920893	-1.427703	-0.688091	-5.318589	-0.865479	0.264648	-0.548584	0.224307	-0.141784	0.004621	0.464775	-0.282813	-0.675083	-0.498261	99.888006	-65.416021	-168.728816
50237		23.404713	-19.659608	-3.100049	-25.440563	-11.498088	3.004820	-1.598627	-0.528870	-4.417457	-0.868652	0.229004	-0.546143	0.229704	-0.201938	-0.028789	0.449578	-0.272839	-0.678394	-0.513050	98.742439	-62.865917	-168.474356
50238		20.247769	-21.210129	-6.449981	-24.789600	-14.742218	-1.477900	-1.311539	-0.377236	-3.726061	-0.867432	0.197754	-0.537109	0.198594	-0.216241	-0.062714	0.436632	-0.263678	-0.680990	-0.525433	97.806790	-60.665430	-168.255747
50239		19.344805	-21.136895	-7.586312	-24.305762	-15.607586	-3.172342	-0.687629	-0.285456	-3.294951	-0.868652	0.173340	-0.534668	0.190036	-0.214777	-0.074856	0.426017	-0.254655	-0.684060	-0.534531	97.265587	-58.768939	-168.085833
50240		15.282187	-20.994816	-8.316967	-22.077313	-15.807761	-7.328621	0.002771	-0.231986	-2.581819	-0.870117	0.155762	-0.534668	0.150191	-0.211897	-0.082997	0.418126	-0.246390	-0.687876	-0.539713	97.199032	-57.266708	-168.006479
50241		13.511605	-24.636414	-5.296807	-24.936783	-13.888194	-11.496047	0.507169	-0.181814	-1.476081	-0.862793	0.140381	-0.534424	0.133342	-0.247217	-0.053473	0.414110	-0.240718	-0.691428	-0.540828	97.481615	-56.411106	-167.997434
50242		12.564622	-26.152236	-1.399180	-26.731108	-10.714827	-13.607436	1.131312	-0.133008	-0.316237	-0.869873	0.148926	-0.539063	0.125243	-0.261636	-0.015388	0.414052	-0.237945	-0.695159	-0.537305	98.248465	-56.239000	-168.149405
50243		12.856857	-21.519075	-0.074585	-23.615553	-8.340265	-10.866410	1.506968	-0.045627	0.586782	-0.863037	0.146973	-0.534668	0.129200	-0.214799	-0.002336	0.417231	-0.236962	-0.698587	-0.530795	99.226799	-56.563853	-168.287877
50244		17.540980	-11.103260	-0.117445	-17.959238	-5.698395	-1.096496	1.304234	-0.059523	0.862489	-0.865723	0.153564	-0.536865	0.175887	-0.110264	-0.001843	0.420881	-0.237966	-0.701068	-0.524151	100.205790	-57.097236	-168.580722
50245		15.135131	-11.803443	0.842163	-17.441533	-4.808451	-3.350000	0.235355	0.073880	1.615581	-0.859375	0.166992	-0.539063	0.152301	-0.116816	0.008228	0.425622	-0.242914	-0.699590	-0.520012	100.536262	-58.011968	-168.813033
50246		17.306197	7.623420	-3.871138	-1.453903	-2.691517	9.245874	0.695825	0.297615	2.425035	-0.864746	0.189209	-0.548096	0.172062	0.078459	-0.038698	0.433912	-0.249818	-0.697626	-0.512473	101.148077	-59.481666	-169.082571
50247		12.677799	36.380464	11.224674	18.792710	22.126902	17.890279	0.744790	0.439237	1.844694	-0.856201	0.202637	-0.548096	0.123666	0.364534	0.113329	0.441061	-0.253480	-0.696248	-0.506410	101.505780	-60.564068	-169.003365
50248		10.919544	11.396964	13.587242	-0.686042	15.679300	3.876648	-2.379729	-0.291142	1.732106	-0.859375	0.224609	-0.541748	0.107997	0.116516	0.134654	0.441498	-0.265949	-0.688465	-0.510261	100.823241	-61.560312	-169.796192
50249		16.603952	-13.113769	4.954540	-20.081547	-0.789295	-1.551657	-3.965189	-0.819677	2.481472	-0.860107	0.239990	-0.528564	0.167429	-0.128041	0.052789	0.439593	-0.285241	-0.676673	-0.517213	99.912608	-62.871042	-171.335344
50250		15.091482	-10.050998	-1.877355	-14.651005	-5.625866	-0.540797	-2.641387	-0.801343	2.674064	-0.854492	0.269043	-0.522217	0.152313	-0.098711	-0.016853	0.440193	-0.302533	-0.667470	-0.518833	99.859436	-64.363823	-172.975639
50251		15.630625	-8.871327	-1.798309	-13.746376	-4.908688	0.825539	-0.788709	-0.393749	2.735233	-0.848633	0.291260	-0.522217	0.157535	-0.086634	-0.017329	0.444718	-0.314371	-0.662092	-0.514811	100.481694	-65.863312	-174.160133
50252		19.233354	-11.934378	-8.024318	-15.969961	-11.613498	3.854294	-0.218586	-0.633539	2.989850	-0.852051	0.320068	-0.513672	0.194342	-0.116536	-0.079501	0.450199	-0.326873	-0.657915	-0.507566	101.999208	-67.548644	-175.960652
50253		20.150195	-6.314422	-5.986370	-11.495326	-7.868324	7.147444	0.209012	-0.698780	3.096835	-0.847900	0.333496	-0.515869	0.202654	-0.059950	-0.059221	0.456027	-0.338306	-0.654883	-0.498716	104.111618	-69.183750	-178.104492
50254		9.007121	0.118375	-0.729962	-2.778792	-0.707468	-1.242571	0.571599	-0.578871	2.873372	-0.840088	0.362305	-0.505127	0.090062	0.002498	-0.007033	0.462480	-0.348476	-0.652406	-0.488921	106.607651	-70.769892	179.571492
50255		5.262145	-2.199593	-2.887844	-2.922358	-3.345329	-5.215435	0.198164	-0.471382	2.417988	-0.838623	0.382324	-0.509766	0.052950	-0.021329	-0.028775	0.467147	-0.357016	-0.649726	-0.481839	108.731610	-72.005056	177.449845
50256		9.189077	-1.432609	-4.369864	-2.903788	-4.421624	-1.003549	0.037200	-0.297235	2.157971	-0.832520	0.393555	-0.507568	0.092103	-0.013325	-0.043564	0.471665	-0.365275	-0.646328	-0.475780	110.725679	-73.192535	175.366776
50257		8.866789	-0.418801	-3.373889	-1.988490	-3.121306	-1.067413	-0.001111	-0.112998	1.742413	-0.833008	0.409180	-0.509766	0.088719	-0.003415	-0.033689	0.475410	-0.371149	-0.643394	-0.471464	112.170846	-74.095136	173.859626
50258		9.727866	-0.031794	-2.452026	-1.959354	-2.044619	-0.188577	-0.051582	-0.096457	1.507553	-0.822266	0.422607	-0.509766	0.097289	0.000409	-0.024473	0.478753	-0.376981	-0.640400	-0.467514	113.710463	-74.944399	172.214320
50259		9.685513	0.472214	-2.153477	-1.436976	-1.568871	-0.110003	-0.184607	-0.193657	1.303828	-0.822754	0.433594	-0.507813	0.096842	0.005334	-0.021446	0.480807	-0.382027	-0.637969	-0.464623	115.159037	-75.575802	170.606700
50260		10.074306	0.078935	-1.305142	-2.000728	-0.785857	0.116038	-0.335989	-0.263745	1.196688	-0.818604	0.442627	-0.499023	0.100753	0.001370	-0.012921	0.482281	-0.387877	-0.635247	-0.461972	116.903088	-76.194497	168.592971
50261		10.113787	0.488681	-0.540537	-1.721466	0.118986	0.179360	-0.413125	-0.295844	1.101874	-0.818604	0.444824	-0.507813	0.101117	0.005433	-0.005267	0.483062	-0.393035	-0.632867	-0.460058	118.499431	-76.671957	166.706929
50262		9.504078	1.285588	-1.792371	-0.424274	-0.846793	-0.102120	-0.411096	-0.332391	0.955703	-0.810303	0.460449	-0.496826	0.095008	0.013273	-0.017793	0.483571	-0.398395	-0.630567	-0.458068	120.355147	-77.117990	164.544301
50263		9.741889	1.385077	-2.468241	-0.147559	-1.413020	0.232021	-0.355827	-0.296791	0.835672	-0.814941	0.464844	-0.494629	0.097397	0.014214	-0.024563	0.483820	-0.402552	-0.628808	-0.456586	121.886189	-77.437384	162.765335
50264		9.585997	1.848270	-1.706587	0.212978	-0.526348	0.081610	-0.432215	-0.266956	0.739906	-0.815186	0.469238	-0.497070	0.095814	0.018800	-0.016978	0.483950	-0.407081	-0.626718	-0.455304	123.508868	-77.766363	160.835603
50265		9.798679	0.266860	-1.180278	-1.404508	-0.368971	-0.046969	-0.600617	-0.288014	0.668796	-0.812988	0.471436	-0.497070	0.097994	0.002961	-0.011670	0.483328	-0.411268	-0.624690	-0.454990	124.795256	-77.988319	159.167514
50266		10.307627	-0.565458	-1.671075	-2.124274	-0.963306	0.381356	-0.458925	-0.255354	0.658147	-0.815674	0.478027	-0.483887	0.103115	-0.005353	-0.016567	0.483219	-0.415529	-0.622665	-0.454008	126.396262	-78.258061	157.249144
50267		9.899296	0.014824	-2.352389	-1.289935	-1.474973	0.171811	-0.163342	-0.202961	0.637561	-0.813477	0.484863	-0.490479	0.099016	0.000445	-0.023424	0.483678	-0.418354	-0.621467	-0.452564	127.816176	-78.476833	155.703525
50268		9.722486	0.002059	-2.378457	-1.201476	-1.481574	0.013038	0.091887	-0.131449	0.595023	-0.811279	0.487061	-0.492676	0.097240	0.000321	-0.023721	0.484936	-0.420775	-0.620514	-0.450275	129.487785	-78.739136	154.038875
50269		9.738229	-0.194008	-1.400940	-1.557238	-0.558783	-0.112384	0.310586	-0.070743	0.537260	-0.811768	0.498291	-0.494873	0.097392	-0.001657	-0.013978	0.486563	-0.421834	-0.620262	-0.447870	130.820913	-78.945980	152.861069
50270		9.817316	-0.383736	0.002087	-2.009966	0.782241	-0.227549	0.438204	-0.078727	0.506833	-0.807617	0.502686	-0.486084	0.098182	-0.003589	0.000051	0.488498	-0.422991	-0.620139	-0.444833	132.526016	-79.171398	151.367376
50271		10.215608	-0.078803	1.065063	-1.983954	1.938745	0.076914	0.438850	-0.107468	0.490956	-0.813965	0.495850	-0.497070	0.102152	-0.000561	0.010704	0.490169	-0.423666	-0.620345	-0.442056	134.020325	-79.331828	150.101944
50272		10.252026	0.788884	0.962398	-1.082493	2.089877	0.242809	0.365904	-0.145814	0.471659	-0.807617	0.502686	-0.497070	0.102494	0.008113	0.009713	0.491668	-0.424991	-0.620288	-0.439190	135.847306	-79.500119	148.446010
50273		10.375300	0.609255	-0.172951	-0.964695	0.991593	0.489440	0.312478	-0.152839	0.459669	-0.812256	0.509277	-0.495117	0.103740	0.006334	-0.001640	0.492852	-0.425971	-0.620381	-0.436776	137.381470	-79.615346	147.067695
50274		10.263608	0.014870	-1.025121	-1.260164	0.042450	0.424631	0.331526	-0.155226	0.470082	-0.807861	0.513672	-0.495117	0.102643	0.000407	-0.010171	0.494247	-0.427347	-0.620268	-0.434008	139.275506	-79.760811	145.327085
50275		10.115504	-0.405646	-1.659124	-1.439914	-0.660873	0.322905	0.380735	-0.161833	0.520617	-0.810303	0.518066	-0.495117	0.101178	-0.003762	-0.016517	0.495672	-0.428358	-0.620388	-0.431205	141.089633	-79.878702	143.705214
50276		9.843610	0.242057	-1.821362	-0.678455	-0.641670	0.157280	0.406731	-0.141265	0.536249	-0.810547	0.524902	-0.495117	0.098442	0.002721	-0.018139	0.497401	-0.429692	-0.620253	-0.428069	143.252240	-80.032027	141.737765
50277		9.743329	0.767295	-2.137810	-0.027985	-0.786436	0.160869	0.387127	-0.126219	0.550659	-0.810791	0.531494	-0.495117	0.097425	0.007982	-0.021301	0.499004	-0.430694	-0.620219	-0.425237	145.170373	-80.156133	140.015411
50278		9.755733	1.018217	-1.945509	0.226857	-0.498210	0.172104	0.381691	-0.139717	0.569513	-0.811035	0.533691	-0.492920	0.097541	0.010497	-0.019367	0.500732	-0.432161	-0.619949	-0.422100	147.506934	-80.294113	137.858713
50279		10.102081	0.645440	-1.653655	-0.190360	-0.246107	0.439434	0.375491	-0.158024	0.614016	-0.809326	0.551514	-0.493164	0.101013	0.006795	-0.016444	0.502334	-0.433444	-0.619815	-0.419066	149.752867	-80.398384	135.798401
50280		10.511340	1.030953	-1.588815	0.186680	0.010639	0.866263	0.412738	-0.160418	0.667395	-0.807129	0.551514	-0.493164	0.105091	0.010693	-0.015782	0.504246	-0.435146	-0.619442	-0.415542	152.530456	-80.520914	133.214409
50281		10.854041	1.060403	-1.287681	0.169501	0.388967	1.160557	0.395768	-0.155994	0.744688	-0.809814	0.560303	-0.493164	0.108510	0.011033	-0.012771	0.506155	-0.436764	-0.619041	-0.412108	155.289217	-80.626947	130.647411
50282		10.842718	0.907489	-1.066452	0.055719	0.603160	1.103250	0.397875	-0.149037	0.841017	-0.805664	0.571533	-0.495361	0.108396	0.009552	-0.010565	0.508404	-0.438976	-0.618213	-0.408213	158.707807	-80.749778	127.407636
50283		10.593373	1.257269	-1.168402	0.532837	0.618081	0.887714	0.362486	-0.137570	0.934261	-0.802002	0.591553	-0.489014	0.105881	0.013088	-0.011588	0.510663	-0.441207	-0.617254	-0.404422	162.179659	-80.853620	124.100629
50284		11.058842	0.520314	-1.379296	-0.047132	0.320510	1.339220	0.275862	-0.132967	1.029875	-0.802002	0.591553	-0.489014	0.110569	0.005791	-0.013712	0.513047	-0.444230	-0.615697	-0.400450	166.288969	-80.948126	120.093362
50285		11.575720	-0.195221	-1.233439	-0.697169	0.374759	1.803197	0.266397	-0.107646	1.132845	-0.791504	0.609375	-0.482422	0.115772	-0.001280	-0.012274	0.515555	-0.447231	-0.613989	-0.396490	170.512201	-81.017483	115.971528
50286		11.682765	0.525429	-1.262831	0.132306	0.620720	1.932665	0.294903	-0.070650	1.195712	-0.794189	0.620361	-0.486816	0.116798	0.005971	-0.012579	0.518466	-0.450539	-0.611902	-0.392153	175.295538	-81.063338	111.295216
50287		11.578873	0.619750	-1.719269	0.495118	0.250108	1.896313	0.331160	-0.052877	1.253581	-0.783447	0.636230	-0.489258	0.115751	0.006952	-0.017151	0.521486	-0.453600	-0.609861	-0.387774	-179.957838	-81.061889	106.682046
50288		11.677047	1.082150	-2.022961	1.174932	0.163807	2.028232	0.373664	-0.027486	1.311478	-0.777100	0.643066	-0.480469	0.116699	0.011625	-0.020192	0.524881	-0.456911	-0.607507	-0.382971	-174.739103	-81.006406	101.611132
50289		11.837512	1.239790	-2.443587	1.599743	-0.111725	2.231427	0.411132	-0.002199	1.377629	-0.770996	0.660889	-0.484863	0.118286	0.013263	-0.024408	0.528428	-0.459999	-0.605147	-0.378103	-169.607899	-80.897605	96.653547
50290		11.901481	0.798980	-2.576064	1.393567	-0.299799	2.306922	0.460091	0.028826	1.458685	-0.760254	0.674316	-0.489258	0.118948	0.008917	-0.025758	0.532403	-0.463353	-0.602417	-0.372753	-164.077625	-80.712051	91.313992
50291		12.166621	1.108157	-2.224076	1.768040	0.217951	2.476509	0.520021	0.070429	1.554532	-0.751953	0.687744	-0.487061	0.121567	0.012085	-0.022253	0.536689	-0.466495	-0.599587	-0.367210	-158.622795	-80.465679	86.086533
50292		12.170501	1.501573	-1.995346	2.279365	0.604739	2.385352	0.531526	0.125838	1.662793	-0.748047	0.703369	-0.482910	0.121562	0.016080	-0.019988	0.541413	-0.470010	-0.596183	-0.361288	-152.894913	-80.123545	80.579976
50293		12.036032	1.830006	-1.697568	2.706345	1.011083	2.134941	0.509600	0.155881	1.793395	-0.733154	0.728027	-0.487305	0.120176	0.019422	-0.017021	0.546281	-0.473664	-0.592451	-0.355277	-147.358109	-79.689626	75.252532
50294		12.306276	1.503423	-1.653868	2.627168	1.056090	2.369982	0.421455	0.179982	1.953779	-0.715576	0.739502	-0.485107	0.122893	0.016270	-0.016616	0.551317	-0.478136	-0.587924	-0.348972	-141.804053	-79.105397	69.843523
50295		12.372428	1.481423	-1.889703	2.933991	0.894621	2.411371	0.357410	0.210119	2.147793	-0.702881	0.759766	-0.494141	0.123536	0.016175	-0.018999	0.556493	-0.483060	-0.582809	-0.342494	-136.531283	-78.392431	64.676133
50296		12.338945	2.710097	-2.108556	4.434799	1.108274	2.151295	0.344784	0.234129	2.322494	-0.687744	0.773438	-0.498535	0.123039	0.028568	-0.021181	0.561996	-0.488585	-0.576986	-0.335458	-131.476618	-77.508336	59.705806
50297		13.201807	3.383776	-2.850809	5.695255	0.832813	2.865051	0.304367	0.266800	2.484490	-0.666016	0.793701	-0.489746	0.131546	0.035517	-0.028631	0.567622	-0.494402	-0.570642	-0.328236	-126.897438	-76.502393	55.185217
50298		14.536464	4.031012	-3.191693	6.930522	1.022415	3.922423	0.316578	0.320931	2.625677	-0.653320	0.813965	-0.505127	0.144767	0.042264	-0.032084	0.573605	-0.500545	-0.563623	-0.320562	-122.655810	-75.353981	50.995390
50299		15.860784	4.616807	-4.032572	8.346089	0.735483	4.983384	0.454184	0.341717	2.763658	-0.627197	0.832275	-0.505127	0.157880	0.048445	-0.040488	0.580068	-0.506425	-0.556409	-0.312191	-118.820780	-74.094204	47.289652
50300		16.445038	5.143369	-4.333974	9.469791	0.814177	5.197751	0.755397	0.327052	2.892688	-0.607666	0.850586	-0.511719	0.163611	0.053968	-0.043407	0.587334	-0.511801	-0.549203	-0.302448	-115.296385	-72.691635	44.058577
50301		16.457450	5.779189	-4.443522	10.537281	1.021851	4.743593	1.244591	0.317475	2.985060	-0.588135	0.868652	-0.525146	0.163614	0.060515	-0.044325	0.595818	-0.515787	-0.542453	-0.291049	-111.972129	-71.199241	41.312190
50302		17.505471	6.741024	-3.333658	11.731867	2.731538	4.947545	1.950503	0.392051	3.025384	-0.565918	0.880371	-0.542480	0.173940	0.070370	-0.033002	0.606171	-0.517579	-0.536232	-0.277712	-108.588613	-69.647834	38.900716
50303		18.742184	10.184625	-2.335035	15.210942	5.227506	4.389544	2.591606	0.568097	3.103774	-0.548584	0.898438	-0.566895	0.185743	0.105033	-0.022532	0.618575	-0.517141	-0.529976	-0.262782	-104.974057	-68.041021	36.617185
50304		17.436910	11.605534	-1.600202	16.153975	6.354356	2.016001	2.484135	0.642071	3.349135	-0.522217	0.910156	-0.579834	0.172342	0.119144	-0.015090	0.630885	-0.517364	-0.522549	-0.247510	-101.675933	-66.268586	34.576960
50305		18.295069	6.188331	0.451384	11.400952	6.786524	4.227632	1.971198	0.763583	3.616187	-0.493408	0.924316	-0.606201	0.181810	0.065134	0.004450	0.642307	-0.519528	-0.513123	-0.232888	-98.811755	-64.309441	32.667419
50306		21.457957	0.945443	0.116274	8.931221	5.509797	8.926798	1.774815	0.985847	3.802323	-0.467285	0.944824	-0.628174	0.214351	0.013527	0.000214	0.653634	-0.522228	-0.502181	-0.218759	-96.141234	-62.247697	30.813800
50307		19.638265	3.313876	-1.974987	11.703092	4.139737	5.884102	1.580945	1.107047	3.813854	-0.445068	0.956543	-0.643555	0.195589	0.037034	-0.020552	0.664556	-0.525299	-0.490232	-0.205180	-93.745113	-60.127354	29.113012
50308		17.498719	4.921655	-0.698397	12.033626	5.420588	2.704708	0.985451	1.243214	3.621754	-0.416260	0.965820	-0.652344	0.174010	0.052411	-0.007815	0.673680	-0.529387	-0.477722	-0.194127	-91.838189	-58.124845	27.549596
50309		16.167998	3.431955	-1.661242	11.142392	3.721865	1.930749	0.357080	1.003342	3.377632	-0.394043	0.975342	-0.661133	0.160984	0.037073	-0.017357	0.680188	-0.535188	-0.465686	-0.184536	-90.677906	-56.204908	26.411989
50310		14.776379	4.233827	-1.588036	11.369884	3.767881	-0.050594	0.113505	0.649567	3.008553	-0.374023	0.979980	-0.665527	0.147052	0.044563	-0.016334	0.684595	-0.540963	-0.455765	-0.175976	-90.071597	-54.530209	25.756836
50311		12.424906	4.894310	-1.587223	10.869033	3.448031	-2.684133	0.001155	0.390944	2.649275	-0.352051	0.991699	-0.663330	0.123555	0.050583	-0.016114	0.687752	-0.546597	-0.447234	-0.167961	-89.768823	-53.014311	25.381940
50312		9.993442	2.098842	-1.608987	7.706172	1.870166	-3.181292	0.162521	0.353645	2.301363	-0.345215	0.991699	-0.672119	0.099655	0.022149	-0.016249	0.690757	-0.550635	-0.440188	-0.160904	-89.438223	-51.750727	25.085734
50313		7.003636	-2.666137	-1.442287	2.736284	-0.361598	-2.697962	0.677061	0.316248	1.935207	-0.332275	1.000977	-0.683105	0.070267	-0.025933	-0.014622	0.694831	-0.552266	-0.434302	-0.153606	-88.846298	-50.641736	24.823558
50314		8.005598	-2.223569	-2.020838	3.988784	-0.441044	-2.262091	0.569629	0.159052	1.296989	-0.327637	1.003174	-0.680908	0.080182	-0.021658	-0.020334	0.697603	-0.552752	-0.430973	-0.148581	-88.445489	-49.956278	24.729261
50315		8.490095	5.396776	-4.543920	10.647053	0.088693	-6.899658	0.549071	-0.151841	0.654527	-0.327637	0.998779	-0.689453	0.084758	0.054370	-0.045226	0.699267	-0.552349	-0.430111	-0.144708	-88.247126	-49.586368	24.881053
50316		1.804192	11.119292	-2.589007	9.744199	2.054930	-15.679928	0.189532	-0.129444	-0.101239	-0.332275	1.003174	-0.687500	0.018115	0.111208	-0.025773	0.699290	-0.551349	-0.431390	-0.144606	-88.242269	-49.710781	25.016115
50317		-0.134611	11.055120	-0.023497	7.459483	3.809999	-17.028894	-0.314645	-0.140629	-0.779937	-0.338623	0.994141	-0.685059	-0.000915	0.110555	-0.000410	0.697543	-0.550856	-0.433814	-0.147638	-88.503882	-50.162248	25.121931
50318		1.554176	6.793822	0.875114	5.190187	3.579104	-12.909221	-0.489915	-0.153781	-1.319978	-0.361084	0.991455	-0.676514	0.015983	0.067855	0.008597	0.694705	-0.549555	-0.438062	-0.153218	-88.891055	-50.991401	25.259811
50319		2.602870	4.080958	0.657995	4.032076	2.712442	-10.309224	-0.348251	-0.240320	-1.765678	-0.372070	0.989014	-0.683105	0.026380	0.040589	0.006541	0.691834	-0.547052	-0.443477	-0.159462	-89.243688	-52.007709	25.454974
50320		2.126991	3.405106	-0.348002	3.742604	1.446713	-10.185809	-0.211426	-0.355444	-2.176944	-0.396484	0.977539	-0.676514	0.021645	0.033813	-0.003478	0.688523	-0.542924	-0.450928	-0.166832	-89.635920	-53.331382	25.798927
50321		1.559249	3.760802	-0.641111	3.837068	1.169817	-10.757875	-0.153125	-0.436382	-2.578319	-0.418457	0.968262	-0.678711	0.016089	0.037398	-0.006405	0.684907	-0.537948	-0.459276	-0.174870	-90.064191	-54.811902	26.218986
50322		1.606801	4.390027	-0.062489	4.095562	1.943197	-10.955833	-0.154731	-0.465061	-2.981052	-0.440430	0.954346	-0.665527	0.016721	0.043654	-0.000620	0.680557	-0.531676	-0.469163	-0.184522	-90.581397	-56.594642	26.741200
50323		2.141193	4.390116	0.781941	4.007982	2.845367	-10.366832	-0.221643	-0.432365	-3.362535	-0.475586	0.936035	-0.669922	0.022129	0.043542	0.007818	0.675746	-0.524856	-0.479314	-0.195323	-91.144720	-58.519948	27.257702
50324		2.893727	3.910410	1.378267	3.723330	3.382897	-9.307842	-0.311024	-0.394216	-3.730696	-0.501953	0.919922	-0.658936	0.029633	0.038577	0.013780	0.670028	-0.516922	-0.490512	-0.207969	-91.830901	-60.729635	27.851849
50325		3.788870	3.524697	1.764401	3.597802	3.770912	-8.161993	-0.378500	-0.341188	-4.071425	-0.530518	0.901611	-0.656738	0.038566	0.034500	0.017644	0.663831	-0.508442	-0.501694	-0.221627	-92.582989	-63.055860	28.458050
