// General information: 
//  MT Manager version: 2019.2.0 
//  XDA version: 2019.2.0 build 3853 rev 94535 built on 2019-09-09
// Device information: 
//  DeviceId: 00B40A23
//  ProductCode: MTW2-3A7G6
//  Firmware Version: 4.3.5
//  Hardware Version: 1.1.0
// Device settings: 
//  Filter Profile: human(46.1)
//  Option Flags: Orientation Smoother Disabled, AHS Disabled, ICC Disabled
// Coordinate system: ENU
PacketCounter	SampleTimeFine	Acc_X	Acc_Y	Acc_Z	FreeAcc_E	FreeAcc_N	FreeAcc_U	Gyr_X	Gyr_Y	Gyr_Z	Mag_X	Mag_Y	Mag_Z	VelInc_X	VelInc_Y	VelInc_Z	Quat_q0	Quat_q1	Quat_q2	Quat_q3	Roll	Pitch	Yaw
42812		5.818304	-2.862324	7.445180	0.224900	-0.079700	0.057435	0.056072	0.063096	-0.152381	-0.799316	0.349854	-0.241943	0.058185	-0.028688	0.074425	-0.115593	0.341373	-0.119509	0.925106	-22.114590	-37.155696	-158.239715
42813		5.659403	-3.408268	7.101121	0.040268	0.544413	-0.129040	0.065369	0.058951	-0.138081	-0.810547	0.351807	-0.237549	0.056591	-0.034145	0.070983	-0.115154	0.341260	-0.118987	0.925269	-22.020265	-37.164920	-158.326549
42814		5.999066	-3.609462	6.837819	-0.416312	0.686613	-0.059329	0.107082	0.065346	-0.163548	-0.808105	0.343018	-0.241699	0.059983	-0.036180	0.068339	-0.114548	0.341020	-0.118277	0.925524	-21.887514	-37.167552	-158.449847
42815		6.256357	-2.875980	6.821702	-0.526459	-0.062860	-0.134478	0.100775	0.085078	-0.173321	-0.805908	0.343018	-0.237305	0.062568	-0.028848	0.068176	-0.113981	0.340786	-0.117545	0.925773	-21.753827	-37.170262	-158.568605
42816		5.644498	-2.874341	7.262771	0.210279	0.069602	-0.178325	0.094799	0.087682	-0.206662	-0.807861	0.338379	-0.243896	0.056447	-0.028836	0.072589	-0.113141	0.340474	-0.116830	0.926082	-21.607106	-37.169659	-158.726665
42817		5.818007	-3.523212	7.316848	0.026057	0.646098	0.156280	0.114679	0.103692	-0.214321	-0.810059	0.338379	-0.246094	0.058180	-0.035336	0.073118	-0.112388	0.340169	-0.115973	0.926393	-21.445344	-37.170703	-158.879047
42818		4.776455	-3.369371	7.625245	1.013511	0.776936	-0.290048	0.134229	0.111092	-0.214582	-0.812500	0.338379	-0.250488	0.047771	-0.033796	0.076203	-0.111564	0.339729	-0.115075	0.926766	-21.269147	-37.158550	-159.048522
42819		5.400210	-3.466790	7.354146	0.351287	0.750690	-0.087597	0.144928	0.100253	-0.228154	-0.807617	0.329590	-0.250488	0.053999	-0.034783	0.073489	-0.110793	0.339427	-0.114053	0.927095	-21.084771	-37.163416	-159.210190
42820		5.609268	-2.748744	7.373422	0.291204	0.030685	-0.153442	0.147660	0.095931	-0.245198	-0.811768	0.322754	-0.254639	0.056094	-0.027611	0.073687	-0.109859	0.339067	-0.113033	0.927463	-20.890886	-37.164786	-159.396209
42821		5.470314	-2.438430	7.500235	0.510324	-0.218225	-0.230637	0.127484	0.088547	-0.259043	-0.816162	0.320557	-0.256836	0.054705	-0.024503	0.074963	-0.108900	0.338844	-0.112031	0.927780	-20.704440	-37.181657	-159.578774
42822		5.585580	-2.420782	7.615919	0.495256	-0.260294	-0.078827	0.102291	0.070374	-0.253872	-0.815918	0.313965	-0.256592	0.055852	-0.024318	0.076127	-0.107863	0.338630	-0.111191	0.928080	-20.536825	-37.197532	-159.764229
42823		5.561733	-2.432566	7.455072	0.404837	-0.199763	-0.209327	0.077972	0.025089	-0.247180	-0.820557	0.316162	-0.261230	0.055597	-0.024423	0.074534	-0.106894	0.338718	-0.110401	0.928254	-20.391858	-37.245438	-159.925389
42824		5.789334	-2.765228	7.466282	0.202624	0.073288	0.029151	0.069642	-0.027042	-0.235750	-0.820313	0.311523	-0.260986	0.057851	-0.027746	0.074661	-0.105939	0.338963	-0.109691	0.928358	-20.264703	-37.309291	-160.074555
42825		6.311517	-2.180016	7.321829	-0.202906	-0.586760	0.077278	0.065724	-0.068984	-0.222561	-0.833984	0.311279	-0.256592	0.063066	-0.021894	0.073233	-0.105113	0.339479	-0.108950	0.928351	-20.150213	-37.402228	-160.196593
42826		5.790113	-2.262819	7.346330	0.202397	-0.352512	-0.197644	0.040807	-0.106760	-0.207168	-0.831299	0.304688	-0.256348	0.057838	-0.022703	0.073490	-0.104285	0.340092	-0.108379	0.928287	-20.062622	-37.502883	-160.307267
42827		5.066486	-3.039521	7.666764	0.875979	0.559123	-0.189423	0.041254	-0.172466	-0.237415	-0.842529	0.300049	-0.258545	0.050563	-0.030471	0.076705	-0.103393	0.341107	-0.107669	0.928097	-19.969922	-37.654306	-160.416096
42828		5.137177	-3.989269	7.670464	0.735449	1.470916	0.108817	0.074106	-0.214335	-0.343609	-0.839844	0.291260	-0.256104	0.051221	-0.040009	0.076745	-0.102047	0.342274	-0.106655	0.927933	-19.821577	-37.839197	-160.594113
42829		5.000941	-3.969123	7.716998	0.898063	1.515816	0.046877	0.133480	-0.245427	-0.422206	-0.846436	0.288818	-0.258057	0.049831	-0.039848	0.077205	-0.100470	0.343674	-0.105161	0.927758	-19.606433	-38.065410	-160.816361
42830		4.963218	-3.108781	8.233149	1.396137	0.679487	0.170879	0.188672	-0.337173	-0.499411	-0.857422	0.279785	-0.257813	0.049415	-0.031289	0.082385	-0.098661	0.345430	-0.103285	0.927511	-19.341791	-38.345376	-161.074463
42831		5.675322	-2.295068	8.524341	1.201282	-0.265573	0.609732	0.125578	-0.572357	-0.604392	-0.866455	0.277344	-0.255615	0.056439	-0.023175	0.085391	-0.096380	0.348433	-0.101350	0.926840	-19.096456	-38.781180	-161.350129
42832		4.988621	-2.792724	8.506540	1.715811	0.439861	0.282289	0.041400	-0.769876	-0.700747	-0.876953	0.259277	-0.246338	0.049460	-0.028119	0.085251	-0.093600	0.352358	-0.099592	0.925832	-18.886307	-39.331394	-161.650912
42833		5.484178	-2.881559	8.417369	1.383163	0.474360	0.535845	0.017326	-1.023608	-0.795731	-0.885498	0.250244	-0.237061	0.054295	-0.029040	0.084450	-0.090448	0.357575	-0.097602	0.924356	-18.674848	-40.045559	-161.964657
42834		5.361834	-2.652546	8.285169	1.529374	0.362842	0.284674	0.012617	-1.274396	-0.865715	-0.895752	0.225586	-0.218750	0.052973	-0.026761	0.083189	-0.087094	0.363897	-0.095444	0.922434	-18.470102	-40.898171	-162.273715
42835		5.167201	-2.590425	8.630153	2.067392	0.381581	0.359189	0.009529	-1.617143	-0.943012	-0.908691	0.209717	-0.191650	0.050849	-0.026149	0.086714	-0.083491	0.371878	-0.092947	0.919835	-18.267623	-41.960031	-162.571293
42836		5.457897	-2.510071	8.428649	1.916761	0.342097	0.352736	0.008666	-1.981842	-1.058062	-0.916748	0.187256	-0.173584	0.053606	-0.025390	0.084820	-0.079562	0.381483	-0.090135	0.916524	-18.063933	-43.230447	-162.869458
42837		5.075815	-2.402408	9.006254	2.835597	0.353848	0.408645	0.007203	-2.408675	-1.215563	-0.916260	0.173828	-0.148682	0.049521	-0.024331	0.090663	-0.075005	0.393116	-0.086790	0.912306	-17.825858	-44.770151	-163.208634
42838		4.571863	-2.869821	10.026390	4.174327	0.918065	0.741352	0.020698	-2.876759	-1.358696	-0.926514	0.151367	-0.108154	0.044074	-0.029012	0.100903	-0.070091	0.406796	-0.082963	0.907040	-17.573358	-46.579589	-163.549291
42839		3.956713	-3.874803	11.333770	5.848932	2.019763	1.178983	-0.004752	-3.349410	-1.514533	-0.934814	0.137695	-0.072510	0.037367	-0.039034	0.113977	-0.064501	0.422623	-0.078695	0.900576	-17.292961	-48.681955	-163.936246
42840		3.037835	-4.835069	11.918243	7.244541	3.203797	0.764488	-0.122341	-3.873387	-1.809963	-0.942139	0.095215	-0.033691	0.027624	-0.048536	0.119765	-0.057605	0.440743	-0.074183	0.892706	-16.968468	-51.110806	-164.456068
42841		3.478061	-6.625979	10.906463	6.579087	5.114529	0.457259	-0.089157	-4.462688	-2.329427	-0.939209	0.077393	0.013184	0.031561	-0.066591	0.109822	-0.048549	0.461474	-0.068128	0.883201	-16.299088	-53.952872	-165.369350
42842		4.479608	-6.793653	10.956516	6.610367	5.310577	0.878949	-0.122276	-5.163251	-3.024153	-0.935547	0.039551	0.071777	0.040915	-0.068507	0.110697	-0.036652	0.485149	-0.060436	0.871570	-15.108023	-57.272618	-166.900644
42843		5.152267	-10.117547	9.527736	5.710353	8.862169	0.601468	0.019631	-6.013239	-3.802614	-0.927246	0.006104	0.130127	0.046693	-0.102103	0.096720	-0.021924	0.512243	-0.049979	0.857105	-12.951052	-61.151742	-169.396321
42844		6.148677	-8.433763	9.674683	6.125416	7.423282	0.665572	0.584267	-6.911340	-4.597959	-0.909180	-0.053711	0.197998	0.056138	-0.085956	0.098499	-0.005428	0.542518	-0.034932	0.839300	-8.967404	-65.545648	-173.478876
42845		9.033861	-6.905548	9.131176	5.308601	6.246446	2.242502	0.593399	-7.513432	-5.247182	-0.886963	-0.102295	0.278809	0.084974	-0.071609	0.094362	0.013673	0.574410	-0.017979	0.818256	-2.313553	-70.139105	179.709650
42846		15.807593	-5.816572	12.064009	7.006688	5.740832	8.811699	0.629660	-7.826827	-5.674630	-0.855957	-0.150879	0.337646	0.151461	-0.062919	0.126462	0.034357	0.606319	0.000344	0.794479	9.058238	-74.448965	168.159883
42847		15.631296	-7.300843	10.818027	7.448688	8.131775	7.296806	0.788094	-7.678362	-5.901592	-0.815918	-0.194580	0.409424	0.149765	-0.077934	0.113715	0.055382	0.636252	0.020021	0.769230	28.113629	-77.589014	149.003920
42848		14.389632	-5.580549	10.122355	8.232684	7.088037	5.100303	0.581861	-7.379055	-5.837845	-0.769043	-0.242920	0.463379	0.138323	-0.060203	0.106226	0.076661	0.663512	0.038727	0.743219	53.819709	-78.617765	123.090988
42849		16.308825	-8.076598	13.710785	13.029581	10.339690	5.748580	0.087360	-7.297822	-5.573540	-0.724854	-0.281982	0.512939	0.155610	-0.085235	0.142842	0.098415	0.688900	0.054666	0.716061	78.155414	-77.376807	98.277477
42850		19.380143	-8.658506	13.852662	14.423314	12.105273	7.144525	-0.214812	-6.227712	-5.014817	-0.683105	-0.314697	0.549072	0.187114	-0.091180	0.144520	0.118738	0.709182	0.068027	0.691618	93.299245	-74.755004	82.554212
42851		22.498781	-12.927991	24.950136	26.963392	16.536402	7.365811	-0.354211	-3.844031	-3.202063	-0.655762	-0.325439	0.566895	0.218032	-0.132361	0.253969	0.132342	0.720960	0.075797	0.675986	99.875179	-72.679777	75.488970
42852		41.538197	-27.685747	31.613776	36.640148	35.304203	20.227743	-1.057634	-0.176662	0.556602	-0.680420	-0.323486	0.546875	0.415867	-0.274022	0.317959	0.134349	0.721071	0.070065	0.676090	99.775912	-72.977769	74.955382
42853		-8.650026	-25.812128	15.650902	17.116363	20.817996	-25.925212	-0.138962	1.535706	2.412728	-0.697510	-0.290527	0.541992	-0.082173	-0.259021	0.157331	0.126442	0.716536	0.061691	0.683215	97.395078	-74.471124	77.307823
42854		-11.551912	-14.249906	12.243224	12.712513	9.734819	-24.978353	0.903366	0.808676	2.513405	-0.714355	-0.259766	0.530273	-0.113217	-0.144484	0.122243	0.114370	0.715066	0.056246	0.687340	96.857020	-75.958803	78.396360
42855		-3.071533	-4.566402	14.381572	14.525970	2.549345	-14.240700	0.764189	0.439897	2.562810	-0.728760	-0.235596	0.527588	-0.029806	-0.046599	0.143705	0.103018	0.714612	0.049696	0.690107	96.942247	-77.442450	78.710010
42856		2.190973	0.379080	16.853248	16.850318	-1.259734	-7.954377	-0.202144	0.920603	2.917590	-0.745605	-0.207031	0.509277	0.022625	0.004288	0.168425	0.093443	0.711989	0.039011	0.694851	95.156585	-79.161823	80.411905
42857		3.414439	-0.194201	17.072436	17.098092	-0.658545	-6.592684	-1.195568	1.858760	3.261648	-0.766846	-0.182861	0.486572	0.035743	-0.000348	0.170402	0.086300	0.705412	0.023862	0.703119	88.654019	-81.062725	86.269607
42858		2.566710	-2.496704	14.911628	15.068497	1.425064	-7.350851	-1.504155	2.689794	3.181665	-0.783691	-0.151855	0.454834	0.028052	-0.023413	0.148930	0.080088	0.695531	0.008477	0.713968	75.332278	-82.664828	98.850742
42859		4.625532	-2.792044	13.692413	13.727021	1.862268	-4.838705	-1.247621	3.400959	2.838583	-0.811768	-0.125732	0.425537	0.048958	-0.026387	0.136275	0.074326	0.682747	-0.004684	0.726849	54.447059	-83.316876	119.136610
42860		7.045229	-0.823785	13.628124	13.031614	-0.054285	-1.678171	-0.955317	4.152839	2.531975	-0.824219	-0.096924	0.380615	0.073353	-0.006675	0.134812	0.068469	0.667050	-0.015285	0.741702	32.064835	-82.567771	141.130451
42861		9.144099	1.613776	13.822937	12.238451	-2.565428	1.181331	-1.019343	4.896090	2.446304	-0.847412	-0.074951	0.333740	0.094574	0.017978	0.135851	0.063204	0.648006	-0.025698	0.758573	15.121244	-80.528704	157.645685
42862		10.226561	2.463489	12.854799	10.341112	-3.512773	2.698786	-1.368374	5.588673	2.510756	-0.857422	-0.055176	0.282227	0.105473	0.026811	0.125452	0.058809	0.625757	-0.037273	0.776904	4.190241	-77.604947	167.972500
42863		9.954686	2.007827	11.180821	8.037514	-3.180217	2.570306	-1.682655	6.108385	2.571343	-0.885498	-0.026611	0.226318	0.102618	0.022307	0.108523	0.055180	0.600583	-0.050173	0.796077	-2.846493	-74.103265	174.218982
42864		9.759567	1.476472	10.064565	6.261429	-2.820191	2.495206	-1.832118	6.384528	2.557233	-0.890869	-0.004395	0.170166	0.100531	0.016940	0.097319	0.052074	0.573668	-0.063380	0.814970	-7.435197	-70.329755	177.929732
42865		9.908605	0.792128	9.698485	5.096133	-2.402450	2.877605	-1.883452	6.480560	2.561751	-0.907715	0.022217	0.107666	0.102036	0.010108	0.093622	0.048969	0.545470	-0.076799	0.833167	-10.737712	-66.413347	-179.687273
42866		10.313826	-0.374184	9.240754	3.807281	-1.486733	3.420531	-1.823102	6.447313	2.622864	-0.906494	0.044678	0.044922	0.106075	-0.001541	0.089040	0.045461	0.516832	-0.089948	0.850134	-13.259630	-62.490030	-178.054681
42867		10.717206	-2.028158	8.811631	2.602512	-0.100596	3.962355	-1.641443	6.317887	2.739663	-0.912598	0.086914	-0.015869	0.110144	-0.018081	0.084822	0.040743	0.487925	-0.102640	0.865872	-15.346610	-58.575168	-176.744945
42868		11.281249	-3.697687	8.732991	1.589832	1.217026	4.785625	-1.345562	6.120698	2.911169	-0.911377	0.107178	-0.089600	0.115935	-0.034731	0.084052	0.034539	0.459394	-0.114289	0.880172	-17.071567	-54.744501	-175.607703
42869		11.542316	-4.254381	9.013325	0.791873	1.356202	5.353441	-1.061723	5.869704	3.115748	-0.894531	0.138672	-0.145996	0.118644	-0.040245	0.086900	0.026417	0.431213	-0.125183	0.893133	-18.599414	-50.975286	-174.461207
42870		12.224052	-4.442906	9.204115	-0.430723	1.105872	6.073909	-0.932151	5.543902	3.339268	-0.875732	0.170410	-0.204346	0.125446	-0.041933	0.088792	0.016968	0.404039	-0.135775	0.904450	-20.014039	-47.347226	-173.302253
42871		13.998025	-5.606574	8.949554	-2.642045	1.747244	7.430832	-0.890176	5.123360	3.542462	-0.845703	0.204346	-0.256348	0.143174	-0.053160	0.086096	0.006069	0.378056	-0.146604	0.914081	-21.429696	-43.862269	-172.047412
42872		18.085232	-7.187873	8.594082	-6.670929	2.447370	10.236525	-0.842424	4.730110	3.745357	-0.811035	0.236328	-0.294922	0.184120	-0.068100	0.081904	-0.005997	0.353518	-0.157351	0.922079	-22.796052	-40.545814	-170.737366
42873		22.796032	-7.693370	8.230105	-11.565535	1.784476	12.758041	-0.738646	4.452886	4.101798	-0.773926	0.268311	-0.331299	0.231230	-0.071921	0.077448	-0.020229	0.329487	-0.168220	0.928833	-24.162168	-37.248313	-169.253346
42874		24.550096	-6.466471	7.059730	-14.931166	-0.102664	11.894154	-0.619121	4.229569	4.557901	-0.727539	0.287109	-0.358643	0.248308	-0.058818	0.065553	-0.036815	0.305940	-0.178977	0.934351	-25.490849	-33.954340	-167.586574
42875		24.706544	-3.406208	5.602805	-17.051946	-3.445226	8.910319	-0.555659	3.898931	4.944914	-0.690674	0.323242	-0.379639	0.248835	-0.027777	0.051271	-0.055568	0.283123	-0.189871	0.938458	-26.806238	-30.683515	-165.741797
42876		24.439961	-0.499770	3.430046	-18.757153	-6.287629	4.944263	-0.508037	3.459964	5.100040	-0.651123	0.346436	-0.395752	0.244964	0.001325	0.030067	-0.075476	0.262080	-0.200372	0.940994	-28.039124	-27.579816	-163.814580
42877		24.404296	1.209072	0.402604	-20.660564	-7.679602	0.731978	-0.315764	3.012152	4.968631	-0.622559	0.362549	-0.402832	0.243666	0.018150	0.000329	-0.095399	0.242834	-0.209510	0.942357	-29.051057	-24.689409	-161.948018
42878		24.519514	3.169646	-3.228355	-22.545243	-8.963093	-4.075844	0.134380	2.561755	4.504740	-0.596191	0.378662	-0.418945	0.243958	0.037224	-0.035390	-0.114082	0.225927	-0.215524	0.943129	-29.641431	-22.146829	-160.277094
42879		24.676285	6.421867	-6.704549	-23.830808	-11.263853	-9.344603	0.637185	2.148743	3.729968	-0.576416	0.387939	-0.426025	0.244768	0.069015	-0.069468	-0.130058	0.211285	-0.217980	0.943890	-29.763475	-20.008529	-158.941502
42880		24.769012	11.996793	-8.851389	-23.717521	-15.834745	-14.549656	0.760950	1.772841	2.718682	-0.564941	0.383789	-0.427979	0.245231	0.123654	-0.090229	-0.141755	0.199458	-0.218409	0.944680	-29.627269	-18.356416	-158.038531
42881		24.513283	16.193976	-10.502930	-23.113745	-19.002872	-18.648272	0.207161	1.432656	1.557294	-0.554199	0.392822	-0.441650	0.243102	0.163948	-0.106606	-0.147757	0.190799	-0.220038	0.945170	-29.632394	-17.196590	-157.649176
42882		24.801221	17.938950	-11.581286	-23.333084	-20.163493	-20.767912	-0.728780	1.074831	0.410729	-0.545166	0.393066	-0.437256	0.247014	0.179471	-0.117796	-0.147831	0.185829	-0.224687	0.945055	-30.022962	-16.547228	-157.752848
42883		24.741739	15.451221	-12.630341	-24.310123	-17.311223	-20.755107	-1.510141	0.710576	-0.508704	-0.547363	0.390625	-0.435059	0.247354	0.152919	-0.128341	-0.143238	0.184160	-0.231889	0.944349	-30.756439	-16.343368	-158.226966
42884		23.626355	10.785716	-12.689273	-24.454433	-12.457378	-18.885782	-1.635870	0.316368	-1.263511	-0.547607	0.397461	-0.432861	0.236732	0.105318	-0.128135	-0.135405	0.185320	-0.238688	0.943584	-31.487008	-16.564238	-158.967735
42885		23.000782	6.281494	-11.363067	-24.349075	-8.474030	-15.548375	-1.229365	-0.114666	-1.826528	-0.556396	0.395020	-0.426270	0.230630	0.060011	-0.113873	-0.125797	0.188911	-0.242705	0.943177	-31.934035	-17.174931	-159.857733
42886		19.826127	-0.686053	-10.128716	-22.139802	-1.606673	-11.646664	-0.489137	-0.577930	-2.212170	-0.562500	0.379395	-0.425781	0.198459	-0.009302	-0.100693	-0.115610	0.194642	-0.242566	0.943351	-31.931786	-18.128203	-160.799578
42887		-0.278780	-16.392076	-7.685545	-4.921225	17.343953	-8.144798	2.510949	-1.816162	-3.402424	-0.581787	0.352295	-0.420654	-0.004854	-0.162867	-0.078943	-0.104194	0.205914	-0.226296	0.946326	-30.103022	-20.033327	-161.995012
42888		-2.954130	-6.058885	14.012552	8.329438	1.006243	3.277661	2.499533	-2.858589	-3.154104	-0.599121	0.333984	-0.409180	-0.032501	-0.061833	0.138907	-0.095060	0.221668	-0.209691	0.947553	-28.373670	-22.347161	-162.825067
42889		-10.124659	-8.816297	4.599494	10.322222	9.114837	-6.389306	1.994242	-4.200313	-2.080248	-0.620605	0.309082	-0.384033	-0.103083	-0.087536	0.042968	-0.091798	0.242803	-0.195886	0.945647	-27.265375	-25.039870	-162.745387
42890		12.988038	1.242513	14.733014	-3.299930	-9.215538	7.256286	1.618843	-5.888865	-1.760218	-0.642822	0.304199	-0.359375	0.125562	0.010094	0.151158	-0.091174	0.271527	-0.183322	0.940401	-26.660526	-28.506556	-162.035604
42891		28.421219	12.239610	21.191167	-10.616546	-24.927975	16.114684	1.232105	-4.817471	-1.802929	-0.664795	0.290283	-0.330078	0.280067	0.118522	0.219430	-0.088761	0.295242	-0.172834	0.935458	-26.133067	-31.445750	-161.682813
42892		44.807237	5.750356	25.117777	-20.628444	-23.709881	31.219669	1.097671	-3.036353	-1.925585	-0.680176	0.285645	-0.323242	0.444704	0.051807	0.258241	-0.083994	0.310593	-0.163506	0.932600	-25.357438	-33.494129	-161.961678
42893		18.696499	-5.031946	8.195738	-10.066957	-2.094383	8.526164	0.654214	-0.638241	-0.974540	-0.691895	0.294189	-0.332275	0.186454	-0.051498	0.082386	-0.080998	0.314183	-0.158640	0.932503	-24.748230	-34.073409	-162.379207
42894		10.615597	-6.521061	6.891147	-4.428279	1.820367	3.595389	0.706241	-1.204400	-0.686257	-0.693848	0.289795	-0.327637	0.105514	-0.065818	0.069316	-0.079869	0.320073	-0.153804	0.931407	-24.299615	-34.866634	-162.462344
42895		8.125500	2.172640	8.114457	-1.156043	-5.911666	0.202411	0.753262	-0.960904	-0.589338	-0.707520	0.291748	-0.329834	0.080927	0.021181	0.081614	-0.079078	0.324801	-0.148936	0.930628	-23.809680	-35.519753	-162.560173
42896		8.598841	-0.375435	9.110492	-0.922021	-3.752764	2.109851	0.558217	-0.865653	-0.553148	-0.718506	0.289307	-0.329834	0.085582	-0.004246	0.091465	-0.078062	0.329041	-0.145123	0.929827	-23.428759	-36.103412	-162.669850
42897		13.017404	-4.774524	7.343481	-5.598006	-0.179559	4.843541	0.491218	-0.287832	-0.344938	-0.732422	0.295654	-0.336670	0.129985	-0.048150	0.073504	-0.077487	0.330546	-0.142120	0.929805	-23.061781	-36.346097	-162.809608
42898		6.931461	-4.510108	7.777945	-0.604237	0.985424	1.480955	0.285404	-0.096627	-0.178504	-0.750488	0.297607	-0.336426	0.069237	-0.045274	0.077748	-0.077205	0.331036	-0.140488	0.929902	-22.849835	-36.439242	-162.896431
42899		6.628854	-5.347060	6.773280	-1.048325	2.098273	0.813142	0.254176	-0.036038	-0.186542	-0.752686	0.297607	-0.338623	0.066226	-0.053618	0.067677	-0.076794	0.331351	-0.138947	0.930055	-22.637306	-36.513208	-163.004380
42900		6.880169	-2.503934	7.567039	-0.591830	-0.794838	0.669889	0.210868	0.024039	-0.178354	-0.763916	0.297363	-0.347656	0.068788	-0.025180	0.075636	-0.076305	0.331307	-0.137708	0.930295	-22.447743	-36.541960	-163.125073
42901		6.831771	-2.725284	7.463994	-0.632264	-0.525931	0.634086	0.149562	0.019295	-0.148410	-0.775146	0.299316	-0.345215	0.068305	-0.027359	0.074613	-0.075860	0.331377	-0.136739	0.930450	-22.300863	-36.577749	-163.223526
42902		6.818082	-2.757458	7.156837	-0.821704	-0.407222	0.408323	0.169347	0.031036	-0.158062	-0.781738	0.292480	-0.347412	0.068170	-0.027689	0.071534	-0.075391	0.331302	-0.135728	0.930663	-22.141677	-36.597848	-163.332996
42903		6.142895	-3.462539	7.225016	-0.297850	0.430916	0.269511	0.198032	0.069308	-0.182907	-0.793213	0.301270	-0.347412	0.061422	-0.034753	0.072195	-0.074867	0.331144	-0.134507	0.930938	-21.948352	-36.613153	-163.462590
42904		6.648809	-3.621205	7.154717	-0.747372	0.511148	0.564683	0.239107	0.087176	-0.245920	-0.799316	0.285645	-0.347168	0.066475	-0.036379	0.071475	-0.074068	0.330839	-0.133046	0.931321	-21.705410	-36.621503	-163.645392
42905		6.438734	-3.869924	6.889670	-0.774614	0.886022	0.312330	0.264399	0.127766	-0.289662	-0.804199	0.294434	-0.351807	0.064375	-0.038883	0.068804	-0.073111	0.330454	-0.131359	0.931772	-21.422013	-36.627371	-163.862225
42906		6.859059	-2.270342	7.148163	-0.866617	-0.746003	0.286307	0.258039	0.119891	-0.324739	-0.810791	0.287598	-0.355957	0.068596	-0.022907	0.071411	-0.071954	0.330039	-0.129691	0.932243	-21.131774	-36.633233	-164.106063
42907		6.520347	-2.010350	7.563216	-0.338002	-0.963317	0.322220	0.208691	0.100630	-0.264229	-0.812988	0.289795	-0.355957	0.065215	-0.020269	0.075578	-0.071043	0.329782	-0.128295	0.932597	-20.894639	-36.646666	-164.298772
42908		6.463799	-2.113699	7.871902	-0.111343	-0.883556	0.551778	0.139433	0.062931	-0.198275	-0.823975	0.282959	-0.349121	0.064642	-0.021256	0.078684	-0.070316	0.329592	-0.127368	0.932846	-20.731237	-36.655704	-164.443852
42909		5.764287	-2.698233	7.454321	0.133543	-0.073251	-0.012119	0.097896	0.071364	-0.142311	-0.823975	0.282959	-0.344727	0.057650	-0.027060	0.074509	-0.069809	0.329431	-0.126675	0.933036	-20.610088	-36.659263	-164.548118
42910		5.598831	-2.739821	7.463025	0.260328	0.015706	-0.092490	0.103032	0.052842	-0.142366	-0.826172	0.280518	-0.346924	0.055988	-0.027477	0.074601	-0.069288	0.329264	-0.126007	0.933224	-20.491318	-36.661936	-164.653345
42911		5.574260	-2.974776	7.137412	0.062020	0.324562	-0.286139	0.094507	0.026177	-0.163200	-0.833008	0.282715	-0.340332	0.055728	-0.029827	0.071353	-0.068702	0.329326	-0.125278	0.933343	-20.369990	-36.693554	-164.761024
42912		5.296406	-3.269489	7.370971	0.411897	0.638982	-0.195271	0.098138	0.006453	-0.197676	-0.839844	0.284668	-0.338135	0.052934	-0.032783	0.073692	-0.067945	0.329412	-0.124525	0.933469	-20.238611	-36.731788	-164.891905
42913		5.363225	-3.144767	7.623908	0.530018	0.477258	-0.001011	0.097610	-0.009314	-0.199303	-0.841797	0.280273	-0.331299	0.053597	-0.031538	0.076226	-0.067227	0.329660	-0.123713	0.933542	-20.106671	-36.788876	-165.014050
42914		5.248339	-3.000174	7.817757	0.751929	0.343841	0.035144	0.082511	-0.022123	-0.188088	-0.837158	0.271484	-0.331055	0.052446	-0.030083	0.078171	-0.066506	0.329877	-0.123038	0.933606	-19.991893	-36.840140	-165.131859
42915		5.934190	-2.618516	7.310991	-0.075081	-0.052652	-0.039592	0.065498	-0.051216	-0.170584	-0.848145	0.271240	-0.324463	0.059301	-0.026260	0.073117	-0.065886	0.330311	-0.122408	0.933579	-19.894919	-36.913753	-165.226211
42916		6.443439	-1.911909	7.414516	-0.365934	-0.841123	0.152599	0.043048	-0.064165	-0.144948	-0.845947	0.271240	-0.320068	0.064397	-0.019182	0.074162	-0.065328	0.330710	-0.121974	0.933534	-19.825925	-36.978965	-165.305107
42917		6.188596	-1.927966	7.219724	-0.282470	-0.727022	-0.141502	0.011154	-0.084314	-0.118301	-0.846191	0.275635	-0.313477	0.061844	-0.019320	0.072222	-0.064879	0.331283	-0.121671	0.933402	-19.785334	-37.060134	-165.357068
42918		5.925247	-2.414664	7.772631	0.263424	-0.301123	0.246779	-0.013246	-0.112707	-0.094293	-0.852539	0.268799	-0.315430	0.059197	-0.024169	0.077761	-0.064493	0.331897	-0.121568	0.933224	-19.776032	-37.141607	-165.390195
42919		5.701585	-2.663889	7.609041	0.337503	0.018630	0.055829	-0.022824	-0.122123	-0.083601	-0.845947	0.273438	-0.306641	0.056958	-0.026654	0.076128	-0.064181	0.332635	-0.121469	0.932995	-19.774929	-37.236186	-165.408425
42920		5.533177	-2.878251	7.731630	0.551666	0.238821	0.102811	-0.037154	-0.129926	-0.083874	-0.846191	0.275635	-0.306641	0.055269	-0.028791	0.077358	-0.063814	0.333330	-0.121489	0.932770	-19.786013	-37.324922	-165.430375
42921		6.025775	-2.683124	7.238630	-0.117106	0.047534	-0.020298	-0.020769	-0.137236	-0.105791	-0.854736	0.262207	-0.302002	0.060194	-0.026856	0.072430	-0.063423	0.334150	-0.121341	0.932522	-19.777535	-37.431569	-165.458449
42922		6.021596	-2.499542	7.376667	-0.001987	-0.147653	0.031129	-0.016654	-0.156369	-0.132406	-0.852539	0.266602	-0.304199	0.060142	-0.025029	0.073816	-0.062880	0.334990	-0.121176	0.932279	-19.760620	-37.543965	-165.507003
42923		6.287109	-3.154008	7.245630	-0.291175	0.464212	0.270682	-0.003036	-0.192291	-0.181371	-0.859131	0.261963	-0.299805	0.062773	-0.031596	0.072517	-0.062177	0.336106	-0.120797	0.931974	-19.716889	-37.695279	-165.576590
42924		5.094802	-3.156906	7.480916	0.796118	0.672232	-0.283710	0.020596	-0.189819	-0.232746	-0.861328	0.259766	-0.299561	0.050840	-0.031636	0.074854	-0.061249	0.337150	-0.120278	0.931725	-19.641248	-37.845020	-165.685868
42925		5.311300	-2.830306	7.919727	0.949898	0.253173	0.085601	0.031132	-0.232828	-0.280836	-0.865479	0.252930	-0.294922	0.052981	-0.028390	0.079255	-0.060159	0.338500	-0.119560	0.931399	-19.541144	-38.037088	-165.815077
42926		5.061578	-2.994814	7.745316	1.055570	0.510453	-0.158493	-0.012791	-0.323646	-0.329849	-0.865234	0.248535	-0.294922	0.050441	-0.030026	0.077537	-0.058802	0.340233	-0.118992	0.930927	-19.462235	-38.277412	-165.959664
42927		5.640914	-2.602845	7.546324	0.541020	0.081319	-0.053478	0.012746	-0.430322	-0.402159	-0.872070	0.248535	-0.286133	0.056194	-0.026146	0.075583	-0.057221	0.342573	-0.118091	0.930282	-19.347630	-38.598891	-166.128143
42928		5.373801	-2.834367	7.827271	0.974314	0.330302	0.042200	-0.024330	-0.518735	-0.457469	-0.873779	0.235107	-0.283447	0.053470	-0.028457	0.078415	-0.055365	0.345287	-0.117300	0.929491	-19.246843	-38.968471	-166.316236
42929		5.517868	-3.132077	7.613047	0.785800	0.660328	0.044352	-0.002538	-0.640436	-0.515232	-0.882568	0.230469	-0.272217	0.054854	-0.031461	0.076307	-0.053350	0.348664	-0.116214	0.928484	-19.119056	-39.424256	-166.516836
42930		5.005291	-3.157445	8.016346	1.515531	0.739779	0.007667	0.017538	-0.774579	-0.591793	-0.893555	0.225830	-0.263184	0.049648	-0.031729	0.080353	-0.051089	0.352620	-0.114921	0.927277	-18.968374	-39.956861	-166.741884
42931		5.407987	-3.025475	8.035030	1.325767	0.579048	0.230595	0.005503	-0.927762	-0.673722	-0.902100	0.209961	-0.258301	0.053604	-0.030438	0.080599	-0.048505	0.357399	-0.113438	0.925767	-18.800631	-40.596801	-166.993211
42932		6.071256	-2.681908	7.713425	0.736398	0.236471	0.333739	0.012574	-1.122887	-0.773858	-0.908203	0.198730	-0.242676	0.060174	-0.027057	0.077471	-0.045588	0.363049	-0.111751	0.923920	-18.613176	-41.350860	-167.272811
42933		6.149466	-2.382008	7.828982	0.895451	-0.030515	0.384274	0.040828	-1.318119	-0.846342	-0.916748	0.185303	-0.233398	0.060875	-0.024095	0.078687	-0.042461	0.369684	-0.109690	0.921683	-18.390351	-42.232976	-167.569987
42934		5.460327	-2.307239	8.392258	1.939221	-0.029434	0.277127	0.050438	-1.555335	-0.903023	-0.927490	0.169434	-0.208496	0.053844	-0.023338	0.084337	-0.039250	0.377346	-0.107483	0.918976	-18.171182	-43.243927	-167.854894
42935		5.585154	-2.892305	8.345501	2.008584	0.595521	0.425174	0.079433	-1.844228	-0.965540	-0.935791	0.155762	-0.183838	0.054938	-0.029223	0.083953	-0.035906	0.386390	-0.104896	0.915648	-17.930797	-44.431877	-168.135345
42936		5.199702	-3.122399	8.670012	2.729301	0.897818	0.370381	0.144076	-2.140505	-1.074217	-0.946045	0.133301	-0.154297	0.050896	-0.031562	0.087226	-0.032391	0.396723	-0.101799	0.911701	-17.641557	-45.790201	-168.431423
42937		5.324282	-3.160799	9.084540	3.201859	0.940597	0.662193	0.181668	-2.495834	-1.212914	-0.949951	0.117676	-0.134033	0.051911	-0.032008	0.091470	-0.028424	0.408730	-0.098122	0.906920	-17.284855	-47.374272	-168.780129
42938		5.450363	-2.792426	9.495753	3.715656	0.600285	0.840762	0.171750	-2.917208	-1.392807	-0.958252	0.097412	-0.091309	0.052915	-0.028378	0.095713	-0.023891	0.422588	-0.094099	0.901107	-16.887374	-49.208955	-169.184822
42939		4.431189	-3.853746	10.350292	5.420448	1.749852	0.635028	0.144088	-3.475040	-1.631838	-0.961914	0.081543	-0.048828	0.042188	-0.038962	0.104220	-0.018394	0.438988	-0.089546	0.893830	-16.405920	-51.395099	-169.705783
42940		3.877679	-5.216530	10.990146	6.750925	3.186133	0.544734	0.240751	-4.177494	-2.011634	-0.967285	0.043457	-0.001465	0.035943	-0.052669	0.110609	-0.011801	0.458440	-0.083677	0.884699	-15.688470	-54.016600	-170.437897
42941		4.036979	-6.155025	11.097594	7.309287	4.240981	0.477115	0.337147	-4.978406	-2.573910	-0.957031	0.016846	0.050293	0.036795	-0.062227	0.111817	-0.003182	0.481395	-0.075948	0.873201	-14.492854	-57.164023	-171.656821
42942		3.332897	-7.923920	11.742314	8.947315	6.151703	-0.127621	0.446200	-5.925707	-3.262790	-0.951172	-0.018799	0.133057	0.028534	-0.079994	0.118138	0.007737	0.508240	-0.066040	0.858645	-12.536318	-60.905265	-173.642789
42943		5.463801	-8.141484	10.415826	7.493313	6.658239	0.387173	0.612645	-6.889249	-4.063794	-0.934082	-0.054199	0.193848	0.049342	-0.082776	0.105667	0.021345	0.538817	-0.053290	0.840464	-9.142449	-65.228840	-177.052245
42944		10.442296	-6.875453	12.252264	7.951249	5.469830	4.784914	0.596014	-7.484547	-4.686007	-0.909424	-0.107178	0.272461	0.098095	-0.071475	0.126063	0.037413	0.571065	-0.038943	0.819127	-3.497156	-69.795050	177.209603
42945		16.911599	-10.473852	12.806265	8.090083	9.721780	10.170988	0.584287	-7.608489	-5.223139	-0.883057	-0.146973	0.344238	0.161276	-0.109405	0.133984	0.055615	0.602769	-0.023025	0.795642	6.372008	-74.099298	167.190686
42946		20.317214	-12.726943	9.999766	6.475969	13.317955	11.518756	1.047211	-6.967978	-5.486289	-0.844971	-0.199707	0.402832	0.195941	-0.133257	0.106222	0.073425	0.630821	-0.004277	0.772434	22.856626	-77.203858	150.804618
42947		25.311707	-9.432941	14.294027	11.074988	11.211593	16.361899	1.057731	-6.227127	-5.177573	-0.801025	-0.229980	0.452148	0.245949	-0.101541	0.150149	0.089894	0.654865	0.013827	0.750253	44.297674	-78.562992	129.504881
42948		14.410411	-8.443140	12.420730	11.825269	9.609933	4.359240	1.178619	-5.112348	-5.006279	-0.777344	-0.258545	0.488281	0.138691	-0.088693	0.127285	0.105113	0.673810	0.032297	0.730676	64.550346	-77.927756	109.513966
42949		13.888243	0.861173	29.006775	27.957076	-0.705110	6.087800	-0.055904	-3.052370	-3.777735	-0.756348	-0.280518	0.495361	0.134565	0.006124	0.292142	0.119569	0.684138	0.043159	0.718190	75.062186	-76.497570	98.700097
42950		27.691237	-14.519892	32.135963	32.778935	16.905097	15.683771	-2.607869	-0.311281	-1.464097	-0.755615	-0.298096	0.478027	0.275358	-0.143008	0.323663	0.133810	0.683320	0.038579	0.716715	75.145322	-75.735038	97.072122
42951		-8.399890	-20.397172	15.564729	18.804327	15.294546	-21.698756	-2.851881	1.216427	-0.449417	-0.769287	-0.298340	0.453613	-0.083493	-0.201532	0.159042	0.145054	0.676860	0.030586	0.721030	71.202455	-75.284544	99.434970
42952		-8.287183	-19.654300	10.908532	14.564551	14.913659	-21.619637	-1.666894	0.880430	-0.515593	-0.775391	-0.313965	0.436279	-0.082890	-0.195409	0.111082	0.152422	0.672382	0.026926	0.723841	68.854525	-74.837142	100.873341
42953		-1.653985	-13.139691	12.705080	15.033692	9.915364	-13.344862	-0.942612	0.827104	-0.055091	-0.786865	-0.307373	0.422852	-0.016049	-0.130791	0.127735	0.155800	0.668611	0.024188	0.726705	66.723184	-74.628948	102.499933
42954		1.023799	-9.308648	13.719923	15.200548	6.691483	-9.505124	-1.003958	1.277003	0.962953	-0.800781	-0.298828	0.400391	0.011562	-0.092343	0.137593	0.155505	0.663292	0.018281	0.731798	62.868105	-74.819433	105.896621
42955		0.114271	-7.463570	13.420371	14.629577	4.663527	-9.624294	-1.332040	1.769319	1.962630	-0.815186	-0.276855	0.373535	0.003059	-0.073716	0.134675	0.152728	0.655831	0.008105	0.739253	56.666309	-75.278713	111.496681
42956		-0.410829	-6.840832	12.085536	13.270946	4.109113	-9.743670	-1.427784	2.045785	2.633965	-0.836182	-0.257080	0.346436	-0.001975	-0.067578	0.121367	0.147574	0.647194	-0.004281	0.747893	48.690327	-75.772369	118.885270
42957		2.027809	-5.831436	12.103857	12.739749	3.560754	-6.711240	-1.290616	2.360937	3.030588	-0.850830	-0.226318	0.321533	0.022580	-0.057202	0.121153	0.140562	0.637140	-0.017330	0.757624	39.187514	-76.000415	127.895267
42958		5.357496	-4.327082	12.919383	12.500992	2.428182	-2.592254	-1.094294	2.873977	3.288898	-0.872314	-0.193115	0.280762	0.056120	-0.041657	0.128630	0.131810	0.625056	-0.029961	0.768787	28.701460	-75.688905	138.058148
42959		7.216714	-2.666294	13.396244	11.867305	0.819024	0.041348	-0.977841	3.570022	3.464091	-0.891846	-0.157959	0.242432	0.074984	-0.024729	0.132765	0.122077	0.609883	-0.042327	0.781888	18.138018	-74.591066	148.388227
42960		7.856707	-0.925814	13.146271	10.575307	-0.959465	1.259809	-0.962499	4.254115	3.516303	-0.899902	-0.124512	0.197266	0.081479	-0.007215	0.129788	0.112124	0.591701	-0.054230	0.796478	8.952814	-72.691056	157.380171
42961		7.482734	0.285374	12.252734	8.973045	-2.222484	1.173488	-1.038418	4.805620	3.441709	-0.914795	-0.091309	0.141113	0.077670	0.004804	0.120662	0.102708	0.570684	-0.065963	0.812047	1.701554	-70.117818	164.388836
42962		6.943012	0.921774	11.397899	7.606096	-2.924400	0.794604	-1.158572	5.145572	3.252701	-0.925049	-0.055908	0.087158	0.072161	0.011030	0.112085	0.094459	0.547873	-0.077305	0.827609	-3.608886	-67.139457	169.372926
42963		7.279958	0.742987	10.752983	6.303746	-2.799554	1.212414	-1.297599	5.311224	3.005778	-0.930664	-0.031250	0.026855	0.075490	0.009240	0.105493	0.087515	0.523745	-0.088491	0.842734	-7.514820	-63.928335	172.835903
42964		8.179729	-0.381838	10.214445	5.025694	-1.754925	2.145489	-1.392246	5.370358	2.817550	-0.925049	-0.002197	-0.033936	0.084537	-0.001939	0.099917	0.081624	0.499031	-0.099374	0.856989	-10.441638	-60.639333	175.236140
42965		9.128901	-2.147127	9.512702	3.649272	-0.067386	3.034860	-1.423240	5.378663	2.754758	-0.917236	0.027100	-0.083496	0.094083	-0.019522	0.092765	0.075947	0.473674	-0.110230	0.870468	-12.823955	-57.286003	177.052290
42966		8.776766	-3.268289	8.722373	2.723397	0.979852	2.651899	-1.346028	5.213391	2.816475	-0.904785	0.051758	-0.143799	0.090448	-0.030844	0.085101	0.069713	0.448725	-0.120759	0.882725	-14.849372	-54.002146	178.566853
42967		9.422650	-4.265878	7.920210	1.238757	1.927272	3.009875	-1.307479	4.818922	2.946791	-0.881592	0.090332	-0.196045	0.096712	-0.040737	0.077162	0.062463	0.424905	-0.131538	0.893449	-16.757523	-50.868084	-179.984921
42968		13.802150	-5.585794	7.504549	-2.304832	2.996882	6.424782	-1.285987	4.330489	3.281450	-0.860352	0.115234	-0.238770	0.140494	-0.053095	0.072368	0.053357	0.402858	-0.142880	0.902465	-18.708509	-47.934423	-178.390705
42969		19.094025	-7.457772	6.821741	-6.877154	4.400067	10.186276	-1.183056	4.023721	3.900142	-0.841553	0.155762	-0.272949	0.193667	-0.070429	0.064764	0.040979	0.381299	-0.155060	0.910433	-20.796279	-44.991585	-176.462980
42970		21.459880	-8.236845	5.343757	-10.467211	4.818509	10.778244	-0.821587	3.771218	4.562942	-0.814209	0.200684	-0.305176	0.217360	-0.077221	0.049680	0.024676	0.360280	-0.166686	0.917499	-22.815219	-42.016172	-174.219600
42971		23.956483	-6.190683	4.091273	-14.545327	2.252503	10.488481	-0.372151	3.471411	5.081065	-0.777344	0.239258	-0.337402	0.241696	-0.055713	0.036837	0.004907	0.339775	-0.177156	0.923658	-24.636363	-39.006669	-171.763547
42972		26.305056	-2.037171	2.495439	-18.820780	-2.380308	8.686371	-0.071735	3.209962	5.395675	-0.752197	0.281982	-0.360596	0.263827	-0.013252	0.020729	-0.017054	0.320028	-0.186516	0.928710	-26.220410	-36.019821	-169.235964
42973		27.846534	2.400615	-0.007915	-22.594408	-6.981303	5.076931	0.011849	2.970273	5.387288	-0.708496	0.318604	-0.379395	0.277642	0.031493	-0.004205	-0.039320	0.300950	-0.195354	0.932588	-27.590877	-33.090457	-166.827561
42974		27.305839	6.830891	-3.485374	-24.638554	-10.764402	-0.797365	-0.060110	2.648247	4.946389	-0.678223	0.345947	-0.391113	0.270765	0.075014	-0.038471	-0.059700	0.283690	-0.203548	0.935160	-28.733668	-30.416839	-164.728141
42975		26.521972	10.619298	-6.973361	-25.888378	-13.584556	-6.664848	-0.186447	2.153757	4.121248	-0.649902	0.370850	-0.396240	0.262186	0.111550	-0.072670	-0.076507	0.269327	-0.210940	0.936544	-29.668251	-28.177023	-163.054122
42976		26.694575	13.265142	-9.883571	-27.284650	-15.497137	-11.052260	-0.267731	1.572677	3.139085	-0.627930	0.384766	-0.407715	0.264032	0.136677	-0.101101	-0.089186	0.258738	-0.217016	0.937019	-30.398166	-26.498599	-161.805682
42977		27.127512	14.746707	-11.975028	-28.408111	-16.501546	-13.983671	-0.329526	1.043692	2.138153	-0.614746	0.395996	-0.408203	0.269049	0.150152	-0.121404	-0.097650	0.251622	-0.221836	0.936984	-30.957505	-25.353875	-160.971810
42978		27.162011	14.664821	-13.202315	-28.892542	-16.147866	-15.432717	-0.403954	0.585610	1.207515	-0.608154	0.396240	-0.410400	0.270341	0.148015	-0.133114	-0.102159	0.247756	-0.225554	0.936646	-31.388781	-24.710537	-160.506873
42979		26.653537	14.293434	-13.184902	-28.406346	-15.703335	-15.731964	-0.476748	0.174624	0.413824	-0.597412	0.407471	-0.406250	0.266124	0.143170	-0.132423	-0.103321	0.246726	-0.228422	0.936095	-31.735489	-24.501494	-160.339355
42980		25.388466	13.190050	-12.635817	-27.161248	-14.489486	-15.338533	-0.609189	-0.226320	-0.244536	-0.608643	0.407227	-0.408447	0.254188	0.131205	-0.126471	-0.101695	0.248403	-0.230879	0.935227	-32.065921	-24.687451	-160.391493
42981		18.727594	-1.055796	-17.553645	-25.117432	1.922081	-14.850617	0.324001	-0.984633	-1.239484	-0.619385	0.395996	-0.403564	0.188068	-0.011438	-0.174630	-0.097446	0.254324	-0.227327	0.934958	-31.741260	-25.547507	-160.723796
42982		10.308121	9.177556	-17.361841	-17.363187	-4.857432	-22.726984	2.505939	-2.558079	-2.963998	-0.645020	0.364258	-0.400635	0.106647	0.092367	-0.171115	-0.089671	0.268385	-0.210563	0.935731	-29.955872	-27.678501	-161.510546
42983		15.044467	-10.155479	14.056197	-5.259513	0.418738	12.528113	2.674931	-3.208389	-2.660102	-0.673828	0.348145	-0.393555	0.146794	-0.105412	0.141544	-0.084172	0.285002	-0.192988	0.935118	-28.186081	-30.035195	-162.006724
42984		1.693772	-2.099254	21.215211	10.766665	-4.898854	8.002745	1.846475	-2.914301	-1.998678	-0.693115	0.325439	-0.381836	0.013622	-0.023099	0.212160	-0.080264	0.299747	-0.180269	0.933388	-26.987352	-32.047472	-162.285469
42985		31.630966	6.303491	22.378161	-11.511408	-19.969050	21.959743	2.117767	-3.425394	-2.218111	-0.710693	0.313965	-0.376953	0.313064	0.057139	0.229788	-0.076160	0.316885	-0.165646	0.930776	-25.601443	-34.379225	-162.603363
42986		33.466438	9.184335	18.395994	-14.661491	-21.414486	19.669577	0.777039	-0.378211	-1.047617	-0.728027	0.300293	-0.369873	0.334788	0.089373	0.184943	-0.072836	0.319235	-0.160250	0.931184	-24.850286	-34.833246	-163.147495
42987		4.334687	-5.063265	5.839235	0.067081	2.285836	-1.251588	0.417189	-0.608070	-0.875118	-0.737061	0.298096	-0.374268	0.042947	-0.050943	0.058417	-0.069925	0.322718	-0.156656	0.930818	-24.393495	-35.371499	-163.522361
42988		8.414393	-6.266682	7.226683	-2.216655	2.232511	2.532297	0.761414	-0.820616	-0.684840	-0.745605	0.286621	-0.365234	0.083631	-0.063229	0.072371	-0.068616	0.326826	-0.151744	0.930296	-23.843146	-35.963192	-163.723324
42989		8.898003	2.201556	8.603774	-1.388964	-6.087685	1.098544	0.705570	-0.829637	-0.662772	-0.763184	0.277344	-0.360352	0.088694	0.021417	0.086482	-0.067324	0.331046	-0.147065	0.929649	-23.324180	-36.563415	-163.914330
42990		14.005715	0.059193	7.745627	-5.866362	-4.907746	4.246379	0.449714	-0.284638	-0.355030	-0.765381	0.275146	-0.360352	0.139947	0.000169	0.077656	-0.066635	0.332503	-0.144318	0.929610	-22.980067	-36.795613	-164.064223
42991		7.456929	-2.534038	7.511038	-1.019724	-0.902063	0.984961	0.217026	-0.080003	-0.114818	-0.767822	0.279541	-0.358154	0.074525	-0.025465	0.075113	-0.066530	0.332998	-0.143056	0.929635	-22.823708	-36.876947	-164.113009
42992		6.281999	-5.327199	7.187863	-0.400591	2.103228	0.907568	0.182513	0.028181	-0.080589	-0.778564	0.270508	-0.351318	0.062809	-0.053363	0.071821	-0.066447	0.332889	-0.142111	0.929825	-22.687610	-36.882205	-164.170692
42993		6.378097	-4.648911	7.452354	-0.293118	1.399760	0.947647	0.175243	0.097604	-0.079257	-0.781006	0.277100	-0.351563	0.063799	-0.046580	0.074452	-0.066311	0.332547	-0.141162	0.930101	-22.539833	-36.861579	-164.245342
42994		6.344947	-3.065541	7.662294	-0.098958	-0.127584	0.595989	0.167463	0.101003	-0.058704	-0.783203	0.270264	-0.353516	0.063479	-0.030738	0.076565	-0.066253	0.332089	-0.140347	0.930393	-22.409117	-36.823262	-164.308480
42995		6.829889	-2.152101	7.425540	-0.605135	-1.035124	0.433281	0.131650	0.093204	-0.044027	-0.787842	0.274658	-0.351318	0.068329	-0.021585	0.074209	-0.066212	0.331755	-0.139660	0.930618	-22.301383	-36.796942	-164.358383
42996		6.966147	-2.412076	6.935172	-1.040142	-0.698394	0.230831	0.131483	0.095138	-0.059865	-0.792236	0.272461	-0.349121	0.069687	-0.024187	0.069303	-0.066092	0.331336	-0.139008	0.930873	-22.191974	-36.761786	-164.420459
42997		6.610736	-3.078768	6.654019	-0.972657	0.090037	0.010877	0.152779	0.086424	-0.107143	-0.790039	0.274658	-0.346924	0.066120	-0.030874	0.066488	-0.065797	0.331072	-0.138115	0.931121	-22.048237	-36.752624	-164.510148
42998		6.045923	-3.392127	7.537632	0.008184	0.339096	0.422571	0.138480	0.049774	-0.135068	-0.790039	0.272461	-0.351318	0.060455	-0.034014	0.075338	-0.065371	0.330913	-0.137291	0.931329	-21.912398	-36.757467	-164.609727
42999		5.609177	-3.914091	7.344708	0.205447	0.991270	0.172444	0.142399	0.035101	-0.149710	-0.794678	0.279053	-0.346924	0.056075	-0.039235	0.073409	-0.064896	0.330920	-0.136359	0.931497	-21.766098	-36.784276	-164.713738
43000		5.716508	-2.892062	7.820133	0.454287	-0.087396	0.285972	0.127319	0.013531	-0.167778	-0.803711	0.281006	-0.342529	0.057146	-0.029018	0.078179	-0.064324	0.330955	-0.135521	0.931646	-21.629256	-36.814949	-164.825563
43001		6.099784	-2.591078	7.667522	0.075258	-0.404177	0.313659	0.092390	-0.045925	-0.147420	-0.808350	0.285400	-0.338135	0.060961	-0.025991	0.076677	-0.063851	0.331353	-0.134806	0.931641	-21.526731	-36.883454	-164.904200
43002		5.976131	-2.099587	7.389633	0.015742	-0.775626	-0.110769	0.063835	-0.063276	-0.132319	-0.812744	0.280762	-0.335938	0.059724	-0.021059	0.073909	-0.063391	0.331742	-0.134297	0.931608	-21.452209	-36.947307	-164.972526
43003		6.383295	-2.926621	7.164350	-0.454436	-0.010338	0.208931	0.039323	-0.097306	-0.117554	-0.812744	0.282959	-0.329346	0.063781	-0.029318	0.071669	-0.063015	0.332375	-0.133864	0.931470	-21.400499	-37.036486	-165.016574
43004		5.908232	-3.193076	7.228041	-0.044848	0.340153	0.047829	0.042178	-0.068051	-0.135778	-0.817139	0.278564	-0.322510	0.059036	-0.031986	0.072294	-0.062506	0.332795	-0.133449	0.931414	-21.337413	-37.103493	-165.086271
43005		6.023363	-3.062551	7.098578	-0.202156	0.233129	-0.017041	0.078889	-0.059174	-0.174017	-0.823975	0.282715	-0.322510	0.060186	-0.030706	0.070991	-0.061910	0.333275	-0.132750	0.931382	-21.234010	-37.183875	-165.178152
43006		6.247192	-3.151139	6.940197	-0.469654	0.321737	0.025976	0.064533	-0.049803	-0.194627	-0.830566	0.278320	-0.322510	0.062424	-0.031595	0.069407	-0.061151	0.333641	-0.132137	0.931388	-21.130973	-37.253136	-165.292484
43007		6.519843	-2.460386	7.507822	-0.291168	-0.492403	0.414823	0.084257	-0.031159	-0.200043	-0.837402	0.280273	-0.306885	0.065162	-0.024701	0.075078	-0.060426	0.334005	-0.131379	0.931412	-21.009108	-37.323540	-165.409452
43008		6.141842	-2.589738	7.100657	-0.258657	-0.191830	-0.079005	0.064927	-0.008187	-0.183928	-0.837158	0.273682	-0.304443	0.061392	-0.025977	0.071001	-0.059690	0.334169	-0.130795	0.931483	-20.903178	-37.367981	-165.527847
43009		5.217081	-3.422561	7.403068	0.631896	0.743922	-0.180215	0.055635	-0.018402	-0.162255	-0.837402	0.280273	-0.300293	0.052136	-0.034289	0.074026	-0.059088	0.334457	-0.130236	0.931497	-20.810721	-37.423427	-165.622700
43010		5.725558	-3.221843	7.594098	0.372285	0.425832	0.212913	0.046657	-0.014338	-0.174783	-0.843750	0.269043	-0.297607	0.057222	-0.032286	0.075938	-0.058368	0.334649	-0.129750	0.931541	-20.719593	-37.468993	-165.733694
43011		5.560085	-2.811053	7.405862	0.394377	0.116820	-0.143450	0.055524	-0.009957	-0.173890	-0.850342	0.270996	-0.291016	0.055573	-0.028179	0.074054	-0.057707	0.334903	-0.129175	0.931570	-20.620901	-37.521780	-165.838718
43012		5.726962	-2.456028	7.437030	0.297669	-0.249162	-0.117901	0.047314	-0.020059	-0.166397	-0.847900	0.262207	-0.281982	0.057242	-0.024626	0.074370	-0.057032	0.335116	-0.128698	0.931602	-20.533384	-37.568436	-165.942922
43013		6.050514	-2.885866	7.045872	-0.202774	0.193285	-0.091434	0.028002	-0.030816	-0.158428	-0.850098	0.262207	-0.281982	0.060471	-0.028916	0.070464	-0.056400	0.335462	-0.128269	0.931574	-20.458872	-37.629114	-166.034016
43014		5.413654	-2.310126	7.303701	0.468693	-0.278230	-0.448325	0.037248	-0.036918	-0.169202	-0.861084	0.257568	-0.272949	0.054103	-0.023161	0.073043	-0.055706	0.335758	-0.127829	0.931570	-20.378204	-37.685155	-166.136184
43015		5.478692	-2.636149	7.917706	0.815417	-0.087176	0.136327	0.032789	-0.069848	-0.180255	-0.858887	0.257568	-0.268555	0.054735	-0.026424	0.079192	-0.054998	0.336297	-0.127328	0.931486	-20.296903	-37.770972	-166.233791
43016		5.546871	-3.115989	6.939465	0.140543	0.571772	-0.416591	0.042556	-0.102920	-0.229449	-0.862793	0.244141	-0.261475	0.055397	-0.031238	0.069417	-0.054074	0.336936	-0.126744	0.931389	-20.197709	-37.874196	-166.360832
43017		5.334008	-2.917420	7.180787	0.479595	0.392312	-0.424254	0.069034	-0.149317	-0.300015	-0.874023	0.243896	-0.257080	0.053243	-0.029279	0.071838	-0.052909	0.337908	-0.125850	0.931225	-20.056220	-38.026057	-166.522411
43018		5.001978	-2.320830	8.415926	1.560894	-0.343265	0.121068	0.054792	-0.264124	-0.356603	-0.866943	0.235107	-0.254639	0.049867	-0.023320	0.084219	-0.051515	0.339372	-0.124950	0.930892	-19.919810	-38.240529	-166.697487
43019		5.180051	-3.352477	7.801509	1.056145	0.765439	0.048044	0.007032	-0.353112	-0.413925	-0.880371	0.230469	-0.243408	0.051593	-0.033634	0.078105	-0.049830	0.341374	-0.124095	0.930366	-19.793577	-38.523685	-166.890626
43020		4.456957	-3.376942	7.779745	1.640840	0.945378	-0.420869	-0.021185	-0.446492	-0.472987	-0.886719	0.221436	-0.232178	0.044316	-0.033866	0.077900	-0.047877	0.343773	-0.123303	0.929690	-19.675744	-38.858415	-167.103484
43021		5.326301	-3.467311	8.345073	1.414498	0.800826	0.550191	0.014153	-0.629080	-0.557850	-0.890869	0.216797	-0.223145	0.052903	-0.034827	0.083615	-0.045693	0.347133	-0.122099	0.928710	-19.520673	-39.317269	-167.333701
43022		5.371527	-2.984383	8.067063	1.282276	0.418895	0.238023	0.023173	-0.802474	-0.652858	-0.894775	0.201172	-0.209473	0.053293	-0.030028	0.080882	-0.043198	0.351273	-0.120702	0.927455	-19.347346	-39.877755	-167.589650
43023		5.188224	-3.336040	8.293252	1.677983	0.791271	0.354992	0.038298	-1.040232	-0.752600	-0.903320	0.189697	-0.189209	0.051324	-0.033570	0.083194	-0.040388	0.356630	-0.118949	0.925762	-19.146019	-40.594432	-167.865271
43024		5.893694	-3.238795	8.288463	1.285940	0.639878	0.763639	0.049601	-1.301911	-0.880222	-0.907227	0.176270	-0.168945	0.058252	-0.032666	0.083257	-0.037181	0.363183	-0.116912	0.923605	-18.919693	-41.466520	-168.171447
43025		5.574488	-2.817703	8.422107	1.770955	0.320457	0.517084	0.057616	-1.575093	-1.016208	-0.915771	0.160645	-0.144043	0.054935	-0.028482	0.084648	-0.033481	0.371113	-0.114479	0.920896	-18.650027	-42.519988	-168.524448
43026		5.367938	-2.792349	8.350303	2.063421	0.410106	0.282331	0.082582	-1.904987	-1.133775	-0.917480	0.149414	-0.123779	0.052721	-0.028259	0.083997	-0.029508	0.380521	-0.111698	0.917527	-18.355441	-43.763682	-168.890552
43027		6.337160	-2.963141	8.533203	1.750347	0.494255	1.070347	0.165225	-2.302987	-1.242369	-0.923584	0.133545	-0.090088	0.062198	-0.030091	0.086028	-0.025414	0.391811	-0.108203	0.913307	-18.000724	-45.250188	-169.258607
43028		5.670611	-2.763537	9.172675	2.951322	0.374311	0.914438	0.229134	-2.684379	-1.363034	-0.931885	0.119873	-0.058594	0.055278	-0.028121	0.092443	-0.021093	0.404756	-0.104163	0.908228	-17.590805	-46.955832	-169.649518
43029		4.747485	-3.926667	10.189079	4.706725	1.563406	1.011508	0.288123	-3.079031	-1.510627	-0.929199	0.106445	-0.013916	0.045600	-0.039763	0.102545	-0.016422	0.419517	-0.099434	0.902136	-17.092825	-48.908074	-170.095218
43030		4.652176	-5.023188	10.486895	5.434622	2.728722	1.134865	0.345332	-3.506057	-1.742210	-0.930420	0.084229	0.024170	0.044234	-0.050806	0.105570	-0.011032	0.436111	-0.093945	0.894908	-16.452474	-51.122074	-170.676612
43031		3.794886	-6.104341	10.477295	6.454374	4.027318	0.362338	0.407793	-4.063636	-2.141701	-0.929443	0.059570	0.075684	0.035154	-0.061644	0.105381	-0.004247	0.455232	-0.087183	0.886084	-15.519040	-53.707595	-171.557408
43032		4.119636	-6.761477	10.107354	6.493486	4.882155	0.127406	0.669208	-4.748965	-2.724004	-0.926514	0.041748	0.118408	0.037856	-0.068485	0.101771	0.004227	0.477292	-0.077915	0.875273	-13.965192	-56.738983	-172.985473
43033		4.907771	-7.311886	9.330225	6.020357	5.717763	-0.034831	0.887872	-5.600513	-3.451537	-0.906982	0.001953	0.183594	0.045170	-0.074338	0.094276	0.015027	0.502957	-0.065860	0.861667	-11.457875	-60.312928	-175.326541
43034		5.001451	-7.878212	10.008422	7.267577	6.470757	-0.196699	0.995314	-6.484698	-4.239835	-0.896240	-0.038086	0.241943	0.045053	-0.080274	0.101202	0.028640	0.531998	-0.051381	0.844700	-7.485974	-64.382447	-179.167240
43035		7.781601	-7.656966	10.801357	7.579689	6.521724	1.836856	1.273684	-7.241811	-5.047885	-0.872070	-0.079834	0.311768	0.071875	-0.079131	0.110190	0.044682	0.563570	-0.033568	0.824176	-0.785280	-68.742625	174.330764
43036		12.307953	-9.651197	9.147282	5.737853	9.403745	4.564705	1.307277	-7.554504	-5.780783	-0.838867	-0.126221	0.376953	0.116658	-0.100561	0.095313	0.063496	0.595322	-0.013579	0.800859	10.490845	-72.797037	163.189628
43037		18.010255	-9.552795	10.382198	6.699497	10.518247	9.357734	1.756512	-7.209573	-6.142816	-0.801025	-0.167725	0.444336	0.173163	-0.101863	0.109273	0.082300	0.624500	0.009439	0.776619	28.116434	-75.567850	145.929934
43038		21.649046	-8.886853	11.786956	8.869931	11.384504	12.045600	2.252569	-6.974697	-6.289003	-0.761475	-0.205078	0.493652	0.209268	-0.096902	0.124192	0.099920	0.651494	0.034901	0.751235	50.851966	-76.379052	123.840272
43039		18.264325	-11.512426	11.890515	11.157846	14.342285	6.827974	1.768338	-6.451009	-5.959868	-0.712646	-0.241943	0.545410	0.175148	-0.121498	0.123581	0.117571	0.674933	0.057652	0.726167	71.252377	-75.166042	103.849996
43040		15.861280	-11.921303	13.949815	14.426091	14.737816	2.940717	1.715854	-5.683507	-5.705794	-0.670898	-0.279053	0.581543	0.151077	-0.124812	0.142809	0.134041	0.694372	0.079709	0.702514	85.591116	-72.600827	89.954029
43041		15.865133	-2.326855	22.302728	22.738593	5.588338	4.542539	1.139442	-3.833228	-4.490565	-0.659180	-0.292236	0.599365	0.153746	-0.028039	0.225855	0.147326	0.706511	0.096625	0.685420	92.855063	-70.058766	82.972771
43042		47.951296	-20.534565	34.964706	38.469053	32.671010	27.553400	-1.351384	-0.591568	-0.562131	-0.665527	-0.303223	0.579834	0.477898	-0.204315	0.352445	0.154320	0.707265	0.093508	0.683533	92.966342	-69.721314	82.026421
43043		0.720741	-28.651966	16.653257	19.053164	25.558860	-18.891627	-1.247174	2.269893	1.794054	-0.697266	-0.292725	0.548584	0.011674	-0.285383	0.168199	0.151517	0.699285	0.084530	0.693468	88.657985	-70.777624	85.834730
43044		-13.569463	-24.078538	7.520467	9.446754	17.684139	-30.268953	0.459153	1.602268	1.869159	-0.715576	-0.284180	0.541748	-0.132830	-0.242209	0.075722	0.142754	0.694829	0.080761	0.700223	86.073085	-71.807320	88.838120
43045		-5.213483	-11.662231	9.676892	10.577927	8.740194	-18.091238	1.459832	0.821751	1.720683	-0.741455	-0.258057	0.528076	-0.050729	-0.117766	0.096122	0.131306	0.693616	0.080322	0.703707	85.180513	-72.767770	90.640249
43046		2.245311	-4.203862	12.824706	13.062224	3.851989	-8.500095	0.967795	0.935057	2.191022	-0.757568	-0.244873	0.510010	0.023515	-0.042404	0.127934	0.119865	0.691801	0.076704	0.707926	83.544173	-73.966551	92.923418
43047		4.489916	-2.018465	14.519887	14.510000	2.303491	-5.430432	-0.213953	1.696548	2.901814	-0.785645	-0.218750	0.487549	0.046414	-0.019363	0.144830	0.109769	0.686649	0.066710	0.715551	78.940339	-75.470805	97.541812
43048		3.495322	-4.765343	12.461497	12.587255	4.730332	-6.750526	-0.981913	2.477693	3.274101	-0.806641	-0.198975	0.456055	0.037262	-0.046445	0.124393	0.100587	0.678203	0.053270	0.726006	70.810025	-76.916963	105.330111
43049		4.885804	-7.174296	10.510731	10.627397	7.366681	-5.502866	-0.931591	3.180639	3.248048	-0.841553	-0.168457	0.413330	0.051676	-0.070431	0.104631	0.091155	0.666817	0.040264	0.738529	59.306025	-77.846314	116.546104
43050		7.500319	-6.671650	10.309612	9.891373	7.231923	-2.271471	-0.511411	3.898890	3.163272	-0.860840	-0.137695	0.364014	0.078035	-0.065237	0.101763	0.080376	0.652631	0.029562	0.752820	45.585836	-77.925317	130.272978
43051		8.980632	-4.406030	10.474508	9.229985	5.037034	0.145253	-0.290839	4.628620	3.273933	-0.882324	-0.104492	0.312256	0.092902	-0.042406	0.102681	0.068279	0.635243	0.019449	0.769043	31.259696	-77.008000	144.757309
43052		8.237298	-2.734121	9.678639	7.913336	3.111995	0.018201	-0.351050	5.170886	3.512686	-0.901855	-0.069336	0.256104	0.085300	-0.025693	0.094652	0.055359	0.615293	0.008668	0.786305	18.618036	-75.162400	157.565963
43053		7.009621	-2.156409	8.324574	6.310090	2.254235	-0.972865	-0.507713	5.401695	3.691874	-0.921143	-0.033936	0.199951	0.072690	-0.020030	0.081358	0.042075	0.593658	-0.003377	0.803609	8.580330	-72.635035	167.693455
43054		6.777047	-2.431109	7.426740	5.027922	2.315768	-1.076889	-0.598057	5.417805	3.763404	-0.924805	-0.000488	0.139160	0.070188	-0.022787	0.072457	0.028804	0.571400	-0.015838	0.820013	1.147808	-69.722155	175.176916
43055		7.558150	-3.169573	7.251525	4.101086	2.804436	-0.064366	-0.589685	5.350808	3.783658	-0.933105	0.035156	0.085205	0.078065	-0.030024	0.070539	0.015290	0.548667	-0.028472	0.835416	-4.443003	-66.577874	-179.178937
43056		8.358551	-4.013481	7.433086	3.401453	3.308956	1.080206	-0.520904	5.246916	3.838585	-0.934326	0.068604	0.020020	0.086245	-0.038306	0.072193	0.001429	0.525899	-0.040790	0.849567	-8.691861	-63.340545	-174.824344
43057		8.949898	-4.653222	7.779589	2.824902	3.526282	2.095464	-0.450857	5.074938	3.972410	-0.924805	0.108887	-0.031982	0.092334	-0.044545	0.075579	-0.013308	0.503141	-0.053286	0.862457	-12.176531	-60.049488	-171.177172
43058		9.858738	-4.910326	8.558918	2.368897	3.222125	3.547760	-0.423566	4.821915	4.180043	-0.914795	0.142578	-0.081543	0.101608	-0.046822	0.083264	-0.028973	0.481032	-0.065949	0.873739	-15.151920	-56.800689	-167.974852
43059		10.702118	-5.031639	9.335554	1.837130	2.661897	4.900200	-0.468744	4.574578	4.421310	-0.894043	0.180908	-0.131348	0.110194	-0.047688	0.090973	-0.045711	0.459288	-0.079456	0.883545	-17.876945	-53.546531	-165.002135
43060		12.765606	-5.328665	10.247924	0.617402	1.918972	7.281609	-0.605362	4.313470	4.593608	-0.884521	0.225586	-0.174561	0.131002	-0.049998	0.099832	-0.062876	0.438344	-0.093652	0.891701	-20.373507	-50.350861	-162.277525
43061		17.212999	-5.727614	10.848601	-2.504774	0.542343	11.165083	-0.738893	4.170729	4.787361	-0.854736	0.270752	-0.215576	0.175643	-0.052707	0.105048	-0.080664	0.417382	-0.108893	0.898570	-22.730167	-47.098570	-159.727592
43062		21.721684	-6.354276	10.537584	-6.665694	-0.957267	14.222160	-0.773528	4.224194	5.047558	-0.822510	0.304932	-0.254150	0.220885	-0.057602	0.100966	-0.099385	0.395767	-0.124571	0.904419	-24.873335	-43.718624	-157.346209
43063		23.194273	-5.667864	9.172291	-9.663171	-3.057816	13.666096	-0.651727	4.232359	5.249787	-0.772461	0.350342	-0.291016	0.235192	-0.050244	0.086939	-0.119135	0.373321	-0.140107	0.909290	-26.749224	-40.205496	-155.124286
43064		24.224538	-3.708282	7.161336	-12.522230	-6.121586	11.572933	-0.501078	4.010269	5.286414	-0.731445	0.391357	-0.307617	0.244481	-0.030468	0.066807	-0.139361	0.351507	-0.154588	0.912756	-28.332890	-36.769257	-153.047127
43065		26.579795	-2.551004	4.647789	-16.505272	-8.777761	9.805458	-0.326792	3.712043	5.202702	-0.685303	0.418945	-0.323975	0.267142	-0.018501	0.041561	-0.159583	0.330468	-0.167882	0.914953	-29.642025	-33.445537	-151.121490
43066		28.238399	-1.380664	1.628017	-20.039184	-11.025089	6.878478	0.021066	3.474252	4.997006	-0.647705	0.435059	-0.335693	0.282837	-0.006744	0.011368	-0.179493	0.310240	-0.178760	0.916285	-30.554469	-30.289197	-149.376979
43067		27.837308	2.279595	-1.206509	-21.028700	-14.400994	1.666251	0.385974	3.209587	4.641446	-0.605225	0.444824	-0.344971	0.277503	0.029272	-0.016471	-0.198409	0.290817	-0.187129	0.917083	-31.082010	-27.332295	-147.847942
43068		26.123780	7.240217	-4.129666	-20.215326	-17.857385	-4.890603	0.508317	2.775949	4.123690	-0.578613	0.452148	-0.356201	0.259065	0.077870	-0.044709	-0.215406	0.273664	-0.193513	0.917203	-31.379595	-24.748992	-146.513968
43069		24.544602	11.075013	-6.917186	-19.252312	-20.036854	-10.653413	0.346410	2.193817	3.433942	-0.570313	0.467773	-0.358887	0.242718	0.115056	-0.071648	-0.229457	0.259784	-0.199046	0.916647	-31.637542	-22.638541	-145.400921
43070		23.958114	13.513185	-9.072517	-18.882529	-21.422291	-14.648066	0.070544	1.567256	2.548376	-0.552490	0.470459	-0.370117	0.237113	0.138196	-0.092541	-0.239654	0.249984	-0.203831	0.915711	-31.909944	-21.108108	-144.569639
43071		24.264524	14.458280	-10.749353	-19.427914	-22.012564	-16.977469	-0.183805	0.993717	1.594127	-0.541260	0.470703	-0.365723	0.240945	0.146408	-0.108828	-0.245702	0.243990	-0.207914	0.914807	-32.199405	-20.135245	-144.065118
43072		24.743092	14.553242	-11.169259	-19.834835	-22.250581	-17.575100	-0.322343	0.476760	0.685188	-0.543701	0.477295	-0.363770	0.246663	0.146197	-0.112516	-0.247957	0.241519	-0.210829	0.914186	-32.455550	-19.696292	-143.864429
43073		24.468399	13.328653	-10.725378	-19.807094	-21.209274	-16.829407	-0.339779	0.059498	-0.097720	-0.543457	0.470703	-0.356934	0.244717	0.132984	-0.107553	-0.247046	0.241784	-0.212373	0.914006	-32.631725	-19.697358	-143.931685
43074		24.107773	10.817919	-9.457542	-19.814811	-19.292435	-14.590488	-0.196584	-0.230756	-0.822147	-0.547607	0.466064	-0.356689	0.241628	0.107094	-0.094402	-0.243306	0.243981	-0.212012	0.914509	-32.630876	-20.064504	-144.274487
43075		19.637062	7.834946	-12.331989	-19.184648	-13.614332	-16.569589	0.490295	-0.907606	-2.196073	-0.560547	0.447998	-0.351807	0.197774	0.076483	-0.122235	-0.234820	0.249897	-0.205979	0.916506	-32.058407	-21.181801	-145.108674
43076		16.176784	12.532814	-17.497970	-18.262822	-14.232365	-23.551402	0.611114	-2.117604	-3.790064	-0.582031	0.425293	-0.342285	0.165948	0.122740	-0.172860	-0.220353	0.262754	-0.195929	0.918704	-31.215983	-23.355789	-146.415467
43077		10.109991	-2.064410	4.457344	-5.712310	-4.320415	-1.151343	0.406791	-2.996211	-4.034102	-0.599365	0.405029	-0.326172	0.099973	-0.022761	0.046032	-0.205238	0.280021	-0.185386	0.919292	-30.478580	-26.023896	-147.624856
43078		14.434408	-34.745261	10.939109	-13.562863	20.610385	20.622740	1.269678	-2.610620	-3.218763	-0.618896	0.391357	-0.319336	0.137296	-0.350393	0.108996	-0.194603	0.293663	-0.172345	0.919885	-29.318336	-28.241851	-148.580159
43079		0.417685	-9.805956	2.941903	-0.968534	7.811382	-3.253864	1.653467	-3.309869	-2.540031	-0.638916	0.381836	-0.305664	0.002451	-0.098337	0.028657	-0.188160	0.309484	-0.157753	0.918656	-28.171419	-30.614100	-148.992087
43080		24.705999	-5.965647	15.010812	-9.785624	-7.879783	16.894530	1.834222	-4.328799	-1.987572	-0.656250	0.368164	-0.285156	0.243124	-0.063491	0.154828	-0.185231	0.329135	-0.142154	0.914960	-27.215289	-33.341458	-148.818592
43081		44.181406	12.035226	22.050882	-13.975412	-32.464581	26.706977	1.669945	-1.402443	-1.382218	-0.663086	0.370361	-0.294189	0.441058	0.115438	0.224581	-0.182643	0.335058	-0.130936	0.915005	-26.031613	-34.425226	-149.231210
43082		7.585364	2.589987	8.337592	0.796927	-6.447317	-0.244177	0.508311	-0.805153	-1.057756	-0.678467	0.361084	-0.296143	0.075652	0.025287	0.083746	-0.179185	0.338990	-0.126124	0.914916	-25.505768	-35.106289	-149.648043
43083		7.298094	-8.696330	6.973819	-2.582593	4.150412	2.581860	0.628234	-0.880077	-0.690433	-0.685547	0.369873	-0.300781	0.072373	-0.087433	0.069783	-0.177653	0.342997	-0.121261	0.914379	-25.048096	-35.744620	-149.816054
43084		6.555129	-0.472424	7.787982	0.538104	-2.960980	-0.076834	0.839575	-0.900017	-0.711840	-0.701172	0.365234	-0.298340	0.065182	-0.005284	0.078152	-0.176386	0.346817	-0.115424	0.913938	-24.459666	-36.385877	-150.003710
43085		11.251989	-1.545010	9.108397	-2.043978	-3.860277	4.075283	0.632407	-0.616383	-0.579950	-0.721436	0.366943	-0.304932	0.112193	-0.016064	0.091380	-0.175196	0.349522	-0.110957	0.913690	-23.983557	-36.857800	-150.194055
43086		11.156269	-2.498232	7.402559	-3.336580	-2.713874	3.110281	0.478361	-0.140242	-0.286354	-0.719482	0.375977	-0.307373	0.111475	-0.025319	0.074043	-0.174807	0.349930	-0.108173	0.913942	-23.626169	-36.999776	-150.337856
43087		6.264734	-1.620761	8.824954	1.237097	-1.640717	0.935853	0.244992	-0.072196	-0.133301	-0.730957	0.382324	-0.313965	0.062605	-0.016357	0.088252	-0.174676	0.350238	-0.106726	0.914019	-23.448766	-37.082411	-150.398146
43088		5.970597	-3.287752	8.428319	0.770586	0.055900	0.999202	0.117951	-0.158487	-0.078196	-0.748779	0.377686	-0.313965	0.059626	-0.032951	0.084311	-0.174616	0.350929	-0.105936	0.913858	-23.382524	-37.185800	-150.401050
43089		6.107998	-2.787227	7.652851	0.291599	-0.385164	0.356332	0.017401	-0.250040	-0.084267	-0.749023	0.384277	-0.318359	0.060972	-0.027905	0.076602	-0.174444	0.352217	-0.105469	0.913449	-23.388221	-37.348925	-150.373011
43090		6.610369	-2.974972	7.235680	-0.355177	-0.368145	0.416717	-0.026906	-0.356790	-0.099962	-0.760254	0.381836	-0.313965	0.065960	-0.029773	0.072479	-0.174134	0.353950	-0.105129	0.912877	-23.430761	-37.561535	-150.333494
43091		7.151873	-2.287964	7.229179	-0.524871	-1.200239	0.527956	-0.113785	-0.372752	-0.061424	-0.776367	0.390381	-0.309570	0.071377	-0.022860	0.072438	-0.173894	0.355898	-0.105192	0.912158	-23.542595	-37.783998	-150.254960
43092		6.843541	-3.023982	7.070766	-0.556687	-0.389010	0.459257	-0.169421	-0.404648	-0.079524	-0.787598	0.390137	-0.311768	0.068280	-0.030207	0.070872	-0.173449	0.357960	-0.105496	0.911400	-23.684673	-38.016929	-150.186727
43093		5.713829	-3.577753	7.608143	0.501690	0.529016	0.326359	-0.197924	-0.423901	-0.095060	-0.787842	0.396729	-0.296387	0.056960	-0.035729	0.076238	-0.172924	0.360230	-0.105833	0.910566	-23.841071	-38.274073	-150.114755
43094		6.335767	-3.310014	7.337754	0.006378	0.062925	0.431166	-0.187283	-0.476400	-0.116582	-0.801025	0.389893	-0.291748	0.063163	-0.033068	0.073559	-0.172313	0.362649	-0.106088	0.909692	-23.992965	-38.552904	-150.047969
43095		6.379969	-2.849015	7.599662	0.325219	-0.390271	0.498346	-0.213330	-0.504527	-0.068851	-0.801270	0.398682	-0.285156	0.063598	-0.028431	0.076188	-0.171918	0.365278	-0.106472	0.908669	-24.186095	-38.845733	-149.932223
43096		6.459950	-2.832323	7.024880	-0.069475	-0.398591	0.134069	-0.257034	-0.520170	-0.029560	-0.814941	0.402832	-0.276367	0.064412	-0.028242	0.070453	-0.171596	0.367905	-0.107163	0.907589	-24.425477	-39.126536	-149.790727
43097		6.349275	-3.201022	6.872295	-0.127808	-0.009045	0.075263	-0.255466	-0.543835	-0.020568	-0.819092	0.398438	-0.267334	0.063302	-0.031929	0.068936	-0.171366	0.370716	-0.107791	0.906413	-24.674596	-39.427392	-149.625736
43098		6.884607	-3.136196	7.245864	-0.141629	-0.306696	0.657346	-0.253494	-0.572166	-0.009233	-0.821533	0.398193	-0.265137	0.068637	-0.031273	0.072695	-0.171167	0.373557	-0.108456	0.905204	-24.934936	-39.729384	-149.449940
43099		6.370707	-2.240894	7.631337	0.748368	-0.959211	0.304835	-0.314259	-0.610795	0.026070	-0.826172	0.404785	-0.245361	0.063476	-0.022281	0.076543	-0.171054	0.376689	-0.109374	0.903816	-25.254942	-40.053064	-149.229564
43100		6.275491	-2.334628	7.273170	0.605956	-0.824323	0.020118	-0.390750	-0.684635	0.096430	-0.830566	0.404785	-0.236328	0.062517	-0.023174	0.072991	-0.171133	0.380089	-0.110760	0.902207	-25.669073	-40.385636	-148.939725
43101		6.551504	-2.915828	7.116629	0.267161	-0.407395	0.278528	-0.449163	-0.779212	0.134470	-0.830566	0.404541	-0.227539	0.065256	-0.028954	0.071486	-0.171346	0.384023	-0.112342	0.900303	-26.157690	-40.766325	-148.581536
43102		6.716535	-3.077012	7.172444	0.259456	-0.351908	0.474771	-0.491127	-0.831200	0.135365	-0.839844	0.411133	-0.216553	0.066887	-0.030548	0.072078	-0.171482	0.388132	-0.114124	0.898289	-26.688921	-41.160414	-148.205165
43103		5.812809	-4.200265	7.076234	0.622129	1.016563	0.191446	-0.593691	-0.860957	0.112469	-0.835205	0.408936	-0.196533	0.057846	-0.041759	0.071136	-0.171346	0.392551	-0.116236	0.896121	-27.281343	-41.583662	-147.821128
43104		5.930339	-3.692533	7.286952	0.916935	0.468873	0.229318	-0.467334	-0.922827	0.061214	-0.842041	0.413330	-0.189941	0.058977	-0.036736	0.073228	-0.171242	0.397073	-0.117683	0.893958	-27.801260	-42.038324	-147.447547
43105		5.961947	-3.868808	6.912311	0.683148	0.630507	0.057845	-0.508118	-0.917697	0.067269	-0.840088	0.417725	-0.181152	0.059314	-0.038492	0.069494	-0.171091	0.401674	-0.119268	0.891718	-28.352974	-42.496770	-147.058088
43106		7.030830	-3.313975	6.378011	-0.161539	-0.282562	0.236547	-0.507058	-0.946450	0.089493	-0.846680	0.415283	-0.165527	0.070020	-0.032946	0.064196	-0.171038	0.406296	-0.120922	0.889408	-28.930892	-42.950113	-146.639055
43107		7.249907	-3.019961	6.016294	-0.404237	-0.630053	0.052191	-0.500790	-0.928188	0.110608	-0.839844	0.413086	-0.152100	0.072235	-0.030008	0.060574	-0.171092	0.410887	-0.122547	0.887063	-29.518536	-43.395678	-146.197576
43108		7.233914	-3.327361	5.561610	-0.706187	-0.328782	-0.131535	-0.478841	-0.908102	0.122639	-0.842285	0.419678	-0.143311	0.072106	-0.033096	0.056023	-0.171211	0.415271	-0.124169	0.884770	-30.103228	-43.814141	-145.752097
43109		7.096936	-3.401336	5.766818	-0.381604	-0.241804	-0.066564	-0.454832	-0.864680	0.153623	-0.844482	0.417480	-0.127930	0.070745	-0.033827	0.058051	-0.171498	0.419494	-0.125726	0.882500	-30.684718	-44.209414	-145.288461
43110		6.900863	-3.738377	5.783961	-0.228848	0.121704	-0.066727	-0.413693	-0.792452	0.161270	-0.849121	0.421875	-0.119141	0.068809	-0.037208	0.058190	-0.171842	0.423266	-0.127234	0.880413	-31.233887	-44.553118	-144.846608
43111		7.144270	-3.880278	5.125688	-0.834887	0.183078	-0.239874	-0.386015	-0.714283	0.133869	-0.851318	0.423828	-0.112305	0.071285	-0.038656	0.051586	-0.172079	0.426761	-0.128569	0.878484	-31.736878	-44.874612	-144.444663
43112		7.230057	-3.522185	5.107647	-0.756545	-0.193760	-0.317571	-0.355124	-0.645309	0.105345	-0.844238	0.417480	-0.098877	0.072154	-0.035093	0.051372	-0.172202	0.429858	-0.129822	0.876764	-32.193548	-45.158159	-144.091062
43113		6.997449	-3.755251	5.031313	-0.661517	0.106988	-0.435538	-0.301501	-0.598960	0.071114	-0.853516	0.421631	-0.094482	0.069837	-0.037452	0.050579	-0.172259	0.432802	-0.130748	0.875165	-32.592391	-45.438800	-143.772039
43114		6.747050	-4.059977	5.114236	-0.449939	0.472131	-0.445944	-0.268141	-0.562173	0.003711	-0.855713	0.423828	-0.087891	0.067327	-0.040530	0.051386	-0.172066	0.435515	-0.131470	0.873748	-32.931883	-45.710299	-143.516123
43115		6.376732	-4.578704	5.583304	0.098266	1.058871	-0.238274	-0.196718	-0.545197	-0.061108	-0.851074	0.419434	-0.076904	0.063601	-0.045751	0.056052	-0.171729	0.438212	-0.131695	0.872431	-33.195576	-46.003981	-143.305317
43116		6.134685	-4.442728	5.741968	0.440469	1.030352	-0.374122	-0.168524	-0.506533	-0.139715	-0.862061	0.412598	-0.069824	0.061170	-0.044422	0.057612	-0.171087	0.440684	-0.131714	0.871309	-33.394596	-46.292266	-143.167519
43117		6.256480	-4.494307	5.703623	0.385410	1.045261	-0.292588	-0.141965	-0.495471	-0.232262	-0.862061	0.410156	-0.067627	0.062371	-0.044975	0.057223	-0.170077	0.443220	-0.131367	0.870272	-33.529113	-46.615365	-143.094704
43118		7.250333	-4.012491	5.232002	-0.406254	0.257477	-0.024448	-0.116066	-0.518867	-0.303481	-0.870850	0.405518	-0.058594	0.072306	-0.040204	0.052531	-0.168843	0.445801	-0.130782	0.869281	-33.622774	-46.960959	-143.061682
43119		6.613212	-3.365862	5.733780	0.522843	-0.076775	-0.449983	-0.095241	-0.570210	-0.363210	-0.877197	0.398926	-0.053955	0.065907	-0.033751	0.057542	-0.167399	0.448698	-0.129877	0.868205	-33.690481	-47.361418	-143.045371
43120		6.325060	-4.085366	5.690293	0.577371	0.733915	-0.421011	-0.091665	-0.656740	-0.430930	-0.885986	0.391846	-0.042725	0.062975	-0.040963	0.057129	-0.165751	0.451928	-0.128782	0.867008	-33.753328	-47.813196	-143.035571
43121		5.997913	-4.309718	5.994619	1.035281	1.094835	-0.420512	-0.030063	-0.771625	-0.536236	-0.885742	0.385254	-0.031494	0.059631	-0.043248	0.060183	-0.163809	0.455739	-0.127033	0.865639	-33.763239	-48.365066	-143.048308
43122		6.146205	-4.020059	5.786073	0.909559	0.845691	-0.545979	0.019901	-0.927497	-0.698330	-0.898682	0.373779	-0.015625	0.061052	-0.040420	0.058140	-0.161422	0.460200	-0.124619	0.864077	-33.715667	-49.030941	-143.100568
43123		6.709009	-3.781586	5.878108	0.824760	0.479074	-0.171522	0.069410	-1.120732	-0.832646	-0.900391	0.360352	0.002441	0.066601	-0.038114	0.059142	-0.158622	0.465590	-0.121472	0.862154	-33.631050	-49.843386	-143.163560
43124		7.076628	-3.682530	5.938786	0.814685	0.336199	0.093372	0.080807	-1.316953	-0.903700	-0.913086	0.342285	0.025146	0.070206	-0.037167	0.059836	-0.155712	0.471764	-0.117997	0.859808	-33.575087	-50.760152	-143.180137
43125		6.804299	-3.351430	6.734052	1.814756	0.194208	0.164495	0.027772	-1.533393	-0.955252	-0.915283	0.337891	0.040771	0.067363	-0.033847	0.067854	-0.152487	0.478971	-0.114407	0.856881	-33.598307	-51.808739	-143.136094
43126		6.430107	-3.468949	7.315523	2.637661	0.520180	0.170566	-0.046153	-1.760836	-0.959314	-0.921387	0.324219	0.072266	0.063486	-0.034978	0.073725	-0.149268	0.487101	-0.110985	0.853308	-33.764351	-52.954825	-142.963766
43127		7.104922	-3.397719	6.939699	2.187129	0.335803	0.448058	-0.164697	-2.023698	-0.974813	-0.922852	0.302002	0.103760	0.070175	-0.034263	0.070138	-0.145734	0.496455	-0.107782	0.848927	-34.109694	-54.242090	-142.658654
43128		7.060488	-3.283147	6.665587	2.202819	0.366232	0.190674	-0.243183	-2.352231	-1.027970	-0.921875	0.279541	0.130859	0.069644	-0.033109	0.067519	-0.142023	0.507154	-0.104565	0.843617	-34.648680	-55.688686	-142.174387
43129		7.096429	-3.945861	7.306705	2.925093	1.079498	0.655682	-0.264677	-2.749351	-1.123752	-0.923584	0.268311	0.175537	0.069728	-0.039755	0.074084	-0.137917	0.519550	-0.100863	0.837182	-35.369625	-57.361897	-141.501573
43130		6.453803	-4.786961	8.006550	4.022457	2.215714	0.558854	-0.249038	-3.252400	-1.262137	-0.914063	0.252930	0.206787	0.062921	-0.048169	0.081157	-0.133606	0.533917	-0.096395	0.829331	-36.339832	-59.297517	-140.533055
43131		5.635143	-5.249592	8.324168	4.922501	3.089144	-0.075518	-0.219631	-3.899532	-1.534014	-0.906250	0.228516	0.258301	0.054309	-0.052825	0.084372	-0.128502	0.550933	-0.090564	0.819609	-37.606592	-61.621043	-139.222167
43132		5.385519	-6.444783	7.900680	4.871194	4.513363	-0.387493	-0.274590	-4.635186	-1.923122	-0.887207	0.204346	0.303223	0.051382	-0.064840	0.080306	-0.121923	0.570823	-0.083412	0.807674	-39.322937	-64.387655	-137.476554
43133		6.229553	-6.415914	9.009409	6.116039	4.511933	0.352449	-0.273635	-5.477401	-2.437791	-0.877197	0.179932	0.368164	0.059009	-0.064767	0.091829	-0.113518	0.593934	-0.074169	0.793004	-41.689059	-67.690142	-135.060692
43134		7.609774	-7.443140	9.354847	6.570876	5.493870	1.473847	-0.351125	-6.169029	-3.021507	-0.855713	0.148926	0.419678	0.072028	-0.075373	0.095944	-0.102715	0.619381	-0.063072	0.775783	-45.040864	-71.451229	-131.703913
43135		10.176879	-11.309414	10.841530	7.936467	9.185196	4.382190	-0.360989	-6.695670	-3.646668	-0.824951	0.107178	0.484863	0.095979	-0.114680	0.111900	-0.089480	0.646285	-0.049691	0.756201	-50.073566	-75.592319	-126.676279
43136		12.256694	-5.481760	10.839181	8.956254	3.718935	4.454481	-0.167851	-7.030811	-4.264855	-0.789795	0.072266	0.541016	0.117453	-0.057266	0.112629	-0.074482	0.673471	-0.033388	0.734694	-58.750957	-79.936872	-117.905881
43137		17.034881	-6.379442	9.838459	8.644141	4.615564	8.391307	-0.782994	-7.417284	-4.508015	-0.745361	0.028320	0.599365	0.165051	-0.067153	0.104831	-0.056446	0.701153	-0.018300	0.710537	-81.296421	-83.893013	-95.607916
43138		31.704346	-10.835468	17.101722	17.321358	8.941801	22.347348	-1.770986	-6.981602	-4.103134	-0.710205	-0.002197	0.646484	0.308507	-0.113159	0.182876	-0.036248	0.726243	-0.008251	0.686433	-130.681325	-85.160555	-47.048009
43139		17.576683	-12.617383	10.481518	11.609498	12.278257	7.279842	-1.666539	-6.541464	-4.342967	-0.663574	-0.048096	0.682861	0.169411	-0.128989	0.111494	-0.015524	0.748606	0.002970	0.662827	-170.923594	-82.971050	-7.575001
43140		23.339106	-11.604708	14.659130	17.738359	11.999961	11.049862	-1.776555	-5.614470	-4.217396	-0.633057	-0.080811	0.710205	0.226639	-0.119528	0.154069	0.005203	0.766811	0.013272	0.641714	171.926925	-79.739938	8.729523
43141		11.131267	-11.477421	11.730013	13.567404	11.989625	-1.732187	-1.475493	-4.117196	-3.846573	-0.614258	-0.102783	0.732666	0.106632	-0.115975	0.120380	0.023479	0.779407	0.023131	0.625651	163.121553	-76.953377	16.850037
43142		28.855125	-21.105603	24.570238	30.364446	22.888459	11.061921	-1.244467	-1.820107	-2.218788	-0.615723	-0.122803	0.728760	0.283938	-0.212678	0.249620	0.035490	0.784619	0.027639	0.618344	158.889189	-75.550407	20.469604
43143		15.922183	-25.312980	24.376858	27.401513	26.087261	-2.256023	-0.546709	1.544981	-0.910120	-0.634033	-0.118652	0.708740	0.159950	-0.253191	0.243227	0.040232	0.779571	0.029717	0.624314	155.317364	-76.168313	23.824378
43144		-7.348266	-15.963981	16.192926	14.340935	14.754289	-21.965867	0.243444	2.257685	-0.935355	-0.654053	-0.121094	0.684326	-0.072396	-0.159497	0.162556	0.041878	0.772392	0.034546	0.632822	150.997225	-77.079124	28.404910
43145		-1.637130	-7.431141	16.416271	15.821829	6.875818	-15.269822	0.111487	2.397952	-1.005894	-0.685547	-0.121826	0.662354	-0.014776	-0.074326	0.164305	0.044487	0.764560	0.039027	0.641830	145.543411	-77.949219	34.011702
43146		2.251411	-5.851549	15.880765	16.037709	5.769916	-10.807931	-0.642301	2.991226	-0.437599	-0.708008	-0.126465	0.638184	0.024760	-0.058058	0.158635	0.047770	0.754659	0.039270	0.653197	139.028920	-79.151884	40.279204
43147		2.041281	-7.317237	13.568254	13.787047	7.168695	-10.367672	-1.150668	3.739596	0.281383	-0.739502	-0.122559	0.591553	0.023052	-0.072360	0.135686	0.050763	0.742034	0.035071	0.667516	130.325279	-80.779699	48.399033
43148		2.201156	-8.184669	11.608925	11.926327	8.016604	-9.550776	-1.110633	4.405282	0.763682	-0.773438	-0.120850	0.549561	0.024878	-0.081111	0.116014	0.051561	0.727006	0.029610	0.684052	116.995048	-82.553474	61.222498
43149		2.850670	-7.010651	10.706938	11.024779	6.889377	-8.117619	-0.761445	4.912442	1.039915	-0.808105	-0.099121	0.498291	0.031491	-0.069541	0.106586	0.050248	0.709864	0.024263	0.702125	94.874901	-83.927203	83.016469
43150		4.644786	-3.924171	10.964338	11.038919	3.957710	-5.382245	-0.509681	5.383835	1.305744	-0.835449	-0.093018	0.447266	0.049632	-0.038647	0.108435	0.046811	0.690740	0.019153	0.721332	63.997077	-84.105629	113.758693
43151		5.485503	-0.876745	10.940166	10.548218	0.936313	-3.619226	-0.608797	5.860224	1.622862	-0.858887	-0.071045	0.382324	0.058096	-0.007975	0.107756	0.042577	0.669217	0.012533	0.741741	36.011302	-82.614200	141.549028
43152		5.142680	0.914378	10.577559	9.748145	-0.974631	-3.244098	-0.953396	6.142591	1.897950	-0.884277	-0.051270	0.324463	0.054548	0.010151	0.104085	0.038330	0.646022	0.003919	0.762346	18.561513	-79.959185	158.639190
43153		5.788381	1.465938	9.999825	8.582434	-1.636361	-2.114136	-1.360259	6.260286	2.152702	-0.905518	-0.031494	0.261963	0.060806	0.015975	0.098020	0.034396	0.621478	-0.007181	0.782643	7.888647	-76.726464	168.719167
43154		6.044722	0.510252	9.237727	7.321968	-0.859360	-1.582348	-1.592236	6.276540	2.384202	-0.913086	-0.011475	0.206055	0.063232	0.006570	0.090373	0.030225	0.596213	-0.019765	0.802014	0.862068	-73.243079	175.042697
43155		6.296890	-0.033141	9.148627	6.646218	-0.564073	-0.935078	-1.562374	6.183442	2.534002	-0.925293	0.010742	0.138916	0.065748	0.001194	0.089477	0.025286	0.570470	-0.032789	0.820274	-4.111446	-69.642737	179.329079
43156		6.869862	0.606202	9.631317	6.248359	-1.515362	0.133993	-1.482663	6.014011	2.624972	-0.930908	0.035156	0.078613	0.071458	0.007691	0.094139	0.019725	0.544890	-0.045606	0.837034	-7.769361	-66.061620	-177.644027
43157		6.709507	1.061026	9.830028	5.827027	-2.281926	0.363966	-1.508870	5.787133	2.708912	-0.934326	0.068604	0.017822	0.069741	0.012274	0.096219	0.013765	0.519487	-0.058855	0.852338	-10.744884	-62.520684	-175.315495
43158		7.415589	0.597696	10.088978	5.137318	-2.198252	1.406185	-1.582852	5.384098	2.792199	-0.928467	0.088867	-0.038086	0.076734	0.007824	0.098790	0.007556	0.495383	-0.072482	0.865613	-13.312206	-59.172515	-173.418936
43159		9.274047	-1.485102	10.272925	3.851659	-0.648290	3.545228	-1.556137	4.941759	2.977296	-0.914063	0.120361	-0.094238	0.095442	-0.012656	0.100497	0.000236	0.472501	-0.086519	0.877073	-15.717148	-55.983547	-171.639073
43160		14.647563	-3.596805	10.232481	0.220225	0.504848	8.402494	-1.412755	4.601581	3.372280	-0.901855	0.151855	-0.148438	0.149352	-0.032758	0.099149	-0.009225	0.450683	-0.100667	0.886942	-18.049138	-52.901741	-169.772360
43161		19.412376	-5.896270	9.161605	-4.295303	1.736648	11.957097	-1.011321	4.448433	4.027747	-0.880859	0.190186	-0.193604	0.197230	-0.054562	0.087535	-0.022624	0.428624	-0.114530	0.895909	-20.326906	-49.714692	-167.611551
43162		21.919478	-6.292570	7.049353	-8.596753	1.301660	12.412596	-0.369071	4.281847	4.680351	-0.851074	0.233154	-0.239258	0.222028	-0.057627	0.065869	-0.040337	0.406616	-0.126668	0.903876	-22.333641	-46.455742	-165.204386
43163		24.103164	-4.598202	4.287711	-13.230027	-1.162535	11.256152	0.335818	3.952884	4.996012	-0.819092	0.278320	-0.266846	0.242864	-0.039996	0.038018	-0.061078	0.385172	-0.136166	0.910698	-23.888764	-43.229143	-162.743744
43164		29.008826	-1.289673	1.713492	-19.368862	-5.968595	11.045649	0.820905	3.617248	4.961257	-0.777832	0.310303	-0.298828	0.290536	-0.005748	0.011849	-0.082760	0.364916	-0.143050	0.916255	-24.966585	-40.168305	-160.421859
43165		32.865633	2.140824	-1.850617	-25.127651	-10.663772	8.700348	1.001348	3.499533	4.680895	-0.745117	0.335449	-0.328613	0.327644	0.029197	-0.024112	-0.103495	0.344839	-0.148500	0.921044	-25.657555	-37.191917	-158.414716
43166		32.793679	6.212320	-5.716388	-27.652676	-14.749739	3.001102	0.966903	3.361049	4.179598	-0.700684	0.347412	-0.342285	0.325521	0.069236	-0.062325	-0.121881	0.325658	-0.152964	0.925037	-26.057402	-34.416486	-156.789873
43167		30.899526	10.397172	-8.881776	-27.759802	-18.167359	-3.417148	0.668593	3.046367	3.500279	-0.674316	0.365967	-0.364990	0.305713	0.109648	-0.093131	-0.136799	0.308310	-0.157471	0.928135	-26.354459	-31.952926	-155.561168
43168		29.147508	12.678351	-11.434434	-27.468624	-19.610509	-8.459371	0.222348	2.605306	2.729402	-0.643311	0.375488	-0.376465	0.288187	0.130861	-0.117969	-0.147741	0.293891	-0.162426	0.930279	-26.671235	-29.921151	-154.703314
43169		27.016750	13.325447	-13.666893	-26.826251	-19.155572	-12.569328	-0.176608	2.107204	1.897058	-0.636963	0.386719	-0.381104	0.267428	0.135677	-0.139615	-0.154587	0.282611	-0.167628	0.931737	-27.014333	-28.347105	-154.216247
43170		24.863111	13.404775	-15.349996	-25.957421	-18.030126	-15.693334	-0.512059	1.496297	0.991438	-0.618896	0.384766	-0.387939	0.246804	0.134877	-0.155696	-0.157232	0.275220	-0.172589	0.932601	-27.372254	-27.327026	-154.084694
43171		23.730635	11.538196	-15.361290	-25.425280	-15.775653	-15.888542	-0.809415	0.873084	0.173429	-0.623535	0.391357	-0.385742	0.236532	0.114962	-0.155112	-0.156183	0.271637	-0.177310	0.932942	-27.766380	-26.837229	-154.243256
43172		22.430513	10.794422	-25.757575	-30.514445	-11.868891	-24.341357	-0.466401	-0.665456	-0.928393	-0.621094	0.384766	-0.383545	0.225657	0.106299	-0.257076	-0.151816	0.275950	-0.177726	0.932318	-27.888330	-27.424767	-154.568611
43173		29.102181	10.267229	-28.132323	-37.585559	-13.338285	-22.185385	0.403015	-2.302387	-1.764639	-0.640869	0.370850	-0.369629	0.295127	0.100642	-0.277737	-0.146189	0.287966	-0.171652	0.930720	-27.509351	-29.067836	-154.884607
43174		9.528147	8.102558	-7.860583	-10.805963	-9.038056	-14.255527	0.903828	-3.559767	-2.003787	-0.665283	0.368164	-0.351807	0.097464	0.080405	-0.076520	-0.141199	0.305554	-0.161947	0.927617	-26.945040	-31.408779	-154.982832
43175		24.434481	-15.071564	26.957112	-4.201897	-0.616458	29.336788	0.254911	-3.351878	-1.310559	-0.685303	0.361084	-0.340332	0.238788	-0.152639	0.273411	-0.138212	0.322019	-0.156361	0.923446	-26.930001	-33.470864	-154.739734
43176		34.230133	-6.354749	16.708226	-15.897087	-9.317216	24.122971	1.625163	-1.780864	-1.643923	-0.698486	0.352051	-0.344727	0.340253	-0.067721	0.169579	-0.134624	0.330396	-0.144989	0.922872	-25.738349	-34.805273	-155.209328
43177		15.354258	1.316170	9.798224	-4.809289	-8.127340	5.817364	0.961134	-1.111529	-1.097417	-0.714111	0.347168	-0.344482	0.153062	0.011847	0.098893	-0.131958	0.335763	-0.137970	0.922396	-24.982404	-35.661862	-155.565144
43178		8.633592	-3.672581	10.215031	-0.204866	-1.111168	4.011001	0.599171	-0.619443	-0.952473	-0.725098	0.340332	-0.342041	0.085842	-0.037442	0.102305	-0.129003	0.338902	-0.133222	0.922364	-24.392210	-36.214467	-155.991069
43179		4.883367	-3.756706	6.999742	0.496407	0.850746	-0.539897	0.787407	-0.861859	-0.973714	-0.744873	0.331055	-0.337402	0.048347	-0.038079	0.070057	-0.126428	0.343114	-0.127356	0.921992	-23.715030	-36.905323	-156.368998
43180		17.235285	-1.811635	7.425362	-7.932043	-4.836067	6.593554	0.808085	-0.411704	-0.765975	-0.755859	0.324219	-0.341553	0.172128	-0.019077	0.074532	-0.124551	0.345010	-0.122080	0.922253	-23.023229	-37.298200	-156.753410
43181		8.932600	0.121422	8.009653	-1.167446	-3.996326	1.440160	0.476268	-0.110938	-0.425003	-0.767090	0.321777	-0.341309	0.089284	0.000834	0.080148	-0.123490	0.345595	-0.119054	0.922573	-22.599943	-37.464448	-156.999158
43182		9.225188	-3.466332	6.343462	-3.019799	-0.429683	1.503456	0.305431	0.056818	-0.236393	-0.771240	0.317139	-0.345703	0.092229	-0.034869	0.063355	-0.122900	0.345311	-0.117297	0.922983	-22.324588	-37.488414	-157.169183
43183		5.120569	-3.228008	8.323800	1.322731	0.385590	0.386700	0.255071	0.136870	-0.195678	-0.776123	0.323730	-0.345947	0.051231	-0.032436	0.083162	-0.122369	0.344752	-0.115835	0.923447	-22.078007	-37.471866	-157.331653
43184		6.017276	-3.454526	7.459619	0.042204	0.467069	0.364112	0.247123	0.106200	-0.215148	-0.784668	0.314697	-0.343506	0.060175	-0.034702	0.074521	-0.121746	0.344262	-0.114414	0.923889	-21.836477	-37.463849	-157.501024
43185		6.609469	-2.548719	7.540323	-0.218841	-0.546456	0.516442	0.239779	0.107294	-0.209953	-0.789307	0.316895	-0.341309	0.066108	-0.025647	0.075337	-0.121139	0.343854	-0.112980	0.924297	-21.597865	-37.464742	-157.664936
43186		6.951384	-2.355324	7.130848	-0.725485	-0.750936	0.367095	0.211071	0.069079	-0.220961	-0.793457	0.310059	-0.343262	0.069512	-0.023705	0.071260	-0.120448	0.343558	-0.111693	0.924654	-21.380632	-37.476638	-157.828313
43187		7.242573	-2.437827	6.687303	-1.253068	-0.675734	0.241716	0.181940	0.066620	-0.215867	-0.795898	0.310059	-0.341064	0.072422	-0.024517	0.066827	-0.119737	0.343374	-0.110490	0.924959	-21.179046	-37.499513	-157.985561
43188		7.286093	-2.395809	6.914341	-1.137972	-0.729545	0.424884	0.165235	0.074813	-0.212823	-0.802490	0.307617	-0.340820	0.072861	-0.024093	0.069096	-0.119002	0.343074	-0.109432	0.925291	-20.990329	-37.505749	-158.145115
43189		5.838270	-2.622119	7.414808	0.219204	-0.123019	-0.021005	0.153118	0.059939	-0.181418	-0.806885	0.307617	-0.340820	0.058381	-0.026331	0.074110	-0.118396	0.342919	-0.108414	0.925546	-20.819541	-37.524726	-158.278747
43190		6.022272	-2.898764	8.194556	0.554448	0.013978	0.747317	0.138803	-0.005362	-0.173544	-0.813721	0.307617	-0.336426	0.060195	-0.029097	0.081927	-0.117840	0.342983	-0.107497	0.925700	-20.674476	-37.565203	-158.391368
43191		6.380516	-2.925234	7.416979	-0.224621	0.049480	0.396456	0.118139	-0.026674	-0.184011	-0.818115	0.305176	-0.332031	0.063768	-0.029355	0.074161	-0.117209	0.343249	-0.106586	0.925787	-20.535730	-37.630435	-158.505068
43192		5.896929	-2.549772	7.717544	0.388104	-0.181550	0.219859	0.096096	-0.060682	-0.184707	-0.826904	0.300537	-0.331787	0.058922	-0.025589	0.077181	-0.116557	0.343599	-0.105815	0.925828	-20.418621	-37.702421	-158.611674
43193		6.123694	-2.926946	7.519455	0.045039	0.155420	0.315620	0.090141	-0.089054	-0.182116	-0.824707	0.302734	-0.320801	0.061177	-0.029359	0.075209	-0.115911	0.344168	-0.104997	0.925791	-20.305064	-37.800500	-158.710201
43194		6.232721	-2.630559	7.106060	-0.258321	-0.090814	-0.005154	0.090755	-0.080248	-0.186467	-0.827148	0.309326	-0.320801	0.062274	-0.026396	0.071074	-0.115252	0.344611	-0.104236	0.925794	-20.192658	-37.883016	-158.813707
43195		6.005807	-2.891155	7.537045	0.166330	0.192559	0.245681	0.075790	-0.073840	-0.169018	-0.826904	0.300537	-0.316162	0.060006	-0.028991	0.075382	-0.114649	0.345109	-0.103521	0.925764	-20.091036	-37.969531	-158.905586
43196		5.982718	-3.252345	7.045730	-0.186413	0.615022	-0.035165	0.074681	-0.056165	-0.158575	-0.833740	0.302490	-0.313965	0.059782	-0.032597	0.070462	-0.114079	0.345435	-0.102896	0.925782	-19.995278	-38.033313	-158.996641
43197		6.492451	-2.709490	6.940689	-0.548183	-0.016371	0.054714	0.082497	-0.042558	-0.171938	-0.834229	0.315918	-0.312012	0.064886	-0.027179	0.069409	-0.113454	0.345785	-0.102162	0.925810	-19.883104	-38.103247	-159.099348
43198		6.527711	-2.514415	7.350441	-0.271026	-0.240030	0.327884	0.077456	-0.037861	-0.170701	-0.836182	0.306885	-0.302979	0.065242	-0.025228	0.073507	-0.112823	0.346030	-0.101514	0.925867	-19.777385	-38.159254	-159.203697
43199		5.876814	-2.850309	7.185429	0.056283	0.298717	-0.107062	0.090559	-0.029500	-0.177216	-0.842773	0.306885	-0.300781	0.058732	-0.028588	0.071850	-0.112207	0.346316	-0.100746	0.925918	-19.657799	-38.222158	-159.309930
43200		4.881436	-3.175546	7.608783	1.027502	0.858007	-0.325110	0.112173	-0.041001	-0.195718	-0.840576	0.304688	-0.302979	0.048768	-0.031846	0.076080	-0.111522	0.346568	-0.099891	0.925999	-19.521550	-38.284321	-159.431181
43201		4.897134	-3.354144	7.809534	1.132380	1.025232	-0.123127	0.129757	-0.090695	-0.221413	-0.842773	0.304688	-0.293945	0.048899	-0.033646	0.078096	-0.110792	0.347135	-0.098831	0.925988	-19.368791	-38.388277	-159.554666
43202		5.448606	-1.912092	8.238478	1.220538	-0.524113	0.159847	0.147019	-0.155264	-0.240147	-0.849121	0.297852	-0.289551	0.054399	-0.019247	0.082413	-0.110018	0.347918	-0.097674	0.925910	-19.209869	-38.520141	-159.679734
43203		5.627971	-2.569592	7.429109	0.481116	0.166045	-0.158187	0.042678	-0.236031	-0.249068	-0.851074	0.291016	-0.280518	0.056160	-0.025782	0.074352	-0.109078	0.349215	-0.096888	0.925615	-19.115567	-38.707190	-159.788716
43204		5.584490	-2.054551	7.913430	0.934114	-0.344803	0.038125	0.006662	-0.325657	-0.250327	-0.857666	0.286377	-0.282471	0.055690	-0.020618	0.079224	-0.108095	0.350866	-0.096269	0.925171	-19.056914	-38.932874	-159.881124
43205		5.640726	-1.885653	7.621037	0.757413	-0.472329	-0.186849	-0.035197	-0.391487	-0.240188	-0.857910	0.288818	-0.282471	0.056235	-0.018911	0.076324	-0.107117	0.352915	-0.095771	0.924557	-19.031957	-39.202475	-159.950327
43206		6.162185	-2.013424	7.622108	0.407237	-0.472207	0.173997	-0.070658	-0.489107	-0.228848	-0.864258	0.284180	-0.269043	0.061412	-0.020178	0.076379	-0.106174	0.355349	-0.095458	0.923765	-19.050940	-39.512614	-159.989109
43207		5.848934	-2.290644	7.466891	0.548839	-0.092759	-0.070950	-0.113531	-0.540930	-0.221862	-0.871094	0.281738	-0.260010	0.058262	-0.022929	0.074840	-0.105212	0.358115	-0.095272	0.922826	-19.101376	-39.859557	-160.009424
43208		6.121092	-2.314066	7.192130	0.221780	-0.101129	-0.092109	-0.124063	-0.605569	-0.235374	-0.866211	0.277344	-0.249023	0.060965	-0.023168	0.072121	-0.104198	0.361112	-0.095131	0.921787	-19.166181	-40.234011	-160.023986
43209		5.782245	-2.223301	7.304377	0.619836	-0.097001	-0.255630	-0.149119	-0.673415	-0.241027	-0.875244	0.274902	-0.244385	0.057549	-0.022248	0.073254	-0.103137	0.364506	-0.095003	0.920583	-19.249235	-40.656282	-160.025422
43210		6.351964	-2.636779	7.491523	0.368376	0.147207	0.349253	-0.172217	-0.762746	-0.259386	-0.881592	0.265869	-0.230957	0.063199	-0.026385	0.075179	-0.101996	0.368253	-0.094956	0.919222	-19.356840	-41.120308	-160.016503
43211		5.456786	-2.845193	7.631847	1.161503	0.579894	-0.095141	-0.191142	-0.834946	-0.305659	-0.890625	0.267822	-0.221924	0.054205	-0.028462	0.076572	-0.100623	0.372428	-0.094815	0.917705	-19.460714	-41.642239	-160.023432
43212		5.710107	-3.231578	7.533241	0.964043	0.915645	0.088296	-0.176126	-0.948499	-0.381473	-0.898926	0.250000	-0.206055	0.056681	-0.032358	0.075630	-0.098998	0.377071	-0.094461	0.916021	-19.544916	-42.229915	-160.053065
43213		6.196945	-2.853004	6.958470	0.366719	0.514451	-0.088399	-0.146587	-1.095352	-0.475492	-0.905518	0.245361	-0.188232	0.061519	-0.028625	0.069943	-0.097031	0.382474	-0.093664	0.914071	-19.585147	-42.924972	-160.117233
43214		5.797949	-2.547614	7.879959	1.456142	0.267113	0.187664	-0.136696	-1.252300	-0.550099	-0.914063	0.233887	-0.172363	0.057414	-0.025581	0.079178	-0.094845	0.388539	-0.092654	0.911843	-19.615958	-43.709073	-160.190995
43215		5.773154	-3.149884	7.444732	1.235619	0.942022	-0.001523	-0.105676	-1.429034	-0.626167	-0.916016	0.229492	-0.156738	0.057099	-0.031639	0.074874	-0.092394	0.395474	-0.091212	0.909255	-19.613029	-44.613262	-160.283089
43216		6.111487	-3.056412	7.622291	1.305284	0.809611	0.308049	-0.071753	-1.609423	-0.720323	-0.924316	0.213623	-0.131836	0.060388	-0.030755	0.076722	-0.089713	0.403163	-0.089394	0.906322	-19.579936	-45.622836	-160.392176
43217		5.880010	-2.560782	7.664082	1.710442	0.448211	0.022987	-0.038123	-1.822109	-0.815094	-0.926514	0.208984	-0.102783	0.057994	-0.025831	0.077177	-0.086693	0.411869	-0.087078	0.902921	-19.504390	-46.775113	-160.529135
43218		6.572100	-2.634478	7.739010	1.513975	0.433335	0.557498	-0.024138	-2.057866	-0.907787	-0.936768	0.186523	-0.071289	0.064800	-0.026631	0.078063	-0.083440	0.421564	-0.084448	0.898994	-19.417895	-48.062548	-160.669579
43219		6.713023	-2.668216	7.582952	1.529415	0.540053	0.533758	0.017621	-2.250019	-0.991614	-0.940918	0.181885	-0.044434	0.066138	-0.027018	0.076575	-0.079892	0.432140	-0.081314	0.894573	-19.280263	-49.479024	-160.842560
43220		5.926569	-3.223177	7.897480	2.462310	1.324954	0.190222	0.042342	-2.473440	-1.118023	-0.940186	0.159668	-0.001953	0.058102	-0.032576	0.079691	-0.075984	0.443626	-0.077742	0.889595	-19.094707	-51.030460	-161.056337
43221		5.852173	-4.103308	8.249890	3.000684	2.290351	0.428736	0.077852	-2.754265	-1.289023	-0.946289	0.145996	0.036133	0.057112	-0.041437	0.083276	-0.071488	0.456378	-0.073460	0.883862	-18.814696	-52.773217	-161.353864
43222		5.789596	-3.368163	7.932955	3.118147	1.737700	-0.063717	0.171125	-3.118516	-1.522794	-0.934326	0.126221	0.074463	0.056391	-0.034183	0.080188	-0.066286	0.470613	-0.068132	0.877204	-18.372157	-54.747418	-161.784738
43223		5.794740	-3.680184	8.137044	3.600069	2.190049	-0.037088	0.213500	-3.559671	-1.807016	-0.931396	0.112793	0.110107	0.056151	-0.037402	0.082341	-0.060063	0.486750	-0.061732	0.869285	-17.731551	-57.017090	-162.409505
43224		5.958761	-4.795133	8.239556	3.936259	3.447323	0.136666	0.304622	-4.084293	-2.184755	-0.919189	0.088379	0.168213	0.057360	-0.048713	0.083508	-0.052555	0.504977	-0.053877	0.859845	-16.750526	-59.625698	-163.360538
43225		5.675954	-6.035865	7.419716	3.737570	4.978511	-0.597684	0.541108	-4.661159	-2.678525	-0.920410	0.061768	0.213379	0.054196	-0.061299	0.075315	-0.043641	0.525474	-0.043532	0.848574	-15.094495	-62.623977	-164.896454
43226		5.461597	-6.210610	8.091597	4.888523	5.430575	-0.843669	0.729474	-5.306443	-3.217901	-0.896240	0.024170	0.271729	0.051437	-0.063249	0.082080	-0.033038	0.548294	-0.030834	0.835064	-12.465336	-66.019400	-167.352096
43227		5.698073	-7.157262	7.849307	5.058722	6.672401	-1.144655	0.878791	-5.990005	-3.846213	-0.877197	-0.004395	0.327881	0.053209	-0.072969	0.079806	-0.020289	0.573450	-0.015612	0.818841	-8.130841	-69.800246	-171.484235
43228		7.788118	-7.593896	8.277659	5.343765	7.406492	0.352567	1.165024	-6.596637	-4.498650	-0.846191	-0.046387	0.395264	0.073365	-0.078113	0.084796	-0.005709	0.600239	0.002704	0.799796	-0.518478	-73.774263	-178.792885
43229		9.467020	-4.237469	6.878523	4.294705	4.549132	0.941548	1.372034	-7.165850	-5.124045	-0.813232	-0.081299	0.458008	0.090999	-0.045224	0.071786	0.010767	0.628227	0.023754	0.777593	13.542805	-77.553582	167.515702
43230		16.680719	-4.112769	9.629466	6.517336	5.592114	7.903553	1.100244	-7.445026	-5.344431	-0.762451	-0.118408	0.527344	0.161890	-0.046050	0.102139	0.028964	0.655939	0.044356	0.752952	37.706590	-80.134531	143.545262
43231		14.982308	-6.472157	7.854138	6.169167	8.615504	4.868127	1.398912	-7.375648	-5.581643	-0.718506	-0.148926	0.581055	0.144911	-0.069385	0.083473	0.046995	0.681980	0.066783	0.726797	69.305372	-80.078898	112.304111
43232		20.144895	0.913679	11.386368	10.813295	3.175277	10.409880	0.669952	-7.400702	-5.045231	-0.662842	-0.190186	0.625977	0.197192	0.003728	0.121233	0.065473	0.706670	0.084579	0.699412	93.547850	-77.804336	88.009153
43233		21.752772	-5.722094	12.811212	13.598006	10.864105	9.336362	-0.354167	-7.498956	-4.684067	-0.612061	-0.227051	0.673340	0.211106	-0.061980	0.136216	0.086215	0.730123	0.097317	0.670833	108.357094	-74.323110	72.550997
43234		27.569530	-10.608634	16.936964	19.711414	17.688894	11.575053	-1.054091	-6.716748	-4.208411	-0.559326	-0.248291	0.702393	0.267491	-0.110847	0.179022	0.107385	0.749578	0.106138	0.644466	116.158630	-70.623537	63.738882
43235		23.293196	-10.590613	10.381441	13.997173	16.987614	6.853627	-1.067605	-4.827767	-3.730528	-0.529053	-0.278809	0.722900	0.228305	-0.109618	0.109942	0.125921	0.762231	0.113975	0.624626	119.345138	-67.445457	59.667808
43236		29.242015	-24.568580	23.165426	28.282068	31.671060	4.053747	-0.330103	-2.486417	-1.470859	-0.533691	-0.276855	0.720703	0.287692	-0.247426	0.235658	0.133191	0.768885	0.116941	0.614330	121.038462	-66.000178	57.615364
43237		35.592846	-34.231873	23.962016	30.408826	42.718642	6.408115	0.095913	1.585957	1.927600	-0.570068	-0.264160	0.707275	0.361091	-0.338969	0.236607	0.125959	0.765142	0.110764	0.621630	120.598190	-67.423308	58.146277
43238		-12.065953	-21.929242	11.258719	8.279762	16.465656	-30.147600	1.817503	1.972019	2.047003	-0.604492	-0.242432	0.689209	-0.117295	-0.221523	0.111748	0.111549	0.761197	0.109778	0.629352	120.709397	-69.008135	59.144600
43239		-3.615185	-4.173373	13.958437	12.936347	2.586669	-16.973271	1.705603	0.934941	1.603445	-0.618652	-0.224854	0.682129	-0.035157	-0.043208	0.139386	0.099470	0.760012	0.109392	0.632868	121.738909	-70.087000	59.077361
43240		8.055279	0.220722	18.516584	19.611975	1.845786	-5.367800	-0.057921	1.068786	2.172340	-0.655029	-0.214355	0.659912	0.081510	0.003143	0.184731	0.092239	0.757750	0.101447	0.637978	122.109720	-71.466916	58.646263
43241		8.653989	-3.617143	17.265573	18.307801	5.429034	-5.188892	-1.690665	2.065944	3.113989	-0.691406	-0.204102	0.639893	0.088853	-0.033344	0.172036	0.087932	0.751780	0.084876	0.647990	120.864144	-73.610370	58.885720
43242		8.777870	-8.064625	14.409087	15.420286	9.407916	-4.982136	-2.100922	3.228277	3.708330	-0.730713	-0.182373	0.593018	0.091554	-0.077463	0.143458	0.082427	0.741719	0.065491	0.662397	117.511879	-76.367647	61.106037
43243		7.344794	-8.463720	11.572664	12.390703	9.224586	-5.250990	-1.583016	4.136815	3.912445	-0.767822	-0.154053	0.543701	0.077454	-0.082237	0.114809	0.074149	0.728271	0.047153	0.679632	110.750871	-79.395236	67.052128
43244		7.132565	-6.051242	10.115871	10.659571	6.601744	-4.107457	-0.879411	4.807224	3.987423	-0.800781	-0.116943	0.500732	0.074914	-0.058602	0.099647	0.062645	0.712207	0.031376	0.698464	97.046349	-82.294886	80.414038
43245		7.272481	-3.183186	9.582948	9.676640	3.553022	-2.845773	-0.436188	5.332891	4.066166	-0.829346	-0.077148	0.448975	0.075870	-0.030104	0.093901	0.049193	0.693609	0.016807	0.718473	68.043366	-84.282802	109.328934
43246		7.295224	-1.928696	8.899424	8.504963	2.087557	-2.105817	-0.209522	5.755800	4.069976	-0.857910	-0.035400	0.388184	0.075843	-0.017671	0.086858	0.034797	0.672815	0.003317	0.738985	28.664809	-83.809474	148.780500
43247		7.731768	-1.043215	8.567000	7.581902	0.979880	-1.108436	-0.007175	6.093169	3.930812	-0.881836	-0.000244	0.334473	0.080064	-0.008873	0.083259	0.020132	0.649831	-0.009069	0.759758	4.560448	-81.038673	173.066047
43248		8.401734	0.122734	8.933499	7.194238	-0.460986	0.106170	0.113185	6.379824	3.743895	-0.896973	0.041992	0.264648	0.086767	0.002785	0.086597	0.005828	0.625019	-0.020182	0.780327	-6.340930	-77.336211	-175.779661
43249		7.958373	1.595074	9.392419	7.036269	-2.224344	0.166564	0.058877	6.574274	3.507976	-0.916504	0.077393	0.210693	0.082317	0.017352	0.091253	-0.007476	0.598473	-0.030897	0.800512	-11.713156	-73.277186	-170.205117
43250		7.922921	3.096065	9.760130	6.691376	-4.019328	0.513660	-0.255639	6.644981	3.266202	-0.915039	0.099854	0.141357	0.081891	0.032406	0.094869	-0.018746	0.570999	-0.041948	0.819664	-14.672399	-69.144637	-167.239353
43251		7.392486	2.758801	9.311647	5.777194	-3.930064	0.191966	-0.741255	6.596177	3.055333	-0.925537	0.135254	0.076416	0.076502	0.029082	0.090515	-0.027866	0.542889	-0.054482	0.837572	-16.717360	-65.009851	-165.491713
43252		6.685773	1.272397	8.724592	4.900038	-2.663412	-0.258241	-1.175095	6.336866	2.873395	-0.919678	0.153320	0.015869	0.069378	0.014213	0.084993	-0.034963	0.515423	-0.068078	0.853512	-18.335739	-61.054243	-164.435717
43253		8.247892	-0.496609	8.487524	3.327264	-1.455593	1.459891	-1.490650	5.907820	2.799574	-0.916504	0.189209	-0.042480	0.084991	-0.003168	0.082417	-0.041146	0.489091	-0.082829	0.867316	-19.908354	-57.306931	-163.611962
43254		10.358944	-3.748143	7.987191	1.136868	1.056140	3.703318	-1.602420	5.482195	2.857335	-0.897461	0.214111	-0.105225	0.106247	-0.035350	0.077272	-0.047327	0.464242	-0.097878	0.879011	-21.449649	-53.792462	-162.860710
43255		14.448546	-7.113286	7.794692	-2.107589	3.139445	7.672416	-1.430425	5.031670	3.087391	-0.871826	0.245850	-0.152832	0.147463	-0.068329	0.074757	-0.055218	0.440594	-0.112663	0.888895	-23.004153	-50.429595	-161.944040
43256		20.655734	-8.664812	7.796366	-6.850648	2.721134	12.726681	-1.099182	4.693293	3.684189	-0.839355	0.277832	-0.191406	0.209862	-0.082390	0.073525	-0.066504	0.417788	-0.126935	0.897172	-24.606045	-47.119378	-160.656476
43257		22.957916	-8.261270	5.768891	-10.986648	1.248717	12.684605	-0.612697	4.358482	4.460341	-0.795654	0.314209	-0.221191	0.232530	-0.077281	0.052885	-0.082568	0.395257	-0.140585	0.903986	-26.241359	-43.740857	-158.872197
43258		25.469356	-5.376900	3.550246	-15.208537	-2.787211	11.421796	-0.094320	3.805857	5.086609	-0.754150	0.341797	-0.246582	0.256565	-0.047244	0.030655	-0.102659	0.374348	-0.152589	0.908868	-27.754021	-40.476486	-156.702565
43259		29.412764	-1.045444	1.499880	-19.875669	-8.844998	10.058970	0.305639	3.310212	5.462811	-0.707764	0.362793	-0.267090	0.294462	-0.002432	0.010119	-0.125613	0.354651	-0.163241	0.912029	-29.096341	-37.293138	-154.306719
43260		31.730106	3.730721	-0.812941	-23.008850	-14.835459	6.666225	0.613354	3.017437	5.433545	-0.683594	0.376465	-0.274170	0.315962	0.045939	-0.012772	-0.148958	0.335927	-0.171919	0.914007	-30.085898	-34.253934	-152.018909
43261		32.355490	8.103641	-3.372604	-24.566344	-19.606585	1.836517	0.824304	2.888778	4.833193	-0.652832	0.392822	-0.290283	0.320940	0.088965	-0.038019	-0.169883	0.317712	-0.178477	0.915612	-30.625980	-31.410168	-150.172546
43262		32.295370	11.714892	-6.088064	-25.402327	-23.005592	-3.291002	0.975958	2.902219	3.796523	-0.628174	0.395508	-0.310303	0.319726	0.123549	-0.064944	-0.186181	0.300143	-0.182476	0.917580	-30.666105	-28.872574	-148.985300
43263		31.058415	14.725111	-8.880607	-25.273702	-24.904439	-8.725929	0.999186	2.917343	2.564787	-0.614746	0.397949	-0.321533	0.307326	0.151663	-0.092555	-0.196749	0.283361	-0.184508	0.920301	-30.321032	-26.676408	-148.513659
43264		28.360761	18.116860	-11.811833	-23.874049	-26.014938	-14.837434	0.687477	2.680204	1.340678	-0.607910	0.391602	-0.345947	0.280772	0.183470	-0.121266	-0.201406	0.269110	-0.185882	0.923289	-29.880532	-24.964536	-148.627681
43265		26.007082	18.719305	-13.901665	-23.002209	-24.796963	-18.531023	0.007970	2.150731	0.274906	-0.594482	0.396240	-0.348389	0.258298	0.187555	-0.141793	-0.200683	0.258881	-0.188418	0.925854	-29.665418	-23.812709	-149.148264
43266		25.103898	15.475523	-15.954976	-24.426818	-20.823009	-19.506596	-0.507875	1.337460	-0.575815	-0.598389	0.378418	-0.350098	0.250406	0.153625	-0.161617	-0.196105	0.253763	-0.191383	0.927642	-29.670349	-23.312098	-149.871598
43267		26.247464	11.098244	-16.644764	-27.095203	-17.095200	-17.733327	-0.594568	0.493941	-1.115971	-0.598633	0.382813	-0.347900	0.262674	0.109020	-0.167422	-0.189712	0.253141	-0.193218	0.928760	-29.713869	-23.384674	-150.626050
43268		23.873928	9.152573	-24.361410	-30.162109	-12.118650	-23.616978	0.376279	-1.095880	-2.121320	-0.609131	0.364746	-0.338623	0.241025	0.089434	-0.242128	-0.181394	0.259932	-0.187756	0.929666	-29.169463	-24.530886	-151.443350
43269		12.673167	14.799404	-21.417409	-18.705634	-13.032406	-27.658544	0.684947	-2.996076	-2.870293	-0.631104	0.353271	-0.320557	0.132029	0.146852	-0.211718	-0.171730	0.275943	-0.178079	0.928791	-28.485260	-26.835098	-152.118577
43270		20.074402	-25.814301	16.463291	-11.558908	10.907146	23.166770	1.179065	-3.553757	-2.505919	-0.634766	0.333008	-0.309082	0.194532	-0.261585	0.166591	-0.164851	0.293622	-0.166074	0.926838	-27.649460	-29.309363	-152.465366
43271		4.616779	-12.897800	13.778588	2.216424	6.962662	8.189707	1.224458	-2.916705	-1.873075	-0.656982	0.325928	-0.286621	0.042944	-0.130233	0.137633	-0.160374	0.307725	-0.155215	0.924929	-26.841792	-31.296166	-152.678675
43272		30.209254	-6.539753	13.152504	-15.601611	-8.061141	18.819124	1.956694	-4.032655	-1.701019	-0.665771	0.319092	-0.284180	0.298790	-0.069270	0.136907	-0.158610	0.326063	-0.140297	0.921327	-25.822054	-33.801351	-152.495731
43273		32.258757	10.340596	17.764176	-10.113733	-24.293437	17.947231	1.397047	-1.024555	-1.101676	-0.674316	0.312256	-0.281738	0.322228	0.100378	0.180001	-0.156532	0.330529	-0.131243	0.921425	-24.809535	-34.612794	-152.876098
43274		6.143878	-0.328145	10.232131	2.132168	-3.343611	1.448876	0.621303	-1.016553	-1.126491	-0.679199	0.321045	-0.284180	0.060897	-0.003944	0.102620	-0.153038	0.335482	-0.125744	0.920989	-24.216457	-35.412734	-153.294700
43275		5.027003	-5.888075	6.869641	-0.277849	2.774061	0.155121	0.895796	-1.011853	-0.963367	-0.687988	0.316406	-0.283936	0.049637	-0.059429	0.068683	-0.150748	0.340158	-0.119197	0.920521	-23.510976	-36.178916	-153.621764
43276		15.140370	-2.625146	9.792480	-4.924746	-4.025855	7.262088	0.951722	-0.901544	-0.862760	-0.699219	0.313965	-0.292725	0.150844	-0.027371	0.098477	-0.148935	0.344122	-0.112692	0.920163	-22.784584	-36.850467	-153.931293
43277		9.175835	0.970641	6.860124	-1.836439	-4.814802	0.465644	0.489130	0.020356	-0.440479	-0.710938	0.327148	-0.288574	0.091786	0.009336	0.068615	-0.147750	0.344022	-0.109670	0.920756	-22.328636	-36.949634	-154.222274
43278		8.182919	-4.186164	8.138551	-1.294498	0.270857	2.392672	0.343187	-0.053266	-0.310201	-0.713135	0.324951	-0.299561	0.081742	-0.042128	0.081335	-0.146948	0.344211	-0.107542	0.921065	-22.021765	-37.047294	-154.410599
43279		7.948507	-3.521185	7.457143	-1.455931	-0.148673	1.547084	0.345218	0.048082	-0.307254	-0.718018	0.335938	-0.306396	0.079449	-0.035463	0.074491	-0.146113	0.344014	-0.105428	0.921515	-21.694991	-37.100782	-154.622239
43280		6.042299	-2.079812	7.745049	0.380195	-0.828691	0.186782	0.267161	0.045531	-0.276784	-0.740234	0.331055	-0.303955	0.060412	-0.020985	0.077409	-0.145280	0.343782	-0.103779	0.921921	-21.428130	-37.137143	-154.815921
43281		6.677145	-1.933744	7.684325	-0.093323	-1.140436	0.486007	0.200243	-0.040328	-0.231226	-0.745117	0.339844	-0.306396	0.066733	-0.019492	0.076837	-0.144592	0.344056	-0.102398	0.922081	-21.228266	-37.220435	-154.954356
43282		6.623689	-2.397315	7.489228	-0.273131	-0.642048	0.445091	0.143228	-0.079101	-0.206216	-0.752197	0.346436	-0.313232	0.066182	-0.024095	0.074901	-0.143934	0.344450	-0.101351	0.922152	-21.079898	-37.307702	-155.068970
43283		6.101498	-3.012115	7.466582	-0.022646	0.136372	0.288391	0.086547	-0.111557	-0.212794	-0.768066	0.350586	-0.308838	0.060941	-0.030218	0.074687	-0.143228	0.345121	-0.100486	0.922106	-20.967091	-37.422801	-155.169410
43284		5.851479	-3.274442	7.865490	0.385319	0.456473	0.505780	0.113166	-0.180972	-0.235565	-0.779053	0.345947	-0.306396	0.058405	-0.032858	0.078689	-0.142434	0.346020	-0.099454	0.922004	-20.838993	-37.570194	-155.278412
43285		5.952174	-2.332398	8.086299	0.663767	-0.455242	0.463926	0.058408	-0.229700	-0.207369	-0.788330	0.350098	-0.302002	0.059405	-0.023409	0.080924	-0.141763	0.347251	-0.098644	0.921732	-20.761988	-37.747044	-155.345785
43286		6.344351	-2.192278	7.661710	0.151976	-0.661363	0.350879	-0.004776	-0.302693	-0.174878	-0.792725	0.350098	-0.299805	0.063308	-0.021976	0.076714	-0.141103	0.348763	-0.098173	0.921312	-20.744788	-37.947105	-155.383318
43287		6.655138	-2.419748	7.572694	-0.138403	-0.525972	0.540854	-0.039510	-0.348669	-0.152790	-0.804199	0.358643	-0.291016	0.066401	-0.024233	0.075848	-0.140571	0.350581	-0.097821	0.920741	-20.764639	-38.176512	-155.383528
43288		6.382576	-2.152141	7.175979	-0.120821	-0.643884	0.007411	-0.078239	-0.396283	-0.138161	-0.815430	0.354004	-0.284180	0.063669	-0.021537	0.071894	-0.139998	0.352555	-0.097687	0.920089	-20.819824	-38.419257	-155.371807
43289		6.527923	-2.226997	7.683514	0.152251	-0.653240	0.490689	-0.125718	-0.469929	-0.089843	-0.815674	0.360596	-0.286621	0.065088	-0.022251	0.077002	-0.139668	0.354956	-0.097755	0.919208	-20.936178	-38.700572	-155.295733
43290		6.854432	-2.488433	7.298769	-0.337981	-0.478271	0.488010	-0.130281	-0.483388	-0.050096	-0.824463	0.358154	-0.273193	0.068361	-0.024854	0.073169	-0.139449	0.357320	-0.097953	0.918304	-21.074372	-38.971785	-155.199326
43291		5.273895	-3.048694	7.453638	0.835413	0.553437	-0.238725	-0.222982	-0.546657	-0.059759	-0.829102	0.362549	-0.268799	0.052526	-0.030419	0.074714	-0.139122	0.360122	-0.098466	0.917203	-21.274496	-39.287518	-155.079382
43292		6.294222	-3.248175	7.231923	-0.004957	0.428989	0.300872	-0.195483	-0.676582	-0.129154	-0.831299	0.362549	-0.255371	0.062676	-0.032451	0.072563	-0.138515	0.363449	-0.098684	0.915958	-21.451318	-39.677845	-154.982306
43293		6.365677	-2.651213	7.356897	0.217378	-0.158263	0.267089	-0.224085	-0.724117	-0.165629	-0.835693	0.360107	-0.244141	0.063368	-0.026482	0.073828	-0.137784	0.367107	-0.098884	0.914587	-21.639683	-40.109735	-154.883432
43294		6.631652	-2.360766	7.154587	0.023184	-0.494554	0.212006	-0.249339	-0.748282	-0.159138	-0.844727	0.359863	-0.235352	0.066029	-0.023571	0.071823	-0.136973	0.370804	-0.099241	0.913178	-21.850823	-40.544075	-154.782705
43295		6.187009	-2.499798	7.300424	0.488499	-0.225785	0.063250	-0.273958	-0.743139	-0.128190	-0.844727	0.364258	-0.226563	0.061582	-0.024937	0.073268	-0.136319	0.374552	-0.099718	0.911693	-22.092324	-40.977714	-154.647810
43296		5.741521	-3.164408	7.197006	0.681084	0.554480	-0.117140	-0.270351	-0.718505	-0.096052	-0.851318	0.357666	-0.215332	0.057141	-0.031574	0.072218	-0.135737	0.378084	-0.100307	0.910256	-22.344259	-41.381943	-154.505135
43297		6.485630	-3.123493	6.420799	-0.296058	0.340841	-0.177232	-0.216843	-0.700351	-0.118652	-0.849121	0.357666	-0.206299	0.064612	-0.031204	0.064468	-0.135208	0.381580	-0.100566	0.908846	-22.554670	-41.789905	-154.369842
43298		7.098454	-3.125393	6.226469	-0.777416	0.169683	0.101518	-0.152664	-0.673914	-0.172686	-0.857910	0.355225	-0.201904	0.070747	-0.031267	0.062527	-0.134475	0.384857	-0.100500	0.907580	-22.699152	-42.186668	-154.289244
43299		6.734096	-3.078110	6.429718	-0.311866	0.242983	-0.014348	-0.101352	-0.599294	-0.230134	-0.855469	0.353027	-0.197510	0.067112	-0.030826	0.064514	-0.133597	0.387864	-0.100086	0.906475	-22.772948	-42.565698	-154.260896
43300		6.562568	-3.649300	6.409735	-0.248765	0.860914	0.019201	-0.058220	-0.530157	-0.286235	-0.850830	0.346436	-0.186279	0.065403	-0.036568	0.064282	-0.132456	0.390474	-0.099466	0.905589	-22.780819	-42.911546	-154.303007
43301		6.598549	-3.475401	6.234951	-0.320781	0.726946	-0.124433	-0.020426	-0.453944	-0.347954	-0.862061	0.346191	-0.190674	0.065783	-0.034862	0.062503	-0.131121	0.392819	-0.098551	0.904869	-22.720149	-43.239943	-154.404347
43302		6.275998	-3.077663	6.550191	0.231302	0.460674	-0.247166	0.002524	-0.422166	-0.401362	-0.859375	0.337402	-0.179199	0.062560	-0.030903	0.065634	-0.129523	0.394950	-0.097500	0.904285	-22.611818	-43.554055	-154.564418
43303		6.761273	-3.298113	6.228184	-0.314551	0.580695	-0.068654	0.027888	-0.434394	-0.454502	-0.861816	0.339355	-0.172607	0.067402	-0.033143	0.062424	-0.127781	0.397219	-0.096168	0.903682	-22.462104	-43.895318	-154.753808
43304		6.715564	-2.927885	6.608780	0.100907	0.260238	0.049817	0.045513	-0.471783	-0.517226	-0.861572	0.332764	-0.174805	0.066923	-0.029467	0.066239	-0.125764	0.399595	-0.094659	0.903076	-22.275951	-44.260377	-154.988367
43305		6.276706	-3.172018	6.971818	0.670733	0.648847	0.045997	0.051880	-0.515695	-0.548697	-0.870117	0.325928	-0.163330	0.062500	-0.031910	0.069871	-0.123686	0.402250	-0.092978	0.902359	-22.075460	-44.663998	-155.227788
43306		5.944094	-3.362599	7.163857	1.057098	0.967818	-0.019552	0.065386	-0.591495	-0.586848	-0.881104	0.319092	-0.167725	0.059130	-0.033823	0.071803	-0.121448	0.405174	-0.091162	0.901540	-21.859419	-45.106400	-155.485221
43307		6.011323	-3.240614	7.394130	1.272220	0.872984	0.133637	0.042159	-0.706314	-0.636838	-0.878662	0.312500	-0.154297	0.059748	-0.032612	0.074146	-0.119020	0.408718	-0.089226	0.900457	-21.648484	-45.628983	-155.744151
43308		5.951621	-2.827575	7.080378	1.212001	0.575666	-0.234203	0.031530	-0.919022	-0.714844	-0.882568	0.299072	-0.151611	0.059088	-0.028499	0.071071	-0.116278	0.413176	-0.087102	0.898988	-21.442322	-46.271508	-156.010153
43309		6.501246	-2.565679	7.161933	1.067498	0.235477	0.134451	0.015178	-1.168690	-0.799406	-0.889160	0.294434	-0.133789	0.064489	-0.025921	0.071995	-0.113248	0.418854	-0.084675	0.896976	-21.243599	-47.073325	-156.268437
43310		6.004132	-2.013755	7.829077	2.092869	-0.118964	0.036312	0.003367	-1.424073	-0.859699	-0.902344	0.282959	-0.122314	0.059395	-0.020395	0.078715	-0.110002	0.425615	-0.082077	0.894435	-21.067384	-48.014401	-156.508845
43311		5.891021	-2.143118	8.109909	2.521068	0.105048	0.121984	-0.000913	-1.722574	-0.894364	-0.901855	0.271729	-0.106689	0.058112	-0.021692	0.081602	-0.106718	0.433759	-0.079200	0.891174	-20.929641	-49.130782	-156.690683
43312		5.803687	-2.104675	8.817632	3.327005	0.146217	0.422935	-0.040733	-2.051024	-0.921835	-0.910400	0.260498	-0.081787	0.057031	-0.021293	0.088769	-0.103331	0.443283	-0.076310	0.887130	-20.871442	-50.419406	-156.801519
43313		5.870383	-2.281283	8.671125	3.379900	0.406035	0.348948	-0.068210	-2.453015	-1.004136	-0.921143	0.251221	-0.061768	0.057519	-0.023074	0.087429	-0.099656	0.454630	-0.073086	0.882065	-20.866690	-51.948676	-156.855810
43314		5.681831	-2.540094	8.618625	3.684012	0.814090	0.125730	-0.085609	-2.911923	-1.142914	-0.931641	0.233154	-0.027832	0.055409	-0.025683	0.087011	-0.095475	0.467902	-0.069433	0.875860	-20.899717	-53.743288	-156.879796
43315		5.535954	-2.234626	9.082308	4.498462	0.663642	0.058400	-0.089683	-3.512733	-1.331626	-0.944580	0.219482	0.008057	0.053603	-0.022666	0.091785	-0.090627	0.483786	-0.064996	0.868051	-20.961130	-55.906308	-156.866470
43316		4.428608	-3.037654	10.022031	6.164488	1.809204	-0.432650	-0.149782	-4.232108	-1.536957	-0.948242	0.199219	0.057373	0.041917	-0.030629	0.101147	-0.084947	0.502623	-0.060022	0.858226	-21.130008	-58.487984	-156.771374
43317		4.986124	-4.089290	10.772731	6.918137	2.877580	0.259849	-0.209022	-5.094518	-1.796502	-0.949463	0.172607	0.111084	0.046726	-0.041209	0.108987	-0.078186	0.524995	-0.054197	0.845772	-21.423031	-61.591342	-156.571738
43318		5.039759	-6.077359	10.253801	6.830272	5.029226	-0.041690	-0.142347	-6.041207	-2.149604	-0.948486	0.150146	0.176025	0.046614	-0.061215	0.104028	-0.070319	0.550930	-0.046796	0.830266	-21.770738	-65.265383	-156.277799
43319		5.899140	-6.209364	10.847858	7.687099	5.273252	0.387636	-0.036711	-7.017435	-2.561358	-0.938232	0.123535	0.247559	0.054337	-0.062789	0.110451	-0.061140	0.580338	-0.037383	0.811216	-22.131436	-69.551814	-155.912472
43320		11.047192	-4.971090	11.877137	7.999925	3.696015	4.678457	-0.164992	-7.775876	-2.954187	-0.916504	0.085938	0.323730	0.104996	-0.051189	0.122967	-0.050079	0.611992	-0.027102	0.788811	-22.641391	-74.318274	-155.479198
43321		13.744654	-6.839027	11.657260	8.253405	5.761906	6.619885	-0.089625	-8.031619	-3.315135	-0.890381	0.054932	0.397461	0.131462	-0.070549	0.121964	-0.037726	0.643595	-0.015280	0.764283	-22.797455	-79.303628	-155.375743
43322		19.133046	-5.921514	11.212102	8.445319	5.056241	10.914510	-0.706796	-8.088967	-3.511313	-0.861816	0.015381	0.471436	0.185511	-0.062092	0.119920	-0.022613	0.674289	-0.005173	0.738103	-22.821595	-84.358059	-155.763484
43323		25.588451	-9.538562	12.650282	11.003873	9.148937	16.655448	-0.909532	-6.888911	-3.000587	-0.820313	-0.012939	0.531982	0.249854	-0.098562	0.135623	-0.008581	0.699432	0.002351	0.714644	-21.829952	-88.668003	-157.284185
43324		17.433100	-5.717241	12.112661	12.259842	5.946237	7.433610	-1.297386	-6.650072	-3.131018	-0.782959	-0.045654	0.576904	0.169254	-0.059037	0.127191	0.007233	0.722740	0.008918	0.691025	153.080107	-87.115835	27.056440
43325		15.731192	-3.676345	10.460984	11.589449	4.180379	4.969360	-1.663690	-5.548507	-2.867861	-0.748047	-0.076172	0.610596	0.153784	-0.038090	0.109223	0.023459	0.741355	0.013289	0.670572	152.150847	-83.534256	27.023819
43326		18.806661	-6.474053	25.480374	27.626143	6.808394	5.522766	-2.612635	-3.014039	-1.929532	-0.737793	-0.107178	0.617920	0.183576	-0.063166	0.258425	0.039817	0.750860	0.011296	0.659163	149.705759	-81.485733	27.976703
43327		26.414478	-20.033712	28.686170	32.799343	20.191528	11.125967	-2.867469	0.437953	-0.805011	-0.735352	-0.118164	0.600342	0.263978	-0.197265	0.289127	0.053281	0.748707	0.004898	0.660739	144.554842	-81.446313	31.513078
43328		-8.047461	-16.795069	17.269881	17.389841	14.577223	-21.220607	-2.154620	1.979890	-0.815872	-0.739258	-0.133545	0.580811	-0.079427	-0.165746	0.175282	0.063998	0.741502	0.001331	0.667890	135.865854	-82.018634	39.042355
43329		-5.569460	-11.355491	14.323297	14.672616	9.292880	-17.779178	-1.456528	2.013554	-1.276567	-0.754395	-0.147217	0.556641	-0.054962	-0.112153	0.144609	0.073726	0.734197	0.001747	0.674920	125.222105	-82.217813	48.929527
43330		-0.722555	-8.397176	14.186946	14.882019	6.627433	-12.438774	-1.481248	2.261192	-0.955958	-0.767822	-0.151855	0.528076	-0.006014	-0.082887	0.142559	0.082373	0.725953	0.001061	0.682792	114.049579	-82.382881	59.343599
43331		-0.119618	-9.169628	12.215568	13.196438	7.495594	-11.537045	-1.630558	2.642733	-0.159303	-0.785645	-0.158691	0.499512	0.000352	-0.090696	0.122900	0.088899	0.716121	-0.002954	0.692286	101.768668	-82.768327	70.768536
43332		0.104819	-10.029103	10.863325	12.115963	8.385982	-11.024320	-1.525049	2.957697	0.619969	-0.799316	-0.154541	0.475098	0.002971	-0.099452	0.109359	0.092254	0.705110	-0.009168	0.703011	87.327697	-83.261622	84.432905
43333		1.195505	-9.873512	10.289997	11.634853	8.325139	-9.491812	-1.128124	3.156846	1.273533	-0.817871	-0.141357	0.432617	0.014209	-0.098068	0.103242	0.091971	0.693256	-0.016293	0.714613	69.843561	-83.625141	101.361686
43334		4.146968	-8.146583	10.821643	11.790949	6.781966	-5.859845	-0.700718	3.432168	1.892483	-0.838867	-0.119629	0.407715	0.044088	-0.080679	0.107758	0.087908	0.680397	-0.023806	0.727162	49.349752	-83.567206	121.574409
43335		6.830956	-5.760413	11.422466	11.617892	4.489294	-2.386379	-0.448057	3.905506	2.483405	-0.860107	-0.097656	0.363037	0.071230	-0.056478	0.112980	0.080839	0.665446	-0.032280	0.741353	28.010549	-82.693548	142.795108
43336		7.651220	-3.622460	11.184929	10.575462	2.331934	-0.899627	-0.383312	4.439098	2.931779	-0.874756	-0.068848	0.320313	0.079488	-0.034862	0.110175	0.071942	0.648147	-0.041680	0.756963	10.918440	-80.838397	159.835394
43337		8.023970	-2.180618	10.562749	9.194130	0.833310	-0.043560	-0.432843	4.907761	3.169440	-0.896240	-0.040283	0.268799	0.083129	-0.020278	0.103656	0.062285	0.628390	-0.051923	0.773661	-0.577096	-78.178058	171.263252
43338		8.052358	-1.223968	9.828798	7.772790	-0.214300	0.308238	-0.511658	5.267927	3.241078	-0.908936	-0.004883	0.212402	0.083256	-0.010657	0.096147	0.052699	0.606731	-0.062450	0.790696	-7.744607	-75.030135	178.323457
43339		7.989774	-0.661784	9.465967	6.755409	-0.947456	0.545788	-0.598273	5.453516	3.200804	-0.916504	0.017334	0.158691	0.082528	-0.005032	0.092450	0.043446	0.583608	-0.073174	0.807564	-12.353198	-71.615236	-177.230454
43340		8.596544	-0.543590	9.322050	5.769662	-1.297900	1.415476	-0.695524	5.545301	3.090957	-0.922119	0.041992	0.096191	0.088572	-0.003762	0.090804	0.035005	0.559662	-0.083790	0.823731	-15.374921	-68.107896	-174.441229
43341		9.000344	-1.295399	8.990074	4.734324	-0.775268	2.037932	-0.730072	5.588489	2.928045	-0.930176	0.075195	0.040039	0.092642	-0.011288	0.087380	0.027255	0.534895	-0.094087	0.839221	-17.432414	-64.544445	-172.660458
43342		9.291439	-2.387713	8.778089	3.857712	0.066501	2.602861	-0.662767	5.557233	2.755924	-0.912842	0.093506	-0.029297	0.095621	-0.022287	0.085224	0.020066	0.509954	-0.103465	0.853721	-18.812900	-61.029524	-171.539302
43343		9.633869	-3.296650	8.879943	3.159413	0.663623	3.304285	-0.542690	5.394147	2.664895	-0.905029	0.116211	-0.078857	0.099113	-0.031422	0.086238	0.012806	0.485140	-0.112105	0.867126	-19.849344	-57.589123	-170.705681
43344		10.793709	-4.006490	9.081753	2.029258	0.957154	4.676587	-0.459906	5.144585	2.740509	-0.885742	0.143311	-0.137207	0.110760	-0.038355	0.088082	0.004917	0.461088	-0.120399	0.879135	-20.784184	-54.282014	-169.899454
43345		11.849434	-4.616594	9.217622	0.785678	1.114460	5.832167	-0.426328	4.809656	2.950285	-0.866699	0.172607	-0.182373	0.121328	-0.044197	0.089377	-0.004187	0.437841	-0.129016	0.889737	-21.795320	-51.082116	-168.947911
43346		14.602933	-5.670339	9.514438	-1.438809	1.356619	8.406177	-0.477308	4.452989	3.230046	-0.836426	0.202393	-0.225342	0.148989	-0.054091	0.091980	-0.014640	0.415817	-0.138284	0.898755	-22.943805	-48.020582	-167.802659
43347		18.157767	-7.119148	8.647428	-5.257338	1.936905	10.770196	-0.489319	4.241849	3.625128	-0.811035	0.240723	-0.257324	0.184607	-0.067658	0.082748	-0.026987	0.393984	-0.148381	0.906660	-24.216095	-44.943547	-166.448261
43348		19.550788	-8.342220	6.692479	-8.564481	2.727638	10.575807	-0.262131	4.101696	3.981885	-0.767090	0.268311	-0.295898	0.198434	-0.079406	0.062981	-0.041471	0.372336	-0.157934	0.913621	-25.398250	-41.855058	-164.951450
43349		20.383212	-7.008031	5.243219	-11.198534	0.993536	9.306791	0.093617	3.808991	4.160809	-0.732178	0.293457	-0.318848	0.206180	-0.065830	0.048489	-0.057639	0.351351	-0.166081	0.919591	-26.366792	-38.833048	-163.386943
43350		22.848712	-4.537996	4.018439	-14.724602	-2.271525	8.536472	0.274197	3.495349	4.215038	-0.688232	0.316650	-0.339355	0.230031	-0.040594	0.036115	-0.074583	0.331596	-0.173197	0.924383	-27.173899	-35.959117	-161.804890
