// General information: 
//  MT Manager version: 2019.2.0 
//  XDA version: 2019.2.0 build 3853 rev 94535 built on 2019-09-09
// Device information: 
//  DeviceId: 00B40A8D
//  ProductCode: MTW2-3A7G6
//  Firmware Version: 4.3.5
//  Hardware Version: 1.1.0
// Device settings: 
//  Filter Profile: human(46.1)
//  Option Flags: Orientation Smoother Disabled, AHS Disabled, ICC Disabled
// Coordinate system: ENU
PacketCounter	SampleTimeFine	Acc_X	Acc_Y	Acc_Z	FreeAcc_E	FreeAcc_N	FreeAcc_U	Gyr_X	Gyr_Y	Gyr_Z	Mag_X	Mag_Y	Mag_Z	VelInc_X	VelInc_Y	VelInc_Z	Quat_q0	Quat_q1	Quat_q2	Quat_q3	Roll	Pitch	Yaw
42812		6.608531	4.622284	3.183222	-1.844815	4.167827	-2.437345	-0.046013	1.640128	-0.111616	-0.731201	-0.194824	-0.776367	0.066369	0.046193	0.031278	0.826771	0.102153	-0.532677	0.149233	1.381571	-65.684586	19.571677
42813		5.101651	4.341621	3.230393	-2.271082	3.717428	-3.784898	-0.321384	1.171505	-0.199491	-0.724854	-0.185547	-0.785156	0.051248	0.043417	0.031934	0.830159	0.100433	-0.528013	0.148161	1.395864	-65.016588	19.348831
42814		4.805435	4.102644	3.231181	-2.239149	3.479132	-4.046754	-0.522654	0.583354	-0.299870	-0.722412	-0.189941	-0.789551	0.048210	0.041038	0.032064	0.832147	0.098574	-0.525876	0.145835	1.430430	-64.684177	18.974645
42815		5.080358	3.615966	3.094959	-1.803887	3.121795	-3.857494	-0.681768	0.039144	-0.383088	-0.718262	-0.183105	-0.793945	0.050879	0.036167	0.030816	0.832831	0.096668	-0.526068	0.142477	1.487781	-64.661912	18.474185
42816		5.683509	2.801775	2.817868	-1.033704	2.529528	-3.438870	-0.800175	-0.386160	-0.429927	-0.725098	-0.183350	-0.785156	0.056841	0.028008	0.028176	0.832469	0.094693	-0.528084	0.138401	1.550193	-64.882531	17.893205
42817		6.469216	1.817190	2.722476	-0.322302	1.724445	-2.777977	-0.873222	-0.662603	-0.444567	-0.734619	-0.172607	-0.789551	0.064642	0.018147	0.027360	0.831398	0.092643	-0.531277	0.133939	1.605961	-65.260757	17.275231
42818		7.329263	1.036816	2.631611	0.313634	1.099956	-2.040303	-0.890792	-0.794816	-0.452394	-0.738770	-0.177246	-0.782959	0.073211	0.010320	0.026561	0.829956	0.090623	-0.535008	0.129328	1.677908	-65.714526	16.630064
42819		8.050334	0.495050	2.453562	0.870322	0.692479	-1.455918	-0.915620	-0.789023	-0.472710	-0.739258	-0.166016	-0.780762	0.080417	0.004874	0.024831	0.828521	0.088549	-0.538699	0.124566	1.775662	-66.164006	15.943696
42820		8.491592	-0.033402	2.068862	1.485629	0.309037	-1.205393	-0.906717	-0.647382	-0.519888	-0.748535	-0.159668	-0.778564	0.084847	-0.000460	0.020965	0.827457	0.086545	-0.541756	0.119688	1.948577	-66.531059	15.182653
42821		8.691846	-0.090656	1.840107	1.742883	0.295740	-1.105387	-0.791662	-0.414489	-0.565647	-0.750732	-0.162109	-0.771973	0.086877	-0.001079	0.018585	0.826976	0.085000	-0.543741	0.115029	2.250446	-66.762355	14.354721
42822		8.371169	-0.040781	1.688212	1.725535	0.312039	-1.454863	-0.652296	-0.134909	-0.567899	-0.755371	-0.157715	-0.774170	0.083699	-0.000590	0.016940	0.827176	0.083873	-0.544478	0.110856	2.627841	-66.831779	13.532386
42823		8.006358	0.038115	1.591565	1.655560	0.345482	-1.826702	-0.536577	0.073869	-0.525119	-0.749023	-0.153076	-0.776367	0.080070	0.000214	0.015885	0.827859	0.082993	-0.544295	0.107262	3.002225	-66.780711	12.785677
42824		7.652628	0.186103	1.600770	1.490202	0.429758	-2.147550	-0.481671	0.213529	-0.444329	-0.746826	-0.150879	-0.780762	0.076547	0.001729	0.015922	0.828844	0.082043	-0.543532	0.104207	3.286634	-66.650683	12.170501
42825		7.342505	0.421119	1.481562	1.439565	0.645025	-2.478094	-0.482060	0.316187	-0.346691	-0.744385	-0.157471	-0.785156	0.073456	0.004119	0.014690	0.830049	0.080770	-0.542377	0.101594	3.428707	-66.464282	11.709243
42826		7.182898	0.832008	1.635439	1.164590	0.984099	-2.557611	-0.472656	0.318886	-0.280953	-0.736084	-0.143799	-0.789551	0.071867	0.008258	0.016220	0.831215	0.079357	-0.541228	0.099282	3.485523	-66.278318	11.346516
42827		6.835645	1.071986	1.819273	0.832052	1.143297	-2.799453	-0.501119	0.282455	-0.217326	-0.735840	-0.148193	-0.791748	0.068394	0.010691	0.018069	0.832254	0.077670	-0.540264	0.097140	3.443687	-66.115415	11.073052
42828		6.490393	1.089147	1.940345	0.605817	1.107452	-3.068588	-0.544485	0.207120	-0.184708	-0.731689	-0.141357	-0.789551	0.064934	0.010884	0.019307	0.833082	0.075752	-0.539642	0.094988	3.339476	-65.996806	10.840605
42829		6.198761	0.987535	2.302056	0.208333	0.909147	-3.192313	-0.607433	0.090947	-0.171752	-0.731934	-0.134766	-0.796387	0.062007	0.009892	0.022962	0.833606	0.073589	-0.539534	0.092672	3.191004	-65.945365	10.616699
42830		6.107251	0.641724	2.736836	-0.127881	0.476910	-3.107705	-0.683827	-0.039794	-0.179486	-0.732422	-0.127930	-0.793945	0.061073	0.006456	0.027358	0.833800	0.071190	-0.539996	0.090072	3.017777	-65.968657	10.372224
42831		6.263278	0.546388	3.058528	-0.336100	0.333051	-2.837167	-0.637448	-0.203523	-0.191498	-0.734619	-0.125977	-0.789551	0.062607	0.005502	0.030631	0.833530	0.069087	-0.541111	0.087483	2.898229	-66.085613	10.097634
42832		6.801833	0.560194	3.336333	-0.391474	0.330142	-2.233270	-0.585876	-0.382026	-0.186527	-0.732666	-0.121338	-0.789551	0.067960	0.005636	0.033477	0.832747	0.067265	-0.542940	0.084996	2.814694	-66.304975	9.816917
42833		7.816400	0.512835	3.157425	0.144076	0.388042	-1.377230	-0.525874	-0.559481	-0.171230	-0.744385	-0.112793	-0.785156	0.078080	0.005145	0.031779	0.831443	0.065724	-0.545480	0.082670	2.759725	-66.626522	9.542584
42834		9.018723	0.213960	2.816881	0.925126	0.234474	-0.410202	-0.516608	-0.746905	-0.132304	-0.744385	-0.112793	-0.785156	0.090083	0.002153	0.028500	0.829593	0.064193	-0.548798	0.080473	2.673290	-67.056458	9.309560
42835		10.522946	-0.383004	1.984027	2.293190	-0.107701	0.653655	-0.461383	-0.898561	-0.085323	-0.755615	-0.108887	-0.776367	0.105137	-0.003828	0.020322	0.827270	0.062819	-0.552726	0.078565	2.567109	-67.574667	9.132264
42836		11.686185	-1.158203	1.026139	3.657095	-0.630757	1.376070	-0.399601	-0.813883	-0.001275	-0.758057	-0.104492	-0.769775	0.116819	-0.011562	0.010760	0.825109	0.061436	-0.556291	0.077207	2.373785	-68.046568	9.088719
42837		11.890916	-1.144652	0.955436	3.723824	-0.594197	1.562587	-0.297052	-0.335950	0.131159	-0.758057	-0.104492	-0.763184	0.118900	-0.011354	0.009771	0.824183	0.059920	-0.557880	0.076820	2.019116	-68.248041	9.281635
42838		10.965453	-0.807320	2.347377	2.034189	-0.549759	1.230990	-0.288202	0.161748	0.277863	-0.758789	-0.089111	-0.765381	0.109685	-0.007887	0.023397	0.824583	0.057842	-0.557454	0.077217	1.433155	-68.166191	9.729809
42839		9.670538	-1.240787	4.674962	-0.465924	-1.434207	0.894314	-0.207076	0.227281	0.359684	-0.760986	-0.093506	-0.769775	0.096780	-0.012186	0.046652	0.825105	0.055841	-0.556750	0.078189	0.779476	-68.046261	10.300482
42840		8.723025	-2.381497	7.772956	-3.417722	-3.143264	1.170053	0.216539	-0.200406	0.322095	-0.756592	-0.091064	-0.767578	0.087191	-0.023759	0.077791	0.824329	0.055864	-0.557628	0.080073	0.431254	-68.168929	10.804425
42841		9.273930	-4.245460	8.079039	-3.175784	-5.009945	1.768102	0.645840	-0.888060	0.143019	-0.769775	-0.096191	-0.754150	0.092410	-0.042650	0.081064	0.821573	0.058425	-0.561111	0.082216	0.588889	-68.684591	11.027007
42842		11.427337	-5.126697	7.946633	-2.183894	-5.786112	3.669352	1.044966	-1.100399	-0.201094	-0.780518	-0.103271	-0.743164	0.113783	-0.051798	0.079824	0.818209	0.063680	-0.565174	0.084006	1.501208	-69.318801	10.686091
42843		13.736077	-4.338433	6.266462	-0.084468	-4.684357	5.181194	1.198313	-0.926832	-0.697525	-0.786133	-0.123535	-0.734375	0.136916	-0.044239	0.063036	0.815444	0.070884	-0.568269	0.084245	3.302612	-69.838758	9.490860
42844		14.780544	-3.264843	2.762560	3.213781	-3.019045	4.928737	1.119303	-0.357756	-0.992508	-0.778809	-0.136475	-0.732178	0.147591	-0.033536	0.027704	0.814395	0.078364	-0.568936	0.083255	5.522222	-70.005586	7.805470
42845		12.271572	-2.569939	2.813856	2.237380	-2.613990	2.567620	1.041493	0.808299	-0.927648	-0.769043	-0.151855	-0.738770	0.122706	-0.026413	0.027506	0.816617	0.084847	-0.564879	0.082760	7.392427	-69.492074	6.442578
42846		8.634433	-0.416328	5.319151	-1.674801	-1.349024	0.106660	1.025510	0.829981	-0.777194	-0.759521	-0.164795	-0.740967	0.086546	-0.004771	0.052809	0.818795	0.090831	-0.560769	0.082839	8.949315	-68.964502	5.400885
42847		7.406465	1.758419	7.571705	-4.606903	0.063350	-0.114770	0.938126	-0.130281	-0.696345	-0.765381	-0.180664	-0.734375	0.074075	0.016971	0.075846	0.818250	0.096619	-0.560638	0.082564	10.526807	-68.977305	4.281018
42848		8.196897	3.259523	8.056837	-5.179070	1.279920	0.876670	0.777814	-1.199124	-0.685932	-0.782715	-0.192383	-0.723389	0.081594	0.032000	0.081184	0.814742	0.102164	-0.564923	0.081361	12.337117	-69.579526	2.817003
42849		10.308186	4.832669	7.914138	-4.862415	2.706855	2.886538	0.739241	-1.800510	-0.703600	-0.791260	-0.201416	-0.707764	0.102531	0.047670	0.080243	0.809494	0.107833	-0.571616	0.079665	14.484247	-70.496361	0.978020
42850		12.747151	5.382317	6.711198	-3.284089	3.394694	4.822386	0.408026	-1.410247	-0.711930	-0.797363	-0.210693	-0.698975	0.127184	0.053232	0.068118	0.805472	0.112025	-0.576807	0.077190	16.456311	-71.173254	-0.867168
42851		12.927508	4.971372	5.773954	-2.351789	3.117167	4.676101	0.112653	-0.185017	-0.703627	-0.790527	-0.212646	-0.701172	0.129395	0.049226	0.057887	0.805115	0.114522	-0.577158	0.074581	17.728254	-71.162846	-2.148205
42852		11.150306	3.952540	5.581341	-2.427315	2.139812	2.861343	-0.157589	0.802288	-0.690400	-0.786133	-0.212402	-0.709961	0.111861	0.039183	0.055334	0.807739	0.115527	-0.573633	0.071808	18.301063	-70.610358	-2.854947
42853		10.096941	2.714630	5.839803	-2.569781	0.870113	1.851705	-0.317602	1.069611	-0.618530	-0.774658	-0.220947	-0.714355	0.101363	0.026925	0.057814	0.811171	0.115573	-0.569105	0.069015	18.504369	-69.923685	-3.270125
42854		10.688475	1.571860	5.846023	-1.967907	-0.249212	2.309787	-0.439188	0.832808	-0.465063	-0.768311	-0.214111	-0.727783	0.107163	0.015597	0.057980	0.813917	0.114774	-0.565651	0.066363	18.514153	-69.393634	-3.553931
42855		11.985362	1.048736	4.849248	-0.387006	-0.515075	3.142938	-0.413879	0.632487	-0.263469	-0.761475	-0.213867	-0.732178	0.120020	0.010429	0.048091	0.816001	0.113565	-0.563106	0.064482	18.340132	-69.008719	-3.627364
42856		12.495890	0.363400	3.729388	1.059591	-0.877855	3.160107	-0.419294	0.787910	-0.060977	-0.756836	-0.218018	-0.740967	0.125106	0.003673	0.036794	0.818442	0.111718	-0.560035	0.063504	17.813112	-68.575722	-3.324781
42857		10.993462	-1.074395	3.206027	1.421352	-2.061555	1.413064	-0.386444	1.150968	0.064573	-0.748047	-0.215576	-0.749756	0.110120	-0.010647	0.031448	0.821821	0.109529	-0.555520	0.063327	16.995784	-67.964094	-2.689300
42858		8.782777	-2.243033	3.388290	0.803490	-3.154336	-0.699378	-0.242213	1.223745	0.082829	-0.741699	-0.206299	-0.760742	0.088042	-0.022353	0.033372	0.825285	0.107862	-0.550652	0.063669	16.247488	-67.312737	-2.035303
42859		7.359216	-2.834373	3.401295	0.458851	-3.680749	-2.066611	-0.026457	0.832500	0.048546	-0.735107	-0.208252	-0.769775	0.073740	-0.028321	0.033710	0.827545	0.107293	-0.547293	0.064247	15.844462	-66.868583	-1.620233
42860		6.946482	-2.712984	3.224275	0.474672	-3.503113	-2.497453	0.199922	0.345444	0.030011	-0.734619	-0.217041	-0.769775	0.069524	-0.027152	0.032096	0.828345	0.107875	-0.545864	0.065109	15.783347	-66.689729	-1.434189
42861		7.111078	-2.327417	3.093847	0.590476	-3.098007	-2.355486	0.291875	0.073435	0.045768	-0.732422	-0.214844	-0.767578	0.071127	-0.023303	0.030878	0.828349	0.108875	-0.545536	0.066139	15.852549	-66.662971	-1.333312
42862		7.602134	-2.120584	3.004405	0.822631	-2.883113	-1.917961	0.323306	-0.103814	0.061466	-0.736816	-0.217285	-0.765381	0.076012	-0.021231	0.030049	0.827842	0.110028	-0.545941	0.067225	15.985708	-66.736730	-1.281711
42863		8.166166	-1.715002	2.830923	1.098986	-2.456575	-1.422272	0.343038	-0.207722	0.077235	-0.736816	-0.217285	-0.765381	0.081639	-0.017167	0.028365	0.827035	0.111247	-0.546774	0.068373	16.146665	-66.869970	-1.248782
42864		8.750708	-1.202823	2.762178	1.256080	-1.951915	-0.853694	0.297043	-0.189024	0.123783	-0.743408	-0.219727	-0.767578	0.087488	-0.012015	0.027687	0.826283	0.112149	-0.547572	0.069597	16.216453	-67.000659	-1.144749
42865		9.360754	-0.713205	2.809572	1.324402	-1.491850	-0.218606	0.285147	-0.072147	0.194285	-0.743164	-0.221924	-0.758545	0.093604	-0.007081	0.028119	0.825833	0.112760	-0.547927	0.071146	16.141088	-67.078063	-0.891375
42866		9.448931	-0.167605	3.005219	1.050183	-1.002842	-0.002839	0.269514	0.074227	0.284838	-0.736572	-0.221680	-0.754150	0.094503	-0.001582	0.030015	0.825755	0.113013	-0.547733	0.073107	15.885272	-67.089108	-0.451076
42867		9.141648	0.004773	3.091957	0.818164	-0.833976	-0.233284	0.223811	0.201419	0.338067	-0.739014	-0.219482	-0.765381	0.091447	0.000168	0.030828	0.826030	0.112878	-0.547058	0.075238	15.485320	-67.037075	0.116810
42868		8.604055	-0.052793	2.984830	0.733443	-0.831009	-0.773156	0.199290	0.306675	0.352517	-0.741211	-0.217285	-0.769775	0.086087	-0.000406	0.029716	0.826595	0.112569	-0.545963	0.077417	15.020414	-66.927553	0.740899
42869		8.134877	0.032036	2.873216	0.649819	-0.691082	-1.237570	0.248468	0.384585	0.343925	-0.736816	-0.217285	-0.763184	0.081403	0.000425	0.028576	0.827344	0.112447	-0.544517	0.079739	14.571468	-66.771508	1.378058
42870		7.848603	-0.019435	2.694518	0.733886	-0.666708	-1.573867	0.280866	0.401498	0.321848	-0.727783	-0.219238	-0.765381	0.078540	-0.000106	0.026787	0.828121	0.112520	-0.542973	0.082066	14.173623	-66.601258	1.981398
42871		7.664203	-0.283117	2.334363	1.072396	-0.797554	-1.908057	0.274918	0.397449	0.298159	-0.732178	-0.221436	-0.771973	0.076692	-0.002749	0.023187	0.828895	0.112626	-0.541429	0.084279	13.808748	-66.428243	2.545245
42872		7.498993	-0.593850	2.149550	1.277103	-1.023934	-2.162290	0.289412	0.404482	0.254968	-0.727783	-0.217041	-0.767578	0.075041	-0.005874	0.021335	0.829690	0.112913	-0.539823	0.086352	13.513899	-66.244331	3.043085
42873		7.370708	-0.847230	1.779170	1.644696	-1.145251	-2.451039	0.341623	0.382551	0.216644	-0.722900	-0.225586	-0.774170	0.073750	-0.008423	0.017636	0.830408	0.113521	-0.538258	0.088398	13.307176	-66.066566	3.477413
42874		7.234782	-0.881315	1.536849	1.837835	-1.094976	-2.677984	0.417667	0.380115	0.183726	-0.720703	-0.223389	-0.769775	0.072385	-0.008779	0.015213	0.831083	0.114541	-0.536648	0.090506	13.192793	-65.885458	3.859511
42875		6.975231	-0.970833	1.425089	1.881244	-1.141200	-2.972677	0.490967	0.367034	0.147520	-0.722656	-0.229980	-0.774170	0.069785	-0.009692	0.014099	0.831690	0.115960	-0.535032	0.092658	13.170108	-65.706691	4.187287
42876		6.804977	-0.965927	1.476462	1.791749	-1.145911	-3.112156	0.554455	0.325466	0.122774	-0.718262	-0.227783	-0.778564	0.068080	-0.009658	0.014627	0.832152	0.117735	-0.533541	0.094845	13.230911	-65.547959	4.464148
42877		6.684411	-1.073176	1.543303	1.737369	-1.265082	-3.209967	0.602039	0.225630	0.103004	-0.719971	-0.240967	-0.776367	0.066867	-0.010744	0.015325	0.832320	0.119799	-0.532426	0.097024	13.370386	-65.442520	4.684362
42878		6.801865	-1.127086	1.645256	1.730813	-1.340877	-3.071109	0.613706	0.109956	0.074900	-0.717773	-0.240967	-0.771973	0.068032	-0.011296	0.016381	0.832179	0.122049	-0.531764	0.099040	13.587098	-65.398028	4.827565
42879		7.086655	-1.086772	2.095090	1.462579	-1.433283	-2.629533	0.600864	0.057213	0.057337	-0.719482	-0.250000	-0.769775	0.070876	-0.010910	0.020898	0.831906	0.124311	-0.531313	0.100924	13.830604	-65.380857	4.933079
42880		7.350443	-1.198562	2.476950	1.292623	-1.653410	-2.249873	0.581282	0.141605	0.066841	-0.712646	-0.251953	-0.771973	0.073526	-0.012033	0.024683	0.831857	0.126429	-0.530522	0.102840	14.028657	-65.318125	5.076452
42881		7.905639	-1.066156	2.902911	1.143543	-1.646001	-1.563712	0.606288	0.291944	0.053773	-0.710205	-0.254150	-0.769775	0.079101	-0.010728	0.028881	0.832190	0.128601	-0.529079	0.104870	14.208654	-65.170389	5.255560
42882		8.402076	-0.675176	3.487957	0.767292	-1.449478	-0.839020	0.575078	0.402567	0.050067	-0.705566	-0.258545	-0.769775	0.084092	-0.006831	0.034691	0.832828	0.130599	-0.527183	0.106864	14.344747	-64.960747	5.463672
42883		9.050003	0.030848	3.706665	0.666426	-0.832096	-0.091252	0.465468	0.272169	0.040572	-0.703125	-0.265137	-0.767578	0.090550	0.000241	0.036944	0.833190	0.132227	-0.525879	0.108451	14.466506	-64.822502	5.618372
42884		9.828610	0.872030	3.436639	0.961380	0.075019	0.591282	0.331054	-0.156700	0.052082	-0.707275	-0.267334	-0.760742	0.098257	0.008689	0.034458	0.832504	0.133504	-0.526438	0.109440	14.631555	-64.923730	5.640398
42885		10.780510	1.855930	2.312916	1.954168	1.400211	1.106728	0.223593	-0.640417	0.026540	-0.714111	-0.265381	-0.756348	0.107728	0.018547	0.023495	0.830623	0.134660	-0.529049	0.109728	14.915591	-65.289482	5.463478
42886		11.728785	2.806457	1.059718	3.017426	2.724681	1.590545	0.149772	-0.952772	0.028127	-0.718506	-0.267822	-0.749756	0.117232	0.028073	0.011177	0.827950	0.135678	-0.532988	0.109603	15.268711	-65.827606	5.164712
42887		12.409077	3.098609	0.675778	3.421745	3.118817	2.129120	0.096430	-0.915852	0.038079	-0.725098	-0.272705	-0.736572	0.124052	0.031006	0.007341	0.825387	0.136421	-0.536801	0.109410	15.577199	-66.346498	4.882635
42888		12.673029	2.618144	2.105691	2.372115	2.159563	2.899637	0.140268	-0.539462	0.072248	-0.727295	-0.272705	-0.734375	0.126663	0.026212	0.021417	0.823774	0.137051	-0.539050	0.109720	15.746485	-66.662173	4.780566
42889		11.451723	2.631718	4.629318	-0.327183	1.251233	2.750187	0.243438	-0.133839	0.103049	-0.729492	-0.270508	-0.734375	0.114473	0.026320	0.046402	0.823160	0.137796	-0.539592	0.110724	15.788574	-66.759430	4.881914
42890		10.519159	3.410739	7.139287	-3.128541	1.086609	2.926493	-0.138352	-0.144867	0.119486	-0.736328	-0.270752	-0.732178	0.105119	0.034220	0.071445	0.822772	0.136934	-0.540399	0.110747	15.596421	-66.864744	4.999617
42891		10.930968	3.266444	7.209919	-3.010977	0.987220	3.305906	-0.857044	-0.261321	0.157060	-0.734375	-0.263916	-0.732178	0.109190	0.033059	0.072101	0.822528	0.133074	-0.542104	0.108911	14.980215	-67.040203	5.130817
42892		11.541278	2.846945	7.453753	-2.881341	0.628106	3.904702	-1.122256	-0.102465	0.300376	-0.732910	-0.248291	-0.738770	0.115331	0.029061	0.074435	0.822793	0.127648	-0.543379	0.107039	13.965697	-67.146886	5.529044
42893		12.026581	3.318298	7.944706	-3.302481	1.060782	4.565584	-1.029042	-0.135727	0.500412	-0.739746	-0.244141	-0.732178	0.120128	0.033892	0.079355	0.822771	0.122071	-0.544851	0.106227	12.740063	-67.295816	6.214027
42894		11.556216	4.481504	7.215845	-3.250145	2.520691	3.926996	-1.030181	-0.202421	0.693351	-0.739014	-0.215332	-0.736572	0.115332	0.045586	0.072042	0.822436	0.115999	-0.546695	0.106152	11.261681	-67.498555	7.170963
42895		9.995209	4.033129	4.707282	-1.541477	2.940607	1.470201	-1.180305	0.049916	0.844884	-0.743652	-0.213135	-0.740967	0.099791	0.041030	0.046807	0.822758	0.108753	-0.547643	0.106438	9.406244	-67.563958	8.442080
42896		7.404659	3.848859	4.699897	-2.454760	2.757534	-0.975238	-0.926131	0.380705	0.888635	-0.738037	-0.190674	-0.747559	0.073963	0.039034	0.046678	0.823785	0.102254	-0.547091	0.107768	7.568625	-67.429828	9.851691
42897		6.751456	3.528235	6.988102	-4.624535	1.875308	-0.759529	-0.921142	-0.066188	0.839088	-0.747559	-0.182129	-0.740967	0.067342	0.035887	0.069739	0.823578	0.096145	-0.548329	0.108680	5.884173	-67.530161	11.098874
42898		7.052093	0.666361	7.701054	-4.390977	-0.918950	-0.359917	-1.237010	-0.748107	0.712863	-0.757324	-0.162598	-0.736572	0.070207	0.007391	0.077229	0.821678	0.089450	-0.552456	0.107867	4.258157	-67.999472	12.084739
42899		7.515506	-0.489636	7.290803	-3.662823	-1.775393	-0.153106	-1.129166	-1.139199	0.602357	-0.762451	-0.149414	-0.732178	0.074752	-0.004257	0.073360	0.818653	0.083706	-0.558043	0.106721	2.828455	-68.678183	12.922067
42900		8.431659	-0.912268	6.973670	-3.091059	-1.938130	0.543160	-1.012825	-1.148652	0.586455	-0.776611	-0.136475	-0.723389	0.083940	-0.008521	0.070264	0.815501	0.078483	-0.563561	0.105817	1.420023	-69.354350	13.803965
42901		9.672432	-1.232772	6.729557	-2.512640	-1.989934	1.592873	-0.873158	-0.940934	0.784228	-0.779297	-0.127686	-0.716553	0.096453	-0.011654	0.067802	0.812726	0.073154	-0.568197	0.106193	-0.294895	-69.903350	15.094658
42902		12.200563	-2.037807	6.218855	-1.161736	-2.313133	3.787938	-0.726479	-0.922293	0.851959	-0.786621	-0.114746	-0.712158	0.121802	-0.019631	0.062823	0.809867	0.068219	-0.572676	0.107257	-2.112847	-70.427205	16.579753
42903		15.154393	-3.515525	4.774063	1.304834	-3.031721	6.121843	-0.506767	-0.897467	0.579836	-0.802246	-0.113037	-0.703369	0.151428	-0.034594	0.048508	0.807115	0.064933	-0.576815	0.107859	-3.441414	-70.929792	17.675172
42904		15.240483	-3.097069	3.971665	1.865946	-2.375555	5.951610	-0.018336	-0.035383	0.296795	-0.795898	-0.105957	-0.714355	0.152444	-0.030741	0.039746	0.806827	0.063971	-0.577111	0.108998	-3.965984	-70.944576	18.214101
42905		12.044201	-1.649344	4.268887	0.298252	-1.326261	2.999688	0.309562	1.045723	0.132992	-0.789063	-0.108154	-0.716553	0.120674	-0.016479	0.042033	0.809631	0.064212	-0.572803	0.110776	-3.909217	-70.346589	18.337384
42906		9.620325	-0.288818	5.289079	-1.622144	-0.478868	1.038412	0.425182	1.148060	-0.035168	-0.775879	-0.105469	-0.729980	0.096504	-0.003017	0.052331	0.812756	0.065346	-0.567947	0.112224	-3.511670	-69.697019	18.168608
42907		9.217689	1.410774	5.314242	-2.113080	1.110386	0.651473	0.381359	0.702462	-0.172764	-0.774902	-0.123047	-0.732178	0.092375	0.013927	0.052845	0.814687	0.066936	-0.564862	0.112847	-2.988150	-69.305787	17.838071
42908		9.415688	2.845829	4.423148	-1.546853	2.715022	0.509801	0.152080	0.518345	-0.205731	-0.777588	-0.114258	-0.734375	0.094300	0.028328	0.044009	0.816183	0.067794	-0.562643	0.112618	-2.571443	-69.020481	17.480421
42909		9.331896	3.549034	3.877357	-1.199123	3.511921	0.234294	-0.085097	0.704917	-0.207791	-0.770508	-0.125000	-0.740967	0.093492	0.035410	0.038429	0.818277	0.067581	-0.559785	0.111784	-2.288127	-68.627039	17.119731
42910		8.039591	4.018644	3.745968	-1.568987	3.867951	-1.015340	-0.216051	0.901563	-0.222630	-0.757324	-0.120117	-0.749756	0.080608	0.040137	0.037053	0.820959	0.066765	-0.556185	0.110579	-2.057939	-68.121357	16.733911
42911		6.825042	4.125148	3.783487	-1.978168	3.848999	-2.119556	-0.390339	0.835769	-0.259044	-0.748291	-0.122070	-0.760986	0.068461	0.041236	0.037469	0.823519	0.065369	-0.552922	0.108723	-1.893772	-67.652973	16.310758
42912		6.279965	3.581043	3.841688	-2.022346	3.269801	-2.585062	-0.549914	0.556073	-0.301415	-0.750732	-0.117676	-0.760986	0.062960	0.035821	0.038143	0.825363	0.063585	-0.550877	0.106150	-1.783810	-67.345769	15.845622
42913		6.311926	2.850397	3.868605	-1.810221	2.574393	-2.530738	-0.645466	0.175230	-0.336252	-0.753174	-0.111084	-0.760986	0.063201	0.028522	0.038539	0.826196	0.061703	-0.550430	0.103053	-1.702985	-67.256331	15.352455
42914		6.845736	1.876222	3.718251	-1.230435	1.723451	-2.084463	-0.770872	-0.224804	-0.365895	-0.749023	-0.106445	-0.763184	0.068450	0.018780	0.037187	0.825965	0.059590	-0.551687	0.099357	-1.668335	-67.396958	14.831152
42915		7.672988	0.982623	3.414637	-0.463362	0.996077	-1.428591	-0.847622	-0.526231	-0.394852	-0.751465	-0.104248	-0.765381	0.076659	0.009820	0.034307	0.824924	0.057387	-0.554199	0.095241	-1.644673	-67.709904	14.275156
42916		8.489375	0.512116	3.020727	0.253590	0.679813	-0.816585	-0.891329	-0.638939	-0.390421	-0.758545	-0.095703	-0.756348	0.084807	0.005091	0.030456	0.823551	0.055044	-0.557186	0.090984	-1.647154	-68.087981	13.721579
42917		8.961226	-0.080432	2.736940	0.755405	0.178048	-0.474685	-0.877821	-0.586056	-0.388329	-0.762939	-0.095947	-0.754150	0.089530	-0.000857	0.027636	0.822296	0.052723	-0.559926	0.086787	-1.633827	-68.435019	13.160698
42918		9.121294	-0.586276	2.625364	0.962852	-0.308134	-0.356899	-0.739635	-0.557289	-0.409183	-0.763184	-0.093750	-0.749756	0.091127	-0.005951	0.026530	0.821068	0.051017	-0.562471	0.082893	-1.498787	-68.766336	12.555466
42919		9.213680	-0.780248	2.295710	1.286298	-0.463810	-0.383953	-0.517939	-0.453921	-0.413470	-0.776367	-0.096436	-0.751953	0.092068	-0.007933	0.023187	0.820061	0.050188	-0.564482	0.079633	-1.215440	-69.037056	11.928750
42920		8.903382	-0.772823	1.923883	1.486999	-0.447733	-0.803966	-0.313010	-0.212702	-0.378209	-0.774414	-0.089600	-0.749756	0.088998	-0.007866	0.019346	0.819657	0.050004	-0.565429	0.077153	-0.850188	-69.168579	11.340793
42921		8.508882	-0.598840	1.888518	1.342380	-0.324378	-1.186047	-0.176747	0.012393	-0.305155	-0.771973	-0.093994	-0.747559	0.085081	-0.006102	0.018885	0.819825	0.050083	-0.565412	0.075416	-0.509652	-69.168777	10.863138
42922		8.232641	-0.123131	1.684880	1.357600	0.140894	-1.520077	-0.086741	0.194232	-0.243095	-0.763184	-0.091553	-0.751953	0.082341	-0.001324	0.016769	0.820457	0.050289	-0.564634	0.074231	-0.209418	-69.064187	10.483582
42923		8.068438	0.322077	1.555801	1.363155	0.578493	-1.723744	-0.095857	0.353790	-0.190656	-0.767578	-0.091553	-0.760986	0.080715	0.003151	0.015414	0.821521	0.050248	-0.563212	0.073277	0.002952	-68.867008	10.192119
42924		7.941469	0.676022	1.638061	1.213737	0.900448	-1.817496	-0.129184	0.452765	-0.138964	-0.763184	-0.093750	-0.758789	0.079456	0.006716	0.016196	0.822848	0.049890	-0.561410	0.072463	0.116275	-68.613365	9.986067
42925		7.514790	0.928109	1.653975	1.038737	1.118411	-2.214059	-0.165848	0.458965	-0.129007	-0.756348	-0.095703	-0.760986	0.075192	0.009246	0.016360	0.824194	0.049347	-0.559592	0.071590	0.189649	-68.355620	9.799837
42926		7.031815	1.234982	1.745224	0.761300	1.375125	-2.633080	-0.169368	0.424598	-0.148934	-0.756592	-0.091309	-0.765381	0.070364	0.012312	0.017292	0.825446	0.048861	-0.557912	0.070615	0.287558	-68.117859	9.584877
42927		6.612591	1.478743	2.010542	0.353830	1.545857	-2.924990	-0.208387	0.360053	-0.164966	-0.754150	-0.093262	-0.769775	0.066174	0.014754	0.019971	0.826529	0.048279	-0.556502	0.069451	0.382515	-67.916518	9.348583
42928		6.409178	1.520924	2.255952	0.073526	1.535590	-3.021768	-0.292930	0.283430	-0.185458	-0.750244	-0.084229	-0.765381	0.064138	0.015183	0.022446	0.827422	0.047434	-0.555433	0.067946	0.456645	-67.759234	9.082251
42929		6.275254	1.454739	2.403004	-0.076737	1.439714	-3.090277	-0.374820	0.239783	-0.202671	-0.749756	-0.090820	-0.778564	0.062796	0.014529	0.023928	0.828216	0.046309	-0.554564	0.066131	0.505642	-67.626418	8.791848
42930		6.420924	1.397805	2.552581	-0.128297	1.370956	-2.898805	-0.459554	0.199149	-0.208663	-0.745850	-0.082031	-0.774170	0.064249	0.013970	0.025430	0.828911	0.044865	-0.553887	0.064047	0.513713	-67.517146	8.493193
42931		6.726659	1.228734	2.658623	-0.063704	1.208700	-2.576600	-0.508917	0.177113	-0.203401	-0.745361	-0.090820	-0.771973	0.067303	0.012286	0.026495	0.829550	0.043207	-0.553313	0.061842	0.484757	-67.420190	8.203528
42932		7.300686	1.168269	2.752581	0.092990	1.169652	-2.011096	-0.449995	0.088872	-0.185126	-0.743652	-0.081787	-0.774170	0.073030	0.011677	0.027467	0.829919	0.041772	-0.553088	0.059857	0.464964	-67.374281	7.940610
42933		8.269728	1.373823	2.747834	0.440218	1.424321	-1.117637	-0.360555	-0.112407	-0.159024	-0.748291	-0.075439	-0.774170	0.082693	0.013722	0.027500	0.829702	0.040696	-0.553672	0.058186	0.462749	-67.443515	7.714212
42934		9.271695	1.193521	2.230782	1.302197	1.361989	-0.388547	-0.395308	-0.356494	-0.105979	-0.750977	-0.066406	-0.776367	0.092683	0.011930	0.022449	0.828794	0.039399	-0.555289	0.056588	0.370971	-67.653208	7.563373
42935		10.018205	0.488441	1.555914	2.258630	0.783583	0.051806	-0.399548	-0.526240	-0.036930	-0.751221	-0.064453	-0.767578	0.100142	0.004897	0.015813	0.827390	0.037938	-0.557617	0.055228	0.181244	-67.960200	7.515424
42936		10.168207	-0.810346	1.144643	2.809226	-0.445891	0.049786	-0.383442	-0.585314	0.046023	-0.758057	-0.060059	-0.758789	0.101650	-0.008058	0.011759	0.825784	0.036331	-0.560195	0.054246	-0.119951	-68.301426	7.598189
42937		10.146702	-1.904176	1.399591	2.650888	-1.557379	0.141579	-0.206955	-0.487318	0.108610	-0.757813	-0.062500	-0.756348	0.101443	-0.018972	0.014263	0.824395	0.035247	-0.562326	0.054031	-0.416138	-68.586007	7.783469
42938		10.009497	-1.756624	2.849478	1.193772	-1.581568	0.554022	0.026838	-0.426467	0.148794	-0.762695	-0.058105	-0.756348	0.100047	-0.017496	0.028706	0.823120	0.035001	-0.564147	0.054653	-0.642066	-68.835365	8.037414
42939		9.630158	-1.840212	5.142574	-1.100022	-1.948140	1.030139	0.075352	-0.466590	0.185560	-0.771484	-0.060547	-0.754150	0.096198	-0.018332	0.051643	0.821708	0.034857	-0.566123	0.055554	-0.902218	-69.106944	8.356834
42940		9.197766	-3.087180	8.224147	-3.998399	-3.584514	1.716835	0.388675	-0.618543	0.166023	-0.773682	-0.058594	-0.740967	0.091749	-0.030956	0.082465	0.819808	0.036102	-0.568626	0.057236	-0.963522	-69.465522	8.655445
42941		10.053112	-5.510882	9.618553	-4.729883	-6.168147	2.975288	0.792633	-0.903243	-0.000894	-0.784180	-0.072266	-0.736572	0.100096	-0.055491	0.096419	0.817053	0.039554	-0.572136	0.059329	-0.544688	-69.988566	8.687610
42942		13.001813	-6.460994	8.718978	-2.832421	-6.962613	5.363215	1.067113	-1.024282	-0.474537	-0.781738	-0.078857	-0.729980	0.129416	-0.065384	0.087506	0.813998	0.045520	-0.575938	0.060246	0.811663	-70.580672	7.891320
42943		16.302104	-4.252745	4.249456	2.025647	-4.176915	6.930916	1.017585	-0.616606	-0.995209	-0.782715	-0.101074	-0.723389	0.162674	-0.043555	0.042777	0.812239	0.052653	-0.577941	0.058993	3.041664	-70.920194	6.141588
42944		14.918634	-2.850832	2.212070	3.323497	-2.703068	4.926010	0.635532	1.017205	-1.028589	-0.773438	-0.111816	-0.736572	0.149146	-0.029344	0.021270	0.815260	0.057851	-0.573380	0.056925	4.944432	-70.303853	4.505528
42945		9.335833	-2.599794	4.080411	-0.125686	-3.005402	0.262709	0.606103	1.986528	-0.882835	-0.761475	-0.124756	-0.749756	0.093641	-0.026532	0.039795	0.820952	0.062225	-0.564862	0.055646	6.333407	-69.127393	3.389832
42946		6.690187	0.218992	7.067941	-4.118702	-0.863846	-1.034834	0.871733	0.787153	-0.871139	-0.754395	-0.133545	-0.740967	0.067187	0.001590	0.070423	0.823096	0.067990	-0.561150	0.054782	7.954858	-68.624171	2.182016
42947		7.888114	2.501252	7.931178	-4.848223	1.125493	0.512426	0.741702	-0.869280	-0.902993	-0.761963	-0.158203	-0.729980	0.078646	0.024362	0.079745	0.820605	0.073753	-0.564247	0.052862	9.882833	-69.042194	0.565060
42948		10.150202	4.871245	7.650424	-4.327045	3.351496	2.650146	0.769533	-1.784455	-0.881329	-0.783936	-0.165771	-0.716553	0.101025	0.047969	0.077593	0.815445	0.079811	-0.571055	0.050762	12.158345	-69.955982	-1.398495
42949		12.502724	6.236247	7.327892	-3.677581	4.551964	4.838425	0.517333	-1.666171	-0.791609	-0.779053	-0.176758	-0.701172	0.124655	0.061677	0.074479	0.810619	0.084544	-0.577417	0.048357	14.289731	-70.787933	-3.351219
42950		13.325239	5.530615	6.237205	-2.431165	3.907470	5.216339	0.116614	-0.815670	-0.675221	-0.789795	-0.183838	-0.703369	0.133182	0.054820	0.062947	0.808339	0.087108	-0.580448	0.045616	15.777778	-71.145815	-4.859586
42951		12.167738	4.477180	5.551810	-2.007306	2.947552	3.832958	-0.024942	0.180468	-0.612876	-0.787598	-0.185791	-0.701172	0.121864	0.044405	0.055403	0.808985	0.088689	-0.579495	0.043155	16.646981	-70.954729	-5.798397
42952		11.118453	3.002255	5.567547	-2.022671	1.486215	2.730423	-0.248643	0.879506	-0.541368	-0.776367	-0.185303	-0.723389	0.111509	0.029790	0.055148	0.811722	0.089007	-0.575790	0.040638	16.923747	-70.389641	-6.247629
42953		11.203117	2.008724	5.197765	-1.352407	0.566885	2.613478	-0.438094	1.022403	-0.395122	-0.767334	-0.187256	-0.727783	0.112334	0.019978	0.051360	0.814903	0.088101	-0.571585	0.038235	16.788210	-69.769559	-6.375504
42954		11.810387	1.487104	5.081711	-0.814578	0.069121	3.104377	-0.599906	1.023532	-0.193414	-0.759033	-0.175781	-0.736572	0.118376	0.014908	0.050167	0.818088	0.085957	-0.567480	0.036187	16.270454	-69.182754	-6.194687
42955		12.043425	0.141414	4.023464	0.585358	-1.029133	2.830456	-0.721346	1.033667	0.000759	-0.756836	-0.173584	-0.747559	0.120640	0.001558	0.039606	0.821292	0.082758	-0.563412	0.034593	15.423405	-68.619220	-5.735150
42956		11.390681	-1.279651	3.018371	1.610745	-2.174836	1.727230	-0.726739	1.200978	0.107457	-0.743652	-0.168701	-0.763184	0.114092	-0.012627	0.029545	0.824911	0.079206	-0.558684	0.033489	14.400408	-67.976966	-5.087331
42957		9.444767	-2.466067	2.943246	1.246593	-3.212851	-0.217380	-0.685058	1.456192	0.134204	-0.730713	-0.161377	-0.774170	0.094676	-0.024498	0.028828	0.829178	0.075700	-0.552868	0.032712	13.328514	-67.191392	-4.357957
42958		7.215987	-3.334287	3.047297	0.511763	-3.977539	-2.303322	-0.484400	1.278077	0.111258	-0.717529	-0.156494	-0.778564	0.072371	-0.033229	0.030092	0.832830	0.073119	-0.547725	0.032324	12.510635	-66.498630	-3.775394
42959		6.142236	-3.387475	3.186102	0.027981	-3.998311	-3.227413	-0.181458	0.725137	0.078892	-0.719727	-0.154297	-0.780762	0.061551	-0.033822	0.031669	0.834842	0.071970	-0.544801	0.032430	12.090409	-66.108320	-3.435584
42960		6.350972	-2.924952	3.006789	0.240885	-3.507249	-3.061975	0.004591	0.185103	0.069815	-0.719727	-0.154297	-0.785156	0.063548	-0.029228	0.030008	0.835306	0.071714	-0.544099	0.032808	11.942981	-66.019604	-3.276536
42961		6.944103	-2.402044	2.666411	0.724387	-2.947487	-2.609375	0.151295	-0.087383	0.078938	-0.717285	-0.158691	-0.782959	0.069439	-0.024013	0.026676	0.834979	0.072085	-0.544509	0.033530	11.939016	-66.083967	-3.182848
42962		7.707979	-1.640999	2.602101	0.981328	-2.202742	-1.871550	0.232008	-0.194421	0.081034	-0.719971	-0.152100	-0.785156	0.077061	-0.016409	0.026077	0.834325	0.072811	-0.545357	0.034438	12.009279	-66.209256	-3.119455
42963		8.396538	-0.905018	2.633147	1.114222	-1.496280	-1.165491	0.211157	-0.225471	0.097543	-0.728516	-0.156982	-0.782959	0.083940	-0.009037	0.026417	0.833593	0.073404	-0.546338	0.035350	12.052424	-66.353305	-3.039927
42964		9.113777	-0.350122	2.634827	1.304233	-0.959844	-0.458358	0.167686	-0.177608	0.158006	-0.726318	-0.158936	-0.780762	0.091117	-0.003451	0.026426	0.832991	0.073648	-0.547153	0.036410	11.981903	-66.478373	-2.863262
42965		9.423100	0.218651	2.841371	1.146384	-0.423260	-0.044237	0.121878	-0.046380	0.271670	-0.728271	-0.161377	-0.774170	0.094221	0.002297	0.028437	0.832746	0.073360	-0.547465	0.037870	11.698768	-66.542425	-2.483825
42966		9.077023	0.396079	3.123907	0.725934	-0.260108	-0.235982	0.039128	0.138472	0.371393	-0.722168	-0.152344	-0.780762	0.090784	0.004123	0.031177	0.833012	0.072426	-0.547063	0.039582	11.192133	-66.513544	-1.912159
42967		8.603221	0.341231	3.147964	0.536420	-0.273234	-0.665067	-0.030712	0.291367	0.426729	-0.722168	-0.152100	-0.787354	0.086070	0.003601	0.031354	0.833710	0.071012	-0.546051	0.041395	10.536045	-66.401754	-1.220992
42968		8.121640	0.182894	2.753601	0.748351	-0.317507	-1.273617	-0.087241	0.438176	0.444695	-0.722168	-0.149902	-0.787354	0.081272	0.002022	0.027357	0.834814	0.069290	-0.544445	0.043174	9.800894	-66.206195	-0.477866
42969		7.803178	-0.120015	2.205462	1.194590	-0.482166	-1.805925	-0.078657	0.577999	0.433399	-0.718018	-0.147461	-0.793945	0.078097	-0.001022	0.021829	0.836293	0.067596	-0.542238	0.044983	9.066280	-65.926163	0.271212
42970		7.432401	-0.443461	1.855026	1.449753	-0.704237	-2.310666	-0.016955	0.676706	0.409173	-0.715820	-0.145264	-0.793945	0.074395	-0.004281	0.018299	0.838008	0.066209	-0.539594	0.046884	8.398408	-65.585006	0.987885
42971		7.033638	-0.790768	1.784237	1.446929	-1.001989	-2.728691	0.087207	0.704253	0.375090	-0.706787	-0.147217	-0.800781	0.070413	-0.007783	0.017591	0.839760	0.065338	-0.536785	0.048940	7.843786	-65.221853	1.647640
42972		6.769863	-1.146643	1.627112	1.575462	-1.300591	-3.058466	0.195733	0.618820	0.332872	-0.700195	-0.144775	-0.809570	0.067767	-0.011369	0.016050	0.841243	0.065061	-0.534292	0.051074	7.435127	-64.902207	2.216822
42973		6.660369	-1.377562	1.555019	1.667813	-1.494144	-3.204960	0.338574	0.495074	0.293182	-0.707031	-0.142822	-0.802979	0.066662	-0.013704	0.015362	0.842352	0.065518	-0.532259	0.053390	7.183635	-64.648128	2.704256
42974		6.716538	-1.600012	1.616126	1.707223	-1.703923	-3.144426	0.487192	0.400646	0.260476	-0.693115	-0.151123	-0.809570	0.067218	-0.015952	0.015988	0.843158	0.066716	-0.530572	0.055924	7.078936	-64.445257	3.124163
42975		6.916889	-2.072971	2.051189	1.518013	-2.226482	-2.806529	0.577835	0.293287	0.226022	-0.699951	-0.149170	-0.813965	0.069222	-0.020710	0.020351	0.843650	0.068412	-0.529291	0.058526	7.083685	-64.300507	3.481106
42976		7.344720	-2.403749	2.341547	1.531949	-2.584741	-2.317493	0.638626	0.156669	0.189338	-0.699707	-0.155762	-0.798340	0.073488	-0.024042	0.023281	0.843759	0.070506	-0.528553	0.061077	7.190389	-64.231297	3.763641
42977		7.863380	-2.406273	2.532322	1.609149	-2.605428	-1.771673	0.667199	-0.021107	0.157826	-0.697021	-0.162354	-0.805176	0.078650	-0.024085	0.025251	0.843390	0.072852	-0.528537	0.063519	7.374502	-64.260912	3.978667
42978		8.438267	-2.193496	2.487202	1.867114	-2.372883	-1.263695	0.696073	-0.140924	0.149244	-0.701172	-0.166992	-0.796143	0.084382	-0.021959	0.024855	0.842684	0.075384	-0.529010	0.065945	7.606292	-64.358518	4.158816
42979		8.678708	-1.824766	2.463843	1.919799	-2.004824	-1.036851	0.741281	-0.213405	0.121634	-0.705322	-0.176025	-0.798340	0.086772	-0.018286	0.024663	0.841768	0.078199	-0.529753	0.068359	7.905708	-64.495327	4.293050
42980		8.866387	-0.950004	2.557482	1.733178	-1.173762	-0.775300	0.805459	-0.294581	0.091620	-0.707275	-0.180664	-0.789551	0.088630	-0.009563	0.025667	0.840607	0.081394	-0.530798	0.070771	8.295247	-64.676266	4.367522
42981		9.009168	0.393990	2.685256	1.379623	0.095773	-0.505795	0.859407	-0.372457	0.042002	-0.706787	-0.189453	-0.785156	0.090041	0.003843	0.027037	0.839218	0.084971	-0.532118	0.073100	8.788926	-64.897284	4.361722
42982		9.109335	2.009323	3.062048	0.706606	1.560044	-0.145206	0.820314	-0.368494	0.004859	-0.710449	-0.205078	-0.785156	0.091036	0.019969	0.030870	0.837852	0.088481	-0.533410	0.075153	9.311721	-65.112731	4.298305
42983		9.190066	3.234581	3.964146	-0.367183	2.509574	0.395211	0.714210	-0.295776	-0.057354	-0.710205	-0.209717	-0.771973	0.091851	0.032177	0.039892	0.836736	0.091685	-0.534399	0.076712	9.836960	-65.280831	4.166542
42984		9.354657	4.166466	6.555241	-2.834482	2.759662	1.684693	0.502944	-0.360095	-0.130786	-0.714844	-0.207764	-0.765381	0.093455	0.041438	0.065825	0.835562	0.094224	-0.535700	0.077350	10.352592	-65.477394	3.911170
42985		9.474790	4.759448	9.692223	-5.758716	2.532106	3.101941	0.108326	-0.867613	-0.177953	-0.723633	-0.212402	-0.758545	0.094368	0.047458	0.097358	0.833221	0.095437	-0.539240	0.076512	10.824334	-65.953801	3.457818
42986		10.968371	6.401358	9.609327	-5.602155	4.139430	4.508602	-0.124222	-1.442935	-0.091398	-0.736816	-0.215088	-0.747559	0.109016	0.064024	0.096842	0.829376	0.095663	-0.545291	0.075112	11.219093	-66.761917	2.944088
42987		13.179143	7.671015	8.197869	-3.938048	5.764193	6.030378	-0.628620	-1.161516	0.217767	-0.744385	-0.199951	-0.743164	0.131229	0.077112	0.082500	0.826383	0.092846	-0.550480	0.073767	10.855563	-67.445243	2.943921
42988		13.485906	6.762696	5.030263	-0.868829	5.724753	4.998721	-0.786080	-0.165498	0.683383	-0.742432	-0.190918	-0.747559	0.134585	0.068284	0.050147	0.826002	0.087724	-0.551812	0.074355	9.500651	-67.614347	3.917675
42989		10.374232	5.655772	3.878707	-0.744032	4.965126	1.564849	-0.679575	0.852148	0.839224	-0.736328	-0.181641	-0.751953	0.103667	0.057123	0.038152	0.828294	0.082232	-0.548945	0.076336	7.776953	-67.209778	5.358650
42990		7.946992	4.351419	4.852056	-2.191627	3.523573	-0.409955	-0.807708	0.891216	0.801248	-0.736816	-0.170654	-0.767578	0.079509	0.044027	0.047989	0.830717	0.076293	-0.545926	0.077808	6.082241	-66.764606	6.691976
42991		7.426290	1.480720	5.436076	-2.270444	0.690276	-0.798207	-1.002343	0.158753	0.684317	-0.737793	-0.152832	-0.765381	0.074254	0.015333	0.054226	0.831225	0.070150	-0.545951	0.077992	4.564949	-66.716061	7.714345
42992		7.724416	-0.337217	5.924466	-2.250312	-1.074352	-0.396715	-0.838740	-0.493600	0.569641	-0.751953	-0.137695	-0.758545	0.077106	-0.002903	0.059448	0.829908	0.065248	-0.548568	0.077903	3.353193	-67.026894	8.504337
42993		7.848061	-1.802599	6.586308	-2.594006	-2.551714	-0.066956	-0.730886	-0.882292	0.587304	-0.756836	-0.129150	-0.749756	0.078241	-0.017554	0.066273	0.827454	0.060896	-0.552737	0.078063	2.173397	-67.553444	9.325025
42994		8.730387	-2.794007	7.369689	-2.913648	-3.542853	1.017579	-0.593428	-1.255403	0.643056	-0.764160	-0.118164	-0.738770	0.086927	-0.027440	0.074325	0.823860	0.057099	-0.558390	0.078707	0.958089	-68.288531	10.264502
42995		11.463982	-3.642582	6.787480	-1.423288	-4.024570	3.322510	-0.495380	-1.598506	0.588755	-0.777588	-0.114258	-0.729980	0.114198	-0.035919	0.068878	0.819248	0.053991	-0.565357	0.079307	-0.195401	-69.211699	11.193405
42996		13.800594	-3.617290	5.064566	0.760675	-3.475193	4.902360	-0.163723	-1.102499	0.562628	-0.784668	-0.110107	-0.727783	0.137825	-0.035743	0.051435	0.815906	0.052113	-0.570125	0.080857	-1.190451	-69.845253	12.150378
42997		13.498751	-3.047351	4.126193	1.330589	-2.699988	4.310593	0.058628	0.117769	0.631500	-0.786865	-0.110107	-0.729980	0.135107	-0.030059	0.041174	0.815940	0.050454	-0.569823	0.083651	-2.154355	-69.771987	13.209350
42998		11.607135	-2.150439	4.504751	0.231714	-1.947016	2.669153	0.234186	0.984216	0.664422	-0.780762	-0.098877	-0.740967	0.116362	-0.021170	0.044450	0.818362	0.049052	-0.565914	0.087283	-2.986728	-69.197179	14.236333
42999		10.205604	-1.076030	4.845552	-0.661740	-1.000998	1.472269	0.411741	1.060472	0.534602	-0.773438	-0.109619	-0.749756	0.102339	-0.010586	0.047891	0.820985	0.048710	-0.561556	0.090916	-3.473506	-68.577865	15.007231
43000		10.482484	0.140820	4.856662	-0.722424	0.258604	1.715539	0.497035	0.792702	0.315288	-0.762451	-0.104736	-0.749756	0.105014	0.001454	0.048154	0.822907	0.049452	-0.558193	0.093805	-3.589723	-68.118964	15.433621
43001		11.104006	1.414806	4.267472	-0.144863	1.698424	2.045039	0.405775	0.793234	0.136038	-0.760010	-0.111328	-0.760986	0.111199	0.014138	0.042263	0.824921	0.050322	-0.554808	0.095717	-3.498063	-67.665076	15.582161
43002		10.440569	2.272253	3.684865	0.051440	2.599899	1.186574	0.213771	1.027835	0.090070	-0.746826	-0.106445	-0.767578	0.104583	0.022731	0.036336	0.827634	0.050410	-0.550529	0.096947	-3.430449	-67.079684	15.636526
43003		8.372563	2.842259	3.778287	-0.829034	2.948832	-0.698421	0.095093	1.188316	0.107586	-0.742188	-0.110596	-0.774170	0.083933	0.028450	0.037298	0.830787	0.049882	-0.545624	0.097976	-3.441722	-66.400932	15.704435
43004		6.741471	3.364942	4.028693	-1.711635	3.260420	-2.102943	-0.015709	0.927453	0.084874	-0.730957	-0.108154	-0.774170	0.067586	0.033681	0.039971	0.833241	0.049079	-0.541843	0.098525	-3.503657	-65.873127	15.757190
43005		6.197807	3.420907	3.969929	-1.835328	3.283577	-2.620654	-0.097026	0.438345	0.014943	-0.742188	-0.110596	-0.787354	0.062062	0.034233	0.039547	0.834416	0.048372	-0.540108	0.098455	-3.560448	-65.626541	15.754873
43006		6.378131	2.883209	3.625520	-1.321959	2.850846	-2.583376	-0.123869	0.014234	-0.069359	-0.735596	-0.108154	-0.782959	0.063794	0.028832	0.036233	0.834488	0.047984	-0.540142	0.097844	-3.558479	-65.626417	15.669649
43007		6.904805	2.254249	3.388532	-0.771328	2.337078	-2.184895	-0.133771	-0.253163	-0.127778	-0.739746	-0.112793	-0.780762	0.069019	0.022521	0.033958	0.833872	0.047850	-0.541273	0.096911	-3.509199	-65.780288	15.527922
43008		7.575021	1.816965	3.018084	-0.101316	2.043059	-1.712889	-0.172832	-0.349455	-0.158893	-0.744629	-0.106201	-0.782959	0.075712	0.018136	0.030297	0.833013	0.047677	-0.542823	0.095706	-3.448195	-65.991222	15.347455
43009		8.204150	1.412394	2.675099	0.516567	1.766404	-1.264470	-0.219919	-0.293328	-0.186912	-0.744385	-0.108398	-0.787354	0.082015	0.014077	0.026856	0.832330	0.047364	-0.544145	0.094283	-3.371770	-66.169956	15.122463
43010		8.645510	1.000656	2.355051	1.047308	1.454988	-0.976481	-0.286319	-0.160061	-0.225989	-0.742432	-0.104004	-0.776367	0.086447	0.009943	0.023605	0.832038	0.046811	-0.544940	0.092534	-3.270467	-66.274581	14.827375
43011		8.684989	0.637239	2.065097	1.397741	1.141559	-1.046681	-0.344828	0.046842	-0.266974	-0.742188	-0.108398	-0.778564	0.086863	0.006292	0.020620	0.832341	0.046036	-0.544882	0.090514	-3.133293	-66.260969	14.457923
43012		8.239790	0.466443	2.094722	1.248105	0.911985	-1.439514	-0.344349	0.235702	-0.285929	-0.740234	-0.101807	-0.778564	0.082429	0.004583	0.020842	0.833160	0.045223	-0.544037	0.088449	-2.959298	-66.140411	14.046999
43013		7.751014	0.442730	2.277029	0.923200	0.799074	-1.814675	-0.315100	0.310444	-0.297838	-0.735840	-0.101563	-0.787354	0.077552	0.004348	0.022643	0.834178	0.044537	-0.542855	0.086441	-2.751834	-65.976040	13.618692
43014		7.484735	0.520771	2.103873	0.987942	0.869965	-2.132467	-0.291390	0.357984	-0.285069	-0.731201	-0.105713	-0.785156	0.074892	0.005131	0.020897	0.835305	0.043889	-0.541471	0.084550	-2.548854	-65.784328	13.208233
43015		7.247639	0.786849	1.991598	0.975575	1.118853	-2.402547	-0.210995	0.385984	-0.269189	-0.730957	-0.110352	-0.789551	0.072525	0.007792	0.019768	0.836481	0.043527	-0.539928	0.082958	-2.323498	-65.574770	12.824355
43016		7.093882	1.152294	1.971691	0.895873	1.458795	-2.559568	-0.204585	0.378826	-0.257756	-0.724854	-0.098877	-0.793945	0.070991	0.011452	0.019571	0.837624	0.043158	-0.538419	0.081419	-2.114255	-65.369262	12.460357
43017		6.992241	1.302047	1.973711	0.855934	1.588627	-2.655463	-0.212046	0.330632	-0.259526	-0.722168	-0.105469	-0.798584	0.069972	0.012951	0.019608	0.838636	0.042787	-0.537105	0.079852	-1.913609	-65.190116	12.101808
43018		6.903507	1.411004	1.875010	0.912613	1.694317	-2.779809	-0.224618	0.198646	-0.269760	-0.720215	-0.103271	-0.800781	0.069073	0.014038	0.018666	0.839295	0.042438	-0.536351	0.078170	-1.716238	-65.086950	11.737270
43019		6.994676	1.598104	1.821411	0.982326	1.884029	-2.721679	-0.252153	0.106623	-0.264931	-0.722412	-0.101074	-0.798584	0.069978	0.015911	0.018157	0.839710	0.042002	-0.535987	0.076422	-1.545480	-65.035220	11.385612
43020		7.112923	1.753671	1.857290	0.986058	2.031534	-2.600261	-0.313361	0.072277	-0.252779	-0.720459	-0.098877	-0.796387	0.071158	0.017476	0.018520	0.840036	0.041284	-0.535797	0.074546	-1.426935	-65.003304	11.051588
43021		7.111420	1.720198	2.189426	0.707712	1.941230	-2.460429	-0.364690	0.079423	-0.237820	-0.722412	-0.101074	-0.802979	0.071143	0.017157	0.021835	0.840384	0.040312	-0.535592	0.072603	-1.356241	-64.966279	10.738798
43022		7.161504	1.700687	2.746659	0.246361	1.840850	-2.178935	-0.369873	0.067362	-0.208178	-0.713867	-0.093994	-0.802979	0.071642	0.016983	0.027411	0.840684	0.039239	-0.535447	0.070761	-1.325993	-64.936223	10.466312
43023		7.472665	1.589560	3.193739	0.001045	1.689541	-1.706341	-0.350353	-0.048484	-0.196610	-0.722900	-0.092041	-0.802979	0.074735	0.015878	0.031928	0.840664	0.038262	-0.535778	0.069003	-1.301499	-64.971728	10.213471
43024		8.258303	1.276237	3.270164	0.301145	1.423728	-0.958050	-0.302876	-0.250573	-0.183308	-0.718506	-0.092041	-0.800781	0.082554	0.012736	0.032786	0.840084	0.037514	-0.536946	0.067383	-1.271246	-65.123360	9.983532
43025		9.542917	1.024226	3.151661	0.948965	1.273010	0.163686	-0.193707	-0.449071	-0.171304	-0.723145	-0.087646	-0.793945	0.095367	0.010191	0.031721	0.838943	0.037263	-0.538907	0.066073	-1.195792	-65.387912	9.773890
43026		10.782124	0.853305	2.404121	2.102764	1.273423	0.990947	-0.108853	-0.620906	-0.135976	-0.727295	-0.094482	-0.789551	0.107752	0.008473	0.024371	0.837302	0.037325	-0.541566	0.065103	-1.117670	-65.750918	9.614435
43027		11.151567	0.345537	1.265863	3.285198	0.929402	0.884154	-0.067174	-0.712145	-0.066232	-0.732178	-0.088135	-0.787354	0.111471	0.003423	0.013054	0.835375	0.037407	-0.544597	0.064525	-1.103467	-66.164925	9.552428
43028		10.801891	-0.592145	1.197168	3.273340	-0.024189	0.567529	-0.042413	-0.690426	0.017341	-0.736572	-0.086182	-0.774170	0.107977	-0.005909	0.012346	0.833464	0.037352	-0.547541	0.064362	-1.184079	-66.565986	9.608777
43029		10.474856	-1.816048	2.569451	2.010651	-1.443193	0.840802	0.126536	-0.645203	0.095397	-0.747803	-0.088623	-0.771973	0.104674	-0.018127	0.026021	0.831610	0.037776	-0.550248	0.064997	-1.272460	-66.939866	9.779344
43030		10.657925	-2.410594	4.533049	0.317107	-2.291288	1.789035	0.421328	-0.647482	0.120502	-0.751953	-0.093262	-0.769775	0.106446	-0.024138	0.045624	0.829675	0.039354	-0.552868	0.066544	-1.229883	-67.314995	9.990049
43031		11.124680	-2.656560	6.753491	-1.556286	-2.840106	3.068957	0.630524	-0.645526	0.085460	-0.753906	-0.097900	-0.760986	0.111040	-0.026732	0.067809	0.827700	0.041899	-0.555393	0.068527	-1.020064	-67.689395	10.149651
43032		11.659678	-3.901097	6.772738	-1.237202	-4.097307	3.555823	0.983821	-0.812006	-0.040501	-0.758057	-0.104736	-0.751953	0.116313	-0.039369	0.068007	0.825207	0.046308	-0.558443	0.070928	-0.429997	-68.160683	10.116129
43033		12.970884	-4.142387	6.687814	-0.682483	-4.347157	4.705047	1.503569	-0.701990	-0.267807	-0.766113	-0.120605	-0.747559	0.129418	-0.042101	0.067018	0.822936	0.053458	-0.560769	0.073870	0.805484	-68.567953	9.709619
43034		13.575722	-2.633530	6.323834	-0.392991	-2.910668	5.107027	1.471370	-0.057077	-0.505656	-0.763184	-0.135986	-0.751953	0.135671	-0.027143	0.063079	0.822516	0.060897	-0.560355	0.075906	2.373078	-68.598583	8.926283
43035		12.502744	-1.764600	3.600089	1.605993	-1.740710	3.101733	1.075856	0.398599	-0.622791	-0.750977	-0.155518	-0.745361	0.125043	-0.018228	0.035655	0.823496	0.066866	-0.558150	0.076493	3.845900	-68.356777	8.001697
43036		10.328506	-1.884103	3.859945	0.709300	-2.105833	1.150315	1.042675	0.941717	-0.569496	-0.744141	-0.157471	-0.751953	0.103410	-0.019335	0.038013	0.825942	0.072334	-0.553715	0.077378	5.131645	-67.799515	7.254673
43037		8.105259	-0.599955	5.393353	-1.663411	-1.348252	-0.296522	1.067944	0.717500	-0.537955	-0.741211	-0.173096	-0.749756	0.081228	-0.006505	0.053608	0.827704	0.077908	-0.550175	0.078387	6.372602	-67.365283	6.570377
43038		7.451900	0.523318	6.902891	-3.457441	-0.705823	-0.273227	1.098335	-0.044664	-0.575557	-0.742676	-0.188721	-0.747559	0.074517	0.004639	0.069072	0.827335	0.084001	-0.549743	0.079015	7.780130	-67.356428	5.722102
43039		7.879238	1.986974	7.666061	-4.324525	0.426666	0.478720	1.178465	-0.717499	-0.637359	-0.751221	-0.197754	-0.743164	0.078578	0.019166	0.077057	0.825069	0.090863	-0.552007	0.079331	9.463764	-67.714258	4.627172
43040		9.323116	2.742551	7.534242	-3.917610	1.069671	1.793837	1.095972	-1.086866	-0.708242	-0.756836	-0.218018	-0.729980	0.092915	0.026681	0.075995	0.821795	0.097714	-0.555763	0.078943	11.343759	-68.260093	3.271648
43041		11.125113	3.877633	7.300018	-3.422581	2.080947	3.455541	0.988757	-1.013732	-0.782726	-0.758789	-0.222656	-0.718750	0.111028	0.037978	0.073752	0.818751	0.104303	-0.559182	0.077992	13.324245	-68.737943	1.748291
43042		12.522020	4.196775	6.662847	-2.504499	2.394255	4.567859	0.626800	-0.533593	-0.781592	-0.767090	-0.238525	-0.723145	0.125204	0.041269	0.067093	0.817197	0.109209	-0.560755	0.076271	14.985401	-68.931695	0.347069
43043		12.707140	3.881560	6.484502	-2.210207	2.009016	4.667111	0.302711	0.057040	-0.657790	-0.762207	-0.242676	-0.718750	0.127216	0.038299	0.064867	0.817413	0.112221	-0.560086	0.074475	16.063213	-68.805422	-0.626357
43044		12.347640	2.413723	6.395552	-1.848353	0.546601	4.168642	0.059609	0.375509	-0.469530	-0.753174	-0.244629	-0.718750	0.123652	0.023828	0.063731	0.818575	0.113587	-0.558312	0.072938	16.591678	-68.530233	-1.162056
43045		12.270306	1.311712	5.470970	-0.704378	-0.297761	3.664226	-0.016575	0.514224	-0.277629	-0.752930	-0.251221	-0.727783	0.122861	0.012951	0.054393	0.820095	0.114059	-0.556095	0.072060	16.741451	-68.208385	-1.337260
43046		11.983886	0.693967	4.966576	-0.117728	-0.753828	3.155693	0.000747	0.824691	-0.078615	-0.748779	-0.244385	-0.734375	0.120045	0.006892	0.049171	0.822382	0.113931	-0.552713	0.072214	16.502839	-67.749662	-1.084469
43047		10.843569	-0.231344	4.462544	0.235913	-1.477627	1.819621	0.106410	1.008868	0.061330	-0.732910	-0.250488	-0.738770	0.108660	-0.002304	0.044076	0.825055	0.113786	-0.548596	0.073347	16.079572	-67.210650	-0.564179
43048		9.805079	-1.303748	3.935102	0.674922	-2.333134	0.551882	0.156209	1.025840	0.105528	-0.735352	-0.243896	-0.751953	0.098258	-0.013016	0.038837	0.827704	0.113711	-0.544409	0.074799	15.643672	-66.668680	0.001751
43049		8.779690	-2.171878	3.639003	0.849457	-3.057850	-0.594804	0.234230	1.073928	0.127926	-0.723877	-0.250244	-0.760742	0.088004	-0.021705	0.035892	0.830411	0.113881	-0.539983	0.076590	15.229748	-66.100972	0.595935
43050		7.456857	-2.381180	3.542925	0.546854	-3.212043	-1.862213	0.353864	1.032809	0.151169	-0.710693	-0.247559	-0.758545	0.074768	-0.023818	0.035001	0.832902	0.114493	-0.535688	0.078765	14.892208	-65.558896	1.182996
43051		6.475043	-2.425230	3.470428	0.293315	-3.224832	-2.786605	0.461750	0.754632	0.172181	-0.709961	-0.258545	-0.767578	0.064902	-0.024276	0.034404	0.834561	0.115609	-0.532498	0.081166	14.695951	-65.171917	1.685849
43052		6.324080	-1.996230	3.366028	0.261220	-2.778233	-2.919058	0.588636	0.355193	0.174498	-0.707764	-0.258545	-0.769775	0.063318	-0.020006	0.033489	0.835065	0.117404	-0.530925	0.083672	14.702612	-65.007270	2.045195
43053		6.724711	-1.556833	3.112309	0.559953	-2.279904	-2.614048	0.647672	0.033821	0.167279	-0.707520	-0.262939	-0.769775	0.067265	-0.015613	0.031061	0.834678	0.119603	-0.530651	0.086128	14.852309	-65.018868	2.285666
43054		7.407792	-1.040775	2.999163	0.811701	-1.749222	-1.987412	0.739115	-0.158610	0.162153	-0.709717	-0.267578	-0.765381	0.074063	-0.010459	0.030012	0.833713	0.122274	-0.531138	0.088676	15.122130	-65.137529	2.449936
43055		8.167669	-0.293217	3.204448	0.734687	-1.096069	-1.133742	0.757254	-0.280839	0.175171	-0.718262	-0.274414	-0.754150	0.081634	-0.002982	0.032148	0.832398	0.125041	-0.532118	0.091263	15.425816	-65.325128	2.589397
43056		8.924127	0.520682	3.443813	0.583499	-0.393540	-0.258864	0.640591	-0.354732	0.230698	-0.716064	-0.274414	-0.756348	0.089174	0.005199	0.034613	0.830916	0.127203	-0.533494	0.093710	15.622105	-65.563214	2.771965
43057		9.435868	0.933288	3.366298	0.704561	0.028309	0.224308	0.484457	-0.290779	0.307984	-0.724854	-0.274658	-0.747559	0.094295	0.009396	0.033823	0.829660	0.128484	-0.534712	0.096116	15.610783	-65.777342	3.085308
43058		9.286781	1.354912	3.186035	0.644828	0.493336	0.065149	0.354767	-0.057647	0.383974	-0.724609	-0.279297	-0.745361	0.092832	0.013671	0.031911	0.829065	0.128906	-0.535077	0.098625	15.350166	-65.874769	3.588643
43059		8.603805	1.588922	2.940993	0.496114	0.802920	-0.630712	0.212096	0.172567	0.433607	-0.724854	-0.274658	-0.751953	0.086029	0.016045	0.029353	0.829149	0.128493	-0.534580	0.101119	14.866551	-65.850324	4.248090
43060		7.878184	1.446314	2.567500	0.570111	0.802146	-1.459182	0.137736	0.343482	0.447504	-0.724854	-0.276855	-0.745361	0.078793	0.014622	0.025550	0.829723	0.127644	-0.533424	0.103568	14.272007	-65.731175	4.981349
43061		7.266134	1.493172	2.079572	0.739594	1.020101	-2.212482	0.161901	0.473771	0.432052	-0.718506	-0.270020	-0.756348	0.072678	0.015072	0.020636	0.830630	0.126872	-0.531692	0.106113	13.677276	-65.533684	5.732451
43062		6.823134	1.197385	1.792285	0.918457	0.852524	-2.767787	0.130110	0.601014	0.402407	-0.714111	-0.267578	-0.756348	0.068261	0.012100	0.017726	0.831900	0.125973	-0.529431	0.108516	13.076391	-65.258770	6.470171
43063		6.460263	0.864404	1.714734	0.968168	0.581859	-3.168411	0.164221	0.676787	0.366109	-0.711670	-0.271973	-0.758545	0.064644	0.008748	0.016936	0.833360	0.125272	-0.526798	0.110916	12.532173	-64.933125	7.169935
43064		6.214194	0.555856	1.921229	0.819832	0.242607	-3.340814	0.221157	0.683786	0.337278	-0.707275	-0.271973	-0.760742	0.062198	0.005642	0.019006	0.834802	0.124875	-0.524086	0.113337	12.069490	-64.598206	7.816326
43065		6.094872	0.436895	2.142726	0.651855	0.078262	-3.370759	0.335141	0.612423	0.314789	-0.704834	-0.271729	-0.767578	0.061007	0.004429	0.021248	0.835988	0.125059	-0.521578	0.115931	11.728948	-64.298142	8.403171
43066		6.058449	0.396565	2.449310	0.418829	-0.042300	-3.279396	0.448982	0.498082	0.304597	-0.700439	-0.273926	-0.767578	0.060639	0.004003	0.024351	0.836798	0.125802	-0.519475	0.118692	11.502490	-64.060407	8.935318
43067		6.202793	0.052741	2.842503	0.287854	-0.472018	-3.011840	0.506301	0.371565	0.291758	-0.695801	-0.273682	-0.767578	0.062080	0.000546	0.028311	0.837242	0.126898	-0.517847	0.121481	11.358459	-63.890925	9.414847
43068		6.414807	-0.333753	3.220837	0.211853	-0.938363	-2.691627	0.552604	0.223280	0.263470	-0.693359	-0.278076	-0.769775	0.064188	-0.003342	0.032127	0.837279	0.128344	-0.516794	0.124162	11.310836	-63.801805	9.815414
43069		6.714571	-0.663887	3.365310	0.349362	-1.270886	-2.388787	0.579328	0.131359	0.226503	-0.690918	-0.282471	-0.765137	0.067175	-0.006660	0.033590	0.837077	0.130059	-0.516074	0.126710	11.342106	-63.759499	10.146876
43070		7.112970	-0.707226	3.391856	0.527631	-1.290899	-2.024596	0.639204	0.055614	0.189304	-0.699951	-0.280518	-0.767578	0.071146	-0.007113	0.033876	0.836654	0.132161	-0.515610	0.129194	11.468309	-63.756361	10.409267
43071		7.790204	-0.648414	3.378617	0.819282	-1.184106	-1.419272	0.654690	-0.045087	0.138015	-0.695068	-0.289307	-0.756348	0.077899	-0.006541	0.033782	0.835986	0.134528	-0.515511	0.131448	11.684231	-63.803607	10.583004
43072		8.494942	-0.397491	3.042838	1.310672	-0.785207	-0.910639	0.606026	-0.151717	0.072455	-0.699463	-0.291748	-0.756348	0.084928	-0.004036	0.030481	0.835109	0.136925	-0.515846	0.133217	11.973479	-63.903873	10.642372
43073		9.167572	0.008991	2.506565	1.882914	-0.175664	-0.498664	0.577977	-0.265748	0.007806	-0.701416	-0.298340	-0.754150	0.091642	0.000021	0.025188	0.833993	0.139452	-0.516621	0.134578	12.348974	-64.059846	10.589491
43074		10.017048	0.639127	2.042108	2.367818	0.619450	0.133638	0.573713	-0.489646	-0.049818	-0.707764	-0.305420	-0.745361	0.100122	0.006307	0.020684	0.832330	0.142253	-0.518292	0.135516	12.850455	-64.334129	10.392386
43075		10.719253	1.942084	1.885453	2.250495	1.892085	0.844871	0.569944	-0.760865	-0.068317	-0.705078	-0.312012	-0.732178	0.107126	0.019330	0.019317	0.829963	0.145274	-0.521066	0.136187	13.453099	-64.756057	10.083180
43076		11.343385	3.290770	2.460990	1.430390	2.897916	1.811098	0.435941	-1.100454	-0.067261	-0.720947	-0.310303	-0.729980	0.113307	0.032815	0.025305	0.826784	0.147957	-0.525332	0.136247	14.094809	-65.366051	9.645783
43077		11.791031	4.323512	2.760075	0.839048	3.686673	2.477193	0.299983	-1.309683	-0.050585	-0.724854	-0.317139	-0.709961	0.117737	0.043163	0.028437	0.823111	0.150177	-0.530541	0.135874	14.730964	-66.092125	9.133167
43078		12.065375	4.626907	4.190010	-0.496962	3.349798	3.342839	0.199554	-1.067050	-0.026830	-0.734131	-0.310791	-0.709961	0.120434	0.046211	0.042589	0.820110	0.151744	-0.534822	0.135493	15.229309	-66.685601	8.708966
43079		11.543591	4.102239	6.147769	-2.238677	2.020665	3.558276	-0.077716	-0.622146	-0.003907	-0.736572	-0.310791	-0.714355	0.115245	0.041044	0.061820	0.818476	0.151815	-0.537470	0.134814	15.398135	-67.035406	8.473574
43080		11.167367	3.636587	7.403307	-3.322744	1.075127	3.624091	-0.467874	-0.429460	0.001783	-0.734131	-0.312988	-0.698975	0.111514	0.036540	0.074187	0.817645	0.150136	-0.539595	0.133240	15.270551	-67.279845	8.316044
43081		11.283508	3.528530	6.118416	-2.199203	1.514863	3.228460	-0.810955	-0.316895	0.028104	-0.741211	-0.304443	-0.707764	0.112733	0.035549	0.061219	0.817346	0.146913	-0.541494	0.130944	14.869810	-67.465788	8.243360
43082		11.497034	3.714759	6.213765	-2.287748	1.730198	3.467525	-0.962321	0.010379	0.197333	-0.739502	-0.293213	-0.709961	0.114937	0.037559	0.061952	0.817915	0.142389	-0.542273	0.129154	14.038779	-67.495073	8.541032
43083		10.973588	3.059951	4.978487	-1.194482	1.652418	2.451492	-0.987755	0.178903	0.390447	-0.735840	-0.277588	-0.707764	0.109720	0.031059	0.049534	0.818812	0.137132	-0.542497	0.128213	12.878420	-67.453712	9.181074
43084		9.459191	1.747279	4.006350	-0.459935	0.792020	0.567128	-0.927541	0.294123	0.474883	-0.736572	-0.266357	-0.714355	0.094608	0.017883	0.039842	0.819902	0.131807	-0.542257	0.127845	11.609593	-67.353425	9.974693
43085		8.137377	2.123869	5.362675	-2.254153	0.658551	-0.118843	-0.672017	0.109096	0.449388	-0.743408	-0.262207	-0.716553	0.081355	0.021601	0.053510	0.820320	0.127720	-0.542578	0.127950	10.577381	-67.347729	10.672236
43086		7.660147	1.569740	7.148748	-3.812301	-0.441738	0.062378	-0.836140	-0.509626	0.373082	-0.753174	-0.244629	-0.714355	0.076389	0.016139	0.071615	0.819194	0.123554	-0.545486	0.126889	9.700894	-67.679367	11.097276
43087		7.999456	-0.783005	7.622093	-3.397443	-2.722421	0.372810	-0.889216	-1.141834	0.340230	-0.762451	-0.240723	-0.701172	0.079570	-0.007354	0.076709	0.816364	0.119662	-0.550968	0.125162	8.964202	-68.362404	11.338629
43088		9.018349	-1.635964	7.668116	-2.952852	-3.425850	1.248416	-0.699485	-1.441818	0.376105	-0.771973	-0.229736	-0.698975	0.089658	-0.015921	0.077385	0.812519	0.116620	-0.557548	0.123908	8.320040	-69.217984	11.594657
43089		10.944598	-2.532030	6.852098	-1.468101	-3.837992	2.687618	-0.561625	-1.375254	0.463501	-0.785400	-0.225830	-0.687988	0.109029	-0.024873	0.069342	0.808674	0.113852	-0.563780	0.123435	7.568260	-70.040702	12.049815
43090		12.932172	-3.269595	5.462707	0.486019	-3.913765	4.051536	-0.270921	-0.931045	0.510687	-0.785400	-0.225830	-0.685547	0.129148	-0.032291	0.055272	0.805847	0.111840	-0.568045	0.124208	6.771703	-70.612891	12.725914
43091		13.417291	-2.785631	4.643653	1.106943	-3.113052	4.273831	-0.041915	-0.256714	0.516531	-0.792725	-0.217285	-0.683350	0.134184	-0.027500	0.046615	0.804790	0.110322	-0.569434	0.126043	5.937688	-70.797227	13.580928
43092		12.573695	-1.401048	4.846325	0.188390	-1.873430	3.603792	0.155125	0.348432	0.494363	-0.790771	-0.210449	-0.678955	0.125855	-0.013737	0.048233	0.805351	0.109269	-0.568255	0.128669	5.149442	-70.632149	14.505231
43093		11.544356	0.049512	4.691652	-0.442560	-0.475370	2.631740	0.222641	0.612956	0.423727	-0.786133	-0.214844	-0.687988	0.115585	0.000688	0.046563	0.806665	0.108523	-0.565914	0.131360	4.494683	-70.307909	15.332060
43094		10.978991	0.718809	4.999185	-1.064084	0.059809	2.225187	0.142935	0.619189	0.276206	-0.781982	-0.208008	-0.696777	0.109934	0.007304	0.049657	0.808124	0.107862	-0.563520	0.133218	4.050186	-69.972088	15.886754
43095		10.706553	1.482234	5.058183	-1.406895	0.772338	2.012554	0.059887	0.529409	0.116307	-0.774902	-0.212158	-0.698975	0.107190	0.014870	0.050303	0.809476	0.107381	-0.561444	0.134161	3.830050	-69.679239	16.154651
43096		10.190561	2.524815	4.848416	-1.690922	1.801602	1.484392	-0.079733	0.575173	0.032791	-0.775146	-0.209961	-0.705566	0.102040	0.025284	0.048181	0.811078	0.106531	-0.559236	0.134382	3.660467	-69.357757	16.281908
43097		9.025324	3.487607	4.537260	-2.072681	2.727290	0.310156	-0.249845	0.703681	0.006375	-0.777588	-0.203369	-0.714355	0.090411	0.034935	0.045011	0.813142	0.104985	-0.556592	0.134103	3.426099	-68.960680	16.376404
43098		7.704395	3.991364	4.379066	-2.491002	3.158669	-0.964968	-0.413477	0.680344	-0.019042	-0.768799	-0.200684	-0.716553	0.077196	0.039996	0.043446	0.815229	0.102851	-0.554140	0.133235	3.143971	-68.576989	16.419891
43099		6.758732	4.130792	4.323539	-2.765354	3.247286	-1.860041	-0.471068	0.436863	-0.069065	-0.766602	-0.202881	-0.727783	0.067696	0.041386	0.042990	0.816698	0.100788	-0.552677	0.131890	2.924932	-68.329979	16.361772
43100		6.412907	4.185630	4.505395	-3.031566	3.234606	-2.112668	-0.466315	0.123385	-0.119860	-0.767090	-0.194092	-0.727783	0.064182	0.041923	0.044917	0.817321	0.099085	-0.552470	0.130179	2.805586	-68.262011	16.197615
43101		7.024755	3.867352	4.432177	-2.637079	3.035708	-1.579944	-0.503367	-0.233502	-0.173545	-0.769287	-0.191895	-0.729980	0.070229	0.038724	0.044306	0.817009	0.097618	-0.553704	0.127979	2.768428	-68.395682	15.923882
43102		7.992096	3.181836	4.047624	-1.750402	2.605899	-0.839043	-0.618710	-0.435513	-0.216554	-0.769531	-0.187500	-0.723389	0.079867	0.031857	0.040552	0.816208	0.095918	-0.555820	0.125174	2.743610	-68.645022	15.564564
43103		8.867973	2.272417	3.680937	-0.860349	1.937311	-0.176263	-0.822321	-0.465623	-0.249533	-0.776367	-0.183105	-0.723389	0.088622	0.022765	0.036922	0.815430	0.093504	-0.558149	0.121659	2.657503	-68.909591	15.147928
43104		9.404866	1.310656	3.477105	-0.230839	1.131018	0.233557	-0.990448	-0.411849	-0.269070	-0.781250	-0.178955	-0.718750	0.093995	0.013153	0.034900	0.814865	0.090416	-0.560346	0.117609	2.503399	-69.144433	14.700199
43105		9.544838	0.503601	3.312189	0.170071	0.419096	0.292930	-1.066188	-0.341839	-0.278357	-0.779541	-0.167725	-0.727783	0.095399	0.005080	0.033258	0.814514	0.087010	-0.562271	0.113345	2.319347	-69.338274	14.240191
43106		9.411353	-0.029104	3.116783	0.417058	-0.052455	0.092461	-1.002896	-0.331351	-0.281969	-0.786621	-0.158936	-0.725586	0.094061	-0.000267	0.031325	0.814137	0.083854	-0.564108	0.109237	2.178370	-69.527663	13.772025
43107		9.138652	-0.138624	2.641577	0.749961	-0.063450	-0.328723	-0.865277	-0.307998	-0.265568	-0.781982	-0.161133	-0.720947	0.091344	-0.001393	0.026562	0.813742	0.081201	-0.565755	0.105596	2.093250	-69.703033	13.329707
43108		8.690931	-0.308024	2.193561	1.024574	-0.157102	-0.904016	-0.772160	-0.165643	-0.214818	-0.789307	-0.147949	-0.718750	0.086888	-0.003089	0.022019	0.813664	0.078703	-0.566794	0.102475	1.976699	-69.799516	12.977382
43109		8.230410	-0.444540	1.878169	1.179679	-0.251136	-1.445486	-0.644710	-0.009106	-0.159746	-0.784912	-0.150146	-0.725586	0.082300	-0.004451	0.018800	0.813944	0.076490	-0.567135	0.100005	1.839991	-69.806520	12.725296
43110		7.954271	-0.354142	1.574742	1.339632	-0.111742	-1.808404	-0.531031	0.095705	-0.096383	-0.782959	-0.145508	-0.727783	0.079549	-0.003538	0.015719	0.814434	0.074503	-0.567021	0.098149	1.664243	-69.756007	12.583353
43111		7.828616	-0.139983	1.294921	1.506665	0.156088	-2.022358	-0.445023	0.164348	-0.036361	-0.782959	-0.141113	-0.725586	0.078297	-0.001385	0.012888	0.815057	0.072665	-0.566594	0.096812	1.442184	-69.666011	12.543984
43112		7.689079	0.040529	0.997434	1.697525	0.396214	-2.257566	-0.374407	0.187663	0.016107	-0.787842	-0.136719	-0.734375	0.076900	0.000430	0.009901	0.815686	0.070951	-0.566064	0.095891	1.179391	-69.564678	12.590483
43113		7.614101	0.237551	0.950346	1.681151	0.602888	-2.346473	-0.322080	0.219903	0.059842	-0.783447	-0.134521	-0.736572	0.076151	0.002414	0.009416	0.816367	0.069313	-0.565382	0.095311	0.880334	-69.444152	12.708241
43114		7.396184	0.429927	1.073011	1.464564	0.758943	-2.510719	-0.304782	0.245583	0.081167	-0.777100	-0.125244	-0.738770	0.073973	0.004346	0.010633	0.817097	0.067670	-0.564600	0.094872	0.560606	-69.309943	12.858270
43115		7.170630	0.625382	1.324433	1.129667	0.890824	-2.636797	-0.314185	0.274442	0.070128	-0.781494	-0.125488	-0.734375	0.071722	0.006300	0.013136	0.817918	0.066007	-0.563690	0.094373	0.254797	-69.157736	12.987971
43116		6.894307	0.835961	1.559650	0.789873	1.037266	-2.815335	-0.330707	0.276110	0.045719	-0.765869	-0.125000	-0.740967	0.068963	0.008401	0.015487	0.818752	0.064344	-0.562779	0.093726	-0.020871	-69.005445	13.075223
43117		6.771411	1.147299	1.820248	0.458325	1.288321	-2.840477	-0.318243	0.260017	0.011723	-0.772705	-0.125244	-0.738770	0.067737	0.011506	0.018096	0.819554	0.062836	-0.561907	0.092971	-0.236303	-68.861298	13.106016
43118		6.667584	1.336331	2.086528	0.157702	1.420670	-2.844702	-0.367615	0.282117	-0.023742	-0.775391	-0.114014	-0.747559	0.066707	0.013394	0.020747	0.820441	0.061213	-0.560961	0.091936	-0.426223	-68.705557	13.078776
43119		6.749843	1.657612	2.520534	-0.251166	1.666799	-2.614095	-0.441165	0.402159	-0.038661	-0.764160	-0.118164	-0.751953	0.067552	0.016618	0.025033	0.821692	0.059277	-0.559541	0.090672	-0.633312	-68.480266	13.025034
43120		7.000443	1.786510	2.822858	-0.425089	1.773014	-2.273335	-0.547731	0.537627	-0.052060	-0.760498	-0.102539	-0.756348	0.070085	0.017924	0.027991	0.823347	0.056877	-0.557609	0.089092	-0.878424	-68.178433	12.946050
43121		7.410738	1.876532	3.118010	-0.513007	1.862513	-1.785860	-0.525112	0.625990	-0.045646	-0.755859	-0.104492	-0.760986	0.074209	0.018830	0.030899	0.825230	0.054511	-0.555289	0.087625	-1.115100	-67.824953	12.871832
43122		8.025226	1.823833	3.588400	-0.648032	1.799851	-1.040713	-0.485830	0.574575	-0.061544	-0.751709	-0.099854	-0.767578	0.080360	0.018300	0.035609	0.826949	0.052374	-0.553158	0.086186	-1.307014	-67.502310	12.773307
43123		8.835436	1.152150	3.491714	-0.079367	1.247960	-0.324768	-0.486644	0.325017	-0.110990	-0.745117	-0.095215	-0.769775	0.088417	0.011557	0.034745	0.827996	0.050477	-0.552032	0.084473	-1.437842	-67.322328	12.607982
43124		9.660567	0.327599	2.930195	0.920352	0.613772	0.227041	-0.436254	0.040761	-0.191798	-0.743164	-0.090820	-0.767578	0.096615	0.003247	0.029275	0.828267	0.049131	-0.552045	0.082493	-1.439728	-67.307467	12.334034
43125		10.381423	-0.417266	2.340358	1.860634	0.030666	0.673606	-0.413358	-0.220079	-0.275087	-0.740723	-0.093018	-0.767578	0.103783	-0.004267	0.023527	0.827848	0.048216	-0.553098	0.080165	-1.321350	-67.441994	11.943965
43126		10.786632	-1.009715	1.856365	2.532375	-0.465543	0.873153	-0.422151	-0.346025	-0.321662	-0.756592	-0.089111	-0.760986	0.107818	-0.010231	0.018772	0.827088	0.047445	-0.554666	0.077591	-1.143929	-67.649916	11.485203
43127		10.935956	-0.977849	1.599792	2.778201	-0.416985	0.921284	-0.373187	-0.356497	-0.356416	-0.750000	-0.086426	-0.765381	0.109313	-0.009943	0.016211	0.826296	0.046977	-0.556239	0.075003	-0.882901	-67.862699	10.967117
43128		11.011405	-0.236190	1.684103	2.561944	0.264653	1.027477	-0.335650	-0.368055	-0.373109	-0.754395	-0.088867	-0.758789	0.110078	-0.002539	0.017048	0.825458	0.046713	-0.557842	0.072450	-0.569834	-68.082060	10.416886
43129		10.944180	0.420581	2.674452	1.489073	0.714700	1.339729	-0.368773	-0.274613	-0.338354	-0.756592	-0.086914	-0.758789	0.109412	0.004070	0.026887	0.824872	0.046181	-0.559070	0.069966	-0.316102	-68.245979	9.910718
43130		10.488249	0.330286	4.798714	-0.621410	0.246809	1.706558	-0.330344	-0.039366	-0.278655	-0.752441	-0.084473	-0.754150	0.104878	0.003236	0.048002	0.824904	0.045559	-0.559329	0.067892	-0.121589	-68.274971	9.492500
43131		10.374837	-0.437809	5.992306	-1.636215	-0.714222	2.042661	-0.178064	-0.064991	-0.285353	-0.748291	-0.075439	-0.758789	0.103723	-0.004473	0.059961	0.824832	0.045592	-0.559633	0.066208	0.171644	-68.317346	9.061901
43132		11.396564	-1.157391	6.016064	-1.192297	-1.401125	2.994702	-0.013414	-0.324401	-0.365084	-0.754883	-0.077881	-0.751953	0.113846	-0.011778	0.060346	0.824017	0.046612	-0.560937	0.064599	0.679778	-68.507536	8.502133
43133		12.898225	-2.007491	6.311158	-0.821882	-2.261797	4.485326	0.021226	-0.307499	-0.500761	-0.756348	-0.093506	-0.754150	0.128834	-0.020404	0.063308	0.823282	0.048147	-0.562120	0.062525	1.416233	-68.683646	7.718483
43134		13.961713	-2.659712	6.155116	-0.211356	-2.922424	5.395948	0.204352	-0.086191	-0.719254	-0.756348	-0.095703	-0.754150	0.139494	-0.027162	0.061584	0.823181	0.050983	-0.562280	0.060125	2.578250	-68.724642	6.591948
43135		13.423915	-2.713245	5.054501	0.646925	-2.953786	4.468975	0.378949	0.290468	-0.927808	-0.749023	-0.104248	-0.754150	0.134184	-0.027850	0.050298	0.824144	0.055010	-0.560768	0.057451	4.111452	-68.532812	5.173476
43136		10.846627	-2.814103	3.982554	0.797312	-3.092985	1.642646	0.348664	0.889662	-1.050528	-0.741943	-0.113037	-0.758545	0.108492	-0.028780	0.039293	0.826795	0.059082	-0.556746	0.054350	5.690701	-67.979689	3.683315
43137		7.570713	-3.486630	4.483524	-0.669300	-4.009335	-1.265762	0.240261	1.168576	-1.155268	-0.734619	-0.128174	-0.771973	0.075764	-0.035357	0.044350	0.830238	0.062915	-0.551531	0.050592	7.227747	-67.245466	2.164404
43138		6.478050	-3.589329	5.645803	-2.049693	-4.399138	-1.864812	0.386977	0.616799	-1.247158	-0.724854	-0.141357	-0.769775	0.064728	-0.036406	0.056188	0.832084	0.067749	-0.548513	0.046683	8.986889	-66.801221	0.489444
43139		6.116622	-2.325907	6.387135	-3.022629	-3.381909	-1.872702	0.733002	-0.178478	-1.271485	-0.728516	-0.159180	-0.769775	0.060959	-0.023881	0.063839	0.831598	0.074270	-0.548680	0.043349	11.107754	-66.780591	-1.366478
43140		6.922385	-0.740905	6.567953	-3.132201	-1.995699	-0.991661	0.906515	-0.806012	-1.284728	-0.734619	-0.172852	-0.760742	0.068908	-0.008151	0.065922	0.829269	0.081681	-0.551384	0.040201	13.534783	-67.081434	-3.444958
43141		9.152326	-0.173306	5.825387	-1.739083	-1.523634	0.788306	0.889186	-0.926726	-1.321180	-0.735596	-0.195068	-0.747559	0.091237	-0.002597	0.058667	0.826560	0.089137	-0.554525	0.036803	16.099755	-67.407178	-5.679064
43142		11.934170	0.491415	5.550257	-0.581250	-1.121911	3.297265	0.972225	-0.450378	-1.272058	-0.739502	-0.206299	-0.747559	0.119243	0.003885	0.055792	0.825058	0.096707	-0.555669	0.034046	18.504118	-67.443756	-7.684703
43143		13.362459	2.154967	6.107330	-0.816824	0.121627	5.013420	0.887260	0.054731	-1.050496	-0.734131	-0.226074	-0.745361	0.133751	0.020576	0.061129	0.824920	0.103218	-0.554812	0.032212	20.334684	-67.220211	-9.122611
43144		13.450685	3.237074	6.475208	-1.263161	0.942448	5.380823	0.468756	0.191448	-0.674549	-0.727295	-0.228271	-0.747559	0.134677	0.031765	0.064698	0.825285	0.106937	-0.553641	0.030834	21.356020	-66.987278	-9.944833
43145		13.109862	2.958980	5.377830	-0.313776	0.850241	4.634580	0.105201	0.204512	-0.261438	-0.731689	-0.230469	-0.745361	0.131192	0.029390	0.053660	0.825814	0.108006	-0.552680	0.030164	21.631122	-66.829525	-10.183504
43146		11.999121	1.734695	4.080641	0.691147	0.007290	2.960779	-0.152907	0.586972	0.084608	-0.725342	-0.223633	-0.754150	0.120103	0.017429	0.040441	0.827478	0.106998	-0.550370	0.030413	21.144418	-66.541188	-9.754028
43147		9.681364	0.422327	4.082255	0.088090	-1.072131	0.647407	-0.226418	1.068477	0.302900	-0.716309	-0.220947	-0.765381	0.097023	0.004416	0.040300	0.830460	0.105005	-0.546178	0.031621	20.142007	-66.035662	-8.806418
43148		7.994628	-0.324922	4.385112	-0.642615	-1.705433	-0.872522	-0.118608	1.027176	0.394071	-0.707520	-0.218506	-0.778564	0.080176	-0.003066	0.043442	0.833228	0.103217	-0.542178	0.033478	19.150547	-65.564355	-7.799091
43149		7.180862	-0.925993	4.361019	-0.785280	-2.194939	-1.688285	-0.058790	0.695299	0.434650	-0.707764	-0.214111	-0.782959	0.071980	-0.009091	0.043363	0.835044	0.101618	-0.539551	0.035494	18.309733	-65.273063	-6.917233
43150		7.130543	-1.698172	4.156696	-0.458177	-2.865825	-1.901712	-0.007242	0.265986	0.436504	-0.707764	-0.214111	-0.780762	0.071397	-0.016824	0.041473	0.835660	0.100308	-0.538710	0.037439	17.677343	-65.212368	-6.230568
43151		7.958811	-1.686092	4.100921	-0.059756	-2.848195	-1.158945	0.071198	-0.059671	0.414162	-0.710205	-0.209717	-0.778564	0.079611	-0.016711	0.041027	0.835365	0.099442	-0.539193	0.039339	17.236641	-65.322159	-5.706045
43152		8.610153	-1.082667	4.002351	0.184733	-2.237037	-0.523598	0.103507	-0.091964	0.374953	-0.710449	-0.205078	-0.785156	0.086103	-0.010686	0.040058	0.834965	0.098827	-0.539790	0.041145	16.870794	-65.442488	-5.243540
43153		8.750696	-0.531844	3.980580	0.152282	-1.677487	-0.332953	0.146339	-0.127472	0.281271	-0.712891	-0.203125	-0.782959	0.087489	-0.005225	0.039858	0.834470	0.098645	-0.540471	0.042660	16.649301	-65.564859	-4.913681
43154		9.262084	-0.010584	3.852825	0.363410	-1.148262	0.146226	0.171231	-0.245270	0.169714	-0.719727	-0.201172	-0.774170	0.092574	-0.000060	0.038642	0.833660	0.098899	-0.541589	0.043717	16.619607	-65.734273	-4.778543
43155		9.950298	0.565634	3.537236	0.799245	-0.538777	0.718756	0.163624	-0.187763	0.100405	-0.714844	-0.209717	-0.774170	0.099467	0.005677	0.035470	0.833028	0.099289	-0.542426	0.044494	16.645981	-65.859800	-4.710524
43156		10.218278	1.222771	3.542331	0.773882	0.097185	1.043101	0.143709	0.056003	0.111890	-0.718994	-0.214355	-0.774170	0.102186	0.012259	0.035403	0.833058	0.099518	-0.542264	0.045384	16.559906	-65.854297	-4.531102
43157		9.779560	1.816129	3.906598	0.174659	0.627290	0.853874	0.060646	0.322781	0.179200	-0.712646	-0.209717	-0.780762	0.097842	0.018237	0.038914	0.833841	0.099153	-0.541035	0.046467	16.246472	-65.711870	-4.154583
43158		8.782497	1.833965	3.894027	-0.192797	0.703968	-0.059423	-0.076836	0.486526	0.219126	-0.710449	-0.205322	-0.776367	0.087899	0.018451	0.038719	0.835116	0.098073	-0.539179	0.047420	15.756046	-65.485417	-3.669542
43159		8.197808	1.620123	3.312407	0.164237	0.668654	-0.850178	-0.179550	0.532365	0.220235	-0.710449	-0.207275	-0.787354	0.082048	0.016321	0.032891	0.836563	0.096545	-0.537145	0.048127	15.197513	-65.231058	-3.173671
43160		7.854832	1.233596	2.742390	0.641370	0.454782	-1.438776	-0.288841	0.569486	0.208626	-0.708740	-0.196289	-0.785156	0.078613	0.012457	0.027182	0.838152	0.094585	-0.534979	0.048505	14.591506	-64.953294	-2.693151
43161		7.752104	0.643310	2.056764	1.357189	0.057711	-1.882133	-0.386489	0.592959	0.185671	-0.697510	-0.195801	-0.793945	0.077575	0.006545	0.020325	0.839850	0.092266	-0.532713	0.048541	13.959768	-64.656176	-2.245142
43162		7.833207	0.034539	1.733202	1.830756	-0.440814	-2.014092	-0.430669	0.616724	0.168442	-0.697998	-0.189209	-0.793945	0.078385	0.000448	0.017089	0.841618	0.089805	-0.530350	0.048393	13.330369	-64.342333	-1.826392
43163		8.048989	-0.350706	1.451928	2.284239	-0.734539	-1.985824	-0.359641	0.628329	0.161868	-0.684570	-0.188721	-0.809570	0.080538	-0.003416	0.014273	0.843380	0.087652	-0.527904	0.048414	12.756509	-64.018438	-1.423251
43164		8.043930	-0.553538	1.267585	2.524781	-0.868262	-2.099755	-0.215480	0.663227	0.188811	-0.682373	-0.186279	-0.809570	0.080486	-0.005446	0.012415	0.845149	0.086030	-0.525287	0.048940	12.239126	-63.677561	-0.989626
43165		7.713251	-0.555776	1.668844	2.074747	-0.917575	-2.233681	-0.045554	0.741077	0.233454	-0.676270	-0.177246	-0.813965	0.077200	-0.005464	0.016404	0.847031	0.084985	-0.522305	0.050138	11.760663	-63.295910	-0.489489
43166		7.282076	-0.788484	2.359992	1.367597	-1.249798	-2.343599	0.044858	0.736080	0.277398	-0.671387	-0.181641	-0.816162	0.072918	-0.007789	0.023330	0.848833	0.084212	-0.519339	0.051751	11.301691	-62.921102	0.048692
43167		6.884325	-1.446769	2.833703	0.937285	-1.959335	-2.546382	0.105639	0.638819	0.319709	-0.664795	-0.179199	-0.818359	0.068956	-0.014372	0.028109	0.850337	0.083606	-0.516776	0.053664	10.863075	-62.603083	0.604499
43168		6.593250	-2.151292	3.111290	0.728685	-2.679885	-2.736941	0.166786	0.488514	0.334511	-0.665039	-0.174561	-0.822754	0.066044	-0.021428	0.030934	0.851411	0.083266	-0.514840	0.055731	10.486123	-62.370131	1.131982
43169		6.585769	-2.512172	2.881099	1.022289	-2.964863	-2.873775	0.239373	0.303489	0.338914	-0.662598	-0.181152	-0.827148	0.065944	-0.025044	0.028681	0.851973	0.083269	-0.513665	0.057931	10.186451	-62.239863	1.619754
43170		6.825132	-2.768221	2.570362	1.472477	-3.129652	-2.820602	0.275591	0.159751	0.326602	-0.662842	-0.176758	-0.827148	0.068317	-0.027606	0.025611	0.852147	0.083505	-0.513088	0.060105	9.952883	-62.189027	2.056947
43171		6.862099	-2.840270	2.022896	1.991905	-3.070689	-3.041366	0.353399	0.045605	0.271870	-0.660400	-0.181152	-0.824951	0.068664	-0.028345	0.020163	0.852011	0.084241	-0.512944	0.062206	9.842163	-62.196004	2.405576
43172		6.842710	-2.312412	2.229900	1.712455	-2.587320	-2.919528	0.429763	-0.020783	0.196274	-0.660400	-0.181152	-0.824951	0.068447	-0.023105	0.022256	0.851688	0.085522	-0.513030	0.064145	9.870516	-62.233539	2.646558
43173		6.582064	-1.439923	2.607003	1.095828	-1.818996	-2.907340	0.420717	-0.139182	0.103945	-0.655273	-0.192139	-0.818359	0.065810	-0.014420	0.026086	0.851093	0.087032	-0.513576	0.065624	10.012089	-62.328391	2.753479
43174		6.384537	0.079273	3.195049	0.178989	-0.477826	-2.691134	0.461784	-0.321343	0.020131	-0.666504	-0.192627	-0.811768	0.063794	0.000725	0.032055	0.850031	0.088999	-0.514848	0.066765	10.305642	-62.518226	2.715509
43175		6.700453	1.069383	6.055068	-2.381394	-0.158558	-1.037321	0.313135	-0.553660	-0.049320	-0.670898	-0.190430	-0.802979	0.066839	0.010582	0.060752	0.848456	0.090584	-0.517117	0.067135	10.636427	-62.831147	2.540133
43176		6.310895	1.246370	9.848737	-5.956318	-0.877312	0.293229	0.172945	-1.129007	-0.144562	-0.688232	-0.202148	-0.798340	0.062561	0.012333	0.098852	0.845467	0.092017	-0.521824	0.066465	11.125796	-63.457375	2.097428
43177		7.627804	3.307348	12.114282	-7.953426	0.583996	2.527147	0.191878	-2.186498	-0.136211	-0.703857	-0.205078	-0.776367	0.074970	0.032905	0.121999	0.839645	0.093848	-0.530953	0.065400	11.892660	-64.675538	1.362086
43178		14.113115	8.265127	8.531686	-3.457489	6.206023	7.210518	0.266503	-3.050978	0.212855	-0.729004	-0.194824	-0.760742	0.139719	0.082685	0.087566	0.831226	0.095335	-0.543761	0.065569	12.586297	-66.416458	0.762770
43179		19.952225	9.784060	5.113771	1.117075	8.526645	11.306012	-0.779435	-2.170918	0.977226	-0.747070	-0.188721	-0.745361	0.198472	0.099016	0.052912	0.825285	0.090088	-0.553506	0.066488	11.441647	-67.755885	1.515982
43180		13.904447	4.528292	1.051986	3.406416	4.407987	3.748584	-0.566929	0.843001	1.024189	-0.727783	-0.174805	-0.758545	0.138852	0.046023	0.009805	0.827484	0.084579	-0.550711	0.069530	9.492625	-67.394077	3.267944
43181		7.278802	4.715121	5.479326	-3.041462	3.617010	-0.707714	0.045510	2.064595	0.735657	-0.716797	-0.167725	-0.774170	0.073174	0.047408	0.054050	0.832821	0.081965	-0.542473	0.073582	8.106669	-66.295028	4.798912
43182		5.147897	2.767467	6.675475	-4.449732	1.464785	-2.277746	-0.429174	0.793787	0.609735	-0.719727	-0.154541	-0.774170	0.051658	0.027975	0.066490	0.834886	0.078179	-0.539616	0.075288	6.931702	-65.896235	5.810011
43183		6.561411	-0.225433	6.490403	-3.094750	-1.293353	-1.211685	-0.559588	-0.673106	0.560586	-0.724121	-0.154541	-0.765381	0.065401	-0.001889	0.065130	0.833044	0.074526	-0.542889	0.075867	5.972950	-66.320787	6.502673
43184		10.066109	-1.678441	6.846532	-1.854114	-2.572914	2.059857	-0.564917	-1.567165	0.494330	-0.742676	-0.144043	-0.754150	0.100161	-0.016341	0.069298	0.828753	0.071370	-0.549843	0.075814	5.181361	-67.248256	7.006691
43185		13.191203	-2.530943	6.345033	-0.270410	-3.110384	4.710360	-0.576671	-1.708667	0.483572	-0.760986	-0.133545	-0.749756	0.131424	-0.024806	0.064647	0.824016	0.068244	-0.557333	0.075634	4.358970	-68.252441	7.533742
43186		14.331660	-2.983259	4.817655	1.406569	-3.148688	5.207665	-0.336162	-0.960214	0.452675	-0.765625	-0.131592	-0.734375	0.143150	-0.029427	0.048914	0.821242	0.065907	-0.561609	0.076241	3.589743	-68.825415	8.148275
43187		12.655948	-2.818125	4.681423	0.818064	-2.994947	3.618299	0.140861	0.048882	0.440576	-0.761230	-0.131348	-0.745361	0.126633	-0.027935	0.046764	0.821136	0.065175	-0.561542	0.078477	2.997939	-68.817449	8.864856
43188		10.741298	-1.450265	5.364050	-0.730958	-1.851545	2.115800	0.571499	0.513266	0.477259	-0.756836	-0.129150	-0.749756	0.107585	-0.014399	0.053323	0.822166	0.065927	-0.559408	0.082215	2.573089	-68.543062	9.667382
43189		10.567203	0.249178	5.397403	-1.120303	-0.173170	2.001474	0.567162	0.520253	0.467863	-0.754395	-0.131104	-0.754150	0.105806	0.002587	0.053706	0.823211	0.066681	-0.557223	0.085911	2.172712	-68.260969	10.442965
43190		11.193907	1.197603	5.000280	-0.687760	0.911865	2.452540	0.399451	0.490909	0.415373	-0.754150	-0.135742	-0.751953	0.112036	0.012109	0.049752	0.824232	0.066905	-0.555213	0.088904	1.769231	-67.994045	11.119313
43191		11.272826	1.802785	4.890197	-0.636768	1.571315	2.490386	0.255528	0.667745	0.331618	-0.750000	-0.131104	-0.758545	0.112861	0.018153	0.048548	0.825823	0.066689	-0.552493	0.091220	1.407072	-67.621516	11.664283
43192		10.421290	2.328900	4.744353	-0.864715	2.091436	1.650878	0.088270	0.860291	0.237345	-0.743164	-0.133057	-0.767578	0.104388	0.023392	0.047005	0.828024	0.065953	-0.549023	0.092737	1.090052	-67.137626	12.057433
43193		8.893645	2.540464	4.461278	-1.153246	2.274137	0.134747	-0.023002	0.949244	0.187708	-0.738770	-0.132813	-0.771973	0.089123	0.025493	0.044187	0.830517	0.064851	-0.545198	0.093781	0.787896	-66.600198	12.367339
43194		7.764882	2.487455	4.397880	-1.447371	2.173521	-0.924343	-0.008315	0.808101	0.147143	-0.727783	-0.127930	-0.780762	0.077807	0.024934	0.043664	0.832618	0.063984	-0.541938	0.094638	0.562803	-66.144113	12.602711
43195		7.282601	2.427981	3.950464	-1.174909	2.189143	-1.544396	0.029594	0.509538	0.111803	-0.727783	-0.127930	-0.782959	0.072913	0.024315	0.039323	0.833910	0.063514	-0.539876	0.095364	0.414731	-65.857250	12.779102
43196		7.159972	2.284500	3.674490	-0.919575	2.108134	-1.769296	0.044841	0.245075	0.062527	-0.723145	-0.134521	-0.785156	0.071638	0.022859	0.036662	0.834498	0.063364	-0.538901	0.095832	0.343744	-65.722945	12.879966
43197		7.107477	1.945977	3.471573	-0.674426	1.820711	-1.901617	0.037483	0.040093	0.021622	-0.727783	-0.130127	-0.787354	0.071080	0.019461	0.034705	0.834561	0.063396	-0.538761	0.096053	0.322538	-65.704520	12.922729
43198		7.127838	1.561444	3.238531	-0.375266	1.496858	-1.980008	0.011500	-0.101066	-0.003129	-0.725586	-0.127930	-0.782959	0.071262	0.015611	0.032422	0.834258	0.063450	-0.539225	0.096047	0.318901	-65.768284	12.928806
43199		7.236842	1.308228	2.976938	-0.051529	1.312861	-1.988416	-0.050882	-0.153477	-0.035242	-0.730225	-0.123535	-0.782959	0.072348	0.013077	0.029822	0.833853	0.063357	-0.539917	0.095730	0.320640	-65.860636	12.890635
43200		7.234588	1.071570	2.724857	0.216050	1.131525	-2.093533	-0.127646	-0.114454	-0.088929	-0.729980	-0.130371	-0.776367	0.072335	0.010701	0.027283	0.833598	0.063069	-0.540476	0.094987	0.347246	-65.931785	12.776232
43201		7.214548	0.913376	2.479733	0.455823	1.021057	-2.211194	-0.185423	-0.104971	-0.157032	-0.730225	-0.123535	-0.785156	0.072140	0.009100	0.024827	0.833422	0.062721	-0.540992	0.093814	0.428336	-65.996061	12.566712
43202		7.327361	0.757144	2.469926	0.540924	0.871497	-2.111265	-0.207204	-0.074141	-0.225918	-0.730225	-0.125732	-0.785156	0.073273	0.007514	0.024719	0.833363	0.062452	-0.541375	0.092297	0.586435	-66.043276	12.258615
43203		7.502967	0.600025	2.511622	0.607592	0.711815	-1.933162	-0.190574	-0.051785	-0.269800	-0.730225	-0.123535	-0.782959	0.075031	0.005923	0.025130	0.833383	0.062361	-0.541632	0.090654	0.810751	-66.075559	11.888996
43204		7.612743	0.728880	2.501968	0.633786	0.833260	-1.834659	-0.161795	-0.005179	-0.278976	-0.728027	-0.125732	-0.782959	0.076137	0.007203	0.025016	0.833516	0.062393	-0.541688	0.089060	1.063508	-66.081830	11.505949
43205		7.819969	0.986688	2.350836	0.803523	1.118078	-1.703673	-0.158920	0.092801	-0.243884	-0.723633	-0.123291	-0.778564	0.078223	0.009790	0.023464	0.833902	0.062298	-0.541335	0.087655	1.269274	-66.030442	11.176413
43206		7.888719	1.268815	2.287813	0.844147	1.402918	-1.664371	-0.197034	0.226323	-0.192858	-0.725830	-0.125732	-0.785156	0.078925	0.012635	0.022776	0.834630	0.061848	-0.540465	0.086397	1.382591	-65.904194	10.923604
43207		7.781858	1.498700	2.233919	0.826885	1.628096	-1.784033	-0.208586	0.324586	-0.132439	-0.728027	-0.125732	-0.791748	0.077865	0.014959	0.022197	0.835605	0.061143	-0.539198	0.085393	1.406780	-65.721154	10.761260
43208		7.592602	1.694850	2.212163	0.757506	1.812938	-1.967105	-0.178522	0.331298	-0.071799	-0.721436	-0.121094	-0.789551	0.075969	0.016941	0.021981	0.836553	0.060397	-0.537916	0.084722	1.370494	-65.536347	10.683660
43209		7.418772	1.962519	2.177731	0.686255	2.074397	-2.140787	-0.137115	0.253094	-0.011311	-0.719238	-0.121094	-0.787354	0.074216	0.019636	0.021670	0.837256	0.059695	-0.536951	0.084394	1.283954	-65.396022	10.687568
43210		7.453514	2.088641	2.078708	0.777123	2.226805	-2.152679	-0.109619	0.120233	0.033704	-0.719482	-0.116455	-0.796143	0.074544	0.020910	0.020731	0.837568	0.059043	-0.536553	0.084286	1.161296	-65.333501	10.748257
43211		7.537949	2.094978	1.983608	0.899922	2.265458	-2.118395	-0.125338	0.015362	0.059455	-0.719238	-0.118652	-0.793945	0.075375	0.020985	0.019817	0.837598	0.058300	-0.536599	0.084214	1.000177	-65.330221	10.841475
43212		7.528710	1.994167	1.919025	0.972663	2.187197	-2.156910	-0.181837	-0.044134	0.082227	-0.723877	-0.116699	-0.796387	0.075275	0.019990	0.019189	0.837469	0.057285	-0.536933	0.084067	0.779600	-65.362150	10.964384
43213		7.520233	1.937646	2.057215	0.855308	2.116662	-2.110175	-0.260827	-0.027560	0.084465	-0.726318	-0.112305	-0.789551	0.075191	0.019435	0.020557	0.837409	0.055927	-0.537223	0.083723	0.510538	-65.383371	11.091084
43214		7.613440	1.915842	2.416226	0.579073	2.050354	-1.879606	-0.304862	0.027282	0.071277	-0.722168	-0.107666	-0.789551	0.076131	0.019222	0.024123	0.837509	0.054396	-0.537304	0.083219	0.231792	-65.373876	11.200412
43215		7.721465	2.108997	3.066010	0.012642	2.146499	-1.514395	-0.288064	0.099557	0.055963	-0.713379	-0.105225	-0.791748	0.077224	0.021156	0.030591	0.837805	0.052946	-0.537064	0.082716	-0.017903	-65.322066	11.288549
43216		7.884063	2.169589	3.552414	-0.356002	2.149137	-1.167478	-0.291325	0.103641	0.035092	-0.718018	-0.098633	-0.791748	0.078855	0.021761	0.035452	0.838116	0.051537	-0.536808	0.082118	-0.243046	-65.268469	11.347484
43217		8.425422	2.034864	3.734670	-0.264815	2.044034	-0.602478	-0.272985	-0.017115	0.010164	-0.722656	-0.096680	-0.798584	0.084250	0.020404	0.037326	0.838111	0.050321	-0.537035	0.081431	-0.426759	-65.283121	11.372288
43218		9.338131	1.804135	3.580533	0.281095	1.926785	0.161492	-0.197563	-0.212264	-0.017739	-0.722900	-0.092285	-0.791748	0.093345	0.018068	0.035887	0.837569	0.049575	-0.538048	0.080782	-0.534951	-65.410623	11.361627
43219		10.467325	1.478499	2.918517	1.365133	1.809502	0.917204	-0.140058	-0.387797	-0.053100	-0.718506	-0.092041	-0.789551	0.104620	0.014778	0.029378	0.836555	0.049234	-0.539756	0.080093	-0.567894	-65.638064	11.304099
43220		11.284304	0.983214	1.935805	2.621941	1.544190	1.268388	-0.138464	-0.491990	-0.065292	-0.720947	-0.085449	-0.791748	0.112798	0.009809	0.019629	0.835256	0.048975	-0.541899	0.079334	-0.585518	-65.926111	11.231296
43221		11.715784	0.666099	1.895969	2.829550	1.261042	1.663418	-0.185766	-0.594887	-0.029820	-0.732178	-0.088135	-0.782959	0.117102	0.006661	0.019302	0.833674	0.048459	-0.544488	0.078564	-0.677174	-66.271876	11.209189
43222		11.715520	-0.249717	3.130798	1.801208	0.144155	2.181130	-0.180919	-0.844399	0.008794	-0.738770	-0.088379	-0.767578	0.117022	-0.002463	0.031804	0.831379	0.047960	-0.548123	0.077912	-0.822560	-66.761354	11.249575
43223		12.382563	-2.051303	4.505378	1.019373	-1.824664	3.357875	0.047573	-1.151404	-0.031691	-0.747803	-0.084229	-0.758789	0.123560	-0.020543	0.045761	0.828183	0.048638	-0.552918	0.077638	-0.789924	-67.426549	11.238154
43224		13.499352	-2.761804	5.363537	0.650154	-2.637956	4.721553	0.638016	-1.075814	-0.150139	-0.754395	-0.088867	-0.751953	0.134682	-0.027892	0.054272	0.825067	0.052060	-0.557125	0.078525	-0.243981	-68.049496	11.038181
43225		13.755304	-2.549310	5.448291	0.539242	-2.515271	4.978284	0.959503	-0.550740	-0.288871	-0.755859	-0.102295	-0.747559	0.137365	-0.025954	0.054738	0.823355	0.056980	-0.558982	0.079866	0.706035	-68.369920	10.601209
43226		13.078666	-2.539051	5.332972	0.396372	-2.635836	4.288124	1.178559	-0.015070	-0.428355	-0.746582	-0.108887	-0.738770	0.130727	-0.025984	0.053188	0.823103	0.062982	-0.558488	0.081398	1.984656	-68.378740	9.947129
43227		12.404912	-2.153923	5.482849	0.005124	-2.448660	3.699707	1.292935	0.334493	-0.584239	-0.747559	-0.133301	-0.749756	0.124076	-0.022255	0.054479	0.823820	0.069739	-0.556431	0.082712	3.525318	-68.176723	9.080413
43228		11.546767	-0.920021	3.494003	1.317878	-0.997462	2.172676	1.239018	0.477522	-0.701233	-0.742188	-0.150879	-0.751953	0.115517	-0.009820	0.034605	0.824955	0.076542	-0.553740	0.083442	5.161783	-67.879648	8.076242
43229		10.260929	0.028004	2.338790	1.759244	0.020222	0.563285	0.981597	0.712708	-0.715079	-0.737549	-0.155029	-0.754150	0.102692	-0.000201	0.023022	0.826807	0.082221	-0.550146	0.083487	6.600074	-67.436852	7.124403
43230		8.535848	0.046620	3.555775	0.103269	-0.389898	-0.574584	0.790555	0.897870	-0.656112	-0.723389	-0.170166	-0.754150	0.085518	0.000046	0.035175	0.829178	0.086866	-0.545871	0.083324	7.771937	-66.885793	6.339269
43231		6.941905	0.722401	6.206999	-2.956965	-0.492037	-0.966659	0.695474	0.545426	-0.575659	-0.723145	-0.176758	-0.763184	0.069608	0.006808	0.061904	0.830569	0.091039	-0.543107	0.083077	8.810372	-66.534764	5.637249
43232		6.160223	0.972270	8.154779	-5.022978	-0.826216	-0.897499	0.597188	-0.182013	-0.500212	-0.725098	-0.181396	-0.756348	0.061552	0.009325	0.081632	0.829977	0.094900	-0.543432	0.082544	9.830922	-66.597773	4.892775
43233		6.417441	0.666319	8.522593	-5.205862	-1.290334	-0.566339	0.503951	-0.875417	-0.532853	-0.729004	-0.194824	-0.747559	0.063818	0.006278	0.085522	0.827543	0.098745	-0.546639	0.081291	11.019557	-67.041630	3.908413
43234		7.783901	0.024069	8.247911	-4.355806	-1.907850	0.483067	0.456178	-1.195215	-0.689102	-0.735107	-0.204102	-0.736572	0.077344	-0.000215	0.082942	0.824282	0.102947	-0.551094	0.079100	12.528771	-67.638169	2.551140
43235		10.051926	-0.351606	7.609180	-2.929623	-2.201028	2.255218	0.432191	-1.060034	-0.962169	-0.748291	-0.208984	-0.732178	0.100095	-0.004163	0.076615	0.821474	0.107745	-0.554823	0.075784	14.430642	-68.106132	0.760531
43236		13.028459	0.352168	6.705370	-1.248696	-1.443174	4.719398	0.403385	-0.562430	-1.175324	-0.745361	-0.224365	-0.732178	0.130112	0.002621	0.067426	0.820095	0.112821	-0.556384	0.071776	16.485059	-68.244128	-1.208555
43237		15.112085	1.892454	6.178799	-0.363367	-0.015039	6.618958	0.219458	0.141767	-1.104986	-0.740723	-0.228760	-0.732178	0.151266	0.018021	0.061701	0.820729	0.116688	-0.555133	0.067939	18.043468	-67.984484	-2.757797
43238		14.612734	1.828311	6.011199	-0.274001	-0.141904	6.090507	-0.068132	0.807878	-0.745367	-0.726807	-0.237061	-0.738770	0.146435	0.017758	0.059515	0.823226	0.118148	-0.551447	0.065166	18.626904	-67.417756	-3.435638
43239		12.109368	0.823571	6.162107	-0.988478	-1.132230	3.716029	-0.059858	0.901457	-0.366351	-0.722168	-0.239014	-0.745361	0.121385	0.008032	0.061072	0.825838	0.118561	-0.547573	0.064028	18.660788	-66.866907	-3.515189
43240		11.083140	0.302872	5.838548	-0.880366	-1.529339	2.593037	0.134627	0.569389	-0.106426	-0.715820	-0.234375	-0.747559	0.110999	0.002931	0.058072	0.827322	0.119172	-0.545163	0.064299	18.619359	-66.545314	-3.391206
43241		10.463472	0.642453	5.884417	-1.171261	-1.195161	2.092040	0.243412	0.697394	0.056812	-0.708984	-0.236328	-0.754150	0.104837	0.006383	0.058487	0.829035	0.119743	-0.542270	0.065616	18.386688	-66.182410	-2.990666
43242		9.560451	-0.009028	5.714386	-1.145082	-1.738474	1.129078	0.166705	0.854753	0.149326	-0.713623	-0.232178	-0.762939	0.095848	-0.000066	0.056735	0.831171	0.119695	-0.538806	0.067204	17.946979	-65.750754	-2.409773
43243		8.768179	-1.039884	5.050516	-0.556916	-2.507568	0.029642	0.123754	0.766825	0.216233	-0.704346	-0.238525	-0.769775	0.087886	-0.010335	0.050162	0.833065	0.119309	-0.535743	0.068897	17.452007	-65.375554	-1.794316
43244		8.096666	-1.598683	4.540823	-0.187847	-2.866728	-0.841788	0.105691	0.692468	0.240972	-0.702148	-0.236084	-0.771973	0.081142	-0.015913	0.045119	0.834743	0.118812	-0.533013	0.070602	16.962313	-65.044351	-1.193378
43245		7.833902	-1.846343	4.208105	0.107178	-2.982109	-1.234669	0.079028	0.588158	0.240692	-0.697754	-0.238281	-0.774170	0.078484	-0.018386	0.041843	0.836156	0.118235	-0.530711	0.072171	16.506393	-64.766999	-0.645722
43246		7.707551	-1.891574	3.515624	0.710453	-2.809359	-1.630597	0.115327	0.466078	0.211752	-0.693359	-0.235840	-0.776367	0.077177	-0.018854	0.034966	0.837220	0.117935	-0.528895	0.073644	16.157409	-64.551759	-0.191657
43247		7.833596	-1.509957	3.133690	1.036024	-2.318488	-1.626334	0.223765	0.362266	0.164302	-0.695313	-0.242432	-0.782959	0.078405	-0.015070	0.031178	0.837965	0.118247	-0.527433	0.075145	15.963870	-64.384051	0.159342
43248		8.413395	-0.879900	3.026775	1.245606	-1.671039	-1.073301	0.267910	0.195890	0.129216	-0.688721	-0.239990	-0.785156	0.084169	-0.008785	0.030174	0.838248	0.118903	-0.526638	0.076515	15.894374	-64.303335	0.401532
43249		8.716302	-0.144117	3.008392	1.219304	-0.950882	-0.721251	0.251056	0.109653	0.125318	-0.686523	-0.239990	-0.787354	0.087180	-0.001424	0.030034	0.838320	0.119528	-0.526198	0.077775	15.846868	-64.268221	0.608460
43250		8.427867	0.378903	3.115577	0.873884	-0.473908	-0.874507	0.231987	0.092027	0.138939	-0.695313	-0.242432	-0.785156	0.084290	0.003811	0.031121	0.838343	0.120047	-0.525855	0.079029	15.780485	-64.246069	0.824518
43251		8.511840	0.949528	3.354164	0.554548	0.010790	-0.631414	0.226849	-0.057336	0.140129	-0.695313	-0.240234	-0.789551	0.085102	0.009517	0.033577	0.837981	0.120595	-0.526131	0.080187	15.756160	-64.305240	0.990164
43252		8.621879	1.421936	3.369620	0.451070	0.463970	-0.469547	0.148135	-0.142450	0.167716	-0.690918	-0.240234	-0.782959	0.086183	0.014267	0.033768	0.837424	0.120780	-0.526820	0.081200	15.683673	-64.416722	1.159513
43253		8.534199	1.783343	3.358918	0.313068	0.824097	-0.511181	0.024804	-0.019066	0.224055	-0.697510	-0.240234	-0.782959	0.085319	0.017925	0.033600	0.837248	0.120244	-0.527068	0.082199	15.432808	-64.467442	1.447566
43254		8.209142	1.771096	3.287646	0.240668	0.854275	-0.837856	-0.150998	0.270234	0.249158	-0.700195	-0.231445	-0.787354	0.082114	0.017838	0.032752	0.837922	0.118792	-0.526198	0.083013	14.962934	-64.362303	1.867404
43255		7.563484	1.365755	2.532098	0.745691	0.708950	-1.786219	-0.291103	0.548136	0.248679	-0.688965	-0.235596	-0.791748	0.075687	0.013788	0.025094	0.839409	0.116633	-0.524210	0.083621	14.333434	-64.100280	2.375402
43256		7.250253	0.807099	1.669686	1.538904	0.449606	-2.502780	-0.258694	0.739744	0.223248	-0.684814	-0.226563	-0.796143	0.072555	0.008173	0.016418	0.841373	0.114600	-0.521391	0.084317	13.710979	-63.726849	2.898204
43257		7.178771	0.600292	1.068112	2.126611	0.453498	-2.862329	-0.129964	0.855264	0.208364	-0.680176	-0.230713	-0.800537	0.071826	0.006085	0.010370	0.843561	0.113093	-0.518005	0.085352	13.162667	-63.283685	3.421999
43258		6.953124	0.292352	1.085033	2.143440	0.180123	-3.105857	-0.046219	0.894709	0.204570	-0.671631	-0.223877	-0.807373	0.069576	0.002997	0.010538	0.845784	0.111934	-0.514412	0.086608	12.675028	-62.816962	3.934073
43259		6.793364	-0.097600	1.423772	1.934045	-0.262519	-3.151101	0.000851	0.791866	0.213146	-0.658203	-0.223389	-0.818359	0.067990	-0.000904	0.013969	0.847700	0.110990	-0.511223	0.087964	12.244170	-62.406090	4.414346
43260		6.564700	-0.790279	1.665104	1.847621	-0.974917	-3.322075	0.038292	0.640859	0.218500	-0.658203	-0.223389	-0.813965	0.065708	-0.007834	0.016439	0.849191	0.110261	-0.508659	0.089351	11.876697	-62.079847	4.849096
43261		6.453952	-1.109478	1.850168	1.756889	-1.313024	-3.370890	0.158251	0.475845	0.243081	-0.662842	-0.221191	-0.822754	0.064597	-0.011031	0.018339	0.850181	0.110046	-0.506745	0.091057	11.594866	-61.846966	5.265439
43262		6.521833	-1.232396	1.973808	1.742411	-1.441788	-3.267902	0.252390	0.332467	0.259590	-0.657959	-0.225586	-0.818359	0.065267	-0.012264	0.019614	0.850739	0.110259	-0.505409	0.092991	11.386277	-61.696572	5.660993
43263		6.622722	-1.497305	2.119269	1.758906	-1.712980	-3.136943	0.283782	0.248496	0.274499	-0.649170	-0.225342	-0.820557	0.066274	-0.014912	0.021089	0.851059	0.110601	-0.504417	0.095024	11.199029	-61.593695	6.052947
43264		6.805649	-1.872688	2.135994	1.949014	-2.050338	-3.002128	0.326927	0.134394	0.281080	-0.653809	-0.223145	-0.813965	0.068097	-0.018666	0.021284	0.851057	0.111169	-0.503895	0.097127	11.055917	-61.555849	6.423343
43265		7.143040	-2.059133	2.167499	2.143518	-2.204411	-2.705861	0.364412	0.021558	0.259604	-0.651367	-0.227539	-0.820557	0.071459	-0.020538	0.021630	0.850758	0.112000	-0.503816	0.099174	10.978126	-61.578124	6.743716
43266		7.436961	-2.151893	1.890473	2.541444	-2.185252	-2.582289	0.406775	-0.132313	0.214561	-0.658203	-0.223389	-0.805176	0.074380	-0.021478	0.018910	0.850063	0.113205	-0.504348	0.101045	11.003408	-61.682600	6.974534
43267		7.633911	-1.913754	1.677403	2.732847	-1.880694	-2.481437	0.481178	-0.362642	0.152968	-0.653320	-0.229980	-0.811768	0.076323	-0.019120	0.016866	0.848772	0.114992	-0.505779	0.102717	11.180353	-61.909509	7.081042
43268		7.884731	-1.227133	2.251219	2.139634	-1.393134	-1.924482	0.447518	-0.647488	0.089835	-0.664063	-0.237061	-0.793945	0.078779	-0.012287	0.022740	0.846799	0.116945	-0.508397	0.103864	11.467897	-62.290016	7.040510
43269		8.176176	-0.174341	3.170106	1.137263	-0.677730	-1.142241	0.360917	-0.875710	0.041907	-0.668701	-0.234863	-0.789551	0.081622	-0.001784	0.032055	0.844307	0.118766	-0.511984	0.104461	11.811184	-62.792557	6.881428
43270		8.570849	1.258142	4.508963	-0.317970	0.254849	-0.055324	0.349467	-1.034017	-0.004784	-0.681885	-0.239746	-0.780762	0.085474	0.012500	0.045554	0.841417	0.120742	-0.516209	0.104727	12.248693	-63.378105	6.610074
43271		8.980203	2.322092	8.556903	-3.987677	-0.026855	2.160298	0.169711	-1.246513	-0.051827	-0.684082	-0.242188	-0.771973	0.089272	0.023125	0.086146	0.838083	0.122186	-0.521372	0.104207	12.703902	-64.075521	6.205704
43272		10.015512	3.457400	11.844952	-6.876036	0.005906	4.514883	-0.082977	-1.992848	-0.043515	-0.715576	-0.236572	-0.758545	0.098976	0.034602	0.119425	0.832893	0.122934	-0.529765	0.102592	13.236655	-65.189363	5.558328
43273		13.727730	5.514138	9.232807	-4.052439	2.851507	6.906513	-0.184998	-2.665571	0.133520	-0.729248	-0.230469	-0.732178	0.135994	0.055319	0.094095	0.825778	0.123112	-0.541043	0.101023	13.748420	-66.698794	4.876835
43274		16.656617	7.125240	6.979236	-1.781294	5.172649	8.814842	-0.578543	-1.553652	0.605807	-0.736572	-0.221924	-0.729980	0.165801	0.071959	0.070875	0.821566	0.119813	-0.548153	0.101004	13.093431	-67.651987	5.222723
43275		13.216193	5.099130	3.989161	-0.002684	4.146844	4.307663	-0.479400	0.310962	0.778615	-0.738770	-0.221924	-0.736572	0.132024	0.051601	0.039563	0.822277	0.115495	-0.547627	0.103084	11.652881	-67.580064	6.478216
43276		8.073443	4.935341	5.050610	-2.782426	3.561833	-0.085573	-0.160999	1.293746	0.611461	-0.725830	-0.210205	-0.749756	0.080907	0.049641	0.049943	0.825549	0.112438	-0.542781	0.105906	10.389520	-66.926032	7.742989
43277		6.445801	3.444907	6.629193	-4.277928	1.667567	-1.078859	-0.445423	0.740246	0.490730	-0.719482	-0.203369	-0.747559	0.064618	0.034755	0.065976	0.827515	0.108822	-0.540274	0.107147	9.306900	-66.561835	8.638509
43278		6.380444	0.989722	7.182474	-4.054378	-0.767539	-1.080563	-0.597192	-0.187297	0.455195	-0.729004	-0.192627	-0.745361	0.063714	0.010257	0.071854	0.827056	0.105171	-0.541664	0.107320	8.393110	-66.714483	9.256073
43279		7.987466	-0.677872	7.289696	-3.113359	-2.230127	0.322935	-0.602856	-0.972849	0.466400	-0.740723	-0.181885	-0.738770	0.079534	-0.006372	0.073304	0.824448	0.101881	-0.546290	0.107111	7.591734	-67.309246	9.746167
43280		10.519067	-1.466355	7.414246	-2.193129	-2.805100	2.640834	-0.575540	-1.348438	0.543723	-0.752197	-0.177979	-0.729980	0.104726	-0.014164	0.074891	0.820714	0.098692	-0.552467	0.107096	6.728539	-68.121032	10.317574
43281		13.031920	-1.707698	6.544139	-0.634400	-2.571050	4.628794	-0.465059	-1.218737	0.637201	-0.763916	-0.167236	-0.723389	0.129970	-0.016509	0.066273	0.817188	0.095618	-0.558062	0.107832	5.716502	-68.860467	11.113725
43282		13.785848	-2.285979	4.789495	1.201663	-2.524705	4.692314	-0.193393	-0.588808	0.617111	-0.768799	-0.156250	-0.720947	0.137786	-0.022388	0.048322	0.815268	0.093372	-0.560912	0.109537	4.751119	-69.234927	12.023782
43283		13.208600	-2.342175	5.386254	0.427975	-2.723126	4.377653	0.218973	0.049397	0.499428	-0.765869	-0.169434	-0.720947	0.132157	-0.023151	0.053804	0.815002	0.092778	-0.560866	0.112219	4.100103	-69.234121	12.848739
43284		12.152807	-1.172696	5.423579	-0.277604	-1.650109	3.441777	0.541105	0.457278	0.375626	-0.757080	-0.166992	-0.723145	0.121674	-0.011645	0.053926	0.815787	0.093622	-0.558919	0.115483	3.784463	-68.993679	13.513395
43285		11.502870	0.415054	5.159208	-0.662937	-0.080780	2.783306	0.491275	0.721481	0.219082	-0.750000	-0.173340	-0.729980	0.115209	0.004151	0.051187	0.817415	0.094547	-0.555830	0.118099	3.657441	-68.594160	13.947099
43286		10.951705	1.507939	5.127569	-1.069981	0.947621	2.289466	0.332764	0.813939	0.102039	-0.750488	-0.166748	-0.734375	0.109717	0.015050	0.050855	0.819422	0.095091	-0.552400	0.119830	3.611004	-68.138573	14.197119
43287		10.383118	2.276505	4.749372	-1.087581	1.762187	1.644161	0.111625	0.786182	0.044525	-0.748047	-0.168945	-0.745361	0.104012	0.022762	0.047098	0.821485	0.094903	-0.549169	0.120705	3.526840	-67.695256	14.352253
43288		9.325644	2.937743	4.544705	-1.416804	2.381379	0.607169	-0.065967	0.807348	0.038312	-0.736816	-0.170654	-0.749756	0.093433	0.029410	0.045060	0.823674	0.093989	-0.545957	0.121070	3.354288	-67.240939	14.493071
43289		8.089469	3.540702	4.463674	-1.920671	2.893428	-0.547747	-0.234099	0.692682	0.035346	-0.734863	-0.163818	-0.756348	0.081042	0.035473	0.044315	0.825626	0.092456	-0.543299	0.120912	3.103794	-66.850447	14.614499
43290		7.249835	3.745097	4.130725	-1.959554	3.129916	-1.445350	-0.312486	0.416929	-0.011925	-0.728271	-0.161377	-0.754150	0.072586	0.037511	0.041097	0.826879	0.090897	-0.541810	0.120213	2.896772	-66.617609	14.639855
43291		6.905630	3.846617	4.144860	-2.103992	3.209808	-1.754502	-0.345212	0.158755	-0.077188	-0.728516	-0.159180	-0.763184	0.069104	0.038511	0.041327	0.827488	0.089530	-0.541366	0.119040	2.774898	-66.529186	14.551917
43292		6.957237	3.541406	4.269027	-2.089947	2.905105	-1.666414	-0.484108	-0.095364	-0.118700	-0.728760	-0.152588	-0.760986	0.069573	0.035476	0.042638	0.827486	0.087855	-0.542044	0.117202	2.645396	-66.586601	14.385634
43293		7.274197	2.976075	4.059390	-1.624784	2.467173	-1.474660	-0.620671	-0.320784	-0.126024	-0.739990	-0.150635	-0.760986	0.072696	0.029841	0.040618	0.826937	0.085762	-0.543716	0.114864	2.460544	-66.771422	14.194246
43294		7.809945	2.659715	3.730781	-1.061321	2.316251	-1.123812	-0.713257	-0.463299	-0.109197	-0.744629	-0.150879	-0.760986	0.078027	0.026688	0.037394	0.826009	0.083325	-0.546039	0.112281	2.208818	-67.040127	14.018538
43295		8.296363	2.295736	3.331592	-0.451855	2.127926	-0.842334	-0.788819	-0.472983	-0.105782	-0.742920	-0.139648	-0.751953	0.082897	0.023045	0.033421	0.825075	0.080568	-0.548425	0.109500	1.908498	-67.313370	13.848877
43296		8.676913	1.651557	3.123494	0.019573	1.604450	-0.582413	-0.861350	-0.422288	-0.152224	-0.749512	-0.139893	-0.758545	0.086716	0.016584	0.031347	0.824308	0.077612	-0.550621	0.106345	1.627309	-67.558497	13.613872
43297		8.961935	0.848128	2.812272	0.586050	0.934422	-0.446374	-0.834692	-0.317907	-0.204414	-0.752197	-0.133301	-0.756348	0.089583	0.008507	0.028230	0.823834	0.074851	-0.552329	0.103087	1.430039	-67.741974	13.304914
43298		8.874035	0.171586	2.529017	0.958793	0.336749	-0.639838	-0.717804	-0.165741	-0.231772	-0.754639	-0.128906	-0.754150	0.088721	0.001704	0.025358	0.823729	0.072568	-0.553340	0.100095	1.333816	-67.839656	12.959557
43299		8.484037	-0.139818	2.490194	0.920847	0.007151	-1.017717	-0.603736	0.036993	-0.220019	-0.750488	-0.119873	-0.756348	0.084843	-0.001416	0.024891	0.824134	0.070619	-0.553446	0.097538	1.280312	-67.820141	12.638672
43300		7.952332	-0.495823	2.082100	1.183527	-0.291625	-1.668072	-0.592100	0.189437	-0.190695	-0.746338	-0.117432	-0.763184	0.079538	-0.004973	0.020760	0.824927	0.068563	-0.552933	0.095187	1.186840	-67.715212	12.368094
43301		7.632305	-0.485779	1.410617	1.683789	-0.160588	-2.222106	-0.561151	0.339859	-0.178625	-0.746338	-0.113037	-0.767578	0.076343	-0.004887	0.013990	0.826118	0.066523	-0.551771	0.093020	1.088035	-67.522849	12.121474
43302		7.346662	-0.276086	1.194271	1.752621	0.068820	-2.573943	-0.565771	0.511712	-0.155453	-0.735596	-0.108398	-0.765381	0.073495	-0.002785	0.011763	0.827754	0.064325	-0.549914	0.090994	0.949483	-67.234044	11.915315
43303		7.084675	-0.095292	1.265008	1.587354	0.215484	-2.795874	-0.601449	0.599243	-0.135001	-0.735596	-0.105957	-0.776367	0.070884	-0.000963	0.012441	0.829628	0.061875	-0.547697	0.088979	0.759188	-66.893947	11.741813
43304		6.797472	-0.030337	1.404076	1.377129	0.236161	-3.013748	-0.579780	0.583916	-0.128951	-0.729004	-0.103516	-0.774170	0.068015	-0.000307	0.013843	0.831428	0.059511	-0.545536	0.087044	0.574394	-66.564444	11.576263
43305		6.496420	0.139346	1.669085	1.020411	0.334154	-3.190319	-0.516292	0.454215	-0.137686	-0.727051	-0.099121	-0.787354	0.065003	0.001392	0.016540	0.832853	0.057485	-0.543867	0.085204	0.438244	-66.307980	11.396259
43306		6.407383	0.291098	1.847223	0.819616	0.448091	-3.203683	-0.507046	0.307214	-0.137334	-0.722900	-0.094482	-0.787354	0.064104	0.002914	0.018366	0.833860	0.055564	-0.542810	0.083350	0.308568	-66.137320	11.215379
43307		6.368585	0.473139	2.241837	0.431458	0.557617	-3.081309	-0.500774	0.190663	-0.115550	-0.718262	-0.094238	-0.789551	0.063710	0.004751	0.022346	0.834541	0.053651	-0.542227	0.081567	0.154004	-66.032154	11.064566
43308		6.467197	0.505538	2.471271	0.269980	0.564562	-2.899240	-0.549441	0.122041	-0.106147	-0.721191	-0.083252	-0.787354	0.064690	0.005089	0.024659	0.835030	0.051544	-0.541959	0.079676	-0.039474	-65.968012	10.926625
43309		6.905933	0.442836	2.761194	0.204170	0.496455	-2.381400	-0.514120	0.064743	-0.090124	-0.721191	-0.081055	-0.793945	0.069070	0.004468	0.027578	0.835349	0.049557	-0.541907	0.077929	-0.234076	-65.935465	10.811088
43310		7.559339	0.357205	3.051160	0.223217	0.423384	-1.667033	-0.438490	0.001681	-0.062222	-0.717041	-0.074219	-0.789551	0.075595	0.003615	0.030503	0.835456	0.047841	-0.542102	0.076490	-0.420632	-65.940518	10.735119
43311		8.542811	0.237709	3.088910	0.595627	0.382584	-0.753089	-0.367251	-0.178610	-0.028719	-0.721680	-0.070068	-0.787354	0.085401	0.002422	0.030961	0.835047	0.046392	-0.543019	0.075336	-0.612470	-66.047433	10.708408
43312		9.726544	-0.211712	2.965386	1.228179	0.054067	0.283476	-0.287307	-0.392259	0.008909	-0.728027	-0.076904	-0.787354	0.097207	-0.002070	0.029848	0.834014	0.045263	-0.544813	0.074511	-0.810322	-66.277881	10.739620
43313		10.468373	-0.938147	2.747166	1.795090	-0.568150	0.886307	-0.202189	-0.490959	0.063097	-0.732910	-0.070313	-0.776367	0.104619	-0.009321	0.027738	0.832672	0.044372	-0.546987	0.074117	-1.035529	-66.563222	10.852920
43314		10.647263	-1.667979	3.024594	1.686207	-1.310121	1.175243	-0.132353	-0.413838	0.120918	-0.728516	-0.068115	-0.776367	0.106420	-0.016595	0.030477	0.831493	0.043591	-0.548832	0.074176	-1.299024	-66.804616	11.052166
43315		10.148394	-1.847316	4.398428	0.234719	-1.726247	1.264925	0.066137	-0.341018	0.176281	-0.733154	-0.063721	-0.776367	0.101425	-0.018398	0.044151	0.830452	0.043451	-0.550303	0.075022	-1.525629	-67.002249	11.333874
43316		9.767362	-2.074180	6.051913	-1.422516	-2.232636	1.559239	0.201220	-0.572522	0.168099	-0.739746	-0.068359	-0.763184	0.097517	-0.020721	0.060778	0.828736	0.043986	-0.552686	0.076158	-1.676891	-67.333168	11.618002
43317		9.861852	-3.004692	6.410953	-1.626182	-3.217347	1.779897	0.412537	-0.916993	0.079525	-0.750977	-0.066650	-0.760986	0.098335	-0.030141	0.064499	0.826046	0.045766	-0.556379	0.077430	-1.604577	-67.861742	11.789602
43318		11.189459	-3.869104	6.508586	-1.163739	-4.031878	3.029592	0.513361	-0.943839	-0.145785	-0.757324	-0.075684	-0.751953	0.111558	-0.038940	0.065513	0.823318	0.048604	-0.560084	0.078048	-1.151364	-68.410100	11.613148
43319		13.000012	-3.997531	6.003737	-0.101552	-4.025482	4.498474	0.548636	-0.606625	-0.473236	-0.763428	-0.087158	-0.749756	0.129722	-0.040448	0.060321	0.821636	0.052365	-0.562286	0.077494	-0.173719	-68.765536	10.894933
43320		13.981969	-3.204986	4.026708	1.880846	-2.956225	4.668451	0.536794	-0.232450	-0.785606	-0.756104	-0.097900	-0.738770	0.139645	-0.032707	0.040342	0.821107	0.056816	-0.562868	0.075722	1.283054	-68.900247	9.657557
43321		12.682938	-1.681833	3.704385	1.468103	-1.607292	3.327608	0.643560	0.422812	-0.874151	-0.753662	-0.102295	-0.751953	0.126832	-0.017491	0.036720	0.822408	0.061700	-0.560671	0.074072	2.900269	-68.644830	8.312889
43322		9.664360	0.032179	4.985731	-1.026674	-0.428355	1.004857	0.643671	0.725533	-0.850934	-0.746094	-0.119873	-0.756348	0.096823	-0.000250	0.049506	0.824512	0.066410	-0.557223	0.072607	4.417001	-68.204966	7.073444
43323		7.610744	1.665357	6.575059	-3.481646	0.677435	-0.255152	0.636844	0.141726	-0.850327	-0.747559	-0.133301	-0.740967	0.076223	0.016120	0.065749	0.824970	0.071292	-0.556157	0.070930	5.956626	-68.085089	5.802026
43324		7.820830	3.430263	7.634320	-4.733999	2.090123	0.406594	0.582895	-0.889746	-0.892533	-0.758789	-0.135986	-0.727783	0.078019	0.033731	0.076789	0.822557	0.076440	-0.559336	0.068557	7.705204	-68.536821	4.274628
43325		9.661194	4.075122	7.463405	-4.142314	2.669491	2.076776	0.378482	-1.411775	-0.894476	-0.762451	-0.151611	-0.725586	0.096262	0.040178	0.075391	0.818716	0.080922	-0.564692	0.065403	9.533797	-69.265499	2.541850
43326		11.375135	3.619914	6.377383	-2.573281	2.338676	3.266880	0.183668	-0.977337	-0.849114	-0.766846	-0.151855	-0.725586	0.113590	0.035658	0.064362	0.816115	0.084336	-0.568325	0.062055	11.174248	-69.735538	0.897868
43327		11.805934	3.022815	5.621356	-1.646764	1.803923	3.383916	0.067661	0.054305	-0.782081	-0.766113	-0.165039	-0.723389	0.118192	0.029747	0.056192	0.816456	0.086758	-0.567787	0.059083	12.364928	-69.619017	-0.336121
43328		11.120619	2.379244	6.305532	-2.308930	0.961110	2.947883	-0.065050	0.851445	-0.708663	-0.759521	-0.164795	-0.736572	0.111557	0.023418	0.062573	0.819071	0.088199	-0.564062	0.056379	13.079809	-69.060438	-1.144967
43329		10.882731	1.435942	6.762166	-2.505872	-0.093843	2.833777	-0.250164	0.873754	-0.598388	-0.748047	-0.171143	-0.743164	0.109164	0.014117	0.067127	0.821783	0.088555	-0.560319	0.053611	13.485169	-68.499674	-1.739323
43330		12.267969	0.806672	5.743579	-0.853894	-0.535917	3.719705	-0.359454	0.500313	-0.404548	-0.746094	-0.166504	-0.745361	0.122839	0.007921	0.057114	0.823419	0.088023	-0.558224	0.051169	13.664458	-68.173383	-2.158884
43331		13.563319	-0.557909	4.333072	1.238857	-1.600867	4.292356	-0.476414	0.624981	-0.108276	-0.737305	-0.161865	-0.756348	0.135765	-0.005550	0.042920	0.825377	0.086143	-0.555757	0.049671	13.319770	-67.815829	-2.087499
43332		12.313125	-1.914920	3.301555	2.054600	-2.668528	2.630621	-0.370921	1.194371	0.168391	-0.728516	-0.159180	-0.763184	0.123342	-0.018985	0.032315	0.828770	0.083792	-0.551029	0.049855	12.498734	-67.177075	-1.433920
43333		9.611925	-3.022788	3.003572	1.609700	-3.609096	-0.069534	-0.188123	1.531508	0.325698	-0.724121	-0.158936	-0.778564	0.096395	-0.030043	0.029327	0.832944	0.081667	-0.544885	0.051330	11.525593	-66.362646	-0.498627
43334		6.980910	-3.623812	3.109895	0.680848	-4.158574	-2.479311	0.079362	1.182667	0.357806	-0.710938	-0.154053	-0.785156	0.070056	-0.036125	0.030671	0.836000	0.080665	-0.540123	0.053525	10.810248	-65.744178	0.328701
43335		5.905582	-3.822720	3.227233	0.241234	-4.349989	-3.415558	0.264196	0.617842	0.294795	-0.706299	-0.156250	-0.782959	0.059211	-0.038182	0.032039	0.837459	0.080745	-0.537622	0.055726	10.437523	-65.432455	0.898057
43336		6.253517	-3.603488	3.237410	0.375395	-4.120831	-3.071012	0.346405	0.160710	0.247366	-0.703857	-0.158203	-0.787354	0.062606	-0.036013	0.032261	0.837654	0.081432	-0.536999	0.057766	10.282879	-65.373943	1.281261
43337		6.992426	-3.180720	3.206895	0.645712	-3.686731	-2.377216	0.408695	-0.147380	0.230328	-0.710205	-0.165039	-0.787354	0.069937	-0.031792	0.032056	0.837004	0.082506	-0.537628	0.059777	10.251182	-65.485705	1.567643
43338		7.918281	-2.310235	2.959136	1.079630	-2.772170	-1.569975	0.492137	-0.304989	0.195653	-0.710205	-0.167480	-0.780762	0.079160	-0.023098	0.029655	0.835892	0.084078	-0.538884	0.061800	10.346543	-65.684252	1.767434
43339		8.835627	-1.339147	2.802039	1.391309	-1.778998	-0.723549	0.443625	-0.282212	0.166552	-0.712158	-0.171875	-0.776367	0.088328	-0.013380	0.028115	0.834871	0.085511	-0.540033	0.063584	10.442082	-65.865715	1.935898
43340		9.615337	-0.584025	2.917509	1.439553	-1.052610	0.093237	0.344545	-0.143171	0.179854	-0.721436	-0.167725	-0.776367	0.096138	-0.005804	0.029234	0.834252	0.086456	-0.540645	0.065212	10.433441	-65.971640	2.156457
43341		10.107230	0.144880	3.276338	1.162622	-0.399812	0.741929	0.267490	-0.011411	0.237701	-0.714600	-0.169922	-0.776367	0.101069	0.001525	0.032771	0.834006	0.086873	-0.540747	0.066934	10.273362	-66.007921	2.493996
43342		9.965889	0.633472	3.260107	1.019352	0.098584	0.641961	0.224013	0.140508	0.299966	-0.720947	-0.174561	-0.776367	0.099672	0.006448	0.032538	0.834160	0.086896	-0.540264	0.068858	9.977516	-65.965448	2.953253
43343		9.277520	1.048827	3.111535	0.797631	0.549209	-0.019010	0.229363	0.299064	0.320840	-0.718750	-0.174316	-0.782959	0.092805	0.010602	0.030989	0.834734	0.086824	-0.539115	0.070959	9.623556	-65.833227	3.479594
43344		8.179165	1.053785	2.791411	0.658016	0.626803	-1.153868	0.238795	0.504397	0.333160	-0.709961	-0.171875	-0.782959	0.081844	0.010641	0.027720	0.835841	0.086691	-0.537116	0.073219	9.225541	-65.585903	4.061230
43345		7.488817	0.968680	2.684709	0.523019	0.576367	-1.836320	0.257435	0.624514	0.320426	-0.708008	-0.167236	-0.789551	0.074956	0.009772	0.026626	0.837263	0.086619	-0.534587	0.075533	8.838688	-65.266584	4.643490
43346		7.117389	0.812999	2.561933	0.551862	0.467085	-2.239131	0.205597	0.671530	0.290462	-0.701172	-0.166992	-0.791748	0.071248	0.008207	0.025389	0.838826	0.086397	-0.531869	0.077597	8.464827	-64.917705	5.180399
43347		6.901868	0.466161	2.300520	0.809239	0.207343	-2.570628	0.159772	0.652053	0.275283	-0.694092	-0.173584	-0.791748	0.069087	0.004738	0.022784	0.840358	0.086022	-0.529228	0.079469	8.096321	-64.575922	5.683333
43348		6.773318	0.167975	2.062192	1.070236	-0.008183	-2.811757	0.146886	0.652924	0.250223	-0.694336	-0.171143	-0.798340	0.067798	0.001750	0.020402	0.841892	0.085665	-0.526580	0.081198	7.763702	-64.231601	6.140265
43349		6.609408	-0.148319	1.866097	1.282443	-0.254024	-3.068860	0.194368	0.658670	0.244861	-0.687500	-0.175537	-0.805176	0.066157	-0.001420	0.018442	0.843416	0.085515	-0.523871	0.083037	7.472023	-63.881395	6.583355
43350		6.596883	-0.568853	1.921879	1.365225	-0.653757	-3.086272	0.295944	0.632206	0.243129	-0.685303	-0.175293	-0.802979	0.066036	-0.005637	0.019002	0.844813	0.085812	-0.521232	0.085116	7.255383	-63.546392	7.008871
43351		6.610151	-0.923126	2.001961	1.424161	-0.996047	-3.064829	0.410998	0.563760	0.229877	-0.671875	-0.175049	-0.800781	0.066168	-0.009196	0.019814	0.845980	0.086655	-0.518813	0.087416	7.135152	-63.247708	7.401814
43352		6.723602	-1.286384	2.320426	1.324232	-1.402534	-2.846687	0.508841	0.455220	0.201236	-0.675781	-0.181641	-0.802979	0.067301	-0.012855	0.023018	0.846821	0.088034	-0.516799	0.089793	7.124656	-63.009582	7.735160
43353		6.910650	-1.614075	2.772927	1.133584	-1.809631	-2.498894	0.560874	0.320840	0.158554	-0.677979	-0.184082	-0.813965	0.069164	-0.016163	0.027573	0.847305	0.089802	-0.515299	0.092072	7.210917	-62.843965	7.994410
43354		7.180591	-1.753576	3.020073	1.107101	-1.987040	-2.158754	0.572187	0.189746	0.116608	-0.673340	-0.190674	-0.802979	0.071845	-0.017580	0.030082	0.847453	0.091787	-0.514332	0.094134	7.370762	-62.750986	8.178026
43355		7.766750	-1.711581	3.024480	1.377051	-1.913684	-1.637058	0.566943	0.018957	0.077460	-0.670898	-0.192627	-0.802979	0.077677	-0.017171	0.030189	0.847179	0.093929	-0.514062	0.095948	7.593561	-62.751532	8.288121
43356		8.527244	-1.546047	2.840559	1.841793	-1.666068	-1.037442	0.544796	-0.109517	0.033621	-0.670654	-0.197266	-0.798340	0.085259	-0.015524	0.028410	0.846596	0.096152	-0.514329	0.097447	7.872888	-62.822711	8.319754
43357		9.383081	-1.321253	2.783086	2.215919	-1.389902	-0.289487	0.447640	-0.130096	0.011383	-0.674805	-0.201660	-0.802979	0.093813	-0.013270	0.027862	0.846015	0.098028	-0.514711	0.098604	8.123070	-62.903096	8.322238
43358		10.002690	-0.965598	2.604912	2.547625	-0.970219	0.204300	0.356356	-0.073220	0.002178	-0.670410	-0.203857	-0.793945	0.100017	-0.009701	0.026068	0.845623	0.099516	-0.514896	0.099503	8.324517	-62.951237	8.320040
43359		10.197411	-0.320855	2.400005	2.632143	-0.289626	0.328225	0.273105	-0.039509	0.014925	-0.676758	-0.208496	-0.789551	0.101970	-0.003234	0.024016	0.845353	0.100600	-0.514979	0.100270	8.456877	-62.980627	8.342549
43360		10.010175	0.484146	2.076204	2.593860	0.554145	0.072323	0.148477	-0.154201	0.022358	-0.674561	-0.206299	-0.787354	0.100085	0.004837	0.020843	0.844844	0.101196	-0.515619	0.100677	8.530669	-63.076361	8.349946
43361		9.790270	1.308173	1.953383	2.340514	1.354696	-0.114081	0.057333	-0.522158	0.014638	-0.681396	-0.206543	-0.787354	0.097850	0.013083	0.019793	0.843432	0.101613	-0.517849	0.100644	8.621519	-63.379574	8.280688
43362		9.800840	1.927176	2.222148	1.871077	1.852692	0.075391	0.034008	-1.045865	-0.005778	-0.689941	-0.211182	-0.774170	0.097891	0.019265	0.022737	0.840672	0.102246	-0.522283	0.100183	8.819086	-63.977856	8.076781
43363		10.297360	2.781070	2.751492	1.280573	2.518903	0.834107	0.163309	-1.304459	0.007025	-0.698975	-0.213867	-0.762939	0.102790	0.027791	0.028208	0.837133	0.103515	-0.527725	0.099991	9.133059	-64.723010	7.828089
