// General information: 
//  MT Manager version: 2019.2.0 
//  XDA version: 2019.2.0 build 3853 rev 94535 built on 2019-09-09
// Device information: 
//  DeviceId: 00B40ACF
//  ProductCode: MTW2-3A7G6
//  Firmware Version: 4.3.5
//  Hardware Version: 1.1.0
// Device settings: 
//  Filter Profile: human(46.1)
//  Option Flags: Orientation Smoother Disabled, AHS Disabled, ICC Disabled
// Coordinate system: ENU
PacketCounter	SampleTimeFine	Acc_X	Acc_Y	Acc_Z	FreeAcc_E	FreeAcc_N	FreeAcc_U	Gyr_X	Gyr_Y	Gyr_Z	Mag_X	Mag_Y	Mag_Z	VelInc_X	VelInc_Y	VelInc_Z	Quat_q0	Quat_q1	Quat_q2	Quat_q3	Roll	Pitch	Yaw
01748		7.356901	-8.311652	-3.575175	-0.000000	0.000000	1.848600	0.309736	0.475399	1.888132	-0.597412	0.735596	-0.921387	0.074263	-0.082362	-0.036056	0.546886	-0.360731	-0.724202	0.215221	-113.642415	-39.556423	100.581215
01749		3.759780	-2.475601	-5.631047	0.000000	-0.000000	-2.603508	0.961358	0.520719	1.185015	-0.593018	0.742432	-0.932373	0.037596	-0.024262	-0.056526	0.324964	-0.389213	-0.860554	0.048562	-156.770117	-31.432620	124.706832
01750		5.509056	1.514178	-4.586886	3.128548	4.501393	-4.951598	1.775101	0.523482	0.797547	-0.588135	0.731445	-0.947754	0.054908	0.015768	-0.045875	0.474155	-0.380092	-0.778903	0.154976	-129.848397	-38.376826	109.478965
01751		2.786124	6.845048	-2.605192	4.521092	6.298750	-10.947760	1.693423	0.371720	0.369192	-0.583496	0.724854	-0.960938	0.027687	0.068719	-0.025522	0.478516	-0.377788	-0.775977	0.161734	-128.641659	-38.347745	109.097942
01752		2.220646	6.213952	-0.032516	2.111660	5.772726	-12.212957	1.606952	0.238374	0.110606	-0.582764	0.709473	-0.967285	0.022172	0.062152	0.000148	0.481574	-0.373745	-0.775362	0.164967	-128.036716	-38.570555	109.175129
01753		1.242565	4.359354	1.375820	0.289841	3.964676	-12.389098	1.210441	0.039584	-0.191241	-0.589355	0.709473	-0.976074	0.012470	0.043497	0.014019	0.484139	-0.370115	-0.774611	0.169122	-127.382392	-38.671112	109.237946
01754		0.436330	3.772762	0.805880	0.726716	2.985254	-12.186200	0.914964	-0.256599	-0.542163	-0.593262	0.693848	-0.978271	0.004455	0.037678	0.008237	0.487758	-0.360839	-0.778460	0.160892	-128.099427	-40.037476	110.152586
01755		0.112281	4.145241	0.458576	1.229217	2.991326	-12.448354	0.658758	-0.551473	-0.931461	-0.593262	0.691650	-0.978271	0.001303	0.041431	0.004726	0.487540	-0.355156	-0.780940	0.162176	-128.209708	-40.261942	110.908991
01756		0.090705	4.706996	0.403711	1.511337	3.506887	-12.595548	0.339575	-0.819839	-1.322226	-0.610596	0.677979	-0.971680	0.001201	0.047056	0.004122	0.489384	-0.340552	-0.789952	0.143188	-130.624366	-42.505016	113.084531
01757		0.371090	4.791577	0.488673	1.358583	3.811638	-12.451036	0.037147	-1.078516	-1.722274	-0.628418	0.668701	-0.965088	0.004097	0.047881	0.004917	0.486395	-0.332869	-0.795457	0.140949	-131.630618	-42.841893	114.600422
01758		0.803229	4.312626	0.566834	0.990566	3.910294	-11.627353	-0.259275	-1.349775	-2.100931	-0.645752	0.650391	-0.951904	0.008447	0.043046	0.005669	0.485006	-0.312679	-0.809369	0.109189	-136.490152	-45.792240	118.621379
01759		1.594343	3.438990	0.188552	0.657802	3.694395	-10.380318	-0.473000	-1.576898	-2.437952	-0.663330	0.641113	-0.934326	0.016346	0.034197	0.001932	0.479164	-0.303065	-0.817175	0.103816	-138.455694	-46.070631	120.979590
01760		2.715818	3.050249	-0.249183	0.410343	3.944413	-8.805818	-0.472291	-1.700636	-2.756840	-0.682861	0.623047	-0.925537	0.027595	0.030118	-0.002330	0.475790	-0.278447	-0.831770	0.065190	-145.273839	-49.042099	126.747651
01761		3.968074	3.485299	-0.311469	0.029528	4.932440	-7.900221	-0.391938	-1.770207	-3.063648	-0.699951	0.600342	-0.912109	0.040234	0.034234	-0.002828	0.468806	-0.266018	-0.840242	0.058727	-147.835247	-49.163276	129.838833
01762		5.318300	3.671050	-0.178414	-0.746288	5.502137	-6.502436	-0.309703	-1.818954	-3.321358	-0.726318	0.582031	-0.896729	0.053796	0.035818	-0.001353	0.465483	-0.237481	-0.852427	0.017231	-156.132077	-51.757409	137.156803
01763		6.813387	2.812072	0.365819	-2.407180	5.355482	-5.342622	-0.251706	-1.870707	-3.504722	-0.740723	0.550537	-0.883545	0.068575	0.026927	0.004264	0.457422	-0.222922	-0.860794	0.010219	-159.139002	-51.530153	140.806927
01764		8.276351	1.873056	1.481331	-4.552085	4.700458	-4.211320	-0.232717	-1.898202	-3.666276	-0.759766	0.519043	-0.863525	0.082943	0.017229	0.015579	0.457546	-0.192100	-0.867574	-0.032642	-168.375011	-53.750575	149.123331
01765		9.982167	0.878879	2.582694	-6.900685	4.290157	-3.405887	-0.319004	-1.944835	-3.776741	-0.779297	0.500977	-0.845947	0.099707	0.006947	0.026785	0.448084	-0.176722	-0.875401	-0.040790	-171.686879	-53.027332	153.020881
01766		11.372999	0.087859	2.555835	-7.920682	3.088220	-1.838260	-0.365053	-1.969148	-3.807620	-0.795898	0.460449	-0.821533	0.113461	-0.001235	0.026677	0.457152	-0.148779	-0.873260	-0.079334	179.745555	-55.288629	160.795774
01767		12.572946	-0.501843	2.105537	-8.714760	2.266720	-0.776356	-0.426769	-1.947324	-3.804495	-0.802002	0.442627	-0.812744	0.125391	-0.007359	0.022291	0.446718	-0.133882	-0.880170	-0.088426	176.475724	-54.101084	164.502195
01768		14.109209	-1.228879	2.004604	-9.444093	0.875873	0.892940	-0.589445	-1.848126	-3.829245	-0.818848	0.413330	-0.795166	0.140630	-0.014923	0.021388	0.464309	-0.113028	-0.870111	-0.120622	168.996354	-56.643658	171.140569
01769		15.400053	-2.833530	2.415841	-11.284282	-0.839726	1.275659	-0.755223	-1.740625	-3.773703	-0.822021	0.379883	-0.772949	0.153212	-0.031136	0.025608	0.453930	-0.099389	-0.875634	-0.131657	165.766158	-55.197533	174.517454
01770		16.361746	-5.171403	2.945699	-12.377284	-3.512260	1.915659	-0.874249	-1.707606	-3.609265	-0.837158	0.361816	-0.759766	0.162390	-0.054519	0.031081	0.477884	-0.089353	-0.859818	-0.156065	159.696245	-58.176411	179.511756
01771		17.109740	-6.964532	2.570959	-13.317214	-5.724088	1.921978	-0.882201	-1.665234	-3.369986	-0.836182	0.334961	-0.733154	0.169669	-0.072394	0.027442	0.467612	-0.078257	-0.864454	-0.167136	156.938012	-56.576033	-177.813945
01772		17.627332	-8.200175	2.150211	-12.857478	-7.248677	3.020563	-0.729643	-1.478038	-3.095718	-0.842041	0.312744	-0.730957	0.174810	-0.084633	0.023103	0.497513	-0.082139	-0.844881	-0.178635	153.481794	-60.461517	-175.468551
01773		17.021004	-8.761327	1.915236	-12.802812	-8.171438	1.995337	-0.543894	-1.234090	-2.802571	-0.843506	0.292480	-0.719727	0.168837	-0.089931	0.020439	0.489514	-0.072746	-0.848513	-0.187375	151.290144	-59.090471	-173.293010
01774		15.644037	-8.140519	1.871019	-11.118242	-7.298570	1.917633	-0.382079	-1.032228	-2.524639	-0.851807	0.274658	-0.708740	0.155297	-0.083333	0.019672	0.522061	-0.089358	-0.827245	-0.187438	150.590769	-63.798044	-173.776440
01775		14.090682	-8.198400	1.762822	-10.537941	-7.560543	0.219515	-0.333132	-0.907493	-2.258817	-0.855469	0.252197	-0.697510	0.139887	-0.083538	0.018403	0.516003	-0.081729	-0.830248	-0.194293	148.705514	-62.695247	-171.879064
01776		13.596999	-7.608370	1.382165	-9.171959	-6.653955	0.970002	-0.349863	-0.792049	-2.005895	-0.855225	0.241211	-0.688721	0.135141	-0.077417	0.014493	0.545701	-0.107665	-0.809075	-0.189781	150.300390	-67.501703	-175.066403
01777		12.872243	-7.399134	0.923011	-8.574340	-6.795854	0.266206	-0.417012	-0.729024	-1.724386	-0.854492	0.227783	-0.684326	0.128043	-0.075077	0.009853	0.540866	-0.102514	-0.811559	-0.195771	148.552723	-66.639462	-173.428293
01778		11.706892	-7.478563	0.397114	-7.276206	-6.446735	0.118566	-0.488660	-0.704715	-1.453654	-0.858398	0.212158	-0.682129	0.116506	-0.075623	0.004566	0.565047	-0.135157	-0.791410	-0.190065	152.882623	-71.039841	-179.847918
01779		10.102108	-7.283284	0.081869	-6.529882	-6.494056	-1.428745	-0.489176	-0.688741	-1.240037	-0.856201	0.209961	-0.673340	0.100563	-0.073454	0.001345	0.560797	-0.132283	-0.793707	-0.195033	151.336297	-70.358675	-178.506506
01780		9.507978	-6.321240	-1.013135	-4.735079	-5.575762	-0.988061	-0.417266	-0.701746	-1.096695	-0.855957	0.201172	-0.670898	0.094766	-0.063753	-0.009666	0.578446	-0.168200	-0.775572	-0.188673	159.305154	-73.888246	171.163958
01781		16.292511	-3.104667	-2.763204	-3.743356	-3.391586	6.224806	-0.068800	-0.826214	-0.902939	-0.857666	0.192139	-0.659912	0.162895	-0.031791	-0.026948	0.574322	-0.165674	-0.778641	-0.190853	158.211851	-73.259579	172.262672
01782		16.393977	-10.277041	4.539304	-12.782882	-4.907168	4.592266	0.015871	-0.136860	-0.237143	-0.860107	0.196533	-0.659912	0.163787	-0.102968	0.045497	0.588708	-0.201373	-0.761204	-0.182870	170.234097	-75.907230	157.988611
01783		19.742174	-16.237307	12.993697	-23.601932	-5.230492	5.608905	-0.669470	0.301021	0.573419	-0.851563	0.203369	-0.659912	0.198081	-0.161370	0.130180	0.589697	-0.205249	-0.759120	-0.184031	171.039894	-76.130889	156.762938
01784		16.659574	-5.480101	10.981067	-14.263186	4.279263	4.553786	-1.422120	0.540307	1.083050	-0.856201	0.209961	-0.668945	0.167183	-0.053116	0.109741	0.607846	-0.254621	-0.730226	-0.180169	-166.685945	-78.372908	130.684070
01785		13.263444	7.939324	0.764139	2.426520	8.854785	2.646766	-1.758566	-0.026466	0.629047	-0.852051	0.218750	-0.662354	0.132383	0.079873	0.006958	0.606051	-0.262275	-0.727890	-0.184636	-166.016018	-78.273133	128.971120
01786		16.620822	6.271355	5.197341	-0.969424	11.040797	5.011281	-1.128650	0.387238	0.848952	-0.845703	0.227783	-0.668945	0.166039	0.063709	0.051294	0.621776	-0.293967	-0.702314	-0.183663	-145.970330	-78.916055	106.299211
01787		13.913170	3.520252	2.660330	-0.433489	6.946967	3.016718	-1.065522	0.312885	1.224114	-0.850830	0.245605	-0.673340	0.138953	0.036194	0.026195	0.622412	-0.301281	-0.698540	-0.184053	-143.173434	-78.655459	102.825544
01788		9.670218	2.414529	-5.757338	5.975132	-0.070647	0.025128	-1.263408	-0.114994	1.160817	-0.846680	0.254639	-0.671387	0.096594	0.024342	-0.057671	0.635720	-0.316596	-0.679857	-0.182816	-129.046155	-78.566361	87.471194
01789		8.396066	-1.276053	-2.485997	1.101435	-0.859229	-1.074805	-1.126505	-0.089143	1.080424	-0.844971	0.265625	-0.666992	0.084040	-0.012446	-0.024752	0.634602	-0.323921	-0.677379	-0.183064	-128.020828	-78.050255	85.765055
01790		11.077277	-4.737218	1.937156	-4.070102	0.208335	1.688992	-0.872179	0.107097	1.158379	-0.843262	0.278809	-0.660400	0.111055	-0.046645	0.019517	0.644205	-0.334612	-0.663685	-0.180438	-118.695825	-77.382693	75.706589
01791		10.469862	-1.951731	0.120442	-0.798157	0.939377	0.766597	-0.452620	0.349301	0.996188	-0.841309	0.287842	-0.671387	0.104796	-0.018993	0.001065	0.645495	-0.339055	-0.660473	-0.179312	-117.005921	-76.971467	73.707529
01792		9.348032	1.068123	-1.212391	2.472718	1.931834	-0.860060	-0.126171	0.476106	0.782672	-0.847900	0.287842	-0.675781	0.093408	0.011039	-0.012353	0.656052	-0.343538	-0.648650	-0.175587	-109.173213	-76.345657	65.779220
01793		10.533424	1.259093	-2.380627	3.655222	1.541136	0.310020	-0.094419	0.528510	0.731070	-0.837158	0.299072	-0.678223	0.105224	0.012964	-0.024090	0.658240	-0.345751	-0.645570	-0.174401	-107.520765	-76.043348	64.021935
01794		10.542325	0.534419	-1.311971	2.631513	1.727137	0.347974	-0.021812	0.440664	0.657248	-0.841797	0.301270	-0.680420	0.105376	0.005689	-0.013353	0.666802	-0.345737	-0.637742	-0.170662	-102.171583	-75.581860	58.979719
01795		10.573645	0.121536	-1.098451	2.276287	1.603415	0.447454	0.105080	0.365027	0.551140	-0.839844	0.307861	-0.684814	0.105712	0.001513	-0.011177	0.668615	-0.346830	-0.635658	-0.169119	-101.076852	-75.314669	57.910929
01796		10.264638	-0.914594	-0.121217	0.985884	1.421913	0.347031	0.203290	0.284216	0.477031	-0.835449	0.312500	-0.687012	0.102666	-0.008900	-0.001367	0.675655	-0.343121	-0.631331	-0.164864	-97.275986	-75.074080	54.796855
01797		9.563562	-0.241951	0.439952	0.955248	2.145253	-0.528342	0.164192	0.172614	0.425975	-0.837402	0.305908	-0.687012	0.095644	-0.002219	0.004315	0.676831	-0.343768	-0.630150	-0.163202	-96.705837	-74.843842	54.303910
01798		9.597390	0.367305	0.649644	1.274496	2.682773	-0.655989	0.046475	0.060991	0.360267	-0.839844	0.310303	-0.691406	0.095969	0.003844	0.006468	0.682269	-0.338607	-0.628120	-0.159119	-94.010405	-74.764081	52.413855
01799		10.118216	0.828268	0.317281	1.925962	2.923866	-0.278193	0.058160	0.010925	0.298731	-0.837891	0.319092	-0.687012	0.101170	0.008433	0.003170	0.682640	-0.339337	-0.627622	-0.157935	-93.910921	-74.593737	52.345273
01800		10.149349	1.043134	0.093518	2.252239	2.900360	-0.293160	0.147704	-0.022529	0.302739	-0.842285	0.314697	-0.684814	0.101477	0.010584	0.000954	0.687512	-0.331609	-0.627616	-0.153167	-91.679641	-74.702945	51.210389
01801		9.950824	1.111160	0.017924	2.334407	2.885429	-0.513297	0.186700	-0.042441	0.307625	-0.837891	0.319092	-0.691406	0.099491	0.011264	0.000211	0.687924	-0.331964	-0.627394	-0.151453	-91.642218	-74.526031	51.282539
01802		9.867594	0.652395	-0.575828	2.479268	2.123036	-0.460015	0.185855	-0.085883	0.278547	-0.839844	0.312500	-0.695801	0.098669	0.006667	-0.005710	0.691806	-0.323285	-0.628837	-0.146473	-89.977978	-74.746773	50.816653
01803		9.964791	0.201468	-1.205023	2.717837	1.434177	-0.255169	0.236310	-0.083073	0.228085	-0.840332	0.323486	-0.691406	0.099651	0.002143	-0.012006	0.692094	-0.323245	-0.628928	-0.144807	-90.016150	-74.616065	50.996631
01804		9.772150	-0.066989	-1.847046	3.018990	0.781536	-0.368863	0.318820	-0.089200	0.190438	-0.844727	0.319092	-0.691406	0.097730	-0.000547	-0.018428	0.694972	-0.314922	-0.631023	-0.140172	-88.842881	-74.878156	50.957466
01805		9.249433	0.470403	-1.690285	3.133785	1.204692	-1.017323	0.375471	-0.091474	0.149152	-0.840088	0.319092	-0.689209	0.092498	0.004805	-0.016852	0.695378	-0.314151	-0.631368	-0.138325	-88.827280	-74.793755	51.164210
01806		9.789050	0.696110	-1.136918	2.887914	1.825790	-0.542895	0.386536	-0.090585	0.167244	-0.844727	0.321289	-0.697998	0.097890	0.007065	-0.011311	0.697289	-0.307162	-0.633582	-0.134210	-88.126477	-75.022837	51.431132
01807		9.875278	1.446948	-0.900092	3.146651	2.590296	-0.657697	0.346331	-0.084059	0.176363	-0.847168	0.325684	-0.691406	0.098744	0.014572	-0.008934	0.697672	-0.306569	-0.633835	-0.132369	-88.119457	-74.923393	51.629340
01808		10.315515	1.151095	-0.903312	3.005630	2.452879	-0.143129	0.234730	-0.103051	0.202487	-0.844971	0.325684	-0.695801	0.103148	0.011626	-0.008966	0.698960	-0.300459	-0.636102	-0.128658	-87.722033	-75.135050	52.085119
01809		10.206090	0.917002	-1.151781	3.061553	2.126560	-0.198305	0.186606	-0.088590	0.205494	-0.840332	0.321289	-0.697998	0.102056	0.009286	-0.011464	0.699091	-0.300517	-0.636222	-0.127213	-87.822378	-75.019348	52.299632
01810		10.477129	0.114866	-1.395046	2.823552	1.411872	0.275111	0.199659	-0.040093	0.240230	-0.851563	0.323242	-0.697998	0.104773	0.001288	-0.013928	0.700321	-0.294794	-0.638258	-0.123590	-87.431009	-75.203125	52.716837
01811		9.753043	0.836038	-1.718628	3.386059	1.677397	-0.620551	0.254675	0.005987	0.235574	-0.851563	0.323242	-0.693604	0.097520	0.008497	-0.017178	0.700860	-0.294650	-0.638045	-0.121961	-87.295351	-75.068112	52.727469
01812		9.749533	0.857433	-1.631647	3.302184	1.757301	-0.622570	0.295571	0.038482	0.257249	-0.847412	0.330078	-0.697998	0.097481	0.008724	-0.016322	0.702198	-0.289247	-0.639736	-0.118290	-86.822551	-75.211010	53.036136
01813		9.720396	1.765996	-0.976377	3.257640	2.870547	-0.884876	0.324973	0.073153	0.281474	-0.847412	0.334473	-0.700195	0.097175	0.017813	-0.009770	0.703067	-0.288962	-0.639262	-0.116368	-86.513851	-75.047552	52.909404
01814		9.814124	1.362900	-0.450600	2.586325	2.866463	-0.676398	0.233482	0.051731	0.331804	-0.849609	0.332275	-0.702393	0.098117	0.013797	-0.004515	0.704306	-0.283995	-0.640803	-0.112568	-86.100142	-75.145553	53.247168
01815		9.690937	1.751052	-0.527590	2.852017	3.141511	-0.910126	0.168109	0.014940	0.349186	-0.847412	0.334473	-0.700195	0.096878	0.017684	-0.005268	0.704788	-0.284513	-0.640348	-0.110821	-86.023083	-74.945348	53.267121
01816		10.117481	1.281766	-0.901850	2.954249	2.664322	-0.379059	0.179131	0.012525	0.387895	-0.854492	0.341064	-0.704834	0.101149	0.013022	-0.009013	0.705914	-0.279542	-0.642002	-0.106657	-85.699569	-75.022195	53.723837
01817		10.154151	1.072316	-0.848421	2.829721	2.561770	-0.304464	0.206887	0.052667	0.419006	-0.852051	0.338867	-0.700439	0.101516	0.010945	-0.008500	0.706594	-0.280128	-0.641338	-0.104588	-85.537284	-74.780501	53.678543
01818		9.874910	0.825790	-0.942117	2.718933	2.272452	-0.510723	0.211882	0.059746	0.448710	-0.859131	0.345459	-0.704834	0.098727	0.008489	-0.009442	0.707903	-0.275137	-0.642778	-0.100047	-85.121171	-74.818797	54.073332
01819		9.565378	0.516500	-0.909631	2.517160	2.003493	-0.744040	0.211651	0.062592	0.486074	-0.854980	0.352051	-0.704834	0.095638	0.005407	-0.009121	0.708636	-0.275918	-0.641991	-0.097732	-84.957197	-74.538223	54.029069
01820		9.537800	0.126439	-0.584315	2.028747	1.861470	-0.661406	0.203922	0.041446	0.498488	-0.846191	0.358887	-0.707031	0.095373	0.001508	-0.005861	0.709804	-0.271307	-0.643364	-0.093020	-84.630760	-74.536286	54.492810
01821		9.516409	0.438543	-0.466932	2.101184	2.215193	-0.776641	0.187667	0.057609	0.505683	-0.857178	0.354248	-0.709229	0.095151	0.004630	-0.004692	0.710477	-0.272240	-0.642559	-0.090699	-84.503614	-74.244715	54.472455
01822		9.440783	0.887516	-1.008752	2.757078	2.329726	-0.986344	0.179417	0.109096	0.494520	-0.853027	0.361084	-0.709229	0.094380	0.009118	-0.010131	0.711761	-0.267847	-0.643606	-0.086170	-84.075181	-74.227433	54.798332
01823		9.530663	0.385071	-1.238926	2.767266	1.848831	-0.788243	0.149416	0.120758	0.497728	-0.855469	0.369873	-0.711426	0.095289	0.004097	-0.012444	0.712562	-0.268864	-0.642571	-0.084079	-83.853272	-73.936553	54.656615
01824		9.862697	0.511141	-0.972405	2.637844	2.186542	-0.499245	0.131301	0.139971	0.517946	-0.851074	0.372314	-0.715820	0.098606	0.005373	-0.009790	0.713800	-0.264795	-0.643451	-0.079650	-83.434654	-73.898542	54.954734
01825		9.962648	1.132476	-1.270844	3.232842	2.628993	-0.604606	0.118060	0.157590	0.521301	-0.853760	0.378906	-0.713867	0.099586	0.011592	-0.012780	0.714669	-0.265987	-0.642242	-0.077618	-83.178666	-73.591364	54.758563
01826		10.562267	0.600122	-1.235554	3.050190	2.364697	0.114672	0.090044	0.170993	0.557530	-0.855957	0.381104	-0.720459	0.105595	0.006301	-0.012443	0.715907	-0.262081	-0.642997	-0.073118	-82.757647	-73.531754	55.044768
01827		10.396479	0.441438	-1.198553	2.961878	2.249678	-0.020646	0.071363	0.178538	0.563894	-0.853760	0.383301	-0.718262	0.103941	0.004712	-0.012077	0.716778	-0.263572	-0.641642	-0.071103	-82.515627	-73.198217	54.834866
01828		10.406133	-0.036139	-1.011622	2.588101	1.962152	0.125302	0.120529	0.196089	0.579849	-0.854248	0.392090	-0.718262	0.104052	-0.000054	-0.010218	0.718068	-0.259573	-0.642334	-0.066387	-82.067846	-73.125569	55.119132
01829		10.085895	0.488292	-0.704154	2.531294	2.518131	-0.341111	0.185683	0.223293	0.595425	-0.849854	0.398926	-0.722656	0.100836	0.005190	-0.007149	0.719220	-0.260743	-0.640817	-0.063942	-81.705343	-72.769775	54.851257
01830		10.363318	0.004452	-0.192436	1.916703	2.428567	0.079901	0.231189	0.247514	0.641648	-0.852295	0.403320	-0.729248	0.103630	0.000379	-0.002052	0.720767	-0.256512	-0.641293	-0.058644	-81.145003	-72.656035	55.089133
01831		9.944309	0.797594	-0.203854	2.232698	3.049772	-0.577941	0.258443	0.264752	0.658890	-0.852539	0.410156	-0.729248	0.099413	0.008306	-0.002160	0.722136	-0.257613	-0.639565	-0.055780	-80.711213	-72.259328	54.789502
01832		10.299201	0.502075	-0.562062	2.491363	2.758659	-0.178168	0.255845	0.280825	0.674819	-0.848389	0.416748	-0.738037	0.102966	0.005376	-0.005758	0.723800	-0.253141	-0.639939	-0.050116	-80.093313	-72.128707	55.019374
01833		10.521282	0.356683	-1.194576	3.097832	2.465147	0.014699	0.239443	0.317804	0.689238	-0.846436	0.425781	-0.738281	0.105181	0.003944	-0.012108	0.725287	-0.254398	-0.637971	-0.047258	-79.620002	-71.707916	54.665810
01834		10.453757	0.022091	-1.608009	3.341256	2.027476	0.015433	0.270841	0.366396	0.697592	-0.848877	0.430176	-0.740479	0.104506	0.000607	-0.016271	0.727156	-0.249763	-0.638080	-0.041423	-78.890701	-71.560783	54.810678
01835		10.288254	0.687915	-1.768021	3.772906	2.546182	-0.393092	0.322374	0.440717	0.685901	-0.840088	0.434814	-0.747070	0.102819	0.007261	-0.017895	0.729100	-0.250686	-0.635681	-0.038451	-78.203986	-71.125488	54.280847
01836		10.565908	-0.254073	-1.012746	2.806877	2.148000	0.199077	0.364741	0.468330	0.718057	-0.842529	0.439209	-0.753662	0.105643	-0.002143	-0.010379	0.731256	-0.245748	-0.635476	-0.032309	-77.331707	-70.956300	54.332361
01837		10.860545	-0.475583	-0.404356	2.306618	2.324243	0.561206	0.392405	0.529673	0.743008	-0.840576	0.448242	-0.753662	0.108611	-0.004344	-0.004340	0.733532	-0.246585	-0.632682	-0.028996	-76.536926	-70.473015	53.728549
01838		10.635806	-0.133770	-0.148386	2.175660	2.695768	0.245084	0.454864	0.560548	0.761113	-0.840576	0.450439	-0.762451	0.106357	-0.000929	-0.001784	0.735968	-0.241450	-0.632099	-0.022438	-75.544455	-70.261673	53.708857
01839		10.900858	0.141621	0.130212	2.150192	3.168595	0.395224	0.472519	0.574052	0.800182	-0.834229	0.461670	-0.773438	0.109005	0.001850	0.000993	0.738432	-0.242172	-0.629064	-0.018693	-74.723413	-69.734183	53.123246
01840		11.263929	0.379832	0.314619	2.152428	3.583466	0.658418	0.464280	0.622582	0.846515	-0.823242	0.470703	-0.782227	0.112631	0.004268	0.002805	0.740984	-0.236985	-0.628209	-0.011597	-73.708669	-69.468890	53.128276
01841		11.126521	0.078540	-0.053109	2.464399	3.202412	0.554496	0.423602	0.657516	0.886738	-0.825928	0.477539	-0.784424	0.111258	0.001280	-0.000895	0.743590	-0.238159	-0.624736	-0.007760	-72.900982	-68.874041	52.523816
01842		10.932572	-0.085874	-0.208057	2.545808	2.991714	0.392165	0.381217	0.671131	0.917434	-0.819336	0.481934	-0.791016	0.109320	-0.000353	-0.002448	0.746083	-0.233078	-0.623727	-0.000358	-71.937244	-68.570939	52.594936
01843		11.316062	-0.398668	-0.485987	2.901205	2.794961	0.780613	0.393954	0.701005	0.963505	-0.812988	0.495605	-0.804443	0.113160	-0.003431	-0.005264	0.748715	-0.234607	-0.619977	0.003647	-71.194007	-67.920242	52.037761
01844		11.125839	0.095310	-0.373360	2.926105	3.279380	0.415448	0.418879	0.722649	1.006051	-0.813477	0.504395	-0.808838	0.111237	0.001521	-0.004133	0.751230	-0.229501	-0.618746	0.011646	-70.251518	-67.562394	52.180385
01845		11.274706	0.149858	-0.024340	2.754965	3.565382	0.523584	0.415995	0.725055	1.064397	-0.806885	0.509033	-0.815430	0.112735	0.002100	-0.000648	0.753872	-0.231268	-0.614763	0.016099	-69.582957	-66.847013	51.713748
01846		11.535940	0.167475	0.178823	2.657222	3.795814	0.754568	0.396420	0.766379	1.123628	-0.798096	0.518066	-0.822021	0.115353	0.002320	0.001350	0.756286	-0.226270	-0.613369	0.024751	-68.715174	-66.428700	51.975320
01847		11.540987	-0.081040	0.105149	2.783818	3.641310	0.779812	0.375764	0.791726	1.157044	-0.791748	0.529297	-0.833008	0.115415	-0.000144	0.000594	0.758976	-0.228489	-0.609003	0.029382	-68.099664	-65.645398	51.537385
01848		11.726737	0.316523	0.079951	2.968856	4.131056	0.758067	0.374192	0.809667	1.202213	-0.781006	0.538574	-0.837402	0.117248	0.003869	0.000332	0.761262	-0.223422	-0.607513	0.038597	-67.286370	-65.190375	51.906169
01849		11.839759	0.036086	0.044653	3.092104	4.006709	0.890852	0.377032	0.827159	1.240656	-0.779053	0.547363	-0.837402	0.118393	0.001095	-0.000042	0.763934	-0.225908	-0.602888	0.043539	-66.733543	-64.350950	51.533876
01850		12.328481	-0.830387	0.779352	2.385746	3.693402	1.761088	0.412286	0.854832	1.317001	-0.765869	0.558838	-0.850586	0.123368	-0.007507	0.007250	0.766101	-0.220589	-0.601288	0.053693	-65.957644	-63.845149	52.040102
01851		12.785325	0.794373	0.790811	2.933331	5.432279	1.439128	0.443988	0.918333	1.359705	-0.755127	0.567871	-0.861572	0.127830	0.008796	0.007340	0.768959	-0.223214	-0.596130	0.059221	-65.386868	-62.918586	51.686233
01852		14.298459	1.416808	0.710683	3.528071	6.624164	2.460310	0.397593	1.012526	1.439769	-0.753174	0.581299	-0.868408	0.142911	0.015184	0.006413	0.771228	-0.217800	-0.594010	0.070168	-64.563299	-62.333943	52.219717
01853		15.028413	1.716523	-0.620449	5.207119	6.972067	2.574979	0.239776	1.069031	1.520475	-0.739990	0.586182	-0.883789	0.150112	0.018315	-0.006986	0.774096	-0.221756	-0.588122	0.075575	-64.099867	-61.283509	51.849814
01854		14.835531	1.066832	-1.909988	6.260800	6.202530	2.320047	0.209835	1.027253	1.614629	-0.729248	0.601807	-0.883789	0.148162	0.011886	-0.019849	0.775690	-0.216312	-0.586372	0.087649	-63.480074	-60.664540	52.687513
01855		14.839921	1.739143	-2.515846	7.068399	6.837282	1.713760	0.372045	0.977821	1.721432	-0.720703	0.613037	-0.888184	0.148117	0.018715	-0.025849	0.778166	-0.220333	-0.580525	0.094353	-63.166295	-59.531791	52.571473
01856		15.446654	2.046992	-2.238117	6.926637	7.692549	2.046292	0.580232	0.968648	1.867488	-0.696533	0.624756	-0.901367	0.154155	0.021977	-0.023066	0.779201	-0.213170	-0.579168	0.109402	-62.564534	-58.863027	53.827681
01857		16.063252	3.006018	-1.950318	7.049082	9.084930	1.961458	0.802907	1.015245	2.033203	-0.690186	0.638184	-0.912354	0.160214	0.031771	-0.020192	0.781828	-0.216469	-0.572564	0.118558	-62.145125	-57.561295	53.875502
01858		16.544305	3.197476	-1.928006	6.974346	9.811074	2.134781	0.987516	1.045126	2.183527	-0.679199	0.647461	-0.925537	0.164977	0.033875	-0.019979	0.782370	-0.207214	-0.571089	0.137174	-61.433446	-56.799263	55.508769
01859		17.289966	2.779351	-1.553766	6.963073	10.129360	2.756189	1.140322	1.073829	2.301811	-0.659424	0.656738	-0.943115	0.172478	0.029872	-0.016298	0.784963	-0.210042	-0.563667	0.148308	-60.923802	-55.347328	55.682004
01860		18.208779	2.782328	-1.523591	6.908587	10.976864	3.354767	1.355755	1.116764	2.401308	-0.639648	0.668213	-0.949707	0.181647	0.030113	-0.016052	0.784592	-0.198324	-0.562225	0.170250	-60.090789	-54.558310	57.702580
01861		17.306764	6.100913	-1.852233	6.868617	13.673441	0.483646	1.485502	1.194708	2.453302	-0.626221	0.670898	-0.965088	0.172188	0.063265	-0.019088	0.787241	-0.200385	-0.553774	0.182844	-59.399199	-52.999407	57.900392
01862		14.301313	7.433932	-2.691970	6.025447	13.593024	-3.034344	1.109200	1.097041	2.373091	-0.615479	0.682129	-0.971680	0.141968	0.076179	-0.027281	0.784845	-0.187440	-0.553614	0.205902	-58.760009	-52.355308	60.340545
01863		12.700405	4.788886	-4.141351	7.205373	10.591446	-3.706955	0.129048	0.692561	2.144858	-0.597900	0.697998	-0.973877	0.126336	0.049273	-0.041820	0.784625	-0.193571	-0.548718	0.214013	-59.059619	-51.098191	60.816345
01864		12.673410	2.111584	-4.260887	7.209449	8.714825	-2.376267	-0.416104	0.472290	1.844773	-0.589355	0.707031	-0.976074	0.126432	0.022194	-0.042953	0.778069	-0.182714	-0.554100	0.232803	-59.521598	-51.003394	63.828176
01865		10.737366	-2.152839	-4.218026	7.329146	4.262028	-1.698941	-0.209144	0.471202	1.886774	-0.580566	0.713867	-0.978271	0.107471	-0.020559	-0.042412	0.776950	-0.189294	-0.550761	0.239121	-60.018228	-49.933646	64.316695
01866		9.952218	-5.127945	-1.953458	5.333647	1.743960	0.069880	-0.110589	0.516209	2.003295	-0.563232	0.725342	-0.978271	0.099978	-0.050290	-0.019764	0.769523	-0.177800	-0.555912	0.259197	-60.435666	-49.765187	67.464014
01867		9.734400	-10.057327	-0.570592	5.015313	-2.107980	3.095810	0.115109	0.659679	2.121061	-0.550293	0.743408	-0.984863	0.098384	-0.099530	-0.006087	0.768663	-0.184096	-0.551305	0.267073	-60.679753	-48.521319	67.873913
01868		5.195745	-1.017935	-1.689614	2.989277	2.511098	-5.857368	0.495311	0.885325	1.477880	-0.543701	0.745850	-0.993652	0.051955	-0.009753	-0.017151	0.763020	-0.171466	-0.554256	0.284956	-60.496832	-48.425719	70.345149
01869		6.101987	1.935362	-2.617806	3.359212	5.480570	-7.260986	0.531051	0.662211	0.983021	-0.534668	0.743896	-0.995850	0.060837	0.019723	-0.026328	0.763894	-0.173103	-0.550119	0.289603	-60.135993	-47.748799	70.269137
01870		1.794415	7.334296	-2.797441	0.921482	7.038264	-13.614140	0.160262	0.397523	0.430007	-0.532227	0.741699	-1.000244	0.017731	0.073404	-0.027951	0.757611	-0.158771	-0.556069	0.302662	-60.154777	-48.284670	72.656428
01871		0.940479	6.953930	-0.718968	-1.099402	5.993618	-13.366054	-0.017208	0.155644	0.099132	-0.532471	0.748291	-1.000244	0.009365	0.069543	-0.007203	0.757880	-0.159346	-0.555428	0.302864	-60.109638	-48.191330	72.582693
01872		-0.259231	4.967577	0.776471	-2.300109	3.516106	-12.586380	-0.456793	-0.082216	-0.215917	-0.539063	0.745850	-0.998047	-0.002542	0.049696	0.007650	0.750425	-0.144491	-0.564344	0.312250	-60.562136	-49.179535	75.104945
01873		-0.770004	3.779408	-0.103729	-1.170028	2.423393	-12.577764	-0.795898	-0.403851	-0.612982	-0.543457	0.741455	-0.982666	-0.007582	0.037813	-0.001203	0.749657	-0.145113	-0.567538	0.307989	-61.053896	-49.599358	75.152022
01874		-0.796035	3.986333	-1.113994	-0.336136	2.758092	-12.982089	-0.852210	-0.649095	-1.081417	-0.554932	0.745605	-0.974121	-0.007708	0.039857	-0.011335	0.741937	-0.128919	-0.578941	0.312628	-61.820514	-51.120556	77.656488
01875		-0.575748	4.386692	-1.147835	-0.354265	3.253475	-13.003428	-0.829487	-0.795243	-1.579853	-0.568115	0.736328	-0.960938	-0.005365	0.043862	-0.011682	0.741535	-0.126171	-0.584180	0.304862	-62.268109	-52.134111	77.621179
01876		-0.415733	4.242302	-1.122625	-0.373195	3.314949	-12.693862	-0.810436	-0.929231	-2.064616	-0.583252	0.720459	-0.958496	-0.003667	0.042417	-0.011416	0.734775	-0.106756	-0.596170	0.305435	-62.923723	-54.182743	79.904168
01877		0.041192	3.704900	-1.131769	-0.100842	3.216813	-11.969027	-0.808209	-1.107869	-2.535792	-0.603271	0.715576	-0.943359	0.000944	0.036993	-0.011463	0.734838	-0.100461	-0.602767	0.294267	-63.256152	-55.766036	79.744606
01878		0.960127	3.053295	-1.264703	0.242064	3.293692	-10.780077	-0.778204	-1.290961	-2.965040	-0.629395	0.695068	-0.927979	0.010134	0.030336	-0.012701	0.728488	-0.077662	-0.615211	0.291187	-63.898514	-58.333499	81.957065
01879		2.183965	2.708392	-1.204628	0.415439	3.639387	-9.442596	-0.670370	-1.423867	-3.341008	-0.644531	0.679199	-0.916748	0.022373	0.026673	-0.011978	0.728588	-0.067739	-0.622566	0.277457	-64.103773	-60.412115	81.749214
01880		3.721368	3.136769	-0.731838	-0.212690	4.564624	-7.985307	-0.461582	-1.467601	-3.705501	-0.666016	0.649658	-0.899170	0.037839	0.030654	-0.007114	0.722798	-0.041077	-0.633886	0.272147	-64.486979	-63.378346	83.818678
01881		5.525761	3.692945	0.115683	-1.095470	5.488779	-6.227690	-0.247972	-1.479253	-4.010254	-0.694092	0.620361	-0.892578	0.055973	0.035814	0.001524	0.723350	-0.027239	-0.640249	0.257108	-64.140122	-65.816876	83.277502
01882		7.158595	3.306277	0.738126	-1.678782	5.320698	-4.192750	-0.125100	-1.532851	-4.239291	-0.713379	0.593262	-0.879150	0.072206	0.031541	0.007913	0.717822	0.002956	-0.649544	0.250631	-64.081235	-69.066376	85.094233
01883		8.605606	2.209425	1.860119	-2.265386	4.205340	-2.094690	-0.125086	-1.589764	-4.405396	-0.732178	0.557373	-0.861572	0.086364	0.020206	0.019274	0.717984	0.018807	-0.655164	0.234319	-63.304233	-71.733346	84.193585
01884		9.846729	1.144157	3.080665	-3.106453	2.621417	-0.261892	-0.336802	-1.708890	-4.533170	-0.751221	0.528076	-0.850342	0.098426	0.009263	0.031631	0.711997	0.049682	-0.663090	0.225619	-63.143635	-75.162102	85.786224
01885		11.154809	0.805958	3.288941	-3.134428	2.091507	1.217903	-0.692322	-1.884217	-4.592081	-0.772461	0.494141	-0.823975	0.111379	0.005617	0.033917	0.710879	0.064554	-0.669230	0.206436	-62.531674	-77.996511	84.749500
01886		13.079320	-0.122520	3.202393	-2.761881	0.875502	3.336895	-1.121854	-2.006508	-4.605135	-0.789307	0.464844	-0.806396	0.130391	-0.004046	0.033351	0.704256	0.092637	-0.676670	0.193802	-63.028527	-81.495615	86.465359
01887		14.728229	-2.131630	3.528378	-2.283577	-1.503826	5.233725	-1.508596	-2.022245	-4.558434	-0.803955	0.433350	-0.781982	0.146382	-0.024385	0.036943	0.702291	0.104678	-0.682912	0.171643	-62.578486	-84.348960	85.141083
01888		15.581378	-5.057542	3.306467	-0.956165	-4.942418	6.121405	-1.819521	-2.034643	-4.412903	-0.812012	0.408691	-0.760010	0.154302	-0.053678	0.035119	0.695993	0.128366	-0.689046	0.155987	-64.280183	-87.692040	87.483725
01889		16.424758	-8.224097	2.639484	0.738779	-8.323077	6.755028	-1.966702	-2.019437	-4.167370	-0.824463	0.381836	-0.735596	0.162207	-0.085359	0.028869	0.693328	0.137416	-0.694715	0.133362	119.925742	-89.652785	-97.848598
01890		17.171825	-11.014161	1.538093	2.783183	-11.344129	6.981285	-1.905061	-1.945278	-3.891502	-0.834717	0.354736	-0.713623	0.169367	-0.113289	0.018105	0.687474	0.156086	-0.699450	0.117414	118.361523	-86.719215	-96.050515
01891		17.628299	-12.659613	0.954907	3.703262	-13.423643	6.859272	-1.601153	-1.703917	-3.614409	-0.843018	0.334717	-0.695801	0.173862	-0.129663	0.012067	0.684727	0.164190	-0.703264	0.098031	116.350808	-84.430578	-94.954277
01892		17.332569	-13.330525	0.813916	4.060893	-14.648123	5.924792	-1.078418	-1.378988	-3.341043	-0.844238	0.307861	-0.684814	0.171002	-0.136124	0.010053	0.680367	0.179367	-0.705458	0.085192	115.726455	-82.096719	-94.110598
01893		16.146078	-13.558839	0.766085	4.106185	-15.219468	4.208468	-0.559747	-1.080124	-3.013087	-0.849854	0.281006	-0.675781	0.159348	-0.137976	0.008909	0.678252	0.188530	-0.706576	0.071984	114.313583	-80.269882	-93.005559
01894		14.760569	-13.296636	1.031843	3.798339	-15.245857	2.387719	-0.274997	-0.836705	-2.685261	-0.855957	0.260986	-0.669189	0.145758	-0.134917	0.011115	0.675253	0.199636	-0.707281	0.062713	113.910010	-78.587055	-92.420687
01895		13.495129	-13.272742	1.274682	3.572753	-15.367300	0.721666	-0.194489	-0.757177	-2.329546	-0.853271	0.249756	-0.656006	0.133343	-0.134274	0.013384	0.673448	0.207443	-0.707520	0.053396	113.167923	-77.189452	-91.775745
01896		12.328703	-11.974045	0.794652	3.499972	-13.984539	-0.422355	-0.116040	-0.684721	-1.982824	-0.852783	0.234375	-0.649170	0.122064	-0.120950	0.008436	0.670988	0.213008	-0.708747	0.045619	113.328623	-76.061590	-92.095154
01897		15.207914	-8.792238	0.500646	2.588351	-11.908938	2.848442	-0.003882	-0.715146	-1.662197	-0.854248	0.218750	-0.646973	0.151322	-0.089182	0.005550	0.668808	0.219043	-0.709348	0.039261	113.323185	-75.024163	-92.091854
01898		20.406278	-13.336138	8.105220	-3.053044	-20.126433	5.857767	0.041024	-0.284578	-0.997106	-0.852051	0.218750	-0.646973	0.203279	-0.134393	0.081314	0.667634	0.219366	-0.710585	0.034822	113.551834	-74.600739	-92.652311
01899		26.344757	-24.112200	19.557952	-10.105579	-35.296532	7.793241	-1.131692	0.319172	0.706488	-0.852295	0.225342	-0.646973	0.264608	-0.239078	0.196515	0.669869	0.213021	-0.710476	0.033505	112.872092	-75.044187	-92.619875
01900		16.504807	-5.115153	1.133053	0.207101	-9.115088	4.908746	-2.780015	-0.460438	1.247365	-0.853027	0.240967	-0.638184	0.165334	-0.049953	0.012411	0.671592	0.190760	-0.715550	0.023731	113.534629	-75.970034	-95.954847
01901		16.729506	14.411228	-3.818337	-1.072091	10.460356	9.975358	-1.963712	-0.353649	0.470310	-0.848633	0.245361	-0.631836	0.167025	0.144123	-0.039303	0.672107	0.182518	-0.717383	0.017942	113.591281	-76.135411	-97.172548
01902		16.217837	8.703479	4.951931	-7.644194	3.215343	7.348740	-0.543886	0.462740	0.841427	-0.846924	0.256592	-0.645020	0.161924	0.087850	0.048906	0.674616	0.170858	-0.717935	0.016448	113.331557	-76.977290	-98.010308
01903		14.172093	-1.184164	1.453097	-1.552996	-4.554721	3.648420	-0.558409	0.062147	1.332998	-0.845215	0.274414	-0.640625	0.141800	-0.010856	0.014518	0.675187	0.164183	-0.718892	0.018988	114.237437	-77.689965	-99.266716
01904		11.890902	-3.383055	-6.865891	6.999281	-3.993170	1.808062	-0.993932	-0.396992	1.442903	-0.843262	0.281006	-0.629639	0.119286	-0.033311	-0.068256	0.674917	0.149802	-0.722317	0.017452	116.530507	-78.590022	-102.878365
01905		9.472838	-4.047488	-0.220788	0.739890	-5.593283	-1.191089	-0.618453	-0.022003	1.217014	-0.841797	0.296631	-0.636475	0.094973	-0.039904	-0.002073	0.675177	0.143322	-0.723341	0.019305	117.857311	-79.203950	-104.591586
01906		10.401778	-5.910978	2.586502	-1.715398	-8.018419	-0.724917	0.050065	0.152139	1.076416	-0.842041	0.303223	-0.636475	0.104354	-0.058555	0.025771	0.675904	0.134382	-0.724326	0.021138	119.488505	-80.007718	-106.813056
01907		10.021516	-1.725081	-0.203507	0.081385	-3.240361	-0.172103	0.223836	0.187181	0.844424	-0.844482	0.309814	-0.636475	0.100285	-0.016825	-0.002148	0.676334	0.132062	-0.724231	0.024924	120.482868	-80.479804	-107.691903
01908		9.696043	0.556798	-1.334198	0.679621	-0.638111	-0.053902	0.214822	0.188807	0.672273	-0.844727	0.314209	-0.640869	0.096928	0.005908	-0.013427	0.677174	0.125271	-0.724613	0.026039	121.711275	-81.078779	-109.389868
01909		10.924916	-0.453569	-1.085323	0.596112	-1.774250	1.014761	0.183940	0.183437	0.651145	-0.840332	0.321045	-0.638672	0.109253	-0.004170	-0.010957	0.677633	0.123513	-0.724373	0.029021	122.528282	-81.450068	-110.109864
01910		10.770934	1.011327	-0.600097	-0.189944	-0.326598	1.015645	0.297091	0.166833	0.610382	-0.840332	0.321045	-0.645264	0.107673	0.010451	-0.006075	0.678276	0.118045	-0.724618	0.030576	123.962450	-81.972665	-111.867827
01911		10.544255	-0.198637	-0.119550	-0.390187	-1.505796	0.618761	0.307051	0.101972	0.541806	-0.840820	0.329834	-0.647705	0.105447	-0.001699	-0.001252	0.678376	0.117110	-0.724543	0.033583	125.060822	-82.261014	-112.799100
01912		9.835668	0.232967	-0.341633	-0.239035	-0.872754	-0.010017	0.314331	0.057873	0.425317	-0.838379	0.329834	-0.645508	0.098350	0.002544	-0.003441	0.678615	0.113015	-0.724914	0.034767	126.622935	-82.627831	-114.601563
01913		9.933029	0.649734	0.051210	-0.723376	-0.521954	0.101647	0.205808	-0.032487	0.334668	-0.836182	0.325439	-0.645264	0.099319	0.006663	0.000535	0.678320	0.112509	-0.725177	0.036626	127.760933	-82.768784	-115.630014
01914		10.385957	1.155736	-1.025518	0.185571	0.191067	0.684195	0.119966	-0.034781	0.205472	-0.840820	0.332031	-0.643311	0.103849	0.011670	-0.010230	0.678349	0.109079	-0.725679	0.036516	129.035273	-82.975753	-117.194728
01915		10.079115	1.069000	-1.723483	0.898780	0.298920	0.424721	0.118222	0.067591	0.131361	-0.836670	0.338867	-0.647705	0.100778	0.010766	-0.017263	0.678504	0.108993	-0.725501	0.037424	129.245281	-83.058031	-117.338098
01916		9.705546	1.199854	-1.477478	0.663375	0.449405	0.045210	0.153579	0.216010	0.095118	-0.843018	0.334229	-0.652100	0.097034	0.012056	-0.014870	0.679382	0.106600	-0.725034	0.037448	129.288345	-83.281964	-117.575877
01917		9.154077	0.876916	-1.260739	0.564537	0.163989	-0.549322	0.137786	0.226611	0.103634	-0.840820	0.334473	-0.649902	0.091522	0.008825	-0.012705	0.680108	0.106652	-0.724295	0.038417	128.823440	-83.409348	-117.028373
01918		9.185777	-0.000436	-1.215172	0.710171	-0.677453	-0.599011	0.101025	0.138753	0.074817	-0.841064	0.336670	-0.649902	0.091849	0.000036	-0.012215	0.680683	0.104636	-0.724052	0.038343	129.004300	-83.577622	-117.380785
01919		9.311255	-0.146771	-1.251400	0.777977	-0.816216	-0.484475	0.158341	0.090586	0.047007	-0.840820	0.334473	-0.658691	0.093107	-0.001436	-0.012557	0.680917	0.104990	-0.723739	0.039120	128.885675	-83.630666	-117.170161
01920		9.283942	0.569582	-1.416910	0.798569	-0.064065	-0.438158	0.240015	0.071876	0.009059	-0.843018	0.332275	-0.663086	0.092834	0.005717	-0.014196	0.681156	0.103972	-0.723645	0.039415	129.179266	-83.734646	-117.523416
01921		9.800141	1.067926	-1.402181	0.660663	0.374269	0.115696	0.232851	0.078050	0.009749	-0.845215	0.329834	-0.656494	0.097995	0.010700	-0.014048	0.681314	0.104716	-0.723339	0.040328	129.027721	-83.766664	-117.236790
01922		9.506809	1.768658	-1.208515	0.345779	1.063738	-0.131934	0.188329	0.063512	0.031559	-0.849609	0.329834	-0.660889	0.095061	0.017713	-0.012099	0.681507	0.103753	-0.723278	0.040646	129.369559	-83.864963	-117.631779
01923		9.606736	2.420232	-0.844959	-0.148292	1.622607	-0.004221	0.121987	0.028596	0.050140	-0.843018	0.332275	-0.658691	0.096060	0.024232	-0.008449	0.681535	0.103984	-0.723183	0.041270	129.491400	-83.897042	-117.684062
01924		10.208565	2.315826	-0.263960	-0.724808	1.368515	0.543438	0.104602	0.023111	0.123533	-0.845459	0.334473	-0.663086	0.102071	0.023223	-0.002639	0.681579	0.102751	-0.723292	0.041713	130.219244	-84.006788	-118.476976
01925		9.959556	2.474252	-0.372928	-0.640592	1.583066	0.313382	0.086995	0.040042	0.174043	-0.847656	0.336426	-0.663086	0.099573	0.024831	-0.003738	0.681641	0.102413	-0.723228	0.042638	130.722544	-84.097027	-118.932923
01926		10.126038	1.658615	-0.605312	-0.255007	0.849894	0.427755	0.107192	0.050346	0.249248	-0.847656	0.338623	-0.658691	0.101238	0.016716	-0.006070	0.681751	0.100985	-0.723267	0.043613	131.766663	-84.259306	-120.014780
01927		9.881202	1.854706	-0.874914	-0.020706	1.144934	0.213886	0.148657	0.084246	0.286817	-0.843262	0.338867	-0.667480	0.098782	0.018695	-0.008777	0.681915	0.100439	-0.723093	0.045168	132.603543	-84.412982	-120.770210
01928		10.324328	0.535737	-0.808770	0.165771	-0.150685	0.554692	0.202792	0.124494	0.362181	-0.847656	0.338867	-0.669678	0.103228	0.005553	-0.008146	0.682205	0.099109	-0.722888	0.046981	133.905909	-84.640116	-122.034231
01929		9.628499	1.504791	-1.156006	0.341477	0.961427	-0.052173	0.242985	0.146417	0.377476	-0.847900	0.341064	-0.669678	0.096248	0.015244	-0.011612	0.682521	0.098541	-0.722518	0.049217	135.041376	-84.852721	-123.034717
01930		9.791994	1.371980	-1.656927	0.852592	0.969644	0.129324	0.264700	0.148805	0.394888	-0.843506	0.345459	-0.678467	0.097880	0.013935	-0.016624	0.682841	0.097429	-0.722213	0.051430	136.609329	-85.092444	-124.514004
01931		9.510826	1.242207	-1.814172	1.050146	0.940225	-0.153334	0.269093	0.172644	0.397012	-0.850342	0.347656	-0.676270	0.095068	0.012635	-0.018207	0.683227	0.096871	-0.721747	0.053839	137.955156	-85.318945	-125.709872
01932		9.434874	0.369598	-1.174559	0.619334	0.005984	-0.317989	0.225882	0.164154	0.384189	-0.847900	0.343262	-0.680664	0.094332	0.003891	-0.011819	0.683579	0.095851	-0.721387	0.055976	139.643201	-85.546372	-127.307756
01933		9.327261	0.627032	-1.107945	0.510554	0.288141	-0.417225	0.200795	0.165977	0.335619	-0.850342	0.349854	-0.685059	0.093253	0.006438	-0.011150	0.683984	0.095283	-0.720924	0.057924	140.900605	-85.741930	-128.453458
01934		9.589628	0.406623	-0.926404	0.373499	0.057241	-0.177250	0.175070	0.140143	0.319781	-0.845947	0.352295	-0.678467	0.095883	0.004228	-0.009328	0.684272	0.094406	-0.720623	0.059683	142.571739	-85.925866	-130.053399
01935		9.640872	0.792919	-0.371960	-0.249756	0.345244	-0.141502	0.140046	0.104854	0.320212	-0.841553	0.356689	-0.689453	0.096394	0.008086	-0.003765	0.684485	0.093702	-0.720374	0.061330	144.246553	-86.082994	-131.651894
01936		9.504735	1.257495	-0.242676	-0.473683	0.811366	-0.268191	0.030158	0.030671	0.316967	-0.852783	0.356445	-0.682861	0.095027	0.012726	-0.002439	0.684443	0.092421	-0.720477	0.062519	146.606897	-86.205146	-134.020097
01937		9.784660	0.805426	-0.136907	-0.496671	0.364347	-0.013325	-0.074465	-0.018381	0.316977	-0.848389	0.358887	-0.682861	0.097834	0.008209	-0.001363	0.684309	0.091033	-0.720711	0.063325	148.991615	-86.292555	-136.452728
01938		9.810242	0.684761	-0.091799	-0.526943	0.268691	0.004044	-0.204254	-0.069762	0.340828	-0.848877	0.367676	-0.689453	0.098091	0.007014	-0.000891	0.684010	0.088948	-0.721221	0.063708	152.051208	-86.356112	-139.651293
01939		9.448146	0.804278	-0.884282	0.224870	0.598345	-0.310707	-0.344075	-0.108101	0.335440	-0.857910	0.367432	-0.685303	0.094473	0.008186	-0.008806	0.683663	0.086598	-0.721849	0.063564	154.999227	-86.385900	-142.802808
01940		9.765742	0.327984	-1.089050	0.494879	0.192232	0.004714	-0.397575	-0.096372	0.345197	-0.848877	0.367676	-0.682861	0.097657	0.003427	-0.010850	0.683344	0.083891	-0.722496	0.063262	158.190800	-86.413590	-146.239656
01941		10.062245	0.525832	-1.466469	0.797042	0.482922	0.326703	-0.340142	-0.008846	0.378212	-0.846924	0.376465	-0.678711	0.100613	0.005424	-0.014669	0.683331	0.081368	-0.722792	0.063319	161.296240	-86.483452	-149.546369
01942		10.349570	1.315264	-1.881805	1.026489	1.368655	0.649514	-0.186265	0.132984	0.400149	-0.851563	0.378662	-0.680908	0.103457	0.013342	-0.018899	0.683710	0.079180	-0.722608	0.064100	164.627668	-86.619066	-152.992834
01943		10.468018	1.023252	-1.023637	0.249369	0.952114	0.708974	-0.005686	0.187332	0.443822	-0.854004	0.385254	-0.680908	0.104647	0.010464	-0.010335	0.684243	0.077499	-0.722145	0.065668	168.477195	-86.782280	-156.852046
01944		10.184194	0.814533	-0.371598	-0.323170	0.673506	0.383443	0.039141	0.207098	0.469146	-0.851807	0.387695	-0.687500	0.101819	0.008385	-0.003820	0.684743	0.075938	-0.721659	0.067588	173.081376	-86.932800	-161.427395
01945		9.767686	0.793333	0.159886	-0.809291	0.603552	-0.063677	0.043350	0.164497	0.496066	-0.852051	0.394287	-0.687500	0.097658	0.008175	0.001520	0.685148	0.074243	-0.721269	0.069502	178.358232	-87.047765	-166.686694
01946		9.625550	1.040341	0.432329	-1.115921	0.841716	-0.222773	-0.038281	0.126349	0.496334	-0.854492	0.398682	-0.687500	0.096232	0.010643	0.004260	0.685381	0.072369	-0.721073	0.071195	-176.055390	-87.106034	-172.288011
01947		10.087070	0.047952	0.211556	-0.721238	-0.037026	0.250823	-0.116474	0.108442	0.522894	-0.856934	0.400879	-0.687500	0.100870	0.000744	0.002060	0.685624	0.070048	-0.720931	0.072603	-170.069605	-87.131278	-178.348217
01948		10.143358	0.583587	-0.781670	0.141954	0.741114	0.349480	-0.118088	0.149222	0.528872	-0.845947	0.407715	-0.689697	0.101412	0.006099	-0.007896	0.685971	0.067761	-0.720668	0.074097	-163.892827	-87.141713	175.410252
01949		10.412202	0.410941	-1.322819	0.699991	0.737664	0.641892	-0.065518	0.198257	0.540342	-0.850586	0.414307	-0.689941	0.104097	0.004386	-0.013333	0.686502	0.065517	-0.720194	0.075778	-157.326822	-87.145899	168.798473
01950		10.375491	0.666165	-1.047808	0.392914	0.993240	0.582082	-0.024606	0.262352	0.582740	-0.848633	0.420898	-0.696533	0.103721	0.006963	-0.010615	0.687175	0.063386	-0.719520	0.077865	-150.150780	-87.128264	161.618820
01951		10.451907	0.526898	-1.126943	0.511769	0.941170	0.658312	-0.003538	0.316247	0.627135	-0.851074	0.425537	-0.700928	0.104484	0.005596	-0.011435	0.688064	0.060996	-0.718631	0.080104	-142.262632	-87.078811	153.718546
01952		10.232988	0.851907	-1.207007	0.554815	1.341215	0.423986	0.035458	0.355997	0.656856	-0.849121	0.436523	-0.703125	0.102279	0.008857	-0.012251	0.688989	0.058854	-0.717625	0.082730	-134.431168	-86.978548	145.926748
01953		10.352990	0.623326	-1.006768	0.423080	1.156302	0.534772	0.107700	0.400416	0.679098	-0.844971	0.443359	-0.705322	0.103488	0.006590	-0.010271	0.690106	0.056624	-0.716397	0.085571	-126.475325	-86.831050	138.021084
01954		10.828391	0.237756	-0.924111	0.425863	0.860815	1.015122	0.214779	0.453944	0.727657	-0.840576	0.445557	-0.711914	0.108253	0.002782	-0.009484	0.691253	0.054908	-0.714986	0.089160	-118.868511	-86.622995	130.567446
01955		10.626812	0.887421	-1.178598	0.583968	1.629542	0.775442	0.315971	0.507400	0.761992	-0.838867	0.456787	-0.714111	0.106203	0.009298	-0.012041	0.692631	0.053051	-0.713294	0.093058	-111.383136	-86.350808	123.249377
01956		10.918023	0.418479	-0.605456	0.141526	1.162450	1.067231	0.406105	0.548494	0.819163	-0.841064	0.461182	-0.725342	0.109145	0.004645	-0.006345	0.693962	0.051721	-0.711472	0.097717	-104.771486	-86.011334	116.910279
01957		10.863439	0.376155	-0.456959	0.045829	1.190886	1.001340	0.453497	0.582311	0.876350	-0.832275	0.465820	-0.731934	0.108603	0.004248	-0.004877	0.695475	0.049895	-0.709447	0.102517	-98.677715	-85.587253	111.060658
01958		10.857620	0.617254	-0.610742	0.180370	1.565707	0.964914	0.489073	0.609399	0.936822	-0.832520	0.470459	-0.740723	0.108526	0.006696	-0.006422	0.696882	0.048469	-0.707361	0.107917	-93.641847	-85.107263	106.351113
01959		11.038879	0.496906	-0.924000	0.547966	1.653092	1.138251	0.506925	0.638752	1.003984	-0.823975	0.481689	-0.740723	0.110332	0.005547	-0.009579	0.698461	0.046341	-0.705092	0.113358	-89.159919	-84.541139	102.142501
01960		11.267606	0.527620	-1.555499	1.188604	1.976353	1.337929	0.577895	0.682897	1.078518	-0.822266	0.499512	-0.751709	0.112591	0.005929	-0.015923	0.699937	0.044788	-0.702689	0.119626	-85.420004	-83.929090	98.791223
01961		11.778194	0.403221	-1.077766	0.789442	1.948822	1.833194	0.655967	0.735226	1.168057	-0.817627	0.497314	-0.758301	0.117715	0.004756	-0.011196	0.701653	0.042541	-0.699966	0.126176	-81.981024	-83.217831	95.708749
01962		11.752942	0.780757	-0.508082	0.187762	2.330044	1.742938	0.709313	0.785210	1.252705	-0.813721	0.508545	-0.769287	0.117456	0.008562	-0.005513	0.703211	0.040924	-0.697113	0.133613	-79.131176	-82.467932	93.340675
01963		12.590920	0.593694	-0.378978	0.154125	2.405282	2.565312	0.731654	0.848453	1.350090	-0.805420	0.526611	-0.776123	0.125848	0.006802	-0.004300	0.705088	0.038225	-0.693893	0.141076	-76.484164	-81.609462	91.091226
01964		13.700548	0.472810	0.103231	-0.232459	2.526225	3.659461	0.759415	0.918930	1.466783	-0.791992	0.533691	-0.795654	0.136969	0.005730	0.000423	0.706800	0.036084	-0.690491	0.149512	-74.251687	-80.704351	89.383834
01965		14.711284	2.354239	0.380836	-0.924669	4.642893	4.318559	0.785722	1.003366	1.563290	-0.781250	0.544922	-0.800293	0.146940	0.024678	0.003166	0.708916	0.032714	-0.686607	0.157920	-72.118122	-79.681016	87.675533
01966		15.215119	2.713103	-0.282993	-0.329412	5.490612	4.633012	0.691878	1.060297	1.661736	-0.777100	0.556152	-0.809082	0.151901	0.028405	-0.003539	0.710787	0.029747	-0.682675	0.166888	-70.383479	-78.638012	86.447758
01967		15.345772	2.151745	-0.759365	0.350112	5.398654	4.727693	0.683342	1.061326	1.804197	-0.770996	0.569580	-0.824463	0.153212	0.022928	-0.008330	0.712758	0.025133	-0.678562	0.175777	-68.993885	-77.457937	85.427602
01968		15.368288	2.837433	-0.892115	0.313341	6.366439	4.483881	0.815106	1.076314	1.913962	-0.758057	0.583252	-0.837646	0.153351	0.029881	-0.009627	0.714171	0.022081	-0.674393	0.186187	-67.844779	-76.284983	84.904948
01969		16.098405	2.679149	-0.728340	0.264031	6.667637	5.097989	0.856557	1.085983	2.041503	-0.742676	0.596924	-0.844238	0.160657	0.028466	-0.008037	0.715782	0.017246	-0.669895	0.196468	-66.870944	-74.966413	84.406286
01970		16.627769	3.311896	-0.753637	0.110145	7.720281	5.299910	0.903005	1.120015	2.171542	-0.734131	0.608398	-0.861816	0.165860	0.034958	-0.008311	0.716714	0.014017	-0.665400	0.208251	-66.065256	-73.666346	84.337142
01971		16.996495	3.911456	-1.236091	0.409870	8.885419	5.239665	0.941452	1.121946	2.294235	-0.720947	0.617432	-0.866211	0.169429	0.041121	-0.013122	0.717924	0.008592	-0.660500	0.219660	-65.378125	-72.204336	84.182621
01972		17.521984	4.632460	-1.261676	0.161589	10.058497	5.315217	0.991123	1.133153	2.369589	-0.699219	0.637939	-0.883789	0.174580	0.048461	-0.013370	0.718207	0.005530	-0.655766	0.232635	-64.792904	-70.825841	84.460800
01973		17.683455	4.679985	-1.560397	0.420608	10.641378	5.140778	1.057587	1.132161	2.417214	-0.683838	0.647217	-0.888184	0.176160	0.049017	-0.016347	0.719003	0.000088	-0.650472	0.244787	-64.216611	-69.297101	84.492342
01974		17.203872	4.502663	-2.287598	1.043586	10.907568	4.378727	1.143348	1.135935	2.446226	-0.675537	0.662842	-0.910400	0.171337	0.047259	-0.023585	0.718616	-0.002041	-0.645465	0.258769	-63.673638	-67.915049	84.991063
01975		16.469233	3.436327	-2.825407	1.876251	10.266099	3.681602	1.081150	1.043639	2.423307	-0.659912	0.669922	-0.914551	0.164109	0.036509	-0.028918	0.718786	-0.007323	-0.640229	0.270924	-63.257012	-66.406314	85.211119
01976		16.055256	3.475326	-2.091522	1.035197	10.202238	3.189293	0.702080	0.897004	2.347355	-0.642578	0.683594	-0.932129	0.160034	0.036708	-0.021507	0.717101	-0.009754	-0.636671	0.283411	-63.230201	-65.173829	86.086219
01977		13.401865	4.253933	-2.956765	1.406036	10.319496	0.085351	0.124567	0.680714	2.087435	-0.631836	0.699463	-0.927979	0.133463	0.043953	-0.029995	0.716272	-0.016912	-0.633916	0.291238	-63.552042	-63.930420	86.521612
01978		10.510011	0.602546	-4.459797	4.051964	6.740136	-1.514401	0.126352	0.581497	1.855147	-0.620850	0.701904	-0.936768	0.104908	0.007027	-0.044899	0.713753	-0.018801	-0.632432	0.300387	-63.892120	-63.063131	87.520895
01979		7.747904	-2.531652	-3.778727	4.623959	2.851861	-2.657179	0.563355	0.556896	1.871083	-0.609863	0.713135	-0.947754	0.077605	-0.024484	-0.038073	0.712720	-0.023539	-0.629393	0.308774	-63.925017	-61.960654	87.921778
01980		7.771156	-6.683586	-0.571330	3.405951	-1.449912	-0.237655	0.486438	0.528865	1.898023	-0.592041	0.715820	-0.945557	0.078325	-0.066080	-0.006081	0.709536	-0.023958	-0.627679	0.319380	-64.132358	-61.094519	89.048149
01981		7.052026	-7.836932	-0.651746	3.984193	-2.473529	-0.348173	0.767998	0.690605	1.855785	-0.590088	0.727051	-0.960938	0.071219	-0.077684	-0.007062	0.708791	-0.028155	-0.623748	0.328270	-63.887691	-59.966071	89.272501
01982		4.195363	1.897673	-1.200552	0.242551	4.038973	-7.308476	0.865771	0.659840	1.112017	-0.581299	0.729492	-0.965332	0.041807	0.019262	-0.012061	0.707096	-0.025301	-0.621045	0.337162	-63.430640	-59.453382	89.859110
01983		3.775740	4.913612	-2.762196	0.268288	6.769547	-9.451645	0.734940	0.363011	0.767988	-0.576660	0.725098	-0.976074	0.037518	0.049382	-0.027509	0.707010	-0.025695	-0.618419	0.342104	-63.030699	-58.967583	89.883679
01984		1.841376	7.303460	-1.076161	-2.421084	6.926220	-11.826403	0.276611	-0.005142	0.333440	-0.576660	0.729492	-0.978271	0.018292	0.073080	-0.010660	0.704301	-0.021208	-0.619191	0.346574	-63.158696	-59.036292	90.781978
01985		1.201485	5.642160	0.860942	-3.378876	4.554838	-11.174817	-0.034930	-0.248564	0.052541	-0.578857	0.727295	-0.971680	0.011989	0.056426	0.008614	0.703435	-0.021058	-0.620124	0.346672	-63.413655	-59.074209	91.055860
01986		0.079876	3.880890	0.209548	-2.000572	2.894081	-11.466039	-0.419018	-0.566101	-0.320584	-0.585693	0.727051	-0.967529	0.000855	0.038812	0.002017	0.700070	-0.015871	-0.624073	0.346674	-64.134237	-59.630811	92.187830
01987		-0.594981	3.287658	-1.374653	-0.293689	2.771939	-12.111019	-0.471453	-0.855300	-0.739999	-0.592529	0.729248	-0.960938	-0.005769	0.032866	-0.013849	0.698633	-0.013724	-0.627934	0.342670	-64.853120	-60.225333	92.706324
01988		-0.714058	3.510521	-1.708159	-0.110878	3.062371	-12.334733	-0.367579	-1.029525	-1.173921	-0.605469	0.717773	-0.954346	-0.006846	0.035114	-0.017182	0.695319	-0.004863	-0.633311	0.339744	-65.652760	-61.330477	93.946226
01989		-0.753991	3.559287	-1.227208	-0.545339	2.920331	-12.245153	-0.255860	-1.152563	-1.592750	-0.620850	0.704102	-0.945557	-0.007185	0.035635	-0.012360	0.694334	0.001255	-0.637763	0.333403	-66.231913	-62.433870	94.436580
01990		-0.520345	2.939556	-0.998989	-0.486319	2.498075	-11.665358	-0.139760	-1.304095	-2.020592	-0.636230	0.697021	-0.934570	-0.004841	0.029439	-0.010043	0.691482	0.014139	-0.643418	0.328124	-66.916247	-64.040487	95.677517
01991		0.073000	2.717222	-0.938858	-0.461116	2.593633	-10.965939	0.028556	-1.443156	-2.434209	-0.662598	0.676514	-0.919189	0.001128	0.027161	-0.009378	0.690761	0.024441	-0.648127	0.319660	-67.369080	-65.647786	96.195770
01992		1.164244	2.926132	-0.874945	-0.705942	3.188716	-9.939496	0.252053	-1.545954	-2.817623	-0.681885	0.654053	-0.912354	0.012120	0.029104	-0.008620	0.688176	0.041681	-0.653392	0.312657	-67.890055	-67.722993	97.480529
01993		2.329757	3.418647	-0.797143	-1.086446	3.966605	-8.899366	0.523743	-1.609763	-3.159262	-0.701172	0.629150	-0.903564	0.023897	0.033833	-0.007692	0.687636	0.056319	-0.657352	0.303107	-68.042329	-69.747901	97.965838
01994		3.877830	4.004568	-0.234015	-2.009648	4.599507	-7.377365	0.809862	-1.621488	-3.478757	-0.719971	0.593262	-0.894531	0.039483	0.039371	-0.001862	0.685290	0.077829	-0.661109	0.295390	-68.164639	-72.191226	99.151131
01995		5.596205	3.848231	0.777033	-2.898398	4.331772	-5.390185	0.949131	-1.673304	-3.718225	-0.736816	0.563965	-0.890137	0.056595	0.037395	0.008421	0.684730	0.095831	-0.663851	0.285066	-67.931842	-74.526566	99.475700
01996		6.966659	2.869347	2.061436	-3.576840	2.919911	-3.512840	0.914822	-1.777880	-3.868656	-0.760254	0.530273	-0.878906	0.070015	0.027245	0.021363	0.681885	0.119226	-0.666840	0.275940	-68.186052	-77.216842	100.846397
01997		8.570398	1.810452	2.571957	-3.472888	1.787910	-1.562033	0.773410	-1.888285	-3.991627	-0.781494	0.496582	-0.865723	0.085793	0.016291	0.026595	0.680463	0.137752	-0.669665	0.263709	-68.540409	-79.742771	101.660104
01998		10.450362	1.326112	2.699960	-3.341374	1.135687	0.472436	0.647345	-1.912274	-4.086797	-0.793457	0.456299	-0.847900	0.104480	0.011036	0.028037	0.677159	0.160879	-0.672226	0.252361	-69.886795	-82.571373	103.940535
01999		12.247818	0.922723	2.693686	-3.084169	0.513790	2.365708	0.582007	-1.907215	-4.088656	-0.807861	0.422607	-0.839111	0.122367	0.006644	0.028126	0.675263	0.178962	-0.674488	0.238869	-72.057746	-85.143988	106.458778
02000		13.720609	-0.266089	3.035643	-2.625727	-1.209171	3.940559	0.351249	-1.961576	-4.016298	-0.826660	0.388916	-0.821289	0.136809	-0.005466	0.031692	0.671514	0.200472	-0.676549	0.226189	-83.512937	-87.876490	118.638000
02001		15.070903	-1.950262	3.446989	-1.918276	-3.415206	5.268289	0.018618	-1.998909	-3.898812	-0.827881	0.357666	-0.801270	0.149936	-0.022434	0.035969	0.668981	0.215941	-0.679170	0.211097	172.149098	-89.085911	-136.997007
02002		15.916948	-3.670326	3.784738	-1.087577	-5.754075	5.897553	-0.311414	-2.013154	-3.715051	-0.838135	0.333008	-0.785889	0.158060	-0.039586	0.039502	0.665080	0.233600	-0.681505	0.196597	131.653109	-86.719169	-96.218571
02003		16.752441	-5.194014	3.720811	-0.104879	-7.657657	6.397578	-0.523855	-1.984553	-3.504688	-0.843994	0.310547	-0.765869	0.166200	-0.054760	0.039003	0.662236	0.245709	-0.684386	0.180793	126.413730	-84.439975	-91.265692
02004		17.309300	-6.595781	3.550951	0.930793	-9.436187	6.489937	-0.552238	-1.853028	-3.257337	-0.858643	0.279053	-0.750488	0.171649	-0.068660	0.037291	0.658531	0.259944	-0.686280	0.166689	124.172429	-82.109987	-88.969829
02005		17.396441	-7.213235	3.390636	1.440100	-10.438977	6.158561	-0.502927	-1.673008	-3.002677	-0.860107	0.256836	-0.737061	0.172564	-0.074642	0.035539	0.655846	0.269953	-0.688202	0.152869	122.911302	-80.145104	-87.985301
02006		16.985849	-7.132323	3.090765	1.713657	-10.678748	5.416935	-0.463914	-1.445808	-2.741855	-0.861816	0.243408	-0.730469	0.168630	-0.073567	0.032299	0.652915	0.281368	-0.688969	0.140910	121.864465	-78.229271	-86.927928
02007		16.593457	-7.005855	2.710354	1.985011	-10.720904	4.777442	-0.387848	-1.171415	-2.472383	-0.858887	0.225586	-0.712891	0.164889	-0.072047	0.028210	0.651104	0.289424	-0.689522	0.129833	120.901547	-76.669120	-86.169235
02008		15.772680	-7.300204	2.618039	2.298432	-11.085667	3.631114	-0.260724	-0.898629	-2.137894	-0.862793	0.207764	-0.710449	0.156815	-0.074647	0.026983	0.649354	0.298100	-0.689077	0.121035	120.032547	-75.255419	-85.256283
02009		14.517430	-7.872915	1.952429	3.187130	-11.123628	2.130880	-0.238604	-0.779978	-1.782354	-0.866699	0.196533	-0.697266	0.144387	-0.079994	0.020183	0.648068	0.303931	-0.689064	0.113249	119.461373	-74.145740	-84.805936
02010		13.801240	-7.630740	1.421278	3.508203	-10.659344	1.358155	-0.310498	-0.691355	-1.462597	-0.866455	0.185547	-0.695068	0.137399	-0.077291	0.014808	0.646764	0.309160	-0.689024	0.106591	119.072247	-73.172350	-84.495691
02011		13.058076	-7.139140	1.516750	3.132813	-10.275991	0.597278	-0.357622	-0.601838	-1.143359	-0.870361	0.174316	-0.686279	0.130123	-0.072108	0.015688	0.645837	0.312264	-0.689378	0.100721	118.817475	-72.430896	-84.443544
02012		11.930031	-6.357052	1.291148	2.834969	-9.324838	-0.356821	-0.401292	-0.543465	-0.840745	-0.868164	0.169922	-0.681885	0.118996	-0.064045	0.013363	0.644923	0.314302	-0.689996	0.095886	118.740821	-71.853474	-84.578959
02013		11.075991	-5.670810	0.598291	2.974005	-8.243104	-0.958358	-0.431244	-0.512616	-0.601607	-0.861328	0.172119	-0.677490	0.110573	-0.057027	0.006389	0.644112	0.315237	-0.690903	0.091644	118.769380	-71.408687	-84.869455
02014		10.553584	-4.389445	0.201839	2.543190	-6.929663	-1.083568	-0.392907	-0.429705	-0.427714	-0.861084	0.161133	-0.670654	0.105437	-0.044116	0.002332	0.643442	0.315305	-0.691933	0.088287	118.873608	-71.104693	-85.240679
02015		10.033334	-3.482666	0.347727	1.880705	-6.178052	-1.373964	-0.379248	-0.353617	-0.250974	-0.863525	0.165527	-0.672852	0.100283	-0.034946	0.003721	0.642922	0.315115	-0.692839	0.085602	118.968847	-70.879548	-85.571290
02016		12.005627	-2.738645	-0.108512	1.859498	-6.030780	0.761748	-0.344209	-0.416932	-0.100407	-0.863525	0.165527	-0.670654	0.120044	-0.027448	-0.000788	0.642115	0.313847	-0.694423	0.083456	119.346735	-70.766531	-86.236264
02017		14.108422	-4.765700	3.296146	0.100416	-10.102385	1.613404	-0.354220	-0.130071	0.209003	-0.859131	0.167725	-0.670654	0.141112	-0.047451	0.033137	0.642129	0.312044	-0.695314	0.082684	119.498712	-70.832940	-86.612156
02018		14.559876	-11.212663	6.800923	0.469567	-17.108987	-0.272108	-1.131427	0.001226	0.891765	-0.866211	0.176514	-0.677490	0.146096	-0.111089	0.068639	0.643678	0.304107	-0.697534	0.081507	119.641277	-71.360575	-87.560129
02019		16.861773	2.069205	9.045582	-8.561085	-8.149561	5.376366	-1.481225	0.593239	0.946801	-0.857666	0.189941	-0.677490	0.168782	0.022157	0.089795	0.647584	0.295790	-0.697638	0.080279	118.694336	-71.998647	-87.456687
02020		15.525718	9.057256	2.822940	-6.831002	1.379013	6.994416	-1.850044	0.369196	0.911759	-0.858154	0.203369	-0.679688	0.154892	0.091533	0.027099	0.651702	0.284160	-0.699042	0.076673	117.808997	-72.689838	-87.895911
02021		19.376526	6.057526	3.264281	-5.619862	-2.140545	9.850071	-1.581346	0.488116	1.204743	-0.854248	0.218994	-0.679932	0.193473	0.061994	0.031684	0.655156	0.274601	-0.699733	0.075753	117.133479	-73.430038	-88.136956
02022		14.539493	3.253716	1.959075	-3.167191	-2.158721	4.717460	-1.267896	0.419306	1.363124	-0.850098	0.230225	-0.686523	0.145208	0.033649	0.019075	0.658472	0.262934	-0.701142	0.075364	116.788659	-74.364654	-88.843557
02023		9.660961	1.596004	-2.992890	1.944109	0.154651	0.238906	-1.207025	0.129245	1.288080	-0.850586	0.241211	-0.684326	0.096486	0.016400	-0.030089	0.659998	0.254393	-0.702838	0.075532	117.078190	-75.054973	-89.860709
02024		8.096118	-2.744570	-1.115606	2.200692	-3.916946	-2.454841	-1.206831	0.062608	1.358936	-0.848877	0.252197	-0.679932	0.081142	-0.026962	-0.011018	0.661849	0.243023	-0.705190	0.074852	117.541803	-75.892514	-91.361231
02025		9.644770	-2.829997	1.378470	-0.074692	-5.347685	-1.191460	-0.911081	0.226749	1.321971	-0.856201	0.267578	-0.680176	0.096647	-0.027599	0.013802	0.663237	0.235261	-0.706364	0.076280	117.992365	-76.622097	-92.362505
02026		9.163168	-1.778457	-0.823020	1.407636	-3.271328	-1.145509	-0.341312	0.496205	1.075551	-0.849854	0.279053	-0.691162	0.091705	-0.017306	-0.008428	0.665604	0.227396	-0.706501	0.078222	117.888255	-77.441498	-92.774542
02027		9.780647	-0.986788	-2.437287	2.530209	-1.937562	-0.199253	0.043453	0.597660	0.897348	-0.845215	0.279053	-0.697754	0.097776	-0.009424	-0.024667	0.667303	0.224140	-0.705506	0.082033	117.619955	-78.054808	-92.474567
02028		10.269858	-0.468346	-2.068453	1.981393	-1.615903	0.357363	0.053906	0.554378	0.793122	-0.841064	0.288086	-0.706543	0.102658	-0.004271	-0.020970	0.669453	0.218599	-0.704907	0.084580	117.258032	-78.748966	-92.377988
02029		10.307058	0.016876	-1.664444	1.424687	-1.269124	0.452066	0.065187	0.426540	0.637306	-0.841553	0.296875	-0.704346	0.103034	0.000503	-0.016864	0.670608	0.216396	-0.704144	0.087401	117.034344	-79.184285	-92.112087
02030		10.945712	-0.644469	-0.389511	0.546630	-2.404549	0.878173	0.174127	0.416104	0.562905	-0.841309	0.290283	-0.708740	0.109466	-0.006133	-0.004128	0.672164	0.212239	-0.703655	0.089548	116.767375	-79.722536	-92.023481
02031		10.241750	-0.579760	-0.541917	0.679083	-2.090095	0.221914	0.308743	0.397194	0.478859	-0.841553	0.296875	-0.708740	0.102420	-0.005544	-0.005631	0.673013	0.211419	-0.702687	0.092658	116.492722	-80.068725	-91.564869
02032		9.736311	0.303885	-0.282144	0.081717	-1.240835	-0.147226	0.378630	0.331237	0.411379	-0.848145	0.294678	-0.717529	0.097352	0.003245	-0.002977	0.674109	0.208517	-0.702199	0.094942	116.326266	-80.509064	-91.458081
02033		10.114848	1.019491	0.210734	-0.659573	-0.822197	0.300806	0.334010	0.255797	0.340473	-0.839600	0.305908	-0.715576	0.101134	0.010364	0.001995	0.674493	0.208331	-0.701532	0.097522	116.244900	-80.747829	-91.181702
02034		9.973912	1.710744	-0.100936	-0.665172	0.012387	0.285484	0.296157	0.191596	0.264271	-0.839355	0.303711	-0.721924	0.099715	0.017241	-0.001079	0.675256	0.205768	-0.701365	0.098873	116.204335	-81.074779	-91.247831
02035		9.741132	1.457494	0.090371	-0.732684	-0.231322	0.007278	0.201845	0.083056	0.239027	-0.841553	0.301514	-0.719727	0.097394	0.014690	0.000878	0.675218	0.205576	-0.701231	0.100467	116.436072	-81.217624	-91.365367
02036		9.770587	1.312987	-0.122458	-0.485802	-0.227832	0.031872	0.100330	0.021451	0.235628	-0.839600	0.305908	-0.719971	0.097690	0.013246	-0.001228	0.675598	0.202612	-0.701671	0.100861	116.798303	-81.481033	-91.945883
02037		10.071258	0.213445	-0.878210	0.650647	-0.924328	0.235660	0.048176	-0.012930	0.232344	-0.839844	0.312500	-0.715576	0.100711	0.002254	-0.008775	0.675385	0.201972	-0.701926	0.101795	117.277104	-81.595265	-92.402095
02038		9.744332	0.180394	-1.940789	1.618644	-0.430797	-0.017505	0.124118	-0.023245	0.168629	-0.846191	0.301514	-0.726318	0.097444	0.001898	-0.019395	0.675596	0.199426	-0.702415	0.102039	117.736662	-81.808163	-93.056455
02039		10.063083	-0.554110	-1.812962	1.799170	-1.173173	0.199611	0.262074	0.007010	0.137081	-0.848633	0.308105	-0.722168	0.100634	-0.005448	-0.018140	0.675287	0.199832	-0.702395	0.103424	118.118753	-81.878498	-93.290807
02040		9.985145	0.530918	-1.351196	0.918298	-0.342908	0.229715	0.364348	0.054341	0.115215	-0.855469	0.307861	-0.728760	0.099845	0.005391	-0.013529	0.675494	0.198391	-0.702440	0.104528	118.416151	-82.080885	-93.619276
02041		10.235859	1.390756	-0.989410	0.223297	0.261371	0.558800	0.365921	0.082345	0.107726	-0.844238	0.308105	-0.726563	0.102347	0.013981	-0.009911	0.675361	0.199210	-0.702078	0.106253	118.538886	-82.156727	-93.531572
02042		10.465494	1.441191	-0.930385	0.143879	0.288910	0.787550	0.274393	0.077285	0.131665	-0.853027	0.305664	-0.730957	0.104642	0.014494	-0.009324	0.675693	0.197529	-0.702092	0.107186	118.759569	-82.367820	-93.817652
02043		10.510107	1.042623	-0.417336	-0.154664	-0.270881	0.752645	0.171988	0.103283	0.169790	-0.855225	0.305664	-0.733154	0.105090	0.010519	-0.004219	0.675792	0.197464	-0.701819	0.108459	118.820562	-82.480701	-93.779819
02044		10.041568	1.780736	-0.979959	0.049423	0.732116	0.406214	0.151701	0.139926	0.179773	-0.857666	0.307861	-0.737549	0.100393	0.017905	-0.009856	0.676420	0.195266	-0.701712	0.109217	118.838427	-82.727804	-93.920992
02045		10.021559	1.528656	-1.141289	0.305018	0.601080	0.366535	0.177293	0.180447	0.225514	-0.848877	0.312500	-0.733154	0.100188	0.015410	-0.011490	0.676754	0.194980	-0.701225	0.110773	118.715001	-82.889982	-93.694247
02046		9.762116	1.618507	-0.883709	0.041217	0.656205	0.100285	0.195849	0.216606	0.264338	-0.857910	0.314697	-0.735352	0.097590	0.016323	-0.008927	0.677526	0.192738	-0.700889	0.112097	118.627515	-83.193048	-93.687118
02047		9.740481	1.464362	-0.451780	-0.280011	0.374432	0.036511	0.184275	0.239668	0.313539	-0.851074	0.314697	-0.739746	0.097376	0.014801	-0.004621	0.678009	0.192133	-0.700276	0.114030	118.436747	-83.415651	-93.388780
02048		9.644040	1.569805	-0.615753	-0.169471	0.605255	-0.042540	0.167622	0.231000	0.318990	-0.853516	0.319092	-0.744141	0.096408	0.015857	-0.006256	0.678804	0.189711	-0.699927	0.115482	118.366414	-83.743498	-93.403204
02049		10.242718	0.493802	0.126632	-0.386735	-0.700298	0.411451	0.216600	0.242986	0.368808	-0.853516	0.319092	-0.746338	0.102419	0.005126	0.001147	0.679232	0.189018	-0.699327	0.117717	118.283542	-83.994779	-93.195085
02050		9.848495	1.037409	0.312320	-0.779682	-0.184319	0.062766	0.243595	0.247793	0.389131	-0.853516	0.321533	-0.752930	0.098468	0.010562	0.003014	0.679963	0.186664	-0.698913	0.119695	118.326179	-84.358284	-93.273117
02051		9.840470	0.622026	-0.148980	-0.183162	-0.318660	0.041687	0.221504	0.229244	0.423690	-0.851318	0.323730	-0.752930	0.098389	0.006430	-0.001596	0.680300	0.185803	-0.698396	0.122119	118.452451	-84.633537	-93.272519
02052		9.817949	0.284130	-0.457893	0.239985	-0.425370	0.007892	0.249422	0.240888	0.451667	-0.858398	0.330078	-0.750732	0.098167	0.003069	-0.004693	0.680961	0.183295	-0.698026	0.124315	118.712309	-85.023363	-93.562215
02053		9.376513	0.391024	-0.843346	0.547166	-0.076217	-0.406428	0.261806	0.259735	0.472019	-0.854004	0.334717	-0.755127	0.093744	0.004143	-0.008550	0.681329	0.182380	-0.697410	0.127069	118.860892	-85.331317	-93.560835
02054		9.012645	0.241034	-1.021693	0.774665	-0.041621	-0.772351	0.253944	0.257741	0.481305	-0.854004	0.332520	-0.763916	0.090107	0.002640	-0.010330	0.681997	0.179852	-0.696980	0.129433	119.191624	-85.737030	-93.908721
02055		9.010645	0.157400	-1.300076	1.062627	0.052348	-0.769758	0.232139	0.244281	0.468522	-0.858887	0.343506	-0.761963	0.090086	0.001800	-0.013109	0.682331	0.178856	-0.696417	0.132054	119.457045	-86.038915	-94.041522
02056		9.307450	0.028363	-1.213191	1.036792	-0.058618	-0.484094	0.234173	0.237781	0.473848	-0.854492	0.343750	-0.766357	0.093059	0.000518	-0.012242	0.682904	0.176411	-0.696036	0.134370	120.048651	-86.430538	-94.646805
02057		9.403239	1.070364	-0.947302	0.348323	0.811734	-0.342549	0.217035	0.237160	0.455041	-0.854980	0.356934	-0.768555	0.093996	0.010928	-0.009573	0.683227	0.175412	-0.695481	0.136883	120.405790	-86.723533	-94.880053
02058		10.266577	0.442520	-0.565593	0.268888	0.100161	0.474961	0.157907	0.254953	0.482570	-0.852539	0.352539	-0.770752	0.102647	0.004677	-0.005783	0.683875	0.172781	-0.695077	0.139034	121.105132	-87.118485	-95.621698
02059		9.967629	0.876774	0.073235	-0.491838	0.288571	0.177422	0.137114	0.267081	0.504173	-0.850586	0.359375	-0.775146	0.099655	0.009019	0.000605	0.684329	0.171315	-0.694503	0.141461	121.598330	-87.444135	-96.036846
02060		10.268118	0.896906	0.472513	-0.861471	0.196325	0.467438	0.073883	0.283798	0.531887	-0.850830	0.368164	-0.781738	0.102663	0.009240	0.004583	0.685094	0.168271	-0.694070	0.143523	122.674394	-87.866749	-97.196473
02061		10.525328	0.943015	0.518730	-0.920949	0.272593	0.723823	0.061616	0.315061	0.559371	-0.850830	0.368164	-0.788330	0.105234	0.009723	0.005024	0.685728	0.166317	-0.693415	0.145913	123.398862	-88.233206	-97.886079
02062		10.624210	0.574899	0.336839	-0.596625	0.101146	0.815162	0.065369	0.313559	0.616460	-0.855469	0.374756	-0.786133	0.106229	0.006075	0.003204	0.686541	0.162961	-0.692916	0.148233	126.116271	-88.699543	-100.690992
02063		10.581109	0.921033	0.303060	-0.713404	0.503431	0.776796	0.106767	0.321341	0.645661	-0.853516	0.381592	-0.788330	0.105785	0.009550	0.002866	0.687082	0.160855	-0.692257	0.151076	130.628500	-89.103543	-105.142883
02064		10.732084	0.656189	-0.478742	0.106194	0.690107	0.927393	0.147702	0.327000	0.680888	-0.849365	0.390381	-0.790771	0.107290	0.006931	-0.004958	0.687814	0.157594	-0.691658	0.153899	148.861111	-89.567942	-123.412527
02065		10.914323	0.158917	-0.738675	0.553719	0.436246	1.104994	0.242065	0.356388	0.709634	-0.843018	0.397217	-0.795166	0.109123	0.001985	-0.007579	0.688302	0.155699	-0.690802	0.157452	-132.165819	-89.752620	157.752138
02066		10.815726	0.309681	-0.984347	0.712267	0.780508	1.000615	0.346153	0.401066	0.747227	-0.843262	0.406250	-0.801758	0.108125	0.003518	-0.010054	0.689035	0.152927	-0.689806	0.161279	-82.436471	-89.320340	108.110862
02067		10.377261	0.543346	-0.822200	0.468935	1.008854	0.551693	0.440306	0.435596	0.751161	-0.841309	0.415039	-0.808350	0.103733	0.005842	-0.008435	0.689585	0.151503	-0.688519	0.165714	-72.744079	-88.845274	98.669581
02068		10.810807	-0.054331	0.043234	-0.044369	0.208540	0.996202	0.466519	0.472967	0.784312	-0.836914	0.415283	-0.817139	0.108110	-0.000120	0.000176	0.690380	0.149072	-0.687161	0.170182	-68.282876	-88.269660	94.379517
02069		10.516857	0.396594	-0.095484	-0.109615	0.764099	0.683693	0.442952	0.489329	0.814102	-0.834717	0.419678	-0.812744	0.105149	0.004396	-0.001203	0.691027	0.147389	-0.685695	0.174873	-65.845776	-87.731268	92.194862
02070		10.856296	-0.181272	-0.163039	0.214699	0.403172	1.036691	0.411676	0.515828	0.829499	-0.835205	0.430908	-0.821533	0.108565	-0.001359	-0.001913	0.691927	0.144636	-0.684217	0.179345	-64.227918	-87.118765	90.723363
02071		11.057932	0.055860	0.127500	-0.141067	0.604204	1.228656	0.409911	0.530595	0.860061	-0.826416	0.437744	-0.823730	0.110578	0.001032	0.000983	0.692663	0.142637	-0.682627	0.184101	-63.030293	-86.542738	89.759094
02072		11.387076	0.274334	0.351336	-0.427994	0.843785	1.543715	0.397938	0.579332	0.890052	-0.822266	0.446777	-0.839111	0.113867	0.003244	0.003190	0.693683	0.139633	-0.680931	0.188786	-62.018542	-85.884466	88.892615
02073		11.605395	0.916922	0.082968	-0.466167	1.674961	1.698551	0.367805	0.627560	0.941596	-0.815918	0.458008	-0.839355	0.116011	0.009714	0.000483	0.694660	0.137110	-0.679054	0.193735	-61.050403	-85.239317	88.132904
02074		11.697896	1.043192	-0.060991	-0.381458	2.002272	1.753492	0.339918	0.665356	1.004120	-0.813721	0.458008	-0.852295	0.116922	0.011020	-0.000981	0.695848	0.133512	-0.677126	0.198672	-60.367707	-84.504427	87.569798
02075		12.183743	0.922739	-0.073472	-0.299622	2.094699	2.221463	0.349506	0.734438	1.100064	-0.809814	0.473633	-0.852539	0.121780	0.009899	-0.001165	0.696991	0.130273	-0.674944	0.204165	-59.686531	-83.748701	87.086306
02076		11.847397	1.882367	-0.168941	-0.643216	3.116646	1.754642	0.365278	0.787811	1.189075	-0.803223	0.478271	-0.863525	0.118351	0.019531	-0.002121	0.698305	0.126127	-0.672605	0.209917	-59.175036	-82.893877	86.721091
02077		12.085898	0.650777	-0.008991	-0.199564	2.159203	2.094779	0.319645	0.835663	1.270914	-0.792236	0.485107	-0.870117	0.120813	0.007276	-0.000584	0.699557	0.122090	-0.670135	0.215947	-58.731311	-82.023571	86.458202
02078		11.973074	0.314070	0.255720	-0.260274	1.916762	2.009907	0.342573	0.883879	1.348281	-0.786133	0.503174	-0.872314	0.119716	0.003944	0.002034	0.700928	0.117355	-0.667485	0.222239	-58.377449	-81.070773	86.252102
02079		11.658607	0.438189	0.042997	-0.116974	2.264807	1.631557	0.397307	0.922949	1.419558	-0.773193	0.516846	-0.887695	0.116551	0.005209	-0.000098	0.702170	0.112982	-0.664619	0.229071	-58.024995	-80.101344	86.125549
02080		12.028408	0.535421	0.555240	-0.594168	2.380678	1.987870	0.422416	0.963211	1.514058	-0.766846	0.528076	-0.896484	0.120264	0.006254	0.004986	0.703441	0.107983	-0.661587	0.236249	-57.774344	-79.050761	86.081761
02081		13.318515	1.164838	0.822303	-1.097387	3.271750	3.129568	0.405589	1.025896	1.636580	-0.767090	0.532471	-0.900879	0.133124	0.012722	0.007565	0.704647	0.102781	-0.658353	0.243887	-57.566296	-77.944563	86.106558
02082		15.324193	3.190489	0.313138	-1.575369	5.943151	4.585119	0.310915	1.151398	1.753545	-0.745117	0.550781	-0.914307	0.152969	0.033243	0.002301	0.706155	0.096473	-0.654778	0.251605	-57.329344	-76.728819	86.022685
02083		16.793251	4.385752	-1.284361	-0.709596	8.363024	5.433344	0.056082	1.203806	1.885723	-0.736816	0.566406	-0.920898	0.167428	0.045442	-0.013840	0.707651	0.088980	-0.651328	0.259009	-57.309378	-75.447476	86.035174
02084		16.540084	3.235358	-2.665419	1.061464	8.301467	5.056491	-0.101125	1.116515	2.019479	-0.719238	0.577881	-0.925293	0.164911	0.034007	-0.027593	0.708655	0.080671	-0.648365	0.266312	-57.664954	-74.133725	86.350820
02085		16.865129	2.795276	-2.451979	1.080265	8.274782	5.306994	0.126160	1.055799	2.175233	-0.710938	0.595947	-0.934082	0.168201	0.029800	-0.025390	0.709077	0.072657	-0.645288	0.274832	-58.098826	-72.756998	86.878785
02086		16.761635	4.286697	-2.412751	0.273015	9.837093	4.619566	0.489463	1.090188	2.304821	-0.691406	0.614014	-0.945068	0.166973	0.044854	-0.024931	0.709030	0.065911	-0.641589	0.285124	-58.330384	-71.333486	87.468743
02087		16.666691	4.444528	-2.089911	-0.145879	10.160173	4.280986	0.705582	1.174600	2.407269	-0.673828	0.623291	-0.958252	0.165989	0.046522	-0.021714	0.709064	0.059012	-0.637154	0.296278	-58.354790	-69.806719	87.923244
02088		16.456820	4.266693	-2.575777	0.274402	10.527644	3.779251	0.805170	1.193663	2.463362	-0.660645	0.630371	-0.964844	0.163868	0.044794	-0.026560	0.708603	0.053100	-0.632511	0.308207	-58.313529	-68.299630	88.469418
02089		16.282128	3.262025	-2.336474	0.496182	9.917778	3.699551	0.956631	1.196345	2.495463	-0.652100	0.643799	-0.982422	0.162253	0.034761	-0.024174	0.708210	0.046751	-0.627396	0.320355	-58.175629	-66.723621	88.913336
02090		15.617200	2.393755	-1.933231	0.491552	9.136083	3.211810	1.044353	1.232946	2.522582	-0.625488	0.655518	-0.995605	0.155730	0.026008	-0.020161	0.707247	0.041787	-0.622082	0.333271	-57.957045	-65.200942	89.468906
02091		14.217228	3.197002	-2.745958	0.683886	9.894070	1.210735	0.932383	1.220048	2.460878	-0.612305	0.664795	-1.002197	0.141593	0.033845	-0.028170	0.706671	0.035396	-0.616666	0.345090	-57.753849	-63.635706	89.835855
02092		11.455822	3.947498	-3.685065	0.980340	9.920936	-2.002137	0.400900	1.013408	2.116823	-0.599121	0.673828	-1.010986	0.113943	0.040758	-0.037348	0.705400	0.030087	-0.613027	0.354547	-57.844456	-62.398648	90.372259
02093		10.659481	1.227558	-3.854327	2.540966	7.759862	-1.855762	-0.249928	0.524258	1.623603	-0.590576	0.685059	-1.004395	0.106389	0.013091	-0.038838	0.704140	0.023301	-0.611845	0.359570	-58.430327	-61.450562	90.873895
02094		9.653671	-2.243141	-2.977280	3.607945	4.441541	-1.190521	0.214869	0.650592	1.740770	-0.579346	0.685303	-1.010986	0.096629	-0.021558	-0.030111	0.702161	0.019410	-0.609754	0.367142	-58.700710	-60.521858	91.535673
02095		8.331528	-6.088626	-0.264945	3.385316	-0.122942	-0.061925	0.184751	0.690989	1.748666	-0.564209	0.698975	-1.015381	0.083833	-0.060152	-0.002994	0.701007	0.013462	-0.607135	0.373892	-58.907316	-59.460360	91.896438
02096		9.115647	-12.341761	0.377330	6.218415	-4.285681	3.548161	0.486303	0.729925	1.893550	-0.560059	0.705811	-1.030762	0.092332	-0.122555	0.003139	0.698714	0.009945	-0.604256	0.382850	-59.009820	-58.432030	92.561884
02097		3.374720	-2.059161	-1.975747	2.703595	1.290180	-6.563402	1.059844	0.877585	1.371103	-0.548828	0.708252	-1.039551	0.033799	-0.020254	-0.020014	0.698654	0.007829	-0.599204	0.390864	-58.368710	-57.500211	92.521899
02098		4.787202	4.046080	-3.435394	0.444775	7.032141	-8.612399	0.783273	0.490515	0.702315	-0.541992	0.704102	-1.043945	0.047645	0.040763	-0.034312	0.697723	0.009308	-0.596518	0.396562	-57.942598	-57.118157	92.765172
02099		1.457189	7.689747	-1.729653	-2.956753	6.894385	-12.636215	0.143307	0.201823	0.273535	-0.539551	0.704102	-1.048340	0.014449	0.076930	-0.017256	0.697774	0.008596	-0.595545	0.397949	-57.838154	-56.924640	92.738490
02100		1.791175	5.803084	1.605550	-4.663723	4.147732	-10.525327	-0.353808	-0.035571	0.044023	-0.541748	0.699463	-1.037354	0.017896	0.058063	0.015956	0.696586	0.009256	-0.596933	0.397937	-58.146072	-57.034273	93.093529
02101		1.019110	3.292966	2.087947	-3.607495	1.795010	-9.887448	-0.834581	-0.382117	-0.205094	-0.546631	0.712646	-1.030762	0.010185	0.033006	0.020761	0.695884	0.007726	-0.599911	0.394706	-58.818344	-57.249644	93.324527
02102		0.685521	1.999506	-0.005941	-1.132695	1.751196	-10.156603	-1.108119	-0.791901	-0.542591	-0.553711	0.717041	-1.022217	0.006910	0.019976	-0.000143	0.693730	0.008981	-0.605308	0.390205	-59.859695	-57.870632	94.023364
02103		0.519086	2.064570	-1.054884	-0.270172	2.228725	-10.590089	-1.066395	-1.012083	-0.939692	-0.569092	0.709961	-1.004639	0.005341	0.020564	-0.010632	0.692521	0.010105	-0.610837	0.383654	-60.855083	-58.626164	94.475325
02104		0.682031	2.448362	-0.542519	-0.902959	2.349763	-10.458506	-1.000443	-1.097612	-1.349422	-0.584473	0.700684	-0.998047	0.007015	0.024409	-0.005509	0.690953	0.014781	-0.616908	0.376551	-61.774755	-59.727770	95.090680
02105		0.848788	2.284049	-0.334897	-0.977230	2.231350	-10.152353	-0.987245	-1.188499	-1.753135	-0.591309	0.700439	-0.980469	0.008708	0.022748	-0.003410	0.690613	0.019019	-0.622704	0.367331	-62.574867	-60.934786	95.360420
02106		1.204096	2.394967	-0.366995	-1.015359	2.507665	-9.839293	-1.013086	-1.314224	-2.187124	-0.617920	0.688721	-0.969482	0.012326	0.023797	-0.003710	0.689807	0.026659	-0.629227	0.357113	-63.389448	-62.514814	95.834053
02107		1.872426	2.698277	-0.857751	-0.766790	3.279987	-9.394001	-0.968682	-1.434984	-2.594892	-0.631104	0.679688	-0.956299	0.019133	0.026695	-0.008571	0.689970	0.034046	-0.635486	0.344876	-64.103857	-64.212772	96.012250
02108		3.070580	3.151461	-0.801913	-1.092936	4.085351	-8.357722	-0.810922	-1.457898	-2.921198	-0.652832	0.663574	-0.936523	0.031219	0.031029	-0.007919	0.689701	0.044979	-0.641648	0.332532	-64.681896	-66.206263	96.343826
02109		4.404986	2.941284	-0.032547	-1.673631	4.012826	-6.787839	-0.575156	-1.470029	-3.199062	-0.678955	0.638672	-0.921143	0.044514	0.028703	-0.000083	0.690322	0.055701	-0.646855	0.319267	-64.970548	-68.224294	96.299391
02110		5.579555	2.620081	0.566059	-2.055763	3.753007	-5.340389	-0.319243	-1.490162	-3.427606	-0.698242	0.615967	-0.910156	0.056190	0.025249	0.006037	0.690269	0.070040	-0.651675	0.306501	-65.056308	-70.492380	96.403865
02111		6.589764	2.537432	1.369330	-2.704884	3.434452	-4.101225	-0.165094	-1.521504	-3.659495	-0.724121	0.586426	-0.898926	0.066241	0.024176	0.014176	0.690841	0.083717	-0.655772	0.292735	-64.857152	-72.762001	96.094331
02112		7.923127	2.354387	2.295289	-3.411449	2.931114	-2.508651	-0.158377	-1.542909	-3.867575	-0.734375	0.561768	-0.890137	0.079487	0.022027	0.023548	0.690751	0.100084	-0.659700	0.278646	-64.469234	-75.273761	95.801166
02113		9.336661	1.948677	2.828293	-3.633933	2.353351	-0.856511	-0.274449	-1.584710	-4.011858	-0.753418	0.528076	-0.870117	0.093505	0.017651	0.028998	0.691087	0.114558	-0.663396	0.263021	-63.858066	-77.739409	95.011041
02114		10.471031	1.437498	2.727571	-3.240926	1.782641	0.456217	-0.487189	-1.659475	-4.097917	-0.770508	0.501221	-0.859131	0.104746	0.012297	0.028113	0.690573	0.130557	-0.667266	0.246619	-63.121112	-80.396696	94.169199
02115		11.864735	0.555528	2.598739	-2.620323	0.865289	2.027792	-0.689864	-1.703641	-4.166895	-0.789551	0.471680	-0.839355	0.118503	0.003177	0.026984	0.690297	0.144149	-0.671108	0.228748	-61.902499	-82.966511	92.538454
02116		13.221194	-0.767750	2.780365	-2.030547	-0.768948	3.543111	-0.836715	-1.659659	-4.177739	-0.804199	0.442627	-0.825928	0.131778	-0.010314	0.028938	0.689520	0.158981	-0.674505	0.210549	-58.608090	-85.647009	88.924555
02117		14.240839	-2.695536	2.903273	-1.100093	-3.010663	4.616056	-0.988687	-1.660242	-4.092762	-0.816650	0.413330	-0.803955	0.141571	-0.029710	0.030353	0.688837	0.171088	-0.677846	0.191725	-47.093357	-88.105376	76.828118
02118		15.081362	-4.707848	2.774321	0.060962	-5.328139	5.315993	-1.143532	-1.701509	-3.911180	-0.826904	0.386475	-0.786133	0.149612	-0.049848	0.029299	0.687316	0.183660	-0.681112	0.173066	74.258577	-89.005174	-45.036811
02119		15.681848	-6.960405	2.248632	1.596835	-7.688920	5.605193	-1.314300	-1.763371	-3.678071	-0.836914	0.359619	-0.766357	0.155296	-0.072314	0.024329	0.685541	0.193159	-0.684777	0.154285	103.102475	-86.849054	-74.647423
02120		16.264051	-9.063721	1.616750	3.102047	-9.927247	5.713561	-1.325352	-1.751089	-3.416378	-0.838623	0.339355	-0.750732	0.160909	-0.093280	0.018194	0.683087	0.203021	-0.688156	0.136442	108.258271	-84.587619	-80.449210
02121		16.445526	-10.157280	1.106452	3.951652	-11.280623	5.416840	-1.149148	-1.655269	-3.148749	-0.846680	0.314697	-0.737549	0.162728	-0.104073	0.013009	0.680584	0.211030	-0.691278	0.120023	110.268879	-82.569872	-83.134783
02122		16.202417	-10.322214	0.848062	4.169014	-11.837393	4.755988	-0.866379	-1.509044	-2.873249	-0.854980	0.299072	-0.717773	0.160447	-0.105493	0.010149	0.677727	0.219959	-0.693627	0.105762	111.287801	-80.647168	-84.565409
02123		15.541253	-10.608578	0.552174	4.468443	-12.318254	3.701914	-0.637600	-1.332570	-2.613281	-0.854492	0.281250	-0.704346	0.153966	-0.108083	0.006893	0.675110	0.227548	-0.695529	0.093210	111.814318	-78.972767	-85.471522
02124		15.127078	-10.154646	0.316931	4.435963	-12.129932	3.040875	-0.388253	-1.097840	-2.337518	-0.860596	0.267822	-0.697754	0.150049	-0.103297	0.004195	0.672613	0.235597	-0.696579	0.082848	112.010049	-77.446480	-85.824074
02125		13.990302	-10.113948	0.364146	4.335462	-12.173317	1.639621	-0.153077	-0.933679	-2.005887	-0.859863	0.250000	-0.688965	0.138860	-0.102533	0.004369	0.670328	0.242447	-0.697378	0.074456	112.192868	-76.179069	-86.101969
02126		12.539553	-9.900895	0.240442	4.332590	-11.812381	0.036942	0.003049	-0.804670	-1.698197	-0.863770	0.234375	-0.679932	0.124538	-0.100069	0.002905	0.667991	0.249097	-0.697940	0.067957	112.455904	-75.081092	-86.320251
02127		10.726253	-8.922708	0.373396	3.760628	-10.711220	-1.692938	0.159147	-0.686513	-1.443830	-0.861084	0.223145	-0.682129	0.106601	-0.090001	0.004029	0.665863	0.254899	-0.698359	0.062824	112.712978	-74.164910	-86.492349
02128		9.366984	-7.239861	0.611238	2.801004	-9.099810	-2.750441	0.243911	-0.613743	-1.267545	-0.863037	0.212158	-0.673340	0.093189	-0.072998	0.006310	0.663679	0.260487	-0.698721	0.058862	113.051463	-73.359330	-86.667379
02129		7.933453	-4.775419	0.847777	1.489742	-6.763459	-3.607996	0.282915	-0.560386	-1.158608	-0.862549	0.200928	-0.664307	0.079032	-0.048225	0.008632	0.661676	0.265639	-0.698975	0.055266	113.324357	-72.621393	-86.783296
02130		16.534806	-1.232137	-1.185033	1.863653	-5.564051	5.740027	0.521885	-0.778725	-1.024473	-0.857910	0.196533	-0.655518	0.165327	-0.013138	-0.011240	0.658442	0.271127	-0.700107	0.052859	114.220472	-71.919835	-87.393779
02131		14.315254	-8.864284	7.936700	-2.848432	-15.404708	0.240807	0.695092	0.013157	-0.516914	-0.857422	0.185547	-0.664307	0.142928	-0.089288	0.079048	0.657673	0.275226	-0.699174	0.053600	114.228900	-71.651538	-86.983445
02132		21.455865	-14.657901	18.385934	-9.427630	-27.043673	4.079877	-0.728331	0.283061	0.555921	-0.857910	0.194336	-0.670898	0.215224	-0.145311	0.184086	0.659495	0.270467	-0.699331	0.053389	113.804009	-72.043393	-86.992988
02133		18.222683	-4.507900	11.491912	-8.053705	-14.234926	4.916246	-1.929144	0.322225	1.032477	-0.858643	0.214355	-0.671143	0.182638	-0.043028	0.115047	0.662911	0.260400	-0.700138	0.050472	112.903464	-72.658393	-87.207943
02134		18.418295	7.636248	-1.693314	-1.466389	1.875345	10.055485	-2.028023	-0.262519	0.638322	-0.858643	0.216553	-0.673340	0.183961	0.076775	-0.017469	0.664643	0.250380	-0.702525	0.044926	112.635512	-73.009646	-88.258430
02135		15.795081	9.392053	2.106286	-5.605674	2.831829	7.585153	-1.263761	0.199284	0.752671	-0.854492	0.225586	-0.664551	0.157616	0.094644	0.020309	0.666734	0.243491	-0.703071	0.043229	112.106291	-73.450655	-88.462006
02136		11.393862	2.064738	0.313710	-1.047880	-1.475030	1.628747	-1.142735	-0.099352	1.104719	-0.857422	0.238770	-0.666748	0.113821	0.021294	0.003073	0.667740	0.234728	-0.705139	0.042491	112.425167	-74.080168	-89.593206
02137		11.028201	-1.157611	-5.137551	5.165401	-2.117200	1.058883	-1.296066	-0.398404	1.231579	-0.855469	0.247559	-0.660400	0.110454	-0.011228	-0.051082	0.667563	0.226140	-0.708162	0.041557	113.415865	-74.640053	-91.393173
02138		9.970145	-2.056835	-1.073694	1.664149	-4.045930	-0.558109	-0.688390	-0.138646	1.118754	-0.853516	0.258789	-0.658203	0.099822	-0.020047	-0.010598	0.667791	0.218858	-0.710178	0.042475	114.251423	-75.260507	-92.774091
02139		10.349063	-2.324080	3.502112	-2.548883	-5.907665	-0.681931	-0.183413	0.095285	1.071073	-0.849609	0.272217	-0.664795	0.103630	-0.022654	0.034993	0.668089	0.214425	-0.711062	0.045497	114.945552	-75.840055	-93.599462
02140		9.603472	-1.189698	0.724980	-0.409156	-3.623530	-0.819934	-0.096836	0.029610	0.907670	-0.849854	0.278809	-0.660400	0.096088	-0.011457	0.007241	0.668293	0.209714	-0.712112	0.047975	115.733057	-76.390096	-94.584868
02141		9.733949	0.090481	-2.175896	1.794337	-1.413244	-0.103147	-0.204561	-0.102266	0.749644	-0.850098	0.285400	-0.660400	0.097346	0.001247	-0.021710	0.667955	0.206391	-0.713285	0.049637	116.630089	-76.748561	-95.627670
02142		10.112945	1.741078	-3.482693	2.378315	0.518317	0.746993	-0.286554	-0.151285	0.668294	-0.847900	0.285400	-0.660400	0.101097	0.017699	-0.034776	0.667740	0.201929	-0.714703	0.050472	117.574420	-77.124164	-96.880647
02143		9.941676	1.087311	-3.346601	2.462148	-0.039648	0.441821	-0.157299	-0.068076	0.563680	-0.857422	0.298584	-0.656250	0.099397	0.011127	-0.033441	0.667507	0.199412	-0.715538	0.051716	118.306150	-77.390106	-97.723307
02144		10.809822	0.120238	-1.244081	0.786297	-1.768144	0.895700	-0.057956	-0.062412	0.534764	-0.848389	0.298828	-0.656250	0.108098	0.001488	-0.012407	0.667358	0.196269	-0.716445	0.053085	119.137652	-77.711684	-98.708109
02145		10.056483	-0.957492	-1.056148	0.987848	-2.618631	-0.048885	-0.104139	-0.098722	0.460872	-0.846191	0.301025	-0.658447	0.100592	-0.009349	-0.010507	0.666980	0.194301	-0.717254	0.054146	119.908569	-77.912519	-99.557898
02146		9.985452	-0.572799	-1.104682	0.872640	-2.189957	-0.030042	0.005633	-0.086594	0.367176	-0.850830	0.301025	-0.660645	0.099870	-0.005544	-0.011004	0.666711	0.191980	-0.718049	0.055184	120.690803	-78.139638	-100.450640
02147		10.562357	0.634640	0.253838	-0.862856	-1.622978	0.610936	0.152995	-0.078896	0.298254	-0.853027	0.301025	-0.658447	0.105613	0.006502	0.002585	0.666195	0.191446	-0.718557	0.056646	121.385826	-78.261717	-101.071167
02148		10.487406	1.168052	1.001205	-1.770468	-1.329487	0.553135	0.195490	-0.121326	0.267392	-0.848633	0.305420	-0.654053	0.104852	0.011811	0.010087	0.665646	0.190118	-0.719309	0.058004	122.263704	-78.425929	-101.949472
02149		9.763913	1.582440	0.251341	-1.207860	-0.535577	-0.006798	0.162136	-0.151733	0.241282	-0.848877	0.307617	-0.656250	0.097618	0.015940	0.002600	0.664872	0.189839	-0.719998	0.059240	123.080611	-78.494374	-102.688472
02150		9.763253	1.094017	-0.752811	-0.123345	-0.617758	0.020308	0.077526	-0.185894	0.233286	-0.851074	0.309814	-0.654053	0.097627	0.011057	-0.007433	0.664227	0.188250	-0.720949	0.059976	124.014313	-78.616675	-103.694992
02151		9.726960	0.058987	-1.373872	0.798323	-1.341141	-0.113785	0.059292	-0.160517	0.218366	-0.858154	0.314209	-0.654053	0.097280	0.000700	-0.013660	0.663524	0.187712	-0.721671	0.060758	124.777916	-78.667002	-104.439250
02152		9.364732	0.319005	-2.061964	1.346282	-0.779533	-0.345297	0.076958	-0.138078	0.142953	-0.853271	0.307617	-0.658447	0.093659	0.003265	-0.020554	0.663070	0.186457	-0.722371	0.061255	125.481142	-78.756617	-105.206787
02153		9.744052	0.164782	-2.302782	1.589910	-0.903155	0.032767	0.118667	-0.101491	0.123182	-0.858154	0.314209	-0.654053	0.097451	0.001721	-0.022977	0.662552	0.186442	-0.722787	0.061992	125.994322	-78.779023	-105.660722
02154		10.090851	0.796066	-2.404427	1.431446	-0.330764	0.486915	0.168420	-0.035010	0.095536	-0.857910	0.307373	-0.649658	0.100909	0.008029	-0.024020	0.662379	0.185680	-0.723072	0.062798	126.453369	-78.877270	-106.117764
02155		10.024795	1.439887	-2.109591	0.924544	0.188117	0.489253	0.181874	-0.000749	0.103700	-0.855713	0.312012	-0.654053	0.100241	0.014470	-0.021082	0.662171	0.185912	-0.723116	0.063793	126.739818	-78.923836	-106.303533
02156		10.067174	2.029928	-2.284913	0.871715	0.808123	0.640850	0.132607	0.030566	0.109161	-0.860107	0.309570	-0.651855	0.100657	0.020369	-0.022851	0.662245	0.185024	-0.723204	0.064609	127.064520	-79.047243	-106.636322
02157		10.426788	1.403104	-1.735765	0.561654	-0.003657	0.835503	0.107432	0.147772	0.164974	-0.864746	0.309570	-0.651855	0.104243	0.014126	-0.017427	0.662623	0.184740	-0.722834	0.065676	127.071036	-79.172856	-106.580326
02158		9.271498	1.665441	-2.239116	1.008000	0.649197	-0.204854	0.099624	0.180998	0.151782	-0.860107	0.311768	-0.658447	0.092682	0.016736	-0.022467	0.663241	0.183600	-0.722466	0.066674	127.100754	-79.364378	-106.624989
02159		9.522415	1.571768	-2.084601	0.891280	0.489526	0.008632	0.110749	0.176521	0.203702	-0.860352	0.318604	-0.658447	0.095190	0.015826	-0.020921	0.663706	0.183176	-0.722032	0.067907	127.109260	-79.517667	-106.569146
02160		9.396512	1.488342	-1.208235	0.113896	0.172298	-0.224845	0.075053	0.158027	0.239860	-0.862549	0.316406	-0.667236	0.093938	0.015001	-0.012151	0.664214	0.181709	-0.721820	0.069112	127.352320	-79.738009	-106.837425
02161		9.406569	1.763254	-0.747815	-0.409857	0.296279	-0.226447	0.048675	0.151422	0.279473	-0.867188	0.318359	-0.665283	0.094035	0.017766	-0.007545	0.664616	0.180814	-0.721556	0.070349	127.539035	-79.917115	-106.998838
02162		9.572436	1.991778	-0.917441	-0.339528	0.579971	-0.015307	0.078298	0.140462	0.308550	-0.869629	0.324951	-0.669678	0.095687	0.020069	-0.009234	0.665029	0.179150	-0.721450	0.071779	127.979543	-80.159826	-107.462524
02163		10.040459	1.448408	-0.467117	-0.591970	-0.116436	0.324510	0.135531	0.146895	0.370921	-0.865234	0.327393	-0.667480	0.100374	0.014673	-0.004735	0.665300	0.178213	-0.721245	0.073629	128.438232	-80.378136	-107.849170
02164		9.976373	1.822444	-0.931827	-0.292304	0.452620	0.357226	0.198096	0.127234	0.421843	-0.864990	0.320801	-0.676270	0.099719	0.018444	-0.009364	0.665513	0.176569	-0.721223	0.075850	129.264306	-80.663363	-108.631783
02165		10.000932	1.493731	-0.916272	-0.198775	0.186603	0.336937	0.262678	0.132724	0.469048	-0.870117	0.333984	-0.669678	0.099968	0.015184	-0.009209	0.665577	0.175704	-0.721095	0.078471	130.112564	-80.918029	-109.338696
02166		9.927454	0.981037	-1.020723	0.076142	-0.179397	0.213300	0.288222	0.139325	0.509133	-0.870117	0.336182	-0.676270	0.099242	0.010078	-0.010262	0.665711	0.174070	-0.721052	0.081318	131.257717	-81.239773	-110.388249
02167		9.608639	0.880994	-1.214590	0.300380	-0.104683	-0.092817	0.292839	0.130325	0.524337	-0.865479	0.336182	-0.676270	0.096055	0.009080	-0.012195	0.665707	0.173104	-0.720954	0.084228	132.379477	-81.512785	-111.353179
02168		9.501824	0.659573	-0.945245	0.124504	-0.327128	-0.247625	0.310232	0.131381	0.532854	-0.872559	0.340576	-0.682861	0.094994	0.006864	-0.009504	0.665768	0.171485	-0.720927	0.087232	133.780296	-81.833222	-112.643847
02169		9.683436	0.845004	-0.963452	0.054452	-0.118108	-0.045701	0.292765	0.136337	0.540487	-0.868408	0.351807	-0.678467	0.096804	0.008726	-0.009688	0.665767	0.170454	-0.720808	0.090199	135.089592	-82.108397	-113.796747
02170		9.592397	1.176343	-1.427931	0.358605	0.429956	-0.059579	0.283833	0.132619	0.539907	-0.868408	0.354004	-0.685059	0.095882	0.012043	-0.014326	0.665838	0.168742	-0.720771	0.093135	136.695794	-82.421836	-115.305773
02171		9.832325	0.719150	-1.557282	0.621618	0.080881	0.148422	0.243062	0.116746	0.539575	-0.866455	0.358398	-0.687256	0.098294	0.007476	-0.015621	0.665797	0.167555	-0.720724	0.095902	138.231320	-82.679527	-116.713964
02172		9.703586	1.016388	-1.756243	0.692036	0.506914	0.063590	0.154244	0.124328	0.549750	-0.866455	0.360840	-0.689697	0.096996	0.010444	-0.017615	0.665922	0.165415	-0.720765	0.098408	140.070895	-82.979424	-118.526834
02173		9.481229	1.038527	-1.736718	0.667868	0.599662	-0.159577	0.065649	0.104275	0.561826	-0.866943	0.369629	-0.685303	0.094774	0.010657	-0.017413	0.665962	0.163560	-0.720849	0.100598	141.864642	-83.227988	-120.295808
02174		9.864586	1.100417	-1.339606	0.245004	0.538798	0.185557	-0.009308	0.167953	0.578513	-0.862549	0.374023	-0.694092	0.098602	0.011289	-0.013479	0.666340	0.160792	-0.720831	0.102659	143.901151	-83.540324	-122.394058
02175		9.973332	0.795656	-1.269986	0.284587	0.282791	0.264613	-0.019675	0.249424	0.596699	-0.862793	0.378662	-0.691895	0.099693	0.008253	-0.012825	0.666943	0.158450	-0.720488	0.104773	145.672283	-83.853689	-124.187343
02176		10.427995	0.282968	-0.861037	0.067166	-0.303768	0.649974	-0.035277	0.283415	0.656978	-0.865234	0.383057	-0.691895	0.104258	0.003171	-0.008759	0.667695	0.155284	-0.720139	0.107099	148.129167	-84.226811	-126.717291
02177		9.998606	0.845644	-1.014166	0.032315	0.382289	0.265415	-0.031247	0.297553	0.660761	-0.865723	0.396240	-0.691895	0.099942	0.008785	-0.010292	0.668430	0.152642	-0.719672	0.109420	150.543652	-84.566071	-129.161392
02178		10.322801	0.411632	-0.751005	-0.069778	-0.055977	0.545166	-0.006258	0.318363	0.707203	-0.865967	0.407471	-0.700928	0.103200	0.004481	-0.007674	0.669237	0.149391	-0.719201	0.112043	153.885353	-84.943762	-132.558227
02179		10.436585	0.245535	-0.637846	-0.113737	-0.176502	0.644116	0.049098	0.389401	0.714246	-0.861572	0.409668	-0.707520	0.104344	0.002830	-0.006581	0.670193	0.146770	-0.718400	0.114897	157.200527	-85.315919	-135.857205
02180		10.084684	0.257201	-1.044487	0.293476	0.092186	0.324508	0.116869	0.463081	0.685599	-0.863770	0.409668	-0.714111	0.100813	0.002924	-0.010677	0.671418	0.143937	-0.717327	0.117990	161.207019	-85.726089	-139.845195
02181		10.007729	0.209005	-0.795642	0.103860	0.042499	0.228139	0.195667	0.497830	0.657881	-0.853271	0.423340	-0.711914	0.100049	0.002427	-0.008203	0.672667	0.141941	-0.716010	0.121255	165.219178	-86.107774	-143.755188
02182		10.138932	-0.196320	0.333900	-0.782283	-0.662548	0.281688	0.244092	0.527990	0.672550	-0.857910	0.427734	-0.718506	0.101404	-0.001626	0.003069	0.674013	0.139561	-0.714600	0.124806	170.800626	-86.500175	-149.242474
02183		10.223716	0.340384	0.318187	-0.946265	-0.077433	0.377477	0.232888	0.503195	0.691665	-0.858154	0.434326	-0.725098	0.102232	0.003754	0.002929	0.675208	0.137561	-0.713237	0.128316	177.177511	-86.828449	-155.496519
02184		10.705177	0.093748	-0.431393	-0.163836	0.053698	0.900167	0.236368	0.498610	0.710365	-0.853760	0.440918	-0.722900	0.107036	0.001323	-0.004579	0.676414	0.135032	-0.711917	0.131925	-174.115889	-87.111968	-164.115413
02185		11.166243	-0.031728	-0.805710	0.230124	0.165118	1.379008	0.305351	0.534037	0.728958	-0.847412	0.447998	-0.736084	0.111641	0.000102	-0.008355	0.677618	0.133117	-0.710396	0.135835	-164.294773	-87.334742	-173.772888
02186		11.026784	0.758848	-1.441553	0.555299	1.246155	1.249936	0.394177	0.594006	0.747266	-0.847412	0.452393	-0.740479	0.110195	0.008029	-0.014727	0.679001	0.130941	-0.708632	0.140187	-151.614938	-87.484650	173.726328
02187		11.040677	0.551339	-1.312552	0.539337	1.113319	1.250398	0.450313	0.621468	0.787513	-0.845459	0.458984	-0.747070	0.110342	0.005978	-0.013455	0.680344	0.129244	-0.706714	0.144859	-138.189238	-87.516540	160.546165
02188		11.239746	0.165699	-1.018486	0.432907	0.769600	1.439677	0.512170	0.651551	0.841485	-0.836914	0.470459	-0.756104	0.112355	0.002156	-0.010546	0.681735	0.127130	-0.704684	0.149986	-123.814876	-87.375321	146.421392
02189		11.140336	0.721417	-0.990507	0.225817	1.391033	1.305824	0.567734	0.691624	0.889425	-0.832520	0.474854	-0.762695	0.111335	0.007738	-0.010269	0.683128	0.125412	-0.702455	0.155453	-111.296429	-87.105286	134.214172
02190		11.532734	0.619544	-0.762791	0.069032	1.359421	1.681451	0.576762	0.717115	0.957803	-0.837402	0.486084	-0.769287	0.115268	0.006770	-0.008022	0.684559	0.123087	-0.700165	0.161237	-100.645321	-86.659640	123.851783
02191		11.946736	0.380205	-0.662752	0.086695	1.264793	2.091053	0.623423	0.754822	1.048288	-0.824463	0.497314	-0.778076	0.119419	0.004450	-0.007065	0.685953	0.120941	-0.697708	0.167466	-92.406137	-86.110861	115.954179
02192		12.345090	0.400205	-0.079607	-0.438088	1.242068	2.468623	0.683094	0.806017	1.156851	-0.824707	0.506348	-0.789063	0.123420	0.004720	-0.001278	0.687390	0.118236	-0.695069	0.174342	-85.843852	-85.410182	109.742913
02193		12.563111	1.046332	0.194346	-0.925700	1.912516	2.614974	0.702394	0.861822	1.260779	-0.811523	0.513184	-0.800049	0.125569	0.011249	0.001441	0.688844	0.115514	-0.692217	0.181618	-80.779326	-84.634741	105.063268
02194		12.568753	0.329273	-0.353142	-0.104920	1.684263	2.651481	0.679789	0.879850	1.346695	-0.812012	0.526611	-0.802246	0.125644	0.004152	-0.004071	0.690277	0.112089	-0.689331	0.189144	-76.979593	-83.752748	101.613617
02195		12.336880	0.327748	-0.105774	-0.297383	1.755624	2.399727	0.687090	0.895415	1.402359	-0.801270	0.540283	-0.817871	0.123335	0.004147	-0.001597	0.691622	0.108776	-0.686352	0.196845	-74.069848	-82.846502	99.080291
02196		12.134026	0.313396	0.145451	-0.490394	1.818888	2.179043	0.776517	0.919195	1.447257	-0.790283	0.549316	-0.831055	0.121318	0.004008	0.000911	0.692925	0.105320	-0.683171	0.205037	-71.703663	-81.874695	97.122682
02197		12.632870	0.568390	0.911194	-1.274908	1.998082	2.642075	0.824654	0.959050	1.509560	-0.781738	0.560547	-0.835449	0.126323	0.006601	0.008532	0.694184	0.102033	-0.679767	0.213578	-69.698582	-80.876897	95.572593
02198		13.733076	1.671973	1.187180	-1.993635	3.263958	3.535315	0.807412	1.060631	1.583302	-0.777344	0.565186	-0.850830	0.137254	0.017760	0.011214	0.695677	0.098082	-0.675993	0.222367	-67.850537	-79.790337	94.149675
02199		15.183306	2.964551	0.357896	-1.810894	5.282572	4.618428	0.679829	1.168946	1.664795	-0.757813	0.579102	-0.864014	0.151597	0.030898	0.002796	0.697402	0.093515	-0.671951	0.231015	-66.180436	-78.650821	92.846118
02200		16.255707	4.166668	-1.674649	-0.511095	7.744727	5.159318	0.443697	1.222649	1.757278	-0.747070	0.596924	-0.868408	0.162076	0.043131	-0.017644	0.699264	0.087564	-0.667945	0.239189	-64.888343	-77.429491	91.770675
02201		16.685518	2.548816	-3.225212	1.623008	7.445499	5.589362	0.310862	1.144479	1.890074	-0.733887	0.606201	-0.879395	0.166416	0.027113	-0.033164	0.700644	0.080965	-0.664360	0.247321	-64.173018	-76.170018	91.218874
02202		17.285054	3.505371	-3.523750	1.454033	8.905532	5.744940	0.473049	1.117602	2.044878	-0.723145	0.615234	-0.892578	0.172279	0.036902	-0.036115	0.701584	0.074392	-0.660644	0.256504	-63.677034	-74.831217	90.983316
02203		17.068927	4.551931	-3.320710	0.768898	10.027005	5.085185	0.682236	1.116950	2.194934	-0.708252	0.635742	-0.899170	0.169987	0.047503	-0.033998	0.702146	0.068097	-0.656616	0.266850	-63.249681	-73.420405	90.945385
02204		17.180707	4.613293	-2.952642	0.359553	10.325872	4.965856	0.859851	1.139184	2.347003	-0.690430	0.640625	-0.912354	0.171078	0.048273	-0.030298	0.702345	0.061983	-0.652237	0.278310	-62.856881	-71.932536	91.060497
02205		16.997587	4.881522	-2.964976	0.169975	10.888952	4.432292	1.094640	1.159121	2.465603	-0.672852	0.656494	-0.927734	0.169181	0.051069	-0.030356	0.702277	0.056168	-0.647340	0.290866	-62.405357	-70.372899	91.246084
02206		16.578386	4.455631	-2.593798	-0.047137	10.610584	3.928349	1.306333	1.174788	2.538214	-0.664307	0.665527	-0.940918	0.165044	0.046826	-0.026608	0.701843	0.051071	-0.642013	0.304347	-61.894661	-68.791747	91.523058
02207		16.234770	3.901972	-1.135373	-1.137326	9.740988	3.747674	1.407841	1.204342	2.576641	-0.644531	0.677002	-0.947510	0.161755	0.041189	-0.012044	0.701339	0.045903	-0.636224	0.318176	-61.323464	-67.165160	91.777007
02208		14.110885	5.514255	-1.463304	-1.748762	10.666206	0.902953	1.289198	1.185033	2.499830	-0.619873	0.684326	-0.962891	0.140316	0.056996	-0.015103	0.700627	0.040953	-0.630611	0.331323	-60.819691	-65.613779	92.066595
02209		11.541121	3.633287	-2.432030	-0.000416	8.848322	-1.209666	0.861608	0.991846	2.278335	-0.609131	0.695557	-0.971680	0.114865	0.037749	-0.024730	0.699741	0.035142	-0.626123	0.342194	-60.631242	-64.197491	92.403573
02210		9.602802	2.356745	-3.155526	1.252454	7.537733	-2.788670	-0.329306	0.359685	1.775270	-0.602783	0.702393	-0.967285	0.095757	0.024366	-0.031767	0.697708	0.028299	-0.625838	0.347461	-61.460240	-63.248851	93.159129
02211		10.921076	-1.996741	-3.070944	3.360815	4.926528	0.042238	-0.277976	0.338527	1.550616	-0.596680	0.720215	-0.974121	0.109309	-0.019163	-0.030867	0.696088	0.021889	-0.625342	0.352036	-62.105208	-62.374581	93.705086
02212		8.566305	-6.476952	-2.062355	4.840753	0.164571	-0.008482	0.238120	0.529733	1.807679	-0.580811	0.720703	-0.982666	0.086188	-0.063967	-0.020928	0.694312	0.016691	-0.623415	0.359174	-62.384384	-61.363601	94.224650
02213		8.723619	-12.989747	-0.175528	6.599312	-5.221967	3.379607	0.621886	0.632128	1.961986	-0.569824	0.725342	-0.978271	0.088498	-0.129027	-0.002436	0.692665	0.011600	-0.620234	0.367954	-62.386495	-60.199976	94.635264
02214		2.862606	-3.919595	-3.408156	4.844225	0.230661	-6.399129	1.296131	0.706891	1.509380	-0.561035	0.729980	-0.998047	0.028798	-0.038757	-0.034435	0.691720	0.010635	-0.615655	0.377332	-61.752741	-59.288279	94.809535
02215		5.079772	4.961915	-4.318371	0.723099	8.212594	-8.762885	1.436062	0.408400	0.793834	-0.556152	0.723389	-1.004639	0.050512	0.050129	-0.042928	0.691377	0.012390	-0.611556	0.384505	-60.951661	-58.777326	94.834817
02216		1.986625	9.919092	-1.176458	-4.584368	8.551724	-12.906168	1.155957	0.481867	0.321324	-0.551514	0.721436	-1.015625	0.019679	0.099289	-0.011238	0.691856	0.015046	-0.607906	0.389305	-60.076546	-58.526604	94.638020
02217		1.014704	8.609152	1.467614	-6.078576	5.779751	-12.448225	0.770886	0.261971	0.002215	-0.558105	0.714600	-1.017822	0.010166	0.086034	0.014995	0.692583	0.017199	-0.605498	0.391671	-59.424946	-58.450322	94.391737
02218		-0.025422	5.159038	1.929056	-4.499266	2.599249	-11.639730	-0.043147	-0.135448	-0.228466	-0.553467	0.710205	-1.013184	-0.000208	0.051595	0.019279	0.692376	0.018618	-0.606246	0.390813	-59.471384	-58.655229	94.469619
02219		-0.071958	3.244025	-0.030832	-1.791776	2.239453	-11.330628	-0.671093	-0.551917	-0.584359	-0.558105	0.714600	-1.006836	-0.000624	0.032441	-0.000419	0.691896	0.019148	-0.609408	0.386698	-60.029530	-59.104231	94.672383
02220		0.090142	3.492045	-0.922906	-1.176937	2.966561	-11.506308	-0.937969	-0.820977	-0.999780	-0.580322	0.707520	-0.993652	0.001114	0.034871	-0.009388	0.691188	0.021145	-0.614138	0.380325	-60.796699	-59.888772	94.988560
02221		-0.155420	3.547002	-0.861588	-1.214655	2.890091	-11.688655	-1.116105	-1.058263	-1.431856	-0.593750	0.707031	-0.987061	-0.001254	0.035431	-0.008821	0.690739	0.023698	-0.619736	0.371814	-61.677491	-60.900215	95.266015
02222		-0.022540	2.757358	-1.172428	-0.499706	2.579530	-11.252816	-1.172161	-1.236534	-1.863868	-0.602783	0.702393	-0.965088	0.000104	0.027504	-0.011886	0.690266	0.028344	-0.626091	0.361579	-62.599265	-62.231342	95.599338
02223		0.382579	2.384024	-0.942320	-0.483995	2.411374	-10.630287	-1.137694	-1.389485	-2.312633	-0.622314	0.686279	-0.947510	0.004167	0.023739	-0.009530	0.690183	0.034169	-0.632551	0.349798	-63.465119	-63.773876	95.839387
02224		1.360252	2.503471	-0.818531	-0.672755	2.884568	-9.696129	-1.070740	-1.513514	-2.741750	-0.648926	0.674805	-0.936523	0.014006	0.024801	-0.008214	0.690099	0.042420	-0.639249	0.336637	-64.279163	-65.623203	96.109651
02225		2.707926	2.671164	-0.465172	-1.094181	3.374444	-8.363929	-0.943961	-1.562183	-3.104162	-0.661865	0.661133	-0.918945	0.027525	0.026265	-0.004563	0.690417	0.051710	-0.645469	0.322521	-64.926746	-67.614341	96.225797
02226		3.863433	2.395362	-0.378768	-1.050103	3.479838	-7.057146	-0.784901	-1.605121	-3.433409	-0.692383	0.638184	-0.903564	0.039067	0.023271	-0.003568	0.690676	0.063307	-0.651400	0.307632	-65.417297	-69.844813	96.318050
02227		4.984126	2.715494	-0.050908	-1.505468	3.837614	-5.911379	-0.607341	-1.615725	-3.723568	-0.711914	0.615479	-0.890381	0.050338	0.026220	-0.000184	0.691185	0.075812	-0.656601	0.292216	-65.647144	-72.170726	96.193032
02228		6.458006	2.869132	0.295170	-1.895055	4.048854	-4.332415	-0.498785	-1.682613	-3.941827	-0.735107	0.577393	-0.876953	0.065101	0.027420	0.003429	0.691286	0.090133	-0.661600	0.276198	-65.783784	-74.687269	96.085941
02229		8.140814	2.345108	0.011658	-1.385639	3.921896	-2.433002	-0.309237	-1.654807	-4.121323	-0.758789	0.547852	-0.861572	0.081864	0.021768	0.000758	0.691469	0.104963	-0.665728	0.260113	-65.523928	-77.230200	95.635468
02230		9.721615	1.429602	0.288602	-1.139248	2.983007	-0.516231	-0.056009	-1.561506	-4.273243	-0.766602	0.518799	-0.843750	0.097466	0.012216	0.003643	0.691524	0.121675	-0.668852	0.244185	-64.462289	-79.891597	94.568203
02231		10.762066	0.846526	0.921138	-1.323778	1.907293	0.769191	0.156651	-1.502919	-4.376918	-0.785645	0.489502	-0.834961	0.107698	0.006101	0.010026	0.691559	0.138659	-0.671018	0.228592	-62.050078	-82.519934	92.218702
02232		11.618412	0.830377	2.151152	-2.286420	0.868562	1.775989	0.098184	-1.589478	-4.411442	-0.797852	0.451660	-0.821533	0.116154	0.005731	0.022438	0.690859	0.156252	-0.673191	0.212399	-57.409610	-85.229196	87.656741
02233		12.846663	0.635375	2.554606	-2.439332	0.034382	3.070815	-0.189182	-1.756783	-4.393104	-0.812256	0.417969	-0.801758	0.128334	0.003559	0.026670	0.689562	0.172210	-0.675842	0.195152	-44.060252	-87.833881	74.177892
02234		14.191732	-0.528017	2.544813	-1.752670	-1.559533	4.421775	-0.504761	-1.857036	-4.311084	-0.817627	0.382080	-0.786133	0.141516	-0.008267	0.026782	0.687606	0.187441	-0.678829	0.176793	65.426860	-88.881836	-35.575716
02235		14.811425	-2.504506	2.785048	-0.920060	-4.062147	4.884916	-0.875641	-1.930487	-4.232278	-0.832275	0.353027	-0.763916	0.147263	-0.028041	0.029393	0.685420	0.200452	-0.682086	0.157407	100.235115	-86.501133	-70.905572
02236		15.550348	-3.851107	2.661640	-0.130601	-5.911035	5.310997	-1.174697	-2.007678	-4.128633	-0.842529	0.328125	-0.746338	0.154388	-0.041543	0.028408	0.682701	0.212605	-0.685520	0.137041	106.471657	-83.869972	-77.801656
02237		16.642765	-4.702578	2.108543	0.750770	-7.201305	6.032467	-1.275210	-1.991230	-3.963407	-0.848145	0.296875	-0.719727	0.165231	-0.050165	0.023048	0.679763	0.223148	-0.688798	0.116983	108.821493	-81.358328	-80.907330
02238		18.264637	-6.001310	1.370476	2.003209	-8.960718	7.132181	-1.087565	-1.811603	-3.719530	-0.858643	0.274414	-0.706543	0.181353	-0.063312	0.015690	0.676671	0.233752	-0.691226	0.098398	109.785928	-78.952116	-82.489336
02239		19.297521	-7.740164	0.897877	3.211031	-11.148343	7.463396	-0.704714	-1.464190	-3.412588	-0.859863	0.247803	-0.695313	0.191544	-0.080643	0.010665	0.673989	0.243845	-0.692417	0.082682	109.962904	-76.827137	-83.083309
02240		18.544590	-9.462953	0.793074	4.070683	-13.025153	5.929446	-0.301299	-1.151358	-3.038519	-0.856689	0.221191	-0.684326	0.183930	-0.097419	0.009138	0.671461	0.254167	-0.692573	0.069872	109.898559	-74.925758	-83.171725
02241		17.550359	-11.050841	0.851909	4.739897	-14.609164	4.149447	0.083064	-0.884483	-2.600498	-0.860352	0.203369	-0.681885	0.174007	-0.112781	0.009244	0.669134	0.263740	-0.692146	0.060292	109.842409	-73.351260	-83.063947
02242		15.975569	-11.395664	1.180735	4.613921	-14.919951	2.127365	0.255141	-0.742193	-2.151626	-0.862061	0.185547	-0.670898	0.158472	-0.115682	0.012250	0.666765	0.272495	-0.691641	0.052945	109.937097	-72.022740	-82.991704
02243		15.222214	-10.080114	1.600032	3.683495	-13.988133	1.440718	0.334657	-0.646866	-1.754429	-0.861572	0.174316	-0.659912	0.151278	-0.102158	0.016320	0.664503	0.279841	-0.691290	0.047363	110.141080	-70.950378	-83.004670
02244		14.793129	-9.510216	2.809926	2.388774	-14.072492	0.837662	0.329917	-0.459981	-1.341944	-0.861084	0.158691	-0.657471	0.147224	-0.096138	0.028280	0.662696	0.285801	-0.690845	0.043417	110.294936	-70.128523	-82.954084
02245		12.755548	-9.507915	3.623579	1.611605	-13.854432	-1.345696	0.079661	-0.400197	-0.932325	-0.863037	0.156494	-0.655273	0.127038	-0.095687	0.036452	0.661389	0.289373	-0.690815	0.040023	110.420900	-69.546922	-83.039715
02246		12.581504	-7.591675	2.727970	1.519302	-11.889410	-0.885087	-0.263989	-0.465019	-0.598325	-0.858643	0.154297	-0.646484	0.125523	-0.076256	0.027672	0.660250	0.290655	-0.691560	0.036522	110.629255	-69.137231	-83.418078
02247		15.786216	-9.366705	4.878545	0.450897	-15.477107	1.187062	-0.673113	-0.376316	-0.094955	-0.856445	0.154297	-0.646484	0.157725	-0.093576	0.049397	0.659936	0.288832	-0.692784	0.033327	110.721804	-69.009189	-83.930131
02248		15.300280	-16.922777	8.887343	-0.064032	-23.283651	-2.241983	-1.618617	-0.329828	0.811681	-0.859375	0.172119	-0.644531	0.153538	-0.167877	0.090489	0.660967	0.280596	-0.695333	0.030020	110.708535	-69.395247	-84.909959
02249		17.505457	-6.625087	8.137468	-4.103629	-14.936408	3.476350	-2.279738	-0.018429	1.288417	-0.857422	0.180908	-0.646729	0.175465	-0.064188	0.082130	0.663847	0.268567	-0.697486	0.026317	110.127780	-70.082400	-85.683316
02250		13.406890	11.283033	-1.986891	-2.377189	5.968977	6.610287	-2.341855	-0.278733	0.889038	-0.853027	0.187744	-0.646729	0.133595	0.113183	-0.021006	0.665901	0.257391	-0.699923	0.020846	109.699057	-70.542535	-86.670229
02251		23.262218	5.853270	4.144602	-5.621029	-4.014522	13.529211	-1.046209	0.530337	1.272841	-0.853760	0.203125	-0.648926	0.232351	0.060226	0.040518	0.668941	0.249393	-0.699880	0.022098	108.969719	-71.330342	-86.532866
02252		17.795672	0.842087	2.883738	-2.670149	-5.833960	7.055539	-0.638668	0.404878	1.709119	-0.849854	0.221191	-0.653564	0.177933	0.010033	0.028447	0.671004	0.240895	-0.700742	0.026168	108.901858	-72.365430	-86.867832
02253		12.764464	0.230544	-4.858791	4.587946	-1.838398	2.921558	-0.560864	-0.234355	1.570146	-0.853027	0.240967	-0.644775	0.127679	0.003172	-0.048446	0.670625	0.233538	-0.703470	0.029182	109.954750	-73.168315	-88.306698
02254		7.328364	-1.867558	-0.458850	1.151859	-3.573824	-3.232166	-0.399545	-0.003579	1.456792	-0.848633	0.245361	-0.646973	0.073417	-0.018150	-0.004551	0.670911	0.226725	-0.705266	0.032760	110.722003	-73.986648	-89.365894
02255		7.777266	-3.483150	3.508541	-2.001901	-6.444054	-3.536299	-0.281483	0.078325	1.490950	-0.848877	0.252197	-0.645020	0.078043	-0.034201	0.035103	0.671239	0.220508	-0.706722	0.036851	111.513972	-74.798841	-90.355674
02256		9.004404	-0.363659	0.759725	-0.607470	-2.895662	-1.266704	-0.142625	0.136059	1.205536	-0.847412	0.270020	-0.651611	0.090069	-0.003088	0.007538	0.671715	0.215361	-0.707648	0.040658	112.137245	-75.509178	-91.107607
02257		10.361400	0.801247	-1.137784	0.715825	-1.416965	0.520457	-0.090425	0.244255	1.084361	-0.845459	0.278809	-0.656006	0.103555	0.008569	-0.011508	0.672442	0.211171	-0.708005	0.044237	112.508476	-76.136220	-91.543993
02258		10.627766	1.216505	-3.406057	2.687352	-0.194456	1.085458	-0.105933	0.605254	0.969849	-0.845947	0.290039	-0.654053	0.106113	0.012662	-0.034388	0.674544	0.206859	-0.707041	0.047883	112.000287	-76.822985	-91.106136
02259		10.390898	0.378776	-2.796154	2.444338	-0.998893	0.625658	0.055916	0.618182	0.865934	-0.843750	0.292236	-0.665039	0.103804	0.004245	-0.028281	0.676451	0.203839	-0.705831	0.051635	111.396937	-77.414132	-90.454414
02260		10.339886	-0.047393	-1.367383	1.284026	-1.765015	0.386354	0.186298	0.498404	0.776610	-0.841797	0.299072	-0.669434	0.103365	-0.000060	-0.013932	0.677867	0.201236	-0.704920	0.055570	111.042103	-77.973006	-90.000380
02261		9.768970	0.050068	-0.952761	0.875278	-1.618195	-0.171220	0.149663	0.354153	0.672663	-0.835205	0.305664	-0.673828	0.097670	0.000836	-0.009700	0.678769	0.199276	-0.704353	0.058728	110.882838	-78.404747	-89.750126
02262		9.463233	-0.019177	-1.052997	0.998870	-1.511521	-0.465003	0.097654	0.280464	0.557098	-0.837402	0.301270	-0.671631	0.094617	0.000077	-0.010663	0.679542	0.197204	-0.703963	0.061398	110.781439	-78.801553	-89.606534
02263		10.050332	0.752597	-0.545845	0.255177	-1.043555	0.223206	0.011019	0.274416	0.456847	-0.839600	0.305664	-0.673828	0.100478	0.007756	-0.005596	0.680351	0.195552	-0.703478	0.063255	110.508800	-79.101228	-89.322373
02264		10.602854	1.189093	-1.029703	0.560988	-0.517339	0.878999	0.017115	0.308204	0.385262	-0.837646	0.312500	-0.680420	0.105989	0.012096	-0.010459	0.681340	0.193804	-0.702836	0.065091	110.075429	-79.411074	-88.887109
02265		9.655623	1.894352	-0.861739	0.161521	0.288437	0.059131	0.079707	0.308585	0.313612	-0.837891	0.314697	-0.680420	0.096513	0.019098	-0.008759	0.682240	0.192876	-0.702064	0.066734	109.552939	-79.639402	-88.309381
02266		9.488873	0.467691	-0.013796	-0.102433	-1.247732	-0.395140	0.072030	0.233673	0.311235	-0.837646	0.310303	-0.687012	0.094881	0.004825	-0.000247	0.682928	0.191611	-0.701577	0.068441	109.247713	-79.892843	-87.971848
02267		9.413214	0.559648	0.348784	-0.467377	-1.247544	-0.470922	0.049974	0.158139	0.282235	-0.837646	0.314697	-0.687012	0.094127	0.005728	0.003415	0.683334	0.190740	-0.701292	0.069727	109.094710	-80.074733	-87.787458
02268		9.856883	0.373799	-0.751058	0.629209	-1.063594	0.002339	0.118232	0.125187	0.271507	-0.837646	0.314697	-0.691406	0.098559	0.003876	-0.007570	0.683609	0.189809	-0.701113	0.071357	109.086862	-80.286148	-87.725259
02269		9.954813	1.211604	-1.050059	0.604480	-0.173860	0.250772	0.223890	0.142685	0.249796	-0.837891	0.319092	-0.693604	0.099525	0.012252	-0.010558	0.683803	0.189650	-0.700784	0.073127	109.037654	-80.447563	-87.545290
02270		10.575413	1.165610	-1.192661	0.758527	-0.226226	0.864100	0.260685	0.173518	0.292577	-0.840088	0.314697	-0.691406	0.105727	0.011826	-0.012003	0.684096	0.189123	-0.700402	0.075379	108.974210	-80.679026	-87.342712
02271		9.877603	2.303937	-1.459805	0.583052	1.063760	0.362506	0.231906	0.170257	0.280032	-0.831543	0.328125	-0.691406	0.098731	0.023195	-0.014655	0.684363	0.188873	-0.699999	0.077306	108.861798	-80.861921	-87.094265
02272		9.976140	1.830792	-1.052432	0.378343	0.505719	0.364925	0.137568	0.132959	0.298463	-0.838135	0.325928	-0.695801	0.099727	0.018464	-0.010578	0.684616	0.187936	-0.699802	0.079112	108.861772	-81.087708	-87.025788
02273		9.769857	1.308803	-0.946354	0.470039	0.052032	0.078467	0.062043	0.102496	0.289287	-0.840332	0.323486	-0.700195	0.097675	0.013232	-0.009510	0.684798	0.187097	-0.699700	0.080412	108.887396	-81.263074	-87.015800
02274		9.620648	0.680834	-0.473266	0.259135	-0.639825	-0.181084	0.061774	0.078940	0.286073	-0.842773	0.327881	-0.700195	0.096195	0.006947	-0.004768	0.684930	0.185980	-0.699700	0.081860	109.021828	-81.470992	-87.125935
02275		9.378122	1.167051	-0.713368	0.294460	-0.042618	-0.340016	0.083702	0.054396	0.257525	-0.838379	0.330322	-0.700195	0.093764	0.011794	-0.007154	0.684934	0.185345	-0.699722	0.083082	109.199416	-81.620190	-87.257043
02276		10.172196	0.727499	-0.014580	-0.190072	-0.785959	0.353388	0.109834	0.086391	0.290130	-0.840332	0.325928	-0.706787	0.101711	0.007423	-0.000186	0.685040	0.184382	-0.699675	0.084721	109.351758	-81.831072	-87.356383
02277		10.096145	1.380141	-0.223334	-0.243160	-0.067007	0.376675	0.136649	0.138856	0.301293	-0.844971	0.330078	-0.706787	0.100939	0.013955	-0.002294	0.685268	0.183739	-0.699421	0.086356	109.306531	-82.019920	-87.231679
02278		10.191787	1.291837	-0.189346	-0.241844	-0.132470	0.458684	0.179716	0.161946	0.322286	-0.842773	0.330322	-0.711182	0.101895	0.013084	-0.001964	0.685557	0.182875	-0.699107	0.088418	109.248789	-82.262008	-87.078068
02279		10.108630	1.075318	-0.120245	-0.225283	-0.309285	0.346478	0.178629	0.142894	0.338726	-0.845215	0.336914	-0.708984	0.101067	0.010925	-0.001265	0.685739	0.182241	-0.698849	0.090331	109.254972	-82.471886	-86.981096
02280		10.088366	0.764601	-0.353824	0.105069	-0.461055	0.299741	0.155601	0.119086	0.333917	-0.845459	0.339111	-0.713623	0.100869	0.007817	-0.003592	0.685890	0.181279	-0.698694	0.092306	109.366463	-82.711517	-87.011820
02281		9.895231	0.173731	-0.502970	0.462854	-0.886996	0.046200	0.150998	0.102632	0.331992	-0.845459	0.339111	-0.711426	0.098947	0.001905	-0.005079	0.685954	0.180590	-0.698574	0.094063	109.518645	-82.910163	-87.078060
02282		9.613899	-0.181339	-0.937051	0.992820	-0.972094	-0.251974	0.200050	0.102670	0.345195	-0.850098	0.343506	-0.720215	0.096137	-0.001638	-0.009422	0.685995	0.179753	-0.698457	0.096220	109.758557	-83.152489	-87.211701
02283		9.446257	0.020550	-1.395127	1.334012	-0.553014	-0.373778	0.330178	0.145254	0.384229	-0.845703	0.347900	-0.713623	0.094452	0.000410	-0.014019	0.686015	0.179474	-0.698145	0.098820	109.921043	-83.387556	-87.184875
02284		9.141834	1.065801	-1.058581	0.613118	0.358483	-0.575530	0.408535	0.176105	0.394730	-0.843506	0.348145	-0.720215	0.091388	0.010860	-0.010644	0.686085	0.179149	-0.697710	0.101948	110.045380	-83.670759	-87.080360
02285		9.436119	0.675452	-0.505643	0.253700	-0.201906	-0.344480	0.367290	0.183610	0.434733	-0.850342	0.352295	-0.722412	0.094342	0.006969	-0.005130	0.686170	0.178798	-0.697282	0.104883	110.137796	-83.940606	-86.961691
02286		9.410759	0.602093	-0.610382	0.374326	-0.174006	-0.371983	0.311173	0.179326	0.437613	-0.843506	0.352539	-0.726807	0.094089	0.006236	-0.006179	0.686301	0.177996	-0.696910	0.107820	110.271570	-84.246750	-86.921866
02287		9.743170	0.438329	-0.465110	0.304010	-0.367316	-0.060237	0.304081	0.174441	0.454024	-0.846191	0.359131	-0.729004	0.097417	0.004612	-0.004729	0.686388	0.177363	-0.696551	0.110591	110.416839	-84.525229	-86.892819
02288		10.075256	0.433882	-0.116290	-0.017704	-0.486050	0.260832	0.280968	0.175713	0.477672	-0.846191	0.361328	-0.735596	0.100741	0.004581	-0.001245	0.686498	0.176323	-0.696230	0.113558	110.654175	-84.851668	-86.973657
02289		10.060426	0.772554	-0.211754	-0.071758	-0.085241	0.278952	0.222942	0.173159	0.509631	-0.844238	0.365967	-0.733398	0.100582	0.007984	-0.002196	0.686609	0.175215	-0.695958	0.116234	110.911010	-85.159730	-87.103297
02290		9.925750	0.790036	-0.355678	0.043895	0.059675	0.150518	0.190429	0.160789	0.518988	-0.846436	0.370361	-0.735596	0.099234	0.008161	-0.003629	0.686710	0.173733	-0.695760	0.119011	111.346713	-85.504591	-87.434700
02291		10.010415	0.809450	-0.493987	0.154393	0.182080	0.239694	0.155724	0.164049	0.547043	-0.851074	0.374512	-0.737793	0.100077	0.008372	-0.005016	0.686814	0.172266	-0.695579	0.121572	111.809508	-85.830523	-87.809389
