// General information: 
//  MT Manager version: 2019.2.0 
//  XDA version: 2019.2.0 build 3853 rev 94535 built on 2019-09-09
// Device information: 
//  DeviceId: 00B40A40
//  ProductCode: MTW2-3A7G6
//  Firmware Version: 4.4.0
//  Hardware Version: 1.1.0
// Device settings: 
//  Filter Profile: human(46.1)
//  Option Flags: Orientation Smoother Disabled, AHS Disabled, ICC Disabled
// Coordinate system: ENU
PacketCounter	SampleTimeFine	Acc_X	Acc_Y	Acc_Z	FreeAcc_E	FreeAcc_N	FreeAcc_U	Gyr_X	Gyr_Y	Gyr_Z	Mag_X	Mag_Y	Mag_Z	VelInc_X	VelInc_Y	VelInc_Z	Quat_q0	Quat_q1	Quat_q2	Quat_q3	Roll	Pitch	Yaw
01748		8.515053	-2.516104	2.661653	0.000000	0.000000	-0.543314	0.732601	-0.322984	0.147186	-1.089844	0.264160	0.120361	0.085126	-0.025196	0.026662	0.046118	-0.581059	0.136211	-0.801055	-43.380954	-66.687189	-144.078115
01749		8.731867	-2.524103	2.723498	0.000000	-0.000000	-0.324062	0.737160	-0.399731	0.111453	-1.085449	0.268555	0.120117	0.087278	-0.025293	0.027316	0.054460	-0.583075	0.126811	-0.800610	-42.797525	-66.899695	-143.188895
01750		9.126460	-2.327999	2.726663	-0.139514	-0.309554	-0.013138	0.688655	-0.458694	0.068719	-1.087646	0.266357	0.120361	0.091210	-0.023343	0.027396	0.053793	-0.583579	0.128378	-0.800038	-43.169449	-66.920161	-143.001744
01751		9.732353	-2.158887	2.893153	-0.148747	-0.627388	0.547523	0.655929	-0.504721	0.048845	-1.085205	0.264160	0.125000	0.097256	-0.021660	0.029106	0.056226	-0.585386	0.125760	-0.798966	-43.308763	-67.111662	-142.442190
01752		10.234753	-1.905673	3.097688	-0.089863	-0.991785	1.003298	0.613751	-0.483800	0.034561	-1.081055	0.273193	0.131104	0.102276	-0.019134	0.031166	0.058005	-0.586940	0.122864	-0.798148	-43.256317	-67.320738	-142.105769
01753		10.122583	-1.709597	3.089615	-0.038338	-1.139690	0.847269	0.543379	-0.354293	0.020756	-1.090088	0.273193	0.137939	0.101173	-0.017170	0.031029	0.059899	-0.588181	0.120653	-0.797432	-43.299932	-67.460374	-141.721271
01754		9.731179	-1.567527	3.233865	0.236925	-1.146345	0.494620	0.488405	-0.233910	0.020438	-1.087891	0.273193	0.135498	0.097276	-0.015744	0.032414	0.060538	-0.589217	0.116964	-0.797169	-42.813697	-67.705939	-141.847608
01755		9.366067	-1.434960	3.110788	0.240947	-1.162240	0.089354	0.443555	-0.247489	0.019176	-1.081055	0.270996	0.137939	0.093623	-0.014410	0.031192	0.062066	-0.590056	0.115177	-0.796691	-42.814875	-67.802491	-141.571759
01756		9.235048	-1.337989	3.036313	0.215952	-1.108225	-0.064832	0.453996	-0.278677	0.043381	-1.083496	0.277588	0.139893	0.092311	-0.013429	0.030461	0.061277	-0.590947	0.109026	-0.796957	-41.550174	-68.210959	-142.390650
01757		9.053180	-1.414861	2.822375	0.089357	-0.961717	-0.273570	0.448791	-0.298560	0.033359	-1.081299	0.275635	0.142090	0.090492	-0.014197	0.028327	0.062899	-0.591979	0.107245	-0.796306	-41.613745	-68.326230	-142.045404
01758		9.013911	-1.365476	3.115076	0.387741	-0.874021	-0.226005	0.472726	-0.341223	0.011649	-1.085693	0.275391	0.144531	0.090087	-0.013723	0.031272	0.060870	-0.592997	0.098790	-0.796800	-39.638280	-68.903147	-143.487496
01759		9.038528	-1.323778	2.980885	0.280470	-0.895314	-0.249596	0.453740	-0.390736	0.004522	-1.079102	0.280029	0.146484	0.090327	-0.013304	0.029955	0.062426	-0.594411	0.096876	-0.795860	-39.755788	-69.073749	-143.083127
01760		8.966391	-1.329739	2.875497	0.198857	-0.695128	-0.330598	0.439622	-0.393339	0.002757	-1.079102	0.277832	0.150879	0.089607	-0.013360	0.028902	0.059897	-0.594992	0.087724	-0.796682	-37.346771	-69.640680	-144.944249
01761		8.866260	-1.466949	2.779576	0.166904	-0.521938	-0.421831	0.437558	-0.376559	-0.005736	-1.074707	0.277832	0.146484	0.088610	-0.014733	0.027930	0.061341	-0.596361	0.085851	-0.795752	-37.443737	-69.814084	-144.573622
01762		8.860586	-1.460970	2.804458	0.188814	-0.377597	-0.414225	0.435011	-0.371739	-0.010699	-1.077148	0.284668	0.155029	0.088553	-0.014676	0.028177	0.059234	-0.596826	0.077530	-0.796416	-35.172328	-70.298038	-146.332403
01763		8.986007	-1.402301	2.923046	0.296050	-0.451614	-0.275010	0.412117	-0.360760	-0.006832	-1.076904	0.277832	0.159912	0.089807	-0.014086	0.029364	0.060577	-0.598141	0.075762	-0.795499	-35.261675	-70.469164	-145.986876
01764		9.141228	-1.416203	2.835120	0.160402	-0.339979	-0.144999	0.381701	-0.328942	-0.000298	-1.072754	0.284668	0.161865	0.091365	-0.014216	0.028474	0.058953	-0.598239	0.069185	-0.796146	-33.342088	-70.806496	-147.498735
01765		9.338751	-1.469734	2.838977	0.132597	-0.311080	0.052290	0.366696	-0.274800	-0.004753	-1.070557	0.287109	0.161621	0.093348	-0.014752	0.028491	0.060126	-0.599225	0.067630	-0.795450	-33.375068	-70.939502	-147.241451
01766		9.273070	-1.438789	2.940752	0.239078	-0.242305	0.015439	0.341778	-0.191705	-0.002443	-1.077148	0.284668	0.159668	0.092702	-0.014439	0.029472	0.059838	-0.599067	0.062165	-0.796036	-31.869772	-71.141248	-148.321340
01767		9.108304	-1.370549	2.932107	0.288950	-0.270769	-0.154529	0.304730	-0.139607	-0.012110	-1.070313	0.284668	0.164063	0.091062	-0.013756	0.029364	0.060746	-0.599534	0.060874	-0.795715	-31.801660	-71.212864	-148.208838
01768		8.935550	-1.354975	2.941230	0.326204	-0.179714	-0.315733	0.267149	-0.124816	-0.012433	-1.079346	0.282471	0.166504	0.089336	-0.013595	0.029450	0.059428	-0.599000	0.056865	-0.796513	-30.383721	-71.345494	-149.405796
01769		8.895065	-1.400259	2.846566	0.252881	-0.117557	-0.372980	0.226994	-0.112910	-0.022550	-1.072754	0.284668	0.161865	0.088933	-0.014045	0.028500	0.060050	-0.599388	0.055860	-0.796246	-30.317575	-71.407848	-149.338351
01770		8.943767	-1.459513	2.709036	0.078330	-0.006358	-0.354683	0.193683	-0.098015	-0.036966	-1.077393	0.286865	0.170654	0.089422	-0.014638	0.027120	0.056303	-0.598269	0.054775	-0.797436	-29.086381	-71.440664	-150.788242
01771		8.919650	-1.489739	2.714447	0.095380	0.036221	-0.371433	0.149985	-0.080711	-0.056299	-1.079346	0.280273	0.166504	0.089181	-0.014943	0.027169	0.056549	-0.598564	0.053986	-0.797251	-28.983257	-71.496753	-150.806371
01772		8.962413	-1.498945	2.742182	0.074071	0.092510	-0.321787	0.097410	-0.066800	-0.077982	-1.074951	0.284668	0.164063	0.089609	-0.015038	0.027444	0.044707	-0.596409	0.059096	-0.799253	-27.691382	-71.455892	-153.490014
01773		9.094068	-1.514503	2.748912	0.048801	0.098512	-0.192905	0.034103	-0.067865	-0.091328	-1.076904	0.280273	0.171143	0.090924	-0.015191	0.027517	0.044464	-0.596699	0.058673	-0.799081	-27.587276	-71.514619	-153.579198
01774		9.368990	-1.542723	2.736886	-0.037159	0.088446	0.068573	-0.030357	-0.076658	-0.105113	-1.077148	0.282471	0.168701	0.093671	-0.015472	0.027407	0.047945	-0.597174	0.056038	-0.798714	-27.623260	-71.544335	-153.041073
01775		9.701472	-1.574078	2.853352	-0.010617	0.076674	0.421172	-0.093799	-0.076513	-0.109866	-1.072754	0.284668	0.173096	0.096995	-0.015781	0.028578	0.047248	-0.597532	0.056066	-0.798486	-27.570480	-71.612352	-153.153351
01776		9.603143	-1.587177	2.849712	0.029404	0.115605	0.328619	-0.156178	-0.020053	-0.116520	-1.079346	0.282471	0.170898	0.096019	-0.015905	0.028519	0.046555	-0.598067	0.055899	-0.798138	-27.499972	-71.708992	-153.266942
01777		9.298536	-1.628388	2.904743	0.168285	0.204072	0.060609	-0.196697	0.066772	-0.127581	-1.074707	0.278076	0.171143	0.092985	-0.016315	0.029032	0.045439	-0.597881	0.056318	-0.798312	-27.363105	-71.708716	-153.529790
01778		9.199609	-1.664335	2.840062	0.124170	0.266100	-0.046289	-0.222764	0.063224	-0.127312	-1.079102	0.275635	0.171387	0.091994	-0.016670	0.028390	0.044541	-0.597469	0.056343	-0.798669	-27.114026	-71.684627	-153.854588
01779		9.323337	-1.665211	2.796610	0.046074	0.256358	0.059026	-0.223228	0.052795	-0.113584	-1.076660	0.273438	0.171387	0.093231	-0.016674	0.027960	0.043406	-0.597340	0.056907	-0.798788	-27.025312	-71.687307	-154.082758
01780		9.474002	-1.604442	2.940488	0.129377	0.167927	0.233829	-0.223399	0.079410	-0.110820	-1.078857	0.271240	0.173828	0.094743	-0.016064	0.029385	0.041741	-0.596637	0.058249	-0.799305	-26.938015	-71.609365	-154.417058
01781		9.243833	-1.503504	3.064017	0.305895	0.099004	0.035855	-0.239706	0.148015	-0.143324	-1.083252	0.266846	0.171875	0.092450	-0.015065	0.030590	0.040410	-0.596137	0.058811	-0.799706	-26.740236	-71.570773	-154.770255
01782		9.308956	-1.567025	3.099675	0.291818	0.151166	0.117679	-0.256502	0.208576	-0.169389	-1.081055	0.269043	0.171631	0.093109	-0.015709	0.030920	0.034481	-0.594292	0.062908	-0.801044	-26.389713	-71.400080	-155.944506
01783		9.517067	-1.376550	3.328120	0.427590	-0.069251	0.353834	-0.270083	0.254178	-0.189966	-1.080811	0.262207	0.169922	0.095200	-0.013811	0.033179	0.032838	-0.593379	0.063469	-0.801745	-26.064264	-71.317561	-156.451295
01784		9.468027	-1.109668	3.073007	0.144885	-0.306637	0.197466	-0.333363	0.312545	-0.190596	-1.083008	0.264404	0.169678	0.094718	-0.011136	0.030601	0.023547	-0.590900	0.069887	-0.803367	-25.641544	-71.107575	-158.165642
01785		9.767232	-1.070524	2.722769	-0.306013	-0.343162	0.372932	-0.364309	0.287594	-0.173632	-1.085205	0.262207	0.174316	0.097702	-0.010741	0.027107	0.021672	-0.589847	0.070871	-0.804107	-25.382002	-71.001749	-158.660750
01786		11.211270	-1.034952	3.260243	-0.286220	-0.537582	1.892951	-0.339615	0.107744	-0.174980	-1.087158	0.255371	0.170410	0.112121	-0.010392	0.032560	-0.011496	-0.586624	0.093098	-0.804408	-24.840693	-71.069177	-163.759467
01787		12.196177	-0.915281	3.461974	-0.420279	-0.766752	2.868211	-0.368470	0.013858	-0.204109	-1.087158	0.255371	0.163574	0.121955	-0.009213	0.034628	-0.013404	-0.586641	0.093981	-0.804264	-24.732323	-71.111063	-164.097202
01788		11.336301	-0.550646	3.461163	-0.262420	-0.998196	2.008026	-0.417871	0.255665	-0.190243	-1.084961	0.253174	0.166016	0.113402	-0.005542	0.034478	-0.021454	-0.583782	0.097668	-0.805729	-23.851995	-70.896905	-165.947942
01789		10.035157	-0.311563	3.131901	-0.224524	-1.058748	0.648611	-0.458097	0.368300	-0.181040	-1.091309	0.244141	0.166504	0.100406	-0.003135	0.031141	-0.023700	-0.582336	0.098946	-0.806556	-23.597460	-70.745519	-166.495349
01790		10.362706	-0.152536	3.390634	-0.192057	-1.260878	1.016837	-0.398589	0.181283	-0.132911	-1.089111	0.246582	0.164063	0.103657	-0.001527	0.033815	-0.031848	-0.579589	0.103835	-0.807639	-23.105184	-70.529179	-168.067305
01791		11.545466	-0.308779	3.387617	-0.564573	-1.186877	2.151495	-0.332031	0.034235	-0.102813	-1.091309	0.244141	0.162109	0.115459	-0.003091	0.033862	-0.033243	-0.579451	0.104872	-0.807548	-23.120445	-70.534338	-168.252918
01792		12.179557	-0.229134	3.492835	-0.702653	-1.289313	2.774526	-0.287460	0.141466	-0.102279	-1.088867	0.241943	0.162109	0.121819	-0.002304	0.034845	-0.035175	-0.578669	0.104369	-0.808091	-22.529472	-70.489082	-168.962759
01793		12.071602	-0.012378	3.380294	-0.833315	-1.464761	2.609474	-0.318022	0.242333	-0.089246	-1.095703	0.241943	0.159912	0.120757	-0.000124	0.033657	-0.036583	-0.577680	0.105353	-0.808609	-22.429400	-70.380414	-169.262367
01794		11.599036	0.018565	3.093548	-0.972454	-1.352475	2.075672	-0.323259	0.243533	-0.072130	-1.090820	0.237549	0.157959	0.116028	0.000194	0.030794	-0.037798	-0.576804	0.103718	-0.809389	-21.652957	-70.314953	-170.005273
01795		10.915204	-0.033423	2.885789	-0.957368	-1.214430	1.371189	-0.356061	0.255560	-0.069731	-1.095459	0.237305	0.155762	0.109189	-0.000321	0.028719	-0.039240	-0.575737	0.104909	-0.809926	-21.603123	-70.193639	-170.274999
01796		10.401627	-0.138059	2.822961	-0.849415	-1.030132	0.883073	-0.376138	0.216724	-0.053845	-1.097656	0.235107	0.158203	0.104046	-0.001356	0.028119	-0.039969	-0.574835	0.103379	-0.810728	-20.952645	-70.107608	-170.860784
01797		9.987986	-0.141600	2.859586	-0.694736	-1.015350	0.504460	-0.402742	0.129723	-0.029596	-1.093018	0.232910	0.158203	0.099898	-0.001373	0.028534	-0.041314	-0.574243	0.104900	-0.810885	-21.066087	-70.044386	-170.985594
01798		9.504206	-0.199455	2.669721	-0.717941	-0.861539	-0.002518	-0.419719	0.103895	-0.020961	-1.097412	0.230713	0.158447	0.095056	-0.001949	0.026652	-0.047008	-0.573142	0.107705	-0.810986	-20.694095	-70.009031	-172.061599
01799		9.111243	-0.029716	2.433201	-0.847458	-0.961636	-0.469606	-0.453054	0.101621	-0.004624	-1.097412	0.232910	0.160400	0.091125	-0.000244	0.024286	-0.048381	-0.572625	0.109504	-0.811029	-20.889912	-69.955647	-172.129502
01800		8.909978	0.068873	2.324673	-0.917584	-0.990458	-0.703704	-0.469391	0.030086	0.000879	-1.090576	0.230957	0.162842	0.089103	0.000744	0.023232	-0.055246	-0.571711	0.113204	-0.810728	-20.577518	-69.969751	-173.316892
01801		8.897162	0.131165	2.182235	-1.058875	-1.025566	-0.770241	-0.519684	-0.053646	-0.010937	-1.095215	0.235107	0.158203	0.088966	0.001364	0.021843	-0.056746	-0.571790	0.115293	-0.810274	-20.888694	-70.000849	-173.302660
01802		8.829443	0.205399	2.054358	-1.146564	-1.057755	-0.880265	-0.553915	-0.081165	-0.037485	-1.090576	0.230957	0.165039	0.088286	0.002094	0.020574	-0.060286	-0.572803	0.117829	-0.808937	-21.040534	-70.208246	-173.650010
01803		8.659034	0.345692	1.905996	-1.253222	-1.155967	-1.104969	-0.565254	-0.080231	-0.064589	-1.095215	0.230713	0.169678	0.086584	0.003483	0.019085	-0.062120	-0.572993	0.119953	-0.808351	-21.314213	-70.264645	-173.703397
01804		8.629000	0.544978	1.958179	-1.223145	-1.348690	-1.136510	-0.582520	-0.093535	-0.081204	-1.094971	0.226318	0.169922	0.086283	0.005472	0.019606	-0.067512	-0.573962	0.123709	-0.806664	-21.462251	-70.508631	-174.308645
01805		8.676042	0.558180	2.076628	-1.129518	-1.402102	-1.057350	-0.594984	-0.121233	-0.078830	-1.095215	0.230713	0.169678	0.086750	0.005609	0.020802	-0.069463	-0.574297	0.125922	-0.805916	-21.756351	-70.590052	-174.358347
01806		8.701630	0.504288	2.254177	-0.927060	-1.381758	-0.964791	-0.603292	-0.118406	-0.074815	-1.092773	0.226318	0.172119	0.087005	0.005078	0.022578	-0.072821	-0.575872	0.127031	-0.804321	-21.588315	-70.886577	-174.889985
01807		8.803553	0.375581	2.248834	-0.924034	-1.270136	-0.855357	-0.621991	-0.153451	-0.059597	-1.092529	0.221924	0.179199	0.088019	0.003800	0.022544	-0.074755	-0.576299	0.129415	-0.803457	-21.946945	-70.981114	-174.887669
01808		9.218236	0.183203	2.393562	-0.835587	-1.136201	-0.391999	-0.618161	-0.212916	-0.028290	-1.092529	0.224121	0.181152	0.092157	0.001893	0.024028	-0.077102	-0.578062	0.130815	-0.801740	-22.072227	-71.277223	-175.066145
01809		9.323749	-0.168930	2.263279	-0.874797	-0.782777	-0.288759	-0.632557	-0.214331	0.002352	-1.101563	0.219482	0.186035	0.093213	-0.001616	0.022738	-0.078782	-0.578674	0.133439	-0.800702	-22.576120	-71.390570	-174.916908
01810		8.941471	-0.348962	2.220885	-0.697974	-0.571727	-0.637180	-0.613029	-0.154025	0.024865	-1.092529	0.219727	0.186035	0.089398	-0.003410	0.022288	-0.082449	-0.580076	0.134951	-0.799063	-22.440269	-71.674936	-175.475856
01811		8.451344	-0.227994	2.202984	-0.585899	-0.689054	-1.122910	-0.592819	-0.142339	0.048750	-1.090332	0.224365	0.187988	0.084498	-0.002194	0.022097	-0.083879	-0.580366	0.137518	-0.798266	-22.952728	-71.739674	-175.293945
01812		8.219848	-0.136988	2.082197	-0.609710	-0.737266	-1.386250	-0.575102	-0.214642	0.069827	-1.092529	0.222168	0.197021	0.082177	-0.001281	0.020914	-0.084057	-0.582391	0.137717	-0.796737	-23.190127	-72.022247	-175.080648
01813		8.321812	-0.024339	1.949097	-0.778566	-0.827905	-1.341533	-0.561318	-0.299066	0.077693	-1.094482	0.215332	0.197510	0.083189	-0.000156	0.019616	-0.085177	-0.583292	0.140304	-0.795507	-23.849423	-72.161886	-174.725854
01814		8.514585	0.005663	1.827371	-0.912946	-0.823373	-1.191437	-0.555881	-0.349891	0.061468	-1.087891	0.219971	0.203857	0.085114	0.000134	0.018422	-0.087509	-0.585266	0.141867	-0.793523	-24.074109	-72.491856	-174.816384
01815		8.723695	-0.030737	1.687075	-1.065564	-0.771284	-1.025218	-0.546016	-0.364858	0.024656	-1.087891	0.215576	0.208740	0.087206	-0.000250	0.017031	-0.088751	-0.586456	0.144264	-0.792073	-24.702895	-72.676744	-174.485357
01816		8.811410	-0.075562	1.516946	-1.184742	-0.682836	-0.976521	-0.533897	-0.333528	-0.019174	-1.081055	0.218018	0.224121	0.088089	-0.000723	0.015318	-0.089911	-0.588459	0.145174	-0.790289	-24.988994	-72.981624	-174.363467
01817		8.835528	-0.008148	1.457303	-1.241945	-0.740058	-0.975256	-0.502926	-0.282589	-0.059109	-1.089844	0.208740	0.218018	0.088335	-0.000071	0.014698	-0.091421	-0.589393	0.147113	-0.789060	-25.402656	-73.142930	-174.232375
01818		8.949888	0.125663	1.447909	-1.290175	-0.866209	-0.879725	-0.473977	-0.253228	-0.093741	-1.092041	0.208740	0.222656	0.089481	0.001249	0.014589	-0.094567	-0.590698	0.149558	-0.787252	-25.677055	-73.403946	-174.416095
01819		9.001094	0.221163	1.517509	-1.252709	-0.986034	-0.822145	-0.444093	-0.222180	-0.112570	-1.089600	0.204346	0.227295	0.089995	0.002195	0.015270	-0.096157	-0.591448	0.151078	-0.786205	-25.922449	-73.547137	-174.425677
01820		9.100465	0.328255	1.739738	-1.077734	-1.142412	-0.675606	-0.422068	-0.167634	-0.134361	-1.089600	0.204346	0.229492	0.090992	0.003258	0.017467	-0.098829	-0.592770	0.151158	-0.784861	-25.523485	-73.814181	-175.046601
01821		8.953803	0.352103	1.893323	-0.894647	-1.214776	-0.779241	-0.421264	-0.103094	-0.144113	-1.091797	0.204346	0.231689	0.089531	0.003496	0.018972	-0.100568	-0.593078	0.152434	-0.784161	-25.595137	-73.903698	-175.223448
01822		8.845521	0.288314	1.988083	-0.726644	-1.160391	-0.845841	-0.411444	-0.060983	-0.145450	-1.084717	0.197754	0.234375	0.088451	0.002860	0.019902	-0.103308	-0.594129	0.152462	-0.783003	-25.108773	-74.135374	-175.934124
01823		8.879506	0.222424	2.089078	-0.616186	-1.133331	-0.779680	-0.381556	-0.070566	-0.145649	-1.082520	0.197998	0.236572	0.088789	0.002199	0.020918	-0.104961	-0.594322	0.153558	-0.782423	-25.120832	-74.208072	-176.149007
01824		9.066592	0.196072	2.041987	-0.676204	-1.086222	-0.605402	-0.360772	-0.110620	-0.130100	-1.091797	0.199951	0.236572	0.090656	0.001939	0.020467	-0.106441	-0.595298	0.153934	-0.781406	-25.025626	-74.388373	-176.393940
01825		9.275685	0.141339	2.215117	-0.546335	-1.102840	-0.354871	-0.331339	-0.131641	-0.110362	-1.086914	0.195557	0.239014	0.092743	0.001399	0.022210	-0.107760	-0.595724	0.154969	-0.780695	-25.124073	-74.484302	-176.489041
01826		9.309417	0.157846	2.277594	-0.468612	-1.122864	-0.304945	-0.326752	-0.114695	-0.102853	-1.089111	0.193359	0.243652	0.093082	0.001568	0.022827	-0.109592	-0.597009	0.154758	-0.779499	-24.772081	-74.721749	-176.969824
01827		9.338439	0.118208	2.344949	-0.391577	-1.114490	-0.256340	-0.327890	-0.112356	-0.077050	-1.086670	0.188965	0.241699	0.093372	0.001185	0.023500	-0.110788	-0.597332	0.155867	-0.778862	-24.911717	-74.799572	-177.020045
01828		9.377539	0.038949	2.365092	-0.324622	-1.036287	-0.202582	-0.326471	-0.133343	-0.055437	-1.086670	0.186768	0.248535	0.093760	0.000402	0.023713	-0.112298	-0.598461	0.155931	-0.777766	-24.705579	-75.004456	-177.352023
01829		9.402922	0.019988	2.305508	-0.366673	-1.003845	-0.190394	-0.317726	-0.133168	-0.043575	-1.084473	0.191162	0.250488	0.094014	0.000216	0.023117	-0.113319	-0.598839	0.157110	-0.777089	-24.922190	-75.085147	-177.316500
01830		9.492479	0.023703	2.344177	-0.329672	-1.018418	-0.093788	-0.281832	-0.128343	-0.033741	-1.086426	0.182373	0.253418	0.094910	0.000254	0.023502	-0.114919	-0.599759	0.157760	-0.776012	-24.872411	-75.262086	-177.549083
01831		9.697966	-0.077640	2.269234	-0.400122	-0.906868	0.098088	-0.247545	-0.148634	-0.015821	-1.088867	0.186768	0.252930	0.096963	-0.000756	0.022765	-0.115609	-0.600212	0.158758	-0.775355	-25.119854	-75.344197	-177.440189
01832		9.897093	-0.085255	2.285670	-0.403213	-0.897865	0.297468	-0.197110	-0.119849	-0.005086	-1.088867	0.188965	0.252930	0.098957	-0.000832	0.022917	-0.116974	-0.601152	0.158829	-0.774407	-24.918985	-75.519083	-177.756217
01833		9.955242	-0.177023	2.357281	-0.312795	-0.848368	0.379339	-0.163169	-0.046236	0.000675	-1.088623	0.179932	0.253418	0.099547	-0.001751	0.023597	-0.117430	-0.601243	0.159489	-0.774132	-25.056867	-75.544172	-177.710696
01834		9.878732	-0.304487	2.385930	-0.200028	-0.721217	0.327064	-0.117713	0.028722	0.009972	-1.088867	0.184570	0.253174	0.098791	-0.003026	0.023847	-0.118022	-0.601790	0.158428	-0.773835	-24.579749	-75.642589	-178.146267
01835		9.864497	-0.344874	2.712514	0.102598	-0.811611	0.391024	-0.073606	0.115470	0.027685	-1.086670	0.188965	0.252930	0.098661	-0.003425	0.027069	-0.118233	-0.601285	0.158728	-0.774133	-24.570395	-75.577145	-178.199811
01836		9.800852	-0.416089	3.047965	0.446119	-0.853952	0.414318	-0.047259	0.199599	0.056049	-1.091064	0.182129	0.255615	0.098040	-0.004126	0.030383	-0.118418	-0.601092	0.157600	-0.774485	-24.079549	-75.557801	-178.612654
01837		9.747339	-0.514634	2.947775	0.385870	-0.724662	0.350520	-0.018029	0.178899	0.095135	-1.088867	0.188965	0.252930	0.097502	-0.005097	0.029391	-0.118250	-0.600322	0.157850	-0.775057	-24.120015	-75.443346	-178.581883
01838		9.869440	-0.544335	3.019464	0.424113	-0.711261	0.489424	0.030429	0.186214	0.126199	-1.091064	0.186523	0.244141	0.098726	-0.005386	0.030102	-0.119006	-0.599921	0.157646	-0.775293	-23.799927	-75.409643	-178.948781
01839		9.727161	-0.566945	2.816491	0.262954	-0.613594	0.307886	0.038417	0.234435	0.125994	-1.086914	0.191162	0.241455	0.097308	-0.005614	0.028050	-0.118592	-0.598945	0.157735	-0.776093	-23.822689	-75.259113	-178.902888
01840		9.767279	-0.426531	3.056219	0.399762	-0.811580	0.390429	0.065041	0.302602	0.100450	-1.093750	0.193115	0.234619	0.097721	-0.004226	0.030413	-0.117690	-0.598322	0.155718	-0.777117	-23.249909	-75.146892	-179.235320
01841		9.768735	-0.413574	3.111746	0.409891	-0.841128	0.405266	0.083753	0.344146	0.135254	-1.091309	0.193359	0.243652	0.097743	-0.004083	0.030948	-0.117187	-0.596938	0.155594	-0.778282	-23.177110	-74.936664	-179.261400
01842		9.762765	-0.333284	3.413836	0.623650	-1.004663	0.467316	0.142726	0.423282	0.154493	-1.091553	0.197754	0.232178	0.097702	-0.003282	0.033929	-0.116935	-0.595658	0.154197	-0.779577	-22.605888	-74.749547	-179.700137
01843		9.748362	-0.200273	3.473000	0.585294	-1.143491	0.457758	0.184653	0.454581	0.177171	-1.089355	0.197754	0.225342	0.097564	-0.001948	0.034506	-0.116051	-0.593865	0.153738	-0.781166	-22.477513	-74.471643	-179.723954
01844		9.905795	-0.142521	3.668712	0.658339	-1.246033	0.657190	0.241045	0.447133	0.208539	-1.094238	0.208740	0.218018	0.099141	-0.001366	0.036464	-0.114576	-0.592437	0.151838	-0.782839	-22.036198	-74.229653	-179.890515
01845		9.994017	-0.245278	3.824366	0.760543	-1.201916	0.795944	0.303436	0.470004	0.219302	-1.089600	0.204346	0.220459	0.100032	-0.002401	0.038005	-0.113181	-0.590612	0.151030	-0.784575	-21.917273	-73.934516	-179.833797
01846		9.923013	-0.251878	3.822665	0.733965	-1.167354	0.734384	0.363755	0.525455	0.207304	-1.096436	0.208740	0.213623	0.099333	-0.002485	0.037961	-0.111693	-0.588787	0.148933	-0.786558	-21.394051	-73.637701	179.933627
01847		9.763133	-0.283868	3.921483	0.820425	-1.157617	0.616303	0.417220	0.599788	0.197348	-1.094238	0.210938	0.204590	0.097751	-0.002824	0.038916	-0.110139	-0.586520	0.147537	-0.788731	-21.090765	-73.278062	179.866226
01848		9.532882	-0.181799	4.059778	0.916864	-1.265629	0.431717	0.446427	0.664433	0.192361	-1.092285	0.215332	0.186279	0.095465	-0.001816	0.040277	-0.109132	-0.584116	0.145353	-0.791057	-20.412314	-72.913697	179.443542
01849		9.345885	-0.134844	4.232212	1.043348	-1.348056	0.305074	0.467262	0.702775	0.204081	-1.090088	0.217529	0.188232	0.093608	-0.001351	0.041990	-0.107474	-0.581449	0.143717	-0.793544	-20.050075	-72.497170	179.344146
01850		9.243928	-0.040343	3.989766	0.762205	-1.310135	0.140815	0.464568	0.720771	0.207741	-1.092529	0.221924	0.170166	0.092583	-0.000399	0.039563	-0.104701	-0.578858	0.140396	-0.796398	-19.423447	-72.064217	179.213237
01851		10.115715	-0.014861	4.032971	0.457058	-1.326904	0.986517	0.456175	0.613505	0.258327	-1.097168	0.228516	0.165283	0.101280	-0.000109	0.040019	-0.102785	-0.576480	0.139006	-0.798613	-19.233851	-71.685292	179.288356
01852		12.361437	-0.275584	4.127093	-0.135129	-1.076557	3.177175	0.448341	0.341454	0.309668	-1.090820	0.233154	0.165039	0.123689	-0.002657	0.041054	-0.099587	-0.575246	0.136176	-0.800394	-18.955750	-71.436139	179.505539
01853		14.283873	-1.273871	4.956902	0.255014	-0.408350	5.352752	0.480333	0.334228	0.306285	-1.095215	0.230713	0.156250	0.142941	-0.012638	0.049300	-0.097209	-0.573948	0.134970	-0.801822	-18.988014	-71.199708	179.829743
01854		12.067637	-1.610162	4.696312	0.761055	0.028639	3.214014	0.444170	0.726057	0.164918	-1.095459	0.237305	0.148926	0.120859	-0.016106	0.046489	-0.094924	-0.571240	0.131876	-0.804539	-18.361555	-70.770399	179.639281
01855		9.234155	-0.944550	4.361018	1.101329	-0.467511	0.372992	0.367938	0.880944	0.095685	-1.097900	0.241699	0.137451	0.092537	-0.009481	0.043185	-0.094070	-0.567814	0.130252	-0.807324	-17.855527	-70.275394	179.325779
01856		8.566394	-0.387107	3.939710	0.719387	-0.824575	-0.439499	0.299625	0.464891	0.111317	-1.091064	0.241943	0.135254	0.085757	-0.003882	0.039192	-0.092609	-0.566004	0.127901	-0.809138	-17.369222	-69.991268	179.149026
01857		9.098893	-0.472763	3.474415	0.119046	-0.585773	-0.079877	0.258406	0.144511	0.100361	-1.093018	0.237305	0.133301	0.091016	-0.004727	0.034672	-0.091565	-0.565487	0.127076	-0.809748	-17.305259	-69.896883	179.238196
01858		9.611525	-0.838253	3.693617	0.231804	-0.288295	0.511558	0.228507	0.088813	0.066175	-1.100098	0.243896	0.130615	0.096134	-0.008393	0.036884	-0.089545	-0.565288	0.124934	-0.810446	-17.075030	-69.825220	179.352717
01859		9.878715	-1.306395	3.765983	0.333376	0.141177	0.833778	0.240253	-0.013513	0.056822	-1.093506	0.246338	0.130615	0.098788	-0.013081	0.037651	-0.088628	-0.565428	0.124130	-0.810573	-17.029926	-69.825007	179.450947
01860		9.985587	-1.652887	3.426026	0.088993	0.591306	0.856149	0.308174	-0.072888	0.072845	-1.095703	0.246094	0.130615	0.099849	-0.016545	0.034271	-0.086976	-0.565803	0.122061	-0.810804	-16.783994	-69.841600	179.515201
01861		9.773631	-1.970076	3.000748	-0.135412	1.023711	0.547969	0.353679	0.074895	0.090803	-1.093506	0.243896	0.124023	0.097756	-0.019709	0.029936	-0.085652	-0.565611	0.120856	-0.811259	-16.685312	-69.787517	179.625603
01862		9.255620	-2.558007	2.617164	-0.167649	1.715442	-0.010213	0.429594	0.243474	0.119160	-1.095947	0.252930	0.121094	0.092603	-0.025581	0.026004	-0.083336	-0.564794	0.118155	-0.812467	-16.325815	-69.626887	179.679337
01863		8.760360	-3.108072	2.793719	0.273369	2.202652	-0.363756	0.563435	0.293517	0.163638	-1.089111	0.250732	0.118896	0.087670	-0.031087	0.027721	-0.081252	-0.563751	0.116210	-0.813682	-16.120515	-69.441251	179.804422
01864		8.187344	-3.212137	2.628996	0.302641	2.367861	-0.949080	0.673316	0.228897	0.213682	-1.089355	0.255127	0.116455	0.081938	-0.032122	0.026088	-0.077623	-0.562983	0.112884	-0.815035	-15.834853	-69.264787	-179.907266
01865		7.670455	-3.184473	2.347361	0.187027	2.427560	-1.532669	0.762679	0.141529	0.249897	-1.092041	0.263916	0.115967	0.076761	-0.031838	0.023298	-0.074534	-0.562572	0.110428	-0.815943	-15.705246	-69.149889	-179.578815
01866		7.504384	-2.855275	2.203781	-0.002677	2.154756	-1.770176	0.778030	0.013496	0.288969	-1.094482	0.270752	0.111084	0.075087	-0.028530	0.021922	-0.070080	-0.562689	0.107217	-0.816685	-15.642646	-69.084324	-179.006000
01867		7.768916	-2.696314	2.176984	-0.176032	2.002603	-1.546854	0.753961	-0.178556	0.343727	-1.092285	0.268555	0.113525	0.077716	-0.026912	0.021738	-0.066455	-0.563509	0.105173	-0.816688	-15.783036	-69.131639	-178.393683
01868		8.367029	-2.696591	2.325980	-0.260733	1.949023	-0.934498	0.757777	-0.370594	0.389061	-1.088135	0.281982	0.114990	0.083679	-0.026891	0.023313	-0.062024	-0.565043	0.102825	-0.816276	-16.029993	-69.263265	-177.581141
01869		8.965177	-2.799726	2.324918	-0.438002	2.021684	-0.360757	0.742765	-0.501756	0.359229	-1.083740	0.281982	0.121582	0.089643	-0.027923	0.023370	-0.058195	-0.567147	0.100969	-0.815330	-16.346312	-69.484197	-176.788767
01870		9.510324	-2.871118	2.499018	-0.437857	2.019339	0.220514	0.735654	-0.548158	0.267208	-1.083984	0.288818	0.121094	0.095073	-0.028676	0.025145	-0.053603	-0.569508	0.098278	-0.814327	-16.605025	-69.729511	-175.921653
01871		9.945229	-2.631226	2.742792	-0.379415	1.712362	0.688626	0.739847	-0.540759	0.158248	-1.083984	0.284424	0.130371	0.099399	-0.026335	0.027599	-0.050578	-0.571842	0.095868	-0.813171	-16.664862	-70.002764	-175.406760
01872		10.238083	-2.315989	2.900474	-0.359342	1.359287	0.986293	0.708618	-0.513090	0.083182	-1.079346	0.284424	0.134766	0.102316	-0.023221	0.029185	-0.046978	-0.574184	0.092860	-0.812086	-16.676233	-70.270617	-174.844119
01873		10.406952	-2.041137	2.952119	-0.380400	1.079939	1.136048	0.661794	-0.436042	0.064437	-1.079590	0.288818	0.134521	0.104012	-0.020476	0.029680	-0.044605	-0.576095	0.090469	-0.811135	-16.602706	-70.501890	-174.519979
01874		10.375458	-1.945108	3.077682	-0.238278	0.962994	1.138180	0.617441	-0.343952	0.057891	-1.074951	0.289063	0.134521	0.103707	-0.019516	0.030895	-0.041126	-0.577870	0.087579	-0.810373	-16.595589	-70.697094	-173.997974
01875		10.181865	-1.827018	3.188707	-0.065421	0.841206	0.979174	0.553250	-0.293782	0.048871	-1.070557	0.291260	0.136719	0.101776	-0.018334	0.031986	-0.039191	-0.579171	0.085548	-0.809757	-16.499266	-70.853161	-173.764656
01876		9.966040	-1.726245	3.102030	-0.069958	0.766835	0.738686	0.488527	-0.289280	0.037825	-1.075195	0.293457	0.134277	0.099619	-0.017320	0.031122	-0.035766	-0.580657	0.082902	-0.809126	-16.537694	-71.010873	-173.223163
01877		9.748614	-1.734398	3.092038	0.015188	0.792065	0.530265	0.470215	-0.273510	0.045527	-1.073242	0.300293	0.136230	0.097448	-0.017395	0.031013	-0.034093	-0.581850	0.081191	-0.808515	-16.478077	-71.156550	-173.001791
01878		9.578265	-1.747909	3.240899	0.228293	0.789597	0.416005	0.454225	-0.266230	0.033641	-1.080078	0.300049	0.136230	0.095742	-0.017537	0.032497	-0.031325	-0.583030	0.078968	-0.807997	-16.490718	-71.283897	-172.576193
01879		9.367112	-1.771763	3.163247	0.247577	0.843812	0.193046	0.428076	-0.270218	0.004578	-1.080078	0.302246	0.140625	0.093629	-0.017783	0.031721	-0.029941	-0.584208	0.077306	-0.807359	-16.390464	-71.434494	-172.423530
01880		9.224650	-1.705070	3.170462	0.308412	0.791259	0.053011	0.414827	-0.269123	-0.023700	-1.077637	0.293457	0.143311	0.092202	-0.017128	0.031793	-0.028264	-0.585305	0.075496	-0.806796	-16.300489	-71.570045	-172.224804
01881		9.060155	-1.444586	3.303109	0.472088	0.532303	-0.087591	0.385626	-0.265604	-0.013605	-1.073242	0.300293	0.147461	0.090557	-0.014516	0.033123	-0.027077	-0.586457	0.073950	-0.806143	-16.193722	-71.721131	-172.104850
01882		8.835502	-1.397010	3.232498	0.491291	0.512229	-0.327805	0.330418	-0.259282	-0.009952	-1.077881	0.300049	0.142822	0.088312	-0.014028	0.032416	-0.025099	-0.587690	0.072224	-0.805465	-16.206425	-71.870072	-171.785731
01883		8.557407	-1.441825	3.133199	0.509329	0.591953	-0.619475	0.287676	-0.231342	-0.021856	-1.073242	0.300293	0.142822	0.085536	-0.014473	0.031410	-0.024244	-0.588689	0.071043	-0.804867	-16.126848	-72.003758	-171.696420
01884		8.290518	-1.461789	3.056611	0.534954	0.639581	-0.895450	0.242089	-0.201432	-0.033804	-1.071045	0.300293	0.149658	0.082872	-0.014669	0.030632	-0.023206	-0.589440	0.069996	-0.804439	-16.103234	-72.098452	-171.547536
01885		8.125526	-1.371550	2.984095	0.522571	0.576415	-1.083152	0.215508	-0.211783	-0.055927	-1.071289	0.302490	0.156250	0.081220	-0.013770	0.029912	-0.022706	-0.590359	0.069002	-0.803865	-15.997821	-72.226721	-171.528878
01886		7.996917	-1.351365	2.576555	0.190149	0.622190	-1.327866	0.170455	-0.236404	-0.073426	-1.075684	0.300293	0.160889	0.079934	-0.013565	0.025848	-0.021122	-0.591473	0.067568	-0.803211	-16.010869	-72.365752	-171.266416
01887		7.927355	-1.286334	2.286598	-0.051493	0.608638	-1.484841	0.125590	-0.230509	-0.119832	-1.077637	0.295898	0.161133	0.079239	-0.012925	0.022949	-0.021138	-0.592476	0.066748	-0.802540	-15.855231	-72.514506	-171.354514
01888		8.082346	-1.311910	2.289921	-0.070213	0.634422	-1.334380	0.068507	-0.225348	-0.174303	-1.075195	0.291260	0.161377	0.080786	-0.013197	0.022986	-0.020550	-0.593660	0.065509	-0.801782	-15.718930	-72.681384	-171.339095
01889		8.277773	-1.255231	2.093305	-0.297053	0.609410	-1.209237	-0.002676	-0.269372	-0.227755	-1.072998	0.291504	0.163574	0.082735	-0.012646	0.021045	-0.021365	-0.594839	0.064886	-0.800937	-15.459860	-72.868220	-171.612300
01890		8.536629	-1.156270	1.856885	-0.576549	0.542222	-1.035873	-0.069977	-0.354999	-0.257801	-1.072998	0.293701	0.174805	0.085318	-0.011666	0.018724	-0.021686	-0.596500	0.064123	-0.799754	-15.310008	-73.114469	-171.723479
01891		8.858825	-1.113994	1.811528	-0.680750	0.509714	-0.741964	-0.139581	-0.356719	-0.277757	-1.070557	0.284912	0.173096	0.088540	-0.011250	0.018281	-0.023081	-0.598025	0.063907	-0.798592	-15.069429	-73.356643	-172.058647
01892		9.044841	-1.096033	1.766909	-0.741698	0.502004	-0.575255	-0.214558	-0.277808	-0.311108	-1.079346	0.280273	0.175537	0.090407	-0.011082	0.017807	-0.023452	-0.599485	0.063147	-0.797546	-14.880122	-73.576107	-172.214102
01893		9.155022	-1.142375	1.741361	-0.762595	0.567821	-0.472038	-0.314847	-0.199528	-0.327361	-1.079102	0.278076	0.173340	0.091514	-0.011546	0.017523	-0.025620	-0.600373	0.063461	-0.796786	-14.553252	-73.737785	-172.743151
01894		9.390078	-1.200933	1.782851	-0.759322	0.629911	-0.230363	-0.382296	-0.089713	-0.319835	-1.074707	0.278076	0.182373	0.093873	-0.012125	0.017894	-0.027942	-0.600822	0.064225	-0.796309	-14.288970	-73.835881	-173.259605
01895		9.372376	-1.243781	1.689019	-0.826069	0.705519	-0.270098	-0.485304	0.021723	-0.300385	-1.083496	0.273438	0.187256	0.093707	-0.012538	0.016910	-0.030585	-0.600789	0.065269	-0.796151	-13.992569	-73.869325	-173.858075
01896		9.144305	-1.302701	1.442630	-0.983055	0.817393	-0.551911	-0.578049	0.080542	-0.295154	-1.078613	0.266846	0.180908	0.091430	-0.013120	0.014427	-0.032597	-0.600701	0.066285	-0.796054	-13.833524	-73.884104	-174.265351
01897		9.049089	-1.324406	1.652296	-0.753821	0.829134	-0.586941	-0.626566	0.165853	-0.309693	-1.085205	0.262207	0.183350	0.090484	-0.013332	0.016490	-0.035748	-0.600066	0.067839	-0.796267	-13.532012	-73.837371	-174.953397
01898		9.020070	-1.333689	1.866456	-0.543823	0.820411	-0.557677	-0.677363	0.203546	-0.330153	-1.084961	0.257813	0.181396	0.090198	-0.013423	0.018618	-0.038833	-0.599371	0.069550	-0.796498	-13.296514	-73.780296	-175.583216
01899		9.306754	-1.417386	2.166471	-0.331193	0.867188	-0.197256	-0.724729	0.187206	-0.349139	-1.089355	0.253174	0.179443	0.093063	-0.014258	0.021629	-0.042441	-0.598630	0.071372	-0.796710	-12.972628	-73.724978	-176.353528
01900		9.761482	-1.464825	2.467255	-0.168550	0.868964	0.323192	-0.765153	0.197441	-0.354653	-1.091309	0.246582	0.179932	0.097613	-0.014727	0.024632	-0.046225	-0.597868	0.073611	-0.796868	-12.746664	-73.668112	-177.074929
01901		10.187981	-1.509037	2.187686	-0.547017	0.971785	0.657006	-0.849265	0.153301	-0.362969	-1.086670	0.242188	0.182373	0.101869	-0.015182	0.021863	-0.050245	-0.597217	0.075893	-0.796899	-12.489060	-73.631510	-177.850919
01902		12.375129	-1.663486	3.513072	0.129178	0.875602	3.128303	-0.730927	-0.024013	-0.425458	-1.088379	0.228760	0.189941	0.123711	-0.016769	0.035207	-0.054036	-0.597391	0.077779	-0.796338	-12.208351	-73.710452	-178.597250
01903		13.868842	-1.361588	4.304293	0.436594	0.443887	4.759126	-0.720904	-0.197343	-0.466908	-1.087891	0.219971	0.194824	0.138614	-0.013784	0.043229	-0.057951	-0.598186	0.079327	-0.795312	-11.815089	-73.880438	-179.437342
01904		12.458445	-0.950518	2.898735	-0.539852	0.338330	2.997974	-0.814578	0.093660	-0.368619	-1.092529	0.221924	0.192627	0.124580	-0.009617	0.028968	-0.061115	-0.598136	0.081010	-0.794944	-11.597657	-73.918931	179.947149
01905		11.375115	-0.708427	2.629290	-0.554203	0.176924	1.869338	-0.740822	0.340590	-0.308161	-1.085449	0.215332	0.181641	0.113785	-0.007163	0.026126	-0.064673	-0.596705	0.082948	-0.795538	-11.303871	-73.766675	179.198879
01906		11.631876	-0.652828	3.109547	-0.203072	0.032069	2.243586	-0.631311	0.130854	-0.214863	-1.096436	0.208496	0.195557	0.116332	-0.006555	0.031040	-0.067285	-0.596203	0.084927	-0.795489	-11.300717	-73.734429	178.817296
01907		12.559602	-0.563452	3.511174	-0.105595	-0.134773	3.239519	-0.506468	-0.037932	-0.130957	-1.091797	0.206543	0.193604	0.125586	-0.005628	0.035150	-0.069279	-0.596266	0.086583	-0.795091	-11.365779	-73.774450	178.582318
01908		12.917828	-0.181740	3.747360	-0.056820	-0.563510	3.627001	-0.447710	0.089432	-0.089085	-1.100830	0.206299	0.186768	0.129194	-0.001791	0.037420	-0.070324	-0.596189	0.087681	-0.794937	-11.471137	-73.780323	178.511326
01909		12.632690	0.130931	3.820739	0.001275	-0.889310	3.355800	-0.446422	0.252373	-0.069274	-1.098389	0.201904	0.187012	0.126375	0.001351	0.038045	-0.072021	-0.595088	0.089180	-0.795443	-11.507726	-73.650672	178.282423
01910		12.128018	0.227785	3.928097	0.184516	-1.016189	2.895727	-0.464467	0.343613	-0.057965	-1.098633	0.206299	0.182373	0.121348	0.002334	0.039067	-0.074154	-0.593661	0.091119	-0.796093	-11.572547	-73.482601	178.008690
01911		10.928593	-0.011241	3.417260	0.056800	-0.678497	1.617455	-0.482446	0.413047	-0.035839	-1.100830	0.206299	0.180176	0.109356	-0.000050	0.033947	-0.075898	-0.591882	0.092800	-0.797059	-11.634215	-73.259022	177.784006
01912		9.855870	-0.050661	3.353466	0.267543	-0.641086	0.574984	-0.423190	0.461010	-0.032830	-1.098389	0.199463	0.182617	0.098636	-0.000452	0.033308	-0.077739	-0.589930	0.094578	-0.798120	-11.700885	-73.013454	177.547545
01913		9.140945	0.162708	3.401596	0.424376	-0.869464	-0.106092	-0.429219	0.437839	-0.036994	-1.100830	0.204102	0.184814	0.091484	0.001683	0.033812	-0.079340	-0.588060	0.096031	-0.799167	-11.725534	-72.776180	177.315478
01914		8.750834	0.277920	3.234611	0.328403	-0.948793	-0.533199	-0.440500	0.299617	-0.035410	-1.100586	0.199463	0.178223	0.087557	0.002835	0.032209	-0.080100	-0.587094	0.097034	-0.799680	-11.833532	-72.653761	177.275432
01915		8.604497	0.387525	2.980016	0.085685	-0.998469	-0.753784	-0.450791	0.178424	-0.045993	-1.100586	0.197266	0.173828	0.086072	0.003923	0.029715	-0.081675	-0.586253	0.098650	-0.799941	-11.953823	-72.563414	177.130225
01916		8.378350	0.609845	2.745519	-0.128543	-1.162925	-1.052687	-0.477985	0.118459	-0.071389	-1.103027	0.201660	0.173584	0.083802	0.006134	0.027391	-0.082904	-0.585903	0.099965	-0.799907	-12.075173	-72.537096	177.040766
01917		8.028300	0.708148	2.463945	-0.321177	-1.193850	-1.476162	-0.504001	0.115510	-0.096857	-1.102783	0.197266	0.173828	0.080301	0.007105	0.024575	-0.084807	-0.585311	0.101669	-0.799926	-12.159188	-72.488414	176.825449
01918		7.641905	0.722349	2.263124	-0.403315	-1.163640	-1.905381	-0.512106	0.111714	-0.108007	-1.100342	0.195068	0.178467	0.076436	0.007240	0.022570	-0.086489	-0.584881	0.103214	-0.799863	-12.249359	-72.459343	176.647991
01919		7.438520	0.691981	2.180882	-0.419137	-1.117669	-2.122316	-0.532650	0.030174	-0.102221	-1.102539	0.190430	0.176514	0.074392	0.006940	0.021779	-0.088452	-0.584614	0.105053	-0.799604	-12.373572	-72.459374	176.457541
01920		7.543944	0.707746	2.139635	-0.486989	-1.125804	-2.035449	-0.558710	-0.138005	-0.084391	-1.100342	0.192871	0.176514	0.075428	0.007105	0.021429	-0.089625	-0.585301	0.106561	-0.798771	-12.603861	-72.581514	176.468431
01921		7.771587	0.586906	1.915196	-0.717082	-0.953389	-1.876264	-0.583368	-0.271582	-0.061231	-1.097656	0.186279	0.185791	0.077692	0.005901	0.019240	-0.091413	-0.586187	0.108855	-0.797608	-12.950824	-72.745592	176.481066
01922		7.897581	0.585161	1.685825	-0.941325	-0.898607	-1.821281	-0.599573	-0.299008	-0.046638	-1.102295	0.186035	0.190186	0.078952	0.005884	0.016959	-0.092551	-0.587426	0.110766	-0.796302	-13.342673	-72.947979	176.624917
01923		7.794321	0.527356	1.610865	-0.944925	-0.836250	-1.936636	-0.623277	-0.303511	-0.044619	-1.099854	0.181885	0.197266	0.077920	0.005307	0.016210	-0.094372	-0.588401	0.113278	-0.795013	-13.764586	-73.127669	176.691954
01924		7.795249	0.550391	1.536648	-0.991701	-0.850871	-1.956313	-0.644065	-0.352863	-0.053709	-1.097656	0.181885	0.195068	0.077927	0.005533	0.015486	-0.095423	-0.589959	0.115101	-0.793470	-14.175450	-73.374630	176.870177
01925		7.978348	0.552263	1.498974	-1.052871	-0.853437	-1.789660	-0.652404	-0.446444	-0.040766	-1.097412	0.177490	0.204346	0.079751	0.005556	0.015150	-0.097233	-0.591473	0.117803	-0.791725	-14.701543	-73.632953	177.028252
01926		8.356662	0.495607	1.447958	-1.150215	-0.796261	-1.433019	-0.662874	-0.526378	-0.043427	-1.093262	0.186523	0.212646	0.083529	0.004986	0.014683	-0.098600	-0.593554	0.120102	-0.789650	-15.242271	-73.963065	177.272603
01927		8.722021	0.503556	1.334416	-1.317402	-0.783070	-1.108725	-0.674018	-0.543383	-0.046578	-1.097168	0.170898	0.220459	0.087185	0.005061	0.013564	-0.100439	-0.595425	0.122914	-0.787574	-15.845389	-74.274983	177.497365
01928		8.869092	0.528543	1.200933	-1.438588	-0.783409	-0.997986	-0.670651	-0.533161	-0.057937	-1.090576	0.175537	0.229004	0.088660	0.005301	0.012228	-0.101592	-0.597608	0.124997	-0.785443	-16.407071	-74.616156	177.798542
01929		8.948722	0.595780	1.110080	-1.522321	-0.833763	-0.943973	-0.661215	-0.521254	-0.070917	-1.094971	0.173096	0.231445	0.089460	0.005963	0.011314	-0.103501	-0.599394	0.127668	-0.783400	-16.973135	-74.918785	177.991770
01930		9.108536	0.617273	1.075087	-1.554037	-0.858540	-0.793265	-0.640183	-0.530190	-0.068676	-1.096924	0.166504	0.240967	0.091059	0.006176	0.010973	-0.104687	-0.601562	0.129627	-0.781256	-17.518661	-75.259436	178.284213
01931		9.336605	0.598476	0.944208	-1.681307	-0.812288	-0.596664	-0.621730	-0.556291	-0.062398	-1.088135	0.166748	0.251953	0.093341	0.005985	0.009683	-0.106421	-0.603481	0.132181	-0.779111	-18.135498	-75.578740	178.552672
01932		9.684088	0.566878	1.011305	-1.640006	-0.821522	-0.233495	-0.585932	-0.551311	-0.053349	-1.092529	0.166504	0.256592	0.096814	0.005673	0.010363	-0.107265	-0.605837	0.133785	-0.776890	-18.701994	-75.939013	178.924010
01933		9.946083	0.584686	1.121417	-1.563755	-0.892261	0.050495	-0.566940	-0.489244	-0.047623	-1.087891	0.162354	0.261230	0.099434	0.005855	0.011441	-0.108821	-0.607499	0.136128	-0.774966	-19.308507	-76.217956	179.213356
01934		10.049390	0.525008	1.255671	-1.397519	-0.898684	0.191400	-0.550533	-0.413159	-0.055815	-1.087891	0.160156	0.270264	0.100469	0.005257	0.012750	-0.109849	-0.609253	0.137678	-0.773168	-19.787295	-76.496980	179.484465
01935		10.182931	0.418550	1.396903	-1.229635	-0.862269	0.363903	-0.530168	-0.350427	-0.054404	-1.089844	0.157959	0.277344	0.101806	0.004195	0.014136	-0.111414	-0.610390	0.139777	-0.771669	-20.275373	-76.701360	179.673060
01936		10.269614	0.280967	1.589879	-0.985769	-0.814994	0.504076	-0.503669	-0.289374	-0.047189	-1.085449	0.155762	0.275146	0.102674	0.002826	0.016040	-0.112046	-0.611822	0.140795	-0.770258	-20.651961	-76.924189	179.917630
01937		10.082670	0.104337	1.707803	-0.752926	-0.704139	0.362034	-0.480422	-0.195039	-0.041739	-1.087402	0.148926	0.275635	0.100810	0.001064	0.017174	-0.113521	-0.612370	0.142650	-0.769264	-21.021989	-77.042333	-179.986014
01938		9.933800	-0.010725	1.761815	-0.608901	-0.623149	0.238452	-0.443845	-0.108837	-0.028524	-1.083008	0.155762	0.277344	0.099328	-0.000082	0.017672	-0.114630	-0.612922	0.143815	-0.768442	-21.225892	-77.151581	-179.968432
01939		9.783674	-0.216346	2.018190	-0.264239	-0.533035	0.161590	-0.394635	-0.029465	-0.011159	-1.087402	0.151123	0.277588	0.097834	-0.002129	0.020201	-0.115843	-0.612856	0.145337	-0.768027	-21.472507	-77.174886	-179.948334
01940		9.525313	-0.363814	2.328006	0.129426	-0.514053	-0.014598	-0.349445	0.059887	0.008202	-1.083008	0.151367	0.284424	0.095260	-0.003594	0.023258	-0.116839	-0.612658	0.146408	-0.767831	-21.584662	-77.173580	179.992319
01941		9.238773	-0.519509	2.396486	0.303951	-0.402100	-0.267328	-0.319543	0.071799	0.020671	-1.080566	0.151367	0.279785	0.092397	-0.005147	0.023940	-0.117774	-0.612219	0.147679	-0.767794	-21.769054	-77.136235	179.992722
01942		8.986598	-0.629303	2.143517	0.174423	-0.213968	-0.556694	-0.264398	-0.040811	0.056648	-1.082764	0.146973	0.284668	0.089863	-0.006239	0.021462	-0.117775	-0.612584	0.148250	-0.767393	-22.047825	-77.188643	-179.774844
01943		9.203358	-0.708774	2.090533	0.112190	-0.135265	-0.349941	-0.173534	-0.120682	0.091515	-1.084961	0.149170	0.289063	0.092024	-0.007027	0.020967	-0.117849	-0.612917	0.149291	-0.766914	-22.496621	-77.238076	-179.417544
01944		9.381107	-0.711132	2.081996	0.083234	-0.144134	-0.178485	-0.116403	-0.144279	0.109975	-1.082764	0.146973	0.291260	0.093800	-0.007048	0.020892	-0.116951	-0.613827	0.149310	-0.766319	-22.899948	-77.342918	-178.939005
01945		9.464680	-0.631614	2.122362	0.080808	-0.250037	-0.095978	-0.051529	-0.107186	0.112939	-1.082764	0.149170	0.286621	0.094639	-0.006257	0.021276	-0.116580	-0.614164	0.149940	-0.765983	-23.323034	-77.379416	-178.536653
01946		9.516612	-0.690563	2.583118	0.516307	-0.375855	0.051765	0.008132	0.034033	0.128542	-1.081055	0.158203	0.295166	0.095175	-0.006846	0.025815	-0.115518	-0.614395	0.149535	-0.766037	-23.512291	-77.381860	-178.225575
01947		9.540255	-0.712432	2.414548	0.360319	-0.305283	0.042820	0.031255	0.004962	0.155145	-1.085449	0.160156	0.292725	0.095409	-0.007054	0.024142	-0.114816	-0.614321	0.149912	-0.766129	-23.873159	-77.349046	-177.838414
01948		9.645356	-0.645273	2.345171	0.253739	-0.355600	0.125031	0.096647	-0.021098	0.175456	-1.083252	0.160156	0.290527	0.096457	-0.006379	0.023459	-0.112965	-0.614804	0.149304	-0.766135	-24.256552	-77.363687	-177.250625
01949		9.621362	-0.648188	2.397236	0.299564	-0.384714	0.112016	0.141849	0.078277	0.183431	-1.083252	0.160156	0.286133	0.096229	-0.006411	0.023930	-0.111868	-0.614490	0.149304	-0.766548	-24.539856	-77.285012	-176.877963
01950		9.667406	-0.579200	2.434618	0.290093	-0.470856	0.158054	0.172705	0.113298	0.192620	-1.081543	0.173584	0.280762	0.096693	-0.005720	0.024286	-0.110330	-0.614307	0.148720	-0.767031	-24.731810	-77.213584	-176.511483
01951		9.707767	-0.564919	2.521145	0.339611	-0.525578	0.213501	0.223758	0.103611	0.193264	-1.081543	0.171387	0.285400	0.097096	-0.005584	0.025155	-0.108963	-0.613933	0.148422	-0.767584	-24.956553	-77.118802	-176.150524
01952		9.660641	-0.410005	2.585430	0.338965	-0.698975	0.166142	0.251535	0.166603	0.179385	-1.081543	0.173584	0.282959	0.096632	-0.004046	0.025769	-0.107518	-0.613413	0.147832	-0.768316	-25.058272	-77.002451	-175.882560
01953		9.598022	-0.416404	2.677887	0.416721	-0.727923	0.125266	0.282738	0.241977	0.174098	-1.083984	0.175781	0.276123	0.096016	-0.004118	0.026657	-0.106144	-0.612549	0.147173	-0.769322	-25.053848	-76.840185	-175.721799
01954		9.553671	-0.433587	2.800246	0.519786	-0.752252	0.110310	0.325774	0.271423	0.170714	-1.081787	0.180420	0.275879	0.095578	-0.004300	0.027866	-0.104539	-0.611715	0.146094	-0.770411	-24.951979	-76.677551	-175.604517
01955		9.608623	-0.424208	2.928723	0.592006	-0.804105	0.191605	0.375338	0.292254	0.170838	-1.082031	0.182373	0.269043	0.096132	-0.004215	0.029139	-0.102929	-0.610703	0.145041	-0.771629	-24.834546	-76.490055	-175.505157
01956		9.608902	-0.408609	3.033178	0.653139	-0.848582	0.214843	0.404937	0.314165	0.177416	-1.079834	0.182617	0.269043	0.096140	-0.004062	0.030173	-0.101091	-0.609706	0.143680	-0.772913	-24.664725	-76.300106	-175.413878
01957		9.558511	-0.387472	3.016304	0.608951	-0.855045	0.162848	0.442733	0.352838	0.180258	-1.086670	0.186768	0.257568	0.095642	-0.003855	0.029986	-0.099280	-0.608479	0.142363	-0.774358	-24.471574	-76.078932	-175.352545
01958		9.481315	-0.351818	3.122538	0.679026	-0.912514	0.110794	0.477412	0.368821	0.186638	-1.086914	0.191162	0.255127	0.094874	-0.003504	0.031042	-0.097314	-0.607271	0.140726	-0.775853	-24.205567	-75.858552	-175.324681
01959		9.358647	-0.399330	3.082333	0.650111	-0.842180	-0.008991	0.510488	0.394242	0.185644	-1.082520	0.193604	0.248047	0.093651	-0.003985	0.030629	-0.095304	-0.605901	0.139140	-0.777458	-23.952078	-75.614599	-175.285421
01960		9.270217	-0.439286	3.021855	0.589464	-0.769771	-0.100771	0.554382	0.427812	0.203639	-1.084961	0.197998	0.245605	0.092771	-0.004382	0.030008	-0.093253	-0.604389	0.137378	-0.779195	-23.630505	-75.351604	-175.296846
01961		9.199579	-0.348712	3.058382	0.570984	-0.855577	-0.166478	0.609603	0.427887	0.234653	-1.082764	0.202393	0.238525	0.092065	-0.003472	0.030376	-0.090773	-0.602886	0.135534	-0.780974	-23.396368	-75.078850	-175.178732
01962		9.376342	-0.154200	3.005916	0.378949	-1.016655	-0.025053	0.645617	0.396447	0.264334	-1.092285	0.213379	0.235840	0.093825	-0.001515	0.029868	-0.088021	-0.601526	0.133492	-0.782687	-23.181897	-74.821102	-175.001856
01963		10.074039	-0.118901	3.184026	0.312314	-1.118133	0.689243	0.693956	0.339068	0.302197	-1.089844	0.211182	0.226807	0.100796	-0.001147	0.031665	-0.084960	-0.600343	0.131558	-0.784260	-23.105116	-74.580123	-174.670197
01964		10.839726	-0.361815	2.960635	-0.060054	-0.835435	1.398658	0.731605	0.264211	0.307563	-1.087891	0.217773	0.226563	0.108442	-0.003559	0.029450	-0.081807	-0.599439	0.129480	-0.785630	-23.035054	-74.378214	-174.311695
01965		12.023960	-0.557571	3.258617	-0.084107	-0.773113	2.633202	0.754852	0.275718	0.317751	-1.085938	0.224609	0.219238	0.120293	-0.005507	0.032399	-0.078456	-0.598499	0.127375	-0.787032	-22.995794	-74.167322	-173.904096
01966		12.660930	-1.126069	3.943652	0.488476	-0.447405	3.479438	0.765189	0.298686	0.314770	-1.086426	0.233398	0.214355	0.126686	-0.011212	0.039204	-0.075063	-0.597495	0.125049	-0.788497	-22.881269	-73.949720	-173.550051
01967		11.413321	-1.236425	3.935603	0.799879	-0.292202	2.293348	0.684393	0.440638	0.244486	-1.093018	0.230957	0.209961	0.114235	-0.012359	0.039062	-0.072311	-0.595902	0.122936	-0.790290	-22.614879	-73.668427	-173.420035
01968		10.303207	-0.709317	3.521890	0.535231	-0.630294	1.067520	0.628491	0.455507	0.212857	-1.088867	0.239990	0.211670	0.103119	-0.007094	0.034962	-0.069909	-0.594234	0.120860	-0.792081	-22.276661	-73.387587	-173.393741
01969		10.298768	-0.308903	3.480020	0.357576	-0.994828	1.011035	0.586412	0.231449	0.215787	-1.084473	0.242432	0.202637	0.103031	-0.003080	0.034672	-0.067434	-0.593435	0.119119	-0.793158	-22.171516	-73.223786	-173.153636
01970		10.808369	-0.484872	3.211701	-0.006659	-0.769071	1.446950	0.541146	0.051888	0.206547	-1.084717	0.246826	0.195557	0.108097	-0.004824	0.032076	-0.064593	-0.593484	0.117177	-0.793646	-22.184886	-73.170376	-172.746126
01971		11.098231	-0.919985	3.108824	-0.084763	-0.336460	1.744194	0.518495	-0.030423	0.170988	-1.082275	0.244629	0.197998	0.110985	-0.009186	0.031081	-0.062339	-0.593716	0.115658	-0.793875	-22.225897	-73.155264	-172.393778
01972		11.066061	-1.405551	2.959705	-0.101990	0.172987	1.726498	0.507149	-0.011234	0.135682	-1.087158	0.251221	0.197510	0.110668	-0.014055	0.029568	-0.060234	-0.593893	0.113921	-0.794157	-22.158388	-73.139169	-172.144380
01973		10.799397	-1.669589	2.974988	0.040212	0.437122	1.504217	0.532218	0.065034	0.140082	-1.087158	0.253418	0.197510	0.108015	-0.016699	0.029670	-0.058116	-0.593760	0.112225	-0.794656	-22.068776	-73.080203	-171.920205
01974		10.228338	-2.022004	3.034457	0.321018	0.795190	1.012279	0.569571	0.138266	0.132383	-1.084961	0.255615	0.188232	0.102318	-0.020238	0.030216	-0.055797	-0.593409	0.110105	-0.795380	-21.862531	-72.990888	-171.761803
01975		9.725789	-2.449480	3.069829	0.565837	1.233428	0.587945	0.629537	0.185525	0.126602	-1.084961	0.257813	0.190430	0.097302	-0.024529	0.030531	-0.053509	-0.592821	0.107946	-0.796271	-21.609569	-72.871099	-171.649944
01976		9.130686	-2.821282	2.977569	0.696865	1.658793	0.034017	0.676647	0.253702	0.121931	-1.089844	0.262207	0.183350	0.091362	-0.028257	0.029564	-0.051123	-0.591971	0.105460	-0.797392	-21.246613	-72.717134	-171.613718
01977		8.518609	-3.098154	2.830126	0.754258	2.005558	-0.561552	0.729741	0.280885	0.148119	-1.083496	0.271240	0.182861	0.085249	-0.031021	0.028068	-0.048501	-0.591003	0.102937	-0.798603	-20.912708	-72.542301	-171.526313
01978		8.100091	-3.162538	2.571771	0.608049	2.158252	-1.026379	0.763800	0.183892	0.197323	-1.081299	0.273438	0.171387	0.081056	-0.031643	0.025522	-0.045389	-0.590417	0.100346	-0.799549	-20.709219	-72.410053	-171.261740
01979		8.064383	-2.977136	2.450846	0.439063	2.012067	-1.114239	0.787911	0.010915	0.248834	-1.081299	0.273438	0.169189	0.080682	-0.029767	0.024387	-0.042054	-0.590470	0.097948	-0.799989	-20.686875	-72.359694	-170.812333
01980		8.332720	-2.884991	2.305128	0.188376	1.938107	-0.908798	0.788717	-0.183320	0.278536	-1.079346	0.284668	0.173096	0.083346	-0.028825	0.023014	-0.038620	-0.591186	0.095811	-0.799893	-20.843974	-72.396185	-170.195601
01981		8.737997	-2.836147	2.387150	0.133084	1.848479	-0.503540	0.783110	-0.279994	0.260542	-1.079590	0.286865	0.170654	0.087383	-0.028341	0.023883	-0.035109	-0.592374	0.093522	-0.799446	-21.033669	-72.498468	-169.526805
01982		8.843349	-2.756627	2.429671	0.131437	1.752087	-0.398866	0.752678	-0.280553	0.194548	-1.072998	0.293701	0.177002	0.088426	-0.027572	0.024317	-0.031912	-0.593528	0.091263	-0.798985	-21.167534	-72.604678	-168.942412
01983		8.929415	-2.522153	2.340365	-0.007062	1.534925	-0.367215	0.723809	-0.300997	0.131018	-1.077393	0.291504	0.174805	0.089275	-0.025248	0.023447	-0.029082	-0.594829	0.088828	-0.798400	-21.193949	-72.744095	-168.481040
01984		9.391480	-2.364217	2.486587	-0.010456	1.329330	0.097169	0.713978	-0.394234	0.072273	-1.070801	0.293701	0.181396	0.093874	-0.023697	0.024966	-0.026299	-0.596513	0.086293	-0.797518	-21.236462	-72.939950	-167.998751
01985		9.887865	-2.073996	2.597304	-0.060198	1.003618	0.570296	0.684560	-0.453834	0.020451	-1.070801	0.293701	0.181396	0.098822	-0.020819	0.026126	-0.023958	-0.598447	0.083704	-0.796418	-21.206964	-73.183808	-167.620263
01986		10.018397	-1.773777	2.621816	-0.081950	0.705296	0.669881	0.641465	-0.375161	-0.001938	-1.077637	0.295898	0.183594	0.100134	-0.017823	0.026349	-0.021624	-0.600094	0.081145	-0.795510	-21.151695	-73.389412	-167.271385
01987		9.766889	-1.583883	2.546068	-0.082842	0.557789	0.388550	0.593935	-0.267730	0.003831	-1.073242	0.298340	0.190186	0.097635	-0.015913	0.025544	-0.019696	-0.601266	0.078844	-0.794906	-21.022694	-73.537468	-167.051635
01988		9.409904	-1.593079	2.484501	-0.021529	0.607838	0.030430	0.561378	-0.257831	0.012631	-1.073486	0.302734	0.187500	0.094068	-0.015995	0.024921	-0.017635	-0.602421	0.076656	-0.794294	-20.960384	-73.678778	-166.763918
01989		9.350481	-1.599237	2.440737	-0.024504	0.632900	-0.037974	0.531666	-0.315867	0.021243	-1.073242	0.296143	0.192627	0.093468	-0.016048	0.024512	-0.015806	-0.603759	0.074657	-0.793506	-20.936093	-73.849182	-166.472593
01990		9.363861	-1.609744	2.324064	-0.113220	0.663902	-0.054572	0.536134	-0.326982	0.024973	-1.066895	0.307373	0.189453	0.093603	-0.016148	0.023350	-0.013727	-0.605175	0.072601	-0.792656	-20.967739	-74.025578	-166.100361
01991		9.311299	-1.570087	2.393480	-0.012838	0.627169	-0.091542	0.534270	-0.301039	0.005064	-1.069092	0.302734	0.196533	0.093077	-0.015763	0.024033	-0.011959	-0.606449	0.070541	-0.791897	-20.907457	-74.191385	-165.845397
01992		9.265051	-1.469851	2.477617	0.091216	0.528058	-0.124911	0.515414	-0.259286	-0.011109	-1.064697	0.307373	0.203125	0.092617	-0.014768	0.024858	-0.010085	-0.607580	0.068502	-0.791235	-20.860534	-74.335265	-165.570579
01993		9.072173	-1.419824	2.391859	0.073982	0.513902	-0.337900	0.502839	-0.249606	-0.031925	-1.062256	0.305176	0.191895	0.090690	-0.014273	0.023996	-0.008575	-0.608650	0.066450	-0.790605	-20.713601	-74.481221	-165.424627
01994		8.937047	-1.397674	2.365984	0.102817	0.514166	-0.477421	0.494180	-0.276103	-0.039341	-1.067139	0.309570	0.200684	0.089335	-0.014053	0.023749	-0.006750	-0.609882	0.064316	-0.789849	-20.644213	-74.643776	-165.168731
01995		8.887139	-1.452729	2.261809	0.041530	0.595619	-0.547111	0.465327	-0.276523	-0.031988	-1.064697	0.305176	0.198730	0.088838	-0.014594	0.022707	-0.005345	-0.611047	0.062411	-0.789112	-20.540191	-74.804335	-165.000784
01996		8.823858	-1.444979	2.141053	-0.038575	0.612133	-0.639013	0.440115	-0.269519	-0.009989	-1.064697	0.307373	0.203125	0.088209	-0.014501	0.021498	-0.003685	-0.612205	0.060649	-0.788361	-20.549887	-74.955470	-164.710084
01997		8.787702	-1.586359	2.136908	-0.003783	0.762320	-0.662526	0.393557	-0.232186	0.010684	-1.060547	0.314209	0.197998	0.087853	-0.015901	0.021440	-0.002343	-0.613173	0.059157	-0.787727	-20.542473	-75.083703	-164.484917
01998		8.830758	-1.687263	2.308026	0.170457	0.844904	-0.570760	0.367545	-0.140832	0.040445	-1.067383	0.316162	0.200195	0.088295	-0.016897	0.023111	-0.000829	-0.613762	0.057938	-0.787362	-20.611359	-75.150294	-164.192100
01999		8.835504	-1.793987	2.231210	0.109591	0.960094	-0.575316	0.314940	-0.108882	0.057308	-1.064697	0.309570	0.202881	0.088348	-0.017950	0.022332	0.000420	-0.614224	0.056897	-0.787078	-20.652958	-75.202888	-163.962968
02000		8.861238	-1.928993	2.113600	0.003318	1.100492	-0.566133	0.287750	-0.096290	0.063573	-1.062988	0.318604	0.206787	0.088608	-0.019292	0.021151	0.001673	-0.614609	0.056117	-0.786831	-20.774246	-75.239658	-163.675209
02001		8.802683	-1.993165	2.052656	-0.035500	1.173642	-0.631476	0.268609	-0.034687	0.053726	-1.062500	0.307373	0.207520	0.088029	-0.019936	0.020515	0.002745	-0.614778	0.055248	-0.786758	-20.779782	-75.253055	-163.510870
02002		8.781076	-1.972546	2.075269	-0.011451	1.151129	-0.648641	0.255666	-0.004297	0.046320	-1.062744	0.316406	0.200195	0.087815	-0.019732	0.020729	0.004069	-0.614900	0.054306	-0.786723	-20.817224	-75.255263	-163.288226
02003		8.742884	-1.964278	2.000461	-0.078391	1.152998	-0.704301	0.230399	-0.000964	0.029594	-1.060547	0.314209	0.204834	0.087432	-0.019653	0.019982	0.004920	-0.614941	0.053513	-0.786740	-20.769918	-75.255527	-163.201175
02004		8.789073	-1.929709	2.023457	-0.073073	1.112702	-0.657224	0.192901	0.019561	0.019754	-1.063232	0.325195	0.204102	0.087895	-0.019308	0.020207	0.005758	-0.614915	0.052896	-0.786796	-20.768237	-75.243414	-163.083955
02005		8.917176	-1.946357	2.192448	0.055334	1.109355	-0.491881	0.160263	0.043261	0.002236	-1.060791	0.318604	0.204590	0.089177	-0.019480	0.021890	0.006274	-0.614790	0.052297	-0.786930	-20.671640	-75.225548	-163.089417
02006		9.092636	-1.936066	2.357691	0.165810	1.073420	-0.283608	0.122639	0.070294	-0.010271	-1.065186	0.320801	0.202148	0.090934	-0.019380	0.023533	0.006951	-0.614616	0.051802	-0.787093	-20.643890	-75.194705	-163.021515
02007		9.213855	-1.933100	2.346570	0.117340	1.065725	-0.169615	0.079620	0.088269	-0.017642	-1.065186	0.318604	0.202393	0.092147	-0.019348	0.023417	0.007131	-0.614321	0.051462	-0.787344	-20.519622	-75.156713	-163.103391
02008		9.321293	-1.942317	2.492184	0.223578	1.056380	-0.029838	0.041858	0.113353	-0.019415	-1.060791	0.318604	0.197754	0.093225	-0.019437	0.024865	0.007426	-0.613972	0.051275	-0.787626	-20.469003	-75.105002	-163.114902
02009		9.316311	-2.017507	2.551771	0.275546	1.129863	-0.013555	-0.000510	0.133351	-0.027178	-1.065430	0.322998	0.190918	0.093177	-0.020188	0.025456	0.007311	-0.613505	0.051223	-0.787994	-20.338979	-75.044655	-163.250283
02010		9.293816	-2.092176	2.688218	0.404048	1.194697	0.005060	-0.036174	0.163565	-0.036906	-1.069580	0.318359	0.193359	0.092956	-0.020934	0.026810	0.007041	-0.612879	0.051520	-0.788464	-20.262470	-74.959020	-163.373422
02011		9.124384	-2.140398	2.761834	0.505269	1.252893	-0.135996	-0.079986	0.201167	-0.061366	-1.065186	0.318359	0.188965	0.091265	-0.021421	0.027535	0.006531	-0.612155	0.051678	-0.789020	-20.062805	-74.868764	-163.628171
02012		9.161723	-2.168780	2.892270	0.606208	1.269133	-0.064468	-0.095532	0.226512	-0.069818	-1.065186	0.320801	0.190918	0.091642	-0.021706	0.028829	0.005873	-0.611281	0.052124	-0.789673	-19.900839	-74.755542	-163.880895
02013		9.234428	-2.204242	2.977156	0.653390	1.296418	0.030541	-0.112281	0.238375	-0.070980	-1.065186	0.320801	0.190918	0.092372	-0.022059	0.029674	0.005217	-0.610413	0.052382	-0.790332	-19.680285	-74.646622	-164.176720
02014		9.269862	-2.141626	3.110750	0.749176	1.220808	0.093976	-0.121185	0.274418	-0.078021	-1.071777	0.316162	0.186768	0.092733	-0.021434	0.030993	0.004657	-0.609404	0.052809	-0.791086	-19.521328	-74.512651	-164.417094
02015		9.217930	-2.092151	3.197047	0.817783	1.172746	0.062750	-0.134793	0.335822	-0.085334	-1.069336	0.311768	0.189209	0.092224	-0.020939	0.031830	0.003850	-0.608151	0.053115	-0.792033	-19.227731	-74.353214	-164.802505
02016		9.043540	-2.055742	3.258842	0.890973	1.145771	-0.090289	-0.137635	0.380288	-0.092420	-1.069336	0.311523	0.175781	0.090488	-0.020577	0.032431	0.003155	-0.606744	0.053480	-0.793090	-18.964039	-74.168404	-165.153819
02017		9.018846	-1.986053	3.399379	0.995696	1.072190	-0.081363	-0.141217	0.406008	-0.105422	-1.073486	0.304932	0.176270	0.090247	-0.019884	0.033825	0.002230	-0.605214	0.053752	-0.794243	-18.605413	-73.973557	-165.611377
02018		9.032469	-1.935881	3.449213	1.000355	1.020210	-0.056226	-0.165334	0.444903	-0.109281	-1.071533	0.309326	0.176025	0.090391	-0.019380	0.034307	0.001118	-0.603473	0.054328	-0.795530	-18.281529	-73.747996	-166.074787
02019		9.064006	-1.794580	3.425618	0.923009	0.885092	-0.041499	-0.211456	0.439177	-0.123058	-1.075684	0.302490	0.169678	0.090704	-0.017965	0.034076	-0.000098	-0.601811	0.054826	-0.796755	-17.930406	-73.536726	-166.567455
02020		9.472192	-1.844822	3.304119	0.663234	0.923710	0.323869	-0.220198	0.381181	-0.163296	-1.080322	0.304688	0.165039	0.094770	-0.018489	0.032881	-0.001372	-0.600394	0.055313	-0.797788	-17.605525	-73.360562	-167.037682
02021		10.927066	-1.689896	3.560241	0.468071	0.664498	1.774856	-0.242727	0.202291	-0.193068	-1.073242	0.300293	0.163086	0.109290	-0.016961	0.035512	-0.002895	-0.599689	0.055726	-0.798285	-17.298167	-73.289247	-167.504192
02022		12.195816	-1.189497	3.775775	0.272162	0.080229	3.006391	-0.236555	0.067951	-0.225311	-1.077881	0.300293	0.165283	0.121958	-0.011988	0.037730	-0.004510	-0.599488	0.056204	-0.798395	-17.055437	-73.288212	-167.918470
02023		11.898055	-0.871758	3.379525	-0.057281	-0.163668	2.585488	-0.313711	0.197198	-0.206584	-1.082275	0.297852	0.163330	0.119005	-0.008788	0.033692	-0.006298	-0.598802	0.056859	-0.798852	-16.771273	-73.220674	-168.403407
02024		10.914301	-0.855289	3.065726	-0.105284	-0.083452	1.555427	-0.297405	0.309838	-0.154754	-1.082031	0.291260	0.161377	0.109184	-0.008592	0.030501	-0.007830	-0.597624	0.057760	-0.799655	-16.569400	-73.075710	-168.805649
02025		10.903090	-0.924175	3.157442	-0.030437	-0.018658	1.575887	-0.258622	0.149815	-0.079494	-1.077637	0.298096	0.163330	0.109051	-0.009244	0.031505	-0.008932	-0.597089	0.058577	-0.799984	-16.515647	-73.012555	-169.017250
02026		11.744672	-1.095907	3.260682	-0.164477	0.090768	2.423942	-0.173169	0.011359	-0.050292	-1.079834	0.293457	0.161377	0.117446	-0.010960	0.032610	-0.009538	-0.597096	0.059260	-0.799921	-16.593760	-73.016723	-169.044918
02027		12.490702	-1.081613	3.505448	-0.146548	0.009691	3.204766	-0.093721	0.045790	-0.046746	-1.088623	0.286621	0.159424	0.124913	-0.010829	0.035031	-0.009986	-0.596974	0.059520	-0.799987	-16.560478	-73.005384	-169.136369
02028		12.628185	-0.851472	3.652061	-0.080018	-0.241975	3.358061	-0.113096	0.195697	-0.049552	-1.086670	0.293457	0.161377	0.126315	-0.008525	0.036402	-0.010574	-0.596218	0.059978	-0.800509	-16.486731	-72.906127	-169.296634
02029		12.184767	-0.621554	3.635664	-0.019427	-0.441486	2.910421	-0.156710	0.339055	-0.044103	-1.086670	0.295654	0.156738	0.121908	-0.006214	0.036155	-0.011287	-0.594917	0.060483	-0.801429	-16.341808	-72.733095	-169.542818
02030		11.402972	-0.562343	3.590234	0.113771	-0.455380	2.146126	-0.205811	0.453844	-0.034670	-1.086426	0.293213	0.152344	0.114110	-0.005606	0.035649	-0.012083	-0.593132	0.061347	-0.802673	-16.241626	-72.490230	-169.781174
02031		10.519085	-0.548571	3.597302	0.328961	-0.423877	1.305070	-0.214719	0.490993	-0.011108	-1.084229	0.293457	0.152344	0.105278	-0.005453	0.035721	-0.012882	-0.591202	0.062173	-0.804020	-16.119645	-72.228025	-170.038786
02032		9.844406	-0.645891	3.442161	0.346683	-0.280017	0.626624	-0.221596	0.422791	-0.010250	-1.088867	0.293213	0.143311	0.098516	-0.006426	0.034221	-0.013570	-0.589546	0.063136	-0.805149	-16.095082	-72.000311	-170.200956
02033		9.424152	-0.587455	3.266193	0.263716	-0.298511	0.170749	-0.230003	0.376715	-0.019566	-1.088623	0.288818	0.143555	0.094302	-0.005846	0.032491	-0.014412	-0.588070	0.064006	-0.806144	-16.031481	-71.802216	-170.407037
02034		9.038762	-0.380472	3.203244	0.269357	-0.480778	-0.231405	-0.236541	0.333522	-0.039748	-1.088623	0.288818	0.143555	0.090440	-0.003785	0.031886	-0.015290	-0.586758	0.064953	-0.807008	-16.001849	-71.626845	-170.588281
02035		8.692645	-0.063135	3.036609	0.160764	-0.758244	-0.637382	-0.267510	0.267489	-0.066857	-1.084229	0.291016	0.138916	0.086967	-0.000620	0.030251	-0.016398	-0.585732	0.065844	-0.807660	-15.938176	-71.496268	-170.817504
02036		8.470673	0.243320	2.932670	0.080726	-1.039368	-0.906216	-0.292301	0.199761	-0.104266	-1.092773	0.281982	0.146240	0.084737	0.002432	0.029239	-0.017543	-0.585016	0.066759	-0.808079	-15.905107	-71.409363	-171.020883
02037		8.318243	0.433130	2.732674	-0.093472	-1.192143	-1.128315	-0.322318	0.106133	-0.132703	-1.093018	0.286377	0.139404	0.083200	0.004320	0.027276	-0.019024	-0.584654	0.067692	-0.808230	-15.843066	-71.377935	-171.281764
02038		8.320533	0.491055	2.525723	-0.299646	-1.221007	-1.194623	-0.344135	0.026640	-0.142422	-1.086182	0.284424	0.143799	0.083212	0.004895	0.025238	-0.020288	-0.584693	0.068557	-0.808098	-15.841659	-71.398574	-171.458146
02039		8.424353	0.618160	2.436454	-0.430871	-1.337649	-1.134370	-0.380093	-0.042719	-0.138122	-1.090332	0.279785	0.141846	0.084243	0.006170	0.024371	-0.021909	-0.584926	0.069721	-0.807787	-15.872845	-71.450067	-171.655589
02040		8.629845	0.571470	2.442761	-0.476466	-1.303897	-0.933459	-0.422680	-0.125686	-0.118195	-1.090332	0.275391	0.148926	0.086286	0.005715	0.024470	-0.023316	-0.585538	0.071063	-0.807188	-16.033378	-71.548458	-171.720167
02041		8.971779	0.356442	2.543795	-0.448308	-1.125417	-0.559407	-0.472129	-0.208746	-0.096912	-1.088135	0.279785	0.144287	0.089693	0.003581	0.025523	-0.024981	-0.586411	0.072738	-0.806355	-16.263978	-71.685118	-171.762846
02042		9.111838	0.075956	2.700768	-0.288252	-0.887533	-0.354639	-0.506192	-0.223147	-0.067921	-1.094727	0.273193	0.155762	0.091088	0.000797	0.027107	-0.026459	-0.587361	0.074591	-0.805446	-16.595372	-71.827553	-171.703797
02043		8.737729	-0.170922	2.761544	-0.064731	-0.648378	-0.670553	-0.536847	-0.172614	-0.049488	-1.087891	0.273193	0.153564	0.087353	-0.001657	0.027695	-0.028136	-0.588054	0.076659	-0.804689	-16.928249	-71.936719	-171.677835
02044		8.078247	-0.235509	2.779356	0.178475	-0.572366	-1.287496	-0.545160	-0.140787	-0.038846	-1.090088	0.270996	0.160400	0.080762	-0.002295	0.027857	-0.029625	-0.588655	0.078693	-0.803999	-17.283448	-72.030229	-171.611382
02045		7.633328	-0.060445	2.550533	0.088475	-0.702826	-1.795534	-0.553939	-0.205018	-0.026357	-1.087646	0.268799	0.167236	0.076307	-0.000544	0.025585	-0.031247	-0.589458	0.080902	-0.803130	-17.687110	-72.153045	-171.521374
02046		7.557532	0.072832	2.017817	-0.387395	-0.757450	-2.036486	-0.573167	-0.343401	-0.017319	-1.085205	0.264404	0.169678	0.075541	0.000780	0.020306	-0.032578	-0.590882	0.083074	-0.801808	-18.210373	-72.356408	-171.283837
02047		7.716320	0.194206	1.955974	-0.481811	-0.889081	-1.914432	-0.593402	-0.450572	-0.019832	-1.087646	0.266602	0.178711	0.077119	0.001993	0.019728	-0.034189	-0.592648	0.085498	-0.800181	-18.798374	-72.610996	-171.024465
02048		7.817925	0.224548	1.472840	-0.932633	-0.852992	-1.955075	-0.634793	-0.550334	-0.055503	-1.087646	0.266602	0.183105	0.078139	0.002271	0.014936	-0.035788	-0.594892	0.087812	-0.798193	-19.424181	-72.933022	-170.716273
02049		8.055470	0.413728	1.343176	-1.108495	-1.037797	-1.777770	-0.634769	-0.645846	-0.099225	-1.081055	0.269043	0.194092	0.080513	0.004140	0.013679	-0.037753	-0.597446	0.090196	-0.795926	-20.047194	-73.306600	-170.446002
02050		8.420354	0.453340	1.095700	-1.398803	-1.057033	-1.491977	-0.674045	-0.675195	-0.142180	-1.078613	0.262451	0.205811	0.084169	0.004511	0.011226	-0.039811	-0.600171	0.092536	-0.793503	-20.679262	-73.707684	-170.170112
02051		8.799784	0.450035	1.052704	-1.489978	-1.067826	-1.130154	-0.654834	-0.619761	-0.179826	-1.080566	0.255859	0.210693	0.087969	0.004456	0.010785	-0.042168	-0.602629	0.094748	-0.791254	-21.186179	-74.082108	-170.033742
02052		9.185127	0.462262	1.183313	-1.420134	-1.126721	-0.719062	-0.627108	-0.532282	-0.188642	-1.080322	0.253662	0.217529	0.091824	0.004574	0.012063	-0.044279	-0.604834	0.096635	-0.789225	-21.623413	-74.420476	-169.920536
02053		9.273309	0.377343	1.333847	-1.240606	-1.079101	-0.581647	-0.612938	-0.445844	-0.186197	-1.080078	0.244873	0.224854	0.092707	0.003728	0.013534	-0.046617	-0.606595	0.098621	-0.787492	-21.986724	-74.703169	-169.908717
02054		9.111021	0.241297	1.406424	-1.065631	-0.953470	-0.702132	-0.601920	-0.331608	-0.185547	-1.080566	0.253662	0.230957	0.091089	0.002371	0.014208	-0.048808	-0.607978	0.100357	-0.786072	-22.250365	-74.933590	-169.964574
02055		8.799455	0.224899	1.436609	-0.926432	-0.927791	-0.990799	-0.578163	-0.260020	-0.194614	-1.079834	0.238037	0.234131	0.087978	0.002205	0.014474	-0.051165	-0.609005	0.102133	-0.784897	-22.436012	-75.119642	-170.116083
02056		8.714896	0.315898	1.374079	-0.956714	-0.996085	-1.093183	-0.516267	-0.270712	-0.186183	-1.082031	0.238037	0.238770	0.087133	0.003114	0.013851	-0.053113	-0.610161	0.103537	-0.783685	-22.615754	-75.317866	-170.209039
02057		8.923539	0.280151	1.343712	-1.003344	-0.961392	-0.891782	-0.485725	-0.313215	-0.162987	-1.077393	0.233643	0.243408	0.089216	0.002762	0.013570	-0.055036	-0.611393	0.105059	-0.782389	-22.858828	-75.525325	-170.246226
02058		9.322615	0.099579	1.385117	-0.990797	-0.812630	-0.474728	-0.451159	-0.340776	-0.132250	-1.075195	0.236084	0.245605	0.093203	0.000966	0.014008	-0.056546	-0.612810	0.106333	-0.780999	-23.155109	-75.750704	-170.175525
02059		9.558460	-0.063934	1.435797	-0.931909	-0.677967	-0.215730	-0.416374	-0.308685	-0.123180	-1.074951	0.227051	0.255127	0.095562	-0.000668	0.014507	-0.058104	-0.614013	0.107702	-0.779751	-23.444360	-75.946886	-170.124058
02060		9.613845	-0.076701	1.610421	-0.746555	-0.711378	-0.119293	-0.408142	-0.244482	-0.119521	-1.074951	0.229492	0.261719	0.096118	-0.000791	0.016223	-0.059504	-0.615053	0.108847	-0.778666	-23.670209	-76.118974	-170.104850
02061		9.670559	-0.093394	1.765825	-0.585819	-0.736916	-0.026967	-0.380857	-0.195837	-0.114585	-1.074951	0.227051	0.255127	0.096688	-0.000956	0.017755	-0.060980	-0.615815	0.110070	-0.777778	-23.859219	-76.253931	-170.135746
02062		9.745459	-0.183408	1.881901	-0.449631	-0.683304	0.080748	-0.369618	-0.193902	-0.099519	-1.081543	0.224854	0.259766	0.097435	-0.001848	0.018917	-0.062199	-0.616657	0.111110	-0.776866	-24.066661	-76.395073	-170.112024
02063		10.095960	-0.307383	1.939354	-0.425920	-0.596572	0.446291	-0.331147	-0.200045	-0.062956	-1.072510	0.225098	0.264160	0.100939	-0.003073	0.019500	-0.063319	-0.617417	0.112299	-0.776000	-24.347047	-76.520193	-170.019613
02064		10.304175	-0.432334	1.990107	-0.375228	-0.503506	0.672021	-0.278591	-0.152938	-0.025896	-1.081299	0.218262	0.269043	0.103026	-0.004309	0.019986	-0.064088	-0.618040	0.113267	-0.775300	-24.619659	-76.618469	-169.888448
02065		10.369856	-0.559887	2.016952	-0.322721	-0.397322	0.753933	-0.225791	-0.043492	-0.000846	-1.074463	0.218262	0.269043	0.103694	-0.005577	0.020198	-0.064730	-0.618188	0.114188	-0.774994	-24.823777	-76.647048	-169.812454
02066		10.331980	-0.648693	2.169358	-0.146772	-0.354006	0.757547	-0.141635	0.062979	0.035093	-1.081299	0.218262	0.266846	0.103328	-0.006453	0.021666	-0.064865	-0.618030	0.114596	-0.775048	-24.914688	-76.623814	-169.766497
02067		10.251914	-0.653195	2.396777	0.076160	-0.410288	0.727654	-0.057131	0.153067	0.056332	-1.081299	0.220459	0.266602	0.102539	-0.006496	0.023891	-0.064877	-0.617438	0.114976	-0.775463	-24.947740	-76.536443	-169.767025
02068		10.204940	-0.655132	2.585441	0.246372	-0.457462	0.722230	0.018693	0.230448	0.093994	-1.079346	0.227051	0.263916	0.102082	-0.006506	0.025736	-0.064455	-0.616610	0.114953	-0.776160	-24.902830	-76.407998	-169.777294
02069		10.196346	-0.745865	2.692160	0.343343	-0.400496	0.746250	0.114553	0.278049	0.119267	-1.076904	0.222656	0.257568	0.102005	-0.007413	0.026776	-0.063765	-0.615551	0.114820	-0.777076	-24.848376	-76.240524	-169.766653
02070		10.196511	-0.644147	2.740068	0.331576	-0.511567	0.747615	0.203551	0.331764	0.135323	-1.085938	0.224609	0.257568	0.102015	-0.006400	0.027225	-0.062736	-0.614334	0.114280	-0.778202	-24.705221	-76.046219	-169.783618
02071		10.053783	-0.540671	2.763559	0.321806	-0.609823	0.605206	0.250484	0.439606	0.132092	-1.077393	0.233887	0.250244	0.100602	-0.005375	0.027408	-0.061669	-0.612677	0.113606	-0.779690	-24.449155	-75.791536	-169.900519
02072		10.112204	-0.436125	3.027843	0.483758	-0.773350	0.712633	0.285279	0.500140	0.122506	-1.079590	0.233643	0.241211	0.101200	-0.004342	0.030019	-0.060493	-0.610840	0.112622	-0.781365	-24.086137	-75.512855	-170.090100
02073		10.067279	-0.330597	3.166288	0.548013	-0.900715	0.693164	0.316582	0.509817	0.140307	-1.079590	0.235840	0.229736	0.100755	-0.003285	0.031401	-0.059232	-0.608915	0.111692	-0.783096	-23.761751	-75.219198	-170.238760
02074		9.913709	-0.301588	3.306975	0.655415	-0.948141	0.578647	0.344812	0.569592	0.149366	-1.082275	0.244629	0.227051	0.099233	-0.002998	0.032782	-0.058045	-0.606699	0.110734	-0.785038	-23.373923	-74.888231	-170.455296
02075		9.724979	-0.281382	3.426321	0.749927	-0.978922	0.428065	0.376641	0.641962	0.160652	-1.084473	0.244629	0.222656	0.097361	-0.002800	0.033946	-0.056593	-0.604248	0.109589	-0.787192	-22.965956	-74.519882	-170.655370
02076		9.618351	-0.168651	3.568830	0.821866	-1.108122	0.354608	0.413396	0.638229	0.191143	-1.089111	0.246826	0.215820	0.096298	-0.001668	0.035378	-0.054968	-0.601772	0.108441	-0.789361	-22.609871	-74.143934	-170.789140
02077		9.491169	-0.166398	3.572068	0.794482	-1.096312	0.238988	0.458873	0.650654	0.209999	-1.084717	0.246826	0.202148	0.095029	-0.001646	0.035408	-0.053077	-0.599264	0.107114	-0.791575	-22.264969	-73.759521	-170.875283
02078		9.290247	-0.135488	3.764280	0.956531	-1.150560	0.099813	0.510271	0.707007	0.214697	-1.082520	0.251221	0.195313	0.093036	-0.001351	0.037311	-0.051094	-0.596512	0.105561	-0.793990	-21.847605	-73.342603	-171.008172
02079		9.020345	-0.117839	3.929373	1.113667	-1.179034	-0.107554	0.551439	0.763613	0.206502	-1.084961	0.253418	0.186279	0.090354	-0.001193	0.038946	-0.048998	-0.593559	0.103824	-0.796560	-21.387342	-72.898443	-171.159800
02080		8.786943	-0.053273	3.723093	0.902134	-1.166613	-0.384046	0.575381	0.814408	0.180584	-1.089844	0.266602	0.180908	0.088021	-0.000560	0.036871	-0.047036	-0.590383	0.101887	-0.799284	-20.828568	-72.430574	-171.404903
02081		9.180221	0.209702	3.412256	0.371384	-1.355421	-0.117927	0.558310	0.753882	0.171173	-1.089600	0.259766	0.167725	0.091928	0.002081	0.033782	-0.045054	-0.587462	0.100014	-0.801783	-20.344156	-71.998018	-171.578494
02082		11.684170	0.142592	3.372148	-0.479217	-1.386720	2.260368	0.525673	0.434607	0.235355	-1.087646	0.268799	0.158203	0.116913	0.001475	0.033471	-0.042725	-0.585772	0.098490	-0.803334	-20.181125	-71.724093	-171.428285
02083		15.470174	-1.099059	4.598651	-0.324303	-0.611007	6.349094	0.604152	0.174374	0.271936	-1.090088	0.273193	0.157959	0.154757	-0.010919	0.045819	-0.039915	-0.585118	0.096853	-0.804153	-20.193905	-71.582884	-171.050930
02084		13.721109	-2.042764	4.956786	0.651999	0.338310	4.900260	0.599329	0.681782	0.095269	-1.090088	0.268799	0.147217	0.137389	-0.020510	0.049038	-0.038160	-0.582453	0.094657	-0.806432	-19.619714	-71.198664	-171.305254
02085		8.739150	-1.008800	4.454244	1.485426	-0.294260	-0.069156	0.502032	1.166604	-0.036635	-1.092529	0.275391	0.137695	0.087647	-0.010215	0.044006	-0.037362	-0.577906	0.092332	-0.810002	-18.662973	-70.580505	-172.014140
02086		7.034478	-0.281050	3.989110	1.418663	-0.806975	-1.887292	0.427091	0.501577	0.023090	-1.094727	0.275146	0.128662	0.070445	-0.002887	0.039708	-0.036254	-0.575977	0.090559	-0.811625	-18.199153	-70.308630	-172.244381
02087		8.336072	-0.396365	3.359965	0.396596	-0.618904	-0.846293	0.383881	0.097205	0.038837	-1.092529	0.277588	0.130859	0.083378	-0.004012	0.033551	-0.035000	-0.575689	0.089126	-0.812043	-18.009631	-70.255321	-172.212824
02088		8.904283	-0.910926	3.525667	0.430665	-0.159359	-0.203552	0.337259	0.162038	0.032370	-1.090332	0.275146	0.122070	0.089073	-0.009154	0.035169	-0.033912	-0.575125	0.087805	-0.812632	-17.796929	-70.167100	-172.227959
02089		9.228707	-1.414648	3.628638	0.484093	0.310320	0.187644	0.304474	0.059092	0.059676	-1.092773	0.279785	0.130615	0.092302	-0.014174	0.036238	-0.032786	-0.574965	0.086759	-0.812904	-17.703579	-70.131010	-172.142487
02090		9.606382	-1.848292	3.169425	-0.008549	0.804099	0.439013	0.303981	-0.024009	0.106613	-1.094727	0.277344	0.121826	0.096070	-0.018480	0.031678	-0.031399	-0.575126	0.085807	-0.812946	-17.712810	-70.132524	-171.940156
02091		9.876357	-2.355442	2.831169	-0.343094	1.346658	0.635989	0.349898	-0.001236	0.146549	-1.090576	0.281982	0.123779	0.098781	-0.023532	0.028271	-0.029762	-0.575178	0.084836	-0.813073	-17.753650	-70.114208	-171.684296
02092		10.001105	-3.064971	2.544488	-0.565787	2.084215	0.733707	0.418776	0.122372	0.184131	-1.097412	0.286133	0.119141	0.100055	-0.030611	0.025320	-0.027838	-0.574700	0.083635	-0.813603	-17.736925	-70.019923	-171.444441
02093		9.535277	-3.442739	2.575444	-0.360749	2.472023	0.344363	0.506656	0.257866	0.195650	-1.088379	0.286377	0.105713	0.095419	-0.034399	0.025544	-0.025659	-0.573692	0.082130	-0.814539	-17.635449	-69.851686	-171.244155
02094		8.591089	-3.386612	2.432725	-0.224652	2.492075	-0.596777	0.576782	0.294492	0.177638	-1.088867	0.295410	0.114014	0.085977	-0.033860	0.024103	-0.023513	-0.572460	0.080361	-0.815646	-17.436954	-69.657088	-171.122092
02095		7.847188	-3.145118	2.530856	0.051275	2.282415	-1.288416	0.612010	0.178447	0.197243	-1.086670	0.295410	0.107422	0.078525	-0.031451	0.025142	-0.020993	-0.571778	0.078437	-0.816381	-17.312994	-69.532333	-170.880920
02096		7.981222	-2.900639	2.426525	-0.146819	2.048584	-1.222963	0.594279	-0.033159	0.243516	-1.088867	0.297607	0.109375	0.079844	-0.028981	0.024192	-0.018251	-0.571923	0.076804	-0.816500	-17.380204	-69.513361	-170.452803
02097		8.738165	-2.838666	2.470962	-0.384571	1.929982	-0.504279	0.579918	-0.135372	0.274463	-1.084473	0.299805	0.104736	0.087404	-0.028338	0.024687	-0.015385	-0.572476	0.075262	-0.816315	-17.531058	-69.546731	-169.937811
02098		9.445893	-2.840748	2.739225	-0.381295	1.840143	0.250442	0.564602	-0.168285	0.270945	-1.082520	0.306641	0.106689	0.094474	-0.028357	0.027392	-0.012574	-0.573147	0.073810	-0.816025	-17.709111	-69.596493	-169.407446
02099		9.979520	-2.891955	2.778153	-0.517104	1.840590	0.771130	0.553367	-0.277193	0.233931	-1.084717	0.304199	0.106689	0.099790	-0.028880	0.027840	-0.009897	-0.574279	0.072268	-0.815403	-17.886340	-69.713247	-168.880962
02100		10.441508	-2.563195	2.982691	-0.496210	1.449725	1.239169	0.552166	-0.381471	0.170483	-1.084961	0.311035	0.106445	0.104380	-0.025626	0.029955	-0.007486	-0.575829	0.070618	-0.814480	-18.032868	-69.894263	-168.397860
02101		10.426960	-2.231325	3.056015	-0.428055	1.112545	1.215390	0.534156	-0.307783	0.089788	-1.080566	0.311035	0.106445	0.104232	-0.022348	0.030661	-0.005439	-0.577124	0.068741	-0.813740	-18.030431	-70.052482	-168.075386
02102		10.345071	-1.815084	3.128066	-0.348975	0.702728	1.118194	0.490659	-0.253294	0.050232	-1.080566	0.315674	0.114990	0.103416	-0.018202	0.031367	-0.003829	-0.578131	0.067058	-0.813175	-17.973583	-70.179006	-167.859809
02103		10.300697	-1.734428	3.135046	-0.312221	0.632345	1.070498	0.433984	-0.267373	0.039061	-1.080811	0.317871	0.112793	0.102968	-0.017392	0.031450	-0.002291	-0.579267	0.065440	-0.812503	-17.935701	-70.324263	-167.636518
02104		10.198125	-1.821889	3.356221	-0.043643	0.708653	1.053827	0.409740	-0.200691	0.024087	-1.080566	0.311035	0.110840	0.101950	-0.018275	0.033627	-0.000948	-0.580108	0.064005	-0.812021	-17.882202	-70.431230	-167.460434
02105		9.997678	-1.709727	3.443897	0.108896	0.611731	0.880819	0.364170	-0.123504	0.024822	-1.083008	0.315430	0.119629	0.099958	-0.017148	0.034470	0.000283	-0.580658	0.062627	-0.811736	-17.793040	-70.500649	-167.334289
02106		9.722720	-1.714256	3.426900	0.191855	0.645786	0.616107	0.335272	-0.131277	0.027401	-1.081055	0.322266	0.123535	0.097207	-0.017187	0.034304	0.001399	-0.581210	0.061423	-0.811431	-17.730966	-70.570569	-167.204936
02107		9.353303	-1.842549	3.353795	0.260541	0.815336	0.256798	0.322841	-0.117324	0.014307	-1.083252	0.322266	0.119141	0.093515	-0.018473	0.033563	0.002466	-0.581734	0.060181	-0.811146	-17.646534	-70.638537	-167.098981
02108		9.023775	-1.885214	3.239349	0.270666	0.899069	-0.086726	0.320074	-0.131782	0.009438	-1.078613	0.320068	0.121582	0.090217	-0.018900	0.032423	0.003554	-0.582335	0.059040	-0.810795	-17.602851	-70.715092	-166.958698
02109		8.798786	-1.933600	3.165220	0.286538	0.980020	-0.318821	0.347016	-0.176305	-0.007888	-1.078613	0.317871	0.121582	0.087959	-0.019394	0.031696	0.004619	-0.583100	0.057635	-0.810340	-17.499651	-70.819202	-166.858067
02110		8.529011	-1.739802	3.068168	0.282587	0.825269	-0.624453	0.363861	-0.191505	-0.005800	-1.085205	0.317627	0.119385	0.085260	-0.017456	0.030732	0.005765	-0.583936	0.056239	-0.809829	-17.422942	-70.931374	-166.725080
02111		8.357180	-1.631711	3.057314	0.334980	0.741165	-0.802108	0.353060	-0.210315	0.009233	-1.083252	0.322266	0.125977	0.083540	-0.016367	0.030632	0.006927	-0.584830	0.054859	-0.809269	-17.360835	-71.051242	-166.577468
02112		8.282626	-1.727530	2.987330	0.312443	0.854433	-0.886171	0.341986	-0.221887	0.026563	-1.074219	0.320313	0.123779	0.082795	-0.017315	0.029936	0.008144	-0.585759	0.053623	-0.808668	-17.355944	-71.172857	-166.380105
02113		8.263148	-1.784404	3.016380	0.363635	0.917119	-0.891426	0.354253	-0.211749	0.027732	-1.074219	0.324707	0.125732	0.082602	-0.017886	0.030220	0.009385	-0.586649	0.052292	-0.808097	-17.325314	-71.290388	-166.198742
02114		8.153108	-1.833967	3.059624	0.454323	0.977701	-0.978913	0.377040	-0.195161	0.024108	-1.071777	0.320313	0.128174	0.081503	-0.018388	0.030641	0.010644	-0.587457	0.050998	-0.807577	-17.301140	-71.396226	-166.012638
02115		7.986748	-1.740542	3.003987	0.461156	0.910133	-1.163957	0.343641	-0.194889	0.006624	-1.076660	0.324707	0.127930	0.079839	-0.017454	0.030088	0.011765	-0.588279	0.049647	-0.807047	-17.235511	-71.508187	-165.874847
02116		7.908855	-1.827915	2.679085	0.192545	1.031786	-1.329346	0.313127	-0.200226	-0.011545	-1.076904	0.331299	0.123047	0.079061	-0.018326	0.026841	0.012713	-0.589126	0.048471	-0.806486	-17.188829	-71.624495	-165.746509
02117		8.058486	-1.812583	2.606944	0.091430	1.018058	-1.211758	0.300591	-0.216455	-0.026263	-1.078857	0.324707	0.130127	0.080554	-0.018176	0.026129	0.013580	-0.590041	0.047196	-0.805878	-17.105674	-71.753910	-165.653362
02118		8.309857	-1.831558	2.426718	-0.140349	1.035360	-1.026016	0.288184	-0.236326	-0.042048	-1.074463	0.324707	0.134766	0.083066	-0.018368	0.024339	0.014276	-0.590987	0.046125	-0.805235	-17.050822	-71.887846	-165.562640
02119		8.572049	-1.750643	2.318335	-0.308059	0.950180	-0.817039	0.254137	-0.218584	-0.057091	-1.074463	0.326904	0.134521	0.085690	-0.017560	0.023255	0.014882	-0.591917	0.044946	-0.804607	-16.944028	-72.023633	-165.522484
02120		8.690727	-1.765840	2.274363	-0.368105	0.966755	-0.716012	0.223080	-0.200241	-0.077458	-1.074463	0.324707	0.134766	0.086878	-0.017717	0.022811	0.015305	-0.592781	0.043973	-0.804017	-16.851259	-72.150618	-165.500325
02121		9.045398	-1.631177	2.546235	-0.201464	0.803220	-0.311240	0.184151	-0.177589	-0.108830	-1.076416	0.320313	0.139404	0.090422	-0.016384	0.025528	0.015487	-0.593560	0.042926	-0.803495	-16.673989	-72.272513	-165.576372
02122		9.242345	-1.658560	2.413338	-0.369444	0.834213	-0.160562	0.120470	-0.167089	-0.125027	-1.076416	0.322510	0.141602	0.092393	-0.016658	0.024201	0.015403	-0.594302	0.042190	-0.802987	-16.526778	-72.389224	-165.669783
02123		9.530429	-1.625059	2.685281	-0.180522	0.780046	0.189289	0.093813	-0.114472	-0.142790	-1.076172	0.315674	0.139648	0.095277	-0.016331	0.026900	0.015167	-0.594841	0.041410	-0.802633	-16.306796	-72.481785	-165.844839
02124		9.568436	-1.602561	2.681279	-0.187377	0.768477	0.221591	0.006295	-0.019870	-0.155985	-1.074219	0.320313	0.135010	0.095669	-0.016101	0.026822	0.014602	-0.595014	0.041023	-0.802535	-16.088266	-72.523634	-166.077820
02125		9.320111	-1.655810	2.676745	-0.117484	0.853866	-0.013288	-0.045101	0.069134	-0.170905	-1.076416	0.318115	0.139648	0.093196	-0.016632	0.026739	0.013803	-0.594831	0.040730	-0.802700	-15.803686	-72.519036	-166.403976
02126		9.160931	-1.789482	2.609302	-0.137017	1.013532	-0.174880	-0.100146	0.109200	-0.183877	-1.078613	0.320068	0.137207	0.091607	-0.017966	0.026052	0.012711	-0.594457	0.040804	-0.802991	-15.544640	-72.487171	-166.758726
02127		9.208989	-1.923696	2.643656	-0.120262	1.156138	-0.109911	-0.118357	0.110137	-0.192503	-1.075928	0.309082	0.140137	0.092086	-0.019310	0.026397	0.011598	-0.594117	0.040744	-0.803262	-15.245651	-72.462242	-167.144094
02128		9.339641	-1.986079	2.845203	0.030126	1.210837	0.076778	-0.138734	0.118897	-0.190262	-1.078369	0.313477	0.130859	0.093394	-0.019930	0.028410	0.010404	-0.593733	0.040921	-0.803554	-14.996446	-72.428478	-167.505797
02129		9.428440	-2.006169	2.979499	0.124630	1.231142	0.200621	-0.156495	0.164967	-0.193176	-1.084717	0.304443	0.135986	0.094290	-0.020129	0.029733	0.009165	-0.593173	0.041015	-0.803977	-14.695299	-72.372163	-167.916524
02130		9.448153	-2.096319	3.004424	0.130962	1.330284	0.232305	-0.175785	0.246230	-0.200796	-1.084717	0.302246	0.131592	0.094497	-0.021032	0.029946	0.007757	-0.592243	0.041304	-0.804663	-14.380741	-72.264070	-168.370662
02131		9.357881	-2.056166	2.880657	0.016442	1.316423	0.105106	-0.193101	0.337155	-0.199835	-1.091553	0.304199	0.129150	0.093607	-0.020627	0.028669	0.006347	-0.590990	0.041533	-0.805584	-14.020744	-72.111625	-168.865713
02132		9.461697	-2.059870	3.186914	0.247520	1.307934	0.294297	-0.177023	0.382825	-0.189647	-1.084473	0.300049	0.129395	0.094658	-0.020660	0.031706	0.004987	-0.589511	0.041806	-0.806662	-13.670960	-71.925849	-169.350298
02133		9.717316	-1.945034	3.429910	0.363104	1.176157	0.601647	-0.196329	0.396298	-0.183610	-1.091064	0.295410	0.118652	0.097223	-0.019506	0.034126	0.003620	-0.588010	0.042097	-0.807749	-13.331826	-71.736425	-169.826333
02134		10.126125	-1.908409	3.230598	0.011935	1.140304	0.925872	-0.228999	0.376005	-0.178351	-1.091064	0.295410	0.123047	0.101305	-0.019138	0.032137	0.002154	-0.586557	0.042612	-0.808783	-13.050328	-71.552089	-170.271376
02135		11.793714	-1.621803	4.489010	0.648302	0.693745	2.874768	-0.193042	0.174090	-0.177570	-1.091064	0.293213	0.125488	0.117962	-0.016279	0.044803	0.000868	-0.585949	0.042905	-0.809211	-12.818484	-71.484501	-170.633164
02136		13.072783	-1.087625	5.016167	0.715339	0.072440	4.213201	-0.205528	0.025073	-0.224538	-1.093262	0.295166	0.118652	0.130722	-0.010971	0.050157	-0.000572	-0.585975	0.043161	-0.809179	-12.598121	-71.507717	-170.992730
02137		12.149564	-0.845659	4.069892	0.076268	-0.036436	3.028019	-0.236884	0.350347	-0.248348	-1.094971	0.283936	0.112549	0.121556	-0.008559	0.040496	-0.002311	-0.584665	0.043422	-0.810109	-12.212636	-71.349168	-171.543311
02138		10.884186	-0.606387	3.995667	0.345769	-0.192453	1.790833	-0.175752	0.490757	-0.192028	-1.093018	0.290771	0.109863	0.108934	-0.006133	0.039695	-0.003709	-0.582724	0.043684	-0.811487	-11.858942	-71.097156	-172.034873
02139		10.792818	-0.338533	4.026217	0.348796	-0.446642	1.697688	-0.130448	0.254170	-0.098735	-1.093018	0.286377	0.112305	0.107978	-0.003412	0.040127	-0.004510	-0.581767	0.043952	-0.812155	-11.706080	-70.973125	-172.276277
02140		11.213689	-0.181336	4.021489	0.175352	-0.619453	2.084269	-0.076988	0.179198	-0.051880	-1.097412	0.288330	0.107666	0.112172	-0.001827	0.040115	-0.004980	-0.581080	0.044293	-0.812625	-11.660944	-70.881230	-172.388664
02141		11.241333	-0.043796	4.271298	0.368689	-0.773456	2.182279	-0.087854	0.276356	-0.066161	-1.094971	0.283936	0.105713	0.112472	-0.000456	0.042558	-0.005529	-0.580025	0.044482	-0.813364	-11.532983	-70.740728	-172.578199
02142		10.851868	0.185426	4.152825	0.337218	-0.973047	1.762403	-0.134269	0.303459	-0.087338	-1.095215	0.288574	0.107666	0.108582	0.001835	0.041362	-0.006326	-0.578835	0.044909	-0.814182	-11.416669	-70.582836	-172.796067
02143		10.423272	0.374150	3.987340	0.278469	-1.124326	1.293245	-0.199249	0.290736	-0.126193	-1.094971	0.281738	0.108154	0.104293	0.003715	0.039718	-0.007445	-0.577729	0.045377	-0.814932	-11.257476	-70.440721	-173.086790
02144		9.998728	0.686643	3.680749	0.082748	-1.389429	0.772988	-0.285758	0.246651	-0.156181	-1.097168	0.281738	0.103760	0.100038	0.006841	0.036674	-0.008896	-0.576838	0.046224	-0.815501	-11.156368	-70.329922	-173.377742
02145		9.413053	0.717850	3.523084	0.103295	-1.379279	0.168287	-0.352845	0.221667	-0.168615	-1.094727	0.277344	0.099365	0.094176	0.007161	0.035114	-0.010616	-0.576012	0.047199	-0.816008	-11.045136	-70.230942	-173.711458
02146		8.817133	0.662253	3.330448	0.105820	-1.282197	-0.452290	-0.425185	0.184203	-0.195028	-1.094971	0.279541	0.103760	0.088208	0.006607	0.033209	-0.012632	-0.575349	0.048473	-0.816373	-10.972148	-70.156473	-174.055871
02147		8.570328	0.601042	3.242054	0.097504	-1.202321	-0.709523	-0.504332	0.065924	-0.198674	-1.096680	0.270508	0.111084	0.085720	0.006007	0.032377	-0.014873	-0.575150	0.049988	-0.816383	-10.950809	-70.148110	-174.386584
02148		8.676527	0.488682	3.166110	-0.001516	-1.089585	-0.628027	-0.579894	-0.046176	-0.188079	-1.101318	0.270508	0.104492	0.086763	0.004897	0.031667	-0.017190	-0.575472	0.051910	-0.815991	-11.057009	-70.210843	-174.628920
02149		8.678100	0.468557	3.039961	-0.114327	-1.060007	-0.667545	-0.645667	-0.089025	-0.195267	-1.101318	0.270508	0.108887	0.086772	0.004699	0.030423	-0.019785	-0.575883	0.054023	-0.815505	-11.168036	-70.289560	-174.904881
02150		8.555271	0.527676	2.896123	-0.207102	-1.104387	-0.835156	-0.695578	-0.093382	-0.203869	-1.100830	0.261719	0.114014	0.085545	0.005290	0.028983	-0.022515	-0.576329	0.056366	-0.814961	-11.318634	-70.374640	-175.171331
02151		8.452955	0.520942	3.026594	-0.043856	-1.115400	-0.888672	-0.738424	-0.110552	-0.206974	-1.096436	0.263916	0.115967	0.084518	0.005234	0.030293	-0.025418	-0.576806	0.058824	-0.814364	-11.469887	-70.467246	-175.460738
02152		8.417479	0.475887	2.971388	-0.069602	-1.070913	-0.938125	-0.787537	-0.144958	-0.207780	-1.098389	0.257324	0.118652	0.084158	0.004789	0.029756	-0.028397	-0.577460	0.061503	-0.813604	-11.678453	-70.585788	-175.716955
02153		8.539380	0.387585	2.896114	-0.156529	-0.985181	-0.842537	-0.823248	-0.228920	-0.200957	-1.098145	0.250488	0.127930	0.085365	0.003910	0.029043	-0.031483	-0.578387	0.064339	-0.812612	-11.925687	-70.744793	-175.955746
02154		8.796937	0.177840	3.010337	-0.082939	-0.812088	-0.549134	-0.827697	-0.338044	-0.172562	-1.100342	0.250488	0.134766	0.087920	0.001827	0.030245	-0.034351	-0.579798	0.067248	-0.811253	-12.266569	-70.969713	-176.088026
02155		8.788786	-0.028092	2.942780	-0.085700	-0.613932	-0.565031	-0.843411	-0.338195	-0.150600	-1.095947	0.248535	0.137207	0.087838	-0.000223	0.029577	-0.037255	-0.581125	0.070325	-0.809913	-12.646980	-71.184560	-176.197679
02156		8.418566	-0.140000	2.694890	-0.151010	-0.473828	-0.986199	-0.853697	-0.328560	-0.142284	-1.100098	0.243896	0.137451	0.084140	-0.001344	0.027093	-0.040076	-0.582468	0.073442	-0.808536	-13.061477	-71.402094	-176.269526
02157		7.924165	-0.104567	2.577578	-0.080166	-0.495647	-1.494330	-0.842942	-0.334758	-0.129430	-1.100342	0.248535	0.150635	0.079198	-0.000988	0.025913	-0.042893	-0.583750	0.076576	-0.807176	-13.482184	-71.612764	-176.336162
02158		7.742035	0.001642	2.548788	-0.038165	-0.610214	-1.684864	-0.866807	-0.364505	-0.107467	-1.095703	0.241943	0.155518	0.077374	0.000086	0.025629	-0.045638	-0.585153	0.079890	-0.805687	-13.985404	-71.840302	-176.328904
02159		7.735376	0.084490	2.120100	-0.416966	-0.633138	-1.827506	-0.894245	-0.528807	-0.088526	-1.102051	0.237305	0.162598	0.077298	0.000906	0.021401	-0.048361	-0.587161	0.083389	-0.803710	-14.599620	-72.153285	-176.222809
02160		7.984896	0.200642	1.890586	-0.683570	-0.729021	-1.665652	-0.890383	-0.625780	-0.079962	-1.100098	0.239746	0.177979	0.079790	0.002059	0.019146	-0.050925	-0.589592	0.086886	-0.801398	-15.293864	-72.524380	-176.022252
02161		8.189202	0.239902	1.760649	-0.824011	-0.765482	-1.508756	-0.886614	-0.658679	-0.095346	-1.095215	0.230957	0.185303	0.081835	0.002439	0.017865	-0.053596	-0.592092	0.090361	-0.798993	-15.984223	-72.909243	-175.832281
02162		8.324196	0.292746	1.566797	-1.000693	-0.798214	-1.434501	-0.884444	-0.679045	-0.117702	-1.094727	0.221924	0.190430	0.083190	0.002949	0.015937	-0.056219	-0.594765	0.093708	-0.796438	-16.681586	-73.320006	-175.620244
02163		8.504986	0.353543	1.426103	-1.141606	-0.845529	-1.299456	-0.871137	-0.690623	-0.151383	-1.099609	0.226318	0.208008	0.085003	0.003534	0.014539	-0.059050	-0.597386	0.096958	-0.793878	-17.317744	-73.730359	-175.478397
02164		8.913446	0.407501	1.559200	-1.082651	-0.949218	-0.869911	-0.832355	-0.689179	-0.164563	-1.097168	0.221924	0.210449	0.089083	0.004067	0.015882	-0.061652	-0.600105	0.099809	-0.791272	-17.907401	-74.154086	-175.331038
02165		9.223847	0.402810	1.562832	-1.105680	-0.962903	-0.564223	-0.797684	-0.620915	-0.192320	-1.092041	0.210938	0.224609	0.092193	0.004002	0.015899	-0.064457	-0.602458	0.102617	-0.788898	-18.414640	-74.532953	-175.279971
02166		9.356652	0.510309	1.641193	-1.039819	-1.094538	-0.420059	-0.769158	-0.483387	-0.214600	-1.092285	0.213379	0.226807	0.093532	0.005066	0.016618	-0.067167	-0.604380	0.104976	-0.786888	-18.757494	-74.853547	-175.349372
02167		9.321093	0.576036	1.719302	-0.934964	-1.178501	-0.436788	-0.741701	-0.360062	-0.232874	-1.091797	0.202148	0.234131	0.093186	0.005716	0.017340	-0.070097	-0.605718	0.107350	-0.785282	-18.990271	-75.098363	-175.549438
02168		9.196351	0.605112	1.677310	-0.916626	-1.191538	-0.566479	-0.701562	-0.324950	-0.234712	-1.091797	0.199951	0.240967	0.091943	0.006002	0.016901	-0.072778	-0.607020	0.109317	-0.783760	-19.140052	-75.336127	-175.778620
02169		9.302745	0.555975	1.689294	-0.889789	-1.147413	-0.453440	-0.644619	-0.350381	-0.233383	-1.089355	0.195557	0.243652	0.093004	0.005506	0.017038	-0.075420	-0.608334	0.111302	-0.782210	-19.308104	-75.576162	-175.987657
02170		9.551839	0.508833	1.709760	-0.883585	-1.109680	-0.199800	-0.606025	-0.378214	-0.216457	-1.086914	0.195557	0.245850	0.095491	0.005037	0.017263	-0.077682	-0.609874	0.112918	-0.780557	-19.469622	-75.842218	-176.141293
02171		9.895264	0.293841	1.793421	-0.795265	-0.933233	0.173075	-0.569757	-0.402747	-0.180416	-1.089111	0.193359	0.252686	0.098919	0.002901	0.018125	-0.079859	-0.611376	0.114787	-0.778888	-19.748083	-76.100737	-176.191850
02172		10.089695	0.107263	1.857970	-0.691318	-0.779408	0.394172	-0.509529	-0.367773	-0.143530	-1.086670	0.188965	0.261963	0.100863	0.001048	0.018763	-0.081642	-0.612797	0.116373	-0.777349	-20.024699	-76.340464	-176.188897
02173		9.976008	0.011476	1.871110	-0.592835	-0.696229	0.296006	-0.473587	-0.278283	-0.109672	-1.086426	0.182373	0.269043	0.099734	0.000105	0.018850	-0.083320	-0.613799	0.118031	-0.776129	-20.312499	-76.518202	-176.173066
02174		9.801372	-0.080551	1.960082	-0.415277	-0.637431	0.154082	-0.428553	-0.217028	-0.073657	-1.086670	0.189209	0.270752	0.097992	-0.000799	0.019709	-0.084568	-0.614699	0.119336	-0.775082	-20.578169	-76.672496	-176.115223
02175		9.655553	-0.166228	1.831905	-0.454725	-0.526590	-0.008143	-0.388278	-0.242783	-0.028073	-1.086914	0.191406	0.270752	0.096533	-0.001640	0.018439	-0.085688	-0.615544	0.120898	-0.774046	-20.980374	-76.814646	-175.931678
02176		9.782867	-0.300468	1.822435	-0.429957	-0.412785	0.125155	-0.341088	-0.241250	0.028827	-1.079834	0.184814	0.273438	0.097807	-0.002959	0.018347	-0.086339	-0.616448	0.122377	-0.773021	-21.504698	-76.953243	-175.580699
02177		9.995821	-0.574223	1.873682	-0.331404	-0.189559	0.366263	-0.305135	-0.211071	0.086113	-1.084229	0.182373	0.278076	0.099941	-0.005670	0.018851	-0.086780	-0.617131	0.123954	-0.772175	-22.108007	-77.053472	-175.142080
02178		10.162393	-0.770261	2.018160	-0.159188	-0.070869	0.575290	-0.243553	-0.166765	0.131235	-1.075195	0.182617	0.275635	0.101612	-0.007611	0.020276	-0.086775	-0.617731	0.125247	-0.771487	-22.725083	-77.130323	-174.629911
02179		10.032254	-0.911227	2.048720	-0.052170	0.032844	0.466898	-0.192588	-0.076133	0.169230	-1.086426	0.182373	0.282471	0.100322	-0.009008	0.020534	-0.086632	-0.617888	0.126586	-0.771159	-23.337128	-77.138676	-174.116425
02180		9.864449	-0.976429	2.034856	-0.008439	0.081782	0.306335	-0.113314	0.017854	0.195598	-1.084473	0.187012	0.280029	0.098656	-0.009656	0.020345	-0.086092	-0.617785	0.127448	-0.771159	-23.830704	-77.101278	-173.650024
02181		9.748410	-0.932047	2.151656	0.103612	-0.013590	0.213223	-0.036019	0.082006	0.210770	-1.082275	0.189209	0.279785	0.097503	-0.009214	0.021478	-0.085406	-0.617372	0.128243	-0.771435	-24.284303	-77.015183	-173.206916
02182		9.799255	-0.731880	2.378151	0.231340	-0.291500	0.290684	0.038466	0.123362	0.226699	-1.084473	0.189209	0.277588	0.098015	-0.007212	0.023720	-0.084340	-0.616897	0.128591	-0.771874	-24.652846	-76.912189	-172.781000
02183		9.892904	-0.586610	2.712263	0.459390	-0.550890	0.436968	0.093006	0.168985	0.240171	-1.078125	0.196045	0.279297	0.098959	-0.005760	0.027036	-0.083198	-0.616182	0.128942	-0.772510	-24.996046	-76.772504	-172.374966
02184		10.074549	-0.522011	2.792297	0.450177	-0.656278	0.624386	0.132680	0.237712	0.254038	-1.085205	0.204834	0.272217	0.100785	-0.005111	0.027800	-0.081802	-0.615298	0.128957	-0.773360	-25.241530	-76.604186	-172.018426
02185		10.064025	-0.486578	2.893315	0.501743	-0.733427	0.632543	0.172357	0.337765	0.262933	-1.089844	0.206787	0.265381	0.100695	-0.004758	0.028759	-0.080435	-0.613945	0.129001	-0.774571	-25.400343	-76.370754	-171.754680
02186		9.961760	-0.426519	3.168723	0.719841	-0.878404	0.587764	0.189385	0.450757	0.259792	-1.085449	0.209229	0.262939	0.099694	-0.004166	0.031459	-0.079058	-0.612168	0.128861	-0.776141	-25.412454	-76.079930	-171.622688
02187		9.796365	-0.328208	3.397056	0.890364	-1.039689	0.470429	0.207109	0.525471	0.256103	-1.087646	0.211182	0.253906	0.098057	-0.003192	0.033710	-0.077731	-0.610096	0.128673	-0.777936	-25.341796	-75.750943	-171.574339
02188		9.701286	-0.213450	3.559965	0.976655	-1.194945	0.407480	0.226507	0.538987	0.235709	-1.085449	0.213623	0.251465	0.097111	-0.002060	0.035336	-0.076390	-0.608001	0.128246	-0.779777	-25.186419	-75.421556	-171.589919
02189		9.715675	-0.106087	3.708300	1.024877	-1.341357	0.449242	0.253513	0.538142	0.230243	-1.090088	0.217773	0.237793	0.097257	-0.000996	0.036820	-0.075029	-0.605903	0.127791	-0.781615	-25.030110	-75.092345	-171.602496
02190		9.656559	-0.066580	3.854717	1.107422	-1.415264	0.428540	0.268325	0.578783	0.211729	-1.092529	0.219971	0.237549	0.096677	-0.000615	0.038267	-0.073696	-0.603656	0.127105	-0.783589	-24.768642	-74.746595	-171.703912
02191		9.576388	-0.099023	4.007031	1.216706	-1.418766	0.399055	0.273802	0.633321	0.191897	-1.090332	0.222168	0.230713	0.095891	-0.000953	0.039765	-0.072483	-0.601205	0.126417	-0.785696	-24.456935	-74.376940	-171.865676
02192		9.403498	-0.157620	4.055465	1.259926	-1.358760	0.260216	0.308876	0.652631	0.187165	-1.090332	0.224365	0.221680	0.094168	-0.001550	0.040245	-0.071108	-0.598718	0.125411	-0.787878	-24.083903	-74.001668	-172.049441
02193		9.278792	-0.270798	3.937362	1.152571	-1.202164	0.132070	0.351665	0.600169	0.197588	-1.092773	0.228760	0.216797	0.092908	-0.002685	0.039090	-0.069616	-0.596406	0.124441	-0.789916	-23.786905	-73.647584	-172.150024
02194		9.263208	-0.105371	3.883795	1.008708	-1.334466	0.092030	0.393120	0.562657	0.207321	-1.093262	0.237793	0.207275	0.092742	-0.001034	0.038575	-0.067862	-0.594275	0.123201	-0.791867	-23.493876	-73.314391	-172.202295
02195		9.372198	0.039535	3.892794	0.895453	-1.472203	0.188514	0.423003	0.545448	0.224100	-1.091064	0.239990	0.198242	0.093827	0.000418	0.038673	-0.066016	-0.592172	0.122044	-0.793775	-23.258556	-72.982817	-172.196076
02196		9.402970	0.090268	3.848186	0.778886	-1.502033	0.205771	0.452691	0.551758	0.228758	-1.091309	0.244385	0.191162	0.094134	0.000924	0.038224	-0.064072	-0.590020	0.120769	-0.795730	-23.006688	-72.643891	-172.188631
02197		9.448319	0.106775	3.462313	0.351671	-1.409228	0.145218	0.473126	0.552842	0.231567	-1.095703	0.244141	0.184570	0.094577	0.001096	0.034364	-0.062051	-0.587884	0.119429	-0.797671	-22.758719	-72.306767	-172.165523
02198		10.572891	-0.025042	3.584335	0.105512	-1.358656	1.267783	0.498226	0.427575	0.303983	-1.095947	0.248535	0.177490	0.105806	-0.000179	0.035617	-0.059598	-0.586175	0.118198	-0.799297	-22.686736	-72.016422	-171.938709
02199		12.895506	-0.593156	3.884581	-0.233940	-1.002938	3.628858	0.509447	0.163258	0.386101	-1.093994	0.255371	0.177002	0.128998	-0.005781	0.038726	-0.056621	-0.585499	0.117281	-0.800144	-22.934019	-71.850727	-171.372692
02200		14.933017	-1.725726	5.112187	0.493081	-0.338328	6.053938	0.549876	0.174448	0.401534	-1.089844	0.264404	0.174316	0.149409	-0.017098	0.050944	-0.053454	-0.584752	0.116163	-0.801070	-23.144251	-71.672407	-170.811709
02201		12.716923	-1.973416	4.872696	0.944208	0.068102	3.915409	0.492310	0.668397	0.213927	-1.092285	0.268799	0.160645	0.127352	-0.019717	0.048253	-0.051509	-0.582134	0.114673	-0.803317	-22.777709	-71.278235	-170.901896
02202		9.399468	-1.187925	4.249606	1.152532	-0.349152	0.500857	0.431045	0.940193	0.082142	-1.096436	0.264160	0.154053	0.094198	-0.011932	0.042028	-0.050469	-0.578419	0.113012	-0.806295	-22.080633	-70.762500	-171.385853
02203		8.401769	-0.599456	3.722930	0.796610	-0.720494	-0.666357	0.373567	0.521719	0.071005	-1.096680	0.266357	0.149414	0.084117	-0.006034	0.036999	-0.049360	-0.576424	0.111614	-0.807986	-21.680367	-70.476338	-171.584356
02204		8.895427	-0.664799	3.202226	0.135714	-0.545138	-0.351757	0.293674	0.191445	0.071442	-1.092041	0.266357	0.149414	0.088987	-0.006663	0.031927	-0.048242	-0.575740	0.110512	-0.808692	-21.507317	-70.365578	-171.575808
02205		9.352756	-1.085946	3.474823	0.303341	-0.217509	0.216687	0.277267	0.165263	0.088595	-1.094482	0.268555	0.144775	0.093561	-0.010866	0.034656	-0.047139	-0.575146	0.109641	-0.809298	-21.406284	-70.265332	-171.515470
02206		9.315496	-1.565672	3.192579	0.137694	0.317287	0.152387	0.294434	0.094322	0.154153	-1.090332	0.275391	0.137695	0.093182	-0.015632	0.031859	-0.045619	-0.574834	0.108799	-0.809720	-21.418866	-70.192600	-171.308808
02207		9.071541	-2.091707	2.677111	-0.164264	0.953118	-0.174245	0.376641	0.041354	0.223075	-1.088135	0.279785	0.137451	0.090744	-0.020866	0.026713	-0.043619	-0.574688	0.107940	-0.810050	-21.531100	-70.130220	-170.961155
02208		8.777719	-2.619281	2.357717	-0.275933	1.544817	-0.485031	0.451470	0.089486	0.264729	-1.088379	0.281982	0.135010	0.087822	-0.026130	0.023479	-0.041330	-0.574279	0.106952	-0.810591	-21.631194	-70.026452	-170.591908
02209		8.479225	-3.146404	2.170565	-0.272055	2.106958	-0.757572	0.553108	0.066515	0.289134	-1.090332	0.279785	0.130615	0.084845	-0.031401	0.021591	-0.038568	-0.574023	0.105561	-0.811090	-21.720475	-69.936258	-170.160657
02210		8.378134	-3.617915	2.721860	0.325641	2.448700	-0.615477	0.659533	0.116794	0.308473	-1.091064	0.293213	0.132080	0.083853	-0.036139	0.027050	-0.035500	-0.573514	0.103782	-0.811820	-21.729815	-69.809093	-169.752627
02211		7.969506	-3.922536	2.581918	0.349254	2.799454	-1.003231	0.723312	0.157766	0.308731	-1.088623	0.293213	0.127686	0.079776	-0.039195	0.025614	-0.032217	-0.572895	0.101736	-0.812652	-21.691964	-69.666061	-169.352251
02212		7.674488	-3.737637	2.565974	0.363403	2.641293	-1.307200	0.777349	0.081741	0.318839	-1.082275	0.297852	0.125000	0.076815	-0.037353	0.025483	-0.028717	-0.572545	0.099548	-0.813301	-21.681796	-69.556885	-168.893967
02213		7.723748	-3.456023	2.635427	0.334916	2.348768	-1.273546	0.789517	-0.055813	0.319221	-1.082520	0.306641	0.126709	0.077285	-0.034541	0.026239	-0.025094	-0.572779	0.097292	-0.813529	-21.738424	-69.525309	-168.351743
02214		8.105045	-3.160942	2.747151	0.244598	2.008660	-0.916868	0.784831	-0.158508	0.321739	-1.084717	0.306641	0.124512	0.081080	-0.031587	0.027412	-0.021463	-0.573398	0.095160	-0.813449	-21.873771	-69.544557	-167.739894
02215		8.573399	-3.047347	2.767665	0.078922	1.855233	-0.485237	0.772243	-0.223500	0.286302	-1.080811	0.315674	0.124023	0.085747	-0.030458	0.027655	-0.017941	-0.574306	0.092896	-0.813155	-21.990377	-69.608408	-167.144349
02216		9.093810	-2.904794	2.781330	-0.103487	1.670610	-0.011190	0.774634	-0.297531	0.204365	-1.085205	0.317627	0.126221	0.090926	-0.029063	0.027836	-0.014738	-0.575520	0.090467	-0.812635	-22.046174	-69.725193	-166.621880
02217		9.557936	-2.502780	3.151418	0.047573	1.184166	0.489978	0.767429	-0.365245	0.093677	-1.078369	0.313477	0.126465	0.095533	-0.025104	0.031592	-0.011947	-0.577071	0.087677	-0.811886	-21.977494	-69.905403	-166.227597
02218		9.826020	-2.120667	3.202147	-0.015332	0.792845	0.707422	0.723323	-0.394718	0.011392	-1.083008	0.317871	0.132813	0.098198	-0.021317	0.032138	-0.009617	-0.578748	0.084865	-0.811022	-21.839655	-70.116520	-165.938760
02219		9.901686	-1.783686	3.172602	-0.075631	0.477149	0.725663	0.675418	-0.374191	-0.010153	-1.078613	0.317871	0.128418	0.098956	-0.017949	0.031851	-0.007508	-0.580356	0.082147	-0.810174	-21.681402	-70.324133	-165.696699
02220		9.974369	-1.777929	3.110721	-0.127369	0.492583	0.773468	0.621620	-0.355789	-0.036402	-1.078369	0.315674	0.133057	0.099685	-0.017894	0.031229	-0.005677	-0.581876	0.079598	-0.809353	-21.509745	-70.525527	-165.505390
02221		9.978520	-1.743789	3.134273	-0.080260	0.475328	0.779897	0.557528	-0.324544	-0.067899	-1.081055	0.322266	0.130371	0.099728	-0.017559	0.031456	-0.004165	-0.583288	0.077186	-0.808579	-21.303435	-70.719231	-165.386478
02222		9.882396	-1.665156	3.185173	0.017452	0.419661	0.694611	0.495529	-0.288235	-0.084129	-1.073975	0.318115	0.135010	0.098771	-0.016772	0.031953	-0.002952	-0.584510	0.075024	-0.807905	-21.086134	-70.891464	-165.324346
02223		9.503263	-1.638791	3.158198	0.133429	0.448767	0.324008	0.439205	-0.243515	-0.087350	-1.078369	0.315674	0.137451	0.094987	-0.016499	0.031661	-0.001894	-0.585590	0.073030	-0.807309	-20.867265	-71.046082	-165.290676
02224		9.119486	-1.764153	3.119357	0.248590	0.627992	-0.037647	0.402169	-0.238923	-0.089127	-1.076172	0.313477	0.135254	0.091150	-0.017745	0.031267	-0.000993	-0.586621	0.071221	-0.806723	-20.663267	-71.195359	-165.270437
02225		8.927963	-1.832427	3.172603	0.384864	0.724041	-0.197111	0.376937	-0.249879	-0.107387	-1.076172	0.313477	0.142090	0.089230	-0.018432	0.031803	-0.000196	-0.587726	0.069419	-0.806076	-20.449361	-71.357490	-165.269257
02226		8.777439	-1.948304	3.091367	0.384377	0.879641	-0.353602	0.361624	-0.260119	-0.109924	-1.072021	0.320313	0.141602	0.087723	-0.019587	0.030992	0.000516	-0.588844	0.067669	-0.805409	-20.234024	-71.522953	-165.280966
02227		8.652307	-1.975887	3.118966	0.472496	0.933061	-0.463860	0.364363	-0.271505	-0.113895	-1.073975	0.318115	0.139648	0.086469	-0.019865	0.031271	0.001257	-0.590032	0.065898	-0.804685	-20.025979	-71.697994	-165.281200
02228		8.487260	-1.998273	3.191574	0.613457	0.978798	-0.599741	0.377049	-0.262223	-0.108961	-1.071777	0.315918	0.146484	0.084820	-0.020089	0.031989	0.001966	-0.591123	0.064237	-0.804017	-19.829646	-71.858995	-165.281669
02229		8.289851	-1.986450	3.149989	0.653049	1.006134	-0.804291	0.382241	-0.281470	-0.104704	-1.071533	0.313721	0.142090	0.082844	-0.019968	0.031578	0.002800	-0.592341	0.062420	-0.803261	-19.628790	-72.037604	-165.263562
02230		8.254851	-1.888247	3.056438	0.587835	0.937464	-0.878181	0.380782	-0.281562	-0.079099	-1.078613	0.320313	0.152832	0.082498	-0.018973	0.030644	0.003653	-0.593499	0.060788	-0.802527	-19.477569	-72.204706	-165.209624
02231		8.101788	-1.919269	2.982225	0.583173	1.002228	-1.045040	0.353689	-0.240187	-0.058379	-1.071777	0.315918	0.155273	0.080976	-0.019269	0.029885	0.004577	-0.594531	0.059223	-0.801875	-19.344077	-72.352196	-165.138001
02232		8.124198	-1.904180	3.021513	0.631010	0.994250	-1.016592	0.339959	-0.256767	-0.061286	-1.069580	0.315918	0.148682	0.081197	-0.019118	0.030287	0.005426	-0.595625	0.057822	-0.801160	-19.252547	-72.507276	-165.043966
02233		8.250849	-1.814737	2.872724	0.466954	0.921724	-0.949581	0.321164	-0.286775	-0.065369	-1.071533	0.313721	0.155518	0.082461	-0.018221	0.028816	0.006238	-0.596841	0.056365	-0.800353	-19.153346	-72.681369	-164.956074
02234		8.359990	-1.719660	2.692160	0.278692	0.845849	-0.907565	0.300438	-0.277511	-0.079442	-1.069580	0.318115	0.155273	0.083556	-0.017270	0.027012	0.006852	-0.597974	0.055064	-0.799593	-19.047305	-72.846120	-164.904232
02235		8.160760	-1.611348	2.571261	0.235655	0.776071	-1.143895	0.255882	-0.273002	-0.097576	-1.069336	0.309326	0.157959	0.081565	-0.016186	0.025803	0.007337	-0.599141	0.053773	-0.798802	-18.919947	-73.018836	-164.885080
02236		8.088567	-1.526843	2.472109	0.178272	0.717417	-1.249921	0.216510	-0.278311	-0.117507	-1.071533	0.309326	0.166992	0.080842	-0.015343	0.024817	0.007550	-0.600287	0.052690	-0.798011	-18.793154	-73.191424	-164.904813
02237		8.291261	-1.344690	2.452184	0.117885	0.535494	-1.079664	0.158646	-0.301236	-0.130545	-1.078125	0.309082	0.171631	0.082867	-0.013521	0.024636	0.007619	-0.601575	0.051686	-0.797106	-18.677191	-73.385533	-164.931969
02238		8.507399	-1.384230	2.416985	0.053980	0.573724	-0.879513	0.106000	-0.301274	-0.138673	-1.069336	0.311523	0.162354	0.085028	-0.013914	0.024291	0.007497	-0.602886	0.050879	-0.796168	-18.581722	-73.583877	-164.970373
02239		8.706345	-1.332734	2.327180	-0.061390	0.527157	-0.718148	0.030978	-0.283533	-0.166798	-1.071289	0.304932	0.178467	0.087019	-0.013404	0.023393	0.007033	-0.604114	0.050275	-0.795279	-18.457498	-73.774951	-165.082320
02240		8.896300	-1.229420	2.170028	-0.241486	0.434204	-0.586760	-0.074472	-0.264403	-0.182093	-1.073486	0.302734	0.174072	0.088923	-0.012367	0.021822	0.006134	-0.605249	0.050123	-0.794433	-18.361027	-73.954964	-165.239190
02241		9.107025	-1.327603	2.122953	-0.310445	0.532088	-0.387837	-0.164145	-0.244719	-0.181927	-1.071045	0.300537	0.176514	0.091032	-0.013341	0.021352	0.005010	-0.606329	0.050250	-0.793608	-18.290574	-74.127540	-165.411294
02242		9.205072	-1.488073	2.132155	-0.292576	0.695131	-0.277231	-0.243934	-0.214780	-0.194208	-1.071045	0.300537	0.180908	0.092013	-0.014944	0.021439	0.003549	-0.607262	0.050678	-0.792875	-18.213452	-74.282131	-165.642292
02243		9.359385	-1.673272	2.205056	-0.226131	0.873345	-0.094340	-0.310171	-0.190013	-0.197167	-1.073242	0.298340	0.185547	0.093556	-0.016791	0.022165	0.001907	-0.608128	0.051338	-0.792175	-18.157076	-74.427529	-165.886396
02244		9.408919	-1.830598	2.081500	-0.324201	1.044633	-0.065120	-0.375370	-0.144527	-0.194767	-1.075195	0.291504	0.186035	0.094056	-0.018358	0.020917	0.000025	-0.608789	0.052333	-0.791604	-18.120832	-74.544419	-166.157507
02245		9.481354	-2.091878	1.965420	-0.416503	1.317576	-0.003233	-0.411399	-0.088165	-0.191255	-1.070801	0.293701	0.185791	0.094785	-0.020969	0.019739	-0.001928	-0.609244	0.053413	-0.791179	-18.063812	-74.633183	-166.462172
02246		9.461594	-2.192101	1.901554	-0.448929	1.433326	-0.030715	-0.429941	-0.036239	-0.220805	-1.079590	0.286865	0.190918	0.094588	-0.021984	0.019080	-0.004111	-0.609456	0.054519	-0.790932	-17.920756	-74.693056	-166.874030
02247		9.757411	-2.363853	1.917293	-0.482353	1.596002	0.271506	-0.442975	0.000399	-0.221643	-1.079346	0.280273	0.191162	0.097548	-0.023704	0.019225	-0.006304	-0.609562	0.055629	-0.790759	-17.760280	-74.738481	-167.304513
02248		10.123043	-2.325755	2.040408	-0.449700	1.536287	0.650868	-0.434446	0.033976	-0.194196	-1.072754	0.282715	0.193359	0.101211	-0.023311	0.020437	-0.008379	-0.609494	0.056749	-0.790713	-17.607671	-74.757172	-167.718475
02249		10.646421	-2.297123	2.212476	-0.414625	1.469369	1.195816	-0.432709	0.092447	-0.163254	-1.085938	0.280029	0.188965	0.106456	-0.023010	0.022125	-0.010335	-0.609212	0.057992	-0.790816	-17.498089	-74.741645	-168.090042
02250		11.353683	-2.405658	2.142068	-0.657585	1.552982	1.867962	-0.419724	0.158608	-0.145852	-1.081299	0.275879	0.189209	0.113536	-0.024094	0.021381	-0.012227	-0.608614	0.059262	-0.791156	-17.372515	-74.680242	-168.474788
02251		12.951366	-2.271349	2.691329	-0.558021	1.284310	3.535695	-0.384766	0.092396	-0.165249	-1.083252	0.269043	0.187500	0.129507	-0.022769	0.026897	-0.014045	-0.608330	0.060309	-0.791265	-17.233619	-74.664639	-168.848402
02252		14.734705	-1.931256	3.558416	-0.214983	0.771303	5.447144	-0.364178	-0.024019	-0.196444	-1.081299	0.273438	0.191650	0.147324	-0.019392	0.035637	-0.015904	-0.608451	0.061143	-0.791072	-17.064322	-74.709884	-169.237825
02253		13.975084	-1.355706	3.530056	-0.108856	0.251667	4.662358	-0.418719	0.251488	-0.151852	-1.083008	0.264648	0.189941	0.139785	-0.013589	0.035153	-0.017821	-0.607525	0.062351	-0.791649	-16.875267	-74.604259	-169.683642
02254		12.197221	-1.059474	3.314297	0.070978	0.077893	2.870679	-0.366390	0.552498	-0.136710	-1.078613	0.264648	0.187744	0.122056	-0.010618	0.032825	-0.019635	-0.605351	0.063368	-0.793190	-16.502874	-74.323771	-170.290135
02255		11.694483	-0.772858	3.779096	0.562895	-0.232472	2.486446	-0.242169	0.438339	-0.102580	-1.083008	0.260010	0.178955	0.117023	-0.007743	0.037544	-0.020879	-0.603676	0.064009	-0.794382	-16.218377	-74.106203	-170.730970
02256		12.224764	-0.717708	3.751048	0.341499	-0.300236	2.986665	-0.133328	0.323052	-0.053319	-1.087402	0.262207	0.181152	0.122306	-0.007185	0.037318	-0.021601	-0.602408	0.064368	-0.795295	-16.021070	-73.938520	-171.018274
02257		12.596410	-0.628978	3.850801	0.280421	-0.408830	3.364861	-0.018014	0.416340	-0.061888	-1.087646	0.266602	0.176514	0.126042	-0.006325	0.038246	-0.022001	-0.600826	0.064243	-0.796491	-15.714349	-73.725666	-171.349373
02258		12.357338	-0.306139	3.911583	0.309533	-0.712736	3.129253	-0.033002	0.522200	-0.088480	-1.094482	0.266602	0.169678	0.123674	-0.003110	0.038794	-0.022598	-0.598795	0.064095	-0.798014	-15.318060	-73.453668	-171.784993
02259		11.583343	-0.144291	3.539992	0.089132	-0.778941	2.274954	-0.056711	0.590023	-0.076487	-1.091797	0.259766	0.165527	0.115937	-0.001477	0.035058	-0.023228	-0.596513	0.064060	-0.799706	-14.939872	-73.145750	-172.214765
02260		10.718513	0.018483	3.405178	0.120784	-0.875084	1.398971	-0.062370	0.644744	-0.078654	-1.089355	0.255371	0.159180	0.107294	0.000153	0.033706	-0.023894	-0.593969	0.064020	-0.801580	-14.543519	-72.801804	-172.665714
02261		10.060842	0.213387	3.639690	0.446167	-1.062004	0.826209	-0.065257	0.637651	-0.068224	-1.089600	0.259766	0.147705	0.100725	0.002111	0.036075	-0.024531	-0.591482	0.064036	-0.803397	-14.193048	-72.464650	-173.073111
02262		9.513082	0.382504	3.530201	0.425892	-1.185163	0.263081	-0.114743	0.550101	-0.067385	-1.096191	0.255127	0.147949	0.095229	0.003813	0.035038	-0.025306	-0.589297	0.064236	-0.804961	-13.907090	-72.170774	-173.442097
02263		8.923191	0.253911	3.365280	0.413430	-1.009162	-0.335167	-0.177082	0.513710	-0.065620	-1.098389	0.257324	0.141113	0.089319	0.002539	0.033421	-0.026222	-0.587283	0.064724	-0.806363	-13.701371	-71.901034	-173.766036
02264		8.343794	0.258168	3.139209	0.331964	-0.958001	-0.951985	-0.217679	0.511582	-0.081131	-1.093994	0.257324	0.136475	0.083519	0.002582	0.031176	-0.027312	-0.585253	0.065270	-0.807758	-13.483514	-71.631729	-174.121283
02265		7.917622	0.613315	3.006289	0.257296	-1.274211	-1.421458	-0.263243	0.420205	-0.084980	-1.095947	0.252930	0.132324	0.079242	0.006139	0.029888	-0.028528	-0.583603	0.066061	-0.808845	-13.346620	-71.415999	-174.425666
02266		7.666102	0.825158	2.795331	0.082999	-1.444778	-1.739920	-0.338794	0.250473	-0.098849	-1.100586	0.252686	0.130127	0.076700	0.008261	0.027843	-0.029976	-0.582603	0.067117	-0.809426	-13.289023	-71.293211	-174.690727
02267		7.572429	0.927503	2.724698	0.016355	-1.533321	-1.858156	-0.382610	0.118927	-0.117798	-1.098389	0.252930	0.132324	0.075746	0.009282	0.027184	-0.031573	-0.582160	0.068338	-0.809582	-13.289107	-71.249583	-174.923144
02268		7.571779	1.070134	2.424605	-0.290611	-1.630179	-1.963242	-0.454106	-0.038164	-0.144722	-1.095703	0.246094	0.135010	0.075721	0.010702	0.024236	-0.033425	-0.582325	0.069750	-0.809268	-13.334000	-71.294092	-175.146449
02269		7.855190	1.119569	2.360215	-0.443353	-1.678525	-1.718613	-0.537670	-0.196281	-0.156714	-1.093506	0.246338	0.144043	0.078537	0.011198	0.023649	-0.035521	-0.583138	0.071536	-0.808437	-13.481304	-71.431460	-175.317135
02270		8.500826	0.983576	2.382477	-0.590324	-1.568585	-1.089232	-0.625503	-0.338113	-0.149238	-1.095703	0.244141	0.148682	0.084975	0.009847	0.023938	-0.037815	-0.584521	0.073701	-0.807139	-13.738666	-71.650440	-175.424172
02271		8.815457	0.644034	2.321220	-0.669004	-1.240002	-0.783298	-0.693151	-0.387607	-0.130327	-1.100098	0.241699	0.155518	0.088114	0.006464	0.023361	-0.040189	-0.586054	0.076225	-0.805677	-14.099485	-71.891070	-175.463464
02272		8.701949	0.355665	2.122090	-0.746044	-0.929740	-0.928284	-0.758097	-0.341248	-0.117739	-1.097900	0.241943	0.162109	0.086985	0.003586	0.021356	-0.042723	-0.587410	0.079011	-0.804290	-14.497727	-72.109646	-175.500292
02273		8.364530	0.089593	1.933375	-0.750474	-0.637906	-1.283846	-0.789109	-0.302016	-0.102996	-1.093262	0.241943	0.164551	0.083616	0.000929	0.019456	-0.045300	-0.588547	0.081981	-0.803019	-14.931326	-72.299033	-175.520813
02274		8.178890	0.073581	1.727048	-0.857837	-0.592309	-1.518378	-0.808187	-0.352777	-0.085292	-1.093018	0.233154	0.171631	0.081759	0.000771	0.017412	-0.047849	-0.589896	0.085118	-0.801554	-15.444833	-72.518138	-175.472378
02275		8.328295	0.057646	1.568028	-1.016217	-0.564090	-1.417956	-0.812952	-0.457567	-0.055757	-1.093018	0.233154	0.180664	0.083247	0.000617	0.015868	-0.050240	-0.591608	0.088356	-0.799793	-16.063440	-72.786052	-175.313353
02276		8.571935	0.106181	1.530633	-1.091423	-0.626768	-1.195961	-0.824031	-0.515518	-0.046753	-1.094971	0.226318	0.185547	0.085680	0.001105	0.015523	-0.052618	-0.593576	0.091659	-0.797808	-16.742101	-73.090469	-175.097944
02277		8.797516	0.106892	1.443054	-1.195952	-0.632577	-1.000225	-0.844215	-0.518876	-0.055110	-1.093018	0.230957	0.192139	0.087938	0.001106	0.014654	-0.055070	-0.595497	0.095035	-0.795813	-17.440448	-73.390693	-174.874868
02278		8.881287	0.109143	1.334360	-1.278195	-0.628616	-0.944735	-0.857403	-0.499157	-0.083312	-1.090576	0.226563	0.198975	0.088780	0.001112	0.013560	-0.057680	-0.597362	0.098310	-0.793831	-18.082026	-73.688535	-174.713309
02279		8.969653	0.226656	1.239722	-1.374358	-0.736442	-0.890154	-0.855495	-0.474760	-0.116592	-1.094727	0.219727	0.203857	0.089668	0.002268	0.012600	-0.060428	-0.599104	0.101530	-0.791905	-18.675468	-73.974373	-174.606875
02280		9.099856	0.295981	1.209545	-1.413383	-0.807675	-0.773447	-0.834146	-0.444410	-0.149497	-1.090332	0.222168	0.210449	0.090974	0.002943	0.012285	-0.063250	-0.600747	0.104471	-0.790056	-19.160414	-74.251602	-174.592118
02281		9.247317	0.389278	1.305900	-1.346269	-0.930499	-0.609894	-0.798258	-0.415484	-0.174374	-1.085693	0.215576	0.224365	0.092449	0.003865	0.013236	-0.066084	-0.602275	0.107268	-0.788284	-19.590521	-74.515834	-174.621522
02282		9.133810	0.383310	1.409519	-1.184200	-0.949816	-0.688236	-0.773325	-0.327314	-0.197047	-1.089844	0.211182	0.229248	0.091319	0.003798	0.014230	-0.068988	-0.603491	0.109843	-0.786749	-19.897813	-74.741256	-174.761923
02283		8.841215	0.456337	1.667511	-0.860408	-1.079049	-0.910370	-0.745611	-0.216365	-0.220672	-1.092041	0.211182	0.233643	0.088399	0.004528	0.016754	-0.071951	-0.604255	0.112221	-0.785561	-20.071570	-74.907420	-175.025629
02284		8.443856	0.473016	1.680014	-0.732908	-1.086567	-1.290534	-0.738461	-0.165751	-0.236481	-1.093994	0.204346	0.231689	0.084430	0.004692	0.016853	-0.074975	-0.604875	0.114463	-0.784477	-20.164240	-75.057223	-175.364531
02285		8.327331	0.409369	1.608406	-0.737151	-1.000195	-1.412974	-0.712949	-0.230923	-0.245158	-1.093750	0.197754	0.239014	0.083260	0.004049	0.016166	-0.077925	-0.605702	0.116641	-0.783229	-20.277299	-75.236369	-175.671285
02286		8.603850	0.286345	1.725840	-0.641378	-0.917229	-1.104415	-0.667530	-0.316762	-0.232548	-1.093750	0.197754	0.245605	0.086014	0.002821	0.017385	-0.080610	-0.606896	0.118606	-0.781737	-20.424834	-75.463242	-175.903258
02287		8.897469	0.128637	1.591348	-0.766012	-0.733669	-0.835564	-0.635806	-0.366394	-0.219428	-1.089111	0.191162	0.255127	0.088947	0.001240	0.016072	-0.083143	-0.608250	0.120610	-0.780110	-20.647661	-75.710346	-176.050430
