// General information: 
//  MT Manager version: 2019.2.0 
//  XDA version: 2019.2.0 build 3853 rev 94535 built on 2019-09-09
// Device information: 
//  DeviceId: 00B40AC5
//  ProductCode: MTW2-3A7G6
//  Firmware Version: 4.3.5
//  Hardware Version: 1.1.0
// Device settings: 
//  Filter Profile: human(46.1)
//  Option Flags: Orientation Smoother Disabled, AHS Disabled, ICC Disabled
// Coordinate system: ENU
PacketCounter	SampleTimeFine	Acc_X	Acc_Y	Acc_Z	FreeAcc_E	FreeAcc_N	FreeAcc_U	Gyr_X	Gyr_Y	Gyr_Z	Mag_X	Mag_Y	Mag_Z	VelInc_X	VelInc_Y	VelInc_Z	Quat_q0	Quat_q1	Quat_q2	Quat_q3	Roll	Pitch	Yaw
01748		11.156400	-1.964906	12.285980	-0.000000	-0.000000	6.898288	0.319694	-2.348930	2.418433	-0.763184	0.330811	0.157959	0.110339	-0.018508	0.124130	0.184104	-0.358416	-0.011594	-0.915155	-8.480218	-41.321337	-154.048170
01749		21.255086	3.612408	14.302430	0.000000	0.000000	16.059700	1.202590	0.110787	2.161070	-0.754639	0.344482	0.146240	0.212229	0.037558	0.143130	0.232930	-0.427091	-0.202451	-0.849912	14.703258	-55.114162	-157.050701
01750		1.150603	11.386422	10.856655	11.899492	-5.817498	-1.245454	1.196920	1.301345	1.999827	-0.748535	0.360107	0.134766	0.011080	0.113324	0.109173	0.228488	-0.392441	-0.129603	-0.881469	4.268950	-48.683432	-152.868092
01751		-1.318165	9.870833	8.731962	11.304394	-4.505401	-4.584963	0.288074	1.449985	2.119843	-0.744629	0.380127	0.127197	-0.013592	0.098440	0.087559	0.239316	-0.387062	-0.125045	-0.881632	3.013845	-47.931381	-150.966347
01752		-1.847866	5.869487	7.714319	8.893701	-1.247668	-5.723492	-0.083754	1.366445	1.805558	-0.736328	0.397949	0.124512	-0.018480	0.058560	0.077245	0.246492	-0.378856	-0.122766	-0.883537	2.529840	-46.885467	-149.920761
01753		0.093176	3.888514	7.882879	6.776355	-0.160629	-4.215930	0.054224	1.546606	1.091245	-0.743164	0.402344	0.099854	0.001329	0.038870	0.078830	0.252354	-0.372610	-0.119027	-0.885049	1.867777	-46.023943	-148.964531
01754		0.075084	4.775733	8.216036	7.179988	-0.763242	-3.633693	0.254643	1.933661	0.322480	-0.736328	0.398193	0.084473	0.001469	0.047655	0.082209	0.252445	-0.348919	-0.124022	-0.893949	3.593154	-43.349714	-149.889864
01755		-0.213742	5.209574	8.306019	7.530687	-1.029712	-3.615918	0.237863	2.362569	-0.298221	-0.738525	0.395996	0.062500	-0.001078	0.051999	0.083139	0.252974	-0.337849	-0.122615	-0.898236	3.806109	-41.987857	-150.002969
01756		-0.775004	3.730673	8.127979	6.406447	0.354128	-3.535015	0.181211	2.761176	-0.795624	-0.742920	0.389160	0.042725	-0.006478	0.037260	0.081409	0.245254	-0.292170	-0.135262	-0.914435	7.479171	-36.919216	-152.472717
01757		-1.031161	1.873542	7.962845	5.356208	1.875541	-3.832076	0.310588	3.055682	-1.217837	-0.740234	0.375977	0.020996	-0.008979	0.018669	0.079801	0.242172	-0.276955	-0.134696	-0.920057	7.988402	-35.090448	-153.036152
01758		0.136047	1.211177	7.927631	3.255230	1.908952	-2.735590	0.577765	3.329487	-1.565230	-0.746338	0.358154	-0.016113	0.002774	0.011865	0.079272	0.231132	-0.213553	-0.146272	-0.937858	11.465578	-27.916283	-155.169848
01759		1.612272	0.980002	7.931628	1.677112	1.499720	-1.976891	0.795279	3.695125	-1.823129	-0.750244	0.342773	-0.037598	0.017671	0.009329	0.079037	0.226084	-0.193927	-0.147646	-0.943122	12.217960	-25.629810	-155.828279
01760		1.779025	0.558333	7.667138	0.277183	1.532503	-2.077942	0.956401	4.050441	-1.991315	-0.747559	0.329590	-0.074951	0.019390	0.005030	0.076314	0.214895	-0.130182	-0.151488	-0.955994	14.249310	-18.301303	-156.969350
01761		1.102420	0.424527	7.138159	0.379222	1.670253	-2.783713	1.072061	4.185002	-2.041137	-0.742432	0.309814	-0.116455	0.012555	0.003741	0.071150	0.208945	-0.107445	-0.153400	-0.959826	15.024329	-15.685762	-157.518919
01762		1.823332	0.537012	6.989223	-0.947175	1.070636	-2.712696	1.135430	4.105340	-1.973256	-0.737549	0.298828	-0.144775	0.019712	0.004785	0.069526	0.199117	-0.056459	-0.150892	-0.966642	15.853270	-9.743721	-158.080996
01763		3.643555	-0.005696	6.991960	-3.152191	0.854706	-2.637319	1.196161	4.006098	-1.931583	-0.729736	0.272217	-0.177002	0.037821	-0.000833	0.069168	0.193089	-0.034435	-0.153190	-0.968537	16.601595	-7.230571	-158.506817
01764		5.206643	-0.720936	7.080484	-5.324379	0.817840	-2.831884	1.296471	3.904301	-1.969723	-0.720215	0.252441	-0.205078	0.053357	-0.008185	0.069721	0.184624	-0.001590	-0.148802	-0.971478	16.799000	-3.327037	-158.970502
01765		7.478582	-1.243148	7.308910	-7.946195	0.571025	-2.927306	1.426554	3.743840	-2.111637	-0.717041	0.228271	-0.235352	0.075995	-0.013744	0.071579	0.177117	0.019481	-0.152253	-0.972146	17.635793	-0.919979	-159.491545
01766		10.286738	0.141636	7.750527	-10.284511	-1.532360	-2.212698	1.469548	3.649361	-2.283853	-0.714111	0.206055	-0.256836	0.104262	-0.000329	0.075613	0.169558	0.029227	-0.146650	-0.974110	17.195015	0.413059	-160.189112
01767		11.794302	1.471191	8.205662	-11.690354	-2.997204	-1.880489	1.229051	3.629862	-2.390910	-0.704102	0.179688	-0.286865	0.119568	0.012793	0.079979	0.160352	0.049692	-0.149172	-0.974457	17.880206	2.808954	-160.868846
01768		13.081198	0.770020	7.672777	-12.911728	-2.783220	-2.323644	0.913413	3.556320	-2.459671	-0.692383	0.164307	-0.308350	0.132228	0.005736	0.074414	0.155757	0.036720	-0.146251	-0.976218	17.282699	1.497530	-161.642018
01769		14.313364	-0.433286	6.371859	-14.577417	-2.280439	-4.528495	0.702840	3.363568	-2.501180	-0.686768	0.133301	-0.329590	0.144107	-0.006349	0.061280	0.145844	0.055504	-0.146570	-0.976814	17.649202	3.766013	-162.431374
01770		16.048606	-1.782343	5.181815	-16.229585	-1.644422	-5.181840	0.604938	3.052099	-2.488546	-0.674561	0.104736	-0.348389	0.161012	-0.019976	0.049305	0.143067	0.024658	-0.145744	-0.978613	16.996581	0.375776	-163.309163
01771		17.912964	-2.138203	4.435155	-18.209169	-1.823472	-6.622195	0.552092	2.753383	-2.386363	-0.671875	0.091309	-0.367920	0.179444	-0.023640	0.041819	0.133305	0.040259	-0.146156	-0.979412	17.293387	2.286338	-164.150822
01772		19.180699	-2.137438	3.901820	-19.095809	-1.985175	-5.446379	0.439571	2.563799	-2.149226	-0.659912	0.071533	-0.387207	0.192041	-0.023519	0.036507	0.132498	-0.005261	-0.145097	-0.980491	16.467735	-2.795262	-165.012577
01773		19.277376	-2.414810	3.162108	-19.373389	-1.750039	-6.808317	0.340201	2.441521	-1.843924	-0.648438	0.060791	-0.406738	0.192906	-0.025977	0.029223	0.125223	0.008271	-0.145178	-0.981414	16.683819	-1.153097	-165.626427
01774		17.879457	-1.609554	2.484993	-17.445662	-2.059389	-5.359867	0.260112	2.317097	-1.509212	-0.645508	0.040771	-0.419189	0.178938	-0.017476	0.022755	0.127117	-0.046444	-0.143666	-0.980329	15.788978	-7.330118	-166.241452
01775		16.797925	-1.212193	1.713519	-16.454389	-2.295328	-6.565346	0.164388	2.192285	-1.241096	-0.631836	0.036621	-0.432373	0.168074	-0.013178	0.015283	0.122636	-0.034699	-0.143355	-0.981430	15.922782	-5.927542	-166.584591
01776		15.677698	0.124114	1.013910	-14.696782	-3.271643	-5.326732	0.093890	2.009838	-1.093600	-0.620361	0.030029	-0.443359	0.156872	0.000379	0.008563	0.125061	-0.090444	-0.142108	-0.977745	15.143054	-12.263420	-167.058251
01777		15.247991	1.582463	0.517452	-14.072080	-4.622249	-5.828184	-0.053483	1.787370	-1.017578	-0.611084	0.019043	-0.456055	0.152596	0.015050	0.003807	0.121326	-0.081012	-0.141182	-0.979176	15.173453	-11.122519	-167.359456
01778		14.055246	1.204918	0.074736	-12.737959	-3.905714	-5.176822	-0.132000	1.580369	-1.023872	-0.606445	0.016846	-0.464844	0.140612	0.011329	-0.000371	0.121128	-0.134131	-0.142251	-0.973191	14.821457	-17.189455	-168.062789
01779		12.534879	0.888755	0.135163	-11.484759	-3.228470	-5.862427	0.001955	1.408016	-1.056588	-0.596924	0.005859	-0.468994	0.125399	0.008225	0.000469	0.116985	-0.126522	-0.142111	-0.974736	14.936118	-16.254338	-168.457404
01780		9.775621	0.605526	-0.505946	-8.885636	-2.398646	-6.425153	0.185958	1.182374	-1.076712	-0.590088	0.001709	-0.477783	0.097755	0.005534	-0.005632	0.113376	-0.174697	-0.147090	-0.966950	15.288798	-21.789547	-169.584733
01781		9.273148	11.538059	-3.014025	-6.305393	-13.267777	-6.290008	-0.769659	0.130463	-0.383297	-0.594727	0.006104	-0.475586	0.092932	0.115085	-0.030644	0.110945	-0.174219	-0.143629	-0.967838	14.924527	-21.660171	-169.791996
01782		11.513734	-2.129290	-10.605257	-14.926139	-2.981211	-14.041335	-2.567687	-1.821219	0.619788	-0.595459	0.028076	-0.458740	0.116163	-0.022284	-0.104716	0.101700	-0.231379	-0.141379	-0.957148	14.688087	-28.143660	-171.570512
01783		27.286025	-16.873373	-5.202095	-30.181483	10.882578	-4.632574	-1.982179	-3.000293	0.046830	-0.611328	0.032471	-0.434570	0.273622	-0.169147	-0.046245	0.097494	-0.246740	-0.133341	-0.954900	13.771939	-29.816566	-172.023807
01784		25.214952	-8.533942	10.669538	-16.622655	8.859660	11.811557	-1.102461	-2.342746	-0.623569	-0.620850	0.043213	-0.426025	0.250607	-0.085522	0.110108	0.091798	-0.306624	-0.130827	-0.938317	13.674157	-36.829844	-173.396825
01785		8.203297	-12.996292	17.212694	-0.164338	16.749166	6.058834	-0.604860	-1.385179	0.300042	-0.632324	0.054199	-0.417480	0.081031	-0.129318	0.173082	0.091370	-0.313588	-0.128161	-0.936424	13.341433	-37.641734	-173.419711
01786		9.983146	-7.004187	14.278179	-0.395716	9.618819	6.308964	0.517642	-1.279616	0.626075	-0.634521	0.047607	-0.412842	0.099135	-0.070101	0.143236	0.117482	-0.356696	-0.119768	-0.919033	10.768078	-43.139081	-169.697945
01787		9.733214	9.619567	9.434072	1.911997	-7.441228	4.926475	0.329995	-1.109205	0.084049	-0.638916	0.049561	-0.399658	0.096766	0.096080	0.095037	0.117790	-0.361644	-0.121784	-0.916792	11.026168	-43.772303	-169.798302
01788		4.911529	8.864559	8.087123	5.231061	-6.551996	0.077284	-0.216429	-1.215623	-0.041469	-0.648193	0.053955	-0.384277	0.048641	0.088723	0.081072	0.138519	-0.392953	-0.113668	-0.901931	8.225540	-47.759016	-166.184030
01789		10.608642	3.316269	8.005604	-0.305386	-2.296579	3.687732	-0.515664	-1.087781	0.131902	-0.650391	0.053955	-0.379883	0.105627	0.033440	0.080545	0.137480	-0.398284	-0.111835	-0.899979	7.944346	-48.386759	-166.203218
01790		11.833270	-3.457679	7.507966	-3.032820	3.595162	3.833822	-0.369129	-0.649701	0.083064	-0.652588	0.056152	-0.382080	0.118102	-0.034389	0.075527	0.145513	-0.420375	-0.107635	-0.889115	6.321350	-51.155242	-164.438736
01791		6.816029	-0.864924	7.962205	1.297143	2.161890	0.397436	-0.033573	-0.291204	0.043088	-0.652832	0.060547	-0.368896	0.068046	-0.008621	0.079723	0.145477	-0.421717	-0.107606	-0.888488	6.294352	-51.323855	-164.428800
01792		7.119318	3.972982	7.964082	3.259328	-2.465271	0.826628	-0.051256	-0.256136	0.060498	-0.655029	0.058350	-0.368896	0.071079	0.039772	0.079722	0.158309	-0.436625	-0.104068	-0.879470	4.291631	-53.220578	-161.742232
01793		6.521046	4.217409	7.922535	3.688712	-2.598755	0.322248	-0.142406	-0.246427	0.172539	-0.657715	0.069336	-0.360352	0.065076	0.042287	0.079276	0.158629	-0.437911	-0.103260	-0.878868	4.091593	-53.368686	-161.594513
01794		7.099179	3.199972	8.029194	3.355553	-1.742183	0.713995	-0.225992	-0.248283	0.197610	-0.657471	0.067139	-0.358154	0.070860	0.032161	0.080344	0.162869	-0.449184	-0.100804	-0.872666	2.943031	-54.766758	-160.381339
01795		6.545644	2.180360	8.241458	3.465465	-0.640691	0.341180	-0.208033	-0.229603	0.135301	-0.660156	0.078125	-0.351807	0.065347	0.021934	0.082467	0.162876	-0.450423	-0.099779	-0.872144	2.723118	-54.902054	-160.258156
01796		7.901742	2.108682	7.413008	2.273478	-1.094826	0.932978	-0.194400	-0.221310	0.108045	-0.659912	0.073730	-0.354004	0.078924	0.021202	0.074197	0.162688	-0.458472	-0.098467	-0.868125	2.227069	-55.900006	-159.953308
01797		7.534688	1.530565	7.154279	2.079100	-0.581156	0.465318	-0.136141	-0.186223	0.069123	-0.657959	0.075928	-0.349609	0.075275	0.015380	0.071602	0.162584	-0.459425	-0.097868	-0.867708	2.096396	-56.008198	-159.889765
01798		6.924859	1.073037	7.555133	2.659272	0.111562	0.142256	-0.096530	-0.172230	0.043573	-0.655762	0.078125	-0.349609	0.069181	0.010782	0.075606	0.160294	-0.465230	-0.097411	-0.865089	2.026110	-56.736677	-160.099319
01799		6.251144	1.167107	7.999202	3.403952	0.291775	-0.181793	-0.022832	-0.204573	0.002046	-0.660400	0.082520	-0.349854	0.062429	0.011681	0.080055	0.160150	-0.466134	-0.097472	-0.864621	2.017501	-56.853937	-160.104687
01800		6.504273	1.470905	7.995457	3.458988	-0.016836	0.007268	-0.014018	-0.247721	-0.009923	-0.660400	0.084717	-0.343262	0.064944	0.014711	0.080034	0.158212	-0.470028	-0.097588	-0.862855	2.090794	-57.353159	-160.363167
01801		6.295280	1.859514	7.954784	3.697114	-0.344409	-0.190858	-0.005709	-0.249959	-0.037642	-0.669189	0.082520	-0.343262	0.062857	0.018586	0.079626	0.157914	-0.471093	-0.097850	-0.862299	2.129452	-57.495565	-160.412946
01802		6.463918	2.014669	7.804578	3.587595	-0.545550	-0.138802	-0.006950	-0.248043	-0.068065	-0.658203	0.084717	-0.341064	0.064549	0.020127	0.078125	0.155539	-0.473283	-0.098227	-0.861488	2.366373	-57.780559	-160.837258
01803		6.637850	2.344451	7.436692	3.349707	-0.987207	-0.186331	0.009470	-0.241366	-0.080079	-0.660400	0.082520	-0.334229	0.066298	0.023414	0.074448	0.155098	-0.474277	-0.098644	-0.860974	2.453927	-57.916883	-160.934284
01804		6.608774	2.766793	7.293673	3.409956	-1.398971	-0.276244	0.000414	-0.197206	-0.060482	-0.660156	0.078125	-0.336426	0.066024	0.027648	0.073002	0.152044	-0.475333	-0.099063	-0.860888	2.818854	-58.053229	-161.532654
01805		6.608686	2.763749	7.191383	3.342483	-1.419691	-0.334223	0.000491	-0.163215	-0.033288	-0.656250	0.091553	-0.325684	0.066033	0.027626	0.071968	0.151821	-0.476019	-0.099268	-0.860524	2.857121	-58.145767	-161.577420
01806		6.586239	2.166166	7.437782	3.326548	-0.760819	-0.234241	-0.006371	-0.144078	-0.013840	-0.665039	0.086914	-0.325684	0.065810	0.021659	0.074425	0.147907	-0.476481	-0.099519	-0.860921	3.307741	-58.196873	-162.344747
01807		6.480996	2.223274	7.704571	3.622125	-0.709354	-0.185450	0.002019	-0.124793	-0.006809	-0.655762	0.082520	-0.329834	0.064763	0.022230	0.077086	0.147820	-0.477013	-0.099636	-0.860628	3.321810	-58.268111	-162.359956
01808		6.668533	1.992054	7.582569	3.335187	-0.545497	-0.090964	0.002968	-0.120195	0.002699	-0.656250	0.091553	-0.325684	0.066639	0.019920	0.075866	0.144172	-0.477062	-0.099826	-0.861197	3.747762	-58.263195	-163.081828
01809		6.821404	2.322892	7.274790	3.138587	-0.970628	-0.114384	-0.002195	-0.117348	-0.007830	-0.658203	0.086914	-0.325684	0.068172	0.023227	0.072788	0.144074	-0.477565	-0.099920	-0.860924	3.760828	-58.330074	-163.098685
01810		7.192363	2.120489	7.046049	2.680737	-0.891635	0.081350	-0.023665	-0.108929	0.008330	-0.658691	0.100342	-0.334961	0.071884	0.021216	0.070497	0.140544	-0.477463	-0.099926	-0.861563	4.144500	-58.300695	-163.782533
01811		6.370561	2.580538	7.460805	3.589360	-1.076901	-0.385938	-0.037097	-0.075712	0.021327	-0.656006	0.089355	-0.332275	0.063675	0.025826	0.074627	0.140509	-0.477827	-0.099768	-0.861385	4.108504	-58.344921	-163.765232
01812		6.484675	2.612361	7.459830	3.517572	-1.121010	-0.278826	-0.059964	-0.060402	0.059474	-0.653809	0.091553	-0.327881	0.064816	0.026165	0.074610	0.137072	-0.477548	-0.099413	-0.862135	4.418239	-58.285129	-164.396423
01813		6.069113	2.423079	7.720488	3.880405	-0.811436	-0.507022	-0.061786	-0.058401	0.061594	-0.649658	0.098145	-0.328125	0.060661	0.024273	0.077215	0.137161	-0.477873	-0.099039	-0.861983	4.329944	-58.321263	-164.334275
01814		6.515038	1.686566	7.572360	3.272981	-0.223781	-0.227888	-0.062097	-0.055117	0.060307	-0.647705	0.107178	-0.333008	0.065124	0.016909	0.075736	0.133674	-0.477521	-0.098628	-0.862773	4.635070	-58.250089	-164.969220
01815		5.994048	1.827649	7.872228	3.829398	-0.200704	-0.510198	-0.027253	-0.057139	0.015734	-0.649658	0.095947	-0.328125	0.059917	0.018292	0.078737	0.133649	-0.477794	-0.098511	-0.862639	4.609148	-58.283523	-164.957121
01816		6.472210	1.836102	7.708429	3.437155	-0.319310	-0.181246	-0.030306	-0.063861	0.022347	-0.645264	0.102783	-0.334961	0.064695	0.018380	0.077102	0.130629	-0.477355	-0.098323	-0.863366	4.906673	-58.206374	-165.525058
01817		6.599594	2.075632	7.532773	3.315393	-0.616449	-0.156927	-0.034335	-0.067927	0.022297	-0.647461	0.102783	-0.330566	0.065968	0.020777	0.075347	0.130610	-0.477682	-0.098166	-0.863206	4.871765	-58.246313	-165.507155
01818		6.781799	2.116871	7.229852	2.971335	-0.764323	-0.151855	-0.034918	-0.066602	0.026058	-0.649902	0.102783	-0.337158	0.067791	0.021190	0.072317	0.127807	-0.477242	-0.097932	-0.863895	5.136140	-58.168983	-166.027286
01819		6.672850	2.229778	7.275421	3.105376	-0.847638	-0.217442	-0.047078	-0.045473	0.037714	-0.651855	0.100342	-0.339355	0.066708	0.022327	0.072764	0.127836	-0.477488	-0.097668	-0.863785	5.078177	-58.196927	-165.990834
01820		6.984422	1.711954	7.116400	2.633814	-0.438684	-0.054273	-0.026004	-0.028885	0.047060	-0.652100	0.102783	-0.341797	0.069830	0.017145	0.071172	0.125096	-0.476932	-0.097367	-0.864527	5.324053	-58.103174	-166.491955
01821		6.867441	1.981691	7.214433	2.858842	-0.655590	-0.089821	-0.002401	-0.005235	0.041879	-0.652100	0.104980	-0.346191	0.068668	0.019832	0.072146	0.125269	-0.476977	-0.097260	-0.864489	5.284695	-58.108446	-166.447236
01822		6.595548	2.418671	7.418356	3.269622	-0.978639	-0.182782	-0.016261	0.021908	0.074064	-0.645508	0.104980	-0.348389	0.065955	0.024217	0.074174	0.122830	-0.476234	-0.096893	-0.865290	5.487547	-57.990776	-166.884229
01823		6.793078	2.632748	7.108104	2.984529	-1.303743	-0.169283	-0.050948	0.051979	0.118504	-0.647949	0.111572	-0.350830	0.067934	0.026386	0.071057	0.123247	-0.476098	-0.096358	-0.865365	5.345741	-57.967600	-166.751423
01824		6.299876	1.963579	7.601803	3.403286	-0.477207	-0.351113	-0.054840	0.066399	0.142557	-0.650146	0.113770	-0.359863	0.063010	0.019702	0.075992	0.120726	-0.475254	-0.095597	-0.866268	5.483043	-57.830558	-167.162648
01825		6.211962	2.511150	7.815773	3.783887	-0.942794	-0.285150	-0.061369	0.050082	0.145081	-0.647949	0.113770	-0.353271	0.062121	0.025181	0.078134	0.121232	-0.475144	-0.094956	-0.866328	5.312044	-57.809869	-167.002172
01826		6.563458	2.361414	7.698644	3.435078	-0.887998	-0.048670	-0.087039	0.029355	0.178142	-0.654785	0.113770	-0.357666	0.065625	0.023706	0.076967	0.118777	-0.474457	-0.093984	-0.867150	5.398604	-57.690902	-167.376022
01827		6.589745	2.377649	7.558190	3.318139	-0.965040	-0.103784	-0.110795	0.012871	0.200218	-0.654785	0.118164	-0.364502	0.065878	0.023884	0.075564	0.119388	-0.474561	-0.093020	-0.867113	5.153383	-57.694163	-167.161007
01828		6.786306	2.212828	7.482751	3.082989	-0.868922	0.020024	-0.132290	0.002400	0.224431	-0.652832	0.122803	-0.364502	0.067839	0.022254	0.074812	0.116892	-0.474026	-0.091737	-0.867883	5.182727	-57.591027	-167.508465
01829		6.568970	2.091914	7.582178	3.249608	-0.726413	-0.120980	-0.149136	-0.012681	0.241963	-0.655029	0.120361	-0.368896	0.065659	0.021055	0.075810	0.117582	-0.474279	-0.090524	-0.867778	4.880642	-57.610476	-167.251902
01830		6.827938	1.462327	7.402127	2.770752	-0.223084	-0.023728	-0.155486	-0.019957	0.256353	-0.657471	0.129395	-0.378174	0.068253	0.014768	0.074017	0.115147	-0.473851	-0.089064	-0.868489	4.868677	-57.520142	-167.568494
01831		6.201248	1.539743	7.950179	3.571858	-0.106009	-0.259565	-0.143831	-0.036747	0.236793	-0.655518	0.133789	-0.364990	0.061980	0.015528	0.079502	0.115818	-0.474199	-0.087899	-0.868329	4.576438	-57.552342	-167.319811
01832		6.490627	1.969169	7.806168	3.411113	-0.610346	-0.069287	-0.130065	-0.065577	0.243140	-0.664551	0.135986	-0.374023	0.064857	0.019821	0.078070	0.113712	-0.473888	-0.086625	-0.868905	4.562902	-57.482578	-167.591718
01833		6.452790	2.152825	7.688091	3.403328	-0.836558	-0.163991	-0.141598	-0.102702	0.268808	-0.664551	0.138184	-0.371826	0.064459	0.021669	0.076899	0.114499	-0.474531	-0.085431	-0.868569	4.247648	-57.553120	-167.314185
01834		6.510501	2.828721	7.638235	3.508785	-1.530079	-0.113302	-0.173568	-0.127017	0.330210	-0.660156	0.140381	-0.376221	0.065010	0.028461	0.076399	0.112583	-0.474514	-0.083780	-0.868989	4.139275	-57.517979	-167.508619
01835		6.074728	3.216219	7.895716	4.075548	-1.821949	-0.343848	-0.250667	-0.145544	0.415845	-0.667236	0.151367	-0.376709	0.060623	0.032387	0.078961	0.113734	-0.475461	-0.081786	-0.868512	3.630422	-57.617357	-167.075902
01836		6.675023	1.989797	7.591732	3.175895	-0.831366	-0.046837	-0.308098	-0.186373	0.473555	-0.667236	0.149170	-0.376709	0.066632	0.020173	0.075949	0.111507	-0.475822	-0.079177	-0.868844	3.368671	-57.617188	-167.226299
01837		6.637035	1.170125	7.792804	3.172717	-0.035831	-0.010672	-0.297162	-0.245454	0.454864	-0.671875	0.157959	-0.372559	0.066248	0.011968	0.077992	0.112678	-0.477233	-0.076941	-0.868120	2.798794	-57.771670	-166.753507
01838		6.767717	1.361487	7.905545	3.258469	-0.248537	0.160956	-0.280092	-0.301774	0.435448	-0.674316	0.160156	-0.372559	0.067528	0.013873	0.079138	0.110523	-0.478003	-0.074608	-0.868177	2.571268	-57.830185	-166.910431
01839		6.669465	1.030300	8.067457	3.399373	0.081717	0.140423	-0.244926	-0.372584	0.407602	-0.681152	0.160156	-0.372559	0.066523	0.010538	0.080786	0.111568	-0.479905	-0.072777	-0.867149	2.072153	-58.052970	-166.487099
01840		6.683952	0.633560	8.187363	3.411271	0.460963	0.200301	-0.197897	-0.463151	0.380648	-0.687988	0.168945	-0.366211	0.066637	0.006544	0.082022	0.109657	-0.481229	-0.071032	-0.866803	1.913833	-58.194343	-166.645046
01841		6.823839	1.148310	8.024903	3.399762	-0.115193	0.222769	-0.153098	-0.561353	0.357415	-0.688232	0.173340	-0.366455	0.067992	0.011666	0.080431	0.110638	-0.483870	-0.069816	-0.865306	1.509528	-58.521965	-166.273185
01842		6.773765	1.418001	8.048945	3.552748	-0.381643	0.182908	-0.116632	-0.652810	0.367377	-0.697266	0.175537	-0.366455	0.067448	0.014351	0.080702	0.109195	-0.485882	-0.068574	-0.864461	1.375375	-58.762777	-166.375988
01843		6.998250	1.577326	7.994770	3.515334	-0.590354	0.320081	-0.094402	-0.772026	0.391412	-0.695068	0.175537	-0.357666	0.069642	0.015948	0.080209	0.110391	-0.489400	-0.067636	-0.862396	0.963354	-59.209611	-165.958357
01844		6.565390	1.779109	8.210460	4.017910	-0.698976	0.038617	-0.129059	-0.860722	0.417391	-0.704346	0.184326	-0.351318	0.065262	0.017981	0.082374	0.109059	-0.492273	-0.066301	-0.861033	0.769203	-59.563152	-166.002802
01845		6.786997	1.247116	8.145814	3.819961	-0.240164	0.153357	-0.130848	-0.978615	0.426926	-0.706787	0.186279	-0.342529	0.067443	0.012669	0.081781	0.110249	-0.496692	-0.065220	-0.858422	0.282078	-60.126082	-165.526147
01846		6.508441	1.053476	8.243470	4.066094	-0.010290	-0.071542	-0.130081	-1.100624	0.419500	-0.715820	0.188477	-0.338135	0.064607	0.010724	0.082784	0.108801	-0.500512	-0.063960	-0.856481	0.075678	-60.607158	-165.564941
01847		6.816304	1.285793	8.251942	4.106807	-0.278301	0.150489	-0.102189	-1.228076	0.418885	-0.724609	0.188232	-0.322754	0.067627	0.013042	0.082929	0.109944	-0.505950	-0.063141	-0.853194	-0.418891	-61.310069	-165.066227
01848		6.572593	1.309104	8.523245	4.557045	-0.218954	0.023056	-0.102180	-1.358505	0.428479	-0.731689	0.192627	-0.313965	0.065117	0.013275	0.085669	0.108633	-0.510742	-0.062084	-0.850581	-0.651651	-61.926277	-165.052654
01849		6.913314	1.243262	8.167254	4.228531	-0.274462	0.091125	-0.087039	-1.493124	0.455012	-0.736328	0.197021	-0.300781	0.068492	0.012625	0.082180	0.109879	-0.517265	-0.061361	-0.846522	-1.225847	-62.777380	-164.460755
01850		7.739075	0.687013	7.915651	3.638899	0.111401	0.664231	-0.047815	-1.651480	0.467303	-0.750000	0.205566	-0.287842	0.076717	0.007069	0.079790	0.108796	-0.523146	-0.060537	-0.843100	-1.512104	-63.547066	-164.357397
01851		6.698513	0.784126	8.995850	5.230007	0.387561	0.132330	0.017514	-1.836567	0.449839	-0.758789	0.203369	-0.272217	0.066137	0.007983	0.090569	0.110177	-0.530991	-0.060431	-0.838008	-2.100043	-64.590683	-163.692503
01852		7.259785	1.062340	9.438942	5.622955	0.162936	0.736106	0.026722	-2.103518	0.450624	-0.765869	0.211914	-0.248047	0.071576	0.010773	0.095147	0.109321	-0.538549	-0.060185	-0.833302	-2.420615	-65.603163	-163.491885
01853		7.322914	2.225780	9.325217	6.026952	-0.962457	0.593120	0.063811	-2.449220	0.467629	-0.772705	0.211914	-0.232666	0.072028	0.022397	0.094146	0.110695	-0.548817	-0.060525	-0.826367	-3.148900	-66.991784	-162.656632
01854		6.988709	3.852231	9.575484	7.004768	-2.417325	0.209840	0.058239	-2.785621	0.599817	-0.779541	0.213867	-0.203857	0.068428	0.038701	0.096726	0.110185	-0.558958	-0.060264	-0.819630	-3.793123	-68.365995	-162.110256
01855		6.320231	3.310290	9.716128	7.528422	-1.745226	-0.562222	0.062226	-3.109518	0.782716	-0.788574	0.220459	-0.181885	0.061551	0.033316	0.098137	0.112616	-0.571830	-0.060037	-0.810385	-5.309554	-70.106536	-160.450557
01856		6.615998	2.929177	9.747290	7.638525	-1.386917	-0.481350	0.137188	-3.547276	0.995729	-0.789063	0.231445	-0.146973	0.064271	0.029547	0.098644	0.112773	-0.584760	-0.059064	-0.801155	-6.871269	-71.858088	-158.992880
01857		6.886431	2.198486	10.083819	8.059822	-0.580218	-0.398884	0.275917	-4.042125	1.169391	-0.800537	0.237793	-0.111572	0.066678	0.022239	0.102231	0.117045	-0.601010	-0.059016	-0.788419	-9.982714	-74.051744	-155.573811
01858		7.676367	2.120900	10.048369	8.182051	-0.558390	0.041561	0.491812	-4.547936	1.309679	-0.802979	0.244385	-0.078613	0.074312	0.021451	0.102245	0.118827	-0.617167	-0.058793	-0.775583	-13.487149	-76.239972	-151.977176
01859		9.730129	1.252430	10.229170	8.224927	0.198683	1.726202	0.733127	-5.054815	1.398404	-0.803467	0.259766	-0.023682	0.094585	0.012811	0.104752	0.124984	-0.636525	-0.060304	-0.758668	-20.338404	-78.783018	-144.531865
01860		12.260145	1.972450	10.997208	9.330690	-0.460260	3.891175	1.069112	-5.381522	1.395925	-0.805908	0.268555	0.011475	0.119443	0.019966	0.113321	0.128606	-0.654625	-0.062264	-0.742328	-29.324921	-81.080423	-135.114431
01861		10.601968	2.438852	10.893834	10.241819	-0.541610	1.666427	1.349471	-5.587278	1.430565	-0.795166	0.281982	0.055420	0.102745	0.024382	0.112004	0.136535	-0.674649	-0.066156	-0.722378	-47.601448	-83.105403	-115.887972
01862		10.372968	3.431459	10.498020	10.729365	-1.369050	0.794580	1.672214	-5.862908	1.533587	-0.799805	0.286133	0.101807	0.100326	0.034197	0.108241	0.142190	-0.692949	-0.069817	-0.703370	-73.172457	-84.072532	-89.560659
01863		13.447708	6.480320	10.502855	12.393037	-4.293229	2.876443	1.890996	-5.788622	1.868561	-0.780273	0.308594	0.145264	0.130744	0.065015	0.109463	0.153219	-0.712259	-0.074072	-0.680974	-102.302390	-83.099880	-59.166435
01864		14.571809	8.928656	9.638015	13.116502	-6.816338	3.083931	1.573881	-5.506405	2.297054	-0.769775	0.328613	0.186768	0.141947	0.090149	0.101030	0.160017	-0.728398	-0.073662	-0.662121	-117.966361	-81.170788	-42.954620
01865		18.894762	11.439394	7.622096	13.464472	-10.206105	6.322945	0.953625	-4.895530	3.022529	-0.752686	0.353027	0.219238	0.185245	0.116833	0.081339	0.171624	-0.744642	-0.069697	-0.641245	-125.532814	-78.214767	-34.711725
01866		14.026622	9.286645	3.244025	8.418359	-9.340001	1.821192	-0.293430	-3.986659	3.413230	-0.733643	0.384277	0.244629	0.137972	0.095284	0.035067	0.172736	-0.756772	-0.055993	-0.627952	-128.436223	-75.877582	-32.804912
01867		10.296518	0.583125	10.772345	12.474283	1.574722	-1.794787	-0.555663	-2.957210	2.882009	-0.711426	0.393555	0.270996	0.101257	0.007601	0.109210	0.178816	-0.767177	-0.045886	-0.614295	-129.754910	-73.527646	-31.768090
01868		31.362341	1.474931	15.013585	21.729940	-1.505090	17.329576	0.429664	-0.402722	1.746699	-0.709473	0.402344	0.264160	0.313177	0.017162	0.150802	0.177742	-0.766360	-0.036869	-0.616231	-127.998525	-73.258897	-34.355027
01869		1.613164	10.412397	12.751795	15.156291	-5.889786	-12.849844	0.811803	1.328451	0.864609	-0.716553	0.415527	0.248047	0.016531	0.103676	0.127830	0.183754	-0.761673	-0.034875	-0.620381	-124.513160	-73.309794	-37.508405
01870		-0.442053	12.092841	10.422222	12.922757	-8.101359	-14.548145	-0.056434	1.653956	0.668606	-0.718994	0.417969	0.232422	-0.003963	0.120944	0.104222	0.176887	-0.754015	-0.026338	-0.632043	-120.672469	-74.250575	-42.644885
01871		-1.287081	8.367650	9.290924	10.718517	-4.856123	-14.231387	-0.734360	1.776825	0.362279	-0.718750	0.413574	0.226074	-0.012199	0.083995	0.092712	0.175488	-0.749059	-0.021080	-0.638490	-117.542616	-74.564839	-46.331016
01872		1.178107	5.123143	9.279053	10.282770	-2.656320	-10.781723	-0.871622	2.230321	-0.228682	-0.718750	0.411377	0.210449	0.012872	0.051620	0.092427	0.161076	-0.739515	-0.012239	-0.653469	-112.940906	-76.035035	-52.874489
01873		0.407008	4.653238	9.213155	9.996280	-2.214524	-11.177455	-0.792110	2.862457	-0.815983	-0.729736	0.400146	0.186523	0.005577	0.046876	0.091874	0.155637	-0.730661	-0.010362	-0.664683	-107.641253	-77.043858	-58.789967
01874		-1.183862	3.801358	8.778862	9.233132	-1.575161	-12.088226	-0.755539	3.390227	-1.183843	-0.742920	0.391113	0.162354	-0.010123	0.038409	0.087825	0.138238	-0.716153	-0.004823	-0.684099	-97.676282	-78.864358	-70.656607
01875		-1.951137	2.073229	8.352912	8.500967	0.007190	-12.178957	-0.640054	3.764613	-1.365895	-0.746826	0.375488	0.138672	-0.017792	0.021126	0.083808	0.131337	-0.703537	-0.004922	-0.698399	-86.775996	-79.734619	-82.121349
01876		-1.374095	0.640115	7.990758	8.000812	0.923914	-10.941261	-0.323388	4.083325	-1.461416	-0.753174	0.362305	0.101318	-0.012058	0.006623	0.080155	0.114609	-0.685157	-0.002096	-0.719319	-68.360020	-80.461271	-102.139760
01877		-0.451394	0.724629	7.890812	7.912654	0.602043	-9.710247	0.043464	4.400727	-1.485333	-0.757080	0.349121	0.064209	-0.002723	0.007254	0.078983	0.109431	-0.669103	-0.004820	-0.735053	-53.119576	-79.966801	-117.577057
01878		1.464843	1.554075	7.895115	7.802060	-0.687523	-7.459994	0.282672	4.762454	-1.460138	-0.758789	0.333496	0.026855	0.016635	0.015313	0.078593	0.095268	-0.646675	-0.004751	-0.756778	-35.347666	-78.431049	-136.499531
01879		2.572724	1.410977	7.485305	7.056931	-0.768453	-6.040002	0.376982	5.185985	-1.423124	-0.758545	0.324707	-0.010498	0.027755	0.013777	0.074177	0.091191	-0.626603	-0.008308	-0.773941	-25.295493	-76.269259	-146.577245
01880		1.888346	0.126345	6.614994	5.920777	0.376702	-6.329818	0.524673	5.440983	-1.428495	-0.753418	0.307129	-0.054199	0.020681	0.000947	0.065606	0.077817	-0.600136	-0.009506	-0.796047	-15.644101	-73.127414	-157.198223
01881		1.304798	-0.347808	6.273334	5.502731	0.889133	-6.634996	0.775794	5.329277	-1.463106	-0.743896	0.291748	-0.093506	0.014686	-0.003824	0.062342	0.074544	-0.578318	-0.014907	-0.812262	-10.620608	-70.341404	-162.018267
01882		3.057701	0.201605	6.556229	4.995613	0.176486	-4.580595	0.980483	5.038419	-1.547110	-0.741211	0.276367	-0.135010	0.032228	0.001452	0.064772	0.062392	-0.552126	-0.019284	-0.831199	-5.402062	-66.964124	-167.839933
01883		6.311659	0.838170	7.377757	4.223032	-0.544750	-1.048085	1.028816	4.860018	-1.727395	-0.731445	0.254395	-0.163086	0.064952	0.007452	0.072254	0.058500	-0.531247	-0.026806	-0.844770	-2.224854	-64.250147	-170.680168
01884		9.759804	1.404340	7.830419	2.512495	-1.123070	2.472683	0.979107	4.814665	-1.999006	-0.723877	0.232422	-0.202148	0.099577	0.012679	0.075987	0.044464	-0.505072	-0.033030	-0.861298	1.407503	-60.805904	-174.915377
01885		11.766157	2.332287	7.406038	0.603079	-1.943631	4.135113	0.804160	4.851035	-2.321257	-0.714111	0.208252	-0.239014	0.119671	0.021651	0.071263	0.037283	-0.483430	-0.041265	-0.873615	3.897297	-57.966657	-177.271979
01886		11.946736	1.546900	6.415345	-1.288730	-0.914589	3.742070	0.554720	4.659698	-2.688287	-0.704102	0.181885	-0.269287	0.121111	0.013676	0.061384	0.019071	-0.457274	-0.047819	-0.887834	6.666861	-54.468051	179.026930
01887		13.694369	0.012589	4.984876	-4.229350	0.824903	4.107403	0.430196	4.236144	-3.078238	-0.701416	0.164063	-0.295166	0.137938	-0.002095	0.046931	0.007396	-0.437531	-0.056347	-0.897406	8.809795	-51.824267	176.657818
01888		16.207311	-1.184025	3.592531	-7.664548	2.573283	4.732404	0.377370	3.758396	-3.379041	-0.695557	0.128662	-0.318359	0.162478	-0.014647	0.032848	-0.014011	-0.414993	-0.064061	-0.907458	11.175678	-48.710313	173.159091
01889		19.214749	-1.558319	2.918276	-10.691631	3.656695	6.074331	0.280635	3.334398	-3.410750	-0.681152	0.097900	-0.341553	0.192295	-0.018900	0.025952	-0.027833	-0.398668	-0.072628	-0.913791	12.990196	-46.431880	170.919381
01890		21.954241	-2.619884	2.561844	-13.424333	5.766389	6.976341	0.145974	3.149822	-3.129696	-0.664551	0.073730	-0.369385	0.219463	-0.029651	0.022141	-0.046883	-0.379244	-0.079039	-0.920722	14.508613	-43.704968	168.325374
01891		22.614001	-3.819159	1.956357	-14.752005	7.530818	6.168521	0.113667	3.122164	-2.655074	-0.659424	0.058350	-0.386719	0.225875	-0.041201	0.016013	-0.057647	-0.363762	-0.085314	-0.925784	15.500770	-41.582216	166.957383
01892		22.108849	-3.607220	0.933579	-15.565333	7.659714	4.388604	0.124764	3.084811	-2.088830	-0.640869	0.038574	-0.414795	0.220804	-0.038384	0.005905	-0.068937	-0.345719	-0.089956	-0.931469	16.119892	-39.172046	165.765813
01893		21.368557	-2.974755	-0.514419	-16.371456	7.026617	2.364636	0.080982	2.993893	-1.558170	-0.624756	0.025391	-0.425293	0.213336	-0.031408	-0.008352	-0.074698	-0.331047	-0.094048	-0.935940	16.462390	-37.274153	165.287509
01894		20.718732	-2.068007	-1.922446	-17.186705	6.018097	0.463718	0.080090	2.806010	-1.144768	-0.613037	0.016846	-0.440674	0.206767	-0.021856	-0.022136	-0.078771	-0.315553	-0.096939	-0.940651	16.528859	-35.336638	165.128373
01895		19.802744	-1.271573	-2.908364	-17.384640	5.032855	-1.172995	0.141852	2.551085	-0.896206	-0.599609	0.014893	-0.451660	0.197575	-0.013580	-0.031615	-0.081520	-0.303140	-0.100019	-0.944170	16.661697	-33.788235	165.037697
01896		17.007226	-0.232268	-3.657170	-15.878754	3.311372	-3.522929	0.207256	2.197845	-0.773111	-0.588135	0.010498	-0.464600	0.169646	-0.002940	-0.038440	-0.081594	-0.291698	-0.102761	-0.947468	16.680760	-32.410386	165.276433
01897		12.625041	7.838103	-1.750100	-12.108856	-5.094279	-2.649567	-0.161167	1.527432	-0.564831	-0.581299	0.006104	-0.468994	0.126332	0.078010	-0.018529	-0.083719	-0.284089	-0.103443	-0.949518	16.625491	-31.478221	165.206569
01898		15.585172	-9.005252	-24.743746	-25.770458	8.558560	-23.914108	-1.650870	-1.090645	-0.164354	-0.586182	0.017090	-0.456055	0.157120	-0.092215	-0.245828	-0.084864	-0.288649	-0.095273	-0.948896	15.742630	-32.115377	165.221139
01899		31.677993	-10.095842	-13.110628	-32.007517	15.269888	-5.399654	-0.889949	-3.925104	-1.332834	-0.608643	0.014648	-0.431641	0.318581	-0.103641	-0.124408	-0.094324	-0.306186	-0.091290	-0.942878	16.113673	-34.067552	163.607989
01900		34.842933	-6.853917	14.959059	-17.492670	16.271394	20.418226	-0.865507	-2.823580	-1.236331	-0.622070	0.014404	-0.411621	0.345839	-0.070020	0.154786	-0.095964	-0.320325	-0.088081	-0.938309	16.225472	-35.748078	163.056848
01901		-5.694924	-16.621814	20.397863	19.191595	16.786050	-1.170454	0.004416	-2.034757	0.258815	-0.628662	0.014160	-0.400635	-0.058805	-0.166298	0.203383	-0.095635	-0.329963	-0.086709	-0.935126	16.363997	-36.907745	162.827468
01902		8.783574	0.862413	15.611006	3.352250	2.729794	7.590986	0.887167	-2.737088	0.754411	-0.644287	0.009521	-0.380371	0.085657	0.008254	0.157329	-0.081905	-0.345006	-0.088601	-0.930813	16.529046	-38.884907	164.072382
01903		20.905889	15.231913	10.281628	-10.066737	-9.208659	14.448839	0.127236	-1.953272	0.073607	-0.646484	0.011719	-0.367188	0.207985	0.152329	0.104948	-0.082206	-0.354157	-0.088265	-0.927375	16.832958	-39.968149	163.708799
01904		11.338614	4.766520	7.501953	-3.576749	-1.561045	4.055667	-0.548310	-1.201373	0.060792	-0.653564	0.018311	-0.354248	0.112919	0.047906	0.075568	-0.074873	-0.361178	-0.085596	-0.925536	16.349918	-40.976507	164.604996
01905		10.866116	-2.495647	8.813505	-1.660694	5.508505	3.182541	-0.242388	-0.758615	0.152029	-0.656006	0.020508	-0.363037	0.108345	-0.024767	0.088577	-0.074932	-0.364653	-0.083917	-0.924322	16.244706	-41.417253	164.554005
01906		10.129894	-1.200222	6.714691	-2.599867	3.767946	1.509213	0.073302	-0.429701	-0.019256	-0.662354	0.015869	-0.354004	0.101153	-0.012037	0.067360	-0.066661	-0.368340	-0.084638	-0.923427	16.043889	-41.988941	165.550690
01907		7.795299	1.721874	6.829894	-0.975584	0.507192	0.635751	0.147583	-0.310957	-0.170360	-0.662354	0.015869	-0.349609	0.077861	0.017102	0.068433	-0.067308	-0.369746	-0.085531	-0.922736	16.257829	-42.132066	165.357667
01908		6.969484	3.386003	7.285580	-0.067917	-1.261964	0.747669	0.113192	-0.319770	-0.144913	-0.669189	0.013672	-0.347412	0.069603	0.033768	0.072986	-0.059643	-0.372835	-0.086715	-0.921910	16.123221	-42.617125	166.272420
01909		7.917898	3.343514	7.359584	-0.658659	-1.032169	1.436150	0.053573	-0.332586	-0.090273	-0.671387	0.013672	-0.347412	0.079072	0.033380	0.073736	-0.060104	-0.374338	-0.087033	-0.921241	16.248815	-42.784885	166.132579
01910		6.728166	2.264072	8.085541	0.829694	-0.133195	0.914100	0.052007	-0.328799	-0.101627	-0.684814	0.013428	-0.338623	0.067160	0.022586	0.080972	-0.053238	-0.377370	-0.087847	-0.920348	16.093108	-43.256808	166.962212
01911		7.430256	1.842244	7.681603	0.093298	0.357335	1.025814	0.064343	-0.300293	-0.119396	-0.682617	0.017822	-0.332031	0.074198	0.018353	0.076933	-0.053799	-0.378710	-0.088290	-0.919723	16.237164	-43.402217	166.806082
01912		6.896931	2.448765	7.228726	0.206263	-0.407681	0.463974	0.096782	-0.262201	-0.166330	-0.675781	0.013428	-0.336182	0.068895	0.024395	0.072389	-0.047712	-0.381275	-0.089422	-0.918889	16.147309	-43.801821	167.527595
01913		6.810275	2.170347	7.726537	0.650536	-0.065048	0.692650	0.089177	-0.251107	-0.212401	-0.682617	0.015625	-0.336426	0.068029	0.021597	0.077360	-0.048631	-0.382349	-0.090178	-0.918320	16.349334	-43.905128	167.309811
01914		6.602936	2.717891	7.757042	0.877390	-0.640611	0.674309	0.107072	-0.260078	-0.234356	-0.689209	0.013428	-0.325195	0.065960	0.027060	0.077671	-0.043447	-0.384746	-0.091460	-0.917452	16.322833	-44.268768	167.900359
01915		6.608085	3.524860	7.415420	0.646086	-1.456330	0.605637	0.049471	-0.267570	-0.178233	-0.687012	0.011230	-0.322998	0.066013	0.035171	0.074251	-0.044292	-0.385896	-0.091973	-0.916877	16.489145	-44.386246	167.702967
01916		6.744815	3.477034	7.090132	0.390678	-1.455335	0.462603	-0.023870	-0.264199	-0.102210	-0.693848	0.013184	-0.320801	0.067372	0.034744	0.070986	-0.039477	-0.388219	-0.092372	-0.916076	16.346770	-44.747494	168.297906
01917		6.628433	2.837445	7.114761	0.510993	-0.840215	0.268976	-0.066899	-0.230877	-0.049854	-0.691650	0.013184	-0.318604	0.066209	0.028382	0.071215	-0.039942	-0.389235	-0.092118	-0.915650	16.372637	-44.865655	168.206852
01918		7.118919	2.603326	6.926255	0.091020	-0.597884	0.437363	-0.031178	-0.188488	-0.039589	-0.689209	0.013184	-0.316406	0.071129	0.026030	0.069326	-0.035481	-0.391149	-0.092354	-0.914994	16.207158	-45.173484	168.779338
01919		6.691947	2.514813	7.069068	0.503585	-0.547954	0.213493	0.002960	-0.133020	-0.030347	-0.687012	0.008789	-0.316162	0.066876	0.025137	0.070736	-0.035675	-0.391738	-0.092404	-0.914729	16.247074	-45.241107	168.725514
01920		6.623288	2.736946	7.142280	0.650545	-0.785222	0.253652	0.021151	-0.079807	-0.033964	-0.693848	0.017578	-0.309814	0.066209	0.027351	0.071452	-0.031528	-0.393087	-0.092860	-0.914257	16.109679	-45.472110	169.262277
01921		6.648250	2.729106	7.142576	0.638723	-0.771353	0.270005	0.005230	-0.037260	-0.020448	-0.691650	0.013184	-0.309570	0.066472	0.027282	0.071439	-0.031629	-0.393243	-0.092919	-0.914180	16.130088	-45.488690	169.237881
01922		6.239123	2.856463	7.416442	1.155341	-0.927191	0.182069	-0.022163	-0.008423	0.003522	-0.693848	0.015381	-0.303223	0.062388	0.028574	0.074164	-0.027860	-0.394186	-0.093080	-0.913880	15.954714	-45.667040	169.754009
01923		5.955437	2.298413	7.734865	1.569002	-0.370888	0.085734	-0.032457	0.001747	0.028934	-0.689453	0.017578	-0.303223	0.059552	0.023005	0.077344	-0.027792	-0.394181	-0.092875	-0.913905	15.919447	-45.669974	169.777331
01924		6.205823	1.903692	7.742494	1.416365	0.030396	0.191086	-0.036063	-0.006679	0.032697	-0.687256	0.017822	-0.309814	0.062053	0.019061	0.077424	-0.024382	-0.395010	-0.092868	-0.913645	15.734771	-45.829501	170.256703
01925		6.077790	2.084955	7.871657	1.605121	-0.146942	0.219837	-0.026754	-0.033708	0.007373	-0.694092	0.021973	-0.305664	0.060764	0.020862	0.078724	-0.024417	-0.395159	-0.092728	-0.913594	15.720564	-45.848598	170.255148
01926		6.454894	2.179831	7.636634	1.203519	-0.247503	0.347321	-0.029366	-0.054861	0.000074	-0.687500	0.024414	-0.299072	0.064528	0.021810	0.076381	-0.021500	-0.396071	-0.092765	-0.913269	15.573653	-46.009093	170.657199
01927		6.181702	2.132708	7.533567	1.320427	-0.249683	0.072182	-0.026231	-0.083973	-0.004632	-0.685059	0.020020	-0.298828	0.061786	0.021336	0.075359	-0.021612	-0.396445	-0.092645	-0.913116	15.574573	-46.054104	170.635041
01928		7.017429	2.137824	7.023578	0.404160	-0.258115	0.332029	-0.044534	-0.098449	0.030259	-0.683105	0.028809	-0.299072	0.070136	0.021404	0.070266	-0.018929	-0.397468	-0.092515	-0.912744	15.418485	-46.225721	171.010537
01929		6.091842	2.504122	7.598521	1.479448	-0.634409	0.113412	-0.044871	-0.098291	0.022148	-0.678467	0.026611	-0.301270	0.060878	0.025065	0.076010	-0.018963	-0.397918	-0.092257	-0.912574	15.395525	-46.282775	171.006728
01930		6.721799	3.116820	7.405268	0.962337	-1.218197	0.547092	-0.071917	-0.099272	0.065803	-0.680908	0.033447	-0.303711	0.067171	0.031217	0.074075	-0.016485	-0.398884	-0.091907	-0.912235	15.214905	-46.445701	171.369632
01931		6.369853	3.453354	7.171650	1.054605	-1.634915	0.194714	-0.116733	-0.070045	0.129784	-0.683105	0.026611	-0.305664	0.063651	0.034617	0.071719	-0.016158	-0.399248	-0.091110	-0.912162	15.083385	-46.503274	171.458768
01932		6.715303	2.768210	7.023717	0.703397	-0.980268	0.219020	-0.155762	-0.027336	0.176285	-0.676758	0.037842	-0.297119	0.067119	0.027796	0.070225	-0.013746	-0.399868	-0.090145	-0.912025	14.799748	-46.627260	171.866006
01933		6.508420	2.665900	7.331457	1.066069	-0.875842	0.252757	-0.150279	0.017909	0.175122	-0.676758	0.037842	-0.301758	0.065067	0.026771	0.073289	-0.013240	-0.399850	-0.089111	-0.912142	14.608019	-46.642215	172.011281
01934		7.069377	2.829797	6.961963	0.433735	-1.075232	0.439554	-0.169529	0.063078	0.203700	-0.672363	0.042236	-0.306152	0.070687	0.028429	0.069573	-0.011007	-0.400013	-0.088016	-0.912207	14.300603	-46.706576	172.416625
01935		6.931415	2.210284	7.136617	0.617304	-0.479460	0.348521	-0.182500	0.106218	0.211419	-0.670166	0.042480	-0.308594	0.069329	0.022241	0.071309	-0.010361	-0.399606	-0.086766	-0.912513	14.055516	-46.676662	172.609717
01936		6.700094	2.208863	7.375446	0.949898	-0.498391	0.337030	-0.173335	0.135241	0.215633	-0.668213	0.049072	-0.315430	0.067027	0.022225	0.073690	-0.008302	-0.399407	-0.085620	-0.912729	13.740886	-46.692199	173.003584
01937		7.205388	1.898607	7.316327	0.533860	-0.188224	0.614701	-0.163442	0.147440	0.226999	-0.666016	0.051270	-0.308838	0.072086	0.019128	0.073095	-0.007530	-0.398820	-0.084426	-0.913104	13.492065	-46.640143	173.216899
01938		7.180040	2.004629	7.208213	0.472538	-0.347451	0.540367	-0.141526	0.186348	0.238311	-0.668457	0.055664	-0.317871	0.071844	0.020183	0.072001	-0.005459	-0.398349	-0.083363	-0.913422	13.182855	-46.619665	173.614585
01939		6.800316	2.557733	7.357203	0.853149	-0.927857	0.450151	-0.138198	0.232745	0.229818	-0.666260	0.058105	-0.322266	0.068059	0.025706	0.073475	-0.004587	-0.397372	-0.082280	-0.913950	12.936230	-46.518949	173.845131
01940		6.809121	2.127997	7.341035	0.797165	-0.539354	0.378328	-0.143255	0.260567	0.240082	-0.666260	0.060303	-0.333496	0.068161	0.021414	0.073306	-0.002679	-0.396522	-0.081193	-0.914424	12.626326	-46.447461	174.228515
01941		5.968521	2.061655	7.452140	1.426969	-0.542208	-0.165007	-0.127732	0.270213	0.221169	-0.664063	0.062500	-0.331299	0.059763	0.020730	0.074427	-0.001811	-0.395369	-0.080174	-0.915015	12.387991	-46.323197	174.456594
01942		5.502690	2.770247	8.242019	2.347930	-1.184063	0.135674	-0.119385	0.222695	0.223218	-0.666748	0.073486	-0.331787	0.055088	0.027813	0.082342	-0.000127	-0.394625	-0.079211	-0.915422	12.116472	-46.259322	174.792722
01943		6.190736	2.316320	7.876348	1.565488	-0.772712	0.320401	-0.170621	0.172972	0.259531	-0.662109	0.066895	-0.340332	0.061945	0.023311	0.078690	0.000793	-0.393931	-0.077918	-0.915831	11.845303	-46.192687	175.032843
01944		6.317526	1.904368	7.626607	1.262863	-0.427295	0.183582	-0.159998	0.145757	0.263535	-0.659912	0.073730	-0.338379	0.063206	0.019188	0.076205	0.002307	-0.393466	-0.076671	-0.916134	11.548673	-46.160925	175.353665
01945		6.484252	1.837683	7.527994	1.061377	-0.395600	0.227741	-0.151446	0.139298	0.257565	-0.660400	0.082520	-0.345459	0.064871	0.018517	0.075221	0.003243	-0.392923	-0.075469	-0.916464	11.294840	-46.111364	175.585341
01946		6.438395	1.480211	7.674514	1.165777	-0.054036	0.246144	-0.133316	0.142926	0.226208	-0.662842	0.089111	-0.350098	0.064422	0.014926	0.076689	0.004513	-0.392402	-0.074406	-0.916768	11.041914	-46.067321	175.857457
01947		7.103976	1.155820	7.093917	0.254800	0.193802	0.287982	-0.123116	0.131871	0.207422	-0.660645	0.089355	-0.354492	0.071074	0.011676	0.070885	0.005271	-0.391873	-0.073431	-0.917069	10.835392	-46.015136	176.046327
01948		5.977604	1.874463	7.729867	1.531955	-0.506650	0.005285	-0.097620	0.103928	0.182039	-0.660400	0.087158	-0.356689	0.059799	0.018837	0.077258	0.006354	-0.391480	-0.072611	-0.917295	10.634697	-45.982513	176.270808
01949		6.515853	2.219270	7.749691	1.192384	-0.842240	0.449282	-0.117006	0.035711	0.219258	-0.667480	0.093750	-0.359131	0.065148	0.022309	0.077472	0.007143	-0.391394	-0.071644	-0.917402	10.435854	-45.984814	176.454048
01950		6.274667	2.255426	7.726281	1.346914	-0.917728	0.261902	-0.123987	-0.002431	0.237041	-0.669678	0.095703	-0.359131	0.062719	0.022676	0.077250	0.008245	-0.391456	-0.070592	-0.917448	10.206707	-46.008715	176.687032
01951		6.363725	2.071914	7.730252	1.280036	-0.758302	0.303292	-0.144024	-0.028902	0.260493	-0.665527	0.100342	-0.361572	0.063599	0.020858	0.077297	0.009148	-0.391682	-0.069423	-0.917432	9.974768	-46.050615	176.894606
01952		5.572145	2.325720	7.944072	2.006078	-1.039363	-0.093564	-0.154556	-0.048720	0.274116	-0.674561	0.102539	-0.366211	0.055670	0.023395	0.079436	0.010199	-0.391923	-0.068157	-0.917413	9.718568	-46.095816	177.130883
01953		5.648599	1.837988	8.158242	2.082277	-0.553881	0.046269	-0.165895	-0.096054	0.289748	-0.669922	0.102539	-0.366211	0.056420	0.018529	0.081594	0.011170	-0.392465	-0.066833	-0.917267	9.462636	-46.177185	177.353982
01954		6.167199	1.883619	8.009991	1.632444	-0.633033	0.320259	-0.163820	-0.142085	0.301743	-0.670410	0.111328	-0.366455	0.061586	0.018995	0.080128	0.012156	-0.393070	-0.065467	-0.917095	9.199494	-46.265927	177.581759
01955		5.746756	2.308306	8.077136	2.022799	-1.089645	0.102676	-0.173777	-0.181734	0.339020	-0.674805	0.111328	-0.364258	0.057355	0.023251	0.080803	0.013310	-0.394019	-0.064014	-0.916774	8.916044	-46.398774	177.835925
01956		6.311349	1.781803	7.968825	1.537187	-0.602460	0.374757	-0.194265	-0.243032	0.380584	-0.681641	0.115723	-0.368896	0.062982	0.018015	0.079747	0.014436	-0.395052	-0.062356	-0.916426	8.602337	-46.541540	178.099763
01957		6.579726	1.737835	8.031941	1.426691	-0.584036	0.601157	-0.187000	-0.277167	0.406162	-0.677490	0.120117	-0.364502	0.065650	0.017587	0.080394	0.015842	-0.396457	-0.060716	-0.915906	8.276041	-46.732213	178.401163
01958		6.381443	1.884626	8.134022	1.676464	-0.761439	0.533634	-0.197886	-0.293307	0.425664	-0.686768	0.128906	-0.366943	0.063655	0.019062	0.081415	0.017074	-0.397686	-0.058953	-0.915466	7.937597	-46.898984	178.689407
01959		6.139544	1.826834	8.304133	1.998788	-0.729920	0.456768	-0.211929	-0.334260	0.456767	-0.684326	0.124512	-0.371338	0.061214	0.018496	0.083124	0.018645	-0.399363	-0.057102	-0.914823	7.565604	-47.123477	179.031909
01960		6.236352	2.799933	8.493356	2.184913	-1.719825	0.729452	-0.253340	-0.395367	0.521901	-0.688965	0.133301	-0.362793	0.062122	0.028269	0.085021	0.020089	-0.401032	-0.054899	-0.914197	7.143942	-47.345321	179.382436
01961		6.395017	2.085473	8.542681	2.108222	-1.060407	0.801133	-0.321534	-0.446371	0.582693	-0.696045	0.139893	-0.360840	0.063698	0.021178	0.085535	0.021985	-0.403257	-0.052305	-0.913326	6.631491	-47.638684	179.827638
01962		6.478921	1.888217	8.704968	2.204879	-0.908233	0.940504	-0.342532	-0.534909	0.595336	-0.698486	0.146484	-0.356689	0.064499	0.019224	0.087190	0.023385	-0.405525	-0.049555	-0.912440	6.123078	-47.932234	-179.787659
01963		6.760940	1.438704	8.896098	2.193263	-0.508469	1.225918	-0.367031	-0.675064	0.623272	-0.712158	0.153076	-0.350098	0.067263	0.014761	0.089162	0.025317	-0.408793	-0.046695	-0.911080	5.560133	-48.352765	-179.314221
01964		6.950011	0.936756	9.539306	2.589624	-0.009655	1.740267	-0.311805	-0.922509	0.636663	-0.710205	0.157471	-0.348145	0.069029	0.009737	0.095697	0.026805	-0.412755	-0.044038	-0.909382	5.054543	-48.856607	-178.920345
01965		6.082818	1.237372	10.901080	4.338940	-0.217715	1.955449	-0.232210	-1.253684	0.594560	-0.721436	0.161621	-0.330566	0.060106	0.012680	0.109374	0.028752	-0.418603	-0.041922	-0.906746	4.597878	-49.600430	-178.493071
01966		6.326324	1.786273	10.583608	4.152329	-0.849947	1.903010	-0.202587	-1.658700	0.630319	-0.728760	0.172607	-0.322021	0.062326	0.018168	0.106337	0.030266	-0.425748	-0.039855	-0.903457	4.169689	-50.507037	-178.130126
01967		6.084849	2.175598	10.838093	4.761672	-1.254563	1.804932	-0.188222	-2.064116	0.721865	-0.737793	0.174805	-0.304443	0.059647	0.022075	0.108980	0.032713	-0.435214	-0.037778	-0.898939	3.650198	-51.714532	-177.601328
01968		5.711615	2.247539	11.219690	5.550607	-1.326845	1.631807	-0.150126	-2.469240	0.829968	-0.746826	0.178955	-0.282471	0.055631	0.022793	0.112873	0.034966	-0.445821	-0.035610	-0.893730	3.098271	-53.070691	-177.066396
01969		6.331057	2.029391	11.214282	5.479210	-1.170977	1.958244	-0.086249	-2.902650	0.951477	-0.760742	0.189941	-0.260742	0.061577	0.020638	0.113036	0.038505	-0.458919	-0.033607	-0.887007	2.411350	-54.757466	-176.277660
01970		5.734079	2.251666	11.348373	6.307280	-1.396718	1.366989	-0.042449	-3.399099	1.058261	-0.767822	0.203125	-0.229980	0.055281	0.022837	0.114430	0.041715	-0.473337	-0.031519	-0.879329	1.660405	-56.622769	-175.462379
01971		6.386685	1.947927	11.820127	6.746122	-1.097390	1.915905	0.150172	-3.919535	1.143063	-0.770264	0.209717	-0.192627	0.061422	0.019746	0.119436	0.046469	-0.490613	-0.030285	-0.869610	0.784451	-58.881401	-174.325170
01972		6.001034	2.917899	12.004495	7.677792	-2.028284	1.391739	0.245359	-4.397653	1.244943	-0.788330	0.213623	-0.159424	0.057169	0.029392	0.121359	0.050884	-0.508823	-0.029149	-0.858871	-0.204076	-61.281857	-173.097979
01973		6.514577	1.699077	11.428100	7.332198	-0.886865	1.202823	0.410101	-4.997233	1.421188	-0.793457	0.229004	-0.117920	0.062141	0.017203	0.115894	0.057284	-0.530206	-0.028556	-0.845449	-1.636360	-64.131286	-171.222432
01974		7.907366	2.269632	11.416107	7.389688	-1.507583	2.064590	0.798635	-5.569369	1.571465	-0.796143	0.239990	-0.071777	0.075674	0.022838	0.116391	0.064179	-0.552466	-0.029131	-0.830551	-3.323623	-67.137571	-168.956733
01975		11.739959	5.473526	11.462337	7.246527	-4.905517	5.103713	0.885631	-5.865469	1.827454	-0.794189	0.253174	-0.025635	0.113464	0.055266	0.118234	0.073328	-0.576530	-0.029629	-0.813239	-6.222880	-70.400321	-165.303477
01976		12.601804	2.396982	10.384228	6.399004	-2.062568	5.256893	0.884736	-5.975293	2.028987	-0.796875	0.268555	0.024902	0.122591	0.024755	0.107648	0.081918	-0.599373	-0.029252	-0.795730	-10.457956	-73.469851	-160.429956
01977		10.651687	3.834550	9.964624	7.661077	-3.309138	2.746498	1.328932	-6.059488	2.131442	-0.788574	0.284180	0.079590	0.103017	0.038779	0.103060	0.093448	-0.622917	-0.030618	-0.776083	-17.235971	-76.554764	-152.628370
01978		14.368606	8.380712	10.339861	8.986188	-8.037780	5.618306	1.484525	-5.796327	2.404179	-0.778076	0.308594	0.109863	0.139583	0.084711	0.108111	0.105016	-0.643580	-0.031208	-0.757497	-27.386496	-78.984421	-141.506898
01979		17.533921	10.852030	7.544783	7.397686	-11.384765	7.440130	0.687961	-4.990869	2.822933	-0.767578	0.330811	0.151123	0.171826	0.110692	0.080144	0.117097	-0.662286	-0.027337	-0.739539	-43.400145	-80.392861	-124.834625
01980		15.225830	4.556347	3.572121	3.230212	-5.939784	5.005632	-0.226796	-3.774002	2.828104	-0.752686	0.353271	0.181396	0.150884	0.047746	0.038524	0.124141	-0.675356	-0.018740	-0.726727	-58.197691	-80.488264	-110.164863
01981		14.028886	-0.843168	13.814770	12.706265	1.292635	5.194951	0.525004	-2.290392	1.929902	-0.748535	0.364258	0.185547	0.138770	-0.007453	0.139722	0.132697	-0.683450	-0.015550	-0.717667	-67.677906	-80.098895	-100.242523
01982		18.284937	7.309244	14.011744	14.591170	-7.321875	8.008105	1.161723	0.267606	0.966225	-0.744629	0.377686	0.171875	0.182684	0.073161	0.140298	0.137971	-0.680459	-0.015645	-0.719510	-66.033202	-79.580961	-101.442979
01983		-0.121036	13.343123	10.852249	13.548956	-10.488424	-11.310211	0.603880	1.071773	0.557414	-0.746826	0.379883	0.165039	-0.000999	0.133100	0.108930	0.142111	-0.676209	-0.015181	-0.722714	-63.462925	-79.029780	-103.706520
01984		-1.935785	8.175079	8.781553	10.458624	-5.684564	-12.261617	-0.351556	1.199405	0.383172	-0.749268	0.382080	0.156006	-0.018988	0.081869	0.087786	0.139623	-0.670581	-0.011062	-0.728495	-59.602260	-78.555749	-108.103263
01985		-1.056845	3.091876	8.037209	8.568582	-1.161682	-10.521365	-0.372349	1.262299	-0.150177	-0.751465	0.379883	0.145020	-0.010038	0.031076	0.080379	0.137893	-0.666214	-0.009328	-0.732842	-56.597645	-78.246121	-111.388228
01986		-0.469776	2.827453	8.339059	8.754412	-1.048478	-9.694261	0.025102	1.607390	-0.767748	-0.762451	0.371094	0.127686	-0.003919	0.028280	0.083428	0.132330	-0.658520	-0.010191	-0.740767	-50.228564	-78.046906	-118.140129
01987		-1.154171	4.229412	8.474568	9.246710	-2.282194	-10.381995	0.143761	2.054227	-1.118194	-0.764404	0.364258	0.112305	-0.010434	0.042294	0.084887	0.128756	-0.650708	-0.013045	-0.748219	-44.090860	-77.715354	-124.333145
01988		-1.474620	3.532101	8.439087	9.104029	-1.653847	-10.306973	0.043605	2.513670	-1.211911	-0.772949	0.353271	0.090576	-0.013470	0.035387	0.084573	0.121598	-0.639248	-0.014930	-0.759179	-36.074151	-76.966530	-132.773646
01989		-1.016501	1.226561	8.366801	8.490082	0.448844	-9.310374	0.111130	2.958426	-1.204868	-0.770264	0.342285	0.066650	-0.008852	0.012275	0.083812	0.117584	-0.627772	-0.017403	-0.769268	-29.780032	-75.916597	-139.182001
01990		-0.058289	-0.549375	8.334796	7.883024	1.955341	-7.862865	0.491660	3.471396	-1.205350	-0.770020	0.331055	0.031494	0.000830	-0.005701	0.083328	0.111907	-0.611865	-0.020547	-0.782737	-22.706357	-74.250210	-146.442713
01991		0.579776	-0.565537	8.189085	7.501411	1.864117	-6.991021	0.956177	3.986165	-1.193572	-0.771973	0.320068	-0.008057	0.007392	-0.006087	0.081726	0.110543	-0.595460	-0.025706	-0.795328	-17.404273	-72.336545	-151.405362
01992		0.931265	-0.137120	7.701291	6.882206	1.325109	-6.486350	1.294919	4.420479	-1.157255	-0.773682	0.309082	-0.049805	0.011001	-0.001929	0.076771	0.107669	-0.574651	-0.031537	-0.810672	-12.139700	-69.800890	-156.383999
01993		0.380254	0.179051	7.043520	6.358409	1.033543	-6.935180	1.486983	4.687499	-1.125418	-0.764160	0.293701	-0.093506	0.005460	0.001240	0.070331	0.108083	-0.554483	-0.038264	-0.824259	-8.450882	-67.271592	-159.431124
01994		0.076161	0.029260	6.544044	5.824521	1.166853	-7.067552	1.602719	4.694575	-1.076663	-0.750488	0.287354	-0.128906	0.002297	-0.000241	0.065398	0.106423	-0.531581	-0.045151	-0.839081	-4.958714	-64.381012	-162.420469
01995		1.301231	-0.285493	6.476578	5.011066	1.367679	-5.722342	1.719324	4.481507	-1.076500	-0.747559	0.265381	-0.170166	0.014441	-0.003485	0.064425	0.107455	-0.511452	-0.052828	-0.850929	-2.431515	-61.856796	-164.148627
01996		4.234101	-0.269237	7.094538	3.900527	1.176450	-2.620936	1.815696	4.299207	-1.152029	-0.733887	0.256836	-0.203125	0.043833	-0.003580	0.069984	0.105906	-0.489368	-0.061151	-0.863460	0.217352	-59.098506	-166.138058
01997		6.746796	-0.845023	7.384208	2.346116	1.598067	-0.185532	1.905851	4.223872	-1.390465	-0.724121	0.237061	-0.235596	0.068942	-0.009620	0.072308	0.105825	-0.469545	-0.070527	-0.873702	2.487966	-56.658667	-167.529050
01998		7.845342	-0.465929	7.457919	1.377171	1.269497	0.857660	1.946602	4.050720	-1.680666	-0.712402	0.221680	-0.266113	0.079895	-0.006042	0.072916	0.102191	-0.447734	-0.080883	-0.884618	5.031503	-53.967030	-169.383864
01999		9.650776	0.934349	7.316554	0.070740	-0.136441	2.331987	1.836279	3.790183	-1.887046	-0.704590	0.192871	-0.287354	0.097950	0.007763	0.071394	0.099460	-0.429138	-0.091271	-0.893094	7.197132	-51.690890	-170.780635
02000		12.434480	1.390187	7.301177	-2.159737	-0.624244	4.497089	1.554462	3.513389	-2.028162	-0.694824	0.170898	-0.315430	0.125731	0.012075	0.070910	0.093113	-0.409376	-0.100900	-0.901976	9.321382	-49.225385	-172.489816
02001		15.238788	0.386789	6.674433	-5.272229	0.176184	5.968664	1.276602	3.323750	-2.175313	-0.689941	0.155518	-0.336914	0.153496	0.001787	0.064215	0.087571	-0.392593	-0.109541	-0.908957	11.047937	-47.128824	-173.824608
02002		16.416557	-0.861886	5.742509	-7.690112	1.346140	5.751100	1.070890	3.140931	-2.301039	-0.675537	0.129150	-0.358154	0.164924	-0.010812	0.054785	0.078746	-0.374431	-0.117632	-0.916386	12.754406	-44.811178	-175.453722
02003		17.254275	-2.108650	5.040058	-9.583966	2.579447	5.320476	0.929965	2.889156	-2.337693	-0.674805	0.111328	-0.373047	0.172982	-0.023333	0.047799	0.071459	-0.359370	-0.125112	-0.922006	14.168714	-42.887595	-176.725625
02004		18.576984	-2.738053	4.902047	-11.333838	3.427113	5.562276	0.840086	2.689454	-2.255967	-0.665039	0.087158	-0.385498	0.186079	-0.029677	0.046398	0.062284	-0.343416	-0.132140	-0.927753	15.513163	-40.818962	-178.121253
02005		19.429947	-2.406246	4.630849	-12.550123	3.286538	5.562995	0.696627	2.611228	-2.074558	-0.655273	0.067383	-0.413574	0.194617	-0.026235	0.043680	0.055572	-0.329651	-0.138103	-0.932293	16.523349	-39.051005	-179.072742
02006		18.727753	-1.905847	3.653234	-12.967767	2.802846	4.031340	0.422959	2.580031	-1.829173	-0.643799	0.058594	-0.428711	0.187542	-0.020847	0.034071	0.047958	-0.314747	-0.142434	-0.937202	17.277569	-37.129935	-179.983421
02007		16.449506	-3.279752	1.917541	-12.730176	3.765834	0.616240	0.223245	2.330523	-1.583997	-0.631836	0.041016	-0.439209	0.164437	-0.034120	0.017221	0.042540	-0.302597	-0.145402	-0.941001	17.746924	-35.581477	179.440926
02008		16.160212	-2.649687	0.816465	-13.249254	2.983187	-0.626527	0.237741	1.910242	-1.333899	-0.631592	0.030029	-0.449951	0.161489	-0.027583	0.006589	0.036993	-0.291429	-0.148237	-0.944313	18.194483	-34.150474	178.855160
02009		16.903586	-0.175872	0.696507	-13.728758	0.705308	0.049459	0.119288	1.608016	-1.101468	-0.617920	0.023438	-0.460693	0.169071	-0.002693	0.005604	0.033155	-0.282968	-0.150103	-0.946731	18.468527	-33.075418	178.483901
02010		16.422216	0.883532	0.666244	-13.372151	-0.218708	-0.218677	-0.179540	1.410795	-0.910282	-0.610840	0.014648	-0.471436	0.164302	0.008093	0.005496	0.028843	-0.274846	-0.150382	-0.949217	18.546489	-32.035944	178.113469
02011		15.064441	-0.278819	0.355787	-12.674243	0.822454	-1.699431	-0.330958	1.209373	-0.791655	-0.604004	0.012451	-0.471436	0.150650	-0.003380	0.002652	0.025538	-0.268534	-0.149723	-0.951220	18.486356	-31.232819	177.866901
02012		13.126539	0.066440	0.406050	-11.050630	0.514813	-2.735136	-0.293520	0.976185	-0.733942	-0.604004	0.010254	-0.486816	0.131284	0.000188	0.003419	0.021823	-0.262913	-0.149288	-0.952950	18.476547	-30.504216	177.544969
02013		11.501317	0.499403	0.688771	-9.529314	0.174640	-3.319255	-0.306873	0.746867	-0.668524	-0.594971	0.008301	-0.489014	0.115054	0.004620	0.006451	0.018790	-0.258868	-0.148623	-0.954225	18.433665	-29.974996	177.281335
02014		9.292723	0.108361	0.561956	-7.770318	0.470778	-4.705598	-0.263256	0.420952	-0.611118	-0.594971	0.008301	-0.480225	0.092942	0.000807	0.005423	0.015455	-0.256213	-0.148228	-0.955063	18.453177	-29.602528	176.938656
02015		7.885475	0.299120	0.548199	-6.551128	0.259473	-5.387083	-0.131172	-0.038200	-0.518220	-0.596924	0.003906	-0.484375	0.078861	0.002790	0.005495	0.012783	-0.256003	-0.148270	-0.955152	18.541804	-29.527022	176.607070
02016		7.695172	10.618942	2.673927	-4.336844	-8.970732	-0.877073	-0.631910	-0.680636	-0.309774	-0.604004	0.012451	-0.478027	0.077025	0.106154	0.026666	0.009710	-0.259010	-0.145798	-0.954758	18.368328	-29.829095	176.233604
02017		12.652979	2.610804	-5.633670	-13.479992	-3.305900	-7.361275	-2.683976	-1.904330	0.487050	-0.611328	0.030273	-0.460938	0.126998	0.025669	-0.055475	0.007168	-0.268533	-0.132430	-0.954097	16.868308	-30.951382	176.159176
02018		16.445626	-13.581252	0.672078	-14.682693	14.298522	-3.872543	-2.329389	-2.589926	0.247099	-0.627441	0.041016	-0.437012	0.164505	-0.135502	0.010430	0.003150	-0.281249	-0.121268	-0.951936	15.749456	-32.427144	175.772870
02019		19.991247	-7.411493	12.574303	-10.390990	11.403537	9.543229	-1.104600	-2.074156	-0.636462	-0.634277	0.043213	-0.426025	0.198356	-0.074044	0.128215	-0.002693	-0.290715	-0.116933	-0.949634	15.552138	-33.471062	174.972373
02020		9.131179	-9.533021	16.000933	0.839241	13.409261	5.991191	-0.886220	-1.624396	0.140205	-0.639404	0.058594	-0.419922	0.090072	-0.094554	0.161164	-0.004080	-0.298856	-0.112537	-0.947631	15.162910	-34.436500	174.782724
02021		11.316900	-7.272449	14.859260	-1.173875	11.075778	6.851716	0.220908	-1.487040	0.339756	-0.648193	0.056152	-0.406494	0.112184	-0.072698	0.149349	-0.002979	-0.306072	-0.113046	-0.945268	15.314862	-35.307677	174.738665
02022		9.283668	7.312217	9.962707	-1.204779	-4.319287	4.979209	0.100832	-1.231920	0.077968	-0.650391	0.058350	-0.393311	0.092192	0.073108	0.100233	-0.002638	-0.312257	-0.113249	-0.943220	15.442337	-36.047559	174.627528
02023		7.366201	6.867159	7.876617	-0.771979	-4.472867	2.139555	-0.376910	-1.303655	-0.043214	-0.657471	0.064941	-0.384766	0.073162	0.068805	0.079115	-0.004171	-0.318352	-0.111523	-0.941381	15.390580	-36.759017	174.351158
02024		11.923584	0.861246	7.579105	-4.822379	1.647499	3.392799	-0.542491	-1.047490	0.102692	-0.655273	0.067139	-0.371338	0.118832	0.008880	0.076390	-0.004753	-0.323661	-0.108726	-0.939893	15.138130	-37.400366	174.269919
02025		8.867213	-4.596603	8.048596	-2.351752	6.802646	0.804700	-0.200195	-0.560691	0.116947	-0.657471	0.062744	-0.366943	0.088473	-0.045833	0.080780	-0.004834	-0.326337	-0.107585	-0.939099	15.038175	-37.725980	174.246017
02026		7.276054	1.161235	8.418808	-0.454691	1.114600	1.310105	0.116256	-0.380683	0.085537	-0.659668	0.062744	-0.362549	0.072595	0.011594	0.084333	-0.003955	-0.328558	-0.107876	-0.938295	15.082471	-38.003925	174.296568
02027		7.637434	5.285321	6.949414	-1.346371	-3.178137	1.261878	0.037668	-0.235906	0.138971	-0.666748	0.073730	-0.362793	0.076256	0.052893	0.069594	-0.003370	-0.329724	-0.107822	-0.937894	15.071543	-38.153164	174.349557
02028		7.801973	4.671548	7.316378	-1.249436	-2.513786	1.516180	-0.135499	-0.151400	0.199129	-0.666748	0.075928	-0.360596	0.077918	0.046843	0.073191	-0.002295	-0.330926	-0.106769	-0.937594	14.899652	-38.320386	174.516712
02029		7.179804	3.013207	7.682464	-0.627173	-0.893484	1.071131	-0.167858	-0.136837	0.206977	-0.660156	0.080322	-0.352051	0.071714	0.030271	0.076848	-0.001677	-0.331659	-0.105641	-0.937464	14.728750	-38.424542	174.637355
02030		7.413186	1.733910	7.539378	-0.956080	0.315532	0.854564	-0.170064	-0.156372	0.185241	-0.660400	0.084717	-0.349854	0.074057	0.017472	0.075437	-0.000784	-0.332879	-0.104476	-0.937164	14.548749	-38.591264	174.786391
02031		7.121022	2.323546	7.329742	-0.801440	-0.345793	0.631019	-0.145402	-0.153504	0.150789	-0.657959	0.080322	-0.349854	0.071136	0.023342	0.073335	-0.000401	-0.333660	-0.103546	-0.936989	14.416325	-38.696087	174.865297
02032		6.914038	2.182798	7.517025	-0.506392	-0.211811	0.616733	-0.182983	-0.148342	0.148019	-0.656250	0.091553	-0.350098	0.069068	0.021948	0.075201	0.000284	-0.334821	-0.102387	-0.936703	14.244349	-38.852185	174.988509
02033		6.599002	1.855355	7.878269	-0.040864	0.134892	0.629361	-0.171684	-0.167031	0.118741	-0.660645	0.091553	-0.350098	0.065913	0.018660	0.078822	0.000466	-0.335648	-0.101387	-0.936515	14.111848	-38.959718	175.043108
02034		6.045487	2.172390	8.165519	0.618495	-0.180484	0.556869	-0.167812	-0.190916	0.089798	-0.651611	0.087158	-0.347656	0.060367	0.021820	0.081695	0.000861	-0.336965	-0.100398	-0.936148	13.979495	-39.129226	175.115568
02035		6.382271	2.008224	7.990064	0.256188	-0.048474	0.605538	-0.178586	-0.203611	0.069319	-0.658447	0.095947	-0.343750	0.063734	0.020176	0.079948	0.000780	-0.337938	-0.099449	-0.935899	13.868815	-39.250121	175.129038
02036		6.409850	1.878229	7.728558	0.089105	0.012526	0.401831	-0.177020	-0.200328	0.040876	-0.654053	0.093750	-0.334717	0.064017	0.018864	0.077333	0.000898	-0.339249	-0.098502	-0.935525	13.754842	-39.414691	175.162327
02037		6.660717	2.137708	7.493561	-0.217416	-0.283575	0.432344	-0.168283	-0.176220	0.032926	-0.651855	0.095947	-0.341553	0.066538	0.021451	0.074976	0.000678	-0.340075	-0.097662	-0.935313	13.663216	-39.515379	175.155019
02038		6.244506	3.022826	7.488836	0.182440	-1.197217	0.323749	-0.166058	-0.136162	0.053031	-0.651855	0.100342	-0.341553	0.062386	0.030307	0.074906	0.000881	-0.341077	-0.096749	-0.935043	13.543523	-39.643811	175.206272
02039		6.959259	2.800643	7.091833	-0.622952	-1.023434	0.440773	-0.185305	-0.104081	0.112165	-0.645264	0.104980	-0.339600	0.069540	0.028111	0.070929	0.001037	-0.341603	-0.095694	-0.934959	13.397210	-39.714922	175.269369
02040		6.314010	2.365672	7.550603	0.152744	-0.578733	0.292580	-0.183522	-0.073128	0.134772	-0.654297	0.104736	-0.339600	0.063097	0.023769	0.075507	0.001591	-0.342339	-0.094578	-0.934803	13.225988	-39.817148	175.386469
02041		6.473100	2.458436	7.880936	0.257680	-0.625370	0.656149	-0.201834	-0.089106	0.153619	-0.645508	0.109375	-0.337402	0.064677	0.024714	0.078813	0.001919	-0.342814	-0.093374	-0.934749	13.048675	-39.885039	175.482932
02042		6.943871	2.388475	7.441236	-0.368617	-0.635044	0.615874	-0.229628	-0.127914	0.175845	-0.641357	0.116211	-0.333252	0.069370	0.024031	0.074429	0.002535	-0.343808	-0.091981	-0.934521	12.838978	-40.020166	175.618201
02043		6.809115	1.553053	7.459747	-0.295549	0.153200	0.400683	-0.222382	-0.142498	0.176373	-0.638916	0.114014	-0.346436	0.068024	0.015674	0.074629	0.002909	-0.344542	-0.090643	-0.934380	12.643991	-40.120277	175.723387
02044		6.176591	2.030916	7.802141	0.462896	-0.322998	0.327807	-0.215578	-0.149477	0.167719	-0.643555	0.118408	-0.344482	0.061690	0.020445	0.078046	0.003487	-0.345623	-0.089334	-0.934105	12.448243	-40.264688	175.848742
02045		6.206718	2.237506	7.736226	0.426943	-0.563224	0.330260	-0.225261	-0.133894	0.177581	-0.648193	0.122803	-0.346924	0.061995	0.022517	0.077378	0.003865	-0.346317	-0.087980	-0.933975	12.248972	-40.359597	175.957474
02046		6.305912	2.000523	7.709665	0.340419	-0.359692	0.334242	-0.246193	-0.145334	0.187600	-0.644043	0.127197	-0.344727	0.062984	0.020159	0.077118	0.004462	-0.347366	-0.086499	-0.933721	12.025889	-40.500747	176.096811
02047		6.085216	1.654153	7.833595	0.579475	-0.038947	0.226929	-0.230872	-0.128966	0.177895	-0.639404	0.129395	-0.347168	0.060787	0.016686	0.078356	0.004834	-0.348036	-0.085117	-0.933597	11.821564	-40.592331	176.207847
02048		6.233755	1.875556	7.802714	0.482519	-0.284236	0.333547	-0.227261	-0.126930	0.174845	-0.641602	0.127197	-0.346924	0.062272	0.018899	0.078045	0.005394	-0.348972	-0.083748	-0.933368	11.612954	-40.718387	176.340058
02049		6.983487	0.851601	7.363479	-0.426877	0.663687	0.340753	-0.225323	-0.116474	0.161073	-0.644287	0.135986	-0.344971	0.069785	0.008655	0.073666	0.005702	-0.349574	-0.082420	-0.933259	11.417608	-40.800447	176.441730
02050		6.609225	1.084241	7.618862	0.057740	0.432725	0.322097	-0.163886	-0.132704	0.109526	-0.642090	0.136230	-0.354004	0.066036	0.010941	0.076224	0.006056	-0.350495	-0.081457	-0.932996	11.276193	-40.920273	176.525043
02051		6.860366	1.200339	7.372701	-0.269453	0.275069	0.322097	-0.109387	-0.151855	0.094657	-0.639648	0.136230	-0.354004	0.068542	0.012076	0.073772	0.006242	-0.351232	-0.080788	-0.932776	11.182263	-41.014438	176.572918
02052		7.057375	1.626071	7.167782	-0.501689	-0.182124	0.362914	-0.082870	-0.135572	0.095138	-0.642334	0.142822	-0.352051	0.070517	0.016324	0.071719	0.006664	-0.352148	-0.080223	-0.932476	11.093289	-41.132913	176.645436
02053		7.001210	2.186082	7.113442	-0.444370	-0.758477	0.366909	-0.083865	-0.084214	0.118902	-0.639893	0.138428	-0.358398	0.069969	0.021932	0.071155	0.007035	-0.352577	-0.079627	-0.932362	10.995084	-41.191601	176.721832
02054		6.815582	2.435378	7.021774	-0.336043	-1.044226	0.211542	-0.106115	0.005048	0.161445	-0.642334	0.147217	-0.361084	0.068138	0.024446	0.070203	0.007772	-0.352861	-0.078841	-0.932316	10.847790	-41.237516	176.863328
02055		6.876833	2.467246	6.932194	-0.440239	-1.108530	0.187850	-0.128335	0.084680	0.214075	-0.644531	0.142822	-0.360840	0.068771	0.024791	0.069277	0.008575	-0.352542	-0.077864	-0.932512	10.660973	-41.211035	177.035427
02056		6.794220	2.466077	7.081594	-0.281603	-1.116402	0.240481	-0.141229	0.146119	0.279363	-0.646973	0.149414	-0.369873	0.067959	0.024806	0.070749	0.009844	-0.352211	-0.076716	-0.932719	10.425269	-41.188541	177.282639
02057		6.378522	2.216154	7.534431	0.298447	-0.848961	0.264744	-0.168398	0.180474	0.320268	-0.647217	0.158203	-0.368164	0.063817	0.022327	0.075268	0.011108	-0.351487	-0.075360	-0.933089	10.155079	-41.117894	177.546792
02058		7.011237	1.856396	7.387985	-0.307298	-0.531685	0.522143	-0.176192	0.177001	0.335360	-0.647461	0.160645	-0.379150	0.070146	0.018747	0.073801	0.012575	-0.351023	-0.073963	-0.933356	9.872355	-41.080560	177.836876
02059		6.664633	1.482426	7.385621	-0.088190	-0.209394	0.242688	-0.169225	0.161133	0.338010	-0.647217	0.158447	-0.376953	0.066681	0.014999	0.073790	0.013913	-0.350393	-0.072572	-0.933683	9.595829	-41.020644	178.110497
02060		6.508582	0.690289	7.734392	0.190092	0.586738	0.300595	-0.147237	0.136780	0.295066	-0.645264	0.162842	-0.385986	0.065128	0.007056	0.077294	0.015221	-0.350092	-0.071387	-0.933867	9.354567	-40.999412	178.363399
02061		6.573610	0.928136	7.805232	0.197524	0.333973	0.426688	-0.124069	0.084578	0.249594	-0.645264	0.167236	-0.388428	0.065757	0.009412	0.078019	0.016198	-0.349781	-0.070366	-0.934045	9.154334	-40.972932	178.560499
02062		6.487538	0.823002	8.026307	0.399886	0.442187	0.523250	-0.107601	0.030044	0.238097	-0.652344	0.171631	-0.390625	0.064878	0.008350	0.080249	0.017265	-0.349942	-0.069465	-0.934033	8.971225	-41.004123	178.757435
02063		6.323808	1.210693	8.216843	0.681808	0.059715	0.603855	-0.099667	-0.035257	0.223801	-0.659180	0.173828	-0.390869	0.063210	0.012219	0.082174	0.018122	-0.350180	-0.068613	-0.933990	8.806886	-41.042262	178.921003
02064		6.108486	1.549086	8.274829	0.924511	-0.293259	0.543243	-0.111642	-0.099666	0.246933	-0.654785	0.178223	-0.388672	0.061024	0.015612	0.082770	0.019169	-0.350932	-0.067681	-0.933755	8.625701	-41.144751	179.109349
02065		6.670214	1.739244	7.927256	0.307833	-0.549389	0.673561	-0.127082	-0.159616	0.289447	-0.659424	0.180420	-0.386719	0.066614	0.017539	0.079315	0.020241	-0.351774	-0.066597	-0.933494	8.421445	-41.258157	179.309086
02066		6.195783	1.977953	8.071776	0.806673	-0.799374	0.490892	-0.140640	-0.193231	0.327740	-0.668457	0.182617	-0.391113	0.061847	0.019938	0.080764	0.021571	-0.352974	-0.065401	-0.933095	8.189555	-41.417295	179.548071
02067		6.283077	2.097000	8.113450	0.805974	-0.944598	0.587336	-0.182831	-0.223194	0.377536	-0.663818	0.182617	-0.386719	0.062700	0.021163	0.081185	0.022934	-0.354145	-0.063908	-0.932723	7.911474	-41.572608	179.809862
02068		6.851956	1.102078	7.670128	0.035717	-0.056636	0.530911	-0.208145	-0.258288	0.406644	-0.670898	0.191406	-0.389160	0.068398	0.011240	0.076778	0.024478	-0.355659	-0.062275	-0.932217	7.604471	-41.770799	-179.897010
02069		6.572913	1.479697	7.975822	0.514547	-0.430320	0.606345	-0.203674	-0.311081	0.403511	-0.675537	0.195801	-0.391602	0.065575	0.015011	0.079845	0.025898	-0.357246	-0.060648	-0.931679	7.303312	-41.975934	-179.620470
02070		6.884045	1.415855	7.775254	0.189102	-0.436525	0.657397	-0.216354	-0.357213	0.435866	-0.673584	0.202393	-0.387451	0.068670	0.014393	0.077860	0.027525	-0.359216	-0.058939	-0.930985	6.978699	-42.228864	-179.310706
02071		6.760609	1.101532	7.984155	0.437491	-0.139865	0.697051	-0.210079	-0.431296	0.451392	-0.678223	0.204590	-0.385254	0.067409	0.011252	0.079975	0.029120	-0.361371	-0.057211	-0.930210	6.651188	-42.503349	-179.003122
02072		6.913596	0.808032	8.153528	0.470290	0.128392	0.896776	-0.205620	-0.530614	0.450124	-0.685059	0.211182	-0.372314	0.068901	0.008320	0.081710	0.030775	-0.364132	-0.055552	-0.929179	6.329491	-42.852084	-178.691951
02073		6.467315	1.050358	8.503330	1.125102	-0.100609	0.862493	-0.186104	-0.648734	0.439700	-0.691895	0.215576	-0.376953	0.064373	0.010725	0.085233	0.032297	-0.367282	-0.053988	-0.927980	6.026604	-43.247176	-178.404267
02074		6.642121	1.112984	8.598285	1.154915	-0.191536	1.046211	-0.163842	-0.788730	0.466633	-0.696533	0.219971	-0.370361	0.066055	0.011355	0.086235	0.034024	-0.371211	-0.052528	-0.926437	5.724774	-43.739540	-178.092916
02075		6.468087	0.942427	8.694911	1.428010	-0.040885	0.970813	-0.126986	-0.928338	0.480388	-0.696777	0.222168	-0.352783	0.064253	0.009634	0.087242	0.035767	-0.375641	-0.051208	-0.924658	5.437675	-44.294142	-177.784275
02076		6.166727	1.385703	8.994835	2.013714	-0.466748	0.984603	-0.116110	-1.066025	0.500656	-0.710449	0.228516	-0.353027	0.061152	0.014063	0.090267	0.037653	-0.380811	-0.049949	-0.922535	5.145529	-44.941474	-177.455041
02077		6.677191	0.981243	8.491197	1.386809	-0.173341	0.943389	-0.113568	-1.216333	0.536855	-0.715088	0.232910	-0.348633	0.066227	0.010039	0.085310	0.039606	-0.386556	-0.048633	-0.920131	4.832430	-45.660960	-177.105933
02078		6.860393	0.909378	8.260620	1.235336	-0.166216	0.891239	-0.088761	-1.375657	0.548464	-0.721680	0.232910	-0.333252	0.068008	0.009318	0.083071	0.041670	-0.393098	-0.047465	-0.917325	4.524575	-46.481587	-176.742048
02079		6.891087	1.175453	8.298307	1.433955	-0.454774	0.932780	-0.057723	-1.523847	0.587801	-0.728760	0.237061	-0.315674	0.068241	0.011980	0.083501	0.043887	-0.400214	-0.046363	-0.914195	4.203780	-47.376264	-176.348020
02080		7.024703	0.705666	8.303804	1.474890	-0.020615	0.986327	-0.050566	-1.700287	0.633613	-0.733398	0.245850	-0.304688	0.069515	0.007299	0.083629	0.046323	-0.408180	-0.045265	-0.910601	3.852177	-48.380485	-175.906656
02081		7.185905	0.493131	9.234388	2.240575	0.270377	1.678893	-0.018992	-1.954303	0.630659	-0.740234	0.248047	-0.287109	0.070936	0.005165	0.093040	0.048708	-0.417191	-0.044344	-0.906428	3.510228	-49.519599	-175.467507
02082		6.551300	1.411002	10.754347	4.168114	-0.438388	2.145300	-0.033651	-2.319298	0.611361	-0.753906	0.254395	-0.269531	0.064217	0.014326	0.108291	0.050913	-0.427844	-0.043502	-0.901369	3.166272	-50.870292	-175.040461
02083		6.598993	3.191646	11.110554	4.957294	-2.176420	2.346848	-0.133793	-2.759945	0.651664	-0.760742	0.254395	-0.242920	0.064344	0.032203	0.111980	0.052956	-0.440403	-0.042205	-0.895243	2.721212	-52.467216	-174.570711
02084		6.773261	3.194825	10.535522	4.772615	-2.274410	1.982018	-0.061997	-3.218091	0.821868	-0.768066	0.271973	-0.219238	0.065894	0.032254	0.106415	0.055801	-0.454909	-0.040996	-0.887842	2.164763	-54.326099	-173.918296
02085		7.010547	2.943215	11.221802	5.584215	-1.960795	2.381116	0.093803	-3.664931	0.999112	-0.776855	0.269531	-0.183594	0.067885	0.029722	0.113490	0.059686	-0.471262	-0.040157	-0.879055	1.487102	-56.441678	-173.029554
02086		5.854599	3.000043	11.492534	6.927904	-1.892271	1.311634	0.212507	-4.189359	1.234690	-0.784180	0.282715	-0.148682	0.055935	0.030228	0.116147	0.064712	-0.489662	-0.039474	-0.868611	0.575967	-58.843826	-171.803417
02087		7.184433	3.393067	10.982723	6.417532	-2.437489	1.874271	0.148260	-4.737448	1.572160	-0.786865	0.300293	-0.102783	0.068947	0.034398	0.111509	0.070945	-0.510333	-0.037791	-0.856212	-0.925853	-61.554241	-169.975208
02088		8.462824	3.289706	10.818270	6.295697	-2.466028	2.585269	0.294166	-5.183558	1.821062	-0.789551	0.311279	-0.058838	0.081483	0.033487	0.110371	0.078398	-0.532419	-0.036294	-0.842061	-2.973488	-64.468536	-167.486690
02089		9.690165	3.036549	9.823499	5.580282	-2.490597	2.923839	0.259488	-5.617115	2.056856	-0.790039	0.326660	-0.019531	0.093774	0.031211	0.100938	0.086691	-0.556087	-0.034098	-0.825887	-6.035257	-67.584321	-163.974423
02090		13.191221	2.576706	9.981717	5.216299	-2.419144	5.907810	0.359643	-5.724879	2.124128	-0.783936	0.342041	0.035400	0.128701	0.026961	0.103580	0.095323	-0.579473	-0.032228	-0.808755	-10.136543	-70.639043	-159.364253
02091		10.406837	2.408238	9.616254	6.577340	-2.027236	2.802333	0.315379	-5.716538	2.297421	-0.768555	0.357666	0.083740	0.100979	0.025100	0.099118	0.104557	-0.602520	-0.029558	-0.790673	-16.233866	-73.531025	-152.768899
02092		11.540752	4.179565	10.371439	8.173146	-3.781251	3.492995	0.586777	-5.798565	2.409068	-0.758057	0.379883	0.127197	0.111823	0.042846	0.107116	0.114785	-0.624956	-0.027736	-0.771677	-24.853745	-76.142774	-143.492935
02093		14.500376	9.992535	8.707471	8.163092	-10.216178	4.843742	0.179703	-5.435042	2.815493	-0.747559	0.397705	0.164307	0.141141	0.101850	0.091037	0.125399	-0.645907	-0.022741	-0.752703	-37.822021	-77.974771	-130.085612
02094		17.631032	5.932960	7.050813	6.229199	-7.302861	7.609268	-0.227678	-4.853186	3.078301	-0.725830	0.422363	0.198975	0.173590	0.062099	0.074673	0.135445	-0.664119	-0.015159	-0.735099	-53.311760	-78.664506	-114.401516
02095		14.355950	2.674952	2.422879	2.111649	-4.794147	4.030332	-0.340181	-4.076663	3.047376	-0.704346	0.451416	0.238037	0.142596	0.028972	0.027094	0.145160	-0.679336	-0.006549	-0.719297	-67.727369	-78.290705	-99.891367
02096		10.817557	-5.087916	7.539427	6.037085	4.205750	2.253838	0.271472	-3.000434	2.370004	-0.693604	0.462646	0.244141	0.107623	-0.049705	0.076944	0.154262	-0.689604	-0.001914	-0.707563	-76.898776	-77.545490	-90.345031
02097		30.582990	6.841270	16.025305	17.217893	-9.649778	19.330967	1.672164	-0.361242	1.088881	-0.693848	0.467041	0.230713	0.305165	0.068729	0.161378	0.163867	-0.689557	-0.004356	-0.705436	-77.439016	-76.983214	-88.808751
02098		-0.548280	15.965761	12.358343	15.858183	-12.049044	-13.169650	0.995297	1.458873	0.645784	-0.687256	0.473877	0.223877	-0.005091	0.159023	0.124414	0.169336	-0.683217	-0.004724	-0.710294	-73.539276	-76.450962	-92.221178
02099		1.076163	12.237256	9.505006	12.190076	-9.569837	-10.848280	-0.515585	1.604613	0.478983	-0.694336	0.480469	0.208008	0.011229	0.122643	0.094645	0.169305	-0.677929	0.000101	-0.715365	-70.614518	-75.906659	-95.537079
02100		0.584545	3.891636	7.661178	8.342859	-2.107623	-9.448526	-0.907216	1.771109	-0.110854	-0.694092	0.476074	0.190430	0.006544	0.039260	0.076378	0.165504	-0.671868	0.004056	-0.721931	-66.943412	-75.636848	-99.842017
02101		2.466045	1.794126	7.441953	7.510597	-0.718263	-7.027906	-0.420536	2.150255	-1.000775	-0.709229	0.460449	0.182129	0.025548	0.017971	0.074110	0.160421	-0.664415	0.003990	-0.729933	-61.871537	-75.621533	-105.325980
02102		1.384713	3.874828	7.262788	7.816224	-2.527904	-8.332621	-0.114442	2.620504	-1.661124	-0.718018	0.451416	0.160400	0.015118	0.038668	0.072413	0.153572	-0.654364	0.000581	-0.740421	-54.567752	-75.657240	-112.913058
02103		0.612303	4.065286	7.244791	7.855386	-2.600286	-8.857478	-0.193854	3.006457	-1.971189	-0.730957	0.433594	0.136475	0.007611	0.040653	0.072302	0.145604	-0.643271	-0.002844	-0.751661	-46.718093	-75.436896	-121.132824
02104		0.913971	1.740317	7.346101	7.325791	-0.486053	-7.833040	-0.209507	3.350133	-2.130425	-0.736816	0.411377	0.110596	0.010553	0.017373	0.073274	0.136591	-0.630068	-0.006891	-0.764401	-38.119921	-74.825357	-130.130625
02105		1.497871	-0.080977	7.597039	6.976318	1.151193	-6.656131	0.047551	3.755593	-2.264254	-0.747559	0.395752	0.080078	0.016391	-0.001008	0.075671	0.128182	-0.615440	-0.011642	-0.777603	-29.971370	-73.764710	-138.565114
02106		1.466000	-0.643550	7.511717	6.646209	1.672749	-6.346999	0.406338	4.149006	-2.325881	-0.755859	0.380127	0.042969	0.016136	-0.006770	0.074779	0.120227	-0.598054	-0.018109	-0.792180	-22.063581	-72.154568	-146.571393
02107		1.284083	-0.471984	7.090857	6.181388	1.472064	-6.382410	0.691147	4.451527	-2.261770	-0.761963	0.355713	-0.007080	0.014358	-0.005121	0.070583	0.113697	-0.579599	-0.024930	-0.806546	-15.651107	-70.155192	-152.926608
02108		1.473975	-0.412798	6.550255	5.457626	1.316305	-6.108341	0.870248	4.635585	-2.102732	-0.759033	0.340332	-0.033203	0.016206	-0.004577	0.065119	0.107891	-0.559201	-0.032239	-0.821349	-10.301536	-67.752149	-158.106796
02109		1.869772	-0.251260	6.650231	5.245011	1.156406	-5.462045	0.989091	4.648849	-1.923631	-0.760742	0.322754	-0.079102	0.020209	-0.003029	0.066030	0.103468	-0.539068	-0.039164	-0.834965	-6.334530	-65.272899	-161.812723
02110		3.068116	-0.056224	6.811021	4.692559	0.889687	-4.069547	1.019824	4.625402	-1.774825	-0.753662	0.309570	-0.118652	0.032236	-0.001189	0.067372	0.099271	-0.517901	-0.046118	-0.848409	-3.062294	-62.615408	-164.789711
02111		3.851520	-0.567675	7.130880	4.202141	1.412398	-3.005322	1.006993	4.604195	-1.718273	-0.737061	0.289795	-0.151123	0.040090	-0.006373	0.070367	0.095618	-0.497296	-0.052543	-0.860693	-0.533487	-60.007049	-167.013535
02112		4.927688	-1.227094	7.311542	3.311166	2.047236	-1.807885	1.069424	4.483125	-1.775341	-0.734131	0.270020	-0.185791	0.050784	-0.013104	0.071920	0.091359	-0.476021	-0.059692	-0.872637	1.825675	-57.319363	-169.044579
02113		6.858387	-0.381404	7.600880	2.281091	1.180474	0.103939	1.098320	4.327745	-1.890765	-0.724609	0.248047	-0.218262	0.070164	-0.004884	0.074477	0.086985	-0.455916	-0.066994	-0.883225	3.880699	-54.786407	-170.762225
02114		8.590597	0.496608	7.861034	1.166665	0.352844	1.777375	0.972848	4.219926	-2.043556	-0.719482	0.232666	-0.244385	0.087581	0.003700	0.076794	0.081121	-0.435167	-0.074353	-0.893600	5.827836	-52.166200	-172.480601
02115		9.756786	0.257135	7.602933	-0.336541	0.597112	2.539135	0.857751	4.110963	-2.211382	-0.709473	0.203857	-0.270020	0.099121	0.001161	0.074009	0.074609	-0.415489	-0.081313	-0.902879	7.532939	-49.676810	-174.043004
02116		11.546793	0.649706	6.623883	-2.722130	0.087988	3.232491	0.775426	3.915837	-2.401411	-0.699951	0.186279	-0.293701	0.116800	0.004849	0.063981	0.066499	-0.395562	-0.088560	-0.911738	9.211503	-47.144864	-175.683048
02117		13.517058	1.211248	5.258120	-5.486272	-0.619436	3.652353	0.582936	3.626657	-2.586673	-0.699219	0.164307	-0.315186	0.136235	0.010206	0.050149	0.057446	-0.377571	-0.095109	-0.919290	10.686178	-44.839443	-177.267993
02118		15.685544	0.836845	4.257675	-8.343685	-0.246079	4.156815	0.380935	3.236954	-2.724192	-0.684570	0.135498	-0.343018	0.157611	0.006147	0.040043	0.046749	-0.360380	-0.101288	-0.926111	12.070734	-42.607668	-178.942387
02119		17.939870	-0.003201	3.625237	-11.065669	0.751559	4.744851	0.269776	2.923547	-2.786638	-0.681641	0.113525	-0.362061	0.179879	-0.002583	0.033623	0.035799	-0.345274	-0.106859	-0.931711	13.283337	-40.620266	179.465399
02120		19.527490	-1.313462	3.243342	-13.192661	2.360842	4.812577	0.287298	2.745943	-2.733057	-0.674072	0.091309	-0.374512	0.195491	-0.015849	0.029729	0.024701	-0.330181	-0.112649	-0.936846	14.435559	-38.625188	177.938176
02121		20.262478	-1.629651	2.917453	-14.438129	3.011833	4.475653	0.377389	2.672070	-2.529551	-0.666748	0.071533	-0.391602	0.202762	-0.018912	0.026432	0.014972	-0.316116	-0.118249	-0.941203	15.429879	-36.769634	176.666667
02122		20.418940	-1.092822	2.763854	-15.026224	2.823569	4.042393	0.384698	2.675693	-2.199631	-0.654785	0.053955	-0.419678	0.204398	-0.013225	0.024881	0.006582	-0.301566	-0.123540	-0.945385	16.253611	-34.877070	175.661198
02123		19.449118	-1.483777	1.743560	-15.218555	3.174669	2.094977	0.299659	2.686839	-1.855974	-0.645508	0.042969	-0.430420	0.194553	-0.016667	0.014798	-0.000084	-0.287646	-0.127656	-0.949191	16.817794	-33.095825	174.959976
02124		17.800237	-1.975015	0.440103	-14.892090	3.405532	-0.456023	0.318642	2.538485	-1.516374	-0.631592	0.027588	-0.449951	0.177882	-0.021104	0.002110	-0.005309	-0.274169	-0.131545	-0.952628	17.279269	-31.397000	174.470709
02125		16.994263	-1.484549	-0.368779	-14.819968	2.784213	-1.828612	0.424170	2.271056	-1.165986	-0.619873	0.016846	-0.462646	0.169796	-0.015825	-0.005649	-0.008791	-0.262550	-0.135219	-0.955356	17.669086	-29.952388	174.183934
02126		16.348890	-0.510740	-0.650565	-14.531636	1.786354	-2.491503	0.466563	2.039270	-0.873073	-0.601563	0.005859	-0.477783	0.163387	-0.005803	-0.008185	-0.010986	-0.251942	-0.138863	-0.957665	18.022579	-28.652788	174.046974
02127		14.511619	0.251701	-0.273314	-12.853853	1.015753	-3.144508	0.400215	1.929225	-0.651381	-0.601563	0.005859	-0.489014	0.145088	0.002052	-0.004128	-0.012265	-0.242237	-0.141705	-0.959735	18.258037	-27.483299	174.034916
02128		11.741137	-0.086676	0.094974	-10.371791	1.191134	-4.439244	0.355019	1.808388	-0.531917	-0.590088	-0.002686	-0.501953	0.117411	-0.001179	-0.000114	-0.013015	-0.233043	-0.144348	-0.961606	18.461689	-26.387085	174.085402
02129		8.383579	0.299533	0.400135	-7.311060	0.597937	-5.723258	0.386404	1.614933	-0.487831	-0.583008	-0.009277	-0.506104	0.083871	0.002784	0.003330	-0.013749	-0.224919	-0.146880	-0.963145	18.669229	-25.418076	174.118224
02130		5.251040	12.896087	1.454042	-3.605786	-11.460093	-2.625188	-0.484789	0.982392	-0.131903	-0.581299	0.004150	-0.513184	0.052665	0.128960	0.013969	-0.014050	-0.219988	-0.144948	-0.964571	18.359690	-24.854435	174.251953
02131		10.839798	-5.279784	-14.712190	-16.326792	2.220950	-19.315844	-2.814575	-1.177762	0.806504	-0.586670	0.032715	-0.496582	0.109476	-0.054415	-0.145721	-0.014112	-0.226003	-0.130393	-0.965257	16.635473	-25.634048	174.514675
02132		27.102219	-24.114956	-2.096059	-25.772672	25.265070	-5.596655	-1.380723	-3.292363	-0.089056	-0.604492	0.023682	-0.471924	0.271193	-0.241387	-0.014831	-0.017948	-0.241718	-0.123852	-0.962243	16.160602	-27.434627	173.893397
02133		36.522340	-7.693435	16.776319	-24.246493	14.953636	19.563505	-0.339326	-1.649999	-0.978604	-0.609131	0.028076	-0.467529	0.363441	-0.078427	0.170899	-0.024092	-0.248985	-0.123256	-0.960330	16.390447	-28.182128	172.985066
02134		1.851449	-12.829861	16.568082	6.242040	16.349683	1.860311	0.061982	-0.576017	0.170149	-0.609131	0.032471	-0.461182	0.018146	-0.128334	0.165694	-0.023318	-0.252138	-0.123316	-0.959519	16.429031	-28.562116	173.006880
02135		3.127677	3.388379	15.032871	4.806625	0.489301	5.150660	0.939274	-1.345520	0.607091	-0.617920	0.025635	-0.447510	0.030162	0.033269	0.150691	-0.020055	-0.259044	-0.126903	-0.957282	16.905747	-29.397581	173.134762
02136		11.189965	14.698603	8.191239	-5.069405	-11.123237	6.278662	0.214216	-1.355015	0.009490	-0.624756	0.027832	-0.436523	0.111334	0.146903	0.082825	-0.020517	-0.265788	-0.127690	-0.955317	17.146323	-30.171077	172.885332
02137		8.024761	6.067447	8.328672	-2.371135	-3.062213	2.660345	-0.331074	-1.380940	-0.261437	-0.631592	0.027588	-0.432129	0.079750	0.060708	0.083738	-0.023091	-0.272153	-0.126318	-0.953647	17.179312	-30.880062	172.447896
02138		7.540732	-3.219356	9.345075	-1.511402	6.093895	0.917436	-0.203013	-1.197724	-0.053845	-0.633789	0.031982	-0.423340	0.074837	-0.032119	0.093933	-0.024183	-0.278047	-0.125311	-0.952052	17.205483	-31.558489	172.194062
02139		8.584992	-3.352981	8.450595	-2.747901	6.154924	0.719267	0.264655	-0.956822	-0.013465	-0.645020	0.027344	-0.416504	0.085442	-0.033648	0.084871	-0.024483	-0.282599	-0.126479	-0.950548	17.463655	-32.076740	171.992930
02140		7.486046	2.827763	7.266044	-2.211744	-0.182175	0.765907	0.380319	-0.848218	-0.151484	-0.640381	0.025146	-0.403320	0.074573	0.028082	0.073031	-0.025074	-0.286846	-0.128341	-0.949010	17.821095	-32.547833	171.731946
02141		7.508215	6.364277	6.827817	-2.300830	-3.652288	1.361514	0.171804	-0.783424	-0.219161	-0.644775	0.025146	-0.400879	0.074883	0.063502	0.068626	-0.026374	-0.290420	-0.129379	-0.947746	18.085902	-32.933405	171.425231
02142		5.256466	5.761890	7.737179	0.132960	-3.123776	0.719064	-0.103173	-0.794160	-0.193062	-0.651611	0.027344	-0.389893	0.052313	0.057608	0.077550	-0.027783	-0.294316	-0.129047	-0.946548	18.185664	-33.366878	171.145294
02143		5.574766	4.508140	8.462552	0.317576	-1.713862	1.140735	-0.255631	-0.819723	-0.085520	-0.654053	0.031738	-0.381348	0.055420	0.045166	0.084795	-0.029096	-0.298080	-0.127856	-0.945492	18.167965	-33.795127	170.913360
02144		8.328513	3.228326	8.168209	-2.052660	-0.205364	2.114158	-0.358297	-0.763690	0.002645	-0.658691	0.033936	-0.376953	0.082972	0.032431	0.081941	-0.029910	-0.301896	-0.126066	-0.944495	18.054859	-34.245324	170.768124
02145		7.820138	1.772003	7.598317	-1.923612	0.987292	1.020297	-0.289103	-0.615753	0.012566	-0.658936	0.042725	-0.372803	0.077966	0.017835	0.076198	-0.030679	-0.304745	-0.124596	-0.943750	17.959830	-34.580411	170.644019
02146		7.321748	2.308254	7.775106	-1.344152	0.421244	1.022621	-0.219529	-0.467624	0.016980	-0.658936	0.042725	-0.368408	0.073033	0.023174	0.077897	-0.031024	-0.307196	-0.123483	-0.943091	17.886220	-34.873399	170.572529
02147		7.188356	1.668699	8.145139	-0.985560	1.086975	1.079846	-0.177213	-0.409512	-0.003737	-0.665771	0.047119	-0.359619	0.071717	0.016758	0.081584	-0.031570	-0.309075	-0.122597	-0.942574	17.837068	-35.093448	170.481991
02148		7.073540	0.303253	8.205128	-0.834412	2.399325	0.722869	-0.054496	-0.340383	-0.074004	-0.661133	0.042725	-0.357178	0.070597	0.003029	0.082171	-0.032017	-0.310896	-0.122415	-0.941984	17.877309	-35.301515	170.376391
02149		6.390983	1.466393	8.285241	-0.185469	1.205754	0.682638	0.069782	-0.317417	-0.130022	-0.654541	0.044922	-0.355225	0.063788	0.014594	0.082959	-0.032719	-0.312301	-0.122902	-0.941431	18.007986	-35.449008	170.220545
02150		6.866853	2.411860	7.624033	-0.909581	0.234115	0.685615	0.118303	-0.318888	-0.164154	-0.656738	0.047119	-0.353027	0.068567	0.024017	0.076364	-0.033334	-0.313992	-0.123652	-0.940749	18.178888	-35.628766	170.055396
02151		6.947367	2.742472	7.447850	-1.047376	-0.088076	0.682677	0.144922	-0.260748	-0.174854	-0.663330	0.040283	-0.346191	0.069400	0.027310	0.074589	-0.034094	-0.315114	-0.124572	-0.940225	18.364452	-35.736682	169.880416
02152		6.355119	3.370057	7.241381	-0.661903	-0.800806	0.341275	0.141095	-0.200305	-0.167210	-0.654297	0.040527	-0.348389	0.063507	0.033596	0.072501	-0.034610	-0.316246	-0.125457	-0.939708	18.536165	-35.850582	169.738148
02153		6.871875	3.501091	7.226797	-1.066017	-0.835033	0.669354	0.114699	-0.150501	-0.130449	-0.652100	0.038330	-0.341553	0.068687	0.034925	0.072340	-0.035140	-0.316871	-0.126183	-0.939381	18.673579	-35.905962	169.616596
02154		6.494537	3.585350	7.276649	-0.715613	-0.946185	0.510877	0.074357	-0.121976	-0.098013	-0.654297	0.040527	-0.350586	0.064919	0.035795	0.072819	-0.035372	-0.317663	-0.126673	-0.939038	18.771669	-35.989255	169.539010
02155		6.150352	3.588516	7.463293	-0.318965	-0.949942	0.453806	0.027711	-0.112399	-0.056711	-0.656738	0.044922	-0.343994	0.061472	0.035857	0.074672	-0.035669	-0.318140	-0.126881	-0.938838	18.825542	-36.037290	169.475161
02156		6.233283	3.526246	7.301995	-0.466270	-0.910630	0.363790	-0.014103	-0.129309	-0.000300	-0.654297	0.042725	-0.352783	0.062286	0.035268	0.073058	-0.035574	-0.319006	-0.126815	-0.938556	18.837110	-36.141889	169.462439
02157		6.395594	3.165904	7.339844	-0.565221	-0.536141	0.394807	-0.087151	-0.130527	0.062157	-0.652344	0.044922	-0.346191	0.063898	0.031711	0.073426	-0.035508	-0.319623	-0.126291	-0.938419	18.780705	-36.221747	169.474163
02158		6.001319	3.524763	7.316548	-0.243514	-0.959818	0.236744	-0.120117	-0.108518	0.110565	-0.647949	0.049316	-0.350830	0.059954	0.035325	0.073177	-0.035039	-0.320437	-0.125567	-0.938257	18.685602	-36.334969	169.541892
02159		6.128489	3.630846	7.326949	-0.326672	-1.062184	0.345590	-0.180318	-0.079758	0.179704	-0.650146	0.051514	-0.350830	0.061223	0.036430	0.073261	-0.034539	-0.320873	-0.124426	-0.938278	18.521710	-36.408749	169.644797
02160		6.349082	2.669904	7.354888	-0.485018	-0.123676	0.251258	-0.212962	-0.053128	0.205222	-0.648193	0.060547	-0.355713	0.063444	0.026842	0.073537	-0.033728	-0.321463	-0.123138	-0.938276	18.328634	-36.507998	169.790930
02161		5.721655	2.259483	7.775975	0.266973	0.244087	0.095767	-0.202065	-0.028527	0.183017	-0.645996	0.058350	-0.353271	0.057185	0.022726	0.077745	-0.033215	-0.321656	-0.121898	-0.938389	18.143436	-36.554001	169.908305
02162		5.888674	1.933812	7.871161	0.197080	0.576126	0.187337	-0.183153	-0.029063	0.179478	-0.641846	0.067383	-0.353760	0.058858	0.019463	0.078702	-0.032469	-0.322116	-0.120794	-0.938401	17.973658	-36.634169	170.042727
02163		6.237719	2.040852	7.712353	-0.170391	0.464893	0.302124	-0.141597	-0.033997	0.164514	-0.643799	0.058350	-0.355713	0.062347	0.020514	0.077120	-0.031949	-0.322333	-0.119866	-0.938463	17.830811	-36.679385	170.146847
02164		5.854113	1.916039	7.970890	0.299836	0.565391	0.240538	-0.116108	-0.051016	0.161790	-0.646240	0.067139	-0.360352	0.058505	0.019254	0.079713	-0.031204	-0.322890	-0.119091	-0.938395	17.708086	-36.767199	170.263867
02165		6.140563	2.390453	7.698993	-0.077228	0.070482	0.320639	-0.096892	-0.066870	0.167761	-0.646484	0.071777	-0.364990	0.061360	0.023993	0.076999	-0.030617	-0.323271	-0.118362	-0.938376	17.593327	-36.830600	170.363506
02166		6.429100	2.177842	7.485800	-0.426274	0.253367	0.280260	-0.087998	-0.057202	0.178549	-0.644287	0.071777	-0.360596	0.064250	0.021869	0.074867	-0.029762	-0.323864	-0.117686	-0.938284	17.479486	-36.923487	170.490274
02167		6.331160	2.582752	7.515588	-0.315722	-0.165118	0.341685	-0.098242	-0.039865	0.179217	-0.637451	0.073975	-0.367188	0.063273	0.025921	0.075156	-0.029108	-0.324124	-0.116935	-0.938308	17.355238	-36.973802	170.604061
02168		6.574466	2.305839	7.517931	-0.501840	0.115840	0.424230	-0.098074	-0.007509	0.179314	-0.642090	0.076172	-0.369629	0.065721	0.023154	0.075170	-0.028239	-0.324480	-0.116216	-0.938301	17.228227	-37.038837	170.742394
02169		6.603757	2.272479	7.415297	-0.587389	0.111862	0.356031	-0.097220	0.018425	0.186271	-0.648926	0.078369	-0.369629	0.066023	0.022822	0.074136	-0.027516	-0.324471	-0.115467	-0.938418	17.093791	-37.058066	170.873796
02170		6.207838	3.004322	7.756154	-0.043515	-0.603341	0.548547	-0.109402	0.049003	0.203709	-0.644531	0.080566	-0.374268	0.062067	0.030149	0.077530	-0.026521	-0.324572	-0.114662	-0.938511	16.942449	-37.095539	171.041037
02171		6.827389	3.011534	7.307854	-0.808532	-0.647996	0.580272	-0.141395	0.045984	0.267776	-0.642334	0.080566	-0.378662	0.068250	0.030258	0.073041	-0.025471	-0.324473	-0.113576	-0.938706	16.745192	-37.112644	171.234444
02172		6.554064	3.422893	7.214381	-0.635441	-1.133760	0.435724	-0.192235	0.079037	0.317784	-0.649170	0.087158	-0.385498	0.065515	0.034402	0.072085	-0.024051	-0.324482	-0.112209	-0.938905	16.495581	-37.151057	171.487583
02173		6.577630	3.261631	7.055763	-0.759363	-1.047210	0.287499	-0.259887	0.110353	0.415221	-0.645020	0.091797	-0.381104	0.065747	0.032844	0.070479	-0.022465	-0.324148	-0.110334	-0.939281	16.160822	-37.155169	171.796028
02174		6.226244	2.683805	7.574121	-0.180524	-0.475615	0.340006	-0.308579	0.127845	0.461086	-0.640625	0.098389	-0.388184	0.062249	0.027098	0.075660	-0.020516	-0.323989	-0.108208	-0.939628	15.779615	-37.186957	172.160061
02175		6.686516	2.693508	7.352994	-0.683444	-0.533936	0.447845	-0.332678	0.087643	0.495663	-0.649902	0.104980	-0.390625	0.066830	0.027223	0.073456	-0.018682	-0.323793	-0.105857	-0.940002	15.371761	-37.212788	172.520088
02176		6.398928	1.921512	7.778801	-0.217032	0.211090	0.437010	-0.327046	0.054703	0.485524	-0.650146	0.111816	-0.399658	0.063963	0.019498	0.077739	-0.016682	-0.323981	-0.103601	-0.940226	14.977597	-37.284527	172.888575
02177		6.124011	2.261783	7.916833	0.101745	-0.177859	0.446611	-0.276929	-0.042482	0.470994	-0.652588	0.116211	-0.395508	0.061170	0.022872	0.079150	-0.014942	-0.324384	-0.101538	-0.940341	14.625359	-37.374991	173.208488
02178		6.145219	1.996474	7.878336	0.068962	0.026674	0.376136	-0.258001	-0.085356	0.450797	-0.652832	0.120605	-0.402100	0.061373	0.020205	0.078784	-0.013072	-0.325209	-0.099647	-0.940286	14.298457	-37.515385	173.528819
02179		6.393966	1.930234	7.845220	-0.135061	0.060049	0.489450	-0.253747	-0.108130	0.428701	-0.650635	0.125000	-0.406738	0.063856	0.019539	0.078462	-0.011527	-0.325898	-0.097756	-0.940267	13.982136	-37.633500	173.809834
02180		6.032389	2.253191	7.777936	0.142548	-0.346682	0.278010	-0.258577	-0.090605	0.434402	-0.657471	0.129395	-0.402588	0.060239	0.022763	0.077777	-0.009743	-0.326731	-0.095885	-0.940190	13.659372	-37.771256	174.120048
02181		6.292404	2.373503	7.500548	-0.212392	-0.540564	0.244575	-0.282340	-0.094106	0.457296	-0.659912	0.135986	-0.398438	0.062834	0.023985	0.075001	-0.008104	-0.327363	-0.093812	-0.940195	13.310237	-37.882859	174.426257
02182		6.666009	0.935453	7.471324	-0.570893	0.844366	0.191928	-0.288960	-0.100203	0.456765	-0.657959	0.142822	-0.398682	0.066601	0.009615	0.074733	-0.006268	-0.328241	-0.091764	-0.940105	12.958792	-38.025477	174.753852
02183		6.246739	0.868292	7.784709	-0.036860	0.886089	0.166826	-0.239165	-0.122047	0.397189	-0.662598	0.145020	-0.405273	0.062402	0.008900	0.077875	-0.004853	-0.328973	-0.089990	-0.940029	12.660731	-38.142234	175.015607
02184		6.120341	1.362164	8.057499	0.279437	0.396006	0.385464	-0.217888	-0.179426	0.358127	-0.665039	0.151611	-0.407715	0.061106	0.013819	0.080615	-0.003417	-0.330177	-0.088421	-0.939762	12.397009	-38.314036	175.261796
02185		6.205948	1.572319	8.248892	0.367910	0.187835	0.620882	-0.213279	-0.247991	0.342232	-0.671875	0.151367	-0.403320	0.061930	0.015917	0.082549	-0.002275	-0.331474	-0.086855	-0.939455	12.147602	-38.492712	175.467256
02186		5.930894	2.322974	8.520242	0.830668	-0.563827	0.777783	-0.227055	-0.317013	0.367190	-0.674072	0.155762	-0.403564	0.059131	0.023435	0.085270	-0.000884	-0.333318	-0.085220	-0.938955	11.884015	-38.740183	175.700874
02187		6.243073	2.307338	8.338284	0.514504	-0.603224	0.826758	-0.270481	-0.372835	0.422839	-0.683350	0.157959	-0.399170	0.062226	0.023318	0.083468	0.000488	-0.335231	-0.083249	-0.938451	11.573601	-38.996784	175.949245
02188		6.563822	2.140667	8.133224	0.180906	-0.504142	0.842273	-0.301977	-0.436215	0.467395	-0.687988	0.164551	-0.392822	0.065410	0.021683	0.081442	0.002172	-0.337660	-0.081098	-0.937765	11.228045	-39.319485	176.242849
02189		6.178754	1.812980	8.515927	0.756231	-0.197162	0.835016	-0.344408	-0.495442	0.497651	-0.692627	0.171143	-0.393066	0.061531	0.018430	0.085280	0.003719	-0.340172	-0.078654	-0.937061	10.845684	-39.650922	176.534492
02190		6.421698	1.826482	8.519773	0.641302	-0.256716	0.989299	-0.335186	-0.587356	0.506797	-0.688477	0.180176	-0.388916	0.063920	0.018570	0.085355	0.005468	-0.343308	-0.076284	-0.936104	10.468427	-40.059095	176.843837
02191		6.685662	1.530023	8.502721	0.484425	-0.014764	1.100588	-0.360807	-0.679938	0.515956	-0.699707	0.177734	-0.382080	0.066527	0.015626	0.085226	0.007001	-0.346679	-0.073733	-0.935055	10.074883	-40.493415	177.133462
02192		6.965906	0.878734	8.698047	0.447619	0.607699	1.339951	-0.342716	-0.800105	0.501185	-0.704346	0.186523	-0.380127	0.069288	0.009111	0.087243	0.008623	-0.350785	-0.071341	-0.933695	9.703439	-41.017030	177.421176
02193		6.599593	0.447510	9.093133	1.056570	1.024426	1.335090	-0.245166	-0.966402	0.458365	-0.713623	0.190918	-0.367188	0.065545	0.004737	0.091243	0.009984	-0.355452	-0.069439	-0.932058	9.417017	-41.604977	177.642897
02194		7.052671	1.569624	8.822007	0.745238	-0.153809	1.564961	-0.184527	-1.176849	0.476738	-0.720459	0.195068	-0.358398	0.069968	0.015945	0.088618	0.011615	-0.361269	-0.067828	-0.929919	9.166315	-42.336027	177.875308
02195		6.461166	0.996239	8.858543	1.312816	0.363703	1.112286	-0.155326	-1.367437	0.491815	-0.727295	0.199463	-0.347412	0.063979	0.010189	0.089016	0.013154	-0.367780	-0.066300	-0.927453	8.934897	-43.152430	178.085754
02196		6.552241	1.098904	8.878526	1.436475	0.232361	1.180380	-0.113417	-1.553095	0.499494	-0.740723	0.199219	-0.325195	0.064803	0.011202	0.089284	0.014879	-0.375296	-0.064991	-0.924504	8.729771	-44.095775	178.302833
02197		6.752363	0.600968	9.080660	1.582998	0.726823	1.384469	-0.075884	-1.756947	0.492206	-0.752197	0.201172	-0.318848	0.066707	0.006209	0.091393	0.016437	-0.383555	-0.063850	-0.921162	8.561411	-45.131765	178.481229
02198		6.672429	0.408524	9.842200	2.384812	0.992831	1.801057	-0.036334	-2.034005	0.425159	-0.752441	0.208008	-0.303467	0.065710	0.004244	0.099093	0.017787	-0.393180	-0.063057	-0.917124	8.468768	-46.338688	178.592412
02199		6.592251	1.381176	10.801773	3.477693	0.138102	2.431593	-0.006996	-2.388087	0.380237	-0.761230	0.207764	-0.276855	0.064600	0.013939	0.108794	0.018759	-0.404210	-0.062490	-0.912336	8.450461	-47.722531	178.612520
02200		6.126667	3.535820	10.935558	4.394500	-2.003320	2.282288	-0.085608	-2.802199	0.455715	-0.779297	0.209717	-0.245850	0.059646	0.035542	0.110184	0.019869	-0.417218	-0.061446	-0.906509	8.372191	-49.364307	178.658165
02201		6.760323	4.450697	10.440062	4.065134	-2.988868	2.395137	-0.049673	-3.290208	0.695848	-0.786377	0.220703	-0.219727	0.065718	0.044764	0.105481	0.021902	-0.432278	-0.060093	-0.899469	8.196550	-51.285665	178.849895
02202		6.308411	4.733308	11.790440	5.872618	-3.138457	2.711392	-0.073409	-3.744966	0.945838	-0.791260	0.227051	-0.188965	0.060637	0.047667	0.119038	0.024951	-0.449413	-0.058155	-0.891080	7.847019	-53.497254	179.248223
02203		5.435754	3.706069	11.443564	6.509937	-2.213045	1.453724	-0.025216	-4.268546	1.239066	-0.802734	0.235840	-0.151367	0.051668	0.037401	0.115553	0.029164	-0.468671	-0.055783	-0.881127	7.293639	-56.013655	179.908457
02204		6.349629	2.954963	11.070549	6.161238	-1.557987	1.640732	0.063336	-4.901808	1.534116	-0.807617	0.250977	-0.103271	0.060529	0.029986	0.112223	0.034767	-0.490566	-0.053226	-0.869082	6.494773	-58.913130	-179.089030
02205		7.607873	3.377172	11.009526	6.153850	-2.037336	2.370153	0.294990	-5.472061	1.757945	-0.810303	0.261963	-0.057129	0.072729	0.034256	0.112166	0.041655	-0.514544	-0.051131	-0.854924	5.470733	-62.134987	-177.718615
02206		10.162488	3.603041	11.311707	6.051535	-2.311652	4.405936	0.423913	-5.893637	1.968956	-0.808594	0.279785	-0.004395	0.097873	0.036762	0.116116	0.049685	-0.539897	-0.049153	-0.838825	3.998538	-65.594232	-175.797672
02207		12.087605	2.084097	10.893159	5.603188	-0.988288	5.570828	0.345297	-6.030266	2.049553	-0.806641	0.288574	0.048584	0.117298	0.021863	0.112542	0.057702	-0.565317	-0.046548	-0.821536	1.806230	-69.103713	-173.208512
02208		9.720962	0.806391	9.879426	6.193237	0.192676	2.608786	0.730660	-6.155911	1.989034	-0.796143	0.308350	0.094238	0.094024	0.008641	0.101752	0.066502	-0.590517	-0.045760	-0.802978	-0.970012	-72.636453	-169.818204
02209		12.365191	2.433140	9.363543	6.057873	-1.613232	4.578486	1.246890	-6.222675	1.987532	-0.785400	0.321777	0.138184	0.120411	0.024939	0.097570	0.076699	-0.615199	-0.046947	-0.783226	-4.987982	-76.139486	-164.906343
02210		14.158792	7.410673	8.787687	6.982815	-6.700827	5.641690	1.208013	-5.889629	2.288465	-0.770264	0.341797	0.181885	0.138054	0.075151	0.092429	0.087950	-0.637951	-0.046945	-0.763596	-12.576644	-79.275042	-156.428167
02211		17.731188	7.877219	7.844128	6.660170	-7.675609	8.478610	0.873935	-5.312974	2.670084	-0.757568	0.366455	0.220947	0.174070	0.080753	0.083445	0.099641	-0.658177	-0.044086	-0.744937	-26.784103	-81.644832	-141.518588
02212		15.561211	5.227319	3.234310	2.859273	-5.998658	5.540205	0.445159	-4.455516	2.922522	-0.727051	0.388916	0.253418	0.154053	0.054455	0.035906	0.110992	-0.674865	-0.038505	-0.728530	-47.405515	-82.687046	-120.433471
02213		12.584727	-2.253194	7.783542	6.514817	2.331714	3.458891	0.558263	-3.137609	2.499547	-0.722900	0.404297	0.266113	0.124877	-0.021188	0.079739	0.121351	-0.686316	-0.033843	-0.716309	-64.767489	-82.499093	-102.604769
02214		33.874478	3.719274	17.123303	16.646942	-4.335614	24.225425	1.737050	-0.252467	1.712387	-0.712402	0.424561	0.250000	0.338202	0.038598	0.171991	0.133401	-0.686295	-0.034528	-0.714150	-67.428302	-81.669226	-98.896216
02215		-1.625924	10.562607	12.543424	14.797437	-6.894437	-12.058589	1.561199	2.022201	1.304453	-0.712891	0.437988	0.233887	-0.015669	0.104538	0.126414	0.143750	-0.678178	-0.034279	-0.719886	-61.886123	-80.496895	-103.599946
02216		-5.656159	10.919030	9.264086	12.011298	-7.195608	-16.214944	0.643016	1.724186	1.069536	-0.708496	0.437988	0.214111	-0.056340	0.108589	0.093477	0.150045	-0.671470	-0.031956	-0.724978	-58.198321	-79.480262	-106.950504
02217		-3.519281	7.577672	6.960096	8.887148	-4.871683	-13.754053	-0.037608	1.258746	0.580517	-0.717529	0.440186	0.205078	-0.034974	0.075688	0.069807	0.152218	-0.667002	-0.028932	-0.728767	-55.994807	-78.808914	-109.215586
02218		1.735201	6.307251	7.736397	8.963334	-4.446547	-8.222203	-0.272223	1.413536	-0.188635	-0.717773	0.442383	0.191650	0.017957	0.063161	0.077153	0.150803	-0.661780	-0.027788	-0.733848	-52.344241	-78.428028	-113.071370
02219		1.871834	6.520753	8.338056	9.526927	-4.589439	-7.884704	-0.356947	2.028746	-0.940447	-0.726074	0.426758	0.187744	0.019869	0.065264	0.083066	0.146442	-0.654422	-0.028064	-0.741283	-46.603400	-78.081391	-119.143123
02220		0.408187	5.777618	8.240624	9.322306	-3.717352	-8.962037	-0.521605	2.601796	-1.450854	-0.732422	0.415771	0.161621	0.005572	0.057954	0.082189	0.139683	-0.644599	-0.029303	-0.751080	-39.126247	-77.548279	-127.066417
02221		0.255259	3.458510	7.935024	8.412279	-1.630089	-8.563840	-0.537036	3.054411	-1.749557	-0.745361	0.402344	0.133057	0.004067	0.034767	0.079203	0.131805	-0.633134	-0.030793	-0.762116	-31.419084	-76.695363	-135.286672
02222		0.751227	1.518769	7.924631	7.782055	0.081904	-7.555304	-0.289705	3.492421	-1.961321	-0.749268	0.382324	0.104980	0.009043	0.015219	0.079075	0.123889	-0.619250	-0.033928	-0.774616	-23.612410	-75.413473	-143.468227
02223		1.234674	0.781040	7.990145	7.469017	0.690196	-6.697426	0.030449	3.942933	-2.096236	-0.761963	0.360107	0.079102	0.013999	0.007657	0.079637	0.116501	-0.603438	-0.038092	-0.787933	-16.685116	-73.701720	-150.634858
02224		1.782026	0.344615	7.911951	7.003980	1.009358	-5.836802	0.283534	4.358777	-2.155279	-0.766113	0.346680	0.033203	0.019574	0.003130	0.078710	0.109587	-0.585122	-0.043457	-0.802330	-10.638571	-71.522384	-156.772250
02225		2.310161	0.065379	7.653441	6.340358	1.172061	-5.087218	0.463563	4.679761	-2.165833	-0.758545	0.322510	-0.003662	0.024888	0.000214	0.075967	0.103232	-0.565417	-0.049080	-0.816847	-5.866355	-69.043222	-161.557457
02226		3.023426	0.024355	7.269742	5.472873	1.085777	-4.258747	0.567270	4.895937	-2.127598	-0.766846	0.304688	-0.042969	0.032000	-0.000295	0.071928	0.097194	-0.543965	-0.055117	-0.831636	-2.003340	-66.273277	-165.360226
02227		3.718351	-0.096569	6.950829	4.579446	1.111391	-3.493752	0.637967	4.995326	-2.039245	-0.764160	0.289307	-0.084473	0.038890	-0.001576	0.068547	0.091787	-0.522108	-0.060874	-0.845738	0.911969	-63.419727	-168.175413
02228		4.775344	-0.003952	7.029304	3.831423	0.995348	-2.294177	0.688760	4.975741	-1.916214	-0.747803	0.274170	-0.121826	0.049477	-0.000747	0.069075	0.086809	-0.499505	-0.066697	-0.859366	3.246257	-60.469717	-170.355944
02229		5.545696	-0.404487	7.268979	3.155089	1.434746	-1.343632	0.742982	4.899481	-1.832368	-0.749268	0.251953	-0.156494	0.057173	-0.004830	0.071286	0.082392	-0.477331	-0.072323	-0.871858	5.079677	-57.591389	-171.996353
02230		7.050159	-0.746615	7.614951	2.080750	1.812145	0.217923	0.893313	4.766341	-1.794002	-0.735352	0.236572	-0.189209	0.072216	-0.008444	0.074406	0.078212	-0.454877	-0.078695	-0.883616	6.750537	-54.704423	-173.378407
02231		9.044813	0.268079	7.555435	0.550692	0.784489	1.935341	1.027391	4.686239	-1.783992	-0.725586	0.216797	-0.221680	0.092202	0.001483	0.073417	0.074481	-0.432905	-0.085440	-0.894285	8.231358	-51.906751	-174.489796
02232		10.658460	1.627775	7.168006	-1.084281	-0.589128	3.074291	0.963979	4.633161	-1.833251	-0.713867	0.201660	-0.254395	0.108349	0.014952	0.069258	0.070113	-0.410396	-0.092125	-0.904529	9.584420	-49.055780	-175.516961
02233		11.868513	2.047241	6.961912	-2.589732	-0.963738	3.819867	0.775634	4.435618	-2.000064	-0.708740	0.181641	-0.282471	0.120386	0.019011	0.067037	0.064677	-0.389001	-0.098161	-0.913707	10.776445	-46.349399	-176.526444
02234		13.747269	1.985299	7.161219	-4.450265	-0.753294	5.147017	0.599324	4.179881	-2.275083	-0.701172	0.155273	-0.316895	0.139142	0.018067	0.068772	0.057292	-0.367979	-0.104115	-0.922209	11.959876	-43.680546	-177.698145
02235		15.843921	1.255887	6.999367	-6.914415	0.096325	6.115968	0.456400	4.015387	-2.600010	-0.688965	0.131104	-0.336182	0.159946	0.010331	0.066818	0.048213	-0.347855	-0.109830	-0.929844	13.094889	-41.108946	-178.992305
02236		16.787142	-0.118958	6.033016	-9.176616	1.497190	5.409218	0.372991	3.909060	-2.847413	-0.674805	0.111328	-0.370850	0.168967	-0.003699	0.057029	0.037610	-0.327452	-0.115719	-0.937000	14.216189	-38.487939	179.611781
02237		16.354619	-1.851226	4.652319	-10.519077	3.172562	3.293662	0.387276	3.673045	-2.903831	-0.662354	0.075928	-0.391846	0.164071	-0.020978	0.043474	0.026750	-0.308381	-0.121572	-0.943083	15.256071	-36.026737	178.262152
02238		15.767433	-3.671705	3.083138	-11.616544	4.858174	0.818089	0.504315	3.209953	-2.750051	-0.652588	0.053955	-0.410889	0.157616	-0.038958	0.028205	0.016402	-0.291022	-0.127893	-0.947988	16.274378	-33.777243	177.011103
02239		17.094036	-3.508969	1.779087	-13.715152	4.723294	0.048188	0.616417	2.570552	-2.374497	-0.645264	0.038574	-0.432617	0.170716	-0.037168	0.015483	0.007680	-0.277202	-0.134047	-0.951384	17.196597	-31.972319	175.964269
02240		19.175020	-2.740389	0.748047	-16.186619	4.096418	0.033132	0.567235	1.994734	-1.784792	-0.631104	0.018799	-0.440674	0.191557	-0.029131	0.005488	0.001229	-0.266139	-0.139250	-0.953823	17.917366	-30.533426	175.220038
02241		21.333329	-2.883872	-0.017676	-18.628023	4.368551	0.052592	0.573986	1.654243	-1.180907	-0.617432	0.010010	-0.451416	0.213146	-0.030094	-0.002025	-0.002493	-0.257387	-0.143549	-0.955583	18.447383	-29.419059	174.818910
02242		20.932841	-1.412566	-0.997330	-18.826196	2.747049	-0.913741	0.577686	1.539856	-0.674063	-0.608154	0.003662	-0.459961	0.209194	-0.014799	-0.011626	-0.003885	-0.249325	-0.147291	-0.957146	18.834655	-28.433284	174.722508
02243		17.502972	-1.207897	-2.443525	-16.616094	1.872488	-3.966464	0.429048	1.295940	-0.294900	-0.603271	-0.007568	-0.464111	0.174848	-0.012283	-0.025595	-0.003813	-0.242885	-0.149742	-0.958420	19.038162	-27.673329	174.814022
02244		16.528120	-0.816259	-3.555814	-16.309482	1.069706	-5.414521	0.324112	0.777891	-0.119871	-0.594238	-0.009521	-0.468506	0.165136	-0.008203	-0.036214	-0.003340	-0.238961	-0.151557	-0.959123	19.190964	-27.217740	174.913731
02245		16.475158	0.822291	-3.606080	-16.204503	-0.521391	-5.095411	0.130577	0.336109	-0.220872	-0.594238	-0.011719	-0.468262	0.164700	0.008065	-0.036332	-0.003994	-0.237160	-0.152461	-0.959424	19.295361	-26.991407	174.850395
02246		13.699053	7.383254	-2.849036	-12.995637	-6.744573	-3.819592	-0.383132	-0.168007	-0.403416	-0.590088	-0.002930	-0.457520	0.137163	0.073501	-0.028516	-0.006329	-0.237632	-0.151223	-0.959491	19.213472	-27.006848	174.588959
02247		17.940184	2.651884	-10.837623	-20.745379	-3.993411	-9.902344	-2.007772	-1.571486	0.014321	-0.606201	0.010254	-0.449219	0.180246	0.025451	-0.107221	-0.009840	-0.245076	-0.141521	-0.959069	18.209929	-27.859474	174.271816
02248		25.400050	-12.614822	-10.986181	-28.082777	11.664993	-10.259989	-2.321821	-2.348492	-0.166470	-0.611084	0.021240	-0.434082	0.255150	-0.127601	-0.105394	-0.014770	-0.256140	-0.130674	-0.957652	17.167777	-29.125675	173.741473
02249		20.302001	-8.769512	7.881540	-13.805749	12.410671	4.558608	-1.145001	-2.463016	-0.853031	-0.628906	0.016602	-0.416260	0.201650	-0.088095	0.081808	-0.021934	-0.267244	-0.126099	-0.955091	17.016355	-30.328171	172.725337
02250		10.735117	-11.167246	21.821160	1.983995	16.886524	10.851417	-0.853597	-1.516753	0.252558	-0.629150	0.025391	-0.414307	0.105830	-0.110603	0.219492	-0.022495	-0.274757	-0.121642	-0.953523	16.603667	-31.231736	172.626203
02251		10.964223	-9.889965	15.843518	-1.052339	14.280507	6.435370	0.517545	-1.378572	0.594361	-0.637939	0.020752	-0.396484	0.108842	-0.098986	0.158931	-0.019794	-0.281719	-0.123144	-0.951356	16.840310	-32.083476	172.741744
02252		14.199840	11.989465	10.118929	-5.961765	-7.829080	8.920540	0.281074	-1.088311	0.213404	-0.646973	0.022949	-0.398682	0.141316	0.119903	0.102128	-0.018958	-0.287291	-0.124019	-0.949591	17.037144	-32.745987	172.672970
02253		6.840413	8.578041	7.231186	-1.381373	-5.969302	1.811536	-0.478479	-1.057356	0.054630	-0.645020	0.031738	-0.383545	0.067998	0.085972	0.072467	-0.020048	-0.292274	-0.121576	-0.948363	16.859450	-33.331965	172.497412
02254		11.277625	-0.772673	7.686598	-5.005271	3.640894	2.375639	-0.514934	-0.880667	0.122641	-0.652100	0.040527	-0.379395	0.112441	-0.007459	0.077381	-0.020538	-0.296711	-0.118904	-0.947313	16.618087	-33.867382	172.423982
02255		9.125315	-4.018091	7.758199	-3.208808	6.550656	0.502263	-0.134371	-0.494834	0.019075	-0.656494	0.040527	-0.375000	0.091065	-0.040120	0.077834	-0.020947	-0.299031	-0.118198	-0.946663	16.589778	-34.139606	172.338252
02256		7.101250	0.643741	8.150285	-1.125696	1.888130	0.790941	0.083966	-0.349301	-0.148297	-0.665283	0.031494	-0.367920	0.070875	0.006351	0.081629	-0.021563	-0.300876	-0.118769	-0.945993	16.730104	-34.341992	172.185458
02257		7.438913	3.531681	7.209366	-1.821372	-1.059267	0.927221	0.076009	-0.303522	-0.099414	-0.656250	0.031494	-0.367920	0.074297	0.035252	0.072220	-0.022105	-0.302241	-0.119255	-0.945484	16.846510	-34.489496	172.057842
02258		6.204427	4.921344	7.734967	-0.431238	-2.432135	0.978185	-0.019427	-0.299062	0.040507	-0.656494	0.036133	-0.365967	0.061919	0.049234	0.077438	-0.021952	-0.303951	-0.119057	-0.944964	16.852081	-34.695770	172.039604
02259		7.126010	4.307822	7.558920	-1.272389	-1.780722	1.218385	-0.130904	-0.267927	0.161425	-0.665527	0.035889	-0.356934	0.071124	0.043185	0.075656	-0.021554	-0.305279	-0.118173	-0.944656	16.747474	-34.866986	172.092764
02260		7.358016	2.810200	7.361572	-1.587850	-0.365458	0.844490	-0.157241	-0.232529	0.178738	-0.665771	0.044678	-0.355225	0.073469	0.028226	0.073679	-0.020887	-0.306736	-0.117146	-0.944327	16.615336	-35.059358	172.184243
02261		6.845398	2.312463	7.572783	-1.041726	0.084327	0.601804	-0.117879	-0.189596	0.146238	-0.667969	0.042480	-0.350586	0.068365	0.023219	0.075779	-0.020494	-0.307686	-0.116355	-0.944125	16.514171	-35.184956	172.243931
02262		7.027402	2.818325	7.221892	-1.351658	-0.478337	0.552023	-0.108872	-0.171704	0.120977	-0.666016	0.051514	-0.348633	0.070195	0.028265	0.072264	-0.019983	-0.308828	-0.115656	-0.943848	16.424530	-35.334657	172.310389
02263		6.698194	2.189382	7.516073	-0.915384	0.142938	0.448509	-0.106288	-0.180073	0.109644	-0.666016	0.051514	-0.348633	0.066902	0.021970	0.075209	-0.019740	-0.309712	-0.114976	-0.943647	16.342571	-35.449014	172.347977
02264		6.305354	2.243982	8.150167	-0.196109	0.159966	0.730275	-0.124689	-0.195246	0.125918	-0.670654	0.055908	-0.342285	0.062960	0.022530	0.081549	-0.019238	-0.310967	-0.114196	-0.943339	16.244331	-35.612547	172.414363
02265		6.146828	2.815861	8.075159	-0.069940	-0.448407	0.709418	-0.157666	-0.233519	0.150492	-0.670654	0.058105	-0.342285	0.061353	0.028268	0.080801	-0.018912	-0.312121	-0.113205	-0.943084	16.122387	-35.762792	172.469749
02266		6.960619	1.747828	7.458043	-1.095956	0.530196	0.465698	-0.166143	-0.247737	0.163253	-0.668457	0.060303	-0.335693	0.069499	0.017597	0.074652	-0.018331	-0.313636	-0.112168	-0.942717	15.990882	-35.960457	172.552060
02267		6.685719	1.440391	7.425251	-0.881428	0.775819	0.213730	-0.119494	-0.224456	0.106740	-0.670654	0.060303	-0.333496	0.066766	0.014484	0.074319	-0.018147	-0.314725	-0.111425	-0.942445	15.906441	-36.098697	172.580408
02268		6.419048	1.949070	7.560301	-0.541653	0.265238	0.276784	-0.083119	-0.185022	0.081640	-0.670898	0.064697	-0.327148	0.064113	0.019548	0.075654	-0.017792	-0.315907	-0.110907	-0.942118	15.846857	-36.249037	172.619455
02269		6.504052	2.398241	7.399049	-0.671614	-0.207180	0.301963	-0.095660	-0.175687	0.093328	-0.670898	0.066895	-0.327148	0.064964	0.024048	0.074036	-0.017606	-0.316760	-0.110302	-0.941906	15.775491	-36.358306	172.648589
02270		6.567161	2.329534	7.511459	-0.633090	-0.127949	0.412728	-0.137162	-0.161767	0.123326	-0.666504	0.066895	-0.333740	0.065596	0.023387	0.075152	-0.017128	-0.317849	-0.109466	-0.941645	15.664952	-36.502096	172.721179
02271		5.813357	3.081727	7.808072	0.191983	-0.901557	0.356305	-0.190079	-0.173582	0.157237	-0.666504	0.069092	-0.322754	0.058041	0.030937	0.078102	-0.016790	-0.318719	-0.108315	-0.941490	15.512606	-36.620013	172.795255
02272		6.171599	2.571215	7.808967	-0.086114	-0.395248	0.459411	-0.238176	-0.195035	0.187208	-0.664551	0.078125	-0.325195	0.061616	0.025863	0.078119	-0.016186	-0.319985	-0.106904	-0.941233	15.321294	-36.791201	172.906987
02273		6.522936	2.288002	7.595621	-0.483108	-0.156228	0.444952	-0.267667	-0.232158	0.203101	-0.664551	0.078125	-0.318604	0.065118	0.023048	0.076001	-0.015788	-0.321149	-0.105310	-0.941023	15.111002	-36.948072	173.003007
02274		6.502298	1.905513	7.559043	-0.473569	0.175999	0.326081	-0.247068	-0.223476	0.188318	-0.664795	0.082520	-0.312012	0.064920	0.019210	0.075639	-0.015208	-0.322543	-0.103856	-0.940717	14.916051	-37.134244	173.112086
02275		6.466075	2.205193	7.579215	-0.399454	-0.146226	0.382235	-0.238043	-0.197424	0.171374	-0.656006	0.084717	-0.318848	0.064567	0.022198	0.075830	-0.014894	-0.323527	-0.102453	-0.940538	14.730690	-37.266758	173.194205
02276		6.700188	1.321915	7.467561	-0.660482	0.690792	0.261583	-0.235418	-0.193574	0.156040	-0.660645	0.089111	-0.319092	0.066919	0.013359	0.074725	-0.014434	-0.324761	-0.101108	-0.940265	14.551307	-37.430962	173.287774
02277		6.248588	1.432917	7.928933	0.003941	0.598587	0.366098	-0.203328	-0.215077	0.123576	-0.656250	0.093750	-0.314697	0.062392	0.014448	0.079342	-0.014297	-0.325805	-0.099944	-0.940031	14.406966	-37.566087	173.334616
02278		6.418003	1.643501	7.759326	-0.196804	0.354894	0.382127	-0.178722	-0.233107	0.115150	-0.660889	0.095703	-0.314941	0.064080	0.016541	0.077653	-0.013968	-0.327206	-0.098922	-0.939657	14.280240	-37.745856	173.392613
02279		6.651687	1.454968	7.678865	-0.413550	0.527424	0.428288	-0.161620	-0.233830	0.104596	-0.658691	0.098145	-0.312744	0.066419	0.014647	0.076855	-0.013862	-0.328331	-0.097984	-0.939365	14.169224	-37.888618	173.423734
02280		6.969140	1.620926	7.593555	-0.681330	0.360110	0.592333	-0.143011	-0.182886	0.087783	-0.658447	0.095947	-0.310303	0.069615	0.016294	0.075988	-0.013587	-0.329482	-0.097172	-0.939050	14.068204	-38.036235	173.471537
02281		7.073363	1.547627	7.352854	-0.899682	0.384747	0.460315	-0.116310	-0.120977	0.081916	-0.651855	0.100342	-0.310547	0.070683	0.015548	0.073562	-0.013457	-0.330068	-0.096492	-0.938916	13.980173	-38.113089	173.507296
02282		7.102098	1.572539	6.943400	-1.160058	0.279016	0.172295	-0.083247	-0.074567	0.069966	-0.656738	0.106934	-0.315186	0.070990	0.015779	0.069454	-0.013119	-0.330706	-0.095995	-0.938747	13.908719	-38.197993	173.561743
02283		6.742251	2.301898	7.167656	-0.705678	-0.439475	0.259097	-0.055948	-0.023387	0.074765	-0.656494	0.104736	-0.321777	0.067406	0.023064	0.071678	-0.012876	-0.330835	-0.095615	-0.938744	13.847576	-38.219570	173.609829
02284		6.610293	2.543589	7.135623	-0.604899	-0.706434	0.198205	-0.086467	0.003089	0.118114	-0.656738	0.106934	-0.321777	0.066089	0.025506	0.071344	-0.012277	-0.331133	-0.095031	-0.938706	13.744717	-38.267887	173.712496
02285		6.832449	1.888980	7.105814	-0.823943	-0.065133	0.190315	-0.099262	0.041343	0.133237	-0.652344	0.111572	-0.324219	0.068327	0.018971	0.071035	-0.011801	-0.330983	-0.094355	-0.938833	13.626036	-38.261289	173.813350
02286		6.840740	2.016046	7.167008	-0.784878	-0.197101	0.265569	-0.100617	0.066378	0.146472	-0.656982	0.115967	-0.335449	0.068416	0.020247	0.071637	-0.011057	-0.330995	-0.093666	-0.938907	13.496085	-38.277830	173.947732
02287		6.811250	1.707877	7.286797	-0.706683	0.105299	0.281710	-0.095450	0.102336	0.159446	-0.650391	0.120361	-0.335693	0.068136	0.017168	0.072825	-0.010423	-0.330571	-0.092967	-0.939133	13.361696	-38.240434	174.077482
02288		7.336016	1.508737	7.006450	-1.302435	0.276074	0.356441	-0.096700	0.108918	0.166946	-0.648193	0.118164	-0.335693	0.073386	0.015182	0.070017	-0.009556	-0.330393	-0.092265	-0.939274	13.220641	-38.235511	174.233634
02289		6.650814	1.496176	7.569234	-0.427819	0.309533	0.360134	-0.085008	0.134605	0.163362	-0.650391	0.120361	-0.337891	0.066547	0.015048	0.075641	-0.008871	-0.329820	-0.091611	-0.939547	13.087485	-38.180195	174.371204
02290		6.864008	1.707359	7.484819	-0.643334	0.084311	0.465015	-0.095463	0.133673	0.172881	-0.648193	0.120605	-0.344482	0.068675	0.017169	0.074794	-0.007965	-0.329528	-0.090902	-0.939726	12.941977	-38.161798	174.535195
