// General information: 
//  MT Manager version: 2019.2.0 
//  XDA version: 2019.2.0 build 3853 rev 94535 built on 2019-09-09
// Device information: 
//  DeviceId: 00B40AC5
//  ProductCode: MTW2-3A7G6
//  Firmware Version: 4.3.5
//  Hardware Version: 1.1.0
// Device settings: 
//  Filter Profile: human(46.1)
//  Option Flags: Orientation Smoother Disabled, AHS Disabled, ICC Disabled
// Coordinate system: ENU
PacketCounter	SampleTimeFine	Acc_X	Acc_Y	Acc_Z	FreeAcc_E	FreeAcc_N	FreeAcc_U	Gyr_X	Gyr_Y	Gyr_Z	Mag_X	Mag_Y	Mag_Z	VelInc_X	VelInc_Y	VelInc_Z	Quat_q0	Quat_q1	Quat_q2	Quat_q3	Roll	Pitch	Yaw
30876		10.664406	1.419000	7.946943	0.000000	0.000000	3.562432	-0.696314	-0.925964	0.909486	-0.669678	0.095215	-0.166260	0.106208	0.014951	0.079911	0.199512	-0.419080	-0.160135	-0.871162	10.597551	-52.567588	-159.446578
30877		11.431267	-3.995057	6.409895	0.000000	-0.000000	3.888388	-0.535293	-0.564834	0.664802	-0.665283	0.097656	-0.170654	0.114262	-0.039398	0.064528	-0.158484	-0.446863	0.254616	-0.842833	-31.406820	-56.508399	175.885418
30878		10.362163	0.909210	5.434779	-0.884888	-2.088851	1.702132	-0.350088	-0.382541	0.446937	-0.660645	0.093262	-0.181641	0.103497	0.009419	0.054530	0.082635	-0.476182	0.007729	-0.875422	-9.581323	-56.350397	-164.074461
30879		9.062877	1.504824	7.560738	1.705746	-2.398500	1.715636	-0.344845	-0.193462	0.409878	-0.658447	0.093262	-0.186035	0.090524	0.015364	0.075669	0.083615	-0.477153	0.010134	-0.874775	-10.155520	-56.419355	-163.622220
30880		8.565421	-1.016145	7.775392	1.763979	0.168482	1.664050	-0.245917	-0.128602	0.316003	-0.654053	0.095459	-0.192871	0.085620	-0.009930	0.077821	0.083342	-0.475415	0.010155	-0.875746	-10.045267	-56.200933	-163.753850
30881		7.753590	1.474542	7.652078	2.455588	-2.202711	0.673722	-0.144811	-0.167556	0.227442	-0.651611	0.091309	-0.206055	0.077455	0.014889	0.076575	0.084002	-0.476197	0.011260	-0.875245	-10.345510	-56.272353	-163.492499
30882		8.147322	2.396625	6.507271	1.350573	-3.214092	0.302287	-0.129258	-0.186800	0.227515	-0.654053	0.095703	-0.210449	0.081385	0.024101	0.065133	0.083597	-0.473475	0.009607	-0.876779	-9.876183	-55.961264	-163.850789
30883		7.456768	2.213865	6.598317	1.792296	-2.945118	-0.212883	-0.156002	-0.127191	0.245975	-0.658447	0.095703	-0.217285	0.074498	0.022282	0.066013	0.084312	-0.474085	0.010820	-0.876366	-10.190008	-56.008472	-163.580015
30884		7.658678	1.454560	6.789577	1.584747	-2.000525	0.205088	-0.166668	-0.118994	0.270238	-0.663086	0.100098	-0.221924	0.076527	0.014706	0.067929	0.079809	-0.468084	0.000556	-0.880072	-7.673573	-55.467728	-165.597738
30885		8.184738	1.830508	6.007751	0.721850	-2.535734	0.161410	-0.209003	-0.131546	0.310312	-0.676758	0.102051	-0.217529	0.081779	0.018495	0.060112	0.080686	-0.468745	0.002149	-0.879638	-8.064523	-55.518047	-165.268633
30886		8.049856	0.805507	5.942202	0.401939	-1.191288	0.146125	-0.214251	-0.102254	0.306355	-0.676758	0.106445	-0.222168	0.080456	0.008242	0.059454	0.073769	-0.461115	-0.013012	-0.884173	-4.481675	-54.818431	-168.136493
30887		7.148746	1.822494	6.938638	1.879310	-2.032542	-0.070633	-0.177658	-0.074316	0.284769	-0.674561	0.108643	-0.224365	0.071436	0.018388	0.069397	0.074614	-0.461527	-0.011598	-0.883907	-4.819182	-54.847642	-167.848147
30888		5.969585	2.300899	7.536550	2.899440	-2.005742	-0.576898	-0.177110	-0.048047	0.321786	-0.677246	0.115234	-0.218018	0.059641	0.023172	0.075359	0.067739	-0.452831	-0.027195	-0.888603	-1.267298	-53.945603	-170.636437
30889		5.633171	3.115116	8.275584	3.817149	-2.733171	-0.438209	-0.223030	-0.072353	0.398975	-0.681885	0.124268	-0.211670	0.056239	0.031356	0.082741	0.068997	-0.453281	-0.025326	-0.888332	-1.710673	-53.981104	-170.246168
30890		5.249087	2.116859	8.458556	3.700935	-1.361411	-0.430225	-0.293642	-0.088658	0.467329	-0.677490	0.128662	-0.220703	0.052404	0.021415	0.084577	0.061683	-0.437913	-0.042076	-0.895911	1.996795	-52.171849	-173.100509
30891		6.640112	0.963552	7.254603	1.762119	-0.530719	-0.103837	-0.346739	-0.081817	0.477347	-0.680176	0.135254	-0.203125	0.066348	0.009920	0.072556	0.063045	-0.438485	-0.039503	-0.895654	1.447517	-52.226924	-172.656782
30892		6.591982	0.541247	6.968658	1.139457	0.078392	-0.273054	-0.336382	-0.089032	0.455080	-0.676025	0.146484	-0.205811	0.065876	0.005680	0.069707	0.057605	-0.421846	-0.051493	-0.903369	3.979066	-50.183451	-174.566518
30893		7.327740	0.278697	6.767390	0.498643	0.212637	0.151092	-0.334767	-0.138104	0.441322	-0.674072	0.153076	-0.199463	0.073224	0.003062	0.067720	0.058857	-0.422679	-0.049090	-0.903033	3.490270	-50.278881	-174.180133
30894		7.036704	1.047093	7.025279	0.735878	-0.382837	0.151140	-0.313090	-0.144459	0.391086	-0.671875	0.157471	-0.195068	0.070295	0.010718	0.070287	0.055952	-0.411303	-0.054968	-0.908118	4.692008	-48.866048	-175.081214
30895		7.147836	1.307631	7.227725	0.872186	-0.663154	0.377543	-0.306109	-0.129892	0.355558	-0.667480	0.159912	-0.188477	0.071408	0.013314	0.072303	0.056901	-0.412075	-0.052883	-0.907833	4.290403	-48.956194	-174.781067
30896		7.444289	0.687303	7.414513	0.531363	0.039061	0.703052	-0.270341	-0.111953	0.343294	-0.663086	0.164307	-0.195313	0.074389	0.007101	0.074177	0.054830	-0.403839	-0.056929	-0.911409	5.093725	-47.933554	-175.380024
30897		7.507571	0.696913	7.102309	0.281246	-0.062342	0.541488	-0.259925	-0.119415	0.329942	-0.661133	0.168701	-0.197754	0.075022	0.007185	0.071059	0.055775	-0.404548	-0.055111	-0.911149	4.742307	-48.017928	-175.107439
30898		7.867164	0.730055	6.656315	-0.404886	-0.144722	0.509462	-0.221706	-0.122409	0.295866	-0.649902	0.173340	-0.195557	0.078620	0.007491	0.066603	0.054653	-0.399108	-0.057127	-0.913489	5.143066	-47.341490	-175.407976
30899		7.546173	1.094784	6.699200	-0.086003	-0.513888	0.323928	-0.169816	-0.124796	0.271132	-0.656982	0.179932	-0.197998	0.075405	0.011107	0.067030	0.055517	-0.399801	-0.055844	-0.913213	4.884364	-47.426294	-175.188648
30900		8.176561	1.258657	6.374004	-0.782237	-0.732281	0.575769	-0.167864	-0.162243	0.314361	-0.654785	0.182129	-0.200439	0.081694	0.012769	0.063796	0.055231	-0.397309	-0.057277	-0.914229	5.129776	-47.120826	-175.323705
30901		8.318836	0.850407	6.409916	-0.889921	-0.370549	0.679395	-0.234128	-0.143196	0.382776	-0.656738	0.175537	-0.197998	0.083126	0.008738	0.064149	0.056475	-0.398137	-0.055486	-0.913903	4.767550	-47.221483	-175.012709
30902		7.731006	1.142906	6.532303	-0.361302	-0.597613	0.348896	-0.271213	-0.148098	0.389567	-0.655029	0.186768	-0.202637	0.077239	0.011668	0.065365	0.056892	-0.398071	-0.056157	-0.913865	4.843408	-47.219064	-174.993433
30903		7.455233	0.386335	7.019005	0.087587	0.192884	0.431877	-0.245490	-0.172350	0.406379	-0.657227	0.188721	-0.200684	0.074484	0.004101	0.070249	0.058211	-0.399041	-0.054276	-0.913472	4.460129	-47.336370	-174.663176
30904		7.451070	-0.788716	6.735898	-0.277426	1.310928	0.173161	-0.203477	-0.200121	0.373423	-0.659912	0.197754	-0.207520	0.074458	-0.007680	0.067441	0.059004	-0.399692	-0.054698	-0.913112	4.469560	-47.424048	-174.569405
30905		6.938690	-1.235175	7.485646	0.568750	1.863197	0.282404	-0.108035	-0.242306	0.301892	-0.662109	0.199951	-0.205566	0.069315	-0.012207	0.074947	0.060100	-0.400911	-0.053673	-0.912566	4.230935	-47.575598	-174.329704
30906		6.290427	-0.058266	8.018708	1.591483	0.792525	0.222825	-0.044047	-0.350320	0.223243	-0.668945	0.202148	-0.205566	0.062764	-0.000495	0.080297	0.060835	-0.402037	-0.052563	-0.912087	4.002719	-47.712684	-174.138874
30907		6.736926	0.546716	7.904072	1.346645	0.134878	0.498837	-0.067650	-0.470400	0.241972	-0.666748	0.206543	-0.203369	0.067176	0.005575	0.079197	0.061679	-0.404265	-0.051911	-0.911082	3.831483	-47.991043	-173.960194
30908		6.929018	-0.812896	7.241246	0.548144	1.337635	0.138073	0.007248	-0.655552	0.285248	-0.675781	0.204102	-0.196777	0.069064	-0.008033	0.072639	0.062283	-0.405567	-0.050546	-0.910539	3.568477	-48.147554	-173.768543
30909		6.549014	-1.046886	7.518834	1.040500	1.629430	0.025005	0.024771	-0.816469	0.262734	-0.684814	0.204102	-0.194580	0.065196	-0.010392	0.075454	0.063323	-0.409339	-0.050380	-0.908787	3.445738	-48.623687	-173.585388
30910		6.601052	-0.376181	7.676046	1.279043	0.942474	0.192912	-0.001496	-1.006942	0.190322	-0.687012	0.203857	-0.183350	0.065626	-0.003699	0.077092	0.063267	-0.412013	-0.048015	-0.907710	3.057484	-48.942601	-173.417666
30911		6.303912	1.017395	8.309967	2.268700	-0.320471	0.413700	-0.050003	-1.150570	0.176951	-0.700684	0.208252	-0.170410	0.062551	0.010250	0.083458	0.063690	-0.417286	-0.047786	-0.905280	2.951367	-49.606235	-173.315446
30912		6.800120	2.327963	8.327530	2.229507	-1.692784	0.825487	-0.047208	-1.325767	0.263194	-0.704834	0.203613	-0.159180	0.067416	0.023388	0.083718	0.063351	-0.420693	-0.045317	-0.903853	2.552519	-50.016693	-173.172276
30913		6.760265	2.276519	8.405365	2.460527	-1.633096	0.808532	-0.075709	-1.482957	0.390348	-0.718506	0.210205	-0.145996	0.066932	0.022928	0.084543	0.064618	-0.427495	-0.044622	-0.900600	2.281977	-50.875042	-172.877658
30914		7.205784	1.523371	8.234823	2.028857	-0.966046	1.004129	-0.097992	-1.721834	0.490763	-0.716553	0.216797	-0.128418	0.071308	0.015450	0.082957	0.064705	-0.432035	-0.043230	-0.898493	2.001772	-51.439938	-172.726190
30915		7.938109	-0.266553	7.528630	0.965959	0.632538	1.069750	-0.123056	-2.016047	0.566854	-0.725830	0.220947	-0.110840	0.078624	-0.002395	0.076083	0.066547	-0.441230	-0.042102	-0.893932	1.561419	-52.604591	-172.257016
30916		8.047502	-1.364329	7.038283	0.508429	1.624702	0.829567	-0.122176	-2.353555	0.556870	-0.728271	0.231934	-0.075928	0.079677	-0.013377	0.071332	0.066681	-0.448592	-0.040710	-0.890315	1.221059	-53.533679	-172.049540
30917		7.234408	-0.725628	8.378419	2.426326	1.228267	0.941730	-0.163714	-2.762735	0.512974	-0.743896	0.227295	-0.055664	0.071196	-0.007004	0.084779	0.068028	-0.461005	-0.039748	-0.883893	0.755893	-55.121450	-171.592451
30918		6.092679	0.810650	9.556369	4.510157	-0.077352	0.615306	-0.234109	-3.223245	0.532932	-0.755127	0.227051	-0.026855	0.059354	0.008379	0.096519	0.067474	-0.472154	-0.037059	-0.878148	0.142396	-56.537116	-171.289031
30919		6.516640	1.508520	9.409095	4.638502	-0.825023	0.725840	-0.242786	-3.773273	0.677290	-0.755615	0.240234	0.019287	0.063324	0.015417	0.095279	0.069163	-0.488840	-0.035660	-0.868896	-0.622985	-58.697431	-170.547583
30920		5.869613	2.515332	10.095042	6.017803	-1.722787	0.360029	-0.253672	-4.311826	0.884859	-0.760254	0.249023	0.054443	0.056390	0.025535	0.102151	0.069204	-0.503280	-0.032459	-0.860736	-1.606640	-60.560450	-169.868414
30921		5.635993	3.935698	9.692358	6.471430	-3.173034	-0.367143	-0.408203	-4.975277	1.191671	-0.767090	0.253174	0.105225	0.053691	0.039882	0.098200	0.072474	-0.524858	-0.029415	-0.847588	-3.353944	-63.379137	-168.154483
30922		6.668640	4.677595	8.650260	5.585653	-4.197916	-0.204575	-0.759141	-5.723524	1.644222	-0.752197	0.275391	0.170898	0.063789	0.047641	0.088176	0.073602	-0.543708	-0.023627	-0.835707	-5.680046	-65.816657	-166.256248
30923		7.909396	4.077562	8.131650	5.180075	-3.892005	0.349482	-1.051966	-6.680126	2.147510	-0.746094	0.293213	0.234619	0.075878	0.042038	0.083668	0.078879	-0.571914	-0.015838	-0.816359	-10.557973	-69.434724	-161.635932
30924		7.868606	5.479210	8.264930	6.108605	-5.375065	-0.119655	-1.284781	-7.738513	2.719902	-0.717529	0.315430	0.313721	0.074661	0.056368	0.085232	0.082712	-0.597791	-0.007410	-0.797339	-16.978494	-72.651778	-155.629403
30925		10.520421	3.670155	12.137784	9.797629	-3.699754	2.899530	-1.406530	-8.547417	3.228956	-0.673340	0.333496	0.395264	0.099280	0.039210	0.125436	0.090973	-0.631917	0.004317	-0.769666	-31.136236	-76.396127	-141.787911
30926		13.625776	4.660026	10.619592	8.839344	-5.452870	4.749598	-0.997094	-8.587623	3.294806	-0.629150	0.356201	0.454346	0.130743	0.049333	0.111649	0.097454	-0.658174	0.011593	-0.746442	-47.513298	-78.613418	-125.490680
30927		20.757268	4.199429	9.687926	8.675750	-6.616798	10.751898	-0.957289	-8.678416	3.690201	-0.577881	0.372314	0.529297	0.202290	0.046252	0.105521	0.108466	-0.690064	0.023064	-0.715202	-75.702267	-79.133211	-97.342231
30928		18.453741	-1.660262	7.523483	7.279239	-0.962427	8.780012	-0.440560	-8.775220	3.927358	-0.511719	0.404053	0.585938	0.181277	-0.012843	0.083269	0.118649	-0.713895	0.028217	-0.689551	-95.724549	-77.914882	-76.901829
30929		24.999648	-2.810141	10.218762	12.017121	-1.202922	14.497449	0.337008	-8.351043	3.344680	-0.449219	0.415771	0.634277	0.245868	-0.024150	0.112471	0.132437	-0.741282	0.034009	-0.657118	-112.797452	-74.842782	-59.150149
30930		21.897203	5.008420	10.123304	13.958458	-8.114915	8.786407	0.625112	-8.621319	3.405626	-0.377930	0.436523	0.664795	0.213445	0.053415	0.110679	0.143572	-0.761112	0.035034	-0.631560	-121.499131	-72.048163	-49.588227
30931		27.453500	6.615192	10.194543	17.297518	-11.066761	12.075413	0.797659	-8.329699	3.502108	-0.309082	0.457275	0.695068	0.268758	0.070455	0.113497	0.158972	-0.785438	0.039826	-0.596849	-128.564072	-67.655279	-41.583016
30932		26.694399	4.956635	10.439648	18.469886	-9.005437	10.764601	1.255844	-7.586425	3.302338	-0.249023	0.475830	0.707764	0.261863	0.053220	0.114722	0.170795	-0.798868	0.035743	-0.575640	-131.612220	-65.163680	-37.164649
30933		23.988111	6.920498	10.372059	19.272837	-10.117947	6.212540	1.286536	-6.147453	2.597408	-0.208740	0.482910	0.716553	0.235614	0.071583	0.111463	0.184407	-0.814534	0.037145	-0.548770	-134.018823	-61.676704	-33.650920
30934		51.870520	3.806537	9.009808	28.580000	-13.816100	32.356839	1.192776	-3.154436	0.612536	-0.204834	0.498535	0.709229	0.517077	0.039080	0.098493	0.186342	-0.814362	0.023625	-0.549121	-134.829185	-62.320643	-31.559900
30935		29.111075	13.691497	15.154706	27.489078	-15.452952	6.622679	0.903499	0.412147	-0.734934	-0.222900	0.500488	0.689209	0.291922	0.135159	0.151559	0.187951	-0.812459	0.018535	-0.551580	-134.558451	-62.786132	-31.281622
30936		12.125247	13.651827	13.491567	19.302597	-11.483785	-6.506326	-0.038915	1.744866	-1.020886	-0.245117	0.493652	0.676270	0.123118	0.135919	0.133820	0.178722	-0.797776	0.002021	-0.575853	-133.509059	-66.647271	-31.830564
30937		3.844443	8.668712	10.576471	12.766247	-5.993101	-11.511121	-0.696956	1.971024	-1.031930	-0.267334	0.489014	0.665283	0.039930	0.086851	0.105074	0.172939	-0.792680	0.001672	-0.584592	-132.910768	-67.851555	-32.912268
30938		2.548450	4.267398	8.542011	9.635250	-2.150153	-10.266962	-0.796251	1.716871	-1.007045	-0.289795	0.486572	0.660889	0.026431	0.042882	0.085025	0.161345	-0.777331	-0.014174	-0.607885	-131.802931	-71.737134	-33.754333
30939		3.693062	2.320639	7.697969	8.693763	-0.801898	-8.378809	-0.546754	1.591812	-1.060008	-0.307617	0.479736	0.658936	0.037664	0.023218	0.076618	0.156103	-0.772819	-0.015347	-0.614936	-131.239598	-72.796596	-34.674589
30940		4.759661	1.425759	7.598939	8.504062	-0.049545	-6.633546	-0.189886	1.729060	-1.187308	-0.325439	0.479492	0.636719	0.048335	0.014044	0.075560	0.146436	-0.756215	-0.030556	-0.636994	-128.574001	-76.497105	-36.945942
30941		5.928338	1.415123	7.891229	8.915609	-0.113344	-5.350216	0.155108	2.067674	-1.338175	-0.352295	0.474609	0.627930	0.060188	0.013690	0.078304	0.143066	-0.749253	-0.034594	-0.645721	-126.407508	-77.826871	-39.076622
30942		7.550937	1.441310	8.242627	9.135229	-0.101211	-3.212491	0.464591	2.620131	-1.500686	-0.381592	0.474365	0.603516	0.076685	0.013651	0.081459	0.134190	-0.728535	-0.048180	-0.670006	-116.805262	-81.562574	-48.335876
30943		8.511179	0.967875	7.950395	8.583084	0.252211	-1.885759	0.721106	3.354944	-1.713434	-0.406250	0.471924	0.576904	0.086507	0.008658	0.078093	0.131860	-0.716265	-0.054577	-0.683080	-105.649268	-83.181005	-59.172874
30944		8.240173	0.594559	7.691186	7.591966	0.712581	-1.491657	0.940283	4.135605	-1.974602	-0.435303	0.469482	0.543701	0.084020	0.004765	0.075210	0.121885	-0.688902	-0.066249	-0.711456	-60.281583	-85.134058	-104.415043
30945		7.408300	0.723169	7.279704	6.846152	0.662243	-1.998252	1.113487	4.799886	-2.217817	-0.475586	0.462402	0.503906	0.075873	0.005998	0.071026	0.119377	-0.670163	-0.074899	-0.728711	-29.316433	-84.039602	-134.870232
30946		6.552279	0.659446	6.639959	5.613733	0.699896	-2.367742	1.189653	5.278795	-2.349534	-0.513428	0.455322	0.466553	0.067313	0.005422	0.064673	0.107113	-0.637144	-0.084174	-0.758610	-2.891031	-79.971023	-161.501502
30947		5.726753	0.667209	6.016460	4.734265	0.679167	-2.990501	1.176373	5.573809	-2.366688	-0.537842	0.444092	0.420166	0.058986	0.005633	0.058572	0.104179	-0.614075	-0.093150	-0.776776	4.196879	-76.756833	-168.046834
30948		5.488456	0.547324	5.582320	3.726586	0.732869	-2.946793	1.120559	5.714763	-2.277692	-0.564453	0.430420	0.385254	0.056505	0.004529	0.054251	0.090096	-0.578416	-0.099101	-0.804672	10.068508	-71.573006	-174.489828
30949		5.763138	0.011991	5.403019	2.896383	1.278650	-2.576500	1.097272	5.763230	-2.177019	-0.590820	0.412598	0.337158	0.059151	-0.000809	0.052337	0.087322	-0.553374	-0.107167	-0.821381	12.287049	-68.091123	-176.182429
30950		6.536059	-0.222536	5.826732	2.235825	1.648076	-1.507230	1.138073	5.776133	-2.124382	-0.608398	0.403564	0.290771	0.066975	-0.003255	0.056332	0.072127	-0.516953	-0.111033	-0.845712	14.404608	-62.923958	-179.093794
30951		8.286013	-0.699752	6.368429	1.206434	2.343039	0.322551	1.199395	5.835333	-2.157284	-0.621582	0.394531	0.246826	0.084585	-0.008276	0.061186	0.069308	-0.490390	-0.119521	-0.860482	15.683886	-59.373960	-179.769093
30952		10.027279	-1.731767	6.762535	-0.519115	3.580003	1.855153	1.379381	6.007892	-2.347850	-0.638672	0.370117	0.205322	0.102025	-0.018961	0.064451	0.051819	-0.452610	-0.123323	-0.881618	16.941121	-54.178053	178.015624
30953		10.794174	-1.525138	7.045206	-1.520089	3.655095	2.546025	1.635559	6.222345	-2.643693	-0.662842	0.349854	0.155029	0.109841	-0.017252	0.066918	0.047672	-0.422857	-0.134828	-0.894841	18.347545	-50.321142	177.422976
30954		11.073010	-0.343570	7.379002	-2.301282	2.883282	2.973746	1.800457	6.389386	-2.878537	-0.668701	0.330078	0.104736	0.112939	-0.005693	0.070160	0.026457	-0.383344	-0.139943	-0.912559	19.420341	-44.995595	175.213742
30955		11.682845	0.736658	7.941639	-3.102887	2.317385	3.789259	1.795952	6.483165	-2.960812	-0.683594	0.303223	0.052490	0.119406	0.004921	0.075625	0.020909	-0.351198	-0.152859	-0.923502	20.745931	-40.923993	174.779600
30956		13.179831	0.534740	8.540529	-5.066584	3.187674	4.712811	1.732417	6.556320	-2.980105	-0.694092	0.281006	-0.004395	0.134556	0.002641	0.081054	-0.001313	-0.311578	-0.158269	-0.936946	21.480533	-35.693433	172.849942
30957		15.374194	-0.285979	9.512586	-7.436846	4.813994	5.944871	1.726749	6.690881	-3.038268	-0.693115	0.250244	-0.056396	0.156732	-0.006017	0.089872	-0.007560	-0.277623	-0.171021	-0.945315	22.587049	-31.486392	172.639308
30958		17.707954	-1.586947	10.574121	-10.198254	7.233465	6.660278	1.859584	6.889963	-3.159688	-0.691895	0.219238	-0.110840	0.180287	-0.019645	0.099395	-0.030285	-0.237555	-0.177731	-0.954496	23.230953	-26.277902	170.871424
30959		19.858145	-2.589001	11.231168	-13.087525	9.120513	6.692828	2.199598	7.092699	-3.300046	-0.683838	0.179443	-0.171387	0.201912	-0.030385	0.104871	-0.037092	-0.200916	-0.193073	-0.959677	24.529378	-21.796175	170.779684
30960		22.137906	-1.147994	11.859303	-16.114522	9.260528	7.105974	2.583961	7.246809	-3.388306	-0.667236	0.155518	-0.228271	0.225222	-0.016736	0.110284	-0.061887	-0.161410	-0.202522	-0.963899	25.359915	-16.624603	168.887283
30961		24.454729	1.374684	11.879556	-19.749876	7.938663	7.143893	2.693995	7.358682	-3.437167	-0.652588	0.115723	-0.282227	0.248869	0.007974	0.109823	-0.068768	-0.123158	-0.220367	-0.965164	26.881969	-11.971641	168.978118
30962		25.675214	2.894224	11.110761	-22.364133	7.605093	5.438111	2.467382	7.361175	-3.553279	-0.629150	0.089600	-0.321289	0.261060	0.023034	0.101859	-0.093353	-0.085798	-0.229915	-0.964916	27.594710	-7.044976	167.215898
30963		25.546600	0.417564	9.229576	-23.260067	9.389731	0.597308	2.169004	7.048189	-3.874877	-0.610107	0.056641	-0.368896	0.258510	-0.001750	0.083222	-0.102931	-0.048283	-0.245130	-0.962801	28.842122	-2.436473	167.168944
30964		25.474861	-3.986766	6.652059	-22.914871	12.927728	-5.748439	2.077455	6.328683	-4.412208	-0.595215	0.021240	-0.400879	0.255702	-0.046135	0.057980	-0.129465	-0.017517	-0.253729	-0.958412	29.415718	1.840665	165.096972
30965		27.174282	-1.706140	4.311687	-25.376663	10.702446	-8.777445	2.070085	5.516811	-4.704093	-0.582764	-0.013916	-0.439453	0.272282	-0.023855	0.035386	-0.144732	0.013556	-0.267450	-0.952544	30.551155	5.925936	164.340562
30966		30.287537	1.256683	0.122778	-28.986230	8.279710	-12.948816	1.429912	4.867180	-4.594723	-0.574951	-0.044922	-0.467041	0.302969	0.005632	-0.006089	-0.173997	0.034609	-0.271689	-0.945892	30.563029	9.208010	161.674780
30967		29.408818	-0.369787	-5.338138	-27.246180	6.718887	-20.095123	0.241909	4.493198	-4.350031	-0.551514	-0.073242	-0.494873	0.292618	-0.010004	-0.059977	-0.188421	0.061541	-0.275857	-0.940539	30.539642	12.692433	160.821642
30968		24.160902	-7.710574	-11.320943	-18.615935	8.208668	-28.713111	-0.709277	3.923789	-3.991350	-0.541748	-0.095459	-0.520752	0.237722	-0.082288	-0.117613	-0.209159	0.077692	-0.270890	-0.936395	29.443866	14.999960	158.779861
30969		19.933990	-16.841813	-16.615542	-9.445927	10.896569	-37.179847	-0.719317	2.861461	-3.459881	-0.529785	-0.115234	-0.537842	0.193982	-0.172408	-0.168341	-0.221149	0.096509	-0.269103	-0.932396	28.760184	17.397089	157.806618
30970		20.867061	-18.931697	-19.238318	-8.006753	12.031037	-40.715898	-0.153825	1.698820	-2.641484	-0.520264	-0.130615	-0.546143	0.204502	-0.192185	-0.193985	-0.242078	0.097950	-0.264570	-0.928336	27.825820	18.056441	155.277350
30971		22.765134	-16.889805	-17.810879	-9.962654	11.998613	-39.435232	0.067830	0.811941	-1.600697	-0.520264	-0.135010	-0.550293	0.225564	-0.170648	-0.179085	-0.248457	0.103753	-0.265074	-0.925873	27.665929	18.895497	154.649935
30972		24.977756	-16.719407	-17.185593	-11.328183	14.174922	-39.300113	-0.216977	0.250752	-0.777904	-0.517822	-0.137207	-0.550293	0.248909	-0.168350	-0.171986	-0.269655	0.093815	-0.258352	-0.922897	26.663003	18.209639	151.774819
30973		23.370027	-13.228155	-16.170623	-11.776968	11.624463	-36.436004	-1.074286	-0.243548	0.140149	-0.527344	-0.121826	-0.546387	0.233989	-0.132983	-0.160708	-0.268815	0.093959	-0.253129	-0.924573	26.050833	18.049261	151.785358
30974		21.434585	-11.877689	-13.926591	-10.712861	12.311054	-32.793606	-1.905280	-0.909528	1.201015	-0.532715	-0.101807	-0.538330	0.215686	-0.118798	-0.137155	-0.287070	0.076803	-0.236639	-0.925037	24.195700	16.138216	148.999351
30975		15.948178	-13.886441	-5.690583	-5.420882	15.326803	-24.483335	-2.087530	-1.388112	1.993351	-0.547119	-0.073242	-0.525879	0.161242	-0.137839	-0.054348	-0.278655	0.071013	-0.225728	-0.930782	23.201624	14.951168	149.753030
30976		-3.771346	-2.180742	4.280885	4.497046	1.337744	-5.902369	-1.494812	-3.018744	2.458683	-0.559326	-0.042236	-0.504883	-0.038086	-0.021956	0.042400	-0.299895	0.041315	-0.206112	-0.930523	21.484076	11.567001	146.474800
30977		-18.243071	22.613654	31.447212	4.005406	-14.372046	30.314272	-2.318647	-3.039974	3.340593	-0.585449	-0.004883	-0.472900	-0.190938	0.226598	0.308987	-0.286911	0.027195	-0.191392	-0.938249	20.369622	9.256633	147.659855
30978		7.622939	15.380491	19.487753	-13.153439	-1.062258	12.548133	-4.056321	-5.234433	3.385631	-0.613770	0.034424	-0.425781	0.068489	0.158943	0.193548	-0.296812	-0.005583	-0.157109	-0.941907	17.476057	4.746427	145.748809
30979		19.518858	-23.773493	-4.967680	-3.397721	28.315223	-22.351065	-3.173204	-6.161259	0.558392	-0.643311	0.045166	-0.364014	0.197181	-0.237870	-0.039848	-0.298931	-0.030320	-0.132915	-0.944486	15.620652	1.271616	145.049191
30980		25.044500	-18.050806	6.695246	-7.230731	30.616209	-7.015622	-1.159665	-7.704114	-1.055720	-0.670410	0.049072	-0.313232	0.246637	-0.181388	0.077554	-0.335499	-0.075162	-0.104647	-0.933188	14.261640	-4.017607	139.948223
30981		41.240800	-29.735028	15.153610	-9.653380	50.876500	1.692470	0.008407	-6.392397	0.716922	-0.679443	0.055420	-0.264648	0.408348	-0.295888	0.164620	-0.335322	-0.105333	-0.093642	-0.931502	14.318268	-7.668199	139.439699
30982		33.991883	-12.481439	8.307218	-12.108819	33.210151	1.612069	1.372901	-4.518697	1.945224	-0.675537	0.071045	-0.234131	0.339136	-0.122115	0.089896	-0.376222	-0.143319	-0.068453	-0.912815	13.775962	-12.130585	133.730574
30983		41.365238	28.374693	7.499735	-44.331418	8.838347	13.184527	0.290824	-2.743714	1.536527	-0.675781	0.077637	-0.218750	0.410372	0.286793	0.081058	-0.369893	-0.156896	-0.063509	-0.913526	13.831811	-13.867281	134.223051
30984		4.485689	21.537732	2.836876	-17.424917	-10.893429	-1.461888	-1.241241	-2.114127	1.296761	-0.662598	0.086670	-0.210205	0.043165	0.215833	0.027492	-0.413969	-0.178625	-0.027775	-0.892161	11.928709	-17.201251	128.406163
30985		13.331466	-0.825362	6.839306	-4.999604	9.688977	0.497402	-1.346412	-1.969500	1.573762	-0.658447	0.095459	-0.201660	0.132689	-0.006741	0.069751	-0.408382	-0.184824	-0.016283	-0.893755	10.944703	-18.486181	129.099592
30986		8.926190	-5.241792	7.204292	1.835666	8.681056	-0.850588	-0.879240	-1.291350	1.505678	-0.652100	0.106689	-0.202148	0.089183	-0.051427	0.072846	-0.441554	-0.200485	0.013206	-0.874449	9.507373	-21.240974	124.630250
30987		12.922116	4.026824	9.000488	-6.968288	5.532436	3.790051	-0.771838	-0.784285	1.201403	-0.647705	0.111328	-0.204346	0.128621	0.041390	0.090352	-0.437007	-0.202126	0.019518	-0.876236	8.825342	-21.794448	125.283856
30988		10.124520	-1.158120	8.489573	-1.006808	6.300931	1.814941	-0.796651	-0.344930	1.097326	-0.645752	0.115723	-0.208984	0.101159	-0.010687	0.085114	-0.470519	-0.211715	0.045712	-0.855394	7.607420	-23.904673	120.760398
30989		10.027913	-1.701762	7.325635	-0.993741	6.743258	0.706789	-0.626400	-0.272277	0.833229	-0.639160	0.120361	-0.222412	0.100248	-0.016370	0.073445	-0.467548	-0.211214	0.049915	-0.856911	7.046314	-24.120571	121.257106
30990		9.487832	0.763635	6.008943	-2.682640	5.237448	-0.216786	-0.496564	-0.095932	0.673081	-0.645996	0.126953	-0.227295	0.094823	0.008105	0.060115	-0.501276	-0.218804	0.072924	-0.833984	6.241183	-25.980700	116.541966
30991		8.935486	0.235635	6.822742	-1.839105	4.726032	0.223746	-0.426662	0.040069	0.589932	-0.650879	0.133545	-0.227539	0.089361	0.002765	0.068204	-0.499292	-0.217353	0.075250	-0.835346	5.831535	-25.993792	116.918750
30992		8.151887	-1.197129	7.217119	0.267434	4.355582	0.233715	-0.342490	0.038704	0.487196	-0.646484	0.140137	-0.240967	0.081561	-0.011649	0.072176	-0.531548	-0.223544	0.095706	-0.811372	5.335204	-27.677809	112.225371
30993		8.080679	-0.972494	6.628398	-0.117973	4.416754	-0.291293	-0.253613	0.015379	0.369273	-0.651123	0.142334	-0.238770	0.080830	-0.009492	0.066290	-0.530338	-0.222633	0.097110	-0.812247	5.078733	-27.688708	112.464411
30994		7.480510	0.924584	6.740492	-1.291279	2.951767	-0.227977	-0.208662	0.042438	0.298287	-0.655762	0.146729	-0.241211	0.074805	0.009428	0.067379	-0.561253	-0.228076	0.115523	-0.787166	4.875323	-29.257979	107.748612
30995		6.440340	1.378879	7.365558	-1.331987	1.648110	-0.161772	-0.214776	0.063181	0.314519	-0.658447	0.155518	-0.241455	0.064405	0.013969	0.073620	-0.560294	-0.227046	0.116553	-0.787995	4.649787	-29.237432	107.958108
30996		5.408651	1.531278	8.412478	-0.883640	0.106178	0.265800	-0.213245	0.035631	0.336795	-0.658447	0.157959	-0.246094	0.054076	0.015494	0.084099	-0.588382	-0.231540	0.133407	-0.763150	4.592136	-30.689719	103.475369
30997		6.775801	-0.268201	7.758826	0.407681	2.038314	0.279972	-0.175290	-0.055045	0.310243	-0.660889	0.166748	-0.235352	0.067741	-0.002509	0.077609	-0.587362	-0.231030	0.134602	-0.763881	4.387631	-30.735736	103.678877
30998		6.277436	-0.110236	7.952468	0.566979	1.219028	0.229850	-0.078267	-0.113794	0.152003	-0.658691	0.166748	-0.230957	0.062730	-0.001024	0.079561	-0.613190	-0.235732	0.149566	-0.738957	4.609065	-32.128294	99.300039
30999		6.859353	0.081830	7.292894	0.182456	1.984960	-0.000943	-0.042771	-0.201511	0.076937	-0.661133	0.168945	-0.226563	0.068520	0.000860	0.072998	-0.612803	-0.236291	0.150438	-0.738923	4.562420	-32.247659	99.341333
31000		7.652599	-0.176512	6.626412	0.507707	2.798485	-0.096031	-0.034606	-0.268072	0.051393	-0.661133	0.168945	-0.219971	0.076438	-0.001734	0.066367	-0.636644	-0.240967	0.164393	-0.713859	4.966702	-33.597351	95.044346
31001		7.685207	-0.450852	6.898596	0.814094	2.687874	0.135620	-0.004872	-0.281327	-0.002395	-0.656738	0.173340	-0.217773	0.076755	-0.004508	0.069094	-0.636424	-0.241962	0.165309	-0.713507	4.973816	-33.758658	95.026216
31002		7.379922	-0.547427	7.657972	1.261381	1.733711	0.618542	0.019775	-0.307845	-0.086478	-0.656738	0.173340	-0.217773	0.073679	-0.005514	0.076693	-0.658993	-0.246306	0.178189	-0.687976	5.566627	-35.012521	90.708230
31003		6.824759	0.330560	7.807506	0.424439	1.099988	0.495246	0.067681	-0.364653	-0.171098	-0.658691	0.168945	-0.213135	0.068108	0.003221	0.078200	-0.659169	-0.247939	0.178953	-0.687021	5.688083	-35.211766	90.564223
31004		7.190124	1.898819	7.526288	-0.971730	1.309366	0.641477	0.069495	-0.393713	-0.159809	-0.647461	0.168945	-0.210938	0.071768	0.018905	0.075411	-0.679826	-0.252141	0.190892	-0.661681	6.433487	-36.385888	86.333869
31005		7.465761	2.781270	7.339994	-1.836308	1.601090	0.742544	0.050620	-0.367288	-0.078846	-0.647461	0.166748	-0.204346	0.074534	0.027765	0.073544	-0.679668	-0.253607	0.191881	-0.660997	6.512911	-36.590916	86.248822
31006		7.707396	2.635353	6.900804	-1.498787	1.958166	0.574288	-0.037072	-0.334321	0.010426	-0.645264	0.168945	-0.206543	0.076957	0.026370	0.069132	-0.698177	-0.256560	0.203308	-0.636704	7.207200	-37.632549	82.267972
31007		8.025104	1.261472	6.369230	-0.131437	2.422739	0.220939	-0.047483	-0.337883	0.098622	-0.654297	0.171143	-0.211182	0.080137	0.012669	0.063825	-0.697576	-0.257374	0.204773	-0.636565	7.155012	-37.832794	82.308545
31008		8.101474	1.305695	6.228390	0.042613	2.394622	0.207063	-0.034603	-0.343525	0.157453	-0.656738	0.173340	-0.208984	0.080897	0.013131	0.062421	-0.714470	-0.259625	0.215791	-0.612831	7.854066	-38.797144	78.472808
31009		7.881473	3.316498	6.769116	-1.997684	2.075760	0.705771	-0.108537	-0.375068	0.254929	-0.647949	0.177979	-0.211182	0.078645	0.033302	0.067821	-0.713419	-0.260115	0.217803	-0.613136	7.698197	-39.031020	78.621707
31010		7.511354	3.157236	6.870642	-1.757887	1.634179	0.571591	-0.203337	-0.405806	0.430928	-0.655029	0.186768	-0.211670	0.074906	0.031804	0.068826	-0.728564	-0.261058	0.229300	-0.590310	8.227496	-39.965681	75.035153
31011		7.282129	1.978263	7.387439	-0.720281	0.891538	0.685078	-0.229173	-0.440471	0.525944	-0.655029	0.186768	-0.207275	0.072606	0.020059	0.074012	-0.726797	-0.260923	0.232275	-0.591383	7.874286	-40.259040	75.379342
31012		7.431310	0.079843	7.275061	1.230926	0.520664	0.500922	-0.172681	-0.516841	0.501032	-0.655273	0.195557	-0.211914	0.074122	0.001047	0.072941	-0.740459	-0.261623	0.243474	-0.569205	8.424400	-41.177947	71.930762
31013		6.623781	0.267325	7.862753	0.769566	-0.452536	0.432869	-0.103876	-0.550119	0.431613	-0.659912	0.197754	-0.205322	0.066015	0.002857	0.078808	-0.738688	-0.262282	0.246380	-0.569952	8.189285	-41.526911	72.196331
31014		6.871152	0.119041	7.839163	0.979344	-0.515733	0.553307	-0.144213	-0.597585	0.398521	-0.666748	0.199707	-0.200928	0.068474	0.001384	0.078596	-0.751177	-0.262848	0.256912	-0.548307	8.813476	-42.393261	68.830008
31015		7.390032	-1.718037	6.967646	2.909237	-0.100779	0.068504	-0.184668	-0.707274	0.381115	-0.668945	0.204346	-0.198975	0.073686	-0.016975	0.069953	-0.749455	-0.263606	0.260584	-0.548566	8.565136	-42.828259	69.040348
31016		7.783987	-2.006318	6.025268	3.428732	0.404908	-0.378767	-0.111586	-0.831138	0.303469	-0.680420	0.206299	-0.194580	0.077619	-0.019912	0.060587	-0.760548	-0.264468	0.271093	-0.527381	9.265888	-43.733883	65.751153
31017		6.838527	-0.795019	6.840049	1.845290	-0.482981	-0.297188	-0.058336	-0.930934	0.247734	-0.682373	0.204102	-0.181152	0.068076	-0.007846	0.068720	-0.758697	-0.266367	0.275122	-0.527006	9.179442	-44.284614	65.827295
31018		6.694101	0.812329	7.153906	0.236100	-0.497900	0.002846	-0.077842	-1.017581	0.263151	-0.687256	0.210693	-0.181396	0.066565	0.008239	0.071875	-0.768360	-0.267316	0.285648	-0.506527	9.924806	-45.215952	62.646774
31019		6.686799	0.808122	7.102166	0.186139	-0.555072	-0.042152	-0.115287	-1.062038	0.294794	-0.693848	0.210449	-0.170410	0.066478	0.008220	0.071371	-0.766234	-0.269143	0.290421	-0.506067	9.795153	-45.845945	62.735740
31020		6.584535	1.362275	7.345093	-0.434759	-0.757251	0.106931	-0.122266	-1.063606	0.308726	-0.709961	0.217041	-0.161865	0.065432	0.013769	0.073791	-0.774648	-0.269491	0.300760	-0.486660	10.491604	-46.741398	59.732797
31021		6.649906	1.764713	7.782740	-0.944547	-0.964537	0.486962	-0.147981	-1.096313	0.377373	-0.716553	0.216797	-0.150635	0.066038	0.017830	0.078177	-0.772262	-0.271019	0.305882	-0.486412	10.299853	-47.399858	59.878750
31022		7.531553	1.136434	6.628448	0.154696	-0.039531	0.283117	-0.154461	-1.161685	0.455031	-0.718994	0.218994	-0.133057	0.074903	0.011586	0.066711	-0.779320	-0.270792	0.316398	-0.468214	10.900895	-48.307663	57.094448
31023		8.796371	0.160920	5.454166	1.675151	1.013918	0.351668	-0.165897	-1.252608	0.550929	-0.728271	0.229980	-0.124512	0.087615	0.001896	0.055090	-0.776249	-0.272205	0.322417	-0.468390	10.605181	-49.073317	57.361469
31024		8.241417	-0.111368	6.060784	1.532395	-0.077778	0.302167	-0.163714	-1.362957	0.573602	-0.730957	0.238770	-0.109375	0.082001	-0.000828	0.061168	-0.781898	-0.271706	0.333521	-0.451194	11.130617	-50.062226	54.763744
31025		7.529366	0.285921	7.145802	0.498027	-1.170475	0.493384	-0.176829	-1.548655	0.592021	-0.741943	0.238525	-0.087158	0.074728	0.003144	0.072035	-0.778186	-0.273517	0.340779	-0.451092	10.830040	-50.999626	55.021765
31026		7.055536	0.023697	7.626394	0.278561	-2.091809	0.360148	-0.190993	-1.804384	0.593101	-0.744873	0.253906	-0.063232	0.069862	0.000518	0.076896	-0.782146	-0.273379	0.353259	-0.434419	11.358553	-52.196921	52.519296
31027		6.520018	0.368415	8.439703	-0.628579	-2.932921	0.428082	-0.224700	-2.084969	0.598910	-0.758057	0.247070	-0.036377	0.064304	0.003973	0.085066	-0.777416	-0.275960	0.362711	-0.433487	11.092600	-53.437236	52.691433
31028		6.559891	0.103931	8.525269	-0.632726	-3.318516	0.400254	-0.239626	-2.453575	0.605474	-0.765137	0.260254	-0.008057	0.064543	0.001339	0.086047	-0.779135	-0.276559	0.377307	-0.417256	11.664567	-54.958667	50.259278
31029		6.621631	0.018437	8.646900	-0.780410	-3.625942	0.426951	-0.259673	-2.876255	0.627491	-0.763184	0.264648	0.024902	0.064962	0.000503	0.087409	-0.772667	-0.280339	0.389893	-0.415186	11.484032	-56.647073	50.297607
31030		7.537676	0.749505	7.691945	-0.986824	-2.419113	0.661401	-0.336024	-3.399306	0.765232	-0.763672	0.280029	0.062012	0.074025	0.007911	0.078172	-0.771150	-0.281660	0.408004	-0.399410	12.045035	-58.678031	47.975779
31031		7.069245	1.529682	7.208851	-1.897394	-2.088436	0.000841	-0.381916	-3.969547	1.008361	-0.765869	0.282227	0.110840	0.069165	0.015788	0.073442	-0.761406	-0.286003	0.425417	-0.396842	11.656903	-61.024434	48.171478
31032		6.354881	2.362906	8.392872	-3.696202	-3.061688	-0.150939	-0.427770	-4.650178	1.366086	-0.764404	0.304199	0.167725	0.061412	0.024235	0.085322	-0.754995	-0.287270	0.448792	-0.382157	11.861231	-63.797074	46.295752
31033		7.007245	3.057114	8.960499	-4.757692	-3.243681	0.460692	-0.602434	-5.494326	1.736758	-0.746826	0.315430	0.225098	0.067308	0.031437	0.091386	-0.739890	-0.291481	0.472999	-0.379307	10.729872	-67.080987	47.159690
31034		7.602977	3.851280	9.934191	-6.315077	-3.686054	1.040508	-0.951269	-6.501575	2.083855	-0.722656	0.331055	0.302002	0.072342	0.039759	0.101547	-0.726993	-0.291228	0.504364	-0.363710	9.974083	-70.940962	46.041441
31035		7.214686	3.907391	10.480304	-7.393407	-4.584287	0.256275	-1.128658	-7.497965	2.604384	-0.691650	0.346680	0.372559	0.067636	0.040575	0.107169	-0.704404	-0.293963	0.537062	-0.359118	6.473427	-75.409606	49.020397
31036		7.975897	3.097578	11.218975	-7.841374	-5.771834	0.392244	-1.284120	-8.362068	2.992244	-0.643066	0.369385	0.447266	0.074502	0.032850	0.115172	-0.683135	-0.291300	0.575213	-0.342930	1.182329	-80.294460	52.315567
31037		14.846232	2.174301	12.228849	-8.019178	-6.812291	6.426479	-1.117541	-8.575786	2.797227	-0.594238	0.387451	0.519775	0.142714	0.024472	0.128360	-0.654595	-0.293845	0.609901	-0.336425	-17.118803	-84.996533	70.105418
31038		15.537781	3.647784	9.272160	-8.674182	-4.142452	5.936848	-1.205151	-8.911874	3.105118	-0.524658	0.395020	0.581787	0.150454	0.039425	0.099269	-0.628485	-0.289518	0.647247	-0.319777	-96.270616	-87.114831	147.329312
31039		16.862605	-1.405954	5.003675	-3.476556	-4.721338	6.822826	-0.846885	-9.058684	3.426559	-0.457764	0.404541	0.645752	0.166334	-0.010962	0.057658	-0.594175	-0.289914	0.681259	-0.314312	-139.000179	-82.666976	-170.302186
31040		25.973654	-5.072802	8.608953	-5.921418	-11.040029	15.025478	-0.332818	-9.378948	3.222522	-0.377197	0.418701	0.689697	0.256090	-0.046424	0.098239	-0.562179	-0.285932	0.715675	-0.300013	-150.125347	-77.485407	-160.608147
31041		21.720036	1.458196	7.404715	-10.971112	-6.671704	9.251607	0.376714	-8.998254	2.892144	-0.314941	0.434814	0.727051	0.213338	0.017535	0.083737	-0.524475	-0.289822	0.743736	-0.296288	-153.506598	-72.153829	-156.884839
31042		34.351739	5.974981	8.162093	-20.161368	-6.666519	19.006635	0.673090	-8.568017	3.005086	-0.238770	0.444824	0.751221	0.338651	0.064556	0.096414	-0.491894	-0.286097	0.770831	-0.286370	-155.556269	-67.248962	-155.668646
31043		36.997784	6.249259	8.539592	-23.650441	-8.413203	19.340975	0.970370	-7.116558	3.102120	-0.182861	0.452148	0.755371	0.365598	0.067729	0.098779	-0.458254	-0.286502	0.790796	-0.287337	-155.181204	-62.799846	-155.468742
31044		23.431337	8.800884	8.709694	-21.336407	-4.501302	5.241482	0.909301	-5.278866	2.679551	-0.147461	0.465820	0.754883	0.230696	0.090700	0.093627	-0.438609	-0.276825	0.807475	-0.281025	-155.230449	-59.759624	-156.535124
31045		37.619240	3.399788	8.108489	-24.711952	-11.089117	17.731289	0.546295	-3.577830	1.671026	-0.136475	0.470459	0.757080	0.374360	0.036897	0.087891	-0.420958	-0.276253	0.816713	-0.281884	-154.911571	-57.495252	-156.541718
31046		35.081873	12.569369	17.013236	-35.116866	-9.593415	8.974240	0.435997	0.371874	0.260051	-0.156982	0.476807	0.741211	0.350971	0.125780	0.169754	-0.429461	-0.265113	0.818294	-0.275089	-155.120549	-58.071576	-158.060092
31047		8.848689	11.736026	13.547584	-19.763561	-2.591724	-11.313185	-0.008323	1.394359	0.154150	-0.179443	0.478760	0.738770	0.089338	0.117435	0.134850	-0.434939	-0.262545	0.815502	-0.277225	-154.442854	-58.754879	-158.860917
31048		4.657996	7.612211	10.801255	-13.591960	-2.254277	-12.359089	-0.445460	1.348206	0.181005	-0.195068	0.476318	0.727783	0.047237	0.076405	0.107526	-0.450465	-0.245949	0.816138	-0.265536	-154.943859	-59.985652	-161.075986
31049		5.651377	1.213939	8.207641	-8.423415	-5.374195	-8.843120	-0.217145	1.131732	0.084368	-0.210938	0.478516	0.712158	0.056972	0.012252	0.081742	-0.455216	-0.243616	0.813974	-0.266225	-154.508265	-60.549571	-161.720491
31050		6.950856	0.687673	8.058545	-8.787764	-5.505387	-7.324399	0.545002	1.235241	-0.317099	-0.226807	0.484863	0.700928	0.070015	0.006547	0.080172	-0.470092	-0.230734	0.812427	-0.256392	-154.915998	-61.902575	-163.488459
31051		9.057170	3.045702	8.568091	-11.444944	-4.354742	-5.970221	1.091203	1.682988	-0.773114	-0.256104	0.489014	0.682861	0.091405	0.029639	0.085077	-0.476618	-0.234276	0.806141	-0.260932	-154.266154	-62.961865	-163.515740
31052		10.267997	5.342289	8.757491	-13.459772	-2.428285	-4.955702	1.218301	2.455569	-1.086868	-0.290283	0.501953	0.657959	0.104034	0.052330	0.086624	-0.496830	-0.224305	0.799438	-0.252479	-154.486606	-65.180514	-165.125018
31053		10.881383	5.810326	8.342119	-13.532703	-1.926594	-3.906212	1.117726	3.406548	-1.289009	-0.319580	0.499512	0.629395	0.110587	0.056934	0.081868	-0.510715	-0.227901	0.787982	-0.257518	-153.408511	-67.256663	-165.602596
31054		10.070339	4.976253	7.603286	-11.953749	-1.478936	-3.577715	0.967219	4.365419	-1.473120	-0.357666	0.496826	0.593750	0.102695	0.048650	0.074043	-0.539521	-0.215712	0.775497	-0.246962	-153.072577	-70.620042	-168.159713
31055		8.564254	3.756689	6.757102	-9.827016	-1.759370	-4.031614	0.858418	5.143798	-1.644241	-0.395996	0.500977	0.560303	0.087648	0.036568	0.065492	-0.560352	-0.217981	0.758508	-0.251309	-150.865735	-73.662975	-169.960123
31056		7.213180	2.423716	5.761824	-7.605214	-1.679333	-4.297522	0.867743	5.652781	-1.793125	-0.438477	0.491699	0.522949	0.073935	0.023335	0.055648	-0.593975	-0.205109	0.740540	-0.238169	-148.914480	-77.802650	-174.336256
31057		6.342622	0.974332	4.973575	-5.630754	-2.278303	-4.427812	1.020126	5.909112	-1.908528	-0.476318	0.484619	0.478760	0.064947	0.008881	0.047878	-0.616770	-0.208078	0.719464	-0.242218	-142.987745	-81.222535	-179.765806
31058		6.053073	0.167986	4.505433	-4.425759	-2.361334	-4.174990	1.275374	6.016188	-2.064227	-0.503174	0.479980	0.432373	0.061860	0.000766	0.043213	-0.650042	-0.197828	0.697475	-0.227679	-130.292594	-85.457632	165.341799
31059		6.266622	0.276984	4.330838	-3.971754	-2.108837	-3.659613	1.515174	6.034453	-2.211929	-0.536621	0.470947	0.383789	0.063958	0.001749	0.041407	-0.671736	-0.203500	0.673582	-0.231616	-75.835168	-87.716821	111.680683
31060		6.967858	0.736673	4.351486	-3.796333	-1.496823	-2.646691	1.649529	6.049536	-2.312962	-0.558594	0.457275	0.333252	0.071029	0.006203	0.041434	-0.702856	-0.196617	0.648764	-0.215502	-2.289141	-85.356277	36.202848
31061		7.700885	0.791260	4.646106	-3.508097	-1.532513	-1.637715	1.689728	6.068887	-2.403730	-0.583008	0.446045	0.287109	0.078457	0.006596	0.044154	-0.723057	-0.203713	0.622898	-0.218376	9.082374	-81.790716	25.740336
31062		8.727050	0.225721	4.992864	-2.692594	-1.963839	-0.326104	1.726933	6.087595	-2.537517	-0.598145	0.430420	0.236572	0.088752	0.000722	0.047253	-0.751932	-0.199173	0.595841	-0.199755	16.274452	-77.326320	16.702062
31063		9.853125	-0.208865	5.321051	-1.780354	-2.392416	0.980717	1.813090	6.129961	-2.720288	-0.620117	0.414795	0.186035	0.100054	-0.003907	0.050129	-0.770638	-0.207864	0.567930	-0.200910	18.946474	-73.508364	15.016861
31064		11.013583	0.010956	5.719270	-1.009145	-2.275825	2.342424	1.889543	6.210532	-2.896671	-0.635254	0.396973	0.140137	0.111821	-0.002021	0.053725	-0.797018	-0.206471	0.538286	-0.179946	21.993135	-68.804821	10.286175
31065		11.818426	0.254031	6.336284	-0.405100	-2.330735	3.386286	1.910500	6.298315	-3.073214	-0.652344	0.370117	0.096680	0.120115	0.000123	0.059609	-0.814224	-0.216566	0.507956	-0.179219	23.617034	-64.797100	9.712359
31066		12.641777	0.089446	6.970683	0.644121	-2.803528	4.330947	1.931452	6.375815	-3.296306	-0.664795	0.345703	0.044434	0.128538	-0.001860	0.065622	-0.837768	-0.217939	0.475801	-0.155760	25.627846	-59.895695	6.133341
31067		13.379004	0.119443	7.609247	1.645973	-3.118339	5.166160	1.961162	6.412426	-3.543399	-0.672852	0.314697	-0.007813	0.136121	-0.001922	0.071744	-0.853031	-0.229446	0.443227	-0.152452	27.056441	-55.703461	5.775186
31068		14.359547	0.151194	8.319269	2.959236	-3.635294	6.103378	1.959423	6.435138	-3.751979	-0.685303	0.285889	-0.060059	0.146157	-0.001999	0.078509	-0.872914	-0.233673	0.409122	-0.126638	28.693151	-50.663795	2.702444
31069		15.543436	-0.259271	9.471363	4.421240	-4.673796	7.211254	1.952997	6.426779	-3.901121	-0.686523	0.252686	-0.120850	0.158267	-0.006554	0.089606	-0.885580	-0.245944	0.374986	-0.121012	29.979494	-46.359628	2.481545
31070		17.741052	-1.104036	10.771956	6.890628	-6.465242	8.694055	2.047534	6.400370	-4.026994	-0.685059	0.212891	-0.172607	0.180448	-0.015717	0.101831	-0.900981	-0.252796	0.339724	-0.094420	31.392436	-41.292792	-0.123474
31071		20.743208	-0.804588	11.992778	9.930274	-7.070787	10.823390	2.194801	6.435471	-4.085730	-0.679199	0.173096	-0.229004	0.210904	-0.013597	0.113049	-0.910349	-0.266398	0.304283	-0.087794	32.676830	-36.926088	-0.162981
31072		23.910099	0.204822	12.722034	13.527073	-7.330864	12.468810	2.273230	6.571717	-4.067205	-0.657715	0.137939	-0.282959	0.243064	-0.004255	0.119251	-0.921095	-0.275849	0.267345	-0.063389	33.934764	-31.834811	-2.072210
31073		26.392042	0.928180	13.059784	17.140571	-7.209764	13.028004	2.273312	6.743517	-4.033020	-0.640625	0.100586	-0.328369	0.268219	0.002484	0.121655	-0.927473	-0.289353	0.229801	-0.057091	35.078811	-27.342386	-1.747371
31074		27.501715	-0.408313	12.156168	20.581475	-8.538547	10.368142	2.241915	6.814485	-4.100401	-0.610352	0.065430	-0.369141	0.278764	-0.011065	0.112006	-0.933947	-0.299891	0.191037	-0.036229	36.174953	-22.244897	-2.905022
31075		26.157410	-5.251149	9.849123	22.434665	-11.209088	3.580574	2.328243	6.544406	-4.387969	-0.595459	0.028076	-0.412109	0.263343	-0.059352	0.089227	-0.936708	-0.313527	0.153332	-0.027733	37.427002	-17.736799	-2.659316
31076		26.626933	-1.902035	7.973247	23.910920	-7.919503	2.075494	2.454759	6.010676	-4.559660	-0.571777	-0.007080	-0.446289	0.267959	-0.026028	0.071404	-0.938013	-0.326175	0.116905	-0.008620	38.751174	-12.999301	-3.535807
31077		28.457277	1.432790	3.498991	27.119415	-2.773833	-0.834060	1.930455	5.455398	-4.331274	-0.550537	-0.040039	-0.471680	0.285604	0.007861	0.027304	-0.937622	-0.337324	0.084109	0.001688	39.848036	-9.008833	-3.477519
31078		27.254509	1.830924	-2.659833	27.302688	1.311325	-7.399064	0.840949	5.029672	-4.101132	-0.533936	-0.062012	-0.508545	0.272063	0.012857	-0.033383	-0.938081	-0.342062	0.052454	0.015704	40.232988	-5.029491	-3.761292
31079		21.107188	-7.871999	-8.859725	21.697771	-1.734961	-20.396173	0.102743	4.240032	-3.925484	-0.519531	-0.090576	-0.525391	0.207532	-0.082770	-0.093064	-0.938312	-0.343776	0.025849	0.026845	40.302109	-1.722021	-3.909559
31080		18.668797	-20.173919	-15.277883	18.338151	-6.767728	-34.442683	0.777903	2.856506	-3.945552	-0.505127	-0.119385	-0.539795	0.180454	-0.204737	-0.156179	-0.936872	-0.347422	0.004249	0.039377	40.650089	1.111606	-4.401717
31081		19.351570	-19.947169	-18.839832	18.033688	-4.178779	-37.821681	1.810094	1.505648	-3.657692	-0.501953	-0.145996	-0.547607	0.188411	-0.201224	-0.191646	-0.932813	-0.356205	-0.008796	0.053864	41.651257	3.140410	-5.414759
31082		23.284711	-12.950251	-17.575832	21.910645	0.114935	-33.022043	1.739066	0.562681	-2.550790	-0.503418	-0.165771	-0.549316	0.230686	-0.130915	-0.177544	-0.929528	-0.363338	-0.017430	0.060488	42.479657	4.379275	-5.743560
31083		26.925170	-11.238869	-16.233700	25.403780	0.079929	-31.479356	0.362554	0.195600	-1.066838	-0.505371	-0.172607	-0.553467	0.268489	-0.113527	-0.162805	-0.928509	-0.364994	-0.020162	0.065139	42.658438	4.875566	-6.121148
31084		26.198105	-12.182282	-15.747879	24.492396	-0.625292	-31.777960	-1.233236	0.183805	0.165483	-0.501465	-0.154785	-0.553955	0.261938	-0.122575	-0.156965	-0.931641	-0.358292	-0.023342	0.055911	41.860832	4.793050	-5.034616
31085		22.023671	-14.674921	-14.284150	20.145138	-3.306022	-31.895741	-2.101011	-0.230413	1.247162	-0.504639	-0.130371	-0.546143	0.221315	-0.146859	-0.141045	-0.935706	-0.348571	-0.020615	0.050282	40.693844	4.222685	-4.585270
31086		20.918447	-12.800096	-11.279906	19.694770	-3.625431	-27.912404	-2.286164	-0.943669	1.969243	-0.516846	-0.103760	-0.542480	0.210964	-0.127200	-0.110349	-0.940922	-0.336791	-0.015570	0.031543	39.317432	2.897330	-2.804803
31087		22.952200	-8.460009	-7.245245	22.408039	-3.078293	-21.612314	-2.394575	-1.412575	2.334434	-0.524658	-0.070801	-0.534912	0.230995	-0.082756	-0.069826	-0.945273	-0.325441	-0.005364	0.022764	37.967140	1.430156	-2.267070
31088		-11.595099	-4.183220	22.919516	-11.685851	-17.097591	5.946368	-2.044814	-2.021704	2.482770	-0.532227	-0.046387	-0.502441	-0.117751	-0.040948	0.228433	-0.949142	-0.314790	0.005952	0.001232	36.698834	-0.602992	-0.348705
31089		-8.884171	17.346784	19.969297	-9.591712	2.366173	16.281330	-2.861875	-2.111340	2.730126	-0.533447	-0.013184	-0.486084	-0.093308	0.175039	0.196226	-0.953358	-0.301049	0.020253	-0.008300	35.045307	-2.499718	0.208280
31090		-11.543045	26.001905	28.823451	-14.477782	5.320348	27.624456	-4.340769	-4.713961	2.970223	-0.559814	0.035156	-0.447754	-0.125995	0.264332	0.279641	-0.958679	-0.279672	0.046008	-0.024533	32.464025	-5.850638	1.227166
31091		23.376589	-19.054430	-3.477369	25.034671	-14.150954	-19.519808	-4.378051	-5.692624	1.608559	-0.592041	0.056885	-0.397705	0.236076	-0.189254	-0.023922	-0.962641	-0.258843	0.076047	-0.023245	30.075465	-9.116693	0.312496
31092		26.066187	-27.271176	0.905795	27.995570	-24.100585	-17.492749	-1.927356	-6.229682	-1.374479	-0.614258	0.052002	-0.350830	0.258275	-0.274336	0.019767	-0.962337	-0.250829	0.103494	-0.016764	29.338531	-11.981829	-1.151213
31093		33.633083	-27.581402	16.255755	31.335286	-33.192504	-1.328458	-0.739223	-6.244784	-0.301884	-0.625488	0.051758	-0.315430	0.330601	-0.275687	0.173960	-0.959578	-0.247841	0.133173	-0.007077	29.374103	-15.015938	-3.111755
31094		32.635445	-28.115766	12.478110	31.099976	-31.676111	-3.443433	0.955349	-4.301643	1.495675	-0.627930	0.056152	-0.293457	0.325683	-0.279334	0.130454	-0.954952	-0.252467	0.154434	-0.021825	29.960196	-17.816851	-2.184887
31095		21.443126	3.374677	6.595277	17.863140	-1.119658	4.126023	1.530387	-3.284465	1.793313	-0.637207	0.062744	-0.280273	0.212996	0.035137	0.069724	-0.950090	-0.258709	0.172185	-0.027406	30.861853	-19.959912	-2.256945
31096		14.825138	23.590155	6.116619	7.842309	16.942399	11.753606	0.565773	-3.064306	0.817173	-0.637207	0.067139	-0.271729	0.146319	0.236323	0.064086	-0.945819	-0.262639	0.186362	-0.041420	31.272710	-21.980260	-1.207365
31097		14.923811	22.786538	5.644914	7.761196	16.412823	11.262922	-0.866272	-2.475151	0.789411	-0.641846	0.067139	-0.253906	0.147631	0.228697	0.057293	-0.944395	-0.258308	0.199269	-0.041081	30.922804	-23.428214	-1.583314
31098		10.943655	0.898319	8.367125	6.797825	-3.504470	1.679807	-1.034410	-2.016054	1.157851	-0.644531	0.080322	-0.243164	0.108530	0.010050	0.084718	-0.942524	-0.254432	0.209563	-0.054743	30.261878	-25.017323	-0.217879
31099		13.207010	-3.158074	8.283092	9.506565	-6.898432	0.912932	-0.658595	-1.181444	1.061477	-0.644531	0.084717	-0.247803	0.131741	-0.030606	0.083712	-0.941795	-0.250544	0.216656	-0.057539	29.797170	-25.907765	-0.011661
31100		9.046230	1.248444	7.530086	4.961333	-2.506009	0.637100	-0.518093	-0.869770	0.890839	-0.642822	0.095947	-0.246094	0.090076	0.013082	0.075660	-0.940197	-0.249110	0.221241	-0.070903	29.325881	-26.829998	1.483263
31101		11.069319	-0.031481	7.138094	7.108678	-3.308662	0.770344	-0.577155	-0.776214	0.724823	-0.658691	0.102295	-0.248535	0.110415	0.000293	0.071810	-0.939779	-0.245879	0.225996	-0.072693	28.922295	-27.420690	1.645943
31102		12.095398	-3.623758	5.546246	9.520404	-5.369603	-1.403207	-0.401155	-0.442420	0.554297	-0.658936	0.106689	-0.241943	0.120930	-0.035791	0.055802	-0.938484	-0.245133	0.228262	-0.083989	28.536586	-28.009493	2.969458
31103		8.674229	1.524372	5.558550	5.067378	-1.035316	-0.773165	-0.275069	-0.193228	0.422378	-0.656738	0.108887	-0.242188	0.086656	0.015503	0.055648	-0.938416	-0.243454	0.229804	-0.085411	28.295454	-28.222116	3.149351
31104		6.350780	2.215622	8.251339	1.748780	-1.803371	0.532134	-0.302851	-0.117530	0.441153	-0.664063	0.124512	-0.242676	0.063410	0.022421	0.082517	-0.937343	-0.243066	0.230473	-0.095859	27.947681	-28.598290	4.420070
31105		7.301229	-0.036666	8.909474	2.951030	-3.968341	0.590744	-0.307479	-0.151044	0.448980	-0.661621	0.122314	-0.242676	0.072945	-0.000066	0.089150	-0.937321	-0.241192	0.231876	-0.097416	27.671069	-28.794962	4.631781
31106		6.975268	0.982143	7.906066	2.732856	-2.523477	0.101355	-0.203320	-0.150346	0.371442	-0.664307	0.135498	-0.238525	0.069675	0.010031	0.079103	-0.936147	-0.241172	0.232666	-0.106449	27.404617	-29.141277	5.721744
31107		8.440817	1.046186	6.708974	4.414073	-1.711458	-0.069029	-0.218107	-0.209141	0.352316	-0.673340	0.137695	-0.236572	0.084319	0.010684	0.067166	-0.935974	-0.239865	0.234188	-0.107583	27.212000	-29.340495	5.862678
31108		8.156254	0.309741	6.258277	4.546116	-2.051897	-0.817751	-0.152199	-0.162961	0.315144	-0.666992	0.144287	-0.229980	0.081506	0.003274	0.062647	-0.934776	-0.240028	0.235017	-0.115535	26.994673	-29.659134	6.818976
31109		7.567953	0.490510	6.932814	3.693403	-2.275775	-0.498294	-0.152733	-0.176016	0.288208	-0.664795	0.146484	-0.221191	0.075611	0.005067	0.069391	-0.934581	-0.239089	0.236276	-0.116482	26.851088	-29.823976	6.934369
31110		8.302924	0.460688	6.789146	4.367046	-2.076202	-0.228247	-0.092365	-0.188673	0.223830	-0.660645	0.155518	-0.217041	0.082960	0.004731	0.067968	-0.933357	-0.239559	0.237135	-0.123380	26.700976	-30.117671	7.753569
31111		7.346618	1.798072	7.055394	2.959442	-1.169951	0.028923	-0.074810	-0.190803	0.178745	-0.663086	0.159912	-0.215088	0.073383	0.018073	0.070617	-0.933107	-0.239128	0.238288	-0.123888	26.635344	-30.261497	7.801128
31112		7.208870	2.012548	7.123608	2.702148	-0.989623	0.111167	-0.147199	-0.187080	0.246672	-0.653809	0.157715	-0.210693	0.071997	0.020267	0.071289	-0.931970	-0.239231	0.239248	-0.130237	26.449961	-30.547774	8.566540
31113		7.362793	2.582112	7.089200	2.610969	-0.448625	0.391049	-0.198719	-0.201431	0.276836	-0.647461	0.166748	-0.217529	0.073521	0.025993	0.070940	-0.931781	-0.238117	0.240649	-0.131040	26.284198	-30.721808	8.670610
31114		7.832093	-0.032719	6.982432	3.961702	-2.495171	-0.422481	-0.220051	-0.202811	0.310497	-0.647461	0.168945	-0.215332	0.078250	-0.000129	0.069904	-0.930707	-0.237737	0.241854	-0.137010	26.042749	-31.019861	9.404606
31115		8.190952	0.328615	6.695326	4.209047	-1.972063	-0.303649	-0.195725	-0.230678	0.246010	-0.647705	0.171143	-0.215576	0.081828	0.003452	0.067044	-0.930488	-0.236698	0.243356	-0.137635	25.890934	-31.200607	9.483528
31116		7.150183	1.252214	7.376671	2.688999	-1.637006	0.046210	-0.131904	-0.213041	0.178496	-0.645508	0.173584	-0.217773	0.071412	0.012635	0.073835	-0.929403	-0.236848	0.244426	-0.142719	25.743584	-31.462836	10.094535
31117		7.048115	1.521604	7.381060	2.470860	-1.419677	0.104497	-0.075846	-0.215132	0.160274	-0.643311	0.173584	-0.219971	0.070389	0.015300	0.073881	-0.929112	-0.236465	0.245671	-0.143109	25.684028	-31.613954	10.127390
31118		7.230922	3.332171	7.282927	1.919817	0.222093	0.803126	-0.186575	-0.203254	0.193487	-0.645752	0.180176	-0.229004	0.072203	0.033460	0.072872	-0.928132	-0.236276	0.246782	-0.147794	25.501358	-31.865859	10.703007
31119		7.260522	1.664937	7.269622	2.569626	-1.151808	0.207531	-0.264440	-0.139926	0.324761	-0.652588	0.184570	-0.227051	0.072527	0.016863	0.072725	-0.928027	-0.234763	0.248012	-0.148802	25.268296	-32.018295	10.859163
31120		6.994438	1.452511	7.173745	2.430136	-1.270809	-0.067235	-0.285457	-0.139257	0.363835	-0.652832	0.188965	-0.220459	0.069868	0.014755	0.071765	-0.927142	-0.233807	0.249134	-0.153866	24.965498	-32.270319	11.516569
31121		7.469640	2.587130	7.188472	2.323731	-0.202530	0.614288	-0.379219	-0.164517	0.426334	-0.648438	0.191162	-0.231689	0.074582	0.026167	0.071897	-0.927046	-0.231655	0.250688	-0.155170	24.634559	-32.458606	11.730862
31122		7.616093	1.435411	6.840733	2.989353	-0.900156	0.041950	-0.481000	-0.223653	0.538511	-0.657715	0.199951	-0.234375	0.076045	0.014724	0.068457	-0.926150	-0.229600	0.252590	-0.160401	24.173204	-32.787706	12.441700
31123		7.628162	1.281468	6.968588	2.953733	-1.042031	0.116123	-0.440025	-0.328906	0.590958	-0.659912	0.199951	-0.225342	0.076128	0.013193	0.069782	-0.925756	-0.227089	0.255145	-0.162196	23.772016	-33.097757	12.717726
31124		7.120952	0.868584	7.275164	2.517989	-1.572497	-0.036350	-0.439055	-0.410839	0.605333	-0.660400	0.211182	-0.228027	0.071033	0.009061	0.072878	-0.924493	-0.225275	0.257984	-0.167358	23.334715	-33.532642	13.402030
31125		6.904895	1.200320	7.537828	2.023411	-1.423423	0.178119	-0.476772	-0.440028	0.577982	-0.667236	0.213135	-0.225830	0.068848	0.012382	0.075501	-0.923967	-0.222703	0.261068	-0.168911	22.926202	-33.894894	13.647698
31126		7.126206	-0.528048	7.363946	2.940777	-2.690597	-0.357470	-0.457907	-0.536565	0.581771	-0.667480	0.224365	-0.215088	0.071079	-0.004905	0.073842	-0.922558	-0.220914	0.264499	-0.173565	22.497953	-34.382633	14.267017
31127		6.895870	-0.101802	7.624579	2.381772	-2.481621	-0.124259	-0.331040	-0.643195	0.515701	-0.676514	0.226318	-0.206543	0.068715	-0.000714	0.076468	-0.921614	-0.219272	0.268323	-0.174787	22.218218	-34.836189	14.427344
31128		6.384920	-1.000826	7.773134	2.231692	-3.388884	-0.553919	-0.332537	-0.748201	0.412234	-0.678955	0.228516	-0.204346	0.063578	-0.009747	0.077986	-0.919903	-0.218456	0.272443	-0.178410	21.949046	-35.393717	14.870463
31129		6.515589	-1.734918	7.575026	2.655479	-3.882496	-0.828384	-0.277434	-0.907704	0.290713	-0.687988	0.232910	-0.188965	0.064836	-0.017149	0.076069	-0.918697	-0.217602	0.277182	-0.178369	21.820057	-35.938757	14.820751
31130		7.730079	-2.318558	6.771031	4.122937	-3.717333	-0.859569	-0.242261	-1.103632	0.209522	-0.699463	0.237061	-0.177979	0.076950	-0.023022	0.068164	-0.916553	-0.217781	0.282628	-0.180616	21.732999	-36.638052	15.022516
31131		7.635139	-1.821234	6.732149	3.725045	-3.342555	-0.763716	-0.187218	-1.312761	0.112005	-0.712646	0.232422	-0.168945	0.075917	-0.018106	0.067838	-0.914778	-0.217957	0.288932	-0.179426	21.792742	-37.360762	14.746612
31132		6.651656	0.229711	8.156162	1.263096	-2.579655	0.314905	-0.166396	-1.506491	0.053307	-0.717285	0.234619	-0.149170	0.065899	0.002383	0.082058	-0.912036	-0.219090	0.295956	-0.180553	21.885253	-38.240254	14.726528
31133		7.036065	0.919853	7.497395	1.385001	-1.654023	0.282191	-0.162994	-1.726491	0.179971	-0.724121	0.236572	-0.129150	0.069702	0.009323	0.075570	-0.909460	-0.219642	0.304165	-0.179228	22.013415	-39.196678	14.373858
31134		6.727163	0.700164	7.714958	0.976436	-2.069403	0.188640	-0.113623	-1.873330	0.230379	-0.730957	0.238770	-0.115967	0.066537	0.007123	0.077771	-0.905850	-0.221068	0.312957	-0.180617	22.143812	-40.303908	14.337778
31135		6.555429	1.718798	7.951989	0.069063	-1.446207	0.534383	-0.073631	-2.049982	0.306380	-0.744385	0.238525	-0.089355	0.064708	0.017317	0.080180	-0.902396	-0.222105	0.322633	-0.179609	22.347736	-41.457876	13.963187
31136		6.701206	1.835212	7.692797	0.034073	-1.263184	0.475748	-0.105072	-2.224096	0.442248	-0.751465	0.249512	-0.063232	0.066110	0.018540	0.077657	-0.897868	-0.223518	0.333161	-0.181319	22.477562	-42.790994	13.930408
31137		6.863618	1.156960	7.342237	0.419735	-1.697154	0.151960	-0.090641	-2.480553	0.594822	-0.760498	0.249268	-0.034424	0.067684	0.011805	0.074260	-0.893222	-0.224361	0.345020	-0.181046	22.646438	-44.234616	13.611061
31138		7.960063	0.432637	6.352329	1.794035	-1.672018	0.080758	-0.134799	-2.828385	0.752187	-0.765137	0.255859	0.003174	0.078675	0.004667	0.064637	-0.887149	-0.225613	0.358506	-0.183138	22.760543	-45.949975	13.573045
31139		7.580007	0.652332	6.905493	0.824342	-1.940069	0.242919	-0.217193	-3.130219	0.834793	-0.768066	0.277832	0.040039	0.074679	0.006912	0.070222	-0.880899	-0.226000	0.373486	-0.182891	22.910520	-47.788901	13.198294
31140		7.237167	0.915462	6.992383	0.082942	-1.915592	0.108019	-0.247129	-3.505481	0.974687	-0.772705	0.280029	0.079834	0.071086	0.009591	0.071166	-0.873035	-0.226907	0.390113	-0.184756	23.039197	-49.907843	13.062642
31141		6.932047	0.793916	7.197744	-0.542799	-2.272885	-0.065036	-0.320742	-3.888993	1.134401	-0.766602	0.297607	0.130371	0.067857	0.008444	0.073293	-0.864583	-0.226850	0.408593	-0.184628	23.200557	-52.212722	12.620117
31142		7.105341	0.943438	7.509675	-1.130440	-2.400856	0.222784	-0.409063	-4.335507	1.302921	-0.755859	0.313232	0.176270	0.069340	0.010045	0.076592	-0.854237	-0.227015	0.429005	-0.186275	23.324588	-54.837085	12.379462
31143		6.872658	1.912802	7.661309	-2.337089	-1.814021	0.227801	-0.634542	-4.853316	1.479621	-0.746826	0.315430	0.236084	0.066697	0.019873	0.078186	-0.842887	-0.225587	0.451865	-0.185660	23.451433	-57.726294	11.791010
31144		7.016444	1.875840	7.611361	-2.756384	-1.909394	0.157600	-0.760170	-5.583212	1.738995	-0.725342	0.342041	0.299561	0.067837	0.019649	0.077956	-0.828681	-0.224163	0.477788	-0.186433	23.584039	-61.098355	11.309640
31145		7.605914	1.974849	6.838174	-2.612370	-1.456726	0.163354	-0.935098	-6.483024	2.128905	-0.698486	0.351074	0.365723	0.073574	0.020868	0.070698	-0.811765	-0.221124	0.507621	-0.185640	23.788878	-64.990420	10.479968
31146		7.427220	2.312483	8.090149	-4.528315	-1.984054	0.259850	-1.225535	-7.281714	2.509051	-0.654297	0.369385	0.433838	0.070964	0.024535	0.083378	-0.791294	-0.216950	0.540630	-0.185759	23.916017	-69.422028	9.729530
31147		11.437234	2.097135	9.305258	-4.930941	-2.700408	3.973678	-1.475604	-7.730560	2.560041	-0.600586	0.378662	0.509033	0.110381	0.023109	0.097206	-0.768945	-0.211198	0.574893	-0.183352	24.528324	-74.063891	8.196151
31148		10.783966	3.087625	7.972848	-5.640407	-1.314032	2.667096	-1.377475	-7.863636	2.542035	-0.549316	0.387939	0.575439	0.104193	0.032784	0.083652	-0.744506	-0.206053	0.608511	-0.181568	26.192517	-78.785419	5.780035
31149		16.142153	2.112834	8.383717	-5.705492	-2.414346	7.412920	-1.433446	-8.260070	2.844317	-0.486328	0.388672	0.633057	0.157454	0.024018	0.090231	-0.717544	-0.199372	0.642886	-0.179106	30.733489	-83.728468	0.360154
31150		15.949988	-1.091865	5.386339	-3.032930	-3.819397	6.331045	-1.099177	-8.600300	3.099157	-0.405762	0.398438	0.690430	0.157128	-0.008150	0.060706	-0.687308	-0.193178	0.677088	-0.178442	70.494972	-88.546872	-40.022828
31151		26.689332	-1.122988	9.106815	-7.994023	-6.263234	16.508416	-0.482428	-8.934988	2.903901	-0.336426	0.410156	0.732178	0.262595	-0.007157	0.102887	-0.654181	-0.189459	0.710269	-0.177960	-176.514488	-85.359470	-153.343253
31152		17.387020	-4.994837	5.074912	-3.863274	-7.639525	6.906070	0.087403	-8.505650	2.793170	-0.262451	0.413330	0.760986	0.172179	-0.047560	0.058076	-0.620744	-0.187137	0.739915	-0.179393	-168.641691	-80.311875	-161.205812
31153		33.237158	2.014147	7.275398	-13.847263	-4.033765	21.056351	0.583672	-8.628541	2.509216	-0.193359	0.427490	0.773926	0.328535	0.024040	0.087053	-0.585404	-0.187224	0.767762	-0.181084	-166.702364	-75.174085	-162.845455
31154		36.766354	5.484303	8.432870	-20.010847	-2.384874	22.530390	0.916111	-7.268163	3.054699	-0.132813	0.434814	0.787109	0.363380	0.059988	0.097855	-0.553640	-0.184061	0.790462	-0.186480	-164.002184	-70.718854	-165.172940
31155		31.541483	12.083773	6.729763	-22.409590	4.356287	15.966030	0.587846	-6.109357	3.187494	-0.088379	0.446533	0.791260	0.311180	0.125603	0.077212	-0.525651	-0.178687	0.809283	-0.191893	-161.819327	-66.835328	-167.151150
31156		15.955322	8.013378	10.691729	-18.664989	0.309768	-0.619624	0.103455	-4.604546	3.020923	-0.048096	0.451416	0.793213	0.155802	0.082450	0.110576	-0.504535	-0.169527	0.823743	-0.195329	-160.019340	-63.823644	-169.261871
31157		59.396049	1.617251	11.725548	-36.119745	-9.096012	37.940961	-0.104221	-1.995990	1.707421	-0.054932	0.451416	0.793213	0.592584	0.021299	0.123164	-0.494687	-0.164176	0.830256	-0.197500	-159.060439	-62.409775	-170.402948
31158		24.210715	8.441820	15.899517	-26.987938	-2.026924	3.519664	0.290379	1.219481	0.687528	-0.082275	0.464355	0.779541	0.242780	0.085022	0.157639	-0.500180	-0.157928	0.827609	-0.199856	-157.622347	-63.003334	-172.216355
31159		10.959603	9.593427	13.697317	-19.812350	1.036600	-7.332105	0.135015	1.806814	0.530959	-0.106934	0.464111	0.768311	0.110573	0.096135	0.136042	-0.506993	-0.154266	0.823338	-0.203162	-156.174747	-63.835973	-173.747617
31160		7.221421	4.855704	10.649920	-13.626063	-1.178555	-8.368587	-0.047175	1.698925	0.406558	-0.134033	0.463867	0.754883	0.073016	0.048730	0.105870	-0.515465	-0.146840	0.819458	-0.203033	-154.840764	-64.746649	-175.786390
31161		8.140225	1.283709	9.147930	-11.198015	-3.545011	-6.120825	0.346964	1.637564	0.034005	-0.159180	0.474609	0.743408	0.082146	0.012693	0.090831	-0.521863	-0.145937	0.814882	-0.205739	-153.725391	-65.583360	-176.795487
31162		9.027495	2.193332	8.949067	-11.757789	-2.553138	-5.162714	1.029166	1.843780	-0.475164	-0.184082	0.485352	0.718750	0.091147	0.021259	0.088764	-0.531207	-0.144325	0.808697	-0.207363	-152.494370	-66.784010	-178.091941
31163		10.642455	4.323095	8.799545	-13.107027	-0.718503	-3.725008	1.406303	2.426441	-0.925477	-0.220215	0.489502	0.700684	0.107681	0.042121	0.086993	-0.540901	-0.149280	0.800038	-0.212321	-151.235579	-68.259949	-178.581308
31164		10.973676	6.118610	8.313158	-13.462575	1.152287	-3.151022	1.434816	3.249575	-1.195718	-0.252441	0.506836	0.673340	0.111434	0.059933	0.081763	-0.556377	-0.149799	0.788781	-0.214078	-149.402705	-70.365768	179.676244
31165		10.567444	6.355215	7.851154	-12.817940	1.537440	-2.956448	1.260150	4.126462	-1.290764	-0.301758	0.506348	0.642334	0.107675	0.062374	0.076699	-0.572944	-0.153950	0.774786	-0.218495	-146.818830	-72.764280	177.715046
31166		9.682077	4.977760	7.007364	-10.850902	0.945514	-2.815908	1.061397	4.933755	-1.370093	-0.340088	0.506104	0.609131	0.098850	0.048741	0.067912	-0.595132	-0.151951	0.758230	-0.218668	-142.437730	-75.684244	173.067729
31167		8.649678	2.935606	6.058080	-8.434578	-0.287200	-2.821394	1.036399	5.571921	-1.515391	-0.380371	0.505615	0.569092	0.088360	0.028385	0.058285	-0.616864	-0.154632	0.739042	-0.222227	-135.513903	-78.667608	166.579279
31168		8.137278	0.546620	5.395673	-6.154338	-1.828017	-2.438570	1.246000	5.997564	-1.764997	-0.411865	0.503174	0.524902	0.082984	0.004412	0.051514	-0.642405	-0.153357	0.717417	-0.221607	-122.286462	-81.775518	153.118281
31169		7.513773	-0.535829	4.788494	-4.526410	-2.402033	-2.506226	1.608424	6.316218	-2.074796	-0.456787	0.500488	0.469482	0.076535	-0.006520	0.045433	-0.665746	-0.158887	0.693340	-0.225425	-96.734677	-84.160760	128.313481
31170		6.928134	-0.159993	4.440840	-3.888464	-1.821328	-2.792755	1.940599	6.488488	-2.307903	-0.490234	0.498047	0.427246	0.070645	-0.002826	0.042107	-0.691570	-0.161272	0.667252	-0.224715	-53.169834	-84.492454	84.885341
31171		7.056465	0.699007	4.311220	-3.710927	-0.963037	-2.454646	2.061882	6.563292	-2.376419	-0.521484	0.486572	0.369873	0.072003	0.005711	0.040828	-0.714011	-0.168858	0.639886	-0.228519	-22.472482	-82.284148	55.186995
31172		7.202345	0.829283	4.543877	-3.409566	-0.847039	-2.013071	1.995998	6.595364	-2.365142	-0.548096	0.475342	0.314941	0.073559	0.006991	0.043104	-0.738301	-0.171594	0.611608	-0.226722	-7.075879	-78.786653	39.955282
31173		7.605924	-0.332223	4.963568	-2.471677	-1.923573	-1.283206	1.939778	6.556601	-2.384161	-0.572266	0.461914	0.264404	0.077580	-0.004706	0.047067	-0.758901	-0.178509	0.582763	-0.229327	0.814535	-75.103770	33.001718
31174		8.232981	-1.785361	5.398461	-1.229076	-3.167035	-0.403707	2.048267	6.467792	-2.550853	-0.589844	0.452881	0.213623	0.083772	-0.019449	0.051097	-0.780896	-0.182267	0.553187	-0.225754	6.194038	-71.130515	27.817806
31175		9.136794	-2.102170	5.758609	-0.324248	-3.414837	0.639198	2.287127	6.369131	-2.812109	-0.613770	0.426025	0.163574	0.092820	-0.022954	0.054390	-0.799074	-0.191672	0.522807	-0.226750	10.328175	-67.286340	24.800604
31176		10.127675	-1.389965	6.294983	0.061485	-2.894060	1.835603	2.485188	6.302824	-3.097305	-0.624268	0.406006	0.113281	0.102950	-0.016240	0.059530	-0.818523	-0.198950	0.491505	-0.221049	13.909936	-63.198149	21.642052
31177		11.375130	-0.033571	7.177001	0.149557	-2.031031	3.479076	2.523815	6.267621	-3.355512	-0.639404	0.388184	0.058350	0.115888	-0.003144	0.068132	-0.834538	-0.210463	0.459381	-0.219592	16.991140	-59.223977	19.779044
31178		13.024003	0.660260	8.328514	0.895071	-1.809366	5.524656	2.403232	6.280000	-3.592837	-0.654053	0.359375	0.006104	0.132849	0.003263	0.079193	-0.851959	-0.218702	0.426534	-0.210724	19.640822	-54.979888	17.491977
31179		14.949211	-0.039658	9.463283	2.876227	-2.687638	7.432057	2.281267	6.341071	-3.842912	-0.668701	0.323730	-0.043457	0.152333	-0.004349	0.089798	-0.866392	-0.229777	0.392600	-0.205991	21.966012	-50.800963	16.217934
31180		16.860818	-0.973504	10.304062	5.485444	-3.639298	8.838516	2.282813	6.449645	-4.099245	-0.674072	0.288330	-0.102295	0.171547	-0.014365	0.097393	-0.881870	-0.238404	0.357482	-0.194102	24.066906	-46.307303	14.408824
31181		19.228619	-0.975906	11.205669	8.186199	-3.774733	10.551981	2.401925	6.556033	-4.287637	-0.672607	0.244141	-0.160400	0.195530	-0.015222	0.105520	-0.894143	-0.250102	0.320837	-0.187138	26.059929	-41.863348	13.525084
31182		21.692159	-1.040793	11.487281	11.626576	-3.718341	11.500102	2.520922	6.615061	-4.468235	-0.668945	0.202148	-0.214355	0.220232	-0.016690	0.107440	-0.906546	-0.260219	0.283317	-0.173756	27.936760	-37.164764	12.139800
31183		24.199735	-0.294742	11.470575	15.081344	-2.769933	12.135759	2.549239	6.645441	-4.698976	-0.658447	0.160156	-0.263916	0.245446	-0.010081	0.106489	-0.915899	-0.272426	0.244614	-0.164553	29.762491	-32.529983	11.504133
31184		25.326082	-1.272572	10.410933	18.627576	-3.010609	10.059484	2.424176	6.585746	-4.984472	-0.641357	0.120361	-0.306885	0.256058	-0.020278	0.095491	-0.925017	-0.282637	0.205781	-0.148709	31.427730	-27.694909	10.331274
31185		24.603609	-4.962840	8.776953	21.404214	-5.271126	5.041858	2.291620	6.172099	-5.340392	-0.624268	0.078613	-0.340820	0.247116	-0.057161	0.079527	-0.931266	-0.293893	0.167804	-0.134953	33.075225	-23.070462	9.555156
31186		26.585153	-6.890882	6.717175	25.377812	-5.714829	1.243734	2.277105	5.442197	-5.587387	-0.618164	0.032227	-0.376709	0.265456	-0.077034	0.059097	-0.936158	-0.304441	0.132909	-0.115151	34.689359	-18.600113	8.169091
31187		30.968070	-1.250705	4.252812	29.096508	0.440837	1.651463	1.938143	4.944817	-5.223991	-0.605469	-0.005371	-0.406494	0.310129	-0.020966	0.034687	-0.938850	-0.313931	0.100604	-0.099430	36.039890	-14.556344	7.332709
31188		32.901703	1.848400	0.604338	31.388919	4.932080	-1.076422	0.764320	4.800215	-4.535746	-0.588867	-0.036133	-0.429688	0.329343	0.011013	-0.001808	-0.942113	-0.316759	0.070725	-0.084165	36.540913	-10.753348	6.650651
31189		30.030313	-2.832198	-4.670965	30.253690	3.951319	-10.493291	-0.550846	4.674417	-4.030281	-0.581299	-0.056152	-0.462402	0.298450	-0.034491	-0.053611	-0.945881	-0.313478	0.042517	-0.072343	36.268648	-7.226276	6.377639
31190		24.854202	-11.196684	-11.133958	26.374187	0.351489	-22.893463	-0.955770	4.243690	-3.801770	-0.558350	-0.071289	-0.483887	0.243919	-0.117180	-0.115997	-0.949332	-0.307826	0.016828	-0.061055	35.719511	-3.987554	6.074286
31191		20.558045	-18.555442	-16.780918	22.091355	-3.067512	-33.284014	-0.329379	3.336012	-3.367615	-0.544189	-0.093262	-0.505371	0.199581	-0.189229	-0.170862	-0.950878	-0.305447	-0.004099	-0.050152	35.552556	-1.308866	5.618659
31192		19.920718	-20.451614	-19.161091	20.543978	-3.405750	-37.171006	0.814584	2.294991	-2.537187	-0.541016	-0.115234	-0.522217	0.194376	-0.206214	-0.194698	-0.950082	-0.308373	-0.019203	-0.043384	35.990653	0.557647	5.410181
31193		20.089677	-17.526680	-17.373152	19.869457	-1.962171	-34.589990	1.512216	1.383083	-1.506701	-0.531494	-0.133057	-0.528320	0.198362	-0.175440	-0.176435	-0.947866	-0.315092	-0.028430	-0.038203	36.853388	1.708858	5.185387
31194		21.814275	-13.962229	-15.388812	21.187801	0.201216	-31.228697	1.210660	0.752448	-0.693710	-0.531250	-0.139648	-0.528076	0.217076	-0.139438	-0.155551	-0.945931	-0.320265	-0.033569	-0.038957	37.514759	2.209601	5.467124
31195		22.020375	-8.497985	-13.895754	21.087121	3.776655	-26.879437	-0.040245	0.419601	0.046931	-0.533691	-0.133057	-0.532715	0.219932	-0.084956	-0.139402	-0.945912	-0.320005	-0.035478	-0.039850	37.499087	2.384932	5.634415
31196		20.666705	-7.747765	-12.920052	19.803147	3.816685	-25.539578	-1.470011	0.017498	0.973630	-0.529541	-0.121826	-0.526367	0.207033	-0.077417	-0.128649	-0.947905	-0.312897	-0.034055	-0.049119	36.646761	1.938266	6.574624
31197		19.238499	-9.664841	-11.361051	18.834001	1.135409	-25.193885	-2.059851	-0.551170	1.661924	-0.537354	-0.090820	-0.523193	0.193496	-0.096203	-0.112086	-0.950725	-0.303529	-0.028340	-0.056472	35.482754	1.123348	7.158091
31198		18.378593	-9.580095	-8.176312	18.560573	-0.571386	-22.123616	-1.780005	-1.133435	1.984506	-0.544922	-0.071045	-0.510498	0.185185	-0.094685	-0.079870	-0.952603	-0.295388	-0.019784	-0.070016	34.440421	-0.210315	8.342192
31199		-3.521745	-3.685998	9.519917	-2.333701	-8.814384	-4.026759	-1.839064	-1.699792	1.977250	-0.559326	-0.042480	-0.487061	-0.035666	-0.036335	0.095233	-0.954673	-0.287386	-0.008128	-0.077090	33.380826	-1.649766	8.738538
31200		-14.191756	23.466109	7.916217	-17.540502	12.812479	8.700170	-3.208939	-2.830550	2.760590	-0.572266	0.001953	-0.466553	-0.146215	0.233871	0.073356	-0.957520	-0.273043	0.010364	-0.092176	31.484340	-4.024538	9.862423
31201		-14.361723	8.835345	28.783394	-15.866556	-9.716139	17.867262	-3.986389	-5.871049	2.560395	-0.604736	0.034668	-0.410156	-0.153110	0.092089	0.281621	-0.960795	-0.256345	0.043785	-0.096140	29.244660	-7.667599	9.425048
31202		25.768219	-6.304665	2.790147	26.245114	-2.793884	-5.999610	-3.762062	-7.340637	0.345240	-0.632324	0.053955	-0.348877	0.256506	-0.061945	0.038505	-0.962554	-0.241671	0.081236	-0.092119	27.364481	-11.590382	8.102732
31203		29.476015	-26.277027	-0.449899	34.048754	-19.320463	-14.930407	-2.197341	-8.010788	-0.980200	-0.666016	0.051270	-0.284424	0.293256	-0.264152	0.010167	-0.961565	-0.234979	0.119531	-0.076748	26.727246	-15.422931	5.441916
31204		45.777870	-31.746162	14.509053	47.108659	-30.625743	2.666108	-0.415043	-7.248343	0.606307	-0.673340	0.071045	-0.236328	0.453065	-0.315758	0.162226	-0.956190	-0.235966	0.155177	-0.077081	26.950683	-19.459143	4.512017
31205		42.118104	-23.430980	12.558429	41.169676	-23.422873	5.576595	1.029465	-4.301760	2.160657	-0.669189	0.079834	-0.209961	0.420871	-0.230435	0.133447	-0.950515	-0.240803	0.177843	-0.083106	27.551957	-22.216599	4.481532
31206		38.219780	20.096607	6.014972	27.699924	17.835682	18.740146	0.475262	-2.331408	1.885577	-0.662598	0.086670	-0.199219	0.379542	0.204402	0.065068	-0.945860	-0.243485	0.190930	-0.098030	27.627031	-24.137198	5.815605
31207		6.343642	23.898261	1.850714	-1.623752	20.328205	4.290840	-1.039874	-1.973378	1.278533	-0.658691	0.099854	-0.190674	0.061728	0.239475	0.017878	-0.944537	-0.238297	0.202309	-0.100670	26.970573	-25.477455	5.961043
31208		14.413652	-2.357119	6.957380	11.184023	-3.837644	1.227678	-1.251633	-1.741946	1.515470	-0.652344	0.111084	-0.186768	0.143693	-0.022040	0.070968	-0.941934	-0.233387	0.212963	-0.113747	26.049888	-27.019186	7.409116
31209		9.921987	-4.465283	8.892673	7.010193	-7.005078	0.149517	-0.740001	-0.875381	1.410815	-0.645752	0.115723	-0.191406	0.099139	-0.043623	0.089523	-0.941024	-0.228891	0.219142	-0.118575	25.361381	-27.821417	7.984198
31210		11.294658	2.815521	7.622793	6.141126	0.331030	2.668428	-0.594722	-0.212734	0.978953	-0.645752	0.120117	-0.200439	0.112725	0.028934	0.076263	-0.939162	-0.226870	0.221691	-0.131746	24.719509	-28.436663	9.614866
31211		10.778504	-2.420605	8.773001	7.037132	-4.705207	1.471791	-0.517333	-0.088212	0.753569	-0.645996	0.126709	-0.209473	0.107836	-0.023573	0.087839	-0.939145	-0.223663	0.223298	-0.134608	24.221070	-28.661337	10.038147
31212		8.394923	0.305971	6.828459	4.662605	-1.613628	-0.176704	-0.350937	-0.082118	0.482843	-0.648438	0.128906	-0.209473	0.083913	0.003382	0.068313	-0.937238	-0.223262	0.224579	-0.145953	23.821044	-29.087149	11.438573
31213		8.773338	0.877916	5.445796	5.237528	-0.338396	-0.876670	-0.317801	0.006421	0.432596	-0.646240	0.131348	-0.222900	0.087716	0.009055	0.054441	-0.937281	-0.221284	0.225262	-0.147629	23.511865	-29.183229	11.700000
31214		8.133625	1.855069	6.279916	3.956068	0.116769	-0.149868	-0.336667	0.103360	0.455941	-0.653320	0.140137	-0.225586	0.081326	0.018842	0.062726	-0.935414	-0.220826	0.225679	-0.159080	23.090073	-29.502666	13.145755
31215		8.099378	0.760103	7.249249	3.999733	-1.232123	0.247774	-0.369796	0.086501	0.537548	-0.651367	0.146729	-0.232422	0.081004	0.007953	0.072443	-0.935487	-0.218421	0.226161	-0.161271	22.706626	-29.576937	13.493979
31216		7.703610	-0.321260	6.893933	4.197156	-1.921460	-0.557056	-0.322749	0.084988	0.459402	-0.665039	0.153320	-0.239258	0.077072	-0.002924	0.068911	-0.933414	-0.218000	0.226704	-0.172685	22.280422	-29.901387	14.942834
31217		6.902779	1.789587	7.546378	2.393776	-0.582271	0.273411	-0.289361	0.097906	0.405793	-0.658447	0.157715	-0.232666	0.069028	0.018145	0.075404	-0.933486	-0.216104	0.226941	-0.174358	21.978537	-29.937224	15.215769
31218		7.260789	1.557714	7.410888	2.781518	-0.526685	0.289406	-0.284754	0.083407	0.453522	-0.658691	0.166748	-0.233154	0.072603	0.015847	0.074056	-0.931233	-0.215812	0.227491	-0.185683	21.562536	-30.254406	16.659614
31219		7.087308	0.901994	7.389099	2.914875	-1.059934	-0.013600	-0.274239	0.045419	0.460477	-0.656738	0.173340	-0.226563	0.070869	0.009284	0.073862	-0.931149	-0.213968	0.228033	-0.187565	21.256253	-30.326830	16.955261
31220		7.240857	-0.191766	7.362840	3.507712	-1.813028	-0.268742	-0.249516	0.022499	0.390524	-0.657227	0.184570	-0.220459	0.072420	-0.001684	0.073622	-0.928714	-0.213916	0.228801	-0.198447	20.874537	-30.656019	18.342218
31221		7.647717	-0.783729	6.802363	4.288876	-1.886956	-0.679298	-0.205212	-0.016463	0.261596	-0.654785	0.182373	-0.227051	0.076482	-0.007667	0.068038	-0.928652	-0.212679	0.229364	-0.199411	20.675511	-30.718472	18.501592
31222		8.371898	-0.049329	6.238580	4.682180	-0.690849	-0.506192	-0.171151	-0.010610	0.181159	-0.648193	0.186768	-0.213867	0.083716	-0.000364	0.062391	-0.926189	-0.213222	0.230005	-0.209303	20.397096	-31.018397	19.752069
31223		7.654816	-0.195059	6.694490	4.008744	-1.225558	-0.545628	-0.119036	-0.032214	0.126785	-0.646240	0.193359	-0.218506	0.076539	-0.001862	0.066958	-0.926144	-0.212557	0.230419	-0.209723	20.291351	-31.061552	19.824510
31224		7.193759	0.220869	7.414073	3.157055	-1.300800	-0.060337	-0.070204	-0.104247	0.066495	-0.646240	0.197998	-0.211914	0.071898	0.002259	0.074177	-0.923482	-0.213778	0.231271	-0.219076	20.109734	-31.386990	20.986805
31225		7.070039	0.113655	7.342089	3.119744	-1.391190	-0.208709	-0.055028	-0.187711	0.052697	-0.644287	0.202393	-0.207764	0.070631	0.001175	0.073487	-0.923264	-0.213666	0.232260	-0.219059	20.082899	-31.499087	20.977293
31226		6.478997	0.331244	8.059437	2.262130	-1.712573	0.136758	-0.027325	-0.236204	0.031628	-0.637695	0.204590	-0.205566	0.064694	0.003334	0.080670	-0.920370	-0.215243	0.233623	-0.228055	19.945150	-31.884889	22.082704
31227		6.788593	0.708036	8.188372	2.241170	-1.387939	0.516226	-0.030731	-0.298516	0.037847	-0.635254	0.202393	-0.209961	0.067762	0.007106	0.081984	-0.920008	-0.215394	0.235079	-0.227877	19.950518	-32.053908	22.038649
31228		6.767128	1.418982	7.860815	1.894979	-0.633813	0.463847	-0.040386	-0.342653	0.073306	-0.635254	0.202393	-0.207764	0.067531	0.014230	0.078721	-0.916905	-0.216959	0.236970	-0.236769	19.796877	-32.499821	23.134703
31229		7.314515	1.119423	7.518390	2.557843	-0.529925	0.407777	-0.033945	-0.377477	0.123530	-0.635498	0.207031	-0.212402	0.072996	0.011252	0.075320	-0.916344	-0.217099	0.238883	-0.236891	19.780783	-32.728258	23.127679
31230		8.031433	0.925980	6.950558	3.319619	-0.105982	0.318468	-0.044666	-0.416225	0.179248	-0.639893	0.206787	-0.218994	0.080161	0.009347	0.069670	-0.912963	-0.218602	0.241207	-0.246032	19.589890	-33.229316	24.266580
31231		7.060796	0.821944	7.429837	2.429826	-0.781025	0.148167	-0.115827	-0.456963	0.219728	-0.642334	0.208984	-0.218994	0.070429	0.008340	0.074455	-0.912262	-0.218364	0.243684	-0.246402	19.502021	-33.519258	24.304740
31232		6.630664	0.347162	8.032971	2.090558	-1.581977	0.274011	-0.113093	-0.502663	0.251691	-0.642578	0.215820	-0.214844	0.066100	0.003600	0.080494	-0.908666	-0.219592	0.246544	-0.255581	19.247621	-34.076551	25.470080
31233		6.816391	1.112868	7.701679	1.842163	-0.764904	0.338102	-0.108268	-0.581937	0.243641	-0.644775	0.218018	-0.217285	0.067926	0.011253	0.077209	-0.907748	-0.219536	0.249603	-0.255922	19.169281	-34.438550	25.497989
31234		7.072326	0.880918	7.951304	1.980990	-0.966699	0.635169	-0.114717	-0.689033	0.234264	-0.649170	0.215576	-0.208252	0.070438	0.008937	0.079751	-0.903866	-0.221030	0.253268	-0.264629	18.934286	-35.087125	26.602144
31235		7.113489	0.621717	7.810094	2.135042	-1.100904	0.493370	-0.168260	-0.762960	0.242430	-0.653809	0.219971	-0.208496	0.070829	0.006369	0.078366	-0.902753	-0.220963	0.257216	-0.264674	18.843601	-35.547019	26.591071
31236		6.753289	0.015283	7.808918	2.132999	-1.685825	0.146928	-0.098264	-0.879516	0.214703	-0.660645	0.222168	-0.204102	0.067188	0.000264	0.078385	-0.898547	-0.222844	0.261660	-0.272923	18.641512	-36.289621	27.633449
31237		7.691059	0.123296	6.805650	2.999302	-0.753220	-0.018792	-0.137905	-0.996647	0.216752	-0.669678	0.224121	-0.197510	0.076569	0.001363	0.068438	-0.897085	-0.223291	0.266577	-0.272611	18.608865	-36.871854	27.554364
31238		7.676369	-0.385730	6.450469	3.305541	-0.934621	-0.384917	-0.167386	-1.062413	0.206000	-0.676514	0.228516	-0.190918	0.076423	-0.003724	0.064914	-0.892620	-0.225184	0.271877	-0.280366	18.387423	-37.707710	28.547397
31239		7.262122	-0.531693	6.796073	2.888115	-1.446074	-0.390680	-0.174235	-1.152915	0.160605	-0.680908	0.221680	-0.173096	0.072232	-0.005199	0.068382	-0.891003	-0.225793	0.277457	-0.279552	18.380389	-38.365142	28.395416
31240		6.842315	-0.347511	6.848790	2.347203	-1.511599	-0.536457	-0.187133	-1.226985	0.110303	-0.690430	0.234863	-0.171143	0.068003	-0.003373	0.068909	-0.886345	-0.228046	0.283350	-0.286532	18.205981	-39.270076	29.285802
31241		6.860308	-0.403096	6.859251	2.287675	-1.619190	-0.516503	-0.183024	-1.297496	0.081813	-0.701172	0.223633	-0.159668	0.068158	-0.003940	0.069039	-0.884573	-0.228964	0.289464	-0.285159	18.254734	-39.992503	29.043495
31242		7.357892	-0.184089	6.829373	2.361117	-1.288267	-0.139187	-0.167510	-1.398084	0.067049	-0.706055	0.236816	-0.140381	0.073100	-0.001759	0.068807	-0.879602	-0.231693	0.295962	-0.291591	18.135884	-40.978531	29.855092
31243		7.013047	0.713400	7.193957	1.295070	-1.067628	0.118370	-0.124247	-1.480791	0.070968	-0.717041	0.225586	-0.128906	0.069593	0.007204	0.072452	-0.877421	-0.233184	0.302745	-0.290006	18.261785	-41.799003	29.555452
31244		7.396227	1.606564	6.741072	0.972376	-0.086268	0.275527	-0.099289	-1.613889	0.187284	-0.721680	0.229980	-0.115723	0.073400	0.016168	0.067997	-0.871751	-0.236436	0.310131	-0.296593	18.161476	-42.919090	30.389243
31245		8.143928	1.257993	6.144994	1.771595	0.198612	0.310856	-0.128555	-1.782735	0.354625	-0.728516	0.234375	-0.089111	0.080865	0.012763	0.062164	-0.868569	-0.237948	0.318516	-0.295830	18.204150	-43.954815	30.218433
31246		7.818301	0.173733	5.990691	2.162293	-0.659638	-0.224648	-0.097982	-1.952161	0.491647	-0.739502	0.227539	-0.071289	0.077589	0.001958	0.060665	-0.861726	-0.241342	0.327604	-0.303081	18.002675	-45.308306	31.189723
31247		7.494018	0.577521	6.058740	1.492342	-0.646633	-0.296743	-0.074087	-2.131954	0.552907	-0.744385	0.240723	-0.045166	0.074272	0.006004	0.061379	-0.857426	-0.243321	0.337567	-0.302762	18.036339	-46.569907	31.082134
31248		7.260230	1.363779	6.730058	0.304506	-0.704751	0.150768	-0.114985	-2.281001	0.632650	-0.749268	0.251709	-0.027832	0.071785	0.013905	0.068114	-0.849567	-0.247031	0.348095	-0.309904	17.793065	-48.122375	32.085569
31249		7.041384	0.788240	6.945973	0.278482	-1.441390	-0.000019	-0.149570	-2.451600	0.717361	-0.756104	0.253662	0.003174	0.069526	0.008185	0.070310	-0.844296	-0.248913	0.359617	-0.309649	17.746551	-49.587563	32.031816
31250		7.187147	0.335820	7.472144	0.198876	-2.167717	0.329087	-0.166088	-2.644702	0.708189	-0.764893	0.253418	0.034180	0.070862	0.003673	0.075660	-0.835431	-0.252940	0.371648	-0.316154	17.480523	-51.343835	33.003871
31251		7.295750	0.465171	6.953247	0.155911	-1.856970	0.102544	-0.239695	-2.881579	0.747696	-0.758789	0.269043	0.066895	0.071927	0.005006	0.070568	-0.829096	-0.255062	0.384987	-0.315164	17.451161	-53.049515	32.865469
31252		7.380031	0.064366	6.070045	0.631213	-1.657711	-0.423356	-0.273780	-3.226303	0.868722	-0.767822	0.273193	0.106689	0.072804	0.001046	0.061879	-0.818616	-0.259342	0.399537	-0.320906	17.112975	-55.143150	33.827151
31253		8.221650	-0.440716	5.696366	1.288496	-1.655515	-0.023640	-0.350946	-3.655539	1.005473	-0.763916	0.291016	0.150391	0.081177	-0.003896	0.058461	-0.809997	-0.261699	0.416314	-0.319533	17.002296	-57.316753	33.716622
31254		7.781879	0.324482	6.181864	-0.077792	-1.823999	-0.038762	-0.534779	-4.188430	1.135221	-0.752930	0.295410	0.203613	0.076481	0.003850	0.063420	-0.796819	-0.266024	0.435123	-0.324005	16.484438	-59.975784	34.698990
31255		6.983005	0.812050	7.174001	-1.683732	-2.671550	-0.278831	-0.639537	-4.845346	1.310366	-0.746582	0.308594	0.256348	0.068009	0.008803	0.073375	-0.784740	-0.268371	0.457086	-0.321296	16.224626	-62.853386	34.575742
31256		7.539760	1.283584	7.595009	-2.530058	-2.819522	0.276679	-0.774830	-5.629766	1.530249	-0.724609	0.324219	0.317871	0.073119	0.013701	0.077978	-0.766999	-0.273196	0.481790	-0.323968	15.463067	-66.359234	35.650638
31257		7.268557	1.723501	8.765667	-4.167840	-3.768340	0.238117	-0.971837	-6.384710	1.736664	-0.691162	0.331299	0.386475	0.069685	0.018282	0.089826	-0.749695	-0.275455	0.509969	-0.319394	14.891595	-70.152690	35.664398
31258		9.210022	3.867747	8.519789	-5.799937	-2.228589	1.749867	-1.373701	-6.915834	1.914328	-0.653320	0.340332	0.457031	0.088709	0.040136	0.088033	-0.727401	-0.278917	0.539815	-0.318893	13.225629	-74.410875	37.285636
31259		11.780896	2.426017	8.803603	-5.138651	-3.376654	3.761740	-1.404037	-7.266568	1.935015	-0.613281	0.354004	0.520996	0.114266	0.026014	0.092053	-0.706120	-0.279949	0.570801	-0.311783	11.624886	-78.717757	38.101564
31260		11.871045	3.577141	6.348865	-5.363783	-1.312120	2.971617	-1.129595	-7.531390	2.168837	-0.557129	0.356689	0.585205	0.115814	0.037412	0.067679	-0.679467	-0.284057	0.601106	-0.310337	6.358673	-83.299132	43.439259
31261		16.996207	0.885554	7.033020	-4.378149	-3.764135	7.668326	-1.140063	-7.884020	2.472476	-0.499268	0.370605	0.644775	0.166887	0.011358	0.076891	-0.652956	-0.284715	0.632662	-0.303850	-18.717919	-87.739702	67.915201
31262		15.318179	-1.695590	4.387802	-1.947384	-4.217136	5.518150	-0.741952	-8.328440	2.695035	-0.427734	0.382568	0.697754	0.151385	-0.014729	0.050266	-0.620302	-0.289027	0.663494	-0.302431	-138.022912	-86.334939	-172.505118
31263		25.515770	-2.959440	8.699165	-5.929533	-9.391232	14.918834	0.077555	-8.763065	2.377419	-0.355713	0.381104	0.733398	0.251350	-0.026627	0.098052	-0.586881	-0.294305	0.693320	-0.297091	-153.706223	-81.364301	-156.704071
31264		15.619617	-4.336241	5.319045	-2.731792	-8.163527	4.911563	0.829358	-8.521374	2.274345	-0.286621	0.399658	0.768311	0.154229	-0.041839	0.059615	-0.549694	-0.304114	0.718917	-0.297505	-156.864577	-76.244605	-152.391573
31265		31.387487	2.623386	6.754369	-13.706379	-7.791465	18.265563	1.406719	-8.843276	2.008283	-0.208740	0.420654	0.782959	0.310195	0.028821	0.081514	-0.512198	-0.313565	0.743441	-0.294322	-158.924082	-71.112584	-149.410329
31266		36.641852	4.692351	6.972194	-18.847254	-9.298726	21.344909	2.073619	-7.601987	2.442376	-0.155273	0.434570	0.793701	0.362802	0.050547	0.084072	-0.474466	-0.323348	0.762123	-0.299160	-158.085417	-66.443722	-148.472599
31267		33.407982	9.352301	4.743554	-21.947535	-5.477203	16.905276	2.114318	-6.342620	2.510134	-0.104492	0.459717	0.790771	0.331127	0.097109	0.058983	-0.442812	-0.328049	0.777599	-0.302722	-156.994123	-62.532893	-148.341407
31268		17.518238	10.502649	9.255877	-19.778545	-5.298827	-0.676661	1.660626	-4.756186	2.385941	-0.073242	0.462158	0.781738	0.171639	0.106292	0.097548	-0.416217	-0.331321	0.788449	-0.308770	-155.483339	-59.421712	-148.549378
31269		54.099603	5.861204	7.627565	-32.036372	-16.953072	31.483323	0.788485	-2.356299	1.580307	-0.073486	0.466797	0.777100	0.539562	0.062561	0.082880	-0.403121	-0.330304	0.794690	-0.311223	-154.617039	-57.812500	-149.037451
31270		25.651032	11.012846	14.078351	-26.382922	-11.247652	2.632678	0.500607	0.811632	0.627601	-0.091797	0.479736	0.767822	0.256733	0.110583	0.140018	-0.403749	-0.328173	0.792838	-0.317329	-153.251702	-58.048081	-150.058811
31271		13.101804	10.587135	12.332220	-19.569791	-6.678932	-6.942541	0.014270	1.609047	0.504277	-0.118652	0.477295	0.756836	0.131737	0.106194	0.122272	-0.409274	-0.323608	0.790390	-0.321025	-152.137104	-58.731474	-151.360651
31272		7.100599	5.544745	10.426375	-12.133185	-6.530931	-9.781752	-0.313062	1.675737	0.423587	-0.143311	0.474854	0.750244	0.071758	0.055761	0.103577	-0.415627	-0.318203	0.787931	-0.324292	-150.968272	-59.468757	-152.842489
31273		6.940512	1.014002	8.660177	-7.811993	-7.702264	-7.852300	0.030289	1.524682	0.133622	-0.164063	0.487793	0.734131	0.070056	0.010174	0.086071	-0.421341	-0.315226	0.784927	-0.327099	-150.094803	-60.188322	-153.835495
31274		7.551029	1.108501	8.036203	-7.860512	-7.248020	-6.896721	0.738844	1.598685	-0.295745	-0.188965	0.494385	0.716064	0.076166	0.010677	0.079795	-0.427156	-0.314485	0.779763	-0.332574	-148.866404	-61.085365	-154.739919
31275		8.450529	2.907194	7.900238	-9.504709	-6.285770	-6.288410	1.231657	1.973144	-0.698945	-0.213867	0.496338	0.700439	0.085380	0.028291	0.078339	-0.434028	-0.316504	0.772369	-0.338955	-147.687462	-62.254154	-155.280320
31276		8.831551	4.754932	7.674915	-10.906801	-5.123116	-6.031731	1.364072	2.517224	-0.948956	-0.248047	0.513672	0.673096	0.089497	0.046607	0.075948	-0.443675	-0.317636	0.762986	-0.346573	-145.991110	-63.792851	-156.347539
31277		9.121135	5.191295	7.280317	-11.059528	-4.605970	-5.384863	1.232306	3.168351	-1.062237	-0.281738	0.510986	0.648926	0.092625	0.050980	0.071659	-0.455560	-0.318848	0.752039	-0.353889	-144.137826	-65.626174	-157.618961
31278		9.197611	4.327957	6.821929	-10.042769	-4.600759	-4.537929	1.071813	3.833312	-1.180784	-0.313232	0.512939	0.615479	0.093516	0.042370	0.066665	-0.471116	-0.317305	0.739427	-0.361407	-141.387949	-67.829365	-160.056227
31279		9.624124	2.888416	6.444724	-8.646431	-4.961780	-3.247984	1.028382	4.492725	-1.371276	-0.353760	0.517090	0.588623	0.097852	0.027892	0.062406	-0.488421	-0.316553	0.724624	-0.368998	-138.008639	-70.297845	-163.045478
31280		9.655747	1.046492	5.867880	-6.610777	-5.176180	-2.181636	1.143147	5.151393	-1.663833	-0.387451	0.512207	0.548828	0.098108	0.009327	0.056220	-0.509295	-0.313895	0.707127	-0.376909	-132.740140	-73.115484	-168.075513
31281		8.582581	-0.427305	5.204035	-4.416875	-5.034026	-2.326528	1.403962	5.693505	-2.063231	-0.425537	0.511963	0.509033	0.087207	-0.005522	0.049535	-0.530848	-0.313850	0.686432	-0.385370	-125.438870	-76.090912	-174.813977
31282		7.787383	-0.875462	4.680221	-3.219142	-4.475762	-2.540324	1.706649	6.065509	-2.456736	-0.463379	0.500488	0.453857	0.079125	-0.010107	0.044332	-0.554720	-0.312980	0.662897	-0.393570	-113.189084	-79.052920	173.439925
31283		6.740447	-0.443682	4.119155	-2.711863	-3.525749	-3.271536	1.932644	6.242696	-2.730439	-0.499023	0.489014	0.414307	0.068572	-0.005752	0.039012	-0.577395	-0.314874	0.637123	-0.401925	-93.906097	-81.437790	155.003691
31284		6.179879	0.920459	4.134910	-3.453447	-2.650300	-3.716621	1.934211	6.231781	-2.783374	-0.532471	0.482178	0.361328	0.063165	0.007944	0.039476	-0.600815	-0.314647	0.610537	-0.408979	-65.031324	-82.310199	126.736993
31285		6.906011	1.972912	4.391354	-4.177923	-2.056907	-2.801511	1.638901	6.164303	-2.614446	-0.554443	0.464111	0.310791	0.070619	0.018464	0.041907	-0.622028	-0.314724	0.584224	-0.415586	-38.261286	-81.263640	100.645902
31286		8.335898	0.718367	4.676745	-2.819504	-2.310807	-0.949776	1.313742	6.142637	-2.423420	-0.581055	0.455078	0.260254	0.084820	0.005866	0.044218	-0.644045	-0.311011	0.558290	-0.420464	-20.606400	-78.715021	83.237304
31287		10.460062	-1.696877	5.034357	-0.251369	-2.868808	1.557931	1.333225	6.228227	-2.469517	-0.595947	0.435059	0.220947	0.105875	-0.018592	0.046939	-0.664159	-0.308888	0.531297	-0.425681	-9.747978	-75.628597	72.886731
31288		11.859576	-2.294497	5.284641	0.944712	-2.456137	3.104074	1.621406	6.435088	-2.747702	-0.611084	0.415039	0.175049	0.119876	-0.024993	0.048805	-0.685626	-0.305825	0.501888	-0.429530	-2.183719	-71.977921	65.718535
31289		12.536475	-1.512545	5.485250	1.039220	-1.494906	3.830380	1.915790	6.679916	-3.059453	-0.632813	0.394775	0.120361	0.126843	-0.017556	0.050471	-0.705521	-0.305469	0.469869	-0.433765	3.601615	-68.126377	60.732140
31290		12.486050	-0.356525	5.752355	0.754543	-0.580967	3.902749	2.053765	6.878357	-3.291166	-0.647705	0.370361	0.065674	0.126651	-0.006201	0.053133	-0.726510	-0.303590	0.435706	-0.436093	7.978267	-63.880280	56.970490
31291		11.979363	0.598155	6.380117	0.434086	-0.250411	3.760075	1.991887	6.942927	-3.412156	-0.666992	0.343506	0.011230	0.121984	0.003305	0.059633	-0.745458	-0.302843	0.400651	-0.438244	11.447958	-59.629629	54.326375
31292		12.348198	0.584842	7.210416	1.195243	-0.114597	4.444313	1.876294	6.844768	-3.458907	-0.675293	0.317139	-0.047852	0.125922	0.003034	0.067859	-0.764619	-0.299984	0.365386	-0.438018	14.075643	-55.241230	52.221159
31293		14.548246	-0.467173	8.476781	3.526061	0.112774	6.653496	1.831870	6.736623	-3.541786	-0.674072	0.286133	-0.099854	0.148103	-0.008025	0.079745	-0.781337	-0.298440	0.330062	-0.437613	16.375865	-50.985109	50.655258
31294		17.811994	-1.839180	9.744337	6.906911	0.944827	9.338972	2.003899	6.733430	-3.730361	-0.679443	0.246094	-0.156006	0.180864	-0.022683	0.091171	-0.798160	-0.296068	0.293417	-0.434959	18.424749	-46.547415	49.195567
31295		21.082662	-1.700996	10.894465	9.425037	2.758793	11.850618	2.301066	6.860951	-3.952178	-0.671631	0.210938	-0.217041	0.213985	-0.022414	0.101401	-0.812724	-0.295843	0.254969	-0.432374	20.541109	-42.087749	48.050590
31296		23.213472	-0.118184	11.729412	10.621053	5.075335	13.371074	2.499899	7.033976	-4.051609	-0.656494	0.168945	-0.273193	0.235959	-0.007334	0.108973	-0.826909	-0.294497	0.214596	-0.428301	22.433801	-37.385131	47.087056
31297		24.792532	1.539876	11.992756	11.755942	7.631504	13.935344	2.476327	7.107031	-4.009250	-0.637451	0.135986	-0.320801	0.252203	0.008958	0.111152	-0.838711	-0.293518	0.173847	-0.424486	24.196693	-32.738299	46.484144
31298		25.543775	0.950944	10.952255	14.338926	9.542392	12.010053	2.349316	6.958078	-4.006056	-0.611816	0.107666	-0.361816	0.259147	0.003125	0.100610	-0.849645	-0.290802	0.133464	-0.419195	25.672904	-28.073231	46.000329
31299		24.886318	-1.914183	8.473350	17.514118	10.089630	7.094845	2.321746	6.533078	-4.227689	-0.594727	0.065674	-0.397949	0.250955	-0.025351	0.076287	-0.858780	-0.289523	0.094621	-0.411971	27.241251	-23.644889	45.448534
31300		24.664863	-5.469066	5.770557	20.887807	10.255987	1.577661	2.489848	5.730631	-4.656457	-0.579590	0.023926	-0.425293	0.246780	-0.061090	0.049901	-0.867012	-0.289470	0.057879	-0.401431	28.881965	-19.436820	44.638069
31301		28.386237	-0.528128	3.679297	20.374578	16.600546	1.525222	2.443190	5.057974	-4.683109	-0.571777	-0.011475	-0.461670	0.284436	-0.012328	0.029481	-0.873752	-0.291041	0.024261	-0.388926	30.559587	-15.591905	43.705759
31302		29.908805	0.092000	-0.890986	20.848882	20.476115	-3.403571	1.633998	4.710073	-4.532919	-0.554932	-0.037842	-0.491699	0.298687	-0.005742	-0.015977	-0.880054	-0.288502	-0.006296	-0.377136	31.590028	-11.918983	43.011040
31303		24.849598	-4.278118	-6.847151	19.077270	17.490471	-13.364025	0.517190	4.347727	-4.469141	-0.542480	-0.073242	-0.514893	0.245892	-0.048109	-0.073956	-0.887161	-0.282271	-0.032820	-0.363582	32.037181	-8.454506	42.138904
31304		20.088560	-14.647104	-14.144904	19.922061	11.245537	-26.976978	-0.001330	3.424715	-4.258084	-0.525879	-0.101807	-0.529297	0.195246	-0.150669	-0.144824	-0.893471	-0.274329	-0.054149	-0.351456	32.054510	-5.512778	41.360687
31305		17.546074	-21.141506	-19.503050	19.763138	7.162426	-36.140490	0.413686	2.086097	-3.698758	-0.516113	-0.123779	-0.541748	0.169467	-0.214180	-0.197260	-0.898629	-0.271420	-0.069235	-0.337644	32.377406	-3.374006	40.205823
31306		20.505244	-20.708464	-20.092588	21.018097	8.977096	-36.842466	0.927769	0.709435	-2.652524	-0.513184	-0.141602	-0.545654	0.201574	-0.208836	-0.202611	-0.900751	-0.272459	-0.077703	-0.329205	32.848290	-2.258481	39.486710
31307		25.654486	-17.315378	-17.509633	23.679959	12.867914	-33.012382	0.710889	-0.010544	-1.516761	-0.512695	-0.154785	-0.545166	0.255234	-0.174469	-0.175701	-0.902247	-0.275052	-0.080869	-0.322114	33.277602	-1.791856	38.758996
31308		26.640981	-13.002918	-16.081829	22.530104	15.532788	-29.524748	-0.420006	-0.167904	-0.522643	-0.515381	-0.145996	-0.547607	0.266203	-0.131062	-0.160320	-0.902693	-0.272186	-0.080260	-0.323447	32.928042	-1.786463	38.898570
31309		22.408366	-11.536666	-14.085838	19.291568	12.770639	-27.086169	-1.906215	-0.566725	0.611997	-0.522949	-0.124023	-0.544189	0.224834	-0.116011	-0.139118	-0.904470	-0.264703	-0.073762	-0.326229	31.827598	-2.250914	39.025354
31310		21.937100	-11.915423	-11.540125	20.210202	11.217638	-24.714448	-2.699420	-1.248932	1.455201	-0.535156	-0.090820	-0.527588	0.220946	-0.119081	-0.112417	-0.904605	-0.254071	-0.061777	-0.336633	30.141868	-3.398982	39.908197
31311		9.974469	-11.732325	-0.932920	14.260594	-0.751007	-15.648142	-2.734535	-1.650719	1.916838	-0.542725	-0.066650	-0.510742	0.100927	-0.116465	-0.006903	-0.905198	-0.245000	-0.047243	-0.344035	28.535572	-4.763874	40.408078
31312		-1.559129	7.652992	5.041223	-4.713863	1.771714	-1.999926	-2.441691	-3.444557	1.988578	-0.557617	-0.031250	-0.485352	-0.017209	0.076970	0.049187	-0.903595	-0.239441	-0.024910	-0.354351	26.994849	-7.162011	41.104697
31313		-18.639283	22.801221	32.046331	-22.400269	-11.099654	25.807815	-3.461951	-3.730429	2.773863	-0.581299	0.006104	-0.448975	-0.195465	0.230803	0.312894	-0.902901	-0.230625	0.001427	-0.362741	24.932825	-9.781522	41.608128
31314		9.124849	11.988122	18.549558	0.903411	5.685237	13.374523	-4.832559	-6.267448	2.407529	-0.618652	0.045410	-0.395020	0.083953	0.125400	0.185217	-0.901645	-0.219436	0.041415	-0.370362	22.071093	-13.722833	41.973348
31315		24.829628	-30.774769	-5.596536	38.861793	-1.439736	-18.860654	-3.822642	-7.134929	-0.055935	-0.652588	0.051514	-0.337646	0.249855	-0.308699	-0.041174	-0.903716	-0.215215	0.080576	-0.361230	20.296153	-17.524885	40.414087
31316		33.291281	-25.370895	6.994048	41.405095	0.522228	-0.570039	-1.735470	-7.889278	-0.653963	-0.666260	0.060059	-0.280273	0.328922	-0.254094	0.085174	-0.900924	-0.221573	0.118782	-0.353739	19.840252	-21.764115	39.022571
31317		42.382377	-38.713951	14.002035	56.084826	-7.629322	7.122235	-0.156252	-5.846853	1.747184	-0.675781	0.079834	-0.234375	0.422843	-0.383326	0.152693	-0.894107	-0.230031	0.147295	-0.354913	19.829210	-25.256888	38.815662
31318		26.983993	-11.602147	6.076545	26.188328	5.008871	3.922141	1.267529	-4.141208	2.459385	-0.671631	0.084229	-0.210205	0.269917	-0.113108	0.065631	-0.882208	-0.241329	0.166463	-0.368456	20.105679	-28.134845	40.248886
31319		33.442852	24.362014	6.453677	3.500846	30.083246	19.103665	0.406766	-3.228930	1.632190	-0.656494	0.102295	-0.195313	0.331321	0.246193	0.070402	-0.875867	-0.247632	0.181924	-0.372075	20.197334	-30.195833	40.530519
31320		10.916681	27.146835	4.922020	-14.212868	19.390724	7.574671	-1.234834	-2.109583	1.422296	-0.658691	0.102051	-0.184082	0.106716	0.272535	0.048674	-0.869645	-0.245344	0.195341	-0.381268	19.074773	-31.792119	41.868291
31321		15.335684	-0.953856	9.876553	8.694496	2.471670	6.059090	-1.491277	-1.528687	1.894171	-0.648193	0.122314	-0.182617	0.152672	-0.007348	0.099994	-0.866271	-0.239857	0.207162	-0.386170	17.734871	-32.967897	42.766733
31322		13.086838	-9.068123	8.259413	13.497904	-2.358076	1.761050	-0.885595	-0.311826	1.560667	-0.644043	0.133545	-0.187500	0.131439	-0.089290	0.083196	-0.860827	-0.235643	0.212315	-0.397958	16.506549	-33.579005	44.610120
31323		11.384492	2.261649	6.663900	3.717807	4.169837	2.349436	-0.670647	-0.014197	1.084250	-0.642090	0.142334	-0.194580	0.113715	0.023457	0.066569	-0.859414	-0.231587	0.215014	-0.401925	15.718071	-33.761217	45.331420
31324		10.574627	-1.422058	6.275721	6.031130	1.982138	0.813913	-0.649832	0.017145	0.922150	-0.640137	0.146973	-0.201416	0.105815	-0.013529	0.062793	-0.855040	-0.228422	0.217605	-0.411556	14.792571	-34.065373	46.851103
31325		8.331018	0.391898	5.603218	3.337630	2.089783	-0.568889	-0.522464	0.082782	0.758023	-0.635742	0.151367	-0.212646	0.083317	0.004381	0.055987	-0.854143	-0.225148	0.219221	-0.414356	14.192113	-34.130146	47.380360
31326		9.012669	-0.550039	6.120301	4.249732	1.807138	0.069731	-0.461306	0.175750	0.660131	-0.642822	0.162354	-0.221924	0.090198	-0.005062	0.061136	-0.850141	-0.222739	0.220515	-0.423108	13.446539	-34.292878	48.752326
31327		6.136755	0.844013	8.022420	1.134992	-0.241056	0.256308	-0.369534	0.179879	0.545344	-0.647461	0.164551	-0.224121	0.061416	0.008756	0.080153	-0.849576	-0.220142	0.221172	-0.425254	13.002789	-34.266083	49.156322
31328		6.741762	0.824618	8.091117	1.371886	0.149408	0.660745	-0.342404	0.079472	0.535100	-0.647705	0.173584	-0.228760	0.067427	0.008565	0.080870	-0.845551	-0.218548	0.222534	-0.433312	12.376112	-34.452762	50.415869
31329		7.126809	0.007096	7.556006	2.304054	0.299653	0.310847	-0.297301	0.039088	0.473651	-0.647949	0.177979	-0.233398	0.071282	0.000352	0.075546	-0.844872	-0.216635	0.223565	-0.435062	12.011572	-34.490313	50.750927
31330		7.623423	-0.774090	7.007499	3.226557	0.582899	0.039733	-0.254671	0.011007	0.401433	-0.645996	0.186768	-0.233887	0.076253	-0.007499	0.070080	-0.840952	-0.215678	0.224913	-0.442376	11.487470	-34.687777	51.893976
31331		8.508675	-0.153045	6.336520	3.241405	1.878735	0.113841	-0.214904	0.021969	0.334108	-0.648438	0.193359	-0.229492	0.085096	-0.001320	0.063357	-0.840449	-0.214306	0.225693	-0.443600	11.223594	-34.715329	52.133056
31332		7.366750	-0.192788	7.071129	2.478196	0.757783	0.066141	-0.183975	0.026252	0.290526	-0.655273	0.197754	-0.223145	0.073679	-0.001756	0.070703	-0.836695	-0.213720	0.226731	-0.450398	10.777883	-34.884773	53.192357
31333		8.305738	-0.717555	6.725673	3.422238	1.321738	0.250914	-0.167875	-0.026003	0.226774	-0.646729	0.206787	-0.225586	0.083057	-0.007025	0.067273	-0.836313	-0.212775	0.227499	-0.451167	10.585253	-34.925793	53.352664
31334		7.408478	-0.856291	7.220423	2.940282	0.427197	0.133444	-0.100793	-0.064501	0.117285	-0.651367	0.211182	-0.221436	0.074066	-0.008483	0.072232	-0.832758	-0.212922	0.228564	-0.457096	10.259238	-35.122643	54.269631
31335		7.105416	0.208610	7.312979	1.848682	0.695218	0.192769	-0.049877	-0.118539	0.040172	-0.646973	0.215576	-0.214844	0.071010	0.002119	0.073171	-0.832562	-0.212895	0.229255	-0.457119	10.213700	-35.195985	54.290764
31336		6.923135	0.502873	7.311346	1.448436	0.725826	0.137873	-0.022371	-0.169246	0.032202	-0.644775	0.215576	-0.219238	0.069169	0.005048	0.073171	-0.829025	-0.213688	0.230490	-0.462526	9.972445	-35.438994	55.122046
31337		7.588500	0.481993	6.980166	1.822206	1.334864	0.258957	-0.035562	-0.208451	0.070575	-0.642578	0.220215	-0.203857	0.075810	0.004859	0.069880	-0.828636	-0.213897	0.231554	-0.462594	9.928633	-35.566168	55.154019
31338		7.502312	0.213130	6.984123	1.941370	1.151663	0.187952	-0.033230	-0.240489	0.120759	-0.637939	0.215820	-0.210449	0.074938	0.002188	0.069931	-0.824860	-0.214698	0.233200	-0.468111	9.649951	-35.853933	56.021681
31339		6.689865	0.829782	7.647087	0.890765	0.498169	0.330244	-0.023412	-0.263638	0.126109	-0.631348	0.220215	-0.210693	0.066793	0.008349	0.076558	-0.824258	-0.215027	0.234522	-0.468361	9.593195	-36.017614	56.087107
31340		7.596799	0.946886	7.341182	1.172386	1.328354	0.644931	-0.037210	-0.307867	0.170877	-0.631592	0.227051	-0.213135	0.075847	0.009547	0.073527	-0.820324	-0.215904	0.236503	-0.473835	9.294795	-36.343417	56.966263
31341		6.690710	0.572715	7.938690	0.961161	0.178110	0.539159	-0.076269	-0.327920	0.214214	-0.629395	0.227051	-0.208496	0.066771	0.005829	0.079494	-0.819485	-0.216070	0.238305	-0.474309	9.173607	-36.551355	57.088247
31342		6.779902	0.943403	8.138975	0.554897	0.272696	0.804164	-0.107532	-0.367361	0.240295	-0.629883	0.238037	-0.206787	0.067638	0.009559	0.081509	-0.815425	-0.216715	0.240763	-0.479740	8.807242	-36.911595	57.994757
31343		7.146817	0.401569	7.502147	1.262533	0.630450	0.460032	-0.185896	-0.375800	0.295759	-0.629883	0.238037	-0.211182	0.071321	0.004191	0.075152	-0.814436	-0.216456	0.243109	-0.480353	8.588332	-37.152949	58.172925
31344		7.504643	1.796910	7.441189	0.077869	1.505133	0.800891	-0.143094	-0.420523	0.341022	-0.627686	0.240234	-0.213623	0.074859	0.018150	0.074556	-0.810135	-0.216962	0.245971	-0.485909	8.157084	-37.545168	59.132909
31345		8.143890	1.640116	6.831278	0.532546	2.207798	0.700206	-0.183512	-0.429790	0.432105	-0.634521	0.246826	-0.213867	0.081256	0.016640	0.068472	-0.808724	-0.216685	0.248675	-0.487005	7.878168	-37.826500	59.408702
31346		7.828506	0.463042	7.047761	1.298840	1.346385	0.563761	-0.235902	-0.456786	0.485097	-0.641602	0.251221	-0.216064	0.078112	0.004903	0.070650	-0.804151	-0.216738	0.252062	-0.492778	7.326679	-38.243097	60.456144
31347		7.019363	0.026009	7.387334	1.245577	0.381741	0.294103	-0.205388	-0.539626	0.453574	-0.639160	0.251221	-0.213867	0.069993	0.000495	0.074062	-0.802542	-0.216623	0.255279	-0.493795	7.023876	-38.585319	60.745650
31348		6.896548	-0.968060	7.446492	1.985871	-0.169189	0.186163	-0.155841	-0.611916	0.443775	-0.643799	0.255615	-0.209717	0.068758	-0.009470	0.074683	-0.797786	-0.217443	0.259037	-0.499155	6.534883	-39.078723	61.744989
31349		7.433558	0.314463	7.303349	0.981057	0.763250	0.538641	-0.121351	-0.686954	0.390342	-0.646484	0.262207	-0.212158	0.074078	0.003334	0.073286	-0.796018	-0.218120	0.262556	-0.499844	6.307859	-39.497912	61.985317
31350		6.802964	-0.834789	6.867567	1.788754	0.099750	-0.276935	-0.156858	-0.722977	0.359396	-0.655273	0.262207	-0.200928	0.067796	-0.008172	0.068927	-0.791326	-0.219337	0.266643	-0.504575	5.851506	-40.041786	62.912013
31351		6.358899	-0.414408	7.182512	1.127337	-0.284842	-0.281515	-0.145467	-0.798663	0.270481	-0.660156	0.268799	-0.198975	0.063307	-0.004006	0.072081	-0.789700	-0.220367	0.270519	-0.504611	5.664283	-40.515732	63.064359
31352		7.260560	-1.070243	6.778640	2.024905	0.272291	-0.033322	-0.209480	-0.892493	0.236703	-0.664551	0.266357	-0.187988	0.072315	-0.010545	0.068121	-0.785148	-0.221985	0.275241	-0.508437	5.233862	-41.143014	63.886185
31353		7.163452	-1.918833	6.199528	2.831602	0.170560	-0.572383	-0.190636	-1.018309	0.181426	-0.675781	0.270752	-0.177002	0.071335	-0.019064	0.062377	-0.783453	-0.223526	0.279978	-0.507789	5.066866	-41.736603	63.965230
31354		6.818527	-1.358499	7.154880	1.911318	-0.524545	-0.035124	-0.156323	-1.148706	0.097656	-0.682617	0.268311	-0.174561	0.067779	-0.013496	0.071949	-0.778815	-0.226227	0.285371	-0.510717	4.737273	-42.499137	64.667599
31355		6.692759	-0.688771	7.640176	1.085240	-0.777935	0.279649	-0.125137	-1.327446	0.077180	-0.687256	0.272705	-0.161621	0.066421	-0.006814	0.076848	-0.776814	-0.228967	0.291000	-0.509365	4.669369	-43.264016	64.653903
31356		6.546758	0.107906	7.554896	0.225697	-0.645282	0.161225	-0.098834	-1.499739	0.085919	-0.693604	0.268066	-0.139160	0.064898	0.001145	0.076036	-0.771604	-0.232832	0.297522	-0.511759	4.384810	-44.222449	65.325639
31357		6.429147	0.195617	7.876899	-0.035982	-1.047141	0.302522	-0.051490	-1.689696	0.151665	-0.707275	0.270264	-0.128174	0.063621	0.002025	0.079308	-0.768700	-0.236675	0.304399	-0.510320	4.328421	-45.197708	65.355902
31358		6.482171	0.310700	7.956023	-0.251396	-1.192015	0.381729	-0.041293	-1.887131	0.191861	-0.713867	0.270020	-0.101563	0.064064	0.003185	0.080166	-0.762515	-0.241617	0.312274	-0.512520	4.021119	-46.377001	66.090537
31359		7.319622	0.346025	6.931848	0.090197	-0.127037	0.272900	-0.059091	-2.094303	0.282577	-0.725342	0.271973	-0.077148	0.072460	0.003584	0.070079	-0.758514	-0.246255	0.320797	-0.510983	3.888009	-47.588662	66.218527
31360		8.117525	-0.038079	5.709874	0.805700	0.893934	0.038476	-0.049548	-2.351886	0.386520	-0.732422	0.280762	-0.062012	0.080497	-0.000210	0.058048	-0.750982	-0.252066	0.330541	-0.513060	3.447161	-49.035102	67.108056
31361		8.269090	-0.055286	6.069363	0.653769	0.504120	0.411342	-0.077441	-2.531574	0.434702	-0.732178	0.280762	-0.031006	0.081915	-0.000350	0.061734	-0.745683	-0.257480	0.340830	-0.511367	3.192110	-50.501016	67.376479
31362		7.314695	-0.300424	6.598785	0.364244	-0.759358	0.006866	-0.156229	-2.708799	0.453374	-0.743652	0.284912	0.010986	0.072251	-0.002788	0.066973	-0.737301	-0.263717	0.352069	-0.512726	2.601054	-52.147290	68.357351
31363		7.518229	0.729219	7.297654	-0.875969	-1.075140	0.597880	-0.179272	-2.923870	0.503007	-0.750488	0.286865	0.039795	0.074086	0.007546	0.074058	-0.730983	-0.269585	0.363997	-0.510386	2.191612	-53.836558	68.734133
31364		7.241022	1.247456	6.880524	-1.497468	-1.022592	0.088486	-0.206968	-3.163993	0.633322	-0.752686	0.289063	0.070801	0.071270	0.012773	0.069926	-0.721111	-0.276465	0.377014	-0.511299	1.342285	-55.735806	69.966911
31365		7.451358	1.913295	7.418062	-2.405977	-1.414471	0.502809	-0.288239	-3.483862	0.787958	-0.748779	0.302246	0.112305	0.073130	0.019531	0.075435	-0.712774	-0.282748	0.391408	-0.508730	0.518470	-57.742329	70.747446
31366		7.620428	1.644633	7.116646	-2.275499	-1.523809	0.380798	-0.457897	-3.909880	1.042849	-0.749023	0.313232	0.163086	0.074707	0.017004	0.072598	-0.700366	-0.289778	0.407942	-0.509017	-1.078522	-60.045493	72.641610
31367		7.445586	1.208398	6.497182	-1.966250	-1.592508	-0.185128	-0.583374	-4.468771	1.330177	-0.742920	0.331055	0.208984	0.072897	0.012765	0.066576	-0.688480	-0.296259	0.426958	-0.505897	-2.994508	-62.580429	74.437344
31368		7.872437	1.275482	6.833725	-2.385434	-2.091152	0.197845	-0.735087	-5.222582	1.617268	-0.720703	0.340088	0.264160	0.076797	0.013637	0.070311	-0.671535	-0.304284	0.448981	-0.504844	-6.191256	-65.539237	77.857585
31369		9.565339	2.712198	7.996311	-4.343535	-2.495584	1.919454	-1.055477	-6.053644	1.945321	-0.700928	0.355713	0.332275	0.092906	0.028466	0.082655	-0.654255	-0.311436	0.474764	-0.499557	-10.654382	-68.811054	82.035040
31370		8.560188	5.831561	9.282441	-8.239532	-3.683145	0.766307	-1.436150	-6.668474	2.378363	-0.665527	0.366943	0.402832	0.081748	0.059981	0.095167	-0.631852	-0.318579	0.503409	-0.495832	-18.416785	-72.191459	89.726419
31371		10.646247	3.776220	10.285801	-7.184733	-5.240068	2.605072	-1.615317	-7.252467	2.809528	-0.623291	0.382813	0.475586	0.102097	0.040067	0.106296	-0.608672	-0.324070	0.534467	-0.488715	-30.325673	-75.326646	101.152288
31372		12.420021	2.569945	8.754789	-6.293007	-4.603474	3.475892	-1.158209	-7.457247	2.806543	-0.572021	0.396729	0.532715	0.120445	0.027931	0.091929	-0.580990	-0.332125	0.563848	-0.483961	-48.076172	-77.594603	119.041782
31373		17.997734	1.568173	9.474918	-7.009573	-5.581782	8.506794	-1.158522	-7.952594	3.133785	-0.507568	0.417236	0.592041	0.175744	0.019034	0.101691	-0.552337	-0.338793	0.594494	-0.476152	-71.664264	-78.337535	142.459943
31374		17.034727	0.866021	7.635132	-6.556529	-5.439827	6.813008	-0.754621	-8.284065	3.344917	-0.438477	0.431396	0.642578	0.166813	0.011776	0.083271	-0.518341	-0.347345	0.623861	-0.470608	-94.958244	-76.823331	166.172617
31375		25.973353	-4.416863	8.954644	-5.220293	-9.380333	15.849835	-0.295836	-8.457377	3.276442	-0.382813	0.445313	0.693359	0.256313	-0.039807	0.100497	-0.484200	-0.355831	0.651584	-0.463005	-111.579743	-73.841648	-176.841337
31376		20.020225	-3.328168	6.625421	-4.938255	-8.373896	9.187196	0.504815	-8.498702	2.817052	-0.304443	0.457275	0.719482	0.197594	-0.030667	0.074610	-0.446611	-0.368437	0.674828	-0.457603	-122.284162	-70.045949	-164.965934
31377		34.666525	1.226072	7.852784	-15.226283	-11.304725	20.262862	1.247023	-8.144835	2.588923	-0.239990	0.473633	0.739014	0.342891	0.016168	0.092639	-0.410462	-0.380706	0.694366	-0.452151	-128.864498	-66.105650	-157.115035
31378		36.968769	6.002217	7.598711	-21.475615	-12.289228	19.299854	1.461902	-6.873776	2.846149	-0.181885	0.483154	0.736572	0.365878	0.064629	0.089069	-0.375291	-0.390292	0.709445	-0.451128	-131.881201	-62.207279	-152.517992
31379		22.894500	9.625575	9.214576	-19.896360	-11.212074	3.601059	1.280773	-5.274868	2.670888	-0.146729	0.508057	0.737793	0.225091	0.098661	0.098744	-0.347848	-0.394871	0.721409	-0.450163	-133.261242	-59.025253	-150.100064
31380		35.930989	3.031387	8.164836	-20.185762	-16.469414	16.416531	0.808219	-3.802510	2.075988	-0.122070	0.508301	0.735596	0.357332	0.033681	0.088587	-0.326355	-0.398246	0.729482	-0.450277	-133.858472	-56.593123	-148.567346
31381		34.263445	8.170741	16.490582	-25.206263	-22.737454	9.169755	0.837854	-0.249224	0.648776	-0.135986	0.517090	0.721924	0.342162	0.082125	0.165676	-0.322271	-0.397735	0.729353	-0.453864	-133.149179	-56.215374	-148.850212
31382		10.367414	10.099813	13.181535	-15.124260	-12.420827	-10.283427	0.772753	0.566502	0.317299	-0.154053	0.525879	0.710693	0.103888	0.100653	0.131911	-0.321034	-0.397268	0.726664	-0.459428	-132.014931	-56.263453	-149.439741
31383		4.949210	7.910667	10.790036	-10.365336	-9.285985	-12.947700	0.322491	0.649122	0.306895	-0.160889	0.528076	0.703857	0.049721	0.079009	0.107867	-0.322003	-0.395109	0.725557	-0.462353	-131.238318	-56.369085	-150.158721
31384		5.935384	1.761558	8.442046	-5.220837	-9.000390	-8.656974	0.313176	0.479878	0.148616	-0.183838	0.536621	0.687988	0.059543	0.017528	0.084305	-0.321949	-0.394561	0.723709	-0.465741	-130.507689	-56.462222	-150.601461
31385		6.857164	1.230024	8.281248	-5.159792	-9.237279	-7.540897	0.833208	0.570055	-0.277609	-0.190918	0.547607	0.676514	0.068824	0.011860	0.082667	-0.322968	-0.395507	0.720366	-0.469403	-129.807868	-56.784322	-150.875586
31386		8.097730	3.194342	8.498945	-7.390926	-9.324207	-7.275079	1.212059	0.918568	-0.684807	-0.215576	0.547363	0.660889	0.081475	0.031151	0.084806	-0.324723	-0.398304	0.713975	-0.475551	-128.701691	-57.406766	-151.150652
31387		8.375937	5.412417	8.572409	-9.387066	-8.985588	-7.794485	1.212778	1.466884	-0.977769	-0.240723	0.558350	0.640625	0.084648	0.053193	0.085430	-0.329809	-0.400186	0.706795	-0.481163	-127.504950	-58.356015	-151.750896
31388		8.760010	6.455411	8.498387	-10.389645	-8.815883	-7.585832	0.952308	2.111733	-1.128677	-0.267578	0.553467	0.618408	0.088854	0.063652	0.084355	-0.337427	-0.401078	0.697995	-0.487938	-125.806201	-59.592340	-152.894819
31389		8.820665	5.825152	8.129952	-9.788078	-8.543735	-6.809814	0.601828	2.799233	-1.274715	-0.292480	0.557617	0.593994	0.089702	0.057440	0.080225	-0.349015	-0.399597	0.689237	-0.493419	-123.883554	-61.097882	-154.717815
31390		8.780477	4.234267	7.754348	-8.269291	-8.351110	-5.687767	0.352534	3.478518	-1.528258	-0.328125	0.548584	0.569824	0.089456	0.041528	0.076071	-0.363518	-0.397153	0.678399	-0.499899	-121.201139	-62.910173	-157.344402
31391		9.297028	2.193913	7.202395	-6.540785	-8.052476	-3.856733	0.279734	4.139984	-1.909436	-0.368408	0.545898	0.545410	0.094638	0.020942	0.070106	-0.381641	-0.393620	0.666284	-0.505450	-117.923257	-65.022352	-160.820622
31392		8.989326	0.332750	6.565299	-4.527691	-7.412646	-2.845201	0.425957	4.772703	-2.378738	-0.406250	0.534424	0.514893	0.091456	0.002109	0.063488	-0.402175	-0.390380	0.650437	-0.512631	-113.157628	-67.431398	-165.591418
31393		8.249241	-0.507731	6.095568	-3.248332	-6.672674	-2.716405	0.688893	5.274153	-2.842728	-0.446289	0.520508	0.475342	0.083976	-0.006469	0.058733	-0.425042	-0.387248	0.632302	-0.519203	-106.910316	-69.989677	-171.877330
31394		7.375054	-0.667342	5.774536	-2.532919	-5.970148	-3.023391	0.902507	5.601444	-3.195257	-0.481689	0.506836	0.435791	0.075206	-0.008122	0.055618	-0.448694	-0.384653	0.610754	-0.526969	-98.000512	-72.455443	179.422451
31395		7.094383	-0.445030	5.484773	-2.375140	-5.281963	-2.954008	1.007694	5.775291	-3.383359	-0.514648	0.488770	0.394287	0.072395	-0.005936	0.052743	-0.473004	-0.381743	0.588369	-0.533255	-86.522151	-74.522432	168.050661
31396		7.531666	-0.289460	5.459915	-2.351722	-4.803133	-2.197769	1.015684	5.874319	-3.432650	-0.545654	0.470947	0.348389	0.076808	-0.004474	0.052337	-0.496840	-0.378392	0.564055	-0.540196	-71.670412	-75.766530	153.446459
31397		8.903340	-0.571335	5.622243	-2.077847	-4.373407	-0.446902	0.984184	5.994704	-3.423508	-0.576172	0.448242	0.300293	0.090546	-0.007523	0.053489	-0.520785	-0.374006	0.539770	-0.545482	-55.393137	-75.985788	137.242932
31398		10.398166	-1.123006	5.633237	-1.393975	-3.601896	1.418597	1.013274	6.180836	-3.415049	-0.604736	0.426025	0.256592	0.105439	-0.013297	0.053025	-0.544168	-0.368704	0.513345	-0.551738	-39.405380	-74.916654	121.476912
31399		11.217641	-0.921282	5.912618	-1.266055	-2.975508	2.480220	1.091884	6.414218	-3.423150	-0.619629	0.403564	0.208740	0.113811	-0.011461	0.055435	-0.567649	-0.362454	0.486311	-0.556689	-26.186735	-72.873512	108.369099
31400		11.728355	-0.416745	6.081620	-1.307834	-2.142777	3.161546	1.135542	6.620006	-3.374155	-0.636963	0.383545	0.162842	0.119113	-0.006497	0.056861	-0.590271	-0.355034	0.457054	-0.562701	-16.093081	-69.905620	98.546990
31401		12.349271	-0.224532	6.262568	-0.997875	-1.241336	3.940345	1.167194	6.759913	-3.299645	-0.656006	0.352295	0.117432	0.125451	-0.004654	0.058384	-0.612459	-0.346683	0.427720	-0.567240	-8.747223	-66.523859	91.353690
31402		13.123955	0.095456	6.686097	-0.786659	-0.346378	4.887873	1.211614	6.853941	-3.203598	-0.664307	0.330078	0.060547	0.133416	-0.001558	0.062309	-0.633221	-0.337282	0.396585	-0.572707	-3.387463	-62.695182	86.318416
31403		14.118478	0.070546	6.999584	-0.139053	0.812448	5.920356	1.260179	6.927019	-3.114233	-0.679199	0.303467	0.012695	0.143479	-0.001937	0.065045	-0.653235	-0.327304	0.365587	-0.576630	0.662574	-58.770247	82.498448
31404		15.155936	-0.015817	7.851002	0.605164	1.709107	7.155172	1.358291	6.967154	-3.090247	-0.685059	0.279053	-0.046387	0.154138	-0.003036	0.073155	-0.671708	-0.316691	0.332766	-0.581190	3.825614	-54.603044	79.760181
31405		17.184807	-0.117661	9.171235	1.575895	2.957261	9.371207	1.482272	6.991223	-3.131877	-0.683838	0.246094	-0.102783	0.174859	-0.004549	0.085609	-0.689539	-0.306267	0.299855	-0.583801	6.516399	-50.454673	77.433288
31406		20.076417	-0.901392	10.551801	3.567355	4.974210	12.038496	1.698591	7.069073	-3.274936	-0.680664	0.215088	-0.159424	0.204130	-0.013194	0.098241	-0.706055	-0.295701	0.264501	-0.586589	8.896452	-46.088708	75.648797
31407		23.338642	-1.061970	11.778361	5.348399	7.775152	14.582042	2.035308	7.206801	-3.471774	-0.672607	0.179932	-0.220215	0.237179	-0.015856	0.109137	-0.722114	-0.286037	0.227820	-0.587224	11.236776	-41.679249	73.947043
31408		26.025070	-0.258546	12.096525	6.349719	11.339193	15.766670	2.331586	7.374524	-3.595907	-0.653320	0.142334	-0.276611	0.264352	-0.008649	0.111189	-0.736545	-0.276109	0.188317	-0.588050	13.416772	-37.023288	72.696500
31409		27.973809	1.024649	11.747752	6.886406	14.980194	15.666717	2.432722	7.448147	-3.650223	-0.634277	0.107178	-0.326416	0.283962	0.003744	0.107025	-0.750201	-0.266300	0.148609	-0.586684	15.463539	-32.373856	71.539518
31410		28.863563	0.851741	10.269217	8.396135	18.217419	13.346649	2.314430	7.361502	-3.705672	-0.612793	0.074463	-0.375977	0.292232	0.002018	0.092026	-0.762222	-0.255330	0.108608	-0.584831	17.219445	-27.659619	70.726759
31411		26.295148	-4.680451	7.346713	13.565923	17.824347	6.470435	2.128155	6.924797	-3.928373	-0.591553	0.041504	-0.412598	0.264276	-0.052701	0.063790	-0.774065	-0.245066	0.070972	-0.579422	18.861389	-23.195326	69.728274
31412		26.248077	-2.148291	4.823944	11.561469	20.336150	3.197882	2.119814	6.178420	-3.994199	-0.570068	0.008545	-0.446777	0.263293	-0.027189	0.039845	-0.784111	-0.236049	0.035643	-0.572870	20.390371	-19.047216	68.847245
31413		28.413643	-0.793729	-0.636476	10.573980	25.280200	-2.251302	1.656612	5.470843	-3.755805	-0.557861	-0.022461	-0.479004	0.283604	-0.013171	-0.014223	-0.793392	-0.227365	0.005074	-0.564632	21.604251	-15.355456	67.929709
31414		25.149941	-3.126660	-7.500833	10.147483	24.321191	-11.775894	0.805355	4.867821	-3.692784	-0.534424	-0.046387	-0.509277	0.248942	-0.035561	-0.081226	-0.802143	-0.216325	-0.020807	-0.556182	22.235082	-11.961277	67.113788
31415		17.985754	-15.137782	-14.185875	16.277247	15.979129	-25.090776	0.503636	3.700599	-3.791066	-0.522461	-0.070801	-0.521484	0.174280	-0.154353	-0.145504	-0.811434	-0.207546	-0.041071	-0.544805	22.738085	-9.177337	65.906456
31416		17.308044	-20.524370	-19.135602	19.032534	14.107186	-32.738073	0.981201	2.151118	-3.835654	-0.519043	-0.101807	-0.538330	0.167036	-0.207538	-0.194189	-0.819749	-0.204437	-0.056331	-0.532019	23.468445	-7.190823	64.471892
31417		20.855706	-17.771980	-20.039566	17.774946	17.604988	-32.756794	1.023585	0.841338	-3.143459	-0.514160	-0.117188	-0.539795	0.204893	-0.179928	-0.202180	-0.826673	-0.205443	-0.065639	-0.519708	24.215069	-6.028075	63.018696
31418		25.023907	-12.657828	-17.128206	16.398324	21.904164	-28.008013	0.069014	0.268874	-1.876691	-0.513672	-0.130615	-0.539307	0.248806	-0.128858	-0.171661	-0.830863	-0.204070	-0.068563	-0.513149	24.289961	-5.480336	62.219554
