// General information: 
//  MT Manager version: 2019.2.0 
//  XDA version: 2019.2.0 build 3853 rev 94535 built on 2019-09-09
// Device information: 
//  DeviceId: 00B40ACF
//  ProductCode: MTW2-3A7G6
//  Firmware Version: 4.3.5
//  Hardware Version: 1.1.0
// Device settings: 
//  Filter Profile: human(46.1)
//  Option Flags: Orientation Smoother Disabled, AHS Disabled, ICC Disabled
// Coordinate system: ENU
PacketCounter	SampleTimeFine	Acc_X	Acc_Y	Acc_Z	FreeAcc_E	FreeAcc_N	FreeAcc_U	Gyr_X	Gyr_Y	Gyr_Z	Mag_X	Mag_Y	Mag_Z	VelInc_X	VelInc_Y	VelInc_Z	Quat_q0	Quat_q1	Quat_q2	Quat_q3	Roll	Pitch	Yaw
30876		9.934959	-2.324839	0.356464	0.000000	-0.000000	0.396537	0.302301	1.392967	2.477743	-0.781738	0.430908	-0.647949	0.099649	-0.022020	0.002837	0.712885	-0.221244	-0.661177	-0.075440	-82.657555	-77.439646	58.289250
30877		10.586410	-3.836038	4.156260	-0.000000	-0.000000	2.189550	-0.035776	1.317053	2.256431	-0.782227	0.444336	-0.654785	0.106558	-0.037153	0.040869	0.815199	-0.238283	-0.522460	-0.075548	-42.273438	-62.600801	15.866440
30878		9.676875	-4.409525	0.662304	0.500181	-2.071395	0.626593	-0.427139	1.116276	2.103230	-0.778076	0.455566	-0.670166	0.097261	-0.043061	0.006174	0.770903	-0.241426	-0.583984	-0.079903	-54.173275	-69.879573	27.489378
30879		10.102044	-3.661176	-1.377950	2.872267	-2.156583	0.407364	-0.327458	0.977450	1.959273	-0.776611	0.471191	-0.678955	0.101304	-0.035643	-0.014215	0.774097	-0.248004	-0.577685	-0.074483	-54.876964	-68.640348	28.041167
30880		11.120274	-3.330295	0.715213	1.669434	-0.597572	1.681413	0.138877	1.028696	1.693887	-0.767822	0.478027	-0.687744	0.111514	-0.032364	0.006556	0.776734	-0.250712	-0.573639	-0.069038	-55.134998	-67.781206	28.491945
30881		10.632569	-2.633274	-0.537897	3.048951	-0.578577	0.705896	0.423854	1.231233	1.355237	-0.765869	0.486816	-0.692139	0.106465	-0.025599	-0.006089	0.781230	-0.252517	-0.567279	-0.064099	-54.582150	-66.740186	28.155842
30882		9.330786	-3.461675	-1.740289	3.394014	-2.013498	-0.512179	0.471760	1.134036	1.161444	-0.759277	0.493652	-0.703125	0.093406	-0.034033	-0.018013	0.782553	-0.254428	-0.565068	-0.059800	-54.950870	-66.180210	28.700291
30883		9.143188	-3.202444	-1.263977	3.171262	-1.560963	-0.704692	0.685961	1.048443	1.040601	-0.757324	0.502686	-0.714355	0.091528	-0.031504	-0.013228	0.786673	-0.254362	-0.559828	-0.055122	-54.237533	-65.346216	28.349035
30884		9.474461	-1.792753	-0.371180	2.958146	0.291347	-0.632270	0.678591	1.008531	0.864451	-0.757568	0.507324	-0.727539	0.094800	-0.017504	-0.004250	0.781785	-0.257895	-0.565495	-0.050180	-56.721375	-65.515434	30.961287
30885		9.424117	-1.736982	0.369568	2.448478	0.690201	-0.566338	0.459584	0.996036	0.747189	-0.753174	0.509521	-0.736328	0.094322	-0.017025	0.003187	0.785364	-0.257955	-0.560741	-0.047243	-55.944242	-64.842755	30.395195
30886		9.090628	-2.304610	0.459207	1.805530	0.247684	-0.601860	0.093278	0.909928	0.720134	-0.753174	0.514160	-0.749512	0.091008	-0.022721	0.004168	0.776672	-0.260832	-0.571327	-0.048302	-58.901238	-65.876183	33.068797
30887		8.595519	-1.404552	-0.606572	2.982387	0.440278	-1.619120	-0.147861	0.783737	0.662481	-0.748779	0.511963	-0.747070	0.085976	-0.013765	-0.006392	0.778867	-0.263106	-0.567376	-0.047174	-58.574062	-65.318683	32.616501
30888		9.096478	-0.126562	-1.522001	4.145893	1.252976	-1.669008	-0.324430	0.674701	0.606095	-0.744629	0.520996	-0.756104	0.090916	-0.001015	-0.015525	0.767903	-0.265555	-0.580611	-0.051925	-62.006399	-66.821660	35.510692
30889		10.106877	1.312813	-1.738170	5.280168	2.626206	-1.320571	-0.525101	0.451431	0.621165	-0.738281	0.532227	-0.753906	0.100988	0.013396	-0.017645	0.768669	-0.269254	-0.577911	-0.051663	-62.164105	-66.386081	35.354712
30890		10.333104	0.308525	-1.630165	4.383719	1.771370	-0.476169	-0.537399	0.343812	0.591911	-0.740479	0.530029	-0.760498	0.103293	0.003347	-0.016488	0.753347	-0.267054	-0.597547	-0.063936	-66.277606	-69.142630	38.743283
30891		10.372733	-1.983840	-1.321188	3.222459	0.012361	0.330786	-0.374296	0.286166	0.565911	-0.734131	0.541016	-0.756104	0.103764	-0.019570	-0.013324	0.753878	-0.270062	-0.595590	-0.063305	-66.439611	-68.779850	38.687086
30892		10.150439	-2.974796	-1.191224	2.068144	-0.921093	0.587979	0.059621	0.289199	0.529843	-0.729492	0.536865	-0.756104	0.101565	-0.029475	-0.012068	0.738775	-0.265135	-0.615126	-0.074394	-71.124663	-71.500963	42.968248
30893		9.911440	-3.117888	-0.464762	1.376559	-0.712613	0.471804	0.420774	0.287653	0.504066	-0.729492	0.541260	-0.764893	0.099186	-0.030919	-0.004855	0.740400	-0.265022	-0.613548	-0.071619	-70.702046	-71.174139	42.776643
30894		9.735918	-2.070743	-0.352509	1.309157	0.184590	0.059093	0.574315	0.277146	0.482823	-0.738525	0.541260	-0.773682	0.097404	-0.020462	-0.003719	0.728711	-0.261832	-0.628241	-0.075742	-75.605374	-72.799576	47.665107
30895		9.311556	-0.833271	-0.439139	1.896918	1.129207	-0.717711	0.578942	0.281588	0.467441	-0.738525	0.541260	-0.775879	0.093128	-0.008102	-0.004546	0.730525	-0.261083	-0.626817	-0.072589	-74.991727	-72.499576	47.369731
30896		9.865885	-1.391595	-0.235880	1.302867	0.845385	0.031876	0.497265	0.280239	0.472958	-0.727539	0.550293	-0.780273	0.098688	-0.013676	-0.002531	0.721972	-0.257945	-0.637508	-0.076188	-78.883577	-73.705096	51.266628
30897		10.128196	-1.673928	-0.158671	1.212202	0.722722	0.356653	0.471863	0.318137	0.472219	-0.727539	0.548096	-0.778076	0.101318	-0.016496	-0.001787	0.723770	-0.257624	-0.635925	-0.073389	-78.190186	-73.403705	50.825552
30898		9.965236	-1.662803	-0.049292	0.889256	0.704190	0.226550	0.352062	0.370326	0.451073	-0.729736	0.548096	-0.789063	0.099688	-0.016402	-0.000706	0.717991	-0.254922	-0.643087	-0.077087	-80.867722	-74.315349	53.450706
30899		9.363156	-2.507864	-0.287849	0.690354	-0.244072	-0.142916	0.270577	0.380103	0.421938	-0.723145	0.552734	-0.800049	0.093678	-0.024877	-0.003090	0.719717	-0.255160	-0.641286	-0.075187	-80.095836	-74.040909	52.809561
30900		9.338846	-3.222706	-0.001531	-0.012386	-0.760825	0.037217	0.224403	0.343694	0.391582	-0.727783	0.554688	-0.793457	0.093451	-0.032044	-0.000212	0.715676	-0.253481	-0.646128	-0.077937	-82.065156	-74.654465	54.709144
30901		9.695965	-3.841200	0.044882	-0.219086	-1.179281	0.547315	0.154456	0.332394	0.333852	-0.725586	0.559326	-0.800049	0.097024	-0.038250	0.000258	0.717073	-0.253877	-0.644573	-0.076665	-81.394467	-74.437776	54.105114
30902		9.564086	-3.168231	0.067775	-0.038194	-0.608768	0.244241	0.231559	0.303074	0.264484	-0.730469	0.565918	-0.804443	0.095683	-0.031556	0.000496	0.714605	-0.253286	-0.647527	-0.076781	-82.812717	-74.654263	55.570331
30903		9.372778	-3.401321	0.461646	-0.477799	-0.662722	0.135351	0.290888	0.203388	0.233612	-0.725830	0.563721	-0.802246	0.093772	-0.033910	0.004472	0.715720	-0.252925	-0.646614	-0.075262	-82.290033	-74.506438	55.201020
30904		10.029478	-4.381419	0.083049	-0.505719	-1.510942	1.015762	0.457227	0.129917	0.224830	-0.723877	0.572754	-0.811035	0.100344	-0.043703	0.000665	0.714289	-0.252021	-0.648794	-0.073103	-83.309869	-74.514657	56.478692
30905		11.237127	-3.226641	0.081795	0.215930	-0.238721	1.874362	0.851232	0.095276	0.269645	-0.721924	0.577148	-0.811035	0.112415	-0.032118	0.000627	0.715762	-0.249818	-0.648418	-0.069498	-82.695214	-74.354664	56.346924
30906		12.132053	-0.749904	-0.377846	1.793859	1.964350	2.053864	1.087952	0.086446	0.342006	-0.728516	0.574951	-0.811035	0.121331	-0.007271	-0.003871	0.715693	-0.247415	-0.650017	-0.063623	-83.166433	-74.134766	57.506119
30907		11.887543	0.972686	-0.741835	2.829872	3.288814	1.322180	0.976917	0.134236	0.484360	-0.724365	0.583984	-0.826660	0.118846	0.010051	-0.007450	0.717481	-0.245447	-0.649238	-0.058880	-82.461732	-73.849811	57.355303
30908		11.623602	0.128572	-0.459095	2.160868	2.626668	1.312329	0.743965	0.293511	0.702200	-0.717773	0.588379	-0.835449	0.116224	0.001711	-0.004756	0.717397	-0.244110	-0.650006	-0.056954	-82.614062	-73.828206	57.780451
30909		11.903163	0.120540	-0.266734	2.105814	2.832223	1.558931	0.651079	0.509647	0.911774	-0.713623	0.599609	-0.837646	0.119017	0.001757	-0.002966	0.720094	-0.244588	-0.647238	-0.052188	-81.505969	-73.270462	57.014037
30910		12.266783	-0.073459	-0.748210	2.544708	2.519729	1.943690	0.581602	0.770017	1.041222	-0.700684	0.611084	-0.848633	0.122639	-0.000073	-0.007955	0.721386	-0.244258	-0.645873	-0.052802	-80.732985	-73.264093	56.217031
30911		12.073242	-0.307707	-2.410237	4.077397	1.645751	1.690806	0.417659	0.959595	1.169983	-0.698730	0.622314	-0.857422	0.120630	-0.002320	-0.024687	0.725282	-0.246269	-0.641073	-0.048404	-79.116419	-72.507841	54.775997
30912		12.518186	-1.498676	-3.635152	4.842178	0.144099	2.381303	0.483881	1.124741	1.273874	-0.681152	0.631592	-0.868408	0.125066	-0.014101	-0.037090	0.726952	-0.246803	-0.638834	-0.050208	-78.126024	-72.474989	53.588326
30913		13.181003	-1.261750	-3.201171	4.873668	0.788114	2.883719	0.605467	1.231210	1.385371	-0.663574	0.640869	-0.879395	0.131692	-0.011606	-0.032859	0.731945	-0.248707	-0.632771	-0.044756	-76.203963	-71.544269	51.932277
30914		13.573633	-1.758974	-2.316860	4.003434	0.811939	3.454246	0.698356	1.354974	1.472813	-0.655029	0.658691	-0.890381	0.135699	-0.016507	-0.024147	0.733301	-0.249133	-0.631025	-0.044839	-75.565686	-71.406270	51.246419
30915		13.974385	-2.416583	-0.503512	2.473031	1.207769	4.108295	0.785762	1.496514	1.556342	-0.635254	0.668213	-0.903564	0.139883	-0.023055	-0.006174	0.739302	-0.250811	-0.623734	-0.038514	-73.421434	-70.317658	49.453384
30916		14.529713	-2.191326	0.681749	1.709220	2.044845	4.653328	0.872891	1.706037	1.669498	-0.613037	0.677490	-0.923340	0.145524	-0.020725	0.005485	0.741902	-0.251211	-0.620536	-0.037541	-72.369120	-69.987042	48.436921
30917		15.159702	-0.495257	0.562772	2.936495	3.741811	4.600544	0.880820	1.928884	1.772522	-0.593262	0.687012	-0.943115	0.151678	-0.003629	0.004147	0.749255	-0.253057	-0.611261	-0.030653	-69.960992	-68.668862	46.402671
30918		15.667158	1.066195	-0.912709	5.154809	4.572281	4.327175	0.805545	2.109640	1.851786	-0.573242	0.696289	-0.956299	0.156456	0.012152	-0.010731	0.753581	-0.254152	-0.605437	-0.031133	-68.260645	-68.173776	44.549855
30919		15.804220	0.806385	-1.917038	6.395691	4.076424	4.207213	0.756704	2.223173	1.956504	-0.544189	0.699219	-0.973633	0.157727	0.009685	-0.020890	0.761488	-0.256848	-0.594621	-0.024292	-66.051441	-66.646006	42.626886
30920		16.440132	1.634885	-2.637153	7.734183	4.545124	4.308460	0.883893	2.306727	2.065160	-0.520020	0.712891	-0.986816	0.163902	0.018165	-0.028186	0.766047	-0.257949	-0.588161	-0.026483	-64.318805	-66.174504	40.595339
30921		17.769598	2.741917	-3.122493	9.389996	5.786152	4.725073	0.949314	2.397484	2.126125	-0.493408	0.724609	-1.002197	0.177000	0.029458	-0.033213	0.774496	-0.260212	-0.576280	-0.018636	-62.294708	-64.468947	38.966629
30922		18.089149	2.429121	-4.755036	11.055170	4.700958	4.726174	0.929658	2.451828	2.238077	-0.468994	0.731934	-1.021973	0.180003	0.026536	-0.049641	0.778627	-0.261195	-0.570085	-0.022826	-60.710321	-64.117365	36.926325
30923		17.970263	1.483193	-6.627006	12.800354	3.232010	4.141260	1.260377	2.410409	2.416125	-0.437500	0.732666	-1.039307	0.178687	0.017421	-0.068323	0.787290	-0.262857	-0.557595	-0.012972	-59.001149	-62.226652	35.820476
30924		18.296020	2.517499	-8.315847	14.855770	3.350344	3.538970	1.835989	2.294213	2.599471	-0.419434	0.735352	-1.067871	0.181638	0.028316	-0.084997	0.790627	-0.260754	-0.553831	-0.013697	-57.752520	-61.993089	34.677387
30925		19.196191	5.562476	-9.225795	17.321463	6.198746	2.271571	2.341613	2.202112	2.733668	-0.389893	0.727051	-1.080811	0.190142	0.059323	-0.093678	0.799788	-0.258858	-0.541600	0.000724	-56.047111	-59.992027	34.261663
30926		20.031680	7.362364	-10.467305	19.254974	7.504145	1.930141	2.380787	2.148970	2.838985	-0.367188	0.723145	-1.102783	0.198100	0.077702	-0.105901	0.801442	-0.254627	-0.541158	0.002118	-55.259197	-60.035403	33.956327
30927		20.093395	4.398601	-8.996669	17.516417	6.001205	2.880843	1.850483	2.109376	2.983499	-0.340332	0.726074	-1.120117	0.199279	0.047810	-0.091644	0.809305	-0.255253	-0.528775	0.016394	-54.199437	-57.941964	33.957029
30928		19.482246	2.242864	-5.796999	13.863019	5.179293	4.298724	0.968234	2.198457	3.096467	-0.306641	0.729004	-1.131104	0.193789	0.025722	-0.059985	0.807750	-0.256888	-0.530440	0.013455	-54.581224	-58.213190	33.961077
30929		19.359489	1.282767	-7.808057	15.749327	3.797947	3.411706	0.327828	2.490804	2.825250	-0.282227	0.733887	-1.142090	0.192395	0.015682	-0.080458	0.814442	-0.263178	-0.516636	0.022532	-54.060320	-56.065968	33.564646
30930		19.639807	3.796169	-5.070614	14.088365	6.950264	3.567113	-0.367822	2.315470	2.259605	-0.260010	0.743164	-1.135254	0.195348	0.040077	-0.053044	0.811046	-0.267533	-0.520055	0.013171	-54.787420	-56.775423	33.150805
30931		18.987517	1.915283	-3.991342	12.785493	5.695734	3.758967	-1.125416	2.020095	2.062933	-0.240234	0.752441	-1.146240	0.189249	0.020875	-0.041941	0.814560	-0.277561	-0.509116	0.015906	-55.036084	-55.142989	32.672712
30932		19.334002	-5.882399	-1.905580	8.848725	-0.129304	8.454538	-0.427839	1.858650	2.509106	-0.219971	0.752930	-1.146240	0.193871	-0.056437	-0.020733	0.810199	-0.282401	-0.513598	0.006636	-56.027132	-55.943438	32.492684
30933		15.510863	-10.436093	-2.299654	6.585268	-4.991521	7.112940	0.824096	1.495715	2.695390	-0.199463	0.749023	-1.159424	0.156315	-0.102161	-0.024587	0.815011	-0.285998	-0.503641	0.017557	-55.778435	-54.184259	32.765281
30934		11.143960	-7.934253	-0.053078	3.134484	-3.207712	3.110786	1.767048	1.175870	2.010387	-0.190186	0.740479	-1.172363	0.112221	-0.078204	-0.001883	0.811726	-0.280203	-0.512047	0.019894	-56.164705	-55.098232	33.915090
30935		10.311709	-5.684520	-2.667347	5.809617	-2.580591	0.450934	1.737368	0.572140	1.722580	-0.180664	0.729492	-1.187744	0.103522	-0.055718	-0.027457	0.815389	-0.277596	-0.507099	0.030529	-55.566741	-54.097470	34.402719
30936		7.508129	4.411486	-4.177958	8.027518	4.566573	-6.985674	0.986792	0.104464	1.242218	-0.184814	0.722900	-1.198730	0.074783	0.044786	-0.041599	0.808175	-0.272741	-0.520772	0.035534	-57.127083	-55.322358	36.886482
30937		5.595581	6.926244	-4.544035	8.021684	5.963642	-9.950261	-0.024556	-0.107418	0.695215	-0.182861	0.727295	-1.200928	0.055739	0.069451	-0.045419	0.807733	-0.274629	-0.520260	0.038425	-57.524743	-55.020423	37.353757
30938		4.423337	5.782123	-3.347399	6.191902	5.085531	-9.774467	-0.869824	-0.128581	0.271971	-0.185303	0.729492	-1.198730	0.044176	0.057735	-0.033697	0.798345	-0.275233	-0.534655	0.032178	-59.711389	-56.716582	39.044154
30939		3.324339	2.783009	-1.646833	3.537280	2.824745	-8.804321	-1.147122	-0.220620	-0.066452	-0.189941	0.738281	-1.192139	0.033271	0.027724	-0.016591	0.796173	-0.279594	-0.535804	0.029148	-60.507009	-56.812742	39.209554
30940		2.494757	0.132005	-1.276097	2.143425	0.420543	-8.052439	-1.017491	-0.541938	-0.393793	-0.206055	0.742188	-1.176758	0.024984	0.001206	-0.012700	0.786544	-0.279501	-0.550360	0.018196	-62.631977	-58.825324	40.513297
30941		2.265184	-0.776784	-1.260195	1.764861	-0.426561	-7.806262	-0.678656	-0.888991	-0.752322	-0.217529	0.748779	-1.174805	0.022678	-0.007896	-0.012475	0.783199	-0.280012	-0.554958	0.014611	-63.453601	-59.440621	41.017450
30942		2.091059	-0.732342	-0.838125	1.259623	-0.293083	-7.828088	-0.418288	-1.175156	-1.113723	-0.232910	0.741699	-1.174805	0.020918	-0.007457	-0.008243	0.773048	-0.275489	-0.571381	0.005121	-65.666961	-61.713381	42.925646
30943		1.922235	-0.738038	-0.391567	0.768669	-0.177157	-7.870878	-0.323980	-1.444547	-1.472705	-0.255371	0.743408	-1.161621	0.019195	-0.007528	-0.003765	0.768470	-0.272482	-0.578971	0.000492	-66.643856	-62.819972	43.819525
30944		1.747101	-0.347411	-0.445368	0.806768	0.054694	-8.164242	-0.260406	-1.709345	-1.840681	-0.279785	0.731934	-1.163818	0.017475	-0.003641	-0.004300	0.757193	-0.265176	-0.596873	-0.009050	-69.404577	-65.325904	46.507117
30945		1.606314	0.746037	-0.505498	1.146774	0.912959	-8.697557	-0.264514	-1.938070	-2.229215	-0.306641	0.731445	-1.157471	0.016193	0.007274	-0.004908	0.750874	-0.259583	-0.607090	-0.015709	-70.937043	-66.904436	48.017158
30946		1.803131	1.644338	-0.795981	1.711213	1.612917	-8.783925	-0.378692	-2.177297	-2.638008	-0.340332	0.726318	-1.144287	0.018331	0.016188	-0.007792	0.738031	-0.250418	-0.625974	-0.027527	-74.826931	-69.679200	51.791837
30947		2.196008	2.096474	-1.140557	2.229230	1.957749	-8.503110	-0.483688	-2.398338	-3.052143	-0.371582	0.721191	-1.135742	0.022411	0.020598	-0.011189	0.729357	-0.242932	-0.638460	-0.037296	-77.731385	-71.704771	54.575170
30948		2.975315	2.532098	-0.988742	2.294817	2.554914	-7.704249	-0.470182	-2.637700	-3.397770	-0.404541	0.702637	-1.120361	0.030305	0.024787	-0.009549	0.714548	-0.232148	-0.657859	-0.052444	-84.206896	-74.686029	60.776445
30949		4.289148	2.993850	-0.931413	2.472246	3.235591	-6.400687	-0.400621	-2.810570	-3.652106	-0.442139	0.688477	-1.107178	0.043554	0.029129	-0.008764	0.703689	-0.222241	-0.671859	-0.063534	-90.395701	-76.855292	66.922793
30950		4.911069	3.072200	-0.479538	1.934576	3.491049	-5.587652	-0.427462	-2.975566	-3.875725	-0.482178	0.674316	-1.087402	0.049758	0.029753	-0.004123	0.687044	-0.210679	-0.690598	-0.081606	-103.555401	-79.522879	79.598569
30951		5.685845	2.448710	-0.061838	1.106310	3.128761	-4.586986	-0.502351	-3.206491	-4.097442	-0.519775	0.660156	-1.065430	0.057345	0.023315	0.000239	0.673537	-0.199493	-0.705488	-0.094010	-118.867075	-81.060356	94.836693
30952		6.542055	1.661272	0.077601	0.311938	2.403953	-3.513707	-0.426232	-3.402285	-4.313145	-0.552734	0.635010	-1.041260	0.065733	0.015200	0.001859	0.654253	-0.187992	-0.723436	-0.115118	-145.919776	-81.851045	121.103485
30953		7.221995	1.885932	-0.191744	0.253439	2.410016	-2.751292	-0.303721	-3.605910	-4.516518	-0.594238	0.605225	-1.025879	0.072640	0.017220	-0.000637	0.638051	-0.174646	-0.738999	-0.127553	-167.367913	-80.964653	142.612750
30954		7.998070	2.581708	-0.808266	0.544394	2.578498	-1.792633	-0.262810	-3.800277	-4.726401	-0.629395	0.580078	-0.995117	0.080695	0.023906	-0.006586	0.615923	-0.162586	-0.756164	-0.149735	172.412488	-78.569924	161.940631
30955		9.046278	2.845990	-1.302563	0.398988	2.443263	-0.567565	-0.375759	-3.995201	-4.954514	-0.668701	0.552490	-0.964355	0.091367	0.026181	-0.011257	0.596491	-0.147921	-0.771829	-0.163088	162.250672	-75.702575	172.138581
30956		10.290147	2.660689	-1.476075	-0.484951	1.867200	0.741085	-0.413736	-4.127735	-5.148784	-0.696777	0.520752	-0.935791	0.103816	0.023914	-0.012675	0.571002	-0.136241	-0.787662	-0.187040	153.420371	-71.893081	179.811450
30957		11.624864	1.883148	-1.220178	-2.133420	0.975970	1.789666	-0.429550	-4.261660	-5.305011	-0.733398	0.479980	-0.898438	0.116918	0.015713	-0.009751	0.548635	-0.120483	-0.802581	-0.200864	149.058227	-68.287206	-175.813431
30958		13.494958	0.785222	-1.182746	-4.189298	-0.445092	3.083214	-0.399268	-4.450520	-5.486251	-0.756836	0.443604	-0.863037	0.135316	0.004124	-0.008829	0.520105	-0.108541	-0.816992	-0.224130	144.755675	-63.961218	-172.698865
30959		15.842623	0.633643	-1.247690	-6.133056	-1.144060	4.812999	-0.275873	-4.666486	-5.635088	-0.780029	0.403076	-0.823486	0.158754	0.001852	-0.008779	0.494232	-0.091399	-0.831327	-0.237227	142.682816	-59.894298	-170.530333
30960		18.743534	1.438930	-1.476553	-8.258260	-1.255704	7.087821	-0.257245	-4.895255	-5.718595	-0.807861	0.362305	-0.783691	0.188031	0.009003	-0.010181	0.462969	-0.078636	-0.844566	-0.257264	140.507932	-55.333432	-169.322873
30961		21.407376	1.348061	-1.720260	-10.856126	-2.233093	8.625960	-0.470910	-5.092844	-5.712956	-0.824219	0.319580	-0.741943	0.214687	0.007321	-0.011762	0.433593	-0.062097	-0.857372	-0.270284	139.398708	-50.993050	-168.275059
30962		24.572605	0.102611	-1.389342	-14.902442	-3.931215	9.368574	-0.634432	-5.168480	-5.619821	-0.836426	0.279297	-0.699951	0.245874	-0.005913	-0.007528	0.400831	-0.051323	-0.867869	-0.288970	138.016718	-46.502130	-168.045864
30963		27.346054	-2.133656	0.593578	-20.138306	-5.556386	7.961801	-0.784839	-5.128801	-5.460386	-0.848389	0.240967	-0.651367	0.272469	-0.028744	0.013036	0.370205	-0.036578	-0.877798	-0.301796	137.242837	-42.222276	-167.582890
30964		28.826028	-4.669604	1.529608	-23.748181	-7.487143	5.506578	-0.949902	-4.859989	-5.273790	-0.849365	0.203125	-0.611816	0.286409	-0.054170	0.022517	0.339526	-0.027717	-0.884563	-0.318594	136.114976	-38.193986	-167.708824
30965		28.942940	-4.469255	4.047111	-26.176361	-6.147187	2.464685	-0.974394	-4.548721	-4.863224	-0.857178	0.169434	-0.583008	0.287209	-0.051476	0.047261	0.311336	-0.015094	-0.890905	-0.330348	135.425182	-34.382487	-167.487192
30966		26.678231	-7.757355	4.898935	-26.253882	-7.591024	-2.829345	-1.796584	-4.184422	-4.263786	-0.855957	0.135986	-0.543213	0.263942	-0.082744	0.055260	0.285759	-0.011578	-0.893024	-0.347441	134.115024	-31.226654	-167.993080
30967		23.447966	-12.186916	5.586681	-25.173790	-9.759330	-9.187868	-2.293259	-3.650190	-3.596236	-0.857178	0.111328	-0.516846	0.231158	-0.125362	0.061530	0.262968	-0.005133	-0.894112	-0.362470	132.857582	-28.292107	-168.107559
30968		19.979231	-15.680118	7.328296	-23.870890	-9.947017	-15.275746	-2.423251	-3.060059	-2.846816	-0.852295	0.095947	-0.499023	0.196371	-0.158685	0.078220	0.245472	-0.006376	-0.892420	-0.378535	131.401203	-26.292547	-168.779152
30969		16.690319	-18.893095	8.568785	-22.044688	-10.286405	-20.632651	-2.297104	-2.413269	-2.064734	-0.845215	0.084717	-0.481445	0.163880	-0.189617	0.089853	0.230673	-0.004547	-0.890929	-0.391170	130.214708	-24.493169	-169.081831
30970		13.971299	-20.972857	9.925271	-20.577791	-9.671386	-24.527979	-1.894423	-1.710242	-1.154726	-0.840576	0.084717	-0.468262	0.137636	-0.209567	0.102421	0.223178	-0.008472	-0.888394	-0.401093	129.223608	-23.786911	-169.676870
30971		12.786047	-23.628860	11.278452	-20.485107	-9.821042	-28.058120	-1.386871	-0.992018	-0.309209	-0.847412	0.082520	-0.468262	0.126929	-0.235693	0.115051	0.218082	-0.010634	-0.886700	-0.407542	128.573179	-23.291786	-170.038039
30972		14.093331	-22.907926	12.474785	-22.165714	-8.353681	-27.642621	-0.854973	-0.029286	0.363022	-0.843262	0.091553	-0.477051	0.141330	-0.228287	0.125746	0.221692	-0.015292	-0.884520	-0.410176	128.177792	-23.873948	-170.252930
30973		15.171640	-19.624425	12.550388	-22.661182	-6.102237	-24.713272	-0.795183	0.945254	1.087219	-0.847900	0.098145	-0.485840	0.153372	-0.194914	0.125558	0.228031	-0.019041	-0.881728	-0.412546	127.702229	-24.697904	-170.204539
30974		14.237108	-18.216966	11.645806	-21.574414	-5.555955	-22.996722	-0.960509	1.656948	1.837370	-0.839600	0.113770	-0.494873	0.144996	-0.180287	0.116133	0.241914	-0.027293	-0.877025	-0.414199	127.118103	-26.547449	-170.182806
30975		14.780396	-19.921790	8.045207	-21.415020	-9.310399	-21.419691	-0.878215	2.006933	2.512146	-0.842529	0.138428	-0.514648	0.151091	-0.196982	0.079815	0.255761	-0.035210	-0.872314	-0.415228	126.585275	-28.388563	-170.118722
30976		15.035886	-2.292195	-8.622116	-9.872156	-10.133323	0.459472	-1.158470	1.856381	2.406097	-0.836670	0.156250	-0.525879	0.149816	-0.021622	-0.087486	0.271380	-0.045882	-0.866299	-0.416862	125.919436	-30.560393	-170.186888
30977		18.680244	34.894025	-16.711552	2.493471	7.376259	32.438043	-0.128775	1.900922	1.350676	-0.836670	0.160889	-0.541260	0.182840	0.350076	-0.169091	0.282379	-0.047942	-0.863083	-0.415995	125.584217	-31.824567	-169.682215
30978		21.363653	26.170947	1.369308	-9.881745	14.918827	18.874818	1.772305	1.686148	0.822253	-0.830322	0.172119	-0.556641	0.212677	0.262461	0.014221	0.293964	-0.047589	-0.863480	-0.407091	126.291698	-33.121137	-169.184641
30979		24.585919	-1.714252	24.656268	-32.399839	12.858875	-9.386934	1.236794	2.134663	2.213931	-0.833496	0.194336	-0.578613	0.248652	-0.015914	0.243818	0.307939	-0.050978	-0.862214	-0.398950	126.847587	-34.868385	-168.911452
30980		28.371121	-10.896388	8.277081	-30.511502	-5.130139	-3.920226	-0.946634	2.257499	3.876992	-0.827637	0.223389	-0.594238	0.286661	-0.103043	0.080043	0.324308	-0.074307	-0.852904	-0.402315	126.137515	-37.806472	-170.220969
30981		24.075220	-12.174694	0.888136	-23.825422	-10.521562	-2.729037	-0.949712	1.790344	3.750590	-0.829102	0.256592	-0.603271	0.243048	-0.117166	0.007276	0.339058	-0.088221	-0.846504	-0.400858	125.945219	-40.147453	-170.780396
30982		15.525744	-15.158972	0.933240	-18.745597	-10.938290	-9.037180	1.053074	1.945635	3.589896	-0.818604	0.281250	-0.618652	0.158021	-0.148811	0.007016	0.354659	-0.106549	-0.840581	-0.395333	126.499423	-42.881493	-172.054527
30983		13.393449	-8.639374	0.024023	-13.604825	-7.062523	-5.452611	1.389742	1.890301	3.856266	-0.819580	0.305908	-0.634277	0.135557	-0.083783	-0.001624	0.370874	-0.116527	-0.837708	-0.383561	127.751145	-45.296706	-172.708850
30984		13.003098	-4.167671	-8.072419	-6.684247	-9.716525	0.794111	-0.796012	1.596079	3.982805	-0.816406	0.341309	-0.638916	0.130182	-0.039409	-0.081603	0.385216	-0.138011	-0.828160	-0.383030	127.811025	-48.053176	-174.289765
30985		4.976345	-3.530075	-5.635853	-2.142872	-6.838060	-5.613157	-1.416282	1.378542	3.782272	-0.806396	0.370605	-0.647705	0.050035	-0.034756	-0.056455	0.397101	-0.153727	-0.819995	-0.382474	127.814421	-50.249406	-175.366971
30986		2.319255	-7.666387	2.915358	-7.399399	-2.914981	-12.877999	-0.929223	1.412837	3.092043	-0.802734	0.390625	-0.661133	0.024579	-0.076155	0.029338	0.409238	-0.168918	-0.811315	-0.381783	127.818218	-52.468863	-176.386994
30987		7.439310	-3.555934	-0.054562	-6.523606	-2.617041	-5.502245	-0.654407	1.592050	2.656482	-0.796631	0.410645	-0.663330	0.074850	-0.034570	-0.001026	0.420163	-0.177972	-0.804464	-0.380299	127.727198	-54.230630	-176.740910
30988		11.208007	-2.745962	-0.864508	-7.599399	-2.762653	-1.535228	-0.577061	1.757609	2.174577	-0.785889	0.424316	-0.689697	0.112289	-0.026266	-0.009554	0.431895	-0.187481	-0.796180	-0.380021	127.339739	-56.121889	-176.943741
30989		11.711197	-5.790855	1.014723	-10.602806	-3.297262	-2.854667	0.204612	1.864574	1.983712	-0.784424	0.446777	-0.705078	0.117766	-0.056752	0.008993	0.443238	-0.191376	-0.790608	-0.376635	127.208819	-57.673293	-176.647546
30990		9.690741	-4.336695	1.151949	-8.477926	-2.182109	-3.696990	0.380808	1.609334	1.832778	-0.778076	0.453613	-0.711914	0.097388	-0.042497	0.010656	0.454375	-0.197437	-0.784490	-0.373011	127.269201	-59.338766	-176.717620
30991		9.918820	-2.490293	0.041017	-6.600519	-1.866541	-2.227775	0.154633	1.518200	1.706614	-0.767090	0.464844	-0.725098	0.099395	-0.024055	-0.000363	0.463635	-0.200935	-0.779593	-0.370002	127.182731	-60.643589	-176.515477
30992		10.178241	-3.605327	1.793744	-8.273919	-1.235089	-2.754037	0.470634	1.427308	1.602912	-0.762939	0.471680	-0.740479	0.102191	-0.035276	0.017125	0.473471	-0.206064	-0.774026	-0.366396	127.272415	-62.123834	-176.572012
30993		9.634237	-3.223177	2.135900	-7.817376	-0.740528	-3.022544	0.831840	1.253187	1.520484	-0.756592	0.482910	-0.753662	0.096715	-0.031584	0.020621	0.481936	-0.207672	-0.770972	-0.360848	127.671827	-63.252092	-176.485128
30994		8.670374	-1.939329	0.671004	-5.500969	-0.969789	-2.871269	0.737822	1.043195	1.423937	-0.747803	0.489990	-0.766846	0.086872	-0.018799	0.006187	0.489946	-0.212353	-0.766637	-0.356548	128.116218	-64.508570	-176.832145
30995		9.200396	-0.908082	0.025821	-4.518037	-0.781348	-1.784766	0.563702	0.779412	1.403329	-0.745850	0.500977	-0.771240	0.092065	-0.008435	-0.000125	0.496017	-0.214954	-0.764215	-0.351764	128.760450	-65.416048	-177.186709
30996		8.966580	0.965340	0.416236	-3.231269	0.804512	-1.421320	0.287717	0.544953	1.297639	-0.739258	0.505615	-0.777832	0.089612	0.010229	0.003933	0.501248	-0.221011	-0.760322	-0.349021	129.390141	-66.418822	-178.021177
30997		9.203870	-0.754635	1.802920	-5.249422	0.750815	-2.040299	-0.057404	0.436611	1.101898	-0.735107	0.510254	-0.780029	0.092117	-0.007034	0.017830	0.504759	-0.224578	-0.757896	-0.346954	129.845559	-67.064773	-178.552674
30998		10.698201	-2.234985	1.225733	-6.386577	-0.591387	-0.879052	-0.299168	0.331851	0.988730	-0.732910	0.514648	-0.784424	0.107111	-0.021802	0.012113	0.507743	-0.231507	-0.753629	-0.347340	130.125145	-67.838264	-179.426175
30999		9.845443	-2.396155	0.741842	-5.810526	-1.015303	-1.540392	-0.174490	0.260737	0.874159	-0.729004	0.528076	-0.782227	0.098567	-0.023524	0.007311	0.510037	-0.234789	-0.751644	-0.346076	130.547750	-68.316874	-179.989486
31000		9.908551	-3.790674	0.508526	-6.601617	-2.017452	-1.740817	-0.119177	0.183972	0.806221	-0.722168	0.523682	-0.784424	0.099242	-0.037504	0.005016	0.512252	-0.240847	-0.748169	-0.346171	130.968999	-68.947265	179.085229
31001		9.585224	-3.979462	1.320634	-7.055464	-1.482653	-2.231240	0.168940	0.109059	0.765156	-0.729004	0.528076	-0.784424	0.096011	-0.039439	0.013121	0.514185	-0.243086	-0.747254	-0.343707	131.702278	-69.317875	178.404073
31002		10.252919	-2.330855	1.988647	-6.431585	0.178507	-1.262113	0.174532	-0.069728	0.756427	-0.729492	0.539307	-0.786865	0.102609	-0.022938	0.019902	0.515712	-0.248538	-0.744980	-0.342454	132.607905	-69.820458	177.159221
31003		10.477265	-3.364802	-0.845813	-5.516180	-2.603291	-0.614619	0.370240	-0.150159	0.694140	-0.725098	0.545898	-0.789063	0.104895	-0.033268	-0.008441	0.516799	-0.250425	-0.745131	-0.339095	133.736908	-70.051843	176.183121
31004		10.645672	-3.768690	-3.094119	-4.451521	-4.511259	0.033057	0.950377	-0.035343	0.537663	-0.725098	0.541504	-0.793457	0.106563	-0.037253	-0.031100	0.519035	-0.252956	-0.744321	-0.335562	134.885532	-70.462433	175.158804
31005		10.404386	-2.866068	-2.932682	-3.732787	-3.790202	0.024290	1.348728	0.150178	0.375240	-0.722656	0.541748	-0.804443	0.104075	-0.028266	-0.029596	0.521918	-0.250594	-0.745700	-0.329750	135.921068	-70.674876	174.880169
31006		10.402663	-1.122458	-1.767352	-3.097182	-1.746355	0.185125	1.290049	0.225936	0.240355	-0.731689	0.541504	-0.804443	0.104020	-0.010985	-0.017862	0.525271	-0.249876	-0.745548	-0.325285	136.751128	-71.048117	174.546752
31007		10.207352	-1.673676	-0.296930	-4.288513	-1.028536	-0.451602	0.905045	0.335340	0.187045	-0.731445	0.537109	-0.806641	0.102084	-0.016627	-0.003216	0.527951	-0.247649	-0.745896	-0.321834	137.114762	-71.261917	174.710456
31008		9.572855	-3.442630	-1.243944	-4.680385	-2.943600	-1.183232	0.782387	0.373758	0.116181	-0.729004	0.532715	-0.815186	0.095725	-0.034321	-0.012753	0.531001	-0.247345	-0.744763	-0.319666	137.345376	-71.636275	174.729256
31009		9.478038	-3.335178	-1.985136	-4.050100	-3.452157	-1.061898	0.823992	0.345747	0.075937	-0.724854	0.537354	-0.823975	0.094758	-0.033233	-0.020152	0.533426	-0.244886	-0.745059	-0.316820	137.508828	-71.811878	175.054328
31010		9.812523	-1.728454	-1.738139	-3.112526	-2.182748	-0.440287	0.698147	0.322284	0.084015	-0.731201	0.532715	-0.826172	0.098104	-0.017182	-0.017600	0.536198	-0.244257	-0.744232	-0.314561	137.749591	-72.134449	175.094607
31011		10.118690	-1.315245	-0.348372	-3.773756	-0.895805	-0.368362	0.489669	0.300275	0.114725	-0.731689	0.541748	-0.833008	0.101189	-0.013086	-0.003668	0.538093	-0.242899	-0.744053	-0.312796	137.821644	-72.306352	175.313589
31012		10.186844	-1.777483	0.711102	-4.751895	-0.446518	-0.611769	0.373303	0.287917	0.124294	-0.729492	0.543945	-0.837402	0.101890	-0.017725	0.006931	0.540360	-0.243129	-0.742873	-0.311510	137.967311	-72.613825	175.282784
31013		10.360416	-0.724706	0.853207	-4.135539	0.368353	-0.254813	0.425096	0.231392	0.114613	-0.724854	0.543945	-0.841553	0.103618	-0.007206	0.008397	0.541915	-0.242046	-0.742767	-0.309900	138.083249	-72.756649	175.416486
31014		10.700363	-0.237072	1.405747	-4.212820	1.115841	0.063400	0.288549	0.161234	0.138925	-0.725098	0.548340	-0.839600	0.107017	-0.002317	0.013968	0.543498	-0.242903	-0.741701	-0.309010	138.314253	-73.007956	175.204773
31015		11.114687	-2.131684	1.890785	-5.949133	0.162655	-0.002657	0.222016	0.155383	0.196014	-0.732178	0.557129	-0.843994	0.111182	-0.021229	0.018798	0.544649	-0.242787	-0.741381	-0.307841	138.523611	-73.149454	175.118928
31016		11.588114	-3.037460	1.250505	-6.243116	-0.896609	0.448586	0.387929	0.186347	0.297350	-0.721191	0.562012	-0.848389	0.115938	-0.030226	0.012338	0.546543	-0.244172	-0.740065	-0.306553	138.960429	-73.467433	174.693452
31017		11.299426	-1.168073	0.319142	-4.199947	-0.276474	0.743212	0.566087	0.211028	0.431616	-0.716797	0.568604	-0.859375	0.113022	-0.011446	0.003040	0.548676	-0.243898	-0.739822	-0.303533	139.654150	-73.720738	174.308426
31018		10.609095	0.284413	-0.467415	-2.397780	0.176419	0.534843	0.547768	0.294257	0.563356	-0.719238	0.572998	-0.854980	0.106075	0.003156	-0.004822	0.551510	-0.245663	-0.738105	-0.301142	140.464244	-74.176121	173.581232
31019		10.227994	0.292734	-1.082442	-1.804953	-0.246921	0.313998	0.391781	0.431422	0.712757	-0.708740	0.588867	-0.863770	0.102245	0.003313	-0.011039	0.554654	-0.246562	-0.736620	-0.298256	141.264863	-74.626021	172.983089
31020		10.253912	0.091662	-2.075688	-1.174911	-1.068757	0.528295	0.312231	0.560634	0.858047	-0.701904	0.591309	-0.868164	0.102475	0.001389	-0.021042	0.558560	-0.249503	-0.733495	-0.296216	142.151685	-75.288196	172.053283
31021		10.614247	-0.523402	-2.383086	-1.369947	-1.681202	0.860206	0.282555	0.671394	0.969901	-0.695557	0.600342	-0.879150	0.106085	-0.004685	-0.024194	0.562803	-0.251274	-0.730813	-0.293302	143.125740	-75.931623	171.214861
31022		11.086427	-1.957644	-2.105980	-2.520464	-2.444707	1.088918	0.324762	0.804221	1.062525	-0.680420	0.618408	-0.888184	0.110880	-0.018953	-0.021537	0.567903	-0.254183	-0.726909	-0.290655	144.260560	-76.751955	170.098088
31023		11.644111	-3.677677	-1.352538	-4.194921	-3.077743	1.316867	0.420267	0.953038	1.191838	-0.665283	0.629883	-0.899170	0.116591	-0.036053	-0.014157	0.573618	-0.255930	-0.723274	-0.286944	145.577909	-77.591759	168.994043
31024		12.352028	-3.048217	-1.019417	-3.917874	-2.351206	2.104569	0.574694	1.145949	1.313309	-0.656494	0.634521	-0.910156	0.123655	-0.029640	-0.010988	0.580623	-0.258169	-0.718520	-0.282761	147.282957	-78.631509	167.505851
31025		12.622035	-1.896606	-0.975567	-2.959567	-1.487137	2.552122	0.642485	1.298960	1.421722	-0.630127	0.650635	-0.920898	0.126284	-0.018035	-0.010635	0.588102	-0.259563	-0.713783	-0.277986	149.225062	-79.693560	165.903398
31026		13.442819	-0.934341	-0.896793	-2.200404	-0.699623	3.493260	0.683840	1.474472	1.510454	-0.614746	0.662109	-0.947266	0.134422	-0.008295	-0.009989	0.596592	-0.261514	-0.707896	-0.273079	151.783813	-80.923204	163.647484
31027		13.564559	0.273400	-0.984571	-1.014804	0.112392	3.751627	0.695979	1.644959	1.600957	-0.592529	0.671387	-0.951660	0.135531	0.003856	-0.010949	0.605470	-0.262841	-0.701792	-0.267970	154.852908	-82.178016	160.948080
31028		13.977894	0.645360	-0.545440	-0.774433	0.711439	4.150825	0.690184	1.782142	1.712942	-0.570557	0.685303	-0.960449	0.139661	0.007672	-0.006674	0.615113	-0.264948	-0.694531	-0.262801	159.600277	-83.559131	156.503718
31029		14.764332	0.906049	-0.535186	-0.312430	0.943684	4.955241	0.663197	1.970030	1.818607	-0.546143	0.692383	-0.978027	0.147491	0.010423	-0.006772	0.625167	-0.266611	-0.686866	-0.257488	166.636436	-84.944589	149.814529
31030		15.672753	-0.456208	-1.100228	-0.468370	-0.394908	5.892754	0.592661	2.148697	1.933681	-0.514893	0.699951	-1.000000	0.156631	-0.003011	-0.012696	0.635934	-0.269222	-0.677751	-0.252509	-179.875603	-86.350365	136.554455
31031		16.214651	-1.240970	-2.437591	0.427904	-1.861263	6.519092	0.713906	2.259654	2.086538	-0.490479	0.711426	-1.008789	0.161974	-0.010628	-0.026247	0.647110	-0.271138	-0.668572	-0.246464	-152.493407	-87.349939	109.543041
31032		16.781176	-0.235155	-3.269799	2.266924	-1.649315	7.053516	1.089074	2.304174	2.206216	-0.465820	0.711914	-1.021729	0.167431	-0.000318	-0.034634	0.659096	-0.272521	-0.658998	-0.238843	-111.036981	-87.270913	68.628734
31033		18.137569	2.096412	-3.767546	4.809550	-0.156292	8.197650	1.372223	2.354225	2.243745	-0.438965	0.717041	-1.043701	0.180664	0.023261	-0.039651	0.671302	-0.272539	-0.649716	-0.230097	-83.873529	-86.140985	42.210734
31034		18.685139	3.560155	-5.604325	7.798025	-0.162212	8.417605	1.589213	2.400312	2.265130	-0.405273	0.719971	-1.065430	0.185741	0.038165	-0.057980	0.683938	-0.271852	-0.640153	-0.220295	-70.049747	-84.517076	29.270905
31035		18.218896	4.526888	-7.024808	10.062352	-0.218702	7.520177	2.067006	2.292007	2.337706	-0.378174	0.714111	-1.085205	0.180820	0.048125	-0.071838	0.696532	-0.269692	-0.631292	-0.208757	-62.860826	-82.761654	23.230024
31036		19.391082	7.595420	-7.073748	12.736042	2.466564	7.946879	2.550142	2.231195	2.414031	-0.362061	0.709961	-1.109131	0.192170	0.079193	-0.071892	0.709529	-0.265715	-0.623008	-0.194489	-58.514508	-80.909871	20.408827
31037		20.606348	9.417425	-7.800320	15.127873	3.876751	8.359058	2.577173	2.287623	2.469060	-0.332764	0.704102	-1.122314	0.203971	0.097716	-0.079100	0.722322	-0.261981	-0.613975	-0.180696	-55.206661	-79.008020	18.549553
31038		21.147055	7.635487	-7.808511	14.745123	2.899674	8.642173	2.014643	2.315864	2.591303	-0.314209	0.693359	-1.141846	0.209534	0.079876	-0.079726	0.734299	-0.259920	-0.604409	-0.167140	-53.231069	-77.038399	17.844793
31039		19.079712	4.274057	-6.347170	11.845606	1.177303	6.945471	1.142898	2.385547	2.736581	-0.289795	0.702881	-1.148438	0.189412	0.045709	-0.065481	0.745150	-0.261954	-0.592938	-0.156707	-52.035834	-74.962137	17.288058
31040		18.649270	0.240265	-5.547154	9.507567	-1.460059	7.100423	0.408044	2.682049	2.648899	-0.258301	0.698975	-1.159180	0.185672	0.004982	-0.057957	0.755521	-0.265283	-0.580503	-0.147745	-51.063186	-72.853335	16.705491
31041		19.500609	3.665532	-4.433816	11.294697	2.110650	6.959325	-0.076772	2.789262	2.179307	-0.240967	0.717041	-1.163574	0.193948	0.038755	-0.047063	0.765009	-0.269798	-0.566925	-0.143410	-49.775653	-70.872006	15.304610
31042		20.314581	-0.674605	-3.204959	8.859019	-0.589122	8.749313	-1.373222	2.527837	1.949076	-0.216553	0.721924	-1.161377	0.202774	-0.005000	-0.034576	0.771510	-0.277656	-0.554682	-0.141451	-49.673517	-69.136887	14.598051
31043		21.152814	-7.829524	-2.000841	5.050647	-5.488768	11.566546	-0.893584	2.310757	2.544123	-0.196533	0.731445	-1.165771	0.212255	-0.075694	-0.022116	0.778357	-0.286482	-0.541514	-0.137299	-50.006630	-67.168479	14.405357
31044		16.086334	-10.890617	-3.262277	3.156883	-8.955937	7.444548	0.367942	1.913725	2.703634	-0.183105	0.733887	-1.176758	0.161992	-0.106659	-0.034367	0.785687	-0.289703	-0.531872	-0.126017	-50.329732	-65.337969	15.306389
31045		8.245891	-6.606190	-4.086655	3.238725	-6.761306	-1.320056	1.189774	1.620009	1.972963	-0.165039	0.727539	-1.183105	0.082767	-0.064999	-0.041925	0.792886	-0.289228	-0.523344	-0.117434	-49.680593	-63.874874	15.342507
31046		12.320115	-7.198920	-1.999283	3.418633	-5.447980	3.080360	1.245990	1.113417	1.507719	-0.159912	0.714355	-1.198486	0.123623	-0.070929	-0.021124	0.798268	-0.285877	-0.519404	-0.106118	-49.373577	-62.863370	16.239032
31047		8.354218	5.582127	-5.293056	10.343869	2.646972	-5.944137	0.676820	0.652916	0.955136	-0.155273	0.710205	-1.200684	0.083101	0.056398	-0.053012	0.801422	-0.285305	-0.515777	-0.101477	-49.127840	-62.204100	16.399182
31048		6.211536	5.124687	-6.434829	10.056243	1.474285	-8.094871	-0.301300	0.236674	0.394057	-0.162109	0.716553	-1.198486	0.061938	0.051272	-0.064499	0.801570	-0.285623	-0.516217	-0.097078	-49.648284	-62.009382	17.260430
31049		5.149859	2.596916	-2.825245	5.662657	1.258150	-7.056171	-0.320106	0.115284	0.076867	-0.164307	0.714355	-1.202881	0.051472	0.025944	-0.028324	0.801449	-0.287049	-0.515486	-0.097759	-49.790572	-61.932599	17.213897
31050		3.654566	0.764990	-0.678251	2.496088	0.778825	-7.062405	-0.059315	-0.157735	-0.167834	-0.168701	0.712158	-1.202881	0.036557	0.007617	-0.006756	0.800603	-0.285147	-0.518441	-0.094577	-50.094806	-62.137028	17.974846
31051		3.067856	-0.883874	-1.482655	2.111776	-1.105212	-7.222297	0.135110	-0.505503	-0.478932	-0.184570	0.711914	-1.209473	0.030695	-0.008902	-0.014755	0.799255	-0.283603	-0.521205	-0.095421	-50.105533	-62.532871	18.074414
31052		2.496372	-1.846413	-1.973916	1.809648	-2.232796	-7.515471	0.249481	-0.887968	-0.871887	-0.202148	0.704834	-1.209473	0.024970	-0.018548	-0.019651	0.796590	-0.279016	-0.528077	-0.093429	-50.354913	-63.311102	18.947118
31053		2.002900	-1.279320	-1.738021	1.642383	-1.712446	-8.069413	0.210174	-1.256888	-1.284841	-0.222168	0.697754	-1.205078	0.020055	-0.012904	-0.017268	0.792933	-0.275363	-0.534950	-0.096232	-50.408101	-64.336953	19.140612
31054		1.686412	-0.323742	-1.537894	1.760209	-0.845521	-8.587733	-0.065596	-1.572051	-1.674118	-0.246582	0.690674	-1.203125	0.016956	-0.003384	-0.015245	0.787524	-0.270053	-0.545360	-0.097255	-50.916847	-65.713098	20.103175
31055		1.446286	0.199735	-1.583179	1.912565	-0.475698	-8.944561	-0.359812	-1.847152	-2.067036	-0.275879	0.689941	-1.194336	0.014628	0.001818	-0.015701	0.780921	-0.266707	-0.555194	-0.103870	-51.307780	-67.298957	20.304669
31056		1.603223	0.431030	-1.526361	2.000895	-0.226366	-8.797480	-0.434946	-2.124217	-2.471077	-0.304932	0.687256	-1.185547	0.016245	0.004078	-0.015101	0.772842	-0.260729	-0.568314	-0.108420	-52.063967	-69.223396	21.285212
31057		1.909053	0.998195	-1.216327	2.071769	0.434574	-8.532637	-0.402923	-2.422638	-2.847991	-0.329346	0.677734	-1.179199	0.019375	0.009683	-0.011949	0.763754	-0.255462	-0.581067	-0.117390	-52.577428	-71.362911	21.585365
31058		2.460449	1.720466	-1.287461	2.572868	1.068105	-8.107011	-0.407706	-2.695385	-3.178034	-0.371582	0.670410	-1.168213	0.025044	0.016783	-0.012574	0.753205	-0.247388	-0.596738	-0.124036	-53.634294	-73.801824	22.866836
31059		3.292385	1.981352	-1.428230	2.945234	1.268858	-7.259621	-0.408007	-2.905886	-3.460774	-0.413818	0.656006	-1.157227	0.033463	0.019209	-0.013838	0.741693	-0.240339	-0.611553	-0.134658	-54.567057	-76.383986	23.589996
31060		4.021712	1.965551	-1.515029	3.023542	1.253195	-6.404434	-0.411328	-3.147178	-3.694736	-0.446777	0.637695	-1.141846	0.040803	0.018875	-0.014551	0.728744	-0.230688	-0.628714	-0.142948	-56.644501	-79.202513	25.865731
31061		4.953891	1.909089	-1.426206	2.890266	1.258530	-5.309859	-0.389912	-3.409104	-3.897077	-0.488770	0.616699	-1.124512	0.050132	0.018091	-0.013447	0.714550	-0.222219	-0.645136	-0.154390	-59.820530	-82.129844	28.856976
31062		5.836112	1.759671	-1.176541	2.436129	1.255597	-4.243111	-0.317122	-3.621530	-4.072161	-0.524170	0.600342	-1.095947	0.058904	0.016383	-0.010729	0.699014	-0.210994	-0.663456	-0.163364	-68.620252	-85.182331	37.892857
31063		6.777840	1.871561	-1.110822	2.173707	1.331214	-3.167010	-0.196219	-3.842057	-4.214242	-0.563721	0.575195	-1.076172	0.068349	0.017269	-0.009816	0.682339	-0.200755	-0.680896	-0.174621	-102.234821	-87.879059	71.444300
31064		7.602742	2.202528	-0.720268	1.597705	1.743317	-2.225745	-0.193739	-4.053861	-4.329864	-0.605469	0.552002	-1.047607	0.076606	0.020365	-0.005674	0.664190	-0.188218	-0.699762	-0.183738	171.924325	-87.094607	157.567910
31065		8.329316	2.666165	-0.713377	1.329411	2.025454	-1.380496	-0.367405	-4.258005	-4.421470	-0.645264	0.531006	-1.025635	0.083982	0.024799	-0.005397	0.644575	-0.177794	-0.717391	-0.195609	150.920215	-83.922951	178.416321
31066		9.364026	2.639494	-0.829043	0.744922	1.802288	-0.246849	-0.602545	-4.422121	-4.559069	-0.673340	0.499268	-0.992676	0.094363	0.024228	-0.006284	0.623322	-0.165846	-0.735687	-0.206709	144.685066	-80.300291	-175.345655
31067		10.430029	2.303354	-1.266177	0.143194	1.091400	0.885052	-0.790275	-4.578641	-4.714990	-0.714844	0.467285	-0.953125	0.105058	0.020519	-0.010347	0.600616	-0.155610	-0.752643	-0.220397	141.390347	-76.578856	-172.446561
31068		11.616399	2.179763	-1.613661	-0.642749	0.562602	2.083197	-0.922794	-4.736865	-4.870237	-0.745605	0.446533	-0.909180	0.116988	0.018889	-0.013464	0.576291	-0.143573	-0.769950	-0.233350	139.487263	-72.637559	-170.769806
31069		13.255218	2.024002	-1.625209	-2.028715	0.104741	3.537890	-1.030323	-4.882760	-5.015275	-0.766602	0.406006	-0.880371	0.133348	0.016829	-0.013095	0.550548	-0.132845	-0.785932	-0.248112	137.999229	-68.639641	-169.819083
31070		15.567073	1.433615	-2.081603	-3.771416	-1.067508	5.459883	-1.057432	-4.959203	-5.179786	-0.797119	0.378418	-0.829834	0.156424	0.010194	-0.017004	0.523539	-0.120005	-0.801779	-0.262023	136.879792	-64.477092	-169.039369
31071		17.909521	0.947917	-2.319120	-5.939984	-2.110409	7.132554	-1.043010	-5.060253	-5.338765	-0.818115	0.337891	-0.790283	0.179772	0.004580	-0.018680	0.495279	-0.107883	-0.816305	-0.276957	135.873111	-60.268158	-168.578214
31072		20.509862	0.567559	-2.823997	-8.296787	-3.320343	8.865792	-0.993523	-5.201497	-5.417793	-0.832520	0.299561	-0.743896	0.205792	-0.000016	-0.022902	0.465710	-0.094023	-0.830578	-0.290542	135.169082	-55.919545	-168.216804
31073		23.552665	0.385701	-2.764818	-11.527692	-4.132567	10.492082	-0.890086	-5.316482	-5.386188	-0.846680	0.256836	-0.699707	0.236138	-0.002602	-0.021373	0.435059	-0.081387	-0.843590	-0.304066	134.630837	-51.583634	-168.182036
31074		26.473789	-0.911321	-2.450168	-15.569352	-5.714592	10.979048	-0.877057	-5.354600	-5.280874	-0.858887	0.218750	-0.657959	0.264901	-0.016194	-0.017349	0.403986	-0.067941	-0.855732	-0.316071	134.268045	-47.252880	-168.174664
31075		28.731175	-3.637723	-1.637016	-20.089714	-7.979799	9.519807	-0.880839	-5.103895	-5.152050	-0.866211	0.176025	-0.609375	0.286537	-0.043816	-0.008868	0.373446	-0.055701	-0.865827	-0.328299	133.813663	-43.098249	-168.245793
31076		29.032746	-1.773701	1.215954	-22.696322	-5.104289	7.680342	-0.697863	-4.868212	-4.961463	-0.867188	0.140381	-0.569580	0.289358	-0.024865	0.019290	0.344285	-0.042585	-0.874772	-0.338273	133.515245	-39.135140	-168.214958
31077		27.657151	-3.525056	2.769992	-24.112407	-5.378440	3.393751	-1.407354	-4.628018	-4.426286	-0.861816	0.111328	-0.530029	0.274961	-0.041122	0.034351	0.316078	-0.033455	-0.880829	-0.350878	132.859431	-35.471530	-168.463620
31078		24.207614	-9.870739	2.882150	-23.851382	-9.409424	-3.972432	-2.055406	-4.308093	-3.817563	-0.865234	0.082275	-0.494629	0.239428	-0.102956	0.035042	0.290543	-0.027438	-0.884229	-0.364653	131.946385	-32.264105	-168.860234
31079		21.915032	-16.534875	4.547575	-24.791679	-12.476645	-11.782080	-1.706843	-3.876262	-3.152665	-0.864258	0.057861	-0.466064	0.215558	-0.168346	0.051105	0.267326	-0.023039	-0.886872	-0.376118	131.244225	-29.439095	-169.398171
31080		20.426291	-18.311405	7.082304	-25.095544	-11.432632	-16.301326	-0.802429	-3.206572	-2.395523	-0.852539	0.042236	-0.448242	0.200874	-0.185239	0.074802	0.249525	-0.019581	-0.889722	-0.381771	131.093946	-27.320514	-169.908251
31081		15.755828	-18.002311	10.570973	-22.260735	-7.789338	-21.118417	-0.334458	-2.370307	-1.478311	-0.847900	0.035645	-0.435059	0.154953	-0.180996	0.107859	0.236104	-0.017947	-0.892097	-0.384832	131.135428	-25.789643	-170.429554
31082		13.321181	-18.578044	12.268146	-20.761531	-6.453492	-23.969032	-0.517094	-1.470628	-0.593459	-0.843262	0.033447	-0.424072	0.131751	-0.185853	0.124134	0.229777	-0.019022	-0.892835	-0.386894	131.098864	-25.152179	-170.857071
31083		15.096351	-21.934059	12.561853	-23.119158	-8.623604	-25.873078	-0.641747	-0.487606	0.090541	-0.843506	0.037842	-0.419678	0.150755	-0.218867	0.126689	0.227714	-0.021109	-0.892137	-0.389605	130.845928	-25.008534	-171.127661
31084		15.410942	-20.425358	12.499511	-23.203461	-7.514486	-24.511472	-0.649896	0.546099	0.770456	-0.839111	0.042480	-0.435059	0.155235	-0.203250	0.125234	0.233234	-0.024923	-0.890067	-0.390847	130.566474	-25.764252	-171.188812
31085		15.350039	-15.504141	12.883043	-22.403236	-3.702247	-21.052686	-0.776206	1.466219	1.544349	-0.846680	0.062500	-0.455078	0.155631	-0.153347	0.128292	0.242668	-0.029837	-0.886590	-0.392657	130.088232	-26.982942	-171.113273
31086		15.454880	-15.152153	11.809195	-22.316384	-4.102284	-19.456164	-1.185862	2.065567	2.316463	-0.844971	0.078125	-0.463867	0.157499	-0.149011	0.117364	0.257892	-0.038961	-0.881029	-0.394667	129.437293	-29.023908	-171.124549
31087		14.719363	-16.857074	8.682787	-21.179251	-7.240365	-18.482191	-1.258987	2.405890	2.939978	-0.845947	0.106934	-0.490479	0.150683	-0.165829	0.086079	0.273998	-0.048783	-0.874693	-0.396810	128.711157	-31.201061	-171.115025
31088		18.759732	-3.948955	-2.200403	-15.912725	-6.654363	-1.162161	-1.564059	2.252551	3.119787	-0.846680	0.124756	-0.503662	0.187923	-0.036741	-0.023825	0.291393	-0.062211	-0.867077	-0.399245	127.934151	-33.710402	-171.372162
31089		15.440110	36.305878	-19.947746	9.407976	7.726000	32.685042	-1.614848	1.982965	1.956040	-0.844727	0.136230	-0.523438	0.148844	0.362898	-0.203902	0.303359	-0.069081	-0.860243	-0.403959	126.856434	-35.291454	-171.102944
31090		19.607077	33.683222	-5.915995	-0.316801	15.565946	26.402988	0.162894	1.745854	0.837339	-0.840576	0.143066	-0.543213	0.194133	0.337697	-0.060585	0.314249	-0.071238	-0.857005	-0.402139	126.623879	-36.578294	-170.637300
31091		21.221692	2.966419	21.123986	-25.866412	14.627942	-5.089822	0.778788	1.973566	1.983290	-0.843506	0.165283	-0.558838	0.213986	0.030963	0.209253	0.326943	-0.074540	-0.854672	-0.396344	126.897818	-38.166210	-170.353299
31092		26.013384	-17.225201	16.976434	-35.400383	-2.235540	-11.605137	-1.031102	2.414435	3.563103	-0.842529	0.198486	-0.576660	0.265168	-0.166690	0.167452	0.344417	-0.091902	-0.845680	-0.397186	126.316389	-40.960450	-170.998273
31093		27.699218	-12.442592	2.112849	-26.911824	-9.855161	0.435115	-1.409103	2.247635	3.867630	-0.836914	0.229736	-0.589844	0.279548	-0.118898	0.018847	0.360865	-0.106197	-0.837000	-0.397404	125.747087	-43.510951	-171.352375
31094		20.129813	-13.554490	0.832406	-21.106206	-10.287692	-3.629961	0.826477	2.142733	3.682823	-0.833740	0.260986	-0.607666	0.203818	-0.131834	0.005599	0.378205	-0.121964	-0.830589	-0.390138	126.380577	-46.338546	-172.300234
31095		14.184256	-6.659275	5.029060	-15.588107	-2.068994	-4.963431	2.162575	2.323181	3.794237	-0.830078	0.285645	-0.638428	0.143644	-0.064406	0.047925	0.396463	-0.129067	-0.827844	-0.375278	127.895498	-48.876242	-172.673215
31096		9.841109	1.138670	-0.811531	-5.151585	-0.510647	-1.328151	1.199496	2.145644	3.769974	-0.831299	0.321289	-0.645264	0.098078	0.013290	-0.009093	0.414145	-0.144276	-0.820865	-0.365853	128.975461	-51.765323	-173.862205
31097		1.185260	0.863806	-9.219934	5.081431	-6.144219	-4.956481	-1.027970	1.648185	3.537740	-0.823486	0.348145	-0.652100	0.010942	0.008363	-0.092335	0.426563	-0.157884	-0.812850	-0.363857	129.103831	-53.935788	-174.761958
31098		4.915752	-5.963131	-8.141669	-1.654339	-10.230172	-5.498023	-1.898494	1.345511	3.205171	-0.808594	0.370605	-0.663086	0.049566	-0.059611	-0.081183	0.437431	-0.177697	-0.801515	-0.366949	128.803911	-56.266159	-176.264962
31099		8.249128	-7.799542	0.011765	-9.276399	-5.440682	-6.176867	-0.804209	1.424367	2.900837	-0.807129	0.395020	-0.676514	0.083610	-0.076788	-0.000165	0.447695	-0.188448	-0.794232	-0.365038	128.976333	-58.073631	-177.018295
31100		9.044174	-4.223716	1.309867	-8.068212	-1.974570	-4.124963	-0.120742	1.447455	2.612810	-0.805664	0.415039	-0.685303	0.091075	-0.041042	0.012466	0.459521	-0.200683	-0.786087	-0.361433	129.503025	-60.171062	-178.080264
31101		11.337287	-3.021131	2.269980	-8.790729	-0.440943	-1.729802	0.089530	1.450735	2.471138	-0.790771	0.433350	-0.700684	0.113895	-0.028816	0.021862	0.469742	-0.207553	-0.780350	-0.356817	130.035897	-61.792635	-178.630725
31102		11.235670	-5.649322	2.512641	-10.369612	-1.845006	-2.496592	-0.052931	1.333109	2.404589	-0.786621	0.446533	-0.705322	0.113189	-0.055129	0.024388	0.480575	-0.219026	-0.772188	-0.353272	130.728485	-63.758747	-179.833063
31103		9.629704	-5.088787	0.103108	-7.687205	-3.226256	-2.803460	-0.127021	1.076209	2.387459	-0.781006	0.471191	-0.716309	0.096899	-0.049733	0.000543	0.488778	-0.226636	-0.766690	-0.349168	131.569194	-65.196323	179.154946
31104		8.211318	-0.489078	-0.710831	-3.225677	-0.737698	-2.248452	-0.050342	0.808358	2.318406	-0.763428	0.482666	-0.720703	0.082133	-0.003941	-0.007439	0.497307	-0.238565	-0.759403	-0.345079	132.972353	-66.920309	177.205255
31105		9.708588	-1.662890	-0.552552	-4.558300	-1.274325	-1.156992	0.267910	0.741844	2.117577	-0.759277	0.496094	-0.731689	0.097233	-0.015592	-0.005907	0.504077	-0.244651	-0.755439	-0.339653	134.408737	-68.093194	175.817038
31106		10.749404	-1.427493	2.007526	-6.049708	0.973281	-0.643854	0.365628	0.779829	1.845889	-0.748779	0.511963	-0.738525	0.107697	-0.013318	0.019631	0.512054	-0.253577	-0.749181	-0.335003	136.031193	-69.576794	173.934762
31107		10.622876	-3.013726	-0.171102	-5.685313	-1.658866	-0.491772	0.099008	0.671702	1.652884	-0.742188	0.520996	-0.745117	0.106466	-0.029257	-0.002083	0.517457	-0.258387	-0.745493	-0.331232	137.258201	-70.508888	172.689984
31108		9.603928	-4.937459	0.174514	-6.771428	-2.576539	-1.803272	0.312010	0.692276	1.543646	-0.737793	0.520996	-0.751709	0.096422	-0.048634	0.001336	0.524414	-0.266457	-0.739413	-0.327505	138.976327	-71.814017	170.679368
31109		8.475421	-3.491399	0.362961	-5.350723	-1.528661	-2.519830	0.408373	0.588146	1.319893	-0.731689	0.539063	-0.760498	0.084992	-0.034361	0.003309	0.529293	-0.269303	-0.736751	-0.323301	140.327335	-72.562690	169.506372
31110		9.771347	-3.366709	1.229775	-6.001420	-0.640671	-1.333454	0.363564	0.528306	1.117529	-0.733887	0.539063	-0.760498	0.097932	-0.033142	0.011979	0.534999	-0.275774	-0.731586	-0.320166	142.077701	-73.614000	167.527439
31111		10.359973	-2.217303	-0.490371	-4.156347	-1.156477	-0.123929	0.286227	0.502163	1.002488	-0.727539	0.545654	-0.767090	0.103696	-0.021646	-0.005195	0.538842	-0.277875	-0.729296	-0.317117	143.222130	-74.193549	166.507269
31112		9.631361	-1.947526	-0.985254	-3.295134	-1.353872	-0.602104	0.183438	0.608095	0.891178	-0.725342	0.548096	-0.771484	0.096368	-0.019037	-0.010163	0.544180	-0.283818	-0.723786	-0.315357	144.747225	-75.182823	164.666813
31113		9.131624	-2.362529	-1.058123	-3.348404	-1.699349	-1.095609	0.078334	0.521245	0.794825	-0.723389	0.559082	-0.775879	0.091381	-0.023258	-0.010828	0.547440	-0.285664	-0.721343	-0.313639	145.578128	-75.690585	163.854975
31114		10.187144	-3.524803	-0.147364	-4.889716	-1.619609	-0.342173	0.175809	0.481439	0.727958	-0.728027	0.561279	-0.782471	0.101995	-0.034875	-0.001750	0.552030	-0.291040	-0.716369	-0.312047	147.285935	-76.544616	161.854651
31115		10.611455	-3.821463	0.350542	-5.427201	-1.390342	-0.017736	0.346948	0.438118	0.695540	-0.725830	0.563721	-0.789063	0.106254	-0.037851	0.003207	0.555201	-0.291896	-0.714669	-0.309510	148.355113	-76.971931	160.960776
31116		9.663031	-3.585774	-0.777629	-4.215010	-2.133743	-0.619386	0.538092	0.416310	0.637363	-0.717041	0.568359	-0.791260	0.096727	-0.035528	-0.008073	0.559936	-0.295964	-0.710488	-0.306731	150.529376	-77.746469	158.710833
31117		9.819819	-3.528322	-2.116087	-3.291277	-3.117649	-0.179273	0.859392	0.405119	0.518411	-0.712402	0.566162	-0.800049	0.098246	-0.034937	-0.021510	0.563451	-0.294784	-0.709880	-0.302812	151.720127	-78.095870	157.996969
31118		10.190661	-2.645923	-3.021958	-1.971476	-3.195863	0.477187	1.065312	0.490230	0.397538	-0.717041	0.570557	-0.806641	0.101884	-0.026094	-0.030609	0.568903	-0.296146	-0.706680	-0.298747	153.915572	-78.816390	156.078617
31119		10.439766	-1.702788	-1.007521	-2.466761	-1.062073	0.467858	1.090701	0.641797	0.319651	-0.710449	0.570801	-0.819824	0.104391	-0.016805	-0.010502	0.573270	-0.293218	-0.705980	-0.294917	154.575786	-79.229951	156.042989
31120		10.093873	-0.435587	-0.080247	-1.889869	0.427214	0.103349	0.857987	0.717500	0.276626	-0.710449	0.572998	-0.824219	0.100941	-0.004212	-0.001183	0.579046	-0.294138	-0.702043	-0.292103	156.358653	-80.019791	154.462640
31121		9.326281	-1.919841	-0.626552	-2.466368	-1.050372	-0.654567	0.528455	0.633540	0.263679	-0.710693	0.579834	-0.830811	0.093267	-0.019058	-0.006611	0.582447	-0.292616	-0.700570	-0.290402	156.636285	-80.415801	154.488493
31122		10.538577	-3.086163	-0.864294	-3.233246	-1.912356	0.542090	0.383786	0.622387	0.285990	-0.708496	0.582031	-0.837402	0.105402	-0.030694	-0.009030	0.587126	-0.294962	-0.696196	-0.289124	158.591666	-81.140765	152.464348
31123		10.941583	-2.504744	-0.296543	-3.143355	-1.109115	0.909649	0.245661	0.636804	0.333338	-0.704346	0.591064	-0.843994	0.109447	-0.024861	-0.003344	0.590203	-0.294489	-0.694167	-0.288215	159.050222	-81.552946	152.143237
31124		9.873719	-2.387668	0.279935	-3.156671	-0.669868	-0.176509	0.200212	0.573621	0.384662	-0.697754	0.595703	-0.852783	0.098790	-0.023689	0.002492	0.594502	-0.297556	-0.689617	-0.287150	161.761852	-82.241074	149.275139
31125		10.097258	-1.318447	0.383611	-2.377966	0.105834	0.095577	0.226463	0.589583	0.382882	-0.697998	0.600098	-0.854980	0.101008	-0.012995	0.003524	0.597439	-0.297366	-0.687597	-0.286094	162.706651	-82.632692	148.453312
31126		10.335103	-1.269315	1.487232	-2.948529	0.990586	0.235291	0.056856	0.547656	0.406770	-0.691406	0.606934	-0.864014	0.103417	-0.012487	0.014586	0.601325	-0.300782	-0.682969	-0.285467	166.088617	-83.265227	144.840341
31127		10.340935	-2.179527	1.212353	-3.389375	0.176882	0.268756	0.011240	0.483014	0.458855	-0.685059	0.615967	-0.857422	0.103488	-0.021559	0.011872	0.603665	-0.301636	-0.680820	-0.284760	167.799960	-83.597144	143.124560
31128		10.556801	-1.480140	2.352591	-3.487211	1.532484	0.417757	0.081462	0.435458	0.473210	-0.682861	0.620361	-0.866211	0.105654	-0.014561	0.023290	0.607129	-0.305217	-0.676527	-0.283810	172.494938	-84.112757	138.207424
31129		10.763237	-2.106309	2.319713	-3.890014	1.111973	0.641775	0.119513	0.387307	0.489482	-0.674072	0.627197	-0.870605	0.107728	-0.020813	0.022976	0.609336	-0.305971	-0.674750	-0.282495	175.121655	-84.366343	135.636604
31130		11.678579	-3.723710	2.225234	-4.983755	0.080981	1.604928	0.278897	0.390094	0.509044	-0.670166	0.638428	-0.879395	0.116923	-0.036970	0.021973	0.612825	-0.309026	-0.670859	-0.280885	-178.811457	-84.772152	129.449552
31131		12.675646	-4.124338	1.289173	-4.651146	-0.825035	2.718449	0.506646	0.423280	0.581153	-0.658936	0.643066	-0.881592	0.126902	-0.040907	0.012519	0.615862	-0.308838	-0.669347	-0.278042	-174.610104	-84.997483	125.523277
31132		12.563778	-1.539691	-0.573839	-1.311204	-0.527862	2.778961	0.650070	0.453568	0.633669	-0.652832	0.658691	-0.885986	0.125672	-0.014979	-0.006073	0.620192	-0.310874	-0.665675	-0.274947	-166.188031	-85.302210	117.201512
31133		12.130583	-2.055421	-1.559564	-0.924114	-1.630344	2.446790	0.637639	0.484665	0.730353	-0.637207	0.661377	-0.892578	0.121341	-0.020061	-0.015954	0.623815	-0.310670	-0.663881	-0.271294	-159.817973	-85.446942	111.177638
31134		12.134095	-1.903463	-2.173798	-0.222392	-1.963839	2.503030	0.729981	0.590858	0.854181	-0.628662	0.672607	-0.903564	0.121355	-0.018436	-0.022165	0.628910	-0.312619	-0.659745	-0.267354	-148.492763	-85.561006	100.031477
31135		11.925195	-1.085576	-2.640151	0.857425	-1.768972	2.290719	0.822995	0.705738	0.951540	-0.613281	0.679688	-0.912354	0.119207	-0.010179	-0.026865	0.633805	-0.312232	-0.657098	-0.262727	-139.205717	-85.565754	91.190019
31136		12.351475	-0.945555	-2.953784	1.393111	-1.846775	2.710226	0.867166	0.833881	1.080722	-0.599854	0.682373	-0.929932	0.123438	-0.008659	-0.030091	0.640081	-0.313736	-0.652224	-0.257818	-126.109959	-85.362190	78.392719
31137		13.122935	-1.316921	-2.142848	0.795748	-1.416495	3.449798	0.915311	0.980923	1.212068	-0.584473	0.695801	-0.936523	0.131198	-0.012274	-0.022130	0.646276	-0.313496	-0.648312	-0.252466	-115.523956	-85.050542	68.296505
31138		14.247183	-1.888479	-1.177222	0.058418	-0.986778	4.573093	0.982900	1.234628	1.342766	-0.562256	0.700928	-0.947510	0.142517	-0.017867	-0.012741	0.654186	-0.314561	-0.642012	-0.246806	-103.231177	-84.419796	56.397496
31139		14.129542	-0.266116	-1.272371	1.589051	0.035309	4.286947	0.931758	1.456603	1.475441	-0.542236	0.708008	-0.969238	0.141212	-0.001557	-0.013761	0.662129	-0.314445	-0.636010	-0.241246	-93.536685	-83.699356	47.188270
31140		14.095963	-0.342883	-1.529607	2.067029	-0.202081	4.216952	0.916699	1.617462	1.592873	-0.524414	0.710693	-0.982422	0.140851	-0.002233	-0.016448	0.671199	-0.315731	-0.627968	-0.235505	-84.672333	-82.610579	38.689360
31141		14.061952	0.554998	-1.704929	3.164457	0.286621	4.002044	1.043038	1.767815	1.701917	-0.499756	0.715576	-0.989014	0.140407	0.006839	-0.018258	0.680364	-0.315478	-0.620495	-0.229270	-77.942644	-81.487611	32.498674
31142		14.432124	1.358714	-1.598580	4.098691	0.954114	4.150326	1.133508	1.952566	1.774850	-0.470703	0.718506	-1.006592	0.144028	0.014962	-0.017311	0.690694	-0.315862	-0.611218	-0.222678	-72.012176	-80.063775	27.066996
31143		15.165552	2.279311	-2.771988	6.066665	0.827796	4.517947	1.200571	2.128495	1.859478	-0.448242	0.723389	-1.021729	0.151128	0.024372	-0.029187	0.701106	-0.315005	-0.602169	-0.215903	-67.211667	-78.634584	22.883178
31144		15.145497	2.027936	-4.173760	7.334144	-0.315553	4.223336	1.452812	2.189346	1.959962	-0.419189	0.724121	-1.045898	0.150777	0.022070	-0.043235	0.712430	-0.314195	-0.592005	-0.207976	-63.230009	-76.960629	19.597146
31145		15.443288	2.075340	-4.155301	7.857791	-0.194139	4.267922	1.873989	2.215168	2.092903	-0.400879	0.722412	-1.063232	0.153730	0.022763	-0.043051	0.724016	-0.311374	-0.582653	-0.198400	-59.943613	-75.296804	17.318829
31146		16.552624	5.471053	-4.419590	10.986635	2.292559	4.239549	2.228314	2.263740	2.201004	-0.375977	0.718506	-1.087402	0.164398	0.057026	-0.045434	0.736469	-0.307947	-0.572480	-0.187212	-57.082718	-73.441806	15.640722
31147		16.946409	7.121716	-5.313364	13.196105	3.120126	3.686443	2.125560	2.316982	2.288138	-0.342041	0.712646	-1.104736	0.168006	0.073718	-0.054311	0.748397	-0.304455	-0.562278	-0.176214	-54.707671	-71.606866	14.428311
31148		17.239741	6.130376	-7.477976	14.712424	1.185535	3.332943	1.823922	2.339697	2.444833	-0.321777	0.710938	-1.115723	0.170739	0.064088	-0.076208	0.760003	-0.302697	-0.550883	-0.165223	-52.964649	-69.614409	13.676613
31149		18.247788	4.546985	-7.417513	14.555625	0.314220	4.210994	1.824216	2.357505	2.580212	-0.296875	0.707031	-1.133057	0.180977	0.048498	-0.075881	0.771260	-0.300878	-0.539390	-0.153908	-51.504951	-67.613502	13.232163
31150		19.826581	4.548234	-6.230752	14.794836	1.428127	5.406450	1.488420	2.408335	2.704314	-0.267578	0.707764	-1.150635	0.196856	0.048624	-0.064330	0.782066	-0.300586	-0.526948	-0.142641	-50.467885	-65.500916	13.056072
31151		20.532049	1.336826	-4.356545	12.551684	0.329054	7.058138	0.776870	2.550870	2.759972	-0.245361	0.712646	-1.154785	0.204531	0.016370	-0.046118	0.791797	-0.302958	-0.513253	-0.133586	-49.797438	-63.345310	12.806898
31152		21.892898	3.248445	-5.348464	15.506263	1.476186	6.793661	0.347189	2.743670	2.649492	-0.220947	0.719727	-1.163574	0.217712	0.035470	-0.056417	0.801042	-0.306394	-0.498629	-0.125789	-49.239746	-61.155009	12.452495
31153		20.470041	1.070655	-4.366690	13.634045	0.263512	6.100517	-0.548399	2.896668	2.409914	-0.189697	0.727051	-1.163574	0.203891	0.013041	-0.046658	0.808812	-0.312732	-0.482870	-0.121895	-48.945919	-59.019609	11.751653
31154		22.070625	-3.724173	-3.945756	12.361385	-2.982104	9.023625	-1.019242	2.673584	2.514212	-0.165283	0.736328	-1.167969	0.220601	-0.034678	-0.042226	0.815043	-0.321005	-0.467775	-0.117675	-49.228375	-56.936003	11.470461
31155		21.200688	-7.016775	-4.634338	11.380807	-5.940569	9.037364	-0.824829	2.436023	2.801376	-0.150146	0.747803	-1.159180	0.212381	-0.067392	-0.048647	0.820934	-0.329437	-0.452751	-0.112053	-49.676132	-54.804030	11.440987
31156		13.537705	-8.376764	-5.527286	7.526825	-8.290095	2.780717	0.084037	2.160523	2.493310	-0.122803	0.741699	-1.167725	0.135799	-0.082053	-0.056773	0.827182	-0.333138	-0.440373	-0.104217	-49.654352	-52.937052	11.581528
31157		13.429349	-10.199021	-1.406215	4.308664	-6.987963	4.983724	0.541934	1.863953	1.784364	-0.115967	0.737305	-1.178711	0.135055	-0.100747	-0.015593	0.833062	-0.333836	-0.429904	-0.098715	-49.156324	-51.460823	11.344860
31158		16.191265	-3.364878	-3.770087	10.959686	-2.920961	2.798248	1.041730	1.279530	1.374382	-0.108887	0.733154	-1.189697	0.161892	-0.032336	-0.038907	0.838083	-0.331419	-0.423532	-0.091643	-48.583098	-50.412684	11.506989
31159		8.105283	5.085968	-6.228524	11.319630	0.972587	-8.683081	0.132580	0.772185	0.724467	-0.108887	0.728760	-1.194092	0.080627	0.051194	-0.062563	0.840273	-0.332049	-0.419118	-0.089580	-48.439981	-49.803692	11.420102
31160		7.797286	2.918794	-5.079524	9.464858	0.029389	-7.460268	-0.149720	0.521811	0.321986	-0.111084	0.730957	-1.198486	0.077793	0.029275	-0.051020	0.841123	-0.332689	-0.417211	-0.088122	-48.472839	-49.507031	11.491032
31161		5.876074	1.278563	-1.926805	5.525450	0.506286	-6.797960	-0.113593	0.275775	-0.125648	-0.115723	0.733154	-1.200684	0.058742	0.012738	-0.019356	0.841467	-0.332792	-0.416178	-0.089321	-48.344119	-49.451054	11.236726
31162		4.647584	0.072882	-1.578684	4.000112	-0.350062	-6.988839	0.140969	-0.054873	-0.458734	-0.130859	0.721680	-1.198486	0.046482	0.000633	-0.015774	0.841231	-0.330825	-0.418152	-0.089635	-48.148848	-49.714474	11.224421
31163		3.943495	-1.394157	-1.900957	3.118519	-1.777077	-6.944722	0.288533	-0.451797	-0.828746	-0.146729	0.723633	-1.202881	0.039420	-0.014078	-0.018941	0.840397	-0.328086	-0.421516	-0.091745	-47.834616	-50.235643	11.030598
31164		2.948784	-1.691726	-2.031844	2.430750	-2.211687	-7.602381	0.380621	-0.925587	-1.189840	-0.159668	0.708008	-1.211670	0.029480	-0.017054	-0.020214	0.838349	-0.323951	-0.428408	-0.093242	-47.598974	-51.143661	11.141452
31165		2.224123	-1.054126	-1.992812	2.211508	-1.788366	-8.419829	0.384424	-1.337146	-1.552986	-0.184082	0.705078	-1.209473	0.022291	-0.010676	-0.019800	0.835353	-0.319629	-0.436653	-0.096733	-47.332392	-52.312392	11.083083
31166		1.815613	-0.436507	-1.643576	1.985574	-1.138216	-8.837949	0.241571	-1.642892	-1.911210	-0.215576	0.700195	-1.205078	0.018248	-0.004519	-0.016292	0.831014	-0.314764	-0.447503	-0.100404	-47.192530	-53.800873	11.212624
31167		1.745708	-0.101665	-1.205032	1.771872	-0.620959	-8.820434	0.202744	-1.923974	-2.285196	-0.237549	0.688477	-1.200684	0.017559	-0.001205	-0.011883	0.825804	-0.309749	-0.459115	-0.106381	-46.957970	-55.505541	11.068096
31168		1.642333	0.316903	-0.182282	1.163149	0.315041	-8.638610	0.145643	-2.251059	-2.661682	-0.270996	0.683594	-1.205322	0.016483	0.002951	-0.001635	0.819183	-0.303723	-0.473335	-0.112454	-46.792500	-57.544214	11.096488
31169		1.772537	1.166502	-0.450753	1.785471	0.827561	-8.900312	0.045251	-2.567340	-3.042923	-0.308838	0.671631	-1.194336	0.017956	0.011394	-0.004275	0.811319	-0.297731	-0.488374	-0.120865	-46.560334	-59.817045	10.855693
31170		2.421380	2.115502	-0.907902	2.853993	1.361754	-8.735041	-0.055584	-2.868809	-3.377909	-0.348877	0.661865	-1.185547	0.024693	0.020738	-0.008733	0.801866	-0.290891	-0.505609	-0.129434	-46.411374	-62.394998	10.768404
31171		3.203304	2.499237	-1.217525	3.569841	1.529663	-8.108968	-0.173950	-3.201713	-3.658433	-0.388672	0.643311	-1.172607	0.032672	0.024388	-0.011677	0.790933	-0.284339	-0.523475	-0.139821	-46.268810	-65.173147	10.499002
31172		4.277137	2.899803	-1.089706	4.010752	1.986296	-7.010413	-0.255242	-3.543719	-3.862549	-0.426270	0.631592	-1.157227	0.043505	0.028149	-0.010167	0.778203	-0.277113	-0.543287	-0.149826	-46.355040	-68.219608	10.546455
31173		5.531838	2.878394	-0.637693	3.927265	2.278537	-5.491982	-0.285112	-3.843291	-4.055474	-0.475098	0.614990	-1.137451	0.055996	0.027645	-0.005345	0.764046	-0.269991	-0.563406	-0.160971	-46.503969	-71.416146	10.531564
31174		6.686574	2.576091	-0.317600	3.583473	2.245392	-4.020419	-0.239865	-4.095059	-4.240319	-0.516846	0.585205	-1.115479	0.067438	0.024332	-0.001829	0.748320	-0.261610	-0.584943	-0.171522	-46.870173	-74.838474	10.875771
31175		7.622347	2.924974	-0.098919	3.473568	2.635098	-2.910780	-0.152553	-4.343428	-4.390170	-0.558838	0.566406	-1.089111	0.076839	0.027567	0.000654	0.731318	-0.252956	-0.606499	-0.182606	-47.440413	-78.370349	11.372343
31176		8.192647	3.431660	0.090132	3.265899	3.112509	-2.162473	-0.248106	-4.563506	-4.495513	-0.598389	0.543213	-1.062988	0.082622	0.032467	0.002740	0.712559	-0.243726	-0.628871	-0.193336	-49.099534	-82.078172	13.006434
31177		8.899075	3.618966	-0.175049	3.168041	3.048195	-1.270869	-0.509848	-4.780211	-4.612002	-0.642578	0.520020	-1.023438	0.089803	0.034124	0.000301	0.692080	-0.235544	-0.650653	-0.205413	-54.209378	-85.848428	17.848750
31178		10.080776	2.997155	-0.533776	2.551241	2.272929	0.145932	-0.784759	-4.960272	-4.752708	-0.675293	0.494873	-0.992676	0.101574	0.027549	-0.002936	0.669591	-0.227217	-0.672681	-0.217992	-126.865698	-89.211752	90.166048
31179		11.634183	1.771311	-1.169668	1.589093	0.820718	1.875054	-0.893830	-5.079162	-4.931152	-0.716797	0.458252	-0.953125	0.116979	0.014790	-0.008801	0.645721	-0.219034	-0.693860	-0.231575	146.805903	-85.968329	176.010262
31180		13.200966	1.473398	-1.373120	0.558897	0.342708	3.521948	-0.832656	-5.227067	-5.126503	-0.749268	0.424072	-0.900146	0.132628	0.011291	-0.010322	0.620171	-0.209319	-0.715304	-0.244774	140.781064	-81.766523	-178.339544
31181		15.611872	2.010566	-1.487795	-0.444375	0.545724	5.978872	-0.740745	-5.408776	-5.255374	-0.775391	0.396729	-0.862793	0.156901	0.015944	-0.010705	0.593206	-0.199309	-0.736132	-0.257860	138.744864	-77.459842	-176.701782
31182		18.336738	1.811017	-0.958487	-2.861109	0.527701	8.402790	-0.990345	-5.570047	-5.314962	-0.800781	0.358398	-0.823242	0.183935	0.013196	-0.004540	0.564302	-0.189227	-0.756430	-0.271238	137.663557	-73.011067	-176.105142
31183		21.223734	0.701165	-1.241627	-5.638661	-0.722668	10.679592	-1.327556	-5.664245	-5.345551	-0.817627	0.322266	-0.770264	0.212561	0.001276	-0.006419	0.533969	-0.180310	-0.775057	-0.285749	136.780595	-68.553429	-175.975591
31184		24.428266	-0.795609	-0.694762	-9.757656	-1.749224	12.531937	-1.430812	-5.618202	-5.312416	-0.838623	0.281494	-0.719727	0.244021	-0.014458	-0.000001	0.502822	-0.171027	-0.792421	-0.299981	136.013698	-64.092890	-175.980801
31185		27.339215	-2.985128	2.038305	-15.897053	-1.819118	12.639724	-1.702838	-5.385916	-5.241018	-0.848633	0.247803	-0.673340	0.271803	-0.036772	0.028012	0.471829	-0.162516	-0.807283	-0.315056	135.073706	-59.791691	-176.021161
31186		29.105504	-5.245043	2.024764	-19.693361	-3.638309	12.034179	-1.729037	-4.975525	-5.175033	-0.858643	0.214111	-0.629395	0.288941	-0.059727	0.027950	0.441860	-0.153212	-0.820054	-0.329844	134.018824	-55.666732	-175.912138
31187		28.555362	-5.390747	3.773564	-21.996721	-2.547957	9.371700	-1.619157	-4.611430	-4.759663	-0.862061	0.182617	-0.583008	0.283191	-0.060323	0.044755	0.413641	-0.144811	-0.830726	-0.343256	133.139180	-51.874385	-175.971519
31188		26.073342	-9.296773	4.048953	-23.775840	-4.946278	4.066428	-2.291393	-4.230065	-4.254007	-0.861084	0.151611	-0.561035	0.257736	-0.097957	0.047066	0.386996	-0.139109	-0.838180	-0.358242	132.000440	-48.453176	-176.189090
31189		23.381786	-14.023790	5.418928	-25.877319	-6.882893	-2.361874	-2.486728	-3.727382	-3.768189	-0.857910	0.129150	-0.530029	0.230044	-0.143872	0.060274	0.362765	-0.134766	-0.843188	-0.373194	130.764103	-45.426083	-176.446731
31190		19.598905	-17.715693	6.272183	-25.866554	-8.183013	-8.761383	-2.365895	-3.185680	-3.168557	-0.854736	0.104736	-0.510254	0.192104	-0.179438	0.067916	0.341931	-0.131903	-0.846321	-0.386556	129.639428	-42.901685	-176.784685
31191		15.392539	-21.192464	5.960706	-24.437583	-10.081094	-14.572493	-1.945525	-2.675632	-2.464904	-0.854248	0.091309	-0.483643	0.150469	-0.213187	0.063705	0.324522	-0.129962	-0.848571	-0.397143	128.790002	-40.842923	-177.181521
31192		13.660061	-21.495048	7.241339	-23.817986	-8.834382	-17.274988	-1.057841	-2.098502	-1.525472	-0.851807	0.082275	-0.466064	0.134180	-0.215588	0.074969	0.312218	-0.129859	-0.850652	-0.402551	128.539643	-39.473971	-177.740194
31193		12.897329	-21.263348	10.146902	-24.274588	-6.200722	-19.493332	-0.229725	-1.425748	-0.626394	-0.847412	0.082520	-0.461670	0.127578	-0.212917	0.102626	0.304767	-0.130439	-0.852787	-0.403556	128.745162	-38.688225	-178.274205
31194		13.682626	-19.394923	12.270214	-24.849158	-3.299882	-19.062823	0.212012	-0.542392	-0.005484	-0.845215	0.084717	-0.457275	0.136488	-0.194083	0.122867	0.303034	-0.131861	-0.853866	-0.402115	129.090102	-38.575654	-178.642212
31195		14.040569	-16.228695	12.951905	-23.938414	-0.739312	-17.206139	-0.039838	0.394099	0.579261	-0.849854	0.089111	-0.466064	0.141130	-0.161853	0.129274	0.305886	-0.133622	-0.852792	-0.401653	129.095631	-38.980373	-178.686704
31196		13.813414	-15.113875	11.222823	-22.606161	-1.271056	-15.515667	-0.597480	1.173666	1.214968	-0.847900	0.098145	-0.483643	0.139705	-0.149959	0.111861	0.313432	-0.138259	-0.848684	-0.402963	128.713304	-40.048576	-178.658103
31197		13.128868	-16.331132	8.823134	-21.793221	-3.769300	-15.079733	-0.850848	1.647755	1.915194	-0.853027	0.118164	-0.497070	0.133567	-0.161665	0.087827	0.323700	-0.144408	-0.842978	-0.404664	128.177520	-41.499822	-178.583460
31198		12.247130	-17.189505	5.892042	-20.490088	-6.410654	-14.195857	-0.691320	1.851022	2.494968	-0.847168	0.138184	-0.512451	0.125143	-0.170143	0.058361	0.336563	-0.153351	-0.836315	-0.404706	127.854320	-43.398552	-178.744631
31199		16.952674	-9.191143	-1.154829	-16.581873	-6.864806	-2.664677	-0.697164	1.678291	2.731666	-0.838867	0.158447	-0.519287	0.170658	-0.089628	-0.012662	0.348562	-0.162550	-0.829861	-0.404243	127.649147	-45.229678	-179.022021
31200		15.811193	23.006202	-10.728596	6.814582	5.567054	18.768684	-0.804936	1.734742	1.991674	-0.837158	0.171875	-0.536865	0.154870	0.231177	-0.109568	0.359694	-0.169824	-0.823099	-0.405324	127.128617	-46.869210	-178.992417
31201		22.401679	40.985834	-5.149700	10.800466	20.694165	30.970213	-0.211519	1.878299	1.072221	-0.835205	0.180908	-0.554443	0.221316	0.410993	-0.054018	0.369431	-0.170820	-0.818321	-0.405824	126.470731	-48.010795	-178.263136
31202		25.043262	14.775959	18.945602	-16.782137	23.447174	9.500154	0.409519	2.263110	1.680587	-0.833496	0.198730	-0.569824	0.251306	0.149484	0.186920	0.382866	-0.173384	-0.813007	-0.402954	126.179531	-49.665344	-177.642008
31203		26.177484	-15.240445	14.789354	-32.905810	1.896168	-2.765614	-2.371952	2.085763	3.655846	-0.828125	0.234375	-0.585449	0.266016	-0.145821	0.146889	0.396576	-0.188551	-0.800815	-0.407273	125.128455	-52.068958	-178.038527
31204		26.841210	-20.911028	-1.114559	-28.955844	-13.527642	1.907395	-2.905409	1.952964	4.249801	-0.824951	0.270020	-0.596680	0.272670	-0.203505	-0.010811	0.410574	-0.208626	-0.786024	-0.412396	124.081024	-54.836762	-178.938683
31205		17.878998	-21.205213	-2.167591	-23.322961	-14.049373	-4.104505	-0.078209	1.738159	3.685350	-0.823730	0.292236	-0.614258	0.182460	-0.208721	-0.023169	0.424871	-0.219661	-0.778271	-0.406851	124.583327	-57.147300	-179.597931
31206		15.050904	-13.127387	1.390148	-17.672819	-6.465166	-2.987062	2.280706	1.754633	3.833224	-0.811523	0.325928	-0.634277	0.153095	-0.128493	0.011090	0.442420	-0.227476	-0.773992	-0.391734	126.668400	-59.664063	179.375165
31207		15.704297	-4.694138	-1.819833	-10.014473	-4.072814	2.639062	0.952313	1.654875	4.194635	-0.810303	0.354980	-0.643311	0.157821	-0.043545	-0.019715	0.458039	-0.238318	-0.767202	-0.380533	128.499941	-62.152334	177.904682
31208		4.135151	-2.049746	-5.170476	-0.639144	-5.274999	-5.363094	-0.548608	1.367756	4.008973	-0.804688	0.383789	-0.647705	0.041399	-0.019810	-0.051933	0.470722	-0.253639	-0.757257	-0.375033	129.928941	-64.576802	175.850034
31209		1.860929	-5.247001	1.137310	-5.273919	-2.097655	-10.077042	-0.508674	1.413544	3.264415	-0.798828	0.408447	-0.663330	0.019542	-0.052127	0.011370	0.481508	-0.264523	-0.748694	-0.370992	130.952838	-66.531080	174.405930
31210		7.480141	-4.841788	1.260853	-7.185333	-1.479877	-4.601236	-0.200148	1.515417	2.865859	-0.790771	0.430908	-0.680908	0.075578	-0.047326	0.012086	0.492709	-0.274114	-0.739983	-0.366776	131.986797	-68.476903	173.072380
31211		12.446983	-1.990931	0.289466	-6.053407	-0.359393	1.241312	-0.167076	1.592373	2.452730	-0.780029	0.444580	-0.694092	0.124719	-0.018379	0.001918	0.502851	-0.280669	-0.732290	-0.363478	132.611533	-70.135736	172.302878
31212		11.680315	-3.863635	0.727318	-7.157782	-1.096378	0.159290	0.306531	1.628715	2.306581	-0.778564	0.466797	-0.711914	0.117292	-0.037296	0.006261	0.513909	-0.286535	-0.724615	-0.358787	133.551555	-71.875447	171.405648
31213		9.039248	-4.455178	-0.734448	-5.766621	-2.752812	-1.985954	0.539240	1.416894	2.303332	-0.763184	0.480469	-0.718506	0.090842	-0.043486	-0.008105	0.523932	-0.290943	-0.718549	-0.352894	134.950165	-73.392712	170.264654
31214		9.252257	-2.603302	-0.676977	-4.154793	-1.601264	-1.268222	0.569230	1.359807	2.225432	-0.759277	0.493896	-0.722900	0.092755	-0.024981	-0.007472	0.534040	-0.296153	-0.711849	-0.346938	136.758535	-74.973274	168.638616
31215		9.691546	-2.638015	-0.277586	-4.287970	-1.271589	-0.815270	0.505998	1.370364	1.977750	-0.750732	0.507568	-0.742676	0.097148	-0.025412	-0.003506	0.543091	-0.299459	-0.706060	-0.341841	138.247277	-76.323195	167.401845
31216		9.352834	-3.205211	1.635116	-5.511436	-0.073894	-1.443880	0.600442	1.281000	1.775730	-0.739990	0.518799	-0.751465	0.093910	-0.031267	0.015656	0.552012	-0.302960	-0.700064	-0.336761	140.076114	-77.671106	165.796349
31217		8.712366	-0.263593	0.743821	-2.356917	0.904171	-1.436935	0.282117	1.046252	1.592800	-0.735840	0.530029	-0.764893	0.087178	-0.001952	0.006979	0.558792	-0.305999	-0.695180	-0.332927	141.831436	-78.717077	164.168877
31218		9.911179	-2.552102	-1.181423	-3.124602	-1.916183	-0.184443	-0.066837	0.943807	1.450029	-0.731689	0.539063	-0.771484	0.099236	-0.024806	-0.012274	0.564842	-0.310672	-0.689343	-0.330518	143.864841	-79.770986	161.979214
31219		10.273445	-3.729840	-0.294364	-4.477790	-1.862875	-0.013780	0.142723	0.847544	1.353422	-0.725098	0.545898	-0.778076	0.102970	-0.036600	-0.003406	0.570238	-0.313541	-0.685033	-0.327491	146.019249	-80.619409	159.876499
31220		9.070154	-2.303223	1.963184	-4.290236	0.747305	-1.300309	0.249729	0.721881	1.185243	-0.714111	0.548340	-0.786865	0.090906	-0.022518	0.019276	0.575495	-0.316682	-0.680677	-0.324340	148.800495	-81.446793	157.129251
31221		9.426132	-3.273696	1.484037	-4.728829	-0.183690	-0.903445	0.100683	0.645766	1.030249	-0.709961	0.557373	-0.793457	0.094476	-0.032258	0.014519	0.579547	-0.318863	-0.677310	-0.322030	151.126893	-82.067911	154.837480
31222		8.838782	-3.763147	1.115186	-4.717657	-0.790262	-1.407496	0.132128	0.620929	0.901894	-0.705322	0.555176	-0.797852	0.088590	-0.037240	0.010852	0.583757	-0.321482	-0.673442	-0.319926	153.964053	-82.727017	151.975674
31223		9.128705	-2.601335	1.738766	-4.083637	0.416546	-1.079239	-0.090119	0.585454	0.820846	-0.703369	0.566406	-0.795654	0.091443	-0.025630	0.017132	0.586924	-0.323586	-0.670232	-0.318750	156.257738	-83.234374	149.613256
31224		9.108828	-3.035936	0.905530	-3.849604	-0.496213	-0.984244	-0.250328	0.505066	0.717403	-0.698975	0.566406	-0.800049	0.091219	-0.030021	0.008863	0.589785	-0.326833	-0.666361	-0.318272	159.195989	-83.753436	146.437654
31225		10.020832	-3.011669	0.929580	-3.852648	-0.397094	-0.047941	-0.190046	0.407068	0.635089	-0.694824	0.573242	-0.804443	0.100322	-0.029790	0.009120	0.591872	-0.328877	-0.663785	-0.317675	161.609503	-84.100068	143.901620
31226		10.584870	-2.603374	0.547480	-3.256041	-0.416320	0.596020	-0.073843	0.326208	0.598954	-0.697266	0.577637	-0.806641	0.105935	-0.025715	0.005312	0.594199	-0.331437	-0.660914	-0.316654	165.184089	-84.460859	140.195855
31227		10.342313	-3.344690	-0.708922	-3.051190	-1.870456	0.475375	0.157352	0.233809	0.555089	-0.697266	0.579834	-0.811035	0.103507	-0.033154	-0.007236	0.596143	-0.332449	-0.659515	-0.314850	168.249787	-84.668783	137.207482
31228		10.715208	-3.910568	-1.635635	-2.917032	-2.913120	0.947783	0.521401	0.186991	0.496966	-0.697510	0.584229	-0.806641	0.107233	-0.038796	-0.016558	0.598807	-0.333061	-0.658184	-0.311921	172.434211	-84.891205	133.239664
31229		10.268045	-3.456982	-1.115038	-2.751470	-2.253999	0.481741	0.797445	0.143620	0.461027	-0.697510	0.586670	-0.815430	0.102752	-0.034288	-0.011361	0.601355	-0.331981	-0.658192	-0.308131	175.823884	-85.003983	130.296063
31230		10.446463	-3.149301	0.210499	-3.208383	-0.989093	0.570889	0.806985	0.141680	0.449392	-0.699707	0.584229	-0.819824	0.104536	-0.031266	0.001904	0.604235	-0.331582	-0.657538	-0.304297	-179.639425	-85.146513	126.147158
31231		10.500656	-1.584254	0.046658	-1.798391	-0.183711	0.651901	0.636965	0.153278	0.456673	-0.695557	0.593262	-0.830811	0.105043	-0.015604	0.000336	0.606520	-0.330941	-0.657250	-0.301054	-176.064680	-85.227689	122.926624
31232		10.299846	-1.977288	-0.106162	-1.941160	-0.543200	0.480240	0.609586	0.160193	0.440054	-0.695557	0.593262	-0.830811	0.103041	-0.019543	-0.001204	0.609085	-0.331017	-0.656266	-0.297922	-171.382018	-85.328960	118.522935
31233		10.980278	-2.581452	-0.974239	-1.866567	-1.544701	1.246654	0.707454	0.181725	0.412355	-0.695557	0.595703	-0.835205	0.109847	-0.025553	-0.009933	0.611496	-0.329960	-0.656046	-0.294621	-167.808338	-85.391133	115.344797
31234		11.241167	-1.558255	-0.089388	-1.521343	-0.197690	1.432139	0.709671	0.224639	0.412585	-0.700439	0.604492	-0.842041	0.112442	-0.015347	-0.001075	0.614361	-0.329482	-0.655075	-0.291340	-162.929079	-85.478269	110.806864
31235		10.808062	-1.079084	0.383789	-1.363096	0.437311	0.961189	0.556550	0.247009	0.417078	-0.693604	0.606689	-0.842041	0.108107	-0.010576	0.003675	0.616725	-0.328795	-0.654403	-0.288618	-159.067784	-85.535827	107.254155
31236		10.890324	-0.973351	0.393363	-1.214594	0.519178	1.048079	0.466153	0.312406	0.407756	-0.691406	0.604736	-0.850830	0.108929	-0.009520	0.003741	0.619434	-0.328863	-0.652829	-0.286295	-153.919004	-85.614897	102.310056
31237		10.641351	-1.893980	1.138303	-2.333985	0.504793	0.790077	0.375320	0.383262	0.423373	-0.687256	0.615723	-0.855225	0.106475	-0.018736	0.011144	0.621940	-0.328551	-0.651446	-0.284364	-149.436404	-85.693673	98.030829
31238		10.560872	-2.770340	1.366935	-3.081462	0.128098	0.749656	0.272787	0.374235	0.472591	-0.678467	0.620361	-0.853027	0.105699	-0.027472	0.013434	0.624593	-0.329291	-0.649309	-0.282577	-143.538538	-85.716677	92.227644
31239		10.169525	-2.575173	1.504004	-2.948579	0.321582	0.361540	0.276554	0.362561	0.480037	-0.678711	0.625000	-0.864014	0.101784	-0.025528	0.014820	0.626935	-0.329491	-0.647740	-0.280752	-138.698087	-85.705032	87.533139
31240		9.762743	-2.154166	1.493763	-2.541703	0.546629	-0.044188	0.321974	0.326226	0.467730	-0.676514	0.631592	-0.866211	0.097702	-0.021337	0.014744	0.629481	-0.330089	-0.645830	-0.278744	-133.182300	-85.632751	82.142748
31241		10.213239	-2.441009	0.921678	-2.341716	-0.045285	0.465069	0.316493	0.302825	0.453842	-0.670166	0.638428	-0.870605	0.102201	-0.024193	0.009024	0.631646	-0.330153	-0.644532	-0.276768	-129.004851	-85.548944	78.135416
31242		10.626399	-3.500816	0.253746	-2.659478	-1.194717	0.991937	0.401089	0.278975	0.460986	-0.659424	0.649658	-0.872803	0.106348	-0.034768	0.002319	0.634136	-0.330505	-0.642896	-0.274450	-124.230383	-85.401564	73.534667
31243		11.203201	-3.020688	-1.172042	-1.299245	-1.947331	1.612256	0.591310	0.252052	0.481290	-0.656982	0.649902	-0.879395	0.112089	-0.029902	-0.011950	0.636614	-0.329848	-0.642073	-0.271414	-120.521398	-85.243144	70.153861
31244		11.369185	-3.063263	-1.770055	-0.850537	-2.412084	1.816279	0.728286	0.244182	0.508990	-0.646240	0.658936	-0.879395	0.113747	-0.030278	-0.017950	0.639564	-0.329321	-0.640921	-0.267817	-116.265032	-85.013631	66.262182
31245		11.535414	-3.495734	-1.883703	-1.006736	-2.752889	2.029672	0.778558	0.264159	0.598709	-0.641846	0.661377	-0.896973	0.115433	-0.034538	-0.019124	0.642521	-0.328412	-0.640089	-0.263815	-112.628411	-84.760269	63.059552
31246		11.833431	-3.606794	-1.639080	-1.110576	-2.600887	2.341583	0.896201	0.370242	0.717789	-0.633057	0.668213	-0.901367	0.118432	-0.035568	-0.016770	0.646378	-0.327797	-0.638409	-0.259189	-107.929273	-84.401160	58.820366
31247		11.947325	-2.359020	-1.598885	-0.052767	-1.739693	2.345801	1.100470	0.533496	0.829977	-0.619873	0.679443	-0.907959	0.119526	-0.023005	-0.016435	0.650977	-0.326209	-0.636697	-0.253836	-103.088264	-84.019924	54.588986
31248		11.672547	-0.305619	-1.809423	1.764939	-0.550339	1.857611	1.107205	0.690630	0.945048	-0.608643	0.679932	-0.923340	0.116674	-0.002403	-0.018512	0.656408	-0.325159	-0.633840	-0.248289	-97.600903	-83.504937	49.675574
31249		11.939854	0.054877	-1.247969	1.836104	0.149230	2.050049	0.931240	0.849595	1.066811	-0.588867	0.693604	-0.934326	0.119339	0.001245	-0.012982	0.661951	-0.324438	-0.630415	-0.243183	-92.499836	-82.933106	45.076642
31250		12.731196	0.618649	-1.070287	2.393912	0.742996	2.730252	0.801602	1.034566	1.156678	-0.577881	0.698242	-0.943115	0.127216	0.006967	-0.011334	0.668118	-0.324548	-0.625648	-0.238435	-87.264418	-82.213950	40.231758
31251		13.318818	-0.001151	-1.419485	2.461903	0.125530	3.352582	0.743475	1.215009	1.248947	-0.555664	0.705322	-0.951904	0.133095	0.000875	-0.015001	0.674618	-0.324528	-0.620384	-0.233872	-82.436287	-81.432122	35.785208
31252		13.475621	-0.422793	-1.064180	2.199636	0.110724	3.530730	0.834318	1.377627	1.381151	-0.537842	0.710205	-0.964844	0.134703	-0.003251	-0.011585	0.682022	-0.324712	-0.614054	-0.228792	-77.804625	-80.463307	31.553703
31253		14.200967	-0.832445	-0.619068	1.998652	0.202584	4.283391	0.922071	1.612918	1.491828	-0.515381	0.710693	-0.980225	0.142010	-0.007233	-0.007371	0.690162	-0.324299	-0.607106	-0.223449	-73.417624	-79.398581	27.635547
31254		15.343520	0.014580	-1.353740	3.645374	0.334200	5.148727	1.047708	1.830079	1.574439	-0.495361	0.718018	-0.997803	0.153295	0.001429	-0.014935	0.699293	-0.323694	-0.599002	-0.217733	-69.212588	-78.157137	23.937397
31255		15.060842	1.011084	-3.049324	5.837963	-0.220381	4.435313	1.316228	1.933232	1.634226	-0.470703	0.722900	-1.015381	0.150214	0.011546	-0.031874	0.708952	-0.321868	-0.590932	-0.211156	-65.466345	-76.859079	20.873689
31256		14.824176	1.954268	-3.668932	7.248470	0.001874	3.769696	1.733132	1.987167	1.708471	-0.447998	0.716797	-1.030518	0.147693	0.021131	-0.037980	0.719477	-0.318891	-0.582590	-0.203102	-62.072412	-75.433137	18.381091
31257		15.829289	4.946814	-3.870865	9.984482	2.139733	3.815778	2.083663	2.094423	1.768825	-0.420898	0.713135	-1.050049	0.157432	0.051274	-0.039832	0.730620	-0.314392	-0.574226	-0.193950	-58.885513	-73.952812	16.315687
31258		16.894395	6.470054	-5.678347	12.921278	2.204078	3.887066	1.965868	2.210552	1.857797	-0.402832	0.715820	-1.074219	0.167693	0.066828	-0.057992	0.741857	-0.310545	-0.564815	-0.184917	-56.124897	-72.340099	14.593590
31259		16.428322	5.948935	-7.235683	13.969766	0.876820	2.902715	1.703752	2.224214	2.047258	-0.382324	0.707275	-1.089600	0.162844	0.061785	-0.073653	0.752593	-0.307922	-0.554837	-0.175907	-54.033145	-70.641777	13.418071
31260		16.818335	4.117616	-7.988175	13.948480	-0.797327	3.163835	1.636155	2.165867	2.331147	-0.351318	0.716797	-1.100342	0.166807	0.043787	-0.081342	0.763109	-0.306390	-0.544320	-0.165848	-52.574826	-68.808845	12.855792
31261		18.812129	4.233416	-6.245992	13.920384	0.762916	4.898796	1.543736	2.258834	2.548293	-0.326416	0.715332	-1.117920	0.186839	0.045212	-0.064233	0.773628	-0.305526	-0.532943	-0.155323	-51.395506	-66.854540	12.538287
31262		20.443931	4.792661	-5.773062	15.047582	1.816952	5.822766	1.104858	2.378827	2.722693	-0.299316	0.711426	-1.133057	0.203055	0.051024	-0.059875	0.783636	-0.306657	-0.520327	-0.145380	-50.607048	-64.777245	12.367880
31263		20.228204	-0.064407	-4.838687	12.218419	-1.191639	6.975260	0.747857	2.469601	2.803977	-0.274902	0.720703	-1.137451	0.201645	0.002373	-0.050874	0.793129	-0.309188	-0.506760	-0.136175	-50.050937	-62.630432	12.226346
31264		20.479589	3.252170	-6.149078	15.619362	0.706223	5.130011	0.892979	2.531679	2.616347	-0.247803	0.719238	-1.152832	0.203546	0.035472	-0.063919	0.802527	-0.310499	-0.493281	-0.127337	-49.307052	-60.553967	11.968213
31265		20.448661	3.899305	-3.922072	14.880402	2.647708	5.028267	-0.489855	2.587316	2.254750	-0.228027	0.728516	-1.148438	0.203499	0.041191	-0.041957	0.809486	-0.316347	-0.478972	-0.123462	-49.114593	-58.600520	11.420357
31266		22.826044	-4.589207	-4.134662	12.516271	-3.737907	9.898127	-1.500122	2.384249	2.443595	-0.199463	0.744385	-1.146240	0.228289	-0.043425	-0.043736	0.814112	-0.326689	-0.464650	-0.120816	-49.790573	-56.667128	11.215400
31267		19.541523	-8.573960	-5.393634	10.190141	-7.802119	8.068227	-0.287429	2.107215	2.731473	-0.186279	0.751465	-1.157227	0.195981	-0.083145	-0.055879	0.820088	-0.332898	-0.451325	-0.113755	-50.078034	-54.685398	11.364821
31268		14.873329	-9.673984	-4.599241	7.032642	-8.512962	4.816018	0.766066	1.905940	2.566972	-0.167725	0.742920	-1.165771	0.149507	-0.094643	-0.047780	0.826893	-0.334377	-0.439903	-0.104527	-49.817488	-52.883249	11.598348
31269		13.561767	-8.239974	-1.270250	5.209949	-5.379351	4.234921	1.164447	1.591796	1.912333	-0.154053	0.736572	-1.176758	0.136287	-0.081019	-0.014260	0.833283	-0.332920	-0.430648	-0.096677	-49.174262	-51.450926	11.629550
31270		15.408833	-5.329385	-3.236968	9.276843	-4.139742	3.344220	1.415203	1.045588	1.461544	-0.151367	0.723389	-1.191895	0.154298	-0.051932	-0.033547	0.838393	-0.329639	-0.424845	-0.089114	-48.522812	-50.455091	11.842936
31271		8.295379	5.519803	-5.370214	11.051395	1.979761	-8.375257	0.844935	0.638400	0.886584	-0.151123	0.723633	-1.200684	0.082536	0.055791	-0.053731	0.841537	-0.327702	-0.421031	-0.084618	-48.116746	-49.825674	11.945469
31272		7.182592	4.495460	-5.420379	9.954398	1.070556	-8.841731	0.312406	0.313291	0.553168	-0.153320	0.718994	-1.205078	0.071616	0.045238	-0.054246	0.842763	-0.327400	-0.419333	-0.081976	-48.068071	-49.506067	12.125862
31273		5.697553	2.417684	-2.027991	5.942849	1.384433	-7.535427	0.018873	0.220028	0.138983	-0.155273	0.714600	-1.207275	0.056936	0.024218	-0.020340	0.843330	-0.327535	-0.418143	-0.081677	-48.010650	-49.355808	12.065369
31274		4.395937	0.901807	-1.161879	3.924039	0.574467	-7.412817	0.033471	-0.078499	-0.194822	-0.164551	0.716553	-1.205078	0.043973	0.008977	-0.011600	0.842955	-0.326975	-0.419248	-0.082134	-47.980396	-49.510565	12.062942
31275		3.831113	-0.347550	-1.638978	3.353182	-0.765698	-7.434809	0.253864	-0.424961	-0.498667	-0.175537	0.714355	-1.209473	0.038337	-0.003550	-0.016313	0.842288	-0.325046	-0.421913	-0.082974	-47.822858	-49.879086	12.047954
31276		3.019929	-0.883895	-1.691558	2.638825	-1.321392	-7.799463	0.465762	-0.815183	-0.824705	-0.195313	0.700684	-1.211670	0.030231	-0.008924	-0.016813	0.840775	-0.321626	-0.427319	-0.083976	-47.626762	-50.585839	12.152841
31277		2.406430	-0.746414	-1.547725	2.202548	-1.206990	-8.252122	0.587836	-1.214596	-1.155571	-0.215088	0.693604	-1.213867	0.024114	-0.007558	-0.015353	0.838627	-0.317197	-0.434472	-0.085587	-47.372234	-51.537476	12.259463
31278		2.298684	-0.175605	-0.875021	1.898150	-0.363317	-8.281251	0.600377	-1.543494	-1.457909	-0.237305	0.686523	-1.213867	0.023040	-0.001898	-0.008578	0.835352	-0.312104	-0.443929	-0.087778	-47.175478	-52.793908	12.458693
31279		2.319383	0.066530	-0.126123	1.462107	0.276659	-8.027950	0.467514	-1.820235	-1.745158	-0.259521	0.677246	-1.211670	0.023209	0.000465	-0.001049	0.831228	-0.307066	-0.454382	-0.091147	-47.021319	-54.229707	12.600937
31280		2.444352	-0.060191	0.537407	0.957427	0.577656	-7.572938	0.263781	-2.112566	-2.047731	-0.292969	0.674316	-1.207520	0.024377	-0.000859	0.005631	0.825607	-0.302187	-0.466807	-0.095644	-47.036325	-55.955456	12.817443
31281		2.499295	0.335952	0.643080	1.016409	0.950769	-7.613772	0.113416	-2.431450	-2.357156	-0.317383	0.660400	-1.205322	0.024950	0.003062	0.006736	0.818879	-0.297353	-0.480353	-0.101388	-47.127090	-57.886584	13.004071
31282		2.492777	1.053985	0.350674	1.474735	1.344281	-7.951218	-0.015910	-2.743032	-2.684878	-0.352783	0.648682	-1.196533	0.025015	0.010205	0.003849	0.810552	-0.292230	-0.495889	-0.108168	-47.364740	-60.124320	13.286270
31283		3.104612	2.100244	-0.391183	2.734495	1.812168	-7.958128	-0.121786	-2.920535	-3.027103	-0.395264	0.641113	-1.183594	0.031412	0.020527	-0.003467	0.801340	-0.286750	-0.511934	-0.116412	-47.546130	-62.527064	13.414178
31284		3.205203	3.103400	-1.322119	3.893067	2.077764	-8.337583	-0.279337	-3.076528	-3.329357	-0.428467	0.626953	-1.166016	0.032761	0.030474	-0.012764	0.790713	-0.280961	-0.529138	-0.125880	-47.794234	-65.166028	13.530676
31285		3.906505	3.204046	-1.034414	3.927021	2.364637	-7.450694	-0.519219	-3.355754	-3.565587	-0.472900	0.612793	-1.148438	0.039795	0.031309	-0.009762	0.778648	-0.275626	-0.546889	-0.136564	-48.238563	-67.964239	13.691303
31286		5.397675	2.221619	-0.710302	3.551262	1.843848	-5.504964	-0.669189	-3.595117	-3.779461	-0.501709	0.603271	-1.128662	0.054500	0.021168	-0.006198	0.764828	-0.270110	-0.565847	-0.147972	-48.984517	-70.994843	14.100287
31287		6.591667	1.278878	-0.136134	2.712060	1.446328	-3.842247	-0.601277	-3.778126	-3.961605	-0.543701	0.580078	-1.102295	0.066163	0.011478	-0.000149	0.750134	-0.263914	-0.584950	-0.159631	-49.866206	-74.120465	14.663732
31288		7.115761	1.257468	0.158238	2.255752	1.569394	-3.128724	-0.483366	-3.962064	-4.091492	-0.578613	0.557129	-1.078369	0.071345	0.011122	0.002967	0.734107	-0.256634	-0.604974	-0.170973	-51.268197	-77.418424	15.848612
31289		7.377955	1.787289	-0.174529	2.489975	1.746967	-2.856310	-0.594465	-4.162783	-4.219417	-0.618408	0.533936	-1.052002	0.074150	0.016309	-0.000254	0.716851	-0.249520	-0.624856	-0.182809	-53.808272	-80.782203	18.088064
31290		7.907957	2.295078	-0.999002	3.093235	1.621764	-2.290589	-0.802884	-4.351151	-4.371656	-0.658203	0.515381	-1.016846	0.079749	0.021177	-0.008347	0.697675	-0.242381	-0.645241	-0.195359	-59.939738	-84.290801	23.831702
31291		9.043819	2.580384	-1.633674	3.375616	1.422798	-0.999738	-1.026857	-4.519001	-4.577809	-0.684326	0.490234	-0.977295	0.091336	0.023643	-0.014405	0.677044	-0.235503	-0.665174	-0.209028	-84.176369	-87.648854	47.527496
31292		10.432004	2.229530	-1.754654	2.674780	0.988256	0.613326	-1.216592	-4.668885	-4.817317	-0.721436	0.460449	-0.942139	0.105188	0.019671	-0.015222	0.654404	-0.228091	-0.685349	-0.223666	169.502462	-87.466812	153.229915
31293		12.243628	1.511394	-1.849420	1.477750	0.247890	2.568858	-1.286265	-4.798255	-5.029105	-0.754150	0.430664	-0.898193	0.123161	0.011916	-0.015628	0.630499	-0.220315	-0.704887	-0.238886	147.005549	-83.784444	175.041241
31294		14.365843	0.267788	-1.779660	-0.520464	-0.835027	4.628818	-1.192066	-4.889610	-5.219174	-0.773193	0.401367	-0.864990	0.144039	-0.001170	-0.014278	0.605044	-0.211094	-0.724493	-0.253912	141.001849	-79.704317	-179.556493
31295		16.857424	-0.198089	-2.287609	-1.990962	-1.701150	6.993721	-0.975612	-5.002573	-5.363240	-0.807617	0.360352	-0.816650	0.168940	-0.006606	-0.018628	0.578711	-0.200851	-0.743524	-0.268188	138.245713	-75.535417	-177.308149
31296		19.536193	0.250180	-2.748670	-3.396448	-1.870088	9.528022	-0.821924	-5.183866	-5.416524	-0.817383	0.317871	-0.772461	0.195957	-0.002900	-0.022407	0.550682	-0.189626	-0.762618	-0.281436	136.845844	-71.200850	-176.310210
31297		22.612982	0.073738	-3.308610	-5.644119	-2.618280	12.172144	-0.812712	-5.350717	-5.413369	-0.834229	0.281738	-0.724121	0.226814	-0.005515	-0.027009	0.521531	-0.178641	-0.780755	-0.294133	136.033015	-66.847984	-175.938231
31298		25.581074	-1.500615	-3.319762	-9.489495	-4.084819	13.864350	-0.848104	-5.397737	-5.358206	-0.853027	0.243408	-0.684326	0.256054	-0.021986	-0.026205	0.491206	-0.167498	-0.798027	-0.306291	135.481782	-62.448727	-175.838295
31299		27.769875	-3.602437	-1.341309	-14.822513	-4.584008	13.529605	-0.714554	-5.288107	-5.151601	-0.858154	0.203125	-0.638184	0.276870	-0.043194	-0.005938	0.461325	-0.156711	-0.813664	-0.317131	135.132939	-58.225042	-175.907446
31300		28.051019	-5.036778	0.176494	-18.384529	-4.747593	11.433272	-0.902088	-4.989135	-4.931773	-0.865967	0.169434	-0.593994	0.278991	-0.057231	0.008986	0.432045	-0.146388	-0.827253	-0.327964	134.683386	-54.178211	-175.964159
31301		27.856473	-4.119209	3.083847	-20.958080	-2.117776	9.120243	-1.152315	-4.687491	-4.394427	-0.862549	0.135986	-0.554199	0.276745	-0.047083	0.037600	0.404422	-0.138339	-0.838247	-0.338596	134.224878	-50.506158	-176.218333
31302		24.860093	-7.941046	4.975321	-23.098651	-3.344775	2.871775	-2.062527	-4.325531	-3.756151	-0.859619	0.115967	-0.523438	0.245893	-0.083490	0.055938	0.378273	-0.134015	-0.845782	-0.351572	133.406469	-47.231653	-176.683284
31303		21.197691	-12.842872	6.985089	-24.695751	-4.952316	-4.473422	-2.353027	-3.798433	-3.117281	-0.852295	0.093750	-0.492432	0.208553	-0.130832	0.075364	0.355057	-0.131939	-0.850590	-0.364723	132.448453	-44.447790	-177.226504
31304		18.990420	-17.024725	7.991813	-25.899448	-6.590911	-9.868048	-2.132930	-3.172363	-2.429314	-0.855957	0.075684	-0.472656	0.186506	-0.171640	0.084720	0.335738	-0.131315	-0.853710	-0.375786	131.643641	-42.216871	-177.823947
31305		16.321877	-19.418061	10.048941	-26.087947	-6.143909	-14.916548	-1.697903	-2.404522	-1.521548	-0.853516	0.069092	-0.463867	0.160503	-0.194535	0.104081	0.321497	-0.132199	-0.855425	-0.383940	131.076776	-40.658354	-178.436465
31306		12.659334	-22.183059	12.080363	-25.484802	-5.968893	-20.450026	-1.177139	-1.534881	-0.609006	-0.837891	0.067139	-0.450684	0.124980	-0.221493	0.123071	0.313224	-0.134803	-0.855921	-0.388740	130.801410	-39.866132	-179.047118
31307		13.027950	-23.623015	13.839771	-27.181572	-5.270437	-22.169503	-0.768308	-0.621532	0.187512	-0.844727	0.073486	-0.446289	0.130068	-0.235573	0.139708	0.310450	-0.138043	-0.855250	-0.391295	130.645995	-39.721453	-179.491114
31308		14.718832	-20.339819	14.297251	-27.181819	-2.522907	-19.275063	-0.743373	0.477944	0.909664	-0.842773	0.080322	-0.461670	0.148452	-0.202192	0.143372	0.314163	-0.142731	-0.852264	-0.393162	130.367355	-40.370815	-179.718443
31309		15.971357	-16.001793	13.649936	-25.852111	0.030447	-15.206814	-1.182676	1.445283	1.661089	-0.841064	0.095947	-0.472656	0.162016	-0.157872	0.136272	0.322762	-0.148844	-0.846403	-0.396577	129.672036	-41.638474	-179.690557
31310		15.382874	-16.402136	11.679165	-24.919261	-1.436995	-14.168156	-1.678999	2.091096	2.413706	-0.842041	0.122803	-0.494873	0.157005	-0.161160	0.116522	0.335648	-0.158372	-0.837508	-0.401047	128.699782	-43.570431	-179.687982
31311		17.246896	-17.629458	6.667524	-24.873194	-5.789779	-10.473870	-1.717868	2.265617	3.056255	-0.840576	0.140625	-0.512451	0.175882	-0.173054	0.066191	0.349874	-0.169502	-0.827644	-0.404801	127.780505	-45.755656	-179.779684
31312		13.784465	1.838306	-11.249995	-3.375521	-7.842627	5.904689	-2.075579	1.978806	2.825043	-0.839111	0.162842	-0.523682	0.136454	0.019139	-0.114051	0.362617	-0.181744	-0.817045	-0.409775	126.721984	-47.859161	-179.983234
31313		20.042220	39.245140	-15.527126	17.290993	10.787360	32.228915	-0.899339	1.903451	1.638278	-0.836914	0.169678	-0.547852	0.195702	0.393358	-0.158916	0.372945	-0.186178	-0.810172	-0.412154	125.841430	-49.267762	-179.495219
31314		24.326991	27.212855	5.547603	-1.454630	20.385770	20.934623	0.389437	1.896194	1.394413	-0.837646	0.185303	-0.556641	0.241880	0.273712	0.053710	0.384441	-0.188057	-0.805715	-0.409466	125.615813	-50.669771	-178.934135
31315		25.127250	-5.882417	24.509383	-30.776408	15.992806	-1.838073	-0.932923	2.267015	2.843370	-0.831787	0.212158	-0.578857	0.254822	-0.054083	0.242478	0.398494	-0.196657	-0.796613	-0.409800	124.931070	-52.756551	-178.742032
31316		28.787533	-19.298579	7.042315	-32.873856	-5.640485	1.934499	-2.523755	2.309778	4.278351	-0.824463	0.252197	-0.585693	0.292708	-0.185878	0.069437	0.414530	-0.214816	-0.781785	-0.413317	123.906786	-55.661636	-179.310777
31317		21.102347	-19.607919	-0.705382	-24.758102	-11.670573	-0.812464	-1.127098	1.927034	3.935987	-0.821045	0.283447	-0.607666	0.214754	-0.191920	-0.008022	0.428924	-0.228524	-0.771013	-0.411509	123.782466	-58.156387	-179.932376
31318		13.440447	-14.265688	3.216392	-18.542275	-5.344370	-5.116487	1.588243	2.126635	3.700625	-0.819580	0.303467	-0.621094	0.137340	-0.140375	0.029593	0.447270	-0.236051	-0.764578	-0.399561	125.060826	-60.759845	179.585324
31319		11.322686	-6.639285	3.468424	-11.874747	-0.916496	-3.298573	1.649019	2.001537	3.835675	-0.813721	0.330322	-0.640869	0.114812	-0.064478	0.033004	0.464455	-0.242989	-0.758640	-0.386915	126.681715	-63.219611	178.820660
31320		9.334888	-2.512658	-10.714609	-0.325488	-10.054658	0.533607	-0.663345	1.608584	3.761555	-0.801758	0.368408	-0.652100	0.092939	-0.023733	-0.107814	0.477814	-0.256804	-0.748053	-0.382312	127.552542	-65.674300	177.376157
31321		6.288100	-6.030313	-9.199503	-2.297111	-10.847991	-3.682585	-1.007564	1.446369	3.508806	-0.798340	0.397461	-0.661133	0.063265	-0.059659	-0.092150	0.488589	-0.269544	-0.737995	-0.379459	128.332589	-67.776483	175.899502
31322		7.154098	-7.969842	3.314531	-10.467825	-1.577073	-6.123313	0.334212	1.604573	2.897944	-0.789795	0.408691	-0.674316	0.072948	-0.078703	0.032432	0.501214	-0.277522	-0.729862	-0.372918	129.503453	-69.821062	174.797065
31323		10.897409	-4.323885	3.150860	-8.633604	0.450514	-1.290760	0.984884	1.822161	2.521316	-0.779297	0.428955	-0.698486	0.109789	-0.042009	0.030302	0.513909	-0.280844	-0.723507	-0.365461	130.437345	-71.605982	174.406324
31324		11.953039	-2.590160	0.203248	-5.695493	-0.953072	0.970041	0.648755	1.753636	2.355184	-0.777588	0.442383	-0.713867	0.119836	-0.024496	0.000902	0.526251	-0.285645	-0.715878	-0.359145	131.379700	-73.463617	173.752517
31325		9.978695	-4.358701	1.783918	-7.111240	-0.776586	-1.411864	0.628488	1.693770	2.242173	-0.769043	0.458252	-0.724854	0.100413	-0.042518	0.016856	0.537227	-0.288970	-0.709242	-0.353354	132.216991	-75.075412	173.257561
31326		8.213783	-2.171487	1.384392	-4.469322	0.113182	-2.456990	0.142702	1.545789	2.094766	-0.760742	0.473877	-0.740479	0.082463	-0.020862	0.013192	0.547399	-0.294421	-0.701292	-0.349086	133.180156	-76.737344	172.291635
31327		9.241399	-1.744267	-0.555501	-3.067370	-1.187016	-0.984757	0.154178	1.478011	1.940847	-0.754395	0.485352	-0.758057	0.092533	-0.016540	-0.006252	0.556199	-0.298227	-0.694573	-0.345357	133.962884	-78.134090	171.580999
31328		9.908609	-0.349013	0.369205	-2.368077	0.400224	-0.186332	0.159853	1.317370	1.761111	-0.741211	0.494385	-0.769043	0.099133	-0.002620	0.003037	0.564816	-0.302720	-0.687540	-0.341514	135.235746	-79.556457	170.320078
31329		9.668774	-0.981723	2.070952	-3.602592	1.407571	-0.659842	-0.045464	1.108839	1.681263	-0.739502	0.507813	-0.771240	0.096879	-0.008999	0.020175	0.571446	-0.306743	-0.681716	-0.338557	136.661293	-80.690369	168.847457
31330		9.463626	-3.517022	1.039550	-4.824037	-0.886922	-0.927329	-0.271857	0.961850	1.553594	-0.730957	0.519043	-0.782227	0.094954	-0.034420	0.009986	0.577676	-0.312228	-0.675119	-0.336181	138.825002	-81.862475	166.445586
31331		8.431831	-4.639800	0.918634	-5.379779	-1.652412	-1.951838	-0.076628	0.880471	1.365157	-0.722412	0.530518	-0.786621	0.084672	-0.045817	0.008832	0.582850	-0.315591	-0.670257	-0.333832	140.816436	-82.760112	164.392594
31332		9.242457	-2.820108	1.245280	-4.035178	-0.290069	-0.949372	-0.000558	0.798703	1.172994	-0.720215	0.534912	-0.791016	0.092637	-0.027658	0.012083	0.588204	-0.319202	-0.665085	-0.331342	143.594565	-83.690093	161.540591
31333		9.466285	-3.008407	2.037735	-4.542820	0.261444	-0.751424	-0.065731	0.704973	1.053624	-0.711670	0.543945	-0.793457	0.094891	-0.029578	0.020053	0.592223	-0.321748	-0.661170	-0.329552	146.085014	-84.375425	158.999510
31334		9.208839	-2.352568	2.118533	-3.894804	0.710474	-0.916050	-0.173574	0.674028	0.926691	-0.716064	0.543945	-0.806641	0.092267	-0.023080	0.020895	0.596398	-0.325183	-0.656422	-0.328140	149.637715	-85.128960	155.279819
31335		9.228590	-2.672478	1.124497	-3.494678	-0.279221	-0.797034	-0.265784	0.578172	0.826265	-0.702881	0.552979	-0.800049	0.092427	-0.026328	0.011013	0.599257	-0.327758	-0.652870	-0.327456	152.700594	-85.654695	152.055031
31336		9.652910	-3.411102	0.041286	-3.404093	-1.557436	-0.283684	-0.180187	0.470117	0.748846	-0.703369	0.562012	-0.806641	0.096657	-0.033749	0.000216	0.602396	-0.330892	-0.648989	-0.326255	157.978857	-86.205310	146.610017
31337		9.908456	-4.071349	-0.459823	-3.598034	-2.325740	0.016317	0.043925	0.361884	0.689940	-0.698975	0.566650	-0.811035	0.099216	-0.040370	-0.004787	0.604811	-0.332430	-0.646783	-0.324601	162.867783	-86.539820	141.737298
31338		10.345813	-3.878702	0.038156	-3.638443	-1.776638	0.467698	0.297520	0.318133	0.647087	-0.705566	0.564209	-0.815430	0.103583	-0.038452	0.000159	0.608028	-0.333991	-0.644309	-0.321896	170.794512	-86.900766	133.920595
31339		9.802285	-2.460059	-0.053420	-2.324995	-1.061987	-0.034871	0.450917	0.265222	0.586299	-0.696777	0.571045	-0.819824	0.098094	-0.024312	-0.000719	0.610621	-0.334104	-0.643203	-0.319072	177.249731	-87.092241	127.716014
31340		9.998958	-2.528876	-0.004701	-2.324172	-1.043905	0.181436	0.470233	0.232002	0.541013	-0.698975	0.566650	-0.819824	0.100057	-0.025018	-0.000222	0.613632	-0.334882	-0.641453	-0.315988	-173.228771	-87.274746	118.407425
31341		10.785576	-1.921564	-0.170431	-1.683302	-0.792464	0.984915	0.433853	0.246548	0.522757	-0.701416	0.571045	-0.828613	0.107903	-0.018930	-0.001879	0.616018	-0.334860	-0.640459	-0.313373	-165.970068	-87.362821	111.390430
31342		10.414524	-1.626685	-0.406018	-1.210919	-0.816467	0.634321	0.414398	0.207951	0.513937	-0.701416	0.573242	-0.833008	0.104182	-0.015991	-0.004202	0.618769	-0.335702	-0.638756	-0.310515	-155.631012	-87.394344	101.235588
31343		10.724368	-2.887754	-0.850185	-1.915881	-1.888572	0.996398	0.429407	0.186218	0.495143	-0.694824	0.577881	-0.835205	0.107307	-0.028593	-0.008663	0.620897	-0.335689	-0.637968	-0.307891	-148.633267	-87.356521	94.477601
31344		10.233014	-3.290062	-1.188340	-1.954371	-2.408692	0.547308	0.547593	0.177509	0.471253	-0.688232	0.580322	-0.841797	0.102397	-0.032627	-0.012064	0.623661	-0.335975	-0.636656	-0.304692	-139.502771	-87.254936	85.610873
31345		10.227591	-3.128057	-0.693024	-2.048624	-1.911717	0.532203	0.618063	0.186192	0.468686	-0.701904	0.588867	-0.841797	0.102342	-0.031019	-0.007122	0.626049	-0.335278	-0.636180	-0.301541	-133.486337	-87.145484	79.942618
31346		10.460594	-2.772582	0.030106	-2.103599	-1.101752	0.745381	0.579807	0.211117	0.478775	-0.695068	0.584473	-0.850586	0.104672	-0.027476	0.000111	0.628937	-0.335394	-0.634810	-0.298272	-125.619890	-86.954331	72.359817
31347		10.372753	-1.710230	0.568134	-1.514576	-0.040713	0.605844	0.579578	0.228178	0.469496	-0.697754	0.597900	-0.846191	0.103774	-0.016875	0.005514	0.631376	-0.334744	-0.634119	-0.295304	-120.445499	-86.796127	67.511120
31348		10.156289	-1.722947	0.739588	-1.555405	0.084133	0.397069	0.519209	0.219173	0.465890	-0.697754	0.595703	-0.857178	0.101611	-0.017012	0.007240	0.634127	-0.334944	-0.632664	-0.292286	-114.377064	-86.540952	61.693973
31349		10.064115	-1.624358	0.979085	-1.570078	0.331259	0.302076	0.467433	0.230455	0.469781	-0.693359	0.600098	-0.859375	0.100690	-0.016030	0.009637	0.636369	-0.334635	-0.631780	-0.289669	-110.382871	-86.336948	57.961226
31350		10.280589	-1.593561	1.537261	-1.802316	0.811492	0.516203	0.383245	0.260529	0.503268	-0.689453	0.613525	-0.864014	0.102865	-0.015706	0.015208	0.639041	-0.335270	-0.629944	-0.287039	-105.441379	-86.022189	53.194791
31351		9.987995	-1.078513	1.441126	-1.290937	1.037026	0.200198	0.360245	0.277500	0.514174	-0.685059	0.615967	-0.868408	0.099927	-0.010554	0.014253	0.641301	-0.335364	-0.628661	-0.284691	-102.018058	-85.767271	49.970445
31352		10.120912	-1.761311	2.060211	-2.124144	1.123416	0.385606	0.237141	0.284905	0.532568	-0.680664	0.620605	-0.872803	0.101285	-0.017368	0.020437	0.643814	-0.336468	-0.626499	-0.282474	-98.197136	-85.404277	46.243125
31353		10.656677	-3.465312	1.902729	-3.268781	-0.012029	1.073450	0.217677	0.323398	0.555489	-0.678955	0.631592	-0.875000	0.106693	-0.034377	0.018817	0.646022	-0.337075	-0.624780	-0.280512	-95.335394	-85.102792	43.497537
31354		10.876191	-2.859567	1.245030	-2.279987	-0.136989	1.268881	0.353803	0.335588	0.571445	-0.672363	0.636230	-0.877197	0.108864	-0.028306	0.012217	0.648916	-0.337805	-0.622552	-0.277893	-92.086953	-84.694280	40.410521
31355		11.526943	-3.053246	0.308089	-1.721992	-0.953658	1.952188	0.529692	0.342138	0.568683	-0.663574	0.643066	-0.885986	0.115361	-0.030212	0.002803	0.651707	-0.337405	-0.621163	-0.274939	-89.633278	-84.363578	38.251358
31356		12.089752	-2.760884	-0.902597	-0.579430	-1.680218	2.493388	0.806240	0.344962	0.607088	-0.652344	0.647705	-0.892578	0.120965	-0.027204	-0.009345	0.655400	-0.336717	-0.619462	-0.270812	-86.876694	-83.914628	35.916868
31357		12.194092	-2.058323	-1.271532	0.314810	-1.512666	2.522669	0.991364	0.336984	0.680233	-0.645996	0.656738	-0.899170	0.121988	-0.020104	-0.013021	0.659068	-0.335139	-0.618494	-0.266039	-84.779280	-83.503563	34.379068
31358		12.525311	-1.290245	-1.345328	1.119834	-1.041727	2.757815	1.119140	0.396890	0.733494	-0.639648	0.663574	-0.905762	0.125272	-0.012367	-0.013772	0.663538	-0.333693	-0.616806	-0.260608	-82.303748	-82.966523	32.504883
31359		12.640822	-1.511185	-1.520121	1.212536	-1.290073	2.885680	1.123424	0.491176	0.831343	-0.621582	0.666260	-0.918945	0.126431	-0.014499	-0.015594	0.668039	-0.331907	-0.615186	-0.255161	-80.029751	-82.443916	30.862145
31360		12.706096	-1.854123	-0.867639	0.715701	-0.996551	2.998543	1.128853	0.679611	0.987040	-0.604004	0.673340	-0.929932	0.127120	-0.017863	-0.009210	0.673616	-0.330774	-0.612105	-0.249314	-77.227585	-81.721832	28.659968
31361		12.613393	-0.541756	-0.339287	1.511241	0.264069	2.723247	1.025405	0.917610	1.150653	-0.595215	0.680176	-0.938721	0.126145	-0.004672	-0.003997	0.679573	-0.329712	-0.608314	-0.243770	-74.339108	-80.944430	26.333371
31362		12.588378	0.160641	-0.670185	2.464909	0.490097	2.541348	0.816538	1.159027	1.274127	-0.581787	0.682861	-0.953857	0.125828	0.002437	-0.007422	0.686313	-0.329832	-0.602678	-0.238674	-71.264125	-79.962993	23.664681
31363		12.586925	-0.029565	-1.716260	3.259071	-0.410823	2.458478	0.761862	1.336193	1.371086	-0.562012	0.694336	-0.967041	0.125749	0.000634	-0.018002	0.693241	-0.329764	-0.596657	-0.233825	-68.409688	-78.952086	21.206248
31364		12.972944	-0.450809	-1.901072	3.426506	-0.802509	2.825463	0.851340	1.451262	1.487295	-0.539795	0.701416	-0.978027	0.129615	-0.003460	-0.019968	0.700979	-0.329939	-0.589600	-0.228341	-65.762968	-77.761204	18.978149
31365		13.956151	0.468815	-2.300957	4.840011	-0.402258	3.479861	0.941945	1.588166	1.582384	-0.519775	0.706299	-0.991211	0.139330	0.005903	-0.024091	0.709014	-0.329492	-0.582402	-0.222581	-63.324053	-76.541742	17.031192
31366		15.027631	-0.057595	-2.820515	5.415141	-1.062326	4.446474	0.978913	1.727217	1.678134	-0.495117	0.713623	-1.006592	0.150022	0.000826	-0.029500	0.717732	-0.329332	-0.574062	-0.216460	-61.058647	-75.154254	15.249848
31367		15.212470	-0.199621	-3.193890	5.995826	-1.410980	4.459810	1.213818	1.837581	1.802514	-0.470459	0.716309	-1.017334	0.151831	-0.000427	-0.033341	0.726925	-0.328153	-0.565701	-0.209470	-58.941224	-73.723651	13.774858
31368		15.821634	1.390396	-3.486126	7.854152	-0.445386	4.417767	1.575448	1.979436	1.911117	-0.443359	0.710449	-1.041504	0.157717	0.015695	-0.036305	0.737239	-0.326064	-0.556502	-0.201165	-56.818492	-72.126117	12.474503
31369		17.782688	3.998402	-4.492690	11.289071	0.873255	5.159375	1.654227	2.184360	2.030101	-0.421143	0.717529	-1.056885	0.176904	0.042163	-0.046520	0.747989	-0.323395	-0.546668	-0.192568	-54.746597	-70.450718	11.288817
31370		17.716412	5.853734	-7.851852	15.241869	-0.038800	3.507803	1.465813	2.297057	2.182689	-0.391846	0.720459	-1.072021	0.175593	0.061043	-0.080100	0.758790	-0.321917	-0.535497	-0.183986	-53.053306	-68.609408	10.354840
31371		17.244946	4.233775	-8.759787	15.135375	-1.724403	2.834561	1.533363	2.224794	2.400259	-0.367188	0.720947	-1.089600	0.170933	0.045075	-0.089166	0.769337	-0.320451	-0.524460	-0.174281	-51.759775	-66.732368	9.907324
31372		18.653057	4.395485	-8.584999	16.134945	-1.193738	3.571878	1.793288	2.172772	2.624109	-0.344238	0.712646	-1.106934	0.184981	0.047168	-0.087452	0.780140	-0.318739	-0.513087	-0.162875	-50.695590	-64.741129	9.843714
31373		20.972333	3.924290	-7.812566	16.825306	-0.607779	5.443494	1.888182	2.200357	2.782486	-0.317139	0.710938	-1.124512	0.208270	0.042897	-0.080029	0.790938	-0.316679	-0.501447	-0.150605	-49.720155	-62.699633	9.963493
31374		21.674797	3.893272	-7.286957	17.328017	0.037435	5.605690	1.570618	2.199970	2.884374	-0.290283	0.711670	-1.137451	0.215334	0.042628	-0.074918	0.800975	-0.316205	-0.489098	-0.138696	-49.070465	-60.601127	10.223483
31375		20.468496	0.784073	-4.920495	14.016670	-0.685015	5.897107	0.787791	2.193061	2.915819	-0.265625	0.714355	-1.146240	0.203984	0.011018	-0.051405	0.809499	-0.318627	-0.476109	-0.128487	-48.873995	-58.506321	10.520194
31376		20.493924	0.957351	-3.530662	13.723023	0.480308	5.832939	0.268691	2.384603	2.607963	-0.240967	0.714844	-1.154785	0.204351	0.012290	-0.037730	0.817108	-0.322360	-0.462337	-0.121089	-48.683529	-56.473134	10.451437
31377		21.303942	-3.146658	-3.477273	12.658469	-2.458395	7.780716	0.291491	2.339848	2.306886	-0.223145	0.719727	-1.163574	0.212956	-0.028957	-0.037308	0.824303	-0.325063	-0.449114	-0.114696	-48.330935	-54.585233	10.227456
31378		21.451162	-6.324270	-2.124264	10.927442	-3.905384	9.421478	0.417644	2.150482	2.570064	-0.196045	0.720215	-1.174561	0.215054	-0.060434	-0.023681	0.831078	-0.328014	-0.436269	-0.106698	-48.205983	-52.668928	10.341073
31379		17.947287	-8.402874	-3.898532	9.682491	-6.850640	6.533160	1.158549	1.822078	2.857065	-0.177490	0.702881	-1.185303	0.180279	-0.081223	-0.041101	0.838372	-0.328428	-0.424500	-0.095221	-47.945045	-50.743811	10.855513
31380		10.213915	-5.281006	-4.561931	7.153483	-5.664705	-1.461084	1.870880	1.510787	2.248347	-0.174805	0.696533	-1.205078	0.102370	-0.051225	-0.046876	0.845476	-0.324818	-0.415381	-0.084395	-47.186112	-49.219290	11.224229
31381		13.881044	-6.163969	-1.146134	7.267845	-3.691305	3.053197	2.034341	1.056988	1.802805	-0.156494	0.687988	-1.215820	0.139292	-0.060260	-0.012814	0.851672	-0.319502	-0.408738	-0.074206	-46.324566	-48.042409	11.630588
31382		9.109662	5.436622	-4.109917	10.734633	3.073600	-7.632886	1.422088	0.610146	1.278246	-0.160889	0.683594	-1.231201	0.090620	0.055238	-0.040985	0.855464	-0.316082	-0.404709	-0.066968	-45.835204	-47.287173	12.020215
31383		5.774085	5.434430	-5.719287	9.552341	1.743153	-10.951464	0.453939	0.140260	0.844350	-0.160645	0.677002	-1.226807	0.057470	0.054717	-0.057109	0.856762	-0.315818	-0.402862	-0.062607	-45.876936	-46.874547	12.433569
31384		4.967926	2.982822	-2.412851	5.964360	1.677986	-8.807678	0.217658	0.050278	0.493187	-0.165039	0.676758	-1.226807	0.049599	0.029977	-0.024108	0.857183	-0.316091	-0.402106	-0.060284	-45.981463	-46.674532	12.700919
31385		4.289442	1.818963	-0.775947	4.024011	1.638292	-7.959757	0.200904	-0.194176	0.177308	-0.171631	0.672363	-1.237793	0.042886	0.018235	-0.007700	0.857187	-0.315665	-0.402659	-0.058761	-46.027467	-46.669256	12.923615
31386		4.352259	0.965383	-1.328005	4.114672	0.658071	-7.745300	0.233602	-0.447923	-0.118757	-0.178223	0.669922	-1.242188	0.043558	0.009643	-0.013171	0.856436	-0.314759	-0.405033	-0.058241	-46.080471	-46.922801	13.135948
31387		3.549953	0.323921	-1.578478	3.506193	-0.113114	-8.111981	0.172816	-0.767902	-0.457118	-0.196045	0.665283	-1.239990	0.035567	0.003172	-0.015646	0.855035	-0.313334	-0.409028	-0.058588	-46.129055	-47.407153	13.338428
31388		2.714387	0.679819	-1.251466	2.850966	0.236283	-8.711669	0.053328	-1.108114	-0.798043	-0.211670	0.664795	-1.229004	0.027239	0.006693	-0.012362	0.852411	-0.311987	-0.415238	-0.060304	-46.296082	-48.205058	13.562437
31389		2.499727	1.133336	-0.646359	2.453538	0.918380	-8.769906	-0.213931	-1.408528	-1.133090	-0.234131	0.662354	-1.233398	0.025106	0.011185	-0.006299	0.848801	-0.310980	-0.422868	-0.063326	-46.576691	-49.222246	13.773910
31390		2.563888	1.160619	0.033901	2.018547	1.341881	-8.382204	-0.552882	-1.667237	-1.465341	-0.259033	0.664063	-1.229248	0.025719	0.011419	0.000521	0.843703	-0.310920	-0.432243	-0.068267	-47.080384	-50.517625	13.978463
31391		2.567508	0.693455	0.737693	1.320567	1.374227	-7.816571	-0.834419	-1.901720	-1.812011	-0.285889	0.665527	-1.222656	0.025665	0.006733	0.007593	0.837624	-0.311166	-0.442699	-0.074700	-47.683373	-52.009998	14.139662
31392		2.603722	0.553816	1.011695	1.041773	1.422027	-7.576226	-1.030096	-2.136012	-2.177622	-0.310547	0.662842	-1.205322	0.025986	0.005308	0.010367	0.830173	-0.311580	-0.454815	-0.082908	-48.416562	-53.785919	14.283858
31393		2.674606	1.037912	0.690938	1.454094	1.613615	-7.815314	-1.141741	-2.361548	-2.555263	-0.344238	0.662109	-1.192139	0.026792	0.010077	0.007167	0.821855	-0.311459	-0.467992	-0.092367	-49.147688	-55.769345	14.379038
31394		2.905588	1.821669	-0.012536	2.375455	1.820952	-8.138966	-1.243087	-2.577398	-2.937314	-0.375977	0.663574	-1.172607	0.029319	0.017788	0.000140	0.812157	-0.310957	-0.482707	-0.103442	-49.952388	-58.038108	14.459665
31395		3.282475	2.496402	-0.385241	3.104161	2.140258	-8.099063	-1.356682	-2.786854	-3.279800	-0.411621	0.654053	-1.155029	0.033279	0.024396	-0.003558	0.801451	-0.309937	-0.498243	-0.115626	-50.783917	-60.494435	14.523591
31396		4.113181	2.460095	-0.709851	3.645394	1.966470	-7.299797	-1.467537	-2.980112	-3.583968	-0.447266	0.646484	-1.131104	0.041665	0.023808	-0.006657	0.789231	-0.308624	-0.514972	-0.129110	-51.759865	-63.196272	14.652880
31397		4.965895	1.849110	-0.830528	3.658966	1.452534	-6.170501	-1.532521	-3.155819	-3.878164	-0.487305	0.636719	-1.106934	0.050128	0.017462	-0.007653	0.776003	-0.306644	-0.532189	-0.143397	-52.788650	-66.050707	14.820399
31398		6.157469	1.203615	-1.107230	3.762018	0.830149	-4.739472	-1.408807	-3.303649	-4.144380	-0.527588	0.626953	-1.085205	0.061978	0.010681	-0.010129	0.761563	-0.303408	-0.550392	-0.158220	-53.894853	-69.119718	15.124748
31399		6.795070	1.290843	-1.228905	3.836475	0.792992	-3.982664	-1.245048	-3.442019	-4.374466	-0.562744	0.608398	-1.056641	0.068409	0.011343	-0.011188	0.746472	-0.298738	-0.568873	-0.172970	-55.033296	-72.296101	15.575670
31400		7.561057	1.546019	-1.388621	3.980723	0.850483	-3.111882	-1.228190	-3.621530	-4.606255	-0.604492	0.583008	-1.032471	0.076174	0.013630	-0.012598	0.729771	-0.293267	-0.588200	-0.188279	-56.631190	-75.681261	16.489698
31401		8.469539	1.793125	-1.973833	4.367666	0.609183	-2.107379	-1.163074	-3.754170	-4.822154	-0.637207	0.553223	-0.999512	0.085445	0.015768	-0.018235	0.712177	-0.286752	-0.607539	-0.203652	-58.840399	-79.156684	18.070412
31402		9.285824	1.823296	-2.094774	4.111542	0.475722	-1.050528	-1.141318	-3.962272	-5.008193	-0.674805	0.536865	-0.973145	0.093666	0.015781	-0.019192	0.692757	-0.279512	-0.627599	-0.219272	-63.448823	-82.804957	22.059290
31403		10.488232	1.687196	-2.068256	3.533609	0.315649	0.409727	-1.113633	-4.145736	-5.170177	-0.711914	0.502686	-0.933594	0.105669	0.014039	-0.018581	0.672181	-0.271565	-0.647561	-0.234712	-77.242622	-86.408188	35.267167
31404		11.742044	1.376070	-2.169180	2.721750	-0.079938	1.892114	-1.174700	-4.293977	-5.354016	-0.735352	0.468750	-0.900391	0.118161	0.010486	-0.019228	0.649693	-0.263058	-0.667742	-0.250640	-166.773802	-88.224655	124.169946
31405		13.341730	0.943477	-2.186839	1.538023	-0.524383	3.639239	-1.246472	-4.467414	-5.544959	-0.763184	0.434814	-0.865234	0.134053	0.005599	-0.018921	0.625818	-0.254056	-0.687504	-0.266731	146.758225	-84.895533	169.981020
31406		15.673367	-0.096900	-2.386161	-0.309085	-1.545851	5.959318	-1.154612	-4.629199	-5.728222	-0.788818	0.396240	-0.821289	0.157114	-0.005590	-0.020204	0.600042	-0.243972	-0.707485	-0.282652	138.262998	-80.737025	177.861486
31407		18.760499	-0.561658	-2.852100	-2.086941	-2.355714	8.904345	-0.794041	-4.816333	-5.852982	-0.816650	0.357666	-0.779297	0.187945	-0.011216	-0.023960	0.573387	-0.232317	-0.727397	-0.296900	135.110855	-76.436330	-179.388221
31408		21.894292	-0.187477	-2.652029	-4.272268	-2.113811	11.715524	-0.543638	-5.055461	-5.866229	-0.835205	0.308350	-0.735107	0.219338	-0.008367	-0.020962	0.544896	-0.219890	-0.747555	-0.309675	133.824307	-71.965084	-178.385769
31409		24.843523	-0.445493	-2.818163	-7.011253	-2.570772	14.046401	-0.608841	-5.236407	-5.776033	-0.851563	0.265625	-0.695557	0.248791	-0.011710	-0.021641	0.515356	-0.207939	-0.766620	-0.321656	133.203522	-67.508261	-178.095385
31410		27.673098	-2.420005	-2.956686	-11.220184	-4.180983	15.419052	-0.621194	-5.240758	-5.616209	-0.856934	0.227539	-0.651367	0.276551	-0.032046	-0.022226	0.484892	-0.196347	-0.784555	-0.332867	132.876348	-63.070488	-178.137424
31411		29.246779	-5.253372	-1.783798	-16.336353	-5.414326	14.468327	-0.440939	-4.963500	-5.408232	-0.864014	0.176270	-0.609375	0.291225	-0.060450	-0.010472	0.455723	-0.184370	-0.800602	-0.342578	132.602524	-58.873572	-178.112374
31412		29.005696	-2.165460	2.068983	-18.353333	-0.521132	12.833385	-0.191815	-4.735473	-5.046375	-0.867432	0.144775	-0.567627	0.288790	-0.028929	0.027564	0.427425	-0.172763	-0.815335	-0.350273	132.586298	-54.886695	-178.235435
