// General information: 
//  MT Manager version: 2019.2.0 
//  XDA version: 2019.2.0 build 3853 rev 94535 built on 2019-09-09
// Device information: 
//  DeviceId: 00B40A40
//  ProductCode: MTW2-3A7G6
//  Firmware Version: 4.4.0
//  Hardware Version: 1.1.0
// Device settings: 
//  Filter Profile: human(46.1)
//  Option Flags: Orientation Smoother Disabled, AHS Disabled, ICC Disabled
// Coordinate system: ENU
PacketCounter	SampleTimeFine	Acc_X	Acc_Y	Acc_Z	FreeAcc_E	FreeAcc_N	FreeAcc_U	Gyr_X	Gyr_Y	Gyr_Z	Mag_X	Mag_Y	Mag_Z	VelInc_X	VelInc_Y	VelInc_Z	Quat_q0	Quat_q1	Quat_q2	Quat_q3	Roll	Pitch	Yaw
30876		12.731443	4.267704	-2.592027	-0.000000	0.000000	3.862893	0.366792	-0.045770	0.020888	-0.983398	0.138184	0.372314	0.127316	0.042738	-0.025813	0.243063	-0.581925	-0.505707	-0.588681	121.131193	-68.586915	124.078260
30877		12.928290	2.578392	-1.807434	-0.000000	0.000000	3.493537	0.364007	0.050926	0.006916	-0.985596	0.135986	0.374512	0.129277	0.025821	-0.018060	0.221823	-0.645823	-0.388300	-0.618814	124.970269	-76.301641	106.539663
30878		13.144657	1.280294	-1.048345	-1.256325	2.058173	3.214429	0.300465	0.082153	0.031890	-0.988037	0.137939	0.367676	0.131440	0.012840	-0.010518	0.238286	-0.612544	-0.453855	-0.601685	122.567745	-72.442009	116.800750
30879		12.942730	0.865434	-1.023697	-1.561560	2.209092	2.914944	0.059244	0.081660	0.091211	-0.976807	0.140625	0.369873	0.129419	0.008716	-0.010287	0.238927	-0.612434	-0.453657	-0.601692	122.565901	-72.511237	116.838280
30880		12.563693	1.532805	-1.286539	-1.067824	1.537573	2.770900	-0.282072	0.032479	0.107718	-0.981689	0.146973	0.358154	0.125627	0.015378	-0.012907	0.239081	-0.613043	-0.451801	-0.602408	122.476769	-72.676167	116.752469
30881		12.321050	2.286876	-1.421865	-0.468556	0.988461	2.751674	-0.517690	-0.029478	0.106724	-0.974854	0.147217	0.362793	0.123200	0.022898	-0.014260	0.237748	-0.613989	-0.449948	-0.603357	122.331121	-72.718743	116.594346
30882		12.067931	2.526848	-1.409667	-0.216849	0.740076	2.573286	-0.649194	-0.050788	0.095269	-0.977051	0.149414	0.353516	0.120671	0.025280	-0.014148	0.237574	-0.614897	-0.445865	-0.605528	121.824546	-73.043611	116.673221
30883		11.744916	2.299751	-0.905215	-0.097100	1.177479	2.131157	-0.706547	-0.078194	0.094605	-0.977051	0.147217	0.355957	0.117442	0.023021	-0.009088	0.235513	-0.616180	-0.443525	-0.606746	121.638355	-73.066151	116.444668
30884		11.630093	1.677823	-0.613275	-0.430766	1.614476	1.834552	-0.761112	-0.099321	0.060453	-0.977295	0.151611	0.353516	0.116299	0.016790	-0.006139	0.234451	-0.617517	-0.438113	-0.609723	120.915674	-73.427734	116.532433
30885		11.139908	1.119319	-0.064005	-0.528365	2.222457	1.147972	-0.701400	-0.059114	0.019405	-0.979492	0.149414	0.360352	0.111398	0.011202	-0.000646	0.232213	-0.618558	-0.435982	-0.611050	120.630679	-73.419958	116.410487
30886		10.816815	0.564359	0.195863	-0.763609	2.540163	0.690875	-0.743159	-0.083352	0.019741	-0.977295	0.149414	0.366943	0.108167	0.005662	0.001983	0.230020	-0.620926	-0.427530	-0.615434	119.598874	-73.937366	116.413123
30887		10.140652	0.253485	0.242138	-0.901211	2.574911	-0.039594	-0.525070	-0.037837	0.045878	-0.984131	0.151611	0.371338	0.101405	0.002564	0.002434	0.228450	-0.621743	-0.425814	-0.616384	119.408566	-73.949567	116.298102
30888		9.647317	0.470525	0.516061	-0.437383	2.433250	-0.461408	-0.529362	0.028190	0.069320	-0.979248	0.142822	0.376465	0.096472	0.004752	0.005134	0.225105	-0.625685	-0.412829	-0.622430	118.065869	-74.741667	116.078911
30889		9.141900	0.391179	0.638441	-0.364094	2.441774	-0.978656	-0.612645	0.093607	0.135916	-0.968018	0.143066	0.383057	0.091419	0.003993	0.006329	0.223803	-0.626361	-0.410390	-0.623831	117.674363	-74.835580	116.120867
30890		8.484180	-0.012407	0.636742	-0.513439	2.373565	-1.658582	-0.506829	0.146559	0.200859	-0.967773	0.138428	0.383301	0.084846	-0.000023	0.006305	0.218551	-0.631863	-0.392346	-0.631703	115.855046	-75.881952	115.749758
30891		7.779586	0.271345	0.867481	-0.070126	2.207654	-2.298073	-0.376542	0.159898	0.136246	-0.969971	0.140625	0.385498	0.077801	0.002783	0.008607	0.218105	-0.632035	-0.390551	-0.632797	115.444508	-75.991980	115.950572
30892		7.193482	0.638410	0.777657	0.293465	1.619872	-2.738202	-0.332043	0.253244	0.157944	-0.960938	0.138672	0.385498	0.071940	0.006454	0.007675	0.211723	-0.637728	-0.369568	-0.641791	112.958254	-77.179146	115.906739
30893		6.572539	0.402044	0.757709	0.161040	1.609366	-3.384780	-0.264003	0.270450	0.138877	-0.961182	0.145264	0.378418	0.065733	0.004076	0.007483	0.211826	-0.637395	-0.367991	-0.642993	112.310432	-77.312224	116.415860
30894		6.141811	0.236345	1.062102	0.355480	1.705694	-3.823532	-0.249602	0.227393	0.111584	-0.963379	0.143066	0.385254	0.061429	0.002411	0.010548	0.204944	-0.642608	-0.346848	-0.651728	109.412008	-78.458584	116.766329
30895		5.711347	0.012456	0.902775	0.122329	1.653312	-4.273172	-0.220597	0.108742	0.085827	-0.965576	0.138672	0.378906	0.057118	0.000159	0.008997	0.204704	-0.642628	-0.345741	-0.652371	109.076304	-78.525547	116.979933
30896		5.362962	-0.057715	0.745671	0.056671	1.416292	-4.586635	-0.203813	0.084561	0.041104	-0.965576	0.140869	0.380859	0.053633	-0.000559	0.007435	0.197090	-0.647698	-0.325013	-0.660310	106.129135	-79.569965	117.390619
30897		5.315202	-0.120575	0.713324	-0.006997	1.425897	-4.641468	-0.198462	0.095357	0.020578	-0.960938	0.138672	0.378906	0.053156	-0.001193	0.007109	0.196670	-0.647612	-0.324197	-0.660921	105.747267	-79.596305	117.663270
30898		5.154215	-0.106606	0.701964	0.059184	1.284722	-4.771256	-0.221025	0.084864	0.016830	-0.963379	0.140869	0.376465	0.051545	-0.001054	0.006999	0.189189	-0.652011	-0.304607	-0.668060	102.593279	-80.547169	118.425067
30899		4.957628	-0.026047	0.819126	0.214929	1.268950	-4.955395	-0.251898	0.044870	0.025577	-0.965576	0.138672	0.376709	0.049578	-0.000244	0.008180	0.188521	-0.652138	-0.303639	-0.668565	102.317019	-80.567024	118.558811
30900		4.856223	-0.058591	0.834983	0.259576	1.198979	-5.039994	-0.214409	0.005045	0.020934	-0.968018	0.145264	0.376221	0.048562	-0.000572	0.008349	0.181531	-0.656072	-0.285795	-0.674490	99.334784	-81.412804	119.370235
30901		4.866203	-0.116073	0.751331	0.159299	1.191002	-5.036283	-0.089686	-0.010310	0.011378	-0.970215	0.142822	0.374023	0.048662	-0.001155	0.007516	0.181260	-0.656205	-0.285464	-0.674574	99.329016	-81.418280	119.324098
30902		4.935496	-0.153566	0.913039	0.298777	1.248583	-4.957987	0.012600	0.028980	0.003810	-0.970215	0.145020	0.367188	0.049356	-0.001535	0.009123	0.175757	-0.659179	-0.270233	-0.679387	96.353735	-82.165517	120.500841
30903		5.012202	-0.205019	1.058137	0.377608	1.384550	-4.890869	0.088644	0.029772	0.007164	-0.970215	0.145020	0.369629	0.050124	-0.002053	0.010573	0.176114	-0.659009	-0.270484	-0.679359	96.284542	-82.171475	120.621949
30904		5.161917	-0.198029	1.052827	0.402332	1.313050	-4.722788	0.144146	0.052437	0.015177	-0.972656	0.149414	0.369141	0.051622	-0.001984	0.010513	0.171905	-0.661182	-0.257229	-0.683462	93.066071	-82.849894	122.334226
30905		5.306202	-0.184230	1.107682	0.442330	1.347517	-4.577688	0.202903	0.059184	0.032468	-0.974854	0.145020	0.367188	0.053066	-0.001845	0.011059	0.172763	-0.660847	-0.257764	-0.683368	92.919729	-82.870244	122.598873
30906		5.520421	-0.123093	1.254163	0.612742	1.321408	-4.340800	0.272501	0.056965	0.053699	-0.972900	0.151855	0.369141	0.055208	-0.001233	0.012524	0.169131	-0.662569	-0.245757	-0.687023	89.388766	-83.479084	124.787832
30907		5.856485	-0.070352	1.291525	0.648527	1.328290	-4.000075	0.308207	0.055712	0.084705	-0.979492	0.149414	0.362549	0.058569	-0.000699	0.012898	0.170511	-0.662220	-0.246487	-0.686756	89.280102	-83.527244	125.074926
30908		6.305536	0.145081	1.339185	0.801473	1.126442	-3.514830	0.316362	0.073556	0.112758	-0.975098	0.151611	0.360107	0.063059	0.001465	0.013371	0.167569	-0.663530	-0.235459	-0.690078	85.222577	-84.090734	127.938581
30909		6.867011	0.404790	1.360353	0.924297	0.961066	-2.928482	0.271113	0.067922	0.157012	-0.972900	0.156250	0.366699	0.068672	0.004083	0.013586	0.169090	-0.663252	-0.235816	-0.689852	84.925305	-84.177024	128.393568
30910		7.717094	0.528167	1.483791	1.054217	0.885956	-2.057828	0.305472	0.038787	0.193660	-0.970947	0.160645	0.364014	0.077169	0.005334	0.014831	0.166497	-0.664303	-0.225724	-0.692842	80.391973	-84.670902	131.847042
30911		8.468878	0.735434	1.651741	1.268290	0.844216	-1.288033	0.336868	-0.049812	0.225952	-0.971191	0.169678	0.365723	0.084676	0.007422	0.016551	0.168342	-0.664448	-0.226181	-0.692107	80.659200	-84.803296	131.772509
30912		9.513275	0.874458	2.028915	1.627039	0.877115	-0.222748	0.348472	-0.091307	0.257935	-0.971191	0.169678	0.365723	0.095112	0.008832	0.020348	0.165545	-0.666191	-0.216625	-0.694160	76.988439	-85.279852	134.395379
30913		10.523831	0.953556	2.539674	2.064692	1.123534	0.797916	0.272080	-0.053946	0.276899	-0.966797	0.171875	0.363281	0.105218	0.009647	0.025438	0.167354	-0.666451	-0.216691	-0.693455	77.076792	-85.441404	134.463138
30914		11.428976	1.227619	2.725450	2.325620	0.884448	1.735723	0.218270	0.058123	0.355050	-0.971680	0.178467	0.365234	0.114276	0.012449	0.027235	0.165449	-0.667007	-0.207665	-0.696135	70.703190	-85.843166	139.912511
30915		12.016005	1.720706	3.093378	2.871538	0.636133	2.363667	0.189247	0.161118	0.428937	-0.967285	0.178711	0.367432	0.120148	0.017436	0.030853	0.167740	-0.666733	-0.206759	-0.696119	68.381375	-86.041221	142.348858
30916		12.463751	1.944326	3.094832	2.930631	0.273210	2.838003	0.246237	0.266674	0.477930	-0.962891	0.185303	0.362549	0.124632	0.019703	0.030806	0.166294	-0.666090	-0.197891	-0.699650	58.205235	-86.264459	151.656598
30917		12.565493	2.154908	3.519487	3.396325	0.247046	2.967207	0.350549	0.309062	0.486405	-0.965576	0.194336	0.362061	0.125656	0.021793	0.035039	0.169468	-0.665195	-0.197239	-0.699924	53.683846	-86.396317	156.388520
30918		12.441771	2.141894	4.129370	3.877586	0.374270	2.886177	0.381513	0.270701	0.430325	-0.968262	0.203125	0.348145	0.124427	0.021608	0.041166	0.168233	-0.664050	-0.189838	-0.703347	43.475390	-86.365652	165.872956
30919		12.395447	2.261456	4.694676	4.424110	0.505013	2.874841	0.206697	0.252768	0.308404	-0.966064	0.203125	0.350342	0.123979	0.022757	0.046814	0.170243	-0.663278	-0.189328	-0.703729	39.994658	-86.375241	169.479339
30920		13.141568	1.974770	3.962519	3.530349	0.290388	3.594556	0.081825	0.331666	0.230738	-0.970459	0.202881	0.343506	0.131458	0.019883	0.039415	0.170221	-0.661069	-0.185546	-0.706814	33.099188	-86.090111	176.058448
30921		14.569102	2.311176	4.141604	3.729135	0.044079	5.048151	-0.081544	0.287598	0.194575	-0.963379	0.198730	0.341553	0.145728	0.023270	0.041197	0.170906	-0.660301	-0.184369	-0.707673	30.423487	-86.008691	178.693686
30922		14.730063	1.707844	4.224373	3.394744	0.484771	5.219858	-0.163529	0.127895	0.145098	-0.963867	0.207520	0.341064	0.147315	0.017220	0.042135	0.168918	-0.658327	-0.179769	-0.711165	25.889793	-85.628242	-177.320625
30923		13.937606	0.950696	3.560086	2.515155	0.806665	4.359755	-0.320156	-0.019393	0.092309	-0.963867	0.205322	0.341064	0.139368	0.009628	0.035599	0.168175	-0.658749	-0.178343	-0.711310	25.142339	-85.661060	-176.754977
30924		13.985987	0.668193	1.776967	0.757986	0.149115	4.280398	-0.577098	-0.219948	0.059563	-0.957031	0.205566	0.343262	0.139838	0.006775	0.017904	0.164354	-0.658428	-0.173500	-0.713693	23.229452	-85.459833	-175.564190
30925		14.489950	0.301356	0.366026	-0.659226	-0.176642	4.668938	-0.646798	-0.337037	0.010173	-0.963867	0.207520	0.352295	0.144893	0.003033	0.003895	0.161968	-0.660167	-0.171434	-0.713132	23.779457	-85.639254	-176.487567
30926		13.481526	-0.597396	-0.702127	-1.961902	0.143254	3.556368	-0.558460	-0.337077	-0.022833	-0.957031	0.203369	0.350342	0.134826	-0.006009	-0.006777	0.158327	-0.660327	-0.167918	-0.714635	23.363571	-85.530270	-176.667423
30927		12.885099	-2.130644	-1.713939	-3.455006	1.097945	2.850646	-0.444345	-0.483679	-0.050497	-0.965576	0.196533	0.355225	0.128886	-0.021377	-0.016780	0.156273	-0.662361	-0.166879	-0.713448	24.946853	-85.771336	-178.510596
30928		13.002008	-3.504471	-2.727405	-4.954246	1.918310	2.858028	-0.338498	-0.630211	-0.079023	-0.959229	0.201172	0.361572	0.130091	-0.035142	-0.026805	0.153460	-0.663577	-0.164686	-0.713439	25.697196	-85.857705	-179.678514
30929		13.444342	-4.565732	-2.949595	-5.568969	2.836353	3.273069	-0.218214	-0.729699	-0.100084	-0.961182	0.198730	0.375244	0.134527	-0.045756	-0.028955	0.151777	-0.666260	-0.164798	-0.711269	29.077189	-86.202714	176.808062
30930		12.116954	-5.164847	-3.081154	-5.789903	3.363807	1.941081	-0.059249	-0.580870	-0.118331	-0.958984	0.198975	0.375244	0.121228	-0.051729	-0.030444	0.149536	-0.667830	-0.162384	-0.710826	29.386157	-86.363232	176.110817
30931		11.406121	-5.128177	-3.466917	-6.027502	3.197884	1.226328	-0.021660	-0.412168	-0.048313	-0.963623	0.198730	0.377441	0.114120	-0.051313	-0.034428	0.148957	-0.669270	-0.162776	-0.709502	31.696957	-86.552595	173.783176
30932		11.409496	-4.671228	-3.695935	-5.981477	2.697745	1.259842	-0.074985	-0.255512	0.062940	-0.968262	0.205322	0.377197	0.114157	-0.046690	-0.036796	0.147599	-0.670550	-0.158142	-0.709626	27.589700	-86.720064	177.391537
30933		11.673177	-3.865883	-3.514264	-5.468916	2.049859	1.564797	-0.041319	-0.117994	0.078412	-0.968018	0.200928	0.375000	0.116768	-0.038620	-0.035066	0.147646	-0.671061	-0.157819	-0.709205	27.412367	-86.800762	177.545458
30934		11.763585	-2.919081	-2.601527	-4.206091	1.542099	1.745930	0.138285	-0.046129	0.028767	-0.968262	0.203125	0.375000	0.117646	-0.029156	-0.026008	0.147413	-0.671960	-0.153492	-0.709351	21.523617	-86.930059	-176.944920
30935		11.569458	-2.564768	-2.415259	-3.878620	1.287075	1.569912	0.350045	-0.001246	0.042367	-0.970703	0.207520	0.367920	0.115700	-0.025581	-0.024197	0.148739	-0.671737	-0.154592	-0.709047	21.305428	-86.939539	-176.525543
30936		11.743834	-2.859858	-2.558481	-4.107914	1.438043	1.750150	0.659933	0.115662	0.042770	-0.966309	0.212158	0.369873	0.117430	-0.028489	-0.025747	0.150243	-0.672078	-0.151407	-0.709094	14.121706	-86.998825	-169.481618
30937		12.020920	-2.379981	-2.148189	-3.576371	1.134161	2.049209	0.716080	0.241390	0.048716	-0.970947	0.216309	0.356201	0.120189	-0.023693	-0.021712	0.153004	-0.670716	-0.153600	-0.709322	13.409334	-86.871041	-168.357320
30938		11.833381	-2.034769	-1.678495	-2.983938	0.944128	1.900168	0.713648	0.354364	0.036737	-0.966797	0.223145	0.351318	0.118307	-0.020265	-0.017067	0.154676	-0.670436	-0.150282	-0.709934	6.110188	-86.779427	-161.194354
30939		11.157344	-1.593183	-1.135855	-2.313235	0.748798	1.250890	0.729120	0.354045	0.032733	-0.966797	0.225342	0.344482	0.111556	-0.015872	-0.011614	0.157502	-0.668634	-0.152485	-0.710542	5.840849	-86.579514	-160.506065
30940		10.673821	-1.251677	-0.638564	-1.683063	0.595396	0.804168	0.733929	0.237149	-0.001889	-0.971680	0.231934	0.343994	0.106730	-0.012494	-0.006558	0.159162	-0.668705	-0.149957	-0.710643	0.252171	-86.520436	-154.989015
30941		10.244330	-0.766723	-0.158446	-1.043298	0.359905	0.402068	0.625893	0.149376	-0.035084	-0.962891	0.236572	0.345947	0.102441	-0.007680	-0.001685	0.161242	-0.667646	-0.152178	-0.710698	0.921578	-86.434523	-155.300356
30942		9.805661	-0.789078	0.235215	-0.653606	0.519554	-0.008005	0.547828	0.093775	-0.069244	-0.960205	0.229980	0.339600	0.098055	-0.007931	0.002284	0.162168	-0.668215	-0.150057	-0.710404	-3.255123	-86.442837	-151.223084
30943		9.578355	-0.818783	0.511483	-0.420730	0.674933	-0.218714	0.466416	0.084926	-0.087390	-0.962646	0.234375	0.341553	0.095782	-0.008242	0.005055	0.163480	-0.667466	-0.151936	-0.710407	-2.153312	-86.396465	-152.059247
30944		9.203851	-0.989243	0.226394	-0.714952	0.682326	-0.605953	0.428692	0.189582	-0.021151	-0.964844	0.232178	0.341797	0.092040	-0.009907	0.002155	0.164301	-0.667695	-0.149578	-0.710503	-6.148777	-86.331283	-148.191167
30945		8.509702	-0.987229	0.708275	-0.261366	0.906257	-1.268586	0.416735	0.148504	0.003036	-0.953613	0.232178	0.343994	0.085102	-0.009886	0.006999	0.165814	-0.666825	-0.150926	-0.710684	-5.801484	-86.246346	-148.299874
30946		7.948272	-1.251895	0.648939	-0.385080	1.107968	-1.825980	0.343457	0.145574	-0.058088	-0.949219	0.232422	0.339355	0.079484	-0.012553	0.006410	0.166091	-0.667196	-0.148573	-0.710767	-9.039502	-86.194125	-145.234069
30947		7.631291	-1.248109	0.749599	-0.292186	1.160894	-2.136542	0.336443	0.118904	-0.083776	-0.946777	0.228027	0.350830	0.076312	-0.012526	0.007430	0.167005	-0.666430	-0.149949	-0.710983	-7.989604	-86.133722	-146.093082
30948		7.100965	-1.401919	0.626611	-0.427513	1.245926	-2.667997	0.315624	0.098782	-0.103482	-0.951172	0.223389	0.355713	0.071005	-0.014066	0.006209	0.166839	-0.666898	-0.147678	-0.711058	-10.597776	-86.098751	-143.687327
30949		6.523382	-1.310396	0.885162	-0.136352	1.303679	-3.229605	0.312787	0.047580	-0.124023	-0.946777	0.225830	0.357910	0.065228	-0.013158	0.008816	0.167477	-0.666375	-0.149164	-0.711088	-9.326423	-86.084062	-144.781972
30950		6.361581	-0.742258	0.758319	0.021137	0.729056	-3.404589	0.228925	-0.020351	-0.112869	-0.946533	0.223633	0.360107	0.063611	-0.007467	0.007581	0.166616	-0.667327	-0.146551	-0.710940	-11.904246	-86.109274	-142.493155
30951		6.529989	-0.511655	0.604696	-0.031012	0.455321	-3.250681	0.149868	0.012563	-0.111289	-0.948730	0.223633	0.362549	0.065297	-0.005157	0.006039	0.166731	-0.667075	-0.147444	-0.710965	-10.878992	-86.114684	-143.434670
30952		6.402020	-0.205408	0.574303	0.091300	0.155810	-3.384215	0.267854	0.071871	-0.088276	-0.946777	0.225830	0.357910	0.064021	-0.002090	0.005717	0.166127	-0.667607	-0.144980	-0.711115	-13.205627	-86.079484	-141.362840
30953		5.479109	-0.278367	0.768073	0.277341	0.350019	-4.291038	0.320165	0.010656	-0.124834	-0.951172	0.228027	0.355469	0.054790	-0.002830	0.007673	0.166760	-0.667211	-0.146526	-0.711021	-11.984217	-86.088995	-142.403201
30954		5.341415	-0.383277	0.862464	0.334473	0.482123	-4.420366	0.349344	-0.052891	-0.125411	-0.942139	0.223633	0.355713	0.053409	-0.003881	0.008632	0.166413	-0.667958	-0.145025	-0.710709	-13.849563	-86.125903	-140.691748
30955		5.535238	-0.293877	1.085435	0.561472	0.498864	-4.214539	0.290705	-0.070919	-0.135153	-0.944580	0.228027	0.359863	0.055347	-0.002992	0.010870	0.166853	-0.667869	-0.146567	-0.710373	-12.701903	-86.183107	-141.675024
30956		5.808559	-0.256233	1.211788	0.690371	0.500950	-3.935114	0.192873	-0.121779	-0.156019	-0.948975	0.225830	0.362305	0.058076	-0.002619	0.012151	0.165858	-0.668863	-0.144909	-0.710011	-14.280307	-86.257931	-140.317779
30957		6.174211	-0.293071	1.493195	0.912166	0.653778	-3.553541	0.130777	-0.161808	-0.175248	-0.951172	0.223633	0.366943	0.061727	-0.002995	0.014980	0.165557	-0.669201	-0.146093	-0.709520	-13.031752	-86.371603	-141.493801
30958		6.343456	-0.438403	1.687226	1.034794	0.856079	-3.372604	0.107502	-0.180264	-0.163804	-0.946533	0.223633	0.364746	0.063416	-0.004445	0.016927	0.164195	-0.670374	-0.144357	-0.709084	-14.525833	-86.474986	-140.257781
30959		6.203976	-0.530280	1.645534	0.970573	0.942598	-3.516039	0.066089	-0.213026	-0.158282	-0.946533	0.223633	0.369141	0.062018	-0.005357	0.016520	0.163703	-0.670960	-0.145296	-0.708451	-13.522075	-86.615258	-141.225398
30960		6.381672	-0.531133	1.536596	0.884004	0.886328	-3.347249	0.022905	-0.219320	-0.159985	-0.946289	0.219238	0.362793	0.063796	-0.005364	0.015435	0.162091	-0.672226	-0.143422	-0.708004	-15.074708	-86.729552	-139.963036
30961		6.570800	-0.641121	1.473591	0.780174	0.968279	-3.163503	-0.030544	-0.200840	-0.177237	-0.944336	0.221436	0.369385	0.065687	-0.006467	0.014803	0.161218	-0.672833	-0.144071	-0.707494	-13.850022	-86.866220	-141.207130
30962		6.632059	-0.711095	1.534679	0.822677	1.052716	-3.100007	-0.094390	-0.194778	-0.209310	-0.948486	0.212402	0.369873	0.066298	-0.007173	0.015415	0.159125	-0.673970	-0.142076	-0.707289	-14.797726	-86.966969	-140.599310
30963		6.846947	-0.749609	1.447155	0.725392	1.061338	-2.892847	-0.166760	-0.173635	-0.223732	-0.944092	0.219238	0.376221	0.068448	-0.007561	0.014537	0.157649	-0.674557	-0.142377	-0.707000	-12.956064	-87.094185	-142.539091
30964		6.799606	-0.709361	1.384078	0.702817	0.998655	-2.945212	-0.226936	-0.136383	-0.247974	-0.943848	0.210449	0.374512	0.067978	-0.007162	0.013895	0.154972	-0.675506	-0.140009	-0.707158	-13.258484	-87.162890	-142.655421
30965		6.661523	-0.761448	1.305392	0.619283	1.036406	-3.089440	-0.301123	-0.130776	-0.299201	-0.950439	0.205811	0.376953	0.066595	-0.007694	0.013109	0.152806	-0.675990	-0.140055	-0.707158	-10.295180	-87.271145	-145.794925
30966		6.771561	-0.904977	1.030244	0.318692	1.058459	-2.992682	-0.370649	-0.134128	-0.354192	-0.943359	0.199219	0.384033	0.067693	-0.009150	0.010365	0.149263	-0.676906	-0.137587	-0.707523	-9.169837	-87.344655	-147.418406
30967		7.582517	-1.015846	1.074488	0.288321	1.185220	-2.184250	-0.454360	-0.175690	-0.418491	-0.947510	0.190186	0.389160	0.075794	-0.010293	0.010835	0.146124	-0.677575	-0.137525	-0.707550	-4.433765	-87.473012	-152.419882
30968		9.001726	-1.144293	1.193511	0.310929	1.336997	-0.763900	-0.519437	-0.188603	-0.461652	-0.947021	0.179199	0.392090	0.089979	-0.011619	0.012050	0.141489	-0.678715	-0.134799	-0.707923	-1.631498	-87.571866	-155.831280
30969		9.460613	-1.236043	1.537616	0.581725	1.587330	-0.297589	-0.496515	-0.145414	-0.473225	-0.951172	0.174561	0.392334	0.094565	-0.012546	0.015476	0.138031	-0.679258	-0.134749	-0.708095	4.630319	-87.648086	-162.383238
30970		9.623481	-1.421431	1.880577	0.840487	1.904779	-0.125910	-0.461038	-0.113293	-0.523076	-0.948730	0.170166	0.394775	0.096187	-0.014422	0.018893	0.133306	-0.680023	-0.132263	-0.708735	8.745748	-87.671815	-167.094036
30971		10.421056	-1.648547	1.917085	0.754101	2.171821	0.661356	-0.389489	-0.027550	-0.595139	-0.953125	0.165527	0.392822	0.104158	-0.016758	0.019218	0.129855	-0.679982	-0.132923	-0.709291	16.687234	-87.611931	-175.265554
30972		10.404696	-1.883170	2.033629	0.782044	2.459785	0.640888	-0.392798	0.014071	-0.632421	-0.952393	0.150146	0.395996	0.103988	-0.019121	0.020366	0.125124	-0.680112	-0.130955	-0.710382	21.339631	-87.502036	179.530187
30973		10.975209	-2.409321	1.676656	0.214908	2.880438	1.174931	-0.187700	0.111249	-0.600715	-0.947510	0.141357	0.396484	0.109688	-0.024407	0.016728	0.122425	-0.679437	-0.132260	-0.711255	27.554397	-87.301228	173.201417
30974		11.415033	-2.226153	2.196997	0.735473	2.915108	1.634865	-0.122516	0.160072	-0.525896	-0.958496	0.134277	0.394775	0.114109	-0.022548	0.021892	0.118819	-0.678964	-0.130440	-0.712654	29.186098	-87.111963	171.123491
30975		11.525730	-2.073526	2.352306	0.889142	2.867878	1.748443	-0.102431	0.278140	-0.431382	-0.953857	0.129883	0.395020	0.115245	-0.020972	0.023373	0.117116	-0.677749	-0.131373	-0.713920	31.635934	-86.849331	168.611505
30976		11.437704	-1.678255	2.365473	1.017205	2.489195	1.676528	-0.074994	0.331539	-0.307044	-0.960449	0.125244	0.395264	0.114390	-0.016949	0.023471	0.114397	-0.676773	-0.128615	-0.715786	29.922605	-86.634921	169.875152
30977		13.291943	-1.698999	1.722658	0.251692	2.326544	3.493459	-0.114244	0.325665	-0.240957	-0.962402	0.120850	0.388916	0.132927	-0.017140	0.017020	0.113359	-0.675516	-0.128834	-0.717099	30.279252	-86.404231	169.452285
30978		16.557750	-1.533247	2.492577	0.828040	2.422173	6.805680	-0.265435	0.243906	-0.209089	-0.962402	0.118652	0.391357	0.165592	-0.015473	0.024744	0.106494	-0.675640	-0.121511	-0.719308	28.260720	-86.257632	170.305151
30979		15.501630	-1.105980	2.451722	0.949832	2.006760	5.763103	-0.277737	0.252822	-0.213562	-0.964355	0.109619	0.389648	0.155035	-0.011191	0.024337	0.104942	-0.674747	-0.121098	-0.720443	28.673370	-86.071936	169.732099
30980		14.937226	-0.748007	1.715947	0.394434	1.398786	5.171051	-0.183248	0.101440	-0.237156	-0.968750	0.111816	0.382813	0.149372	-0.007642	0.017091	0.098431	-0.675171	-0.114504	-0.722042	27.592929	-85.984211	169.737442
30981		15.354612	-0.776674	0.212270	-1.083510	1.013943	5.491241	-0.037411	-0.102421	-0.210969	-0.966309	0.107422	0.389648	0.153537	-0.007928	0.002203	0.097486	-0.675437	-0.115130	-0.721821	29.479246	-85.977991	167.824996
30982		14.877525	-0.250653	-0.824544	-1.866367	0.214012	4.970891	0.248299	-0.207817	-0.175686	-0.968506	0.103027	0.401123	0.148781	-0.002627	-0.008094	0.093715	-0.676580	-0.111253	-0.721859	29.511234	-86.064758	167.165660
30983		13.722118	1.210051	-1.633659	-2.115708	-1.406947	3.824530	0.553464	-0.261150	-0.158290	-0.970459	0.098389	0.401611	0.137252	0.012037	-0.016124	0.094872	-0.677171	-0.113907	-0.720739	32.095434	-86.146826	164.893333
30984		13.078951	2.742974	-2.737207	-2.689884	-3.175697	3.177865	0.598547	-0.221230	-0.151828	-0.974854	0.093750	0.399658	0.130840	0.027412	-0.027145	0.091414	-0.678428	-0.110494	-0.720534	32.589014	-86.253600	163.836245
30985		13.283981	3.648883	-2.703662	-2.373013	-4.018573	3.427705	0.579018	-0.175041	-0.087208	-0.973145	0.107422	0.403320	0.132879	0.036509	-0.026815	0.092968	-0.678742	-0.112954	-0.719658	34.410440	-86.309646	162.343431
30986		12.481516	4.319688	-2.247026	-1.709770	-4.544181	2.674270	0.592188	-0.014012	0.010540	-0.968506	0.103027	0.403564	0.124814	0.043270	-0.022333	0.091188	-0.679253	-0.110223	-0.719827	33.325649	-86.367931	163.058303
30987		11.892231	4.702326	-2.264655	-1.560154	-4.936970	2.097724	0.551647	0.120826	0.041096	-0.975586	0.111572	0.396240	0.118899	0.047110	-0.022589	0.093277	-0.678586	-0.112012	-0.719912	32.738470	-86.322711	163.963391
30988		11.784773	4.097188	-2.303977	-1.785507	-4.389130	1.956916	0.564906	0.252318	0.115168	-0.982666	0.120361	0.391357	0.117795	0.041105	-0.023072	0.093212	-0.678039	-0.110403	-0.720685	30.237307	-86.273632	166.327645
30989		11.992461	2.783170	-1.800222	-1.696514	-3.017292	2.138194	0.650818	0.374872	0.191194	-0.987549	0.126953	0.386475	0.119864	0.028005	-0.018136	0.096315	-0.676484	-0.111923	-0.721502	27.594467	-86.138516	169.349991
30990		12.116103	1.845421	-0.807631	-1.045023	-1.877021	2.280380	0.570057	0.389477	0.252676	-0.983398	0.133789	0.385986	0.121122	0.018631	-0.008259	0.099076	-0.675192	-0.112244	-0.722289	24.219375	-86.036620	172.978374
30991		11.794344	1.154284	-0.464495	-0.924543	-1.163388	1.953629	0.396520	0.366696	0.291258	-0.981201	0.138184	0.376709	0.117918	0.011724	-0.004838	0.101674	-0.673830	-0.112510	-0.723157	21.106661	-85.906935	176.326541
30992		11.512609	1.283207	-0.634941	-1.048184	-1.389466	1.657289	0.131596	0.376469	0.313092	-0.981689	0.147217	0.371582	0.115094	0.013017	-0.006558	0.103647	-0.672765	-0.111636	-0.724004	17.624258	-85.797124	179.899791
30993		11.362037	1.760017	-0.869179	-1.145537	-1.961597	1.491676	-0.195492	0.344980	0.321326	-0.981689	0.151611	0.360107	0.113577	0.017774	-0.008905	0.104346	-0.671794	-0.109667	-0.725105	14.410231	-85.657817	-176.989552
30994		11.500888	2.148396	-0.560853	-0.757069	-2.290807	1.649398	-0.341955	0.255937	0.332090	-0.975098	0.151611	0.353516	0.114966	0.021665	-0.005793	0.106082	-0.671219	-0.108453	-0.725568	11.229610	-85.590951	-173.765714
30995		11.365755	2.277687	-0.141795	-0.326683	-2.330316	1.538573	-0.430382	0.116639	0.312791	-0.984375	0.158203	0.355225	0.113621	0.022951	-0.001533	0.105837	-0.671191	-0.105779	-0.726025	8.551049	-85.555795	-171.326465
30996		11.146706	2.079217	0.294788	0.060099	-2.044313	1.344202	-0.464294	-0.010439	0.279810	-0.989014	0.162598	0.354980	0.111438	0.020955	0.002905	0.107247	-0.671553	-0.104993	-0.725597	6.249860	-85.615987	-168.974398
30997		11.007197	1.686812	0.327940	-0.007716	-1.689824	1.198925	-0.454808	-0.080466	0.281379	-0.984375	0.162598	0.361816	0.110047	0.017030	0.003285	0.106700	-0.672233	-0.102440	-0.725413	3.930866	-85.676102	-166.910024
30998		10.768276	0.993278	0.316810	-0.182245	-1.052969	0.953032	-0.360674	-0.011345	0.251018	-0.982422	0.167236	0.363770	0.107670	0.010074	0.003156	0.108618	-0.672496	-0.102497	-0.724877	1.926191	-85.725781	-164.743688
30999		10.274194	1.023701	0.704722	0.236715	-0.986421	0.486561	-0.298121	0.022975	0.260469	-0.978027	0.167236	0.370361	0.102729	0.010381	0.007020	0.108573	-0.672706	-0.100526	-0.724964	-0.244312	-85.714667	-162.738388
31000		10.076936	1.236518	0.844418	0.461504	-1.167242	0.297266	-0.357474	0.011645	0.248848	-0.982422	0.169434	0.370361	0.100754	0.012506	0.008416	0.110093	-0.672946	-0.100275	-0.724547	-2.211514	-85.742854	-160.667286
31001		9.839782	1.420125	0.813884	0.505021	-1.372882	0.054458	-0.429633	0.009810	0.215189	-0.980225	0.167236	0.375000	0.098383	0.014325	0.008103	0.109433	-0.673252	-0.097988	-0.724675	-4.108032	-85.730308	-159.012331
31002		9.284321	1.315202	0.950807	0.652426	-1.233678	-0.491488	-0.485254	0.011768	0.147450	-0.975830	0.169434	0.372559	0.092834	0.013243	0.009471	0.109489	-0.673584	-0.097083	-0.724481	-5.294020	-85.754170	-157.896026
31003		8.880621	1.223069	0.937348	0.640113	-1.155205	-0.896652	-0.440126	-0.020023	0.111868	-0.971436	0.169678	0.381592	0.088798	0.012301	0.009355	0.108404	-0.673949	-0.095121	-0.724564	-6.424410	-85.758913	-157.015373
31004		8.261798	1.299447	0.838768	0.616939	-1.244224	-1.522894	-0.408908	-0.002054	0.076727	-0.973633	0.169678	0.381592	0.082613	0.013043	0.008362	0.108405	-0.674229	-0.094756	-0.724351	-6.968027	-85.789867	-156.501833
31005		7.521192	1.190484	0.936474	0.725918	-1.099370	-2.254447	-0.385686	0.023223	0.025096	-0.975586	0.162842	0.377441	0.075212	0.011932	0.009333	0.107208	-0.674365	-0.093260	-0.724597	-7.363103	-85.774759	-156.327244
31006		6.912191	1.169916	0.982304	0.805160	-1.048013	-2.858164	-0.371397	0.023736	-0.015051	-0.971191	0.165283	0.381836	0.069124	0.011712	0.009793	0.106577	-0.674513	-0.092975	-0.724589	-7.078861	-85.794539	-156.686576
31007		6.596152	0.992810	0.892356	0.686278	-0.896685	-3.178219	-0.359202	0.008004	-0.044992	-0.968750	0.163086	0.377441	0.065964	0.009929	0.008903	0.105208	-0.674654	-0.091820	-0.724805	-6.932280	-85.793030	-157.039895
31008		6.158356	0.750593	0.838515	0.597836	-0.660856	-3.616099	-0.323827	-0.012183	-0.057211	-0.968750	0.160889	0.379883	0.061585	0.007502	0.008377	0.104690	-0.674842	-0.092016	-0.724680	-6.267701	-85.832249	-157.730986
31009		5.802793	0.424645	0.723223	0.420261	-0.368504	-3.976304	-0.308766	-0.027831	-0.066277	-0.971191	0.167480	0.377197	0.058028	0.004238	0.007234	0.103397	-0.675073	-0.091134	-0.724762	-5.951688	-85.852056	-158.225189
31010		5.548328	0.160726	0.738811	0.381702	-0.096930	-4.226944	-0.303338	-0.011900	-0.056795	-0.968506	0.158691	0.382080	0.055483	0.001603	0.007389	0.103451	-0.675164	-0.091871	-0.724576	-5.246532	-85.886833	-158.865776
31011		5.272968	-0.182081	0.814376	0.378978	0.260518	-4.493941	-0.306193	0.003257	-0.029023	-0.973145	0.160645	0.377686	0.052730	-0.001816	0.008146	0.102316	-0.675296	-0.090856	-0.724742	-5.192487	-85.886405	-159.095826
31012		5.181389	-0.358028	0.962268	0.480703	0.474998	-4.573963	-0.264525	-0.022019	0.020785	-0.966309	0.160889	0.377441	0.051813	-0.003562	0.009633	0.102388	-0.675476	-0.091085	-0.724536	-5.105818	-85.919704	-159.157992
31013		5.097878	-0.201804	1.088398	0.653498	0.357004	-4.649434	-0.264769	-0.048371	0.056595	-0.973145	0.160645	0.377686	0.050977	-0.001989	0.010899	0.101678	-0.675811	-0.089958	-0.724464	-5.751384	-85.944150	-158.662856
31014		5.020056	-0.208886	1.117622	0.688752	0.373119	-4.725441	-0.250671	-0.050081	0.117986	-0.975830	0.169678	0.379395	0.050199	-0.002045	0.011191	0.102550	-0.676059	-0.090264	-0.724072	-6.513353	-85.983422	-157.804700
31015		4.984275	-0.341831	1.139992	0.681258	0.500137	-4.758464	-0.111904	-0.025726	0.155881	-0.971191	0.167480	0.379395	0.049844	-0.003373	0.011408	0.102727	-0.676280	-0.089344	-0.723955	-7.869334	-85.986784	-156.509631
31016		4.857207	-0.258208	1.273885	0.841801	0.458405	-4.876784	0.004129	-0.019452	0.178788	-0.975586	0.165039	0.372803	0.048573	-0.002539	0.012744	0.105431	-0.676204	-0.090997	-0.723431	-9.005793	-85.997685	-155.016537
31017		4.898251	-0.262495	1.114538	0.688497	0.409328	-4.846564	0.095122	-0.023876	0.207179	-0.978027	0.169434	0.370361	0.048984	-0.002580	0.011150	0.106493	-0.676334	-0.090652	-0.723197	-10.657952	-85.990804	-153.305669
31018		5.032825	-0.023609	0.918862	0.561320	0.117045	-4.728849	0.114052	-0.004089	0.225585	-0.980469	0.173828	0.379150	0.050328	-0.000185	0.009190	0.109073	-0.676225	-0.091879	-0.722760	-12.104868	-85.979369	-151.546830
31019		5.443640	0.064795	0.985884	0.629069	0.027561	-4.316063	0.155024	-0.033931	0.222795	-0.976318	0.180664	0.374023	0.054434	0.000701	0.009869	0.110389	-0.676364	-0.091703	-0.722451	-13.848565	-85.969545	-149.709751
31020		6.141296	0.395363	1.032236	0.732934	-0.304703	-3.623399	0.194542	-0.076272	0.217181	-0.973877	0.178467	0.374268	0.061405	0.004010	0.010350	0.113343	-0.676436	-0.093425	-0.721706	-15.336427	-85.991682	-147.838896
31021		6.744175	0.516988	1.218819	0.919899	-0.399099	-3.013335	0.223089	-0.077958	0.216776	-0.969482	0.180908	0.378662	0.067431	0.005229	0.012220	0.114844	-0.676691	-0.093539	-0.721214	-17.093344	-85.999780	-145.949516
31022		7.201266	0.433473	1.207720	0.869523	-0.344279	-2.558026	0.270578	-0.092803	0.212290	-0.974121	0.185303	0.378418	0.072002	0.004395	0.012117	0.117375	-0.676839	-0.094960	-0.720483	-18.543547	-86.023673	-144.175516
31023		8.065885	0.533390	1.246233	0.899739	-0.473562	-1.697129	0.313636	-0.096458	0.233121	-0.967529	0.185303	0.380615	0.080647	0.005408	0.012510	0.119231	-0.677111	-0.095356	-0.719869	-20.445234	-86.031081	-142.089087
31024		9.206971	0.681737	1.462343	1.103520	-0.607688	-0.550699	0.319727	-0.094003	0.291231	-0.972412	0.196533	0.379883	0.092053	0.006928	0.014678	0.121855	-0.677298	-0.096363	-0.719120	-22.481772	-86.030539	-139.754701
31025		10.182907	0.891832	1.638680	1.301768	-0.820219	0.424733	0.302879	-0.063133	0.360586	-0.970215	0.198730	0.379639	0.101808	0.009077	0.016433	0.124148	-0.677512	-0.096268	-0.718538	-25.226145	-85.979928	-136.829657
31026		10.761387	1.080158	2.038112	1.725333	-0.926866	1.017461	0.273226	0.052829	0.415358	-0.972656	0.200928	0.381836	0.107597	0.010997	0.020368	0.127632	-0.677162	-0.097090	-0.718147	-27.544869	-85.857485	-134.156685
31027		10.757541	1.443249	2.826744	2.594689	-1.064050	1.047026	0.181509	0.102585	0.421873	-0.970703	0.207764	0.388184	0.107559	0.014634	0.028225	0.129812	-0.676881	-0.096246	-0.718135	-29.928768	-85.689556	-131.661977
31028		11.735921	1.388304	2.580516	2.293555	-1.182427	2.005077	0.082061	0.180589	0.412934	-0.966553	0.214355	0.374268	0.117353	0.014115	0.025705	0.131749	-0.676287	-0.095454	-0.718447	-31.472914	-85.491123	-130.022580
31029		12.280950	1.802938	2.899317	2.693974	-1.561257	2.547857	0.111207	0.224895	0.452150	-0.964600	0.223389	0.366943	0.122801	0.018291	0.028865	0.133858	-0.675619	-0.094175	-0.718854	-33.260058	-85.243429	-128.165625
31030		12.553288	1.723791	3.182958	2.914659	-1.451522	2.839794	0.182705	0.269727	0.439470	-0.964600	0.223389	0.366943	0.125537	0.017485	0.031676	0.137638	-0.674417	-0.094923	-0.719171	-34.190405	-84.985407	-126.861196
31031		12.326956	1.827140	3.612387	3.351079	-1.447997	2.637813	0.289315	0.295895	0.422219	-0.958252	0.232422	0.368652	0.123284	0.018480	0.035968	0.140274	-0.673351	-0.094335	-0.719738	-35.162489	-84.708187	-125.718697
31032		12.763218	1.881897	3.175269	2.913687	-1.707537	3.037140	0.218430	0.331438	0.377815	-0.967285	0.236572	0.361816	0.127649	0.019026	0.031562	0.143513	-0.671888	-0.094988	-0.720381	-35.298497	-84.439076	-125.260216
31033		14.777975	1.912898	3.168959	2.791716	-1.951621	5.036126	0.053177	0.165228	0.352969	-0.958496	0.239014	0.357178	0.147772	0.019381	0.031573	0.145043	-0.671420	-0.093874	-0.720656	-36.364635	-84.243778	-124.158205
31034		15.518216	1.699502	3.495470	2.986260	-1.732084	5.807928	-0.002762	0.020260	0.287608	-0.960938	0.241211	0.363770	0.155161	0.017219	0.034939	0.147178	-0.671138	-0.094421	-0.720414	-37.104634	-84.148033	-123.196531
31035		14.862843	1.126280	2.800445	2.182238	-1.413690	5.129007	-0.162360	0.088399	0.255396	-0.965332	0.238770	0.363770	0.148626	0.011475	0.027929	0.147596	-0.671059	-0.092913	-0.720599	-38.019889	-84.018525	-122.369861
31036		14.346390	0.421771	1.119844	0.386430	-1.295513	4.519899	-0.344626	0.077033	0.229323	-0.958496	0.241211	0.363770	0.143463	0.004401	0.011136	0.147493	-0.670889	-0.091586	-0.720948	-38.411971	-83.916476	-122.094546
31037		13.768739	0.078577	-0.181555	-0.916462	-1.379707	3.857491	-0.515916	0.001113	0.156554	-0.963135	0.241211	0.361328	0.137687	0.000889	-0.001819	0.146328	-0.671334	-0.089200	-0.721070	-39.356563	-83.859527	-121.441804
31038		12.639434	-0.889933	-1.603804	-2.509888	-0.830152	2.682542	-0.597953	-0.078069	0.091147	-0.958984	0.247803	0.361084	0.126405	-0.008890	-0.015962	0.144871	-0.671847	-0.087608	-0.721081	-39.835944	-83.877987	-121.213463
31039		12.091805	-2.176429	-2.434020	-3.657187	0.178897	2.165036	-0.611993	-0.247862	0.038187	-0.963135	0.241211	0.372559	0.120952	-0.021815	-0.024124	0.142844	-0.673197	-0.085452	-0.720485	-41.210325	-83.971587	-120.183908
31040		12.334248	-3.313955	-2.561342	-4.114255	1.216016	2.486506	-0.521090	-0.471449	-0.025273	-0.958496	0.239014	0.370605	0.123398	-0.033221	-0.025236	0.141798	-0.674980	-0.085467	-0.719021	-42.721463	-84.203685	-118.759498
31041		12.640359	-4.459264	-2.226591	-4.103770	2.420700	2.912088	-0.376970	-0.622079	-0.106577	-0.962891	0.234619	0.377441	0.126448	-0.044701	-0.021788	0.139877	-0.677433	-0.084911	-0.717153	-44.990131	-84.502918	-116.696777
31042		12.056108	-4.892137	-2.262562	-4.186336	2.917311	2.367842	-0.260423	-0.513745	-0.184228	-0.956299	0.236816	0.379639	0.120573	-0.049062	-0.022252	0.138631	-0.679224	-0.085867	-0.715585	-46.285003	-84.805957	-115.428018
31043		11.736960	-4.750589	-2.908751	-4.688737	2.651647	2.009723	-0.230100	-0.373356	-0.127396	-0.962646	0.232422	0.386719	0.117393	-0.047614	-0.028814	0.137234	-0.680663	-0.085735	-0.714503	-47.611464	-85.005208	-114.228617
31044		12.029663	-3.864833	-3.110895	-4.582776	1.750212	2.239789	-0.310570	-0.201897	-0.054373	-0.958252	0.234619	0.382080	0.120317	-0.038729	-0.030927	0.136739	-0.681448	-0.086022	-0.713814	-48.384284	-85.123488	-113.473668
31045		12.418579	-3.140907	-2.693834	-3.955199	1.188618	2.608531	-0.388985	-0.026862	-0.091253	-0.965088	0.232178	0.379883	0.124175	-0.031518	-0.026860	0.135077	-0.681769	-0.084962	-0.713951	-48.333400	-85.172660	-113.748365
31046		12.604517	-2.858916	-2.421090	-3.617006	0.997584	2.790130	-0.149038	0.043872	-0.077758	-0.965088	0.234375	0.377441	0.126029	-0.028656	-0.024217	0.135696	-0.681547	-0.086166	-0.713902	-47.811973	-85.204880	-114.120368
31047		12.358527	-2.878678	-2.345071	-3.556444	1.065704	2.545924	0.129701	0.140860	-0.092404	-0.962402	0.225586	0.371338	0.123555	-0.028829	-0.023556	0.135870	-0.680915	-0.086848	-0.714389	-46.604779	-85.188776	-115.257193
31048		12.235258	-2.876103	-2.298115	-3.535619	1.074133	2.418436	0.240694	0.209073	-0.083705	-0.962646	0.232178	0.373291	0.122316	-0.028784	-0.023144	0.137824	-0.679882	-0.089243	-0.714703	-45.120855	-85.155394	-116.383591
31049		12.683135	-2.918700	-1.907344	-3.228125	1.196542	2.882433	0.311481	0.196802	-0.058781	-0.962646	0.229980	0.364258	0.126804	-0.029194	-0.019244	0.138761	-0.678936	-0.090420	-0.715273	-43.734501	-85.098315	-117.595812
31050		12.756554	-2.591413	-1.106865	-2.400659	1.120119	2.979979	0.367974	0.187561	-0.048343	-0.962646	0.229980	0.359863	0.127549	-0.025924	-0.011236	0.141221	-0.677947	-0.093052	-0.715392	-42.594994	-85.054777	-118.316410
31051		12.048831	-2.220425	-0.597212	-1.799983	0.982290	2.280962	0.454120	0.167533	-0.057056	-0.960205	0.227783	0.360107	0.120477	-0.022225	-0.006123	0.142635	-0.676998	-0.094751	-0.715787	-41.317449	-85.005126	-119.337551
31052		11.366726	-1.855282	-0.284193	-1.378325	0.787662	1.598055	0.506572	0.117877	-0.068681	-0.956055	0.232422	0.355225	0.113659	-0.018584	-0.002956	0.144905	-0.676227	-0.097425	-0.715701	-40.384569	-84.995272	-119.863429
31053		11.083350	-1.550261	0.107961	-0.915907	0.654651	1.322308	0.466614	0.099585	-0.077056	-0.953613	0.230225	0.357666	0.110828	-0.015548	0.000988	0.146256	-0.675493	-0.099282	-0.715864	-39.314210	-84.979641	-120.669469
31054		10.623058	-1.572549	0.383227	-0.662467	0.805625	0.882228	0.432402	0.117490	-0.079914	-0.958252	0.234619	0.357422	0.106226	-0.015776	0.003736	0.148163	-0.674781	-0.101626	-0.715815	-38.412508	-84.971050	-121.220930
31055		10.335787	-1.031301	0.616263	-0.260700	0.404050	0.581571	0.314584	0.098967	-0.055537	-0.958252	0.232178	0.362061	0.103358	-0.010351	0.006095	0.149077	-0.674164	-0.102865	-0.716029	-37.552871	-84.945834	-121.902911
31056		9.975068	-0.926114	0.630276	-0.205978	0.339967	0.217212	0.211376	0.142073	-0.068214	-0.955811	0.230225	0.364258	0.099752	-0.009302	0.006222	0.149796	-0.673604	-0.103872	-0.716261	-36.768568	-84.919521	-122.544720
31057		9.330824	-1.261243	0.809225	-0.147728	0.767790	-0.394700	0.301643	0.171174	-0.126684	-0.955811	0.227783	0.362305	0.093307	-0.012684	0.007993	0.150448	-0.672697	-0.105250	-0.716775	-35.291987	-84.882809	-123.853602
31058		8.642130	-1.180787	0.961767	0.040215	0.804596	-1.074459	0.287182	0.178485	-0.143051	-0.946777	0.230225	0.371094	0.086421	-0.011883	0.009524	0.150134	-0.672060	-0.105773	-0.717361	-33.963340	-84.860730	-125.164815
31059		7.795498	-1.248005	0.898092	-0.021154	0.913635	-1.919737	0.224640	0.179294	-0.142387	-0.946533	0.223633	0.375977	0.077954	-0.012546	0.008897	0.150474	-0.671172	-0.106922	-0.717951	-32.456540	-84.819397	-126.548469
31060		6.690665	-1.382637	1.028745	0.101920	1.172164	-3.004558	0.276829	0.122162	-0.150506	-0.946777	0.225830	0.377930	0.066902	-0.013891	0.010227	0.149342	-0.670851	-0.106778	-0.718508	-31.323920	-84.820712	-127.786384
31061		6.692745	-0.723914	1.048923	0.343868	0.573398	-3.032563	0.224700	0.055344	-0.143143	-0.939941	0.223877	0.378174	0.066925	-0.007299	0.010463	0.149611	-0.670408	-0.108023	-0.718680	-30.238586	-84.835412	-128.746848
31062		6.573072	-0.328697	0.582024	0.051562	0.052377	-3.206126	0.171051	0.115093	-0.068472	-0.948730	0.221436	0.369385	0.065733	-0.003314	0.005780	0.148182	-0.670249	-0.106992	-0.719278	-29.627666	-84.809524	-129.560487
31063		5.689958	-0.332385	0.632127	0.135837	0.136896	-4.081328	0.290287	0.211054	-0.082293	-0.944336	0.225830	0.373535	0.056905	-0.003356	0.006256	0.148973	-0.669230	-0.108155	-0.719890	-28.372047	-84.726604	-130.654307
31064		4.961450	-0.355971	0.845255	0.359471	0.284791	-4.788066	0.336163	0.183648	-0.049809	-0.946533	0.221436	0.373779	0.049621	-0.003586	0.008401	0.148552	-0.668644	-0.107940	-0.720553	-27.577448	-84.657675	-131.500727
31065		4.254616	-0.593916	0.914633	0.372768	0.582186	-5.475275	0.391718	0.096542	-0.026683	-0.944336	0.223633	0.373535	0.042550	-0.005963	0.009114	0.149818	-0.667990	-0.109369	-0.720682	-26.939767	-84.615505	-131.915755
31066		4.584115	-0.393667	0.877950	0.386289	0.359503	-5.158505	0.321313	0.106933	-0.054277	-0.948730	0.223633	0.366943	0.045845	-0.003963	0.008749	0.148881	-0.667743	-0.108793	-0.721192	-26.360160	-84.584281	-132.619847
31067		4.588560	-0.226260	0.831474	0.394905	0.188920	-5.164486	0.232733	0.146257	-0.063553	-0.944580	0.228027	0.366699	0.045891	-0.002287	0.008279	0.149509	-0.667007	-0.109735	-0.721600	-25.500320	-84.524851	-133.349603
31068		4.435051	-0.181148	0.944830	0.521139	0.198149	-5.308873	0.200068	0.110466	-0.062344	-0.946777	0.228027	0.359863	0.044355	-0.001835	0.009422	0.148905	-0.666706	-0.109458	-0.722045	-24.943415	-84.491186	-133.978996
31069		4.533872	-0.189953	0.974494	0.532696	0.212573	-5.206956	0.152276	0.093973	-0.067334	-0.947021	0.232422	0.355225	0.045343	-0.001922	0.009722	0.149222	-0.666217	-0.110161	-0.722324	-24.263310	-84.458315	-134.574590
31070		4.635481	-0.211434	1.129569	0.657928	0.283633	-5.090930	0.111218	0.071662	-0.088840	-0.948975	0.228027	0.359863	0.046358	-0.002141	0.011278	0.149305	-0.665927	-0.110697	-0.722492	-23.708712	-84.448625	-135.078026
31071		4.897004	-0.170122	1.370584	0.875057	0.318895	-4.810621	0.045452	-0.001311	-0.130518	-0.955811	0.229980	0.357666	0.048969	-0.001736	0.013706	0.148985	-0.665826	-0.111296	-0.722559	-22.978945	-84.478977	-135.785019
31072		5.223532	-0.103805	1.651123	1.138538	0.341968	-4.463944	-0.010395	-0.088567	-0.136850	-0.953613	0.230225	0.355225	0.052227	-0.001073	0.016534	0.148166	-0.666204	-0.111457	-0.722355	-22.584137	-84.562097	-136.234824
31073		5.441588	-0.159641	1.704873	1.156264	0.408268	-4.241394	-0.070159	-0.131566	-0.172760	-0.953613	0.230225	0.357666	0.054403	-0.001637	0.017085	0.147236	-0.666635	-0.111876	-0.722083	-21.957268	-84.669408	-136.904818
31074		5.729727	-0.245302	1.822712	1.219863	0.523857	-3.943299	-0.188460	-0.129845	-0.219039	-0.960205	0.227783	0.362305	0.057283	-0.002499	0.018267	0.146277	-0.667107	-0.112411	-0.721758	-21.234559	-84.788617	-137.663560
31075		6.338725	-0.483170	1.772746	1.051267	0.703856	-3.335425	-0.331582	-0.132287	-0.289064	-0.955566	0.223389	0.364746	0.063368	-0.004894	0.017777	0.144054	-0.667664	-0.112275	-0.721712	-20.001666	-84.917932	-139.092165
31076		7.135540	-0.668497	1.761631	0.927388	0.844083	-2.539888	-0.457653	-0.131954	-0.343358	-0.955322	0.214600	0.365234	0.071332	-0.006767	0.017679	0.141522	-0.668282	-0.112045	-0.721676	-18.563692	-85.056531	-140.759023
31077		7.598031	-0.825919	1.814975	0.898207	1.004227	-2.073756	-0.512824	-0.140453	-0.312237	-0.954834	0.208008	0.374512	0.075955	-0.008331	0.018224	0.138604	-0.668975	-0.111336	-0.721711	-17.153343	-85.188057	-142.469362
31078		8.355964	-0.715674	1.887264	0.965304	0.905501	-1.318907	-0.601505	-0.152857	-0.322595	-0.956787	0.201172	0.372803	0.083534	-0.007235	0.018958	0.135273	-0.669815	-0.110170	-0.721742	-15.797233	-85.325306	-144.196900
31079		9.425045	-0.859646	1.998058	0.961999	1.052051	-0.245538	-0.658405	-0.185783	-0.369490	-0.949951	0.194580	0.375488	0.094216	-0.008705	0.020097	0.131632	-0.670723	-0.109156	-0.721726	-13.971537	-85.482653	-146.406909
31080		10.136613	-1.241286	2.095313	0.894933	1.443623	0.473078	-0.637538	-0.180713	-0.427805	-0.954102	0.190186	0.382324	0.101320	-0.012563	0.021085	0.127759	-0.671603	-0.108195	-0.721749	-11.701380	-85.637448	-149.075738
31081		10.709579	-1.483787	2.351896	1.034106	1.774993	1.059661	-0.607776	-0.170945	-0.478554	-0.956055	0.178955	0.389893	0.107040	-0.015022	0.023656	0.123899	-0.672345	-0.107716	-0.721802	-8.685097	-85.782510	-152.449670
31082		11.290032	-2.006315	2.662096	1.137117	2.394578	1.656819	-0.590363	-0.166012	-0.530759	-0.955811	0.174561	0.392334	0.112825	-0.020284	0.026774	0.119783	-0.673061	-0.107202	-0.721907	-5.201556	-85.912065	-156.314468
31083		11.596206	-2.577353	2.429085	0.728151	2.910299	1.935283	-0.475387	-0.127585	-0.573851	-0.959717	0.158936	0.391113	0.115872	-0.026048	0.024426	0.116044	-0.673494	-0.107492	-0.722070	-0.884401	-86.002690	-160.915410
31084		11.789918	-3.116670	2.575647	0.696199	3.523338	2.122587	-0.395887	-0.096705	-0.603391	-0.954834	0.149902	0.389404	0.117792	-0.031471	0.025876	0.112306	-0.673784	-0.107790	-0.722346	3.645122	-86.047280	-165.727530
31085		12.488181	-3.609729	2.815918	0.734734	4.121801	2.812076	-0.377524	-0.141006	-0.583234	-0.954590	0.145508	0.398682	0.124756	-0.036408	0.028316	0.108853	-0.674187	-0.108469	-0.722397	8.388724	-86.092765	-170.699091
31086		12.968834	-3.561121	3.120253	1.023708	4.219572	3.292851	-0.325599	-0.129929	-0.470751	-0.958740	0.136475	0.403564	0.129584	-0.035865	0.031345	0.105750	-0.674618	-0.108464	-0.722457	11.964117	-86.116694	-174.529465
31087		12.945225	-2.892427	3.362724	1.462547	3.701832	3.279683	-0.257443	-0.021336	-0.348057	-0.960693	0.129883	0.406250	0.129398	-0.029106	0.033678	0.103614	-0.674641	-0.108718	-0.722706	14.702111	-86.082732	-177.421640
31088		12.924169	-2.061627	3.411553	1.751318	2.944692	3.271072	-0.207707	0.116492	-0.266545	-0.962402	0.120850	0.404541	0.129234	-0.020753	0.034062	0.101700	-0.674227	-0.108181	-0.723445	16.041882	-85.976648	-178.961877
31089		13.597593	-1.958181	2.604046	0.927748	2.626876	3.889451	-0.122630	0.371411	-0.249047	-0.964355	0.114258	0.402832	0.135999	-0.019735	0.025800	0.100588	-0.672810	-0.108387	-0.724887	17.021264	-85.732178	179.985743
31090		15.937106	-1.393856	3.299556	1.520885	2.293258	6.288513	-0.285819	0.431260	-0.264602	-0.962158	0.112061	0.394043	0.159423	-0.014103	0.032672	0.098498	-0.671288	-0.107286	-0.726746	17.378355	-85.449064	179.368714
31091		14.844924	-0.779464	3.958659	2.352883	1.905908	5.269805	-0.393491	0.307858	-0.271392	-0.968506	0.105225	0.401123	0.148499	-0.007919	0.039374	0.096357	-0.670216	-0.106614	-0.728121	18.303980	-85.233651	178.213832
31092		12.571144	-0.262037	2.758633	1.507162	1.075741	2.926366	-0.154490	0.091587	-0.348297	-0.975098	0.098389	0.396973	0.125719	-0.002818	0.027531	0.094196	-0.669800	-0.106398	-0.728817	19.843115	-85.115294	176.480603
31093		12.821476	-0.201883	0.939235	-0.243550	0.553537	3.030489	0.012840	-0.191071	-0.408250	-0.968018	0.091797	0.397461	0.128201	-0.002281	0.009515	0.092651	-0.670272	-0.107900	-0.728360	22.869461	-85.132226	173.450656
31094		13.500942	-0.224763	0.039921	-1.144742	0.386573	3.635999	0.112530	-0.413877	-0.415313	-0.968018	0.091797	0.408691	0.135003	-0.002528	0.000677	0.090832	-0.671534	-0.109085	-0.727249	26.273538	-85.248020	169.994005
31095		12.606016	0.084225	-1.176036	-2.108459	-0.199882	2.669932	0.266254	-0.467363	-0.375278	-0.972412	0.087402	0.411133	0.126088	0.000621	-0.011465	0.090108	-0.672905	-0.111524	-0.725701	30.283248	-85.382217	166.123927
31096		11.634081	1.001455	-2.574981	-3.073886	-1.445519	1.652333	0.313965	-0.417550	-0.298236	-0.972168	0.084961	0.413574	0.116409	0.009881	-0.025491	0.089400	-0.674163	-0.113060	-0.724382	33.464182	-85.500743	163.010208
31097		11.852035	2.476645	-2.948429	-2.993140	-2.923920	1.925682	0.176541	-0.339874	-0.219177	-0.969971	0.085205	0.415771	0.118597	0.024662	-0.029261	0.089011	-0.675191	-0.114588	-0.723232	36.314825	-85.588854	160.252377
31098		12.250505	3.646518	-2.587599	-2.322120	-3.905495	2.411159	0.064226	-0.214258	-0.134037	-0.972412	0.089600	0.417725	0.122557	0.036391	-0.025733	0.088221	-0.675934	-0.114665	-0.722622	37.781455	-85.651278	158.727027
31099		11.666249	4.088785	-1.994258	-1.575204	-4.162058	1.891696	0.099684	-0.010577	-0.055532	-0.981445	0.089355	0.417725	0.116675	0.040865	-0.019916	0.088353	-0.675897	-0.115216	-0.722553	38.214172	-85.636662	158.350321
31100		11.014954	4.080375	-1.864318	-1.416218	-4.136321	1.248032	0.132328	0.175661	-0.027214	-0.976807	0.087158	0.411133	0.110139	0.040801	-0.018713	0.088509	-0.675261	-0.115183	-0.723133	37.413629	-85.558446	159.161378
31101		10.682156	3.421159	-2.076523	-1.798588	-3.582206	0.867087	0.111471	0.248131	0.022242	-0.979492	0.093750	0.415283	0.106792	0.034235	-0.020879	0.089111	-0.674328	-0.115399	-0.723895	36.260723	-85.452494	160.381884
31102		10.966999	2.339457	-1.816963	-1.900203	-2.478806	1.109500	0.238566	0.259770	0.047090	-0.981689	0.093750	0.406250	0.109641	0.023442	-0.018284	0.089996	-0.673384	-0.115591	-0.724634	34.903920	-85.356950	161.827511
31103		11.634981	1.733454	-0.970105	-1.334575	-1.653330	1.797830	0.274651	0.232452	0.060669	-0.981689	0.098145	0.403809	0.116333	0.017383	-0.009812	0.091276	-0.672452	-0.116275	-0.725229	33.792236	-85.266789	163.100794
31104		11.718786	1.696607	-0.568607	-0.987811	-1.518274	1.902718	0.027612	0.224626	0.105939	-0.979492	0.095947	0.392822	0.117172	0.017029	-0.005815	0.091693	-0.671767	-0.115603	-0.725919	32.259221	-85.202073	164.613229
31105		11.236000	2.284878	-0.764989	-0.987247	-2.169451	1.428857	-0.279486	0.177777	0.147675	-0.977539	0.102783	0.392334	0.112336	0.022921	-0.007782	0.091394	-0.671334	-0.114009	-0.726608	30.609883	-85.159475	166.107689
31106		11.273993	2.830657	-0.968240	-1.045337	-2.771161	1.469197	-0.408643	0.064982	0.163305	-0.970703	0.100586	0.396973	0.112714	0.028379	-0.009777	0.090507	-0.671453	-0.111708	-0.726967	29.130265	-85.183540	167.325968
31107		11.528367	3.087458	-0.608735	-0.657560	-2.927664	1.754619	-0.384102	-0.053474	0.138284	-0.977539	0.104980	0.387695	0.115264	0.030943	-0.006116	0.089692	-0.671898	-0.109870	-0.726937	28.252502	-85.248638	167.985927
31108		11.993940	2.784315	-0.292641	-0.473372	-2.554059	2.226637	-0.412333	-0.117861	0.121587	-0.977783	0.109375	0.387451	0.119924	0.027910	-0.002913	0.088582	-0.672653	-0.107866	-0.726675	27.636867	-85.350874	168.345882
31109		11.792554	2.045130	-0.019524	-0.396215	-1.785108	2.015400	-0.395193	-0.009398	0.113208	-0.987061	0.115723	0.382568	0.117914	0.020518	-0.000230	0.087660	-0.672922	-0.106052	-0.726804	26.725482	-85.385480	169.033052
31110		11.127649	1.693013	0.106554	-0.321673	-1.437765	1.346683	-0.471240	0.035419	0.112259	-0.984863	0.118164	0.389160	0.111267	0.016995	0.001006	0.086497	-0.673112	-0.103907	-0.727078	25.624000	-85.404119	169.863649
31111		10.744440	1.414502	0.069088	-0.403088	-1.200545	0.950434	-0.480019	-0.063777	0.146483	-0.980225	0.113770	0.393799	0.107434	0.014225	0.000691	0.085382	-0.673626	-0.101694	-0.727046	24.587318	-85.472998	170.627695
31112		10.678234	1.432295	0.278952	-0.184677	-1.177538	0.898674	-0.387440	-0.064945	0.118130	-0.975830	0.114014	0.405029	0.106773	0.014391	0.002796	0.084490	-0.674150	-0.099917	-0.726911	23.797214	-85.544774	171.199131
31113		10.368567	1.620863	0.736155	0.331568	-1.258283	0.626809	-0.445946	-0.052284	0.102283	-0.975830	0.114014	0.407227	0.103675	0.016278	0.007352	0.083334	-0.674579	-0.097972	-0.726912	22.997352	-85.595726	171.745094
31114		9.686771	1.214740	0.953039	0.494866	-0.829930	-0.051349	-0.515354	-0.076227	0.075076	-0.966553	0.111816	0.405273	0.096860	0.012208	0.009536	0.081825	-0.675184	-0.095896	-0.726797	22.473797	-85.664228	171.975273
31115		9.238231	1.125021	0.960433	0.516976	-0.758334	-0.501905	-0.524775	-0.059534	0.090986	-0.971191	0.114014	0.418457	0.092374	0.011317	0.009602	0.080358	-0.675658	-0.093704	-0.726807	21.698679	-85.715646	172.451040
31116		8.635978	1.149261	0.872920	0.484362	-0.821015	-1.108997	-0.464136	0.007149	0.078343	-0.962158	0.109863	0.414307	0.086356	0.011547	0.008699	0.079077	-0.675917	-0.091788	-0.726952	20.929670	-85.737400	172.958793
31117		7.825854	1.155458	0.838209	0.508064	-0.853312	-1.919945	-0.341751	0.037632	0.061151	-0.966553	0.107422	0.412109	0.078257	0.011593	0.008348	0.078163	-0.675943	-0.090322	-0.727209	20.188921	-85.729737	173.505224
31118		7.120667	0.780967	0.859266	0.487720	-0.495702	-2.631563	-0.198972	0.074630	-0.005840	-0.968506	0.105225	0.412354	0.071210	0.007816	0.008558	0.077495	-0.675797	-0.089637	-0.727501	20.007488	-85.695515	173.576312
31119		6.605681	0.418550	0.900243	0.473913	-0.139584	-3.151114	-0.121826	0.108549	-0.045732	-0.972900	0.102783	0.412598	0.066063	0.004176	0.008964	0.076968	-0.675430	-0.089304	-0.727939	19.978414	-85.628339	173.535445
31120		6.167195	0.158990	1.030796	0.566614	0.140258	-3.585217	-0.085739	0.104514	-0.040123	-0.968750	0.109619	0.407471	0.061678	0.001582	0.010275	0.076557	-0.675109	-0.089130	-0.728301	20.031246	-85.570082	173.435125
31121		5.852006	0.095438	0.965053	0.507221	0.182879	-3.905430	-0.140629	0.061647	-0.001816	-0.966553	0.109619	0.407471	0.058523	0.000961	0.009632	0.076105	-0.674939	-0.088598	-0.728571	19.805161	-85.536753	173.581051
31122		5.581291	-0.117086	0.833169	0.349583	0.354177	-4.190318	-0.181430	0.036901	0.038053	-0.968506	0.105225	0.412354	0.055815	-0.001153	0.008322	0.075668	-0.674924	-0.087863	-0.728719	19.418253	-85.529348	173.872279
31123		5.226529	-0.220506	0.771564	0.293084	0.433435	-4.550865	-0.187022	0.029693	0.055341	-0.964111	0.105225	0.401123	0.052267	-0.002183	0.007710	0.075253	-0.674912	-0.086982	-0.728879	18.853593	-85.523908	174.331157
31124		5.044212	-0.246419	0.732039	0.264509	0.443997	-4.735919	-0.181648	-0.014170	0.077990	-0.966309	0.105225	0.405518	0.050443	-0.002438	0.007326	0.074916	-0.675099	-0.086108	-0.728844	18.307100	-85.550595	174.778688
31125		5.007194	-0.187559	0.760830	0.312152	0.387476	-4.769033	-0.169580	-0.058931	0.112545	-0.973389	0.109619	0.405273	0.050071	-0.001841	0.007625	0.074730	-0.675427	-0.085131	-0.728675	17.547830	-85.602808	175.442750
31126		5.113457	-0.188668	0.868730	0.414955	0.407429	-4.655213	-0.120793	-0.101486	0.141004	-0.971191	0.111816	0.400635	0.051131	-0.001845	0.008714	0.074800	-0.675930	-0.084298	-0.728298	16.743811	-85.686490	176.184170
31127		5.478564	-0.026584	1.072994	0.629486	0.290454	-4.273188	-0.086862	-0.103659	0.123922	-0.975342	0.107422	0.412109	0.054780	-0.000227	0.010758	0.074916	-0.676393	-0.083599	-0.727936	16.003207	-85.763726	176.876910
31128		5.738748	0.008656	1.224385	0.772705	0.284394	-4.002829	-0.033230	-0.084085	0.146920	-0.975586	0.111816	0.403076	0.057382	0.000131	0.012268	0.075312	-0.676796	-0.083055	-0.727583	15.101506	-85.836332	177.766217
31129		5.846651	-0.037833	1.365553	0.897995	0.353511	-3.886633	0.053508	-0.060955	0.172364	-0.967041	0.118652	0.409180	0.058463	-0.000332	0.013673	0.076097	-0.677070	-0.082687	-0.727288	13.926912	-85.895126	178.974590
31130		6.068658	-0.049656	1.567398	1.081777	0.402604	-3.651886	0.139960	-0.067609	0.186551	-0.966797	0.116455	0.402588	0.060682	-0.000451	0.015694	0.077247	-0.677354	-0.082638	-0.726908	12.704659	-85.960198	-179.713529
31131		6.293893	0.029660	1.601832	1.122869	0.324792	-3.424143	0.185381	-0.050988	0.194981	-0.971436	0.120850	0.404541	0.062935	0.000343	0.016035	0.078564	-0.677549	-0.082669	-0.726582	11.336449	-86.012263	-178.235500
31132		6.707447	0.142206	1.765030	1.283486	0.243213	-2.999546	0.249101	-0.039822	0.206366	-0.964844	0.120850	0.404541	0.067069	0.001469	0.017665	0.080162	-0.677685	-0.082933	-0.726250	9.892319	-86.057612	-176.639635
31133		7.288367	0.400062	1.793301	1.335612	-0.012834	-2.415915	0.287178	-0.030340	0.219994	-0.969482	0.125244	0.406738	0.072877	0.004055	0.017950	0.081923	-0.677771	-0.083241	-0.725938	8.278050	-86.094892	-174.856668
31134		7.748428	0.711134	1.752602	1.342915	-0.338131	-1.957900	0.311600	-0.007363	0.237717	-0.967529	0.132080	0.406250	0.077475	0.007176	0.017540	0.083846	-0.677768	-0.083604	-0.725679	6.514611	-86.117074	-172.906602
31135		8.435523	1.019682	1.816713	1.436951	-0.642538	-1.267482	0.330308	0.026360	0.265675	-0.969727	0.131836	0.406250	0.084344	0.010279	0.018173	0.085942	-0.677645	-0.083889	-0.725516	4.445832	-86.116767	-170.643397
31136		9.278890	1.167401	1.913582	1.513139	-0.789119	-0.420665	0.327571	0.071350	0.274739	-0.970215	0.143066	0.405518	0.092780	0.011770	0.019122	0.088098	-0.677350	-0.084166	-0.725501	2.332224	-86.084612	-168.330990
31137		9.787187	1.227457	2.156193	1.729935	-0.817249	0.101153	0.346239	0.095973	0.310410	-0.963623	0.145508	0.407715	0.097863	0.012389	0.021536	0.090438	-0.676979	-0.084326	-0.725541	-0.070803	-86.033298	-165.723439
31138		10.458147	1.343967	2.392279	1.942784	-0.910513	0.784414	0.330613	0.104677	0.372179	-0.968506	0.154297	0.398193	0.104569	0.013595	0.023890	0.092998	-0.676587	-0.084297	-0.725586	-2.862244	-85.966685	-162.724920
31139		10.665392	1.649860	2.924859	2.518256	-1.114534	1.024448	0.225569	0.168469	0.410604	-0.964111	0.158691	0.397949	0.106644	0.016685	0.029178	0.095323	-0.676043	-0.083646	-0.725867	-5.914695	-85.852538	-159.535126
31140		11.164964	1.463728	2.895110	2.398309	-0.997492	1.520162	0.076558	0.250397	0.411930	-0.966553	0.160889	0.393311	0.111655	0.014856	0.028817	0.097253	-0.675222	-0.082527	-0.726503	-8.712901	-85.675804	-156.669798
31141		11.402528	2.120054	2.857317	2.494664	-1.701916	1.743972	0.063760	0.294889	0.455018	-0.968994	0.167480	0.386230	0.114019	0.021451	0.028412	0.099244	-0.674306	-0.081077	-0.727247	-11.608345	-85.463533	-153.729058
31142		11.834290	2.144886	2.790320	2.386211	-1.814855	2.164324	0.108424	0.299032	0.487303	-0.969238	0.171875	0.388184	0.118332	0.021722	0.027738	0.101570	-0.673294	-0.079822	-0.728002	-14.303619	-85.228330	-150.945076
31143		12.082470	2.032853	3.289406	2.805919	-1.648306	2.448977	0.299447	0.263500	0.495077	-0.967285	0.180908	0.380859	0.120817	0.020578	0.032766	0.104486	-0.672378	-0.079109	-0.728513	-16.859958	-85.006701	-148.207249
31144		11.723149	1.747219	3.795551	3.229290	-1.273171	2.138954	0.331819	0.295423	0.428471	-0.967529	0.187500	0.380371	0.117250	0.017661	0.037812	0.107362	-0.671219	-0.078903	-0.729186	-18.572542	-84.765632	-146.274846
31145		11.270944	1.291130	3.468996	2.806301	-0.937010	1.675637	0.185106	0.355974	0.330585	-0.971924	0.185303	0.373779	0.112749	0.013066	0.034501	0.109330	-0.669951	-0.078275	-0.730127	-19.664893	-84.510899	-145.071180
31146		13.188631	1.512159	2.957242	2.195624	-1.427338	3.533235	-0.018886	0.227790	0.274328	-0.965332	0.189941	0.373535	0.131899	0.015305	0.029421	0.110440	-0.669141	-0.077364	-0.730800	-20.570597	-84.328116	-144.148055
31147		14.117422	1.641572	2.524527	1.725833	-1.757908	4.410560	-0.087189	0.112238	0.207796	-0.965332	0.189697	0.369141	0.141171	0.016573	0.025159	0.110953	-0.668860	-0.076286	-0.731093	-21.501909	-84.225360	-143.262286
31148		12.623091	0.969122	2.031706	1.171503	-1.178917	2.901361	-0.051832	0.314196	0.172544	-0.963623	0.198730	0.368408	0.126254	0.009805	0.020116	0.111608	-0.667702	-0.075568	-0.732125	-21.607795	-84.015924	-143.160104
31149		11.063496	0.241896	0.088790	-0.783174	-0.912521	1.188277	-0.215645	0.211600	0.145056	-0.963379	0.194336	0.366455	0.110634	0.002500	0.000768	0.111500	-0.667103	-0.074175	-0.732830	-22.036332	-83.872473	-142.853412
31150		11.436242	-0.220336	-1.735691	-2.695726	-0.971890	1.396116	-0.401208	-0.087450	0.103852	-0.965576	0.194336	0.364258	0.114371	-0.002179	-0.017303	0.110622	-0.667585	-0.072654	-0.732676	-22.798329	-83.891179	-142.287951
31151		11.594041	-1.241928	-2.718112	-3.895373	-0.235867	1.506438	-0.507549	-0.300440	0.005802	-0.965332	0.189697	0.364502	0.115981	-0.012485	-0.026975	0.108841	-0.668966	-0.070940	-0.731851	-23.764451	-84.047971	-141.608872
31152		12.122202	-2.750919	-4.179676	-5.685004	0.860051	1.973978	-0.493185	-0.501675	-0.114371	-0.965332	0.187500	0.373779	0.121310	-0.027681	-0.041424	0.106677	-0.670936	-0.070024	-0.730453	-24.439606	-84.333945	-141.187379
31153		13.907747	-4.250980	-4.082498	-6.025872	2.286282	3.848337	-0.442064	-0.657652	-0.219132	-0.969727	0.183105	0.380615	0.139164	-0.042752	-0.040273	0.104164	-0.673492	-0.069494	-0.728512	-25.155400	-84.728634	-140.722749
31154		14.863062	-5.593489	-3.118065	-5.398608	3.833817	4.954702	-0.299517	-0.635807	-0.207057	-0.974121	0.185303	0.385010	0.148671	-0.056135	-0.030624	0.102240	-0.675841	-0.069616	-0.726595	-25.745612	-85.109740	-140.281881
31155		13.133494	-5.538272	-2.881858	-4.971996	3.981958	3.259773	-0.111628	-0.355039	-0.165651	-0.974121	0.180908	0.387695	0.131340	-0.055507	-0.028554	0.101138	-0.677129	-0.069951	-0.725516	-25.848679	-85.334152	-140.242626
31156		12.780830	-4.358338	-3.163913	-4.898164	2.812601	2.854285	-0.163375	-0.261215	0.019400	-0.976318	0.183105	0.391846	0.127854	-0.043597	-0.031437	0.100633	-0.678136	-0.069537	-0.724686	-26.826877	-85.462789	-139.340094
31157		13.899464	-2.817644	-3.030292	-4.429079	1.299152	3.935485	-0.431041	-0.169329	0.134412	-0.983154	0.182861	0.392090	0.139039	-0.028148	-0.030125	0.099601	-0.679011	-0.067604	-0.724191	-28.511315	-85.512889	-137.898140
31158		13.809991	-1.566012	-2.675145	-3.762627	0.170625	3.830559	-0.437390	0.004482	0.114939	-0.980713	0.180664	0.389893	0.138108	-0.015639	-0.026720	0.098601	-0.679248	-0.065699	-0.724281	-29.475271	-85.479772	-137.171184
31159		13.658751	-1.206226	-2.341554	-3.342431	-0.098592	3.689822	-0.160325	0.014836	0.067347	-0.976318	0.180908	0.392090	0.136590	-0.012035	-0.023416	0.098306	-0.679296	-0.064882	-0.724350	-29.938800	-85.453178	-136.798324
31160		13.387500	-1.808307	-2.175457	-3.307888	0.533284	3.453858	0.221186	0.056014	-0.008768	-0.974121	0.183105	0.383057	0.133868	-0.018065	-0.021812	0.099104	-0.679003	-0.065750	-0.724438	-29.582847	-85.431811	-137.018140
31161		12.758888	-2.104951	-1.537000	-2.735903	0.995651	2.880062	0.480542	0.091842	-0.038407	-0.976563	0.187500	0.378174	0.127578	-0.021037	-0.015479	0.100627	-0.678418	-0.067575	-0.724608	-28.750246	-85.396489	-137.577174
31162		12.616459	-2.108270	-1.048815	-2.273035	1.113702	2.769554	0.530913	0.061879	-0.034752	-0.969727	0.187500	0.378174	0.126158	-0.021077	-0.010583	0.102417	-0.677943	-0.069643	-0.724606	-28.088347	-85.378287	-137.923897
31163		12.396087	-1.775884	-0.835516	-1.987837	0.849782	2.550208	0.618025	0.016932	-0.035426	-0.969727	0.183105	0.369385	0.123957	-0.017755	-0.008421	0.104390	-0.677550	-0.071992	-0.724463	-27.458231	-85.379052	-138.200772
31164		12.192036	-1.580568	-0.470621	-1.585347	0.759495	2.364145	0.728623	0.012333	-0.064184	-0.969971	0.189697	0.377930	0.121915	-0.015827	-0.004771	0.106703	-0.677150	-0.074883	-0.724206	-26.683721	-85.395994	-138.549913
31165		11.641660	-1.650302	-0.163959	-1.290384	0.937647	1.837820	0.743709	0.036053	-0.109140	-0.965576	0.194336	0.373291	0.116407	-0.016560	-0.001722	0.108840	-0.676577	-0.077925	-0.724103	-25.448781	-85.404808	-139.361310
31166		11.011979	-1.778484	0.063433	-1.083937	1.160561	1.228546	0.712887	0.044968	-0.122649	-0.965820	0.198730	0.370850	0.110109	-0.017854	0.000546	0.110915	-0.676057	-0.080931	-0.723944	-24.248601	-85.420686	-140.145787
31167		10.527506	-1.502393	0.516710	-0.559798	1.051307	0.767195	0.641763	-0.023440	-0.108158	-0.970215	0.198730	0.368408	0.105266	-0.015097	0.005131	0.112684	-0.675738	-0.083632	-0.723661	-23.240180	-85.457845	-140.788494
31168		10.416203	-1.189075	0.379531	-0.603030	0.729034	0.635282	0.525594	-0.051147	-0.091629	-0.963379	0.196533	0.373047	0.104156	-0.011948	0.003791	0.114220	-0.675662	-0.085900	-0.723226	-22.629018	-85.513375	-141.088383
31169		10.100092	-0.931631	0.635869	-0.268318	0.578797	0.330149	0.541444	-0.065390	-0.050701	-0.961182	0.196533	0.375244	0.100996	-0.009359	0.006366	0.115839	-0.675565	-0.088065	-0.722798	-22.160631	-85.559006	-141.246974
31170		9.597114	-0.625765	0.692324	-0.095381	0.332258	-0.176505	0.472615	-0.016527	-0.013895	-0.954346	0.194580	0.382080	0.095970	-0.006281	0.006916	0.117451	-0.675439	-0.089843	-0.722437	-21.996836	-85.582256	-141.133077
31171		8.677069	-0.948818	0.847989	0.007869	0.734722	-1.073638	0.490360	0.047188	-0.035526	-0.945313	0.192627	0.382324	0.086771	-0.009524	0.008436	0.119002	-0.674963	-0.091705	-0.722394	-21.345955	-85.564599	-141.504060
31172		7.926284	-1.213117	0.897527	0.013725	1.043410	-1.811795	0.560889	0.037722	-0.065960	-0.947510	0.190186	0.389160	0.079261	-0.012182	0.008926	0.120700	-0.674585	-0.093920	-0.722181	-20.629010	-85.573779	-141.900066
31173		7.255511	-0.994189	0.964708	0.172016	0.894122	-2.482445	0.500684	0.059843	-0.088883	-0.938477	0.190430	0.391357	0.072554	-0.009998	0.009600	0.122097	-0.674024	-0.095990	-0.722198	-19.577074	-85.559096	-142.667387
31174		6.622438	-0.848448	0.902982	0.188249	0.773298	-3.122509	0.357830	0.074498	-0.078778	-0.935791	0.181641	0.396240	0.066224	-0.008527	0.008990	0.123030	-0.673638	-0.097452	-0.722204	-18.797879	-85.551251	-143.249997
31175		6.047382	-0.703993	0.792935	0.156211	0.634524	-3.707923	0.340830	0.023766	-0.074008	-0.936279	0.192871	0.404541	0.060472	-0.007076	0.007910	0.123924	-0.673307	-0.098916	-0.722161	-18.034159	-85.551812	-143.820130
31176		5.981289	-0.348719	0.722227	0.199970	0.282716	-3.787812	0.324353	0.062360	-0.054520	-0.933838	0.188477	0.398193	0.059814	-0.003515	0.007198	0.124788	-0.672970	-0.100120	-0.722160	-17.474674	-85.539964	-144.209636
31177		5.818814	-0.152351	0.575553	0.126767	0.059972	-3.965175	0.326654	0.095254	-0.007898	-0.938477	0.190430	0.400391	0.058191	-0.001535	0.005725	0.125908	-0.672419	-0.101266	-0.722319	-17.030259	-85.489314	-144.467667
31178		5.269043	0.198969	0.661574	0.351647	-0.221356	-4.514817	0.272133	0.062691	0.029741	-0.934082	0.195068	0.395508	0.052692	0.001989	0.006602	0.126905	-0.672128	-0.101986	-0.722314	-17.084751	-85.458624	-144.271813
31179		4.779499	0.302397	0.720265	0.471986	-0.278054	-5.000853	0.250573	-0.050588	0.047114	-0.936523	0.199463	0.395264	0.047792	0.003026	0.007219	0.127893	-0.672177	-0.102763	-0.721984	-17.379176	-85.478456	-143.832435
31180		5.036378	0.409575	0.665921	0.442913	-0.408200	-4.751709	0.203925	-0.044187	0.017311	-0.938965	0.199463	0.397461	0.050362	0.004093	0.006675	0.128592	-0.672298	-0.103374	-0.721661	-17.612643	-85.507343	-143.491529
31181		5.239879	0.466668	0.636428	0.421919	-0.479764	-4.552368	0.172567	0.016946	-0.007609	-0.934570	0.203857	0.397217	0.052400	0.004659	0.006364	0.129155	-0.672123	-0.104010	-0.721631	-17.428317	-85.499553	-143.577234
31182		4.941069	0.283944	0.779177	0.515972	-0.245471	-4.835196	0.166843	0.015079	-0.025359	-0.932129	0.197266	0.402100	0.049412	0.002827	0.007790	0.129613	-0.672025	-0.104607	-0.721554	-17.247690	-85.503168	-143.671147
31183		4.872548	0.099417	0.928188	0.599257	-0.016834	-4.887878	0.114243	0.001812	-0.046436	-0.934570	0.203857	0.392822	0.048726	0.000978	0.009282	0.129832	-0.671922	-0.105173	-0.721528	-16.859448	-85.510151	-143.994918
31184		4.927255	-0.094099	0.928917	0.533561	0.166667	-4.829002	0.024232	-0.033576	-0.062803	-0.936523	0.197266	0.395508	0.049271	-0.000958	0.009297	0.129642	-0.672069	-0.105410	-0.721391	-16.590508	-85.546154	-144.260190
31185		5.059703	-0.329045	0.933720	0.454103	0.388837	-4.691820	-0.083888	-0.081264	-0.108355	-0.936768	0.203857	0.401611	0.050591	-0.003314	0.009359	0.128928	-0.672362	-0.105523	-0.721230	-16.042323	-85.608473	-144.858213
31186		5.457701	-0.667905	0.770547	0.168762	0.645492	-4.300774	-0.167527	-0.104794	-0.159364	-0.941406	0.203857	0.397217	0.054568	-0.006716	0.007740	0.127710	-0.672833	-0.105440	-0.721019	-15.308774	-85.697675	-145.699230
31187		5.744645	-0.931221	0.661770	-0.034268	0.857438	-4.018753	-0.165258	-0.072879	-0.197118	-0.943359	0.197021	0.393311	0.057435	-0.009363	0.006646	0.126407	-0.673099	-0.105553	-0.720984	-14.086720	-85.766939	-147.019624
31188		5.750781	-0.846229	0.623811	-0.040792	0.776402	-4.018531	-0.233473	-0.032860	-0.237745	-0.945557	0.201416	0.390625	0.057497	-0.008523	0.006257	0.124747	-0.673302	-0.105463	-0.721097	-12.598530	-85.822969	-148.651952
31189		6.284583	-0.853408	0.468897	-0.223553	0.728096	-3.498890	-0.330658	-0.011229	-0.282795	-0.945313	0.192627	0.395752	0.062833	-0.008615	0.004707	0.122610	-0.673400	-0.105228	-0.721406	-10.627655	-85.862141	-150.817973
31190		7.160154	-0.787213	0.665594	-0.072359	0.714962	-2.614487	-0.422023	-0.011543	-0.325220	-0.947266	0.183594	0.396240	0.071588	-0.007974	0.006677	0.120029	-0.673587	-0.104747	-0.721735	-8.458675	-85.905950	-153.238699
31191		8.183946	-0.883744	0.632461	-0.202641	0.788258	-1.597123	-0.451473	-0.009662	-0.389024	-0.949219	0.179199	0.394287	0.081822	-0.008982	0.006349	0.117101	-0.673689	-0.104431	-0.722167	-5.628806	-85.939077	-156.335071
31192		8.878754	-1.076228	1.141030	0.168588	1.138292	-0.870190	-0.391170	0.068429	-0.436735	-0.946777	0.172607	0.396973	0.088768	-0.010934	0.011401	0.114229	-0.673504	-0.104358	-0.722809	-2.423257	-85.924791	-159.782314
31193		9.362687	-1.278164	1.847643	0.729987	1.566622	-0.340618	-0.296120	0.134283	-0.459008	-0.950928	0.165771	0.395020	0.093610	-0.012969	0.018433	0.111644	-0.672949	-0.104755	-0.723673	1.073145	-85.851261	-163.457830
31194		9.713350	-1.693638	2.305316	0.993882	2.125342	0.037543	-0.211136	0.200167	-0.456818	-0.955078	0.156738	0.397949	0.097118	-0.017134	0.022974	0.109364	-0.672164	-0.105305	-0.724670	4.316539	-85.731860	-166.842493
31195		9.802282	-2.104906	2.496510	1.014430	2.604138	0.134028	-0.131589	0.296400	-0.422385	-0.957275	0.158936	0.400146	0.098015	-0.021240	0.024834	0.107549	-0.670940	-0.106084	-0.725961	7.169251	-85.539003	-169.779105
31196		9.984403	-2.291206	2.782525	1.182314	2.890180	0.332715	-0.125741	0.313594	-0.394429	-0.954590	0.147705	0.396240	0.099842	-0.023092	0.027683	0.105817	-0.669721	-0.106631	-0.727260	9.457586	-85.335913	-172.163441
31197		10.381154	-2.723267	2.909447	1.105414	3.363906	0.728254	-0.162457	0.304811	-0.429789	-0.952148	0.143311	0.389648	0.103797	-0.027432	0.028959	0.103874	-0.668469	-0.107316	-0.728589	11.872313	-85.119098	-174.679966
31198		10.685877	-2.753218	3.089346	1.205293	3.471012	1.041407	-0.184535	0.335935	-0.439200	-0.960693	0.132080	0.388184	0.106850	-0.027738	0.030740	0.101769	-0.667160	-0.107739	-0.730022	13.953026	-84.881782	-176.897084
31199		11.079955	-2.776561	3.314213	1.336300	3.584703	1.448872	-0.178408	0.336870	-0.373753	-0.960449	0.123047	0.388672	0.110803	-0.027943	0.032980	0.099993	-0.665821	-0.108160	-0.731427	15.569716	-84.641020	-178.623204
31200		11.952426	-2.839613	3.341435	1.221737	3.667766	2.317594	-0.189003	0.379458	-0.291420	-0.962158	0.114014	0.386963	0.119546	-0.028539	0.033214	0.098376	-0.664424	-0.107980	-0.732941	16.379353	-84.391689	-179.578475
31201		14.977787	-2.899771	3.722530	1.232737	3.847566	5.362177	-0.297849	0.234953	-0.217349	-0.964600	0.116211	0.386963	0.149790	-0.029105	0.037093	0.096719	-0.663594	-0.107492	-0.733985	17.014563	-84.227451	179.611658
31202		16.074433	-1.845983	3.367363	1.058200	2.744154	6.450275	-0.272286	0.166738	-0.172740	-0.971191	0.111816	0.382813	0.160756	-0.018553	0.033565	0.095102	-0.663078	-0.106647	-0.734786	17.358095	-84.112196	179.067121
31203		13.859875	-0.633970	3.449906	1.675598	1.610070	4.294044	-0.197835	0.218999	-0.156789	-0.970947	0.109375	0.382813	0.138631	-0.006414	0.034354	0.093990	-0.662285	-0.106333	-0.735688	17.700144	-83.965987	178.609225
31204		13.747305	-1.080729	1.814653	-0.018181	1.592348	4.004453	0.081814	0.017225	-0.213873	-0.975342	0.107178	0.387451	0.137463	-0.010962	0.018130	0.093323	-0.662116	-0.106982	-0.735831	18.651099	-83.922475	177.657145
31205		14.272991	-1.148271	0.079513	-1.750928	1.206808	4.347850	0.157480	-0.138414	-0.264691	-0.975342	0.107178	0.385254	0.142714	-0.011672	0.000885	0.092799	-0.662412	-0.108499	-0.735409	20.332820	-83.947147	176.056669
31206		13.629858	-0.491791	-1.516834	-3.005234	0.158272	3.576078	0.323021	-0.267662	-0.237994	-0.970703	0.100586	0.392334	0.136313	-0.005056	-0.014994	0.092684	-0.663171	-0.110230	-0.734481	22.084059	-84.046818	174.437104
31207		13.043840	1.089831	-2.301549	-3.212839	-1.559741	2.988536	0.457389	-0.319270	-0.122665	-0.979492	0.095947	0.397217	0.130482	0.010871	-0.022782	0.093576	-0.664064	-0.112461	-0.733222	23.661633	-84.188594	173.114598
31208		13.073172	2.571169	-2.900904	-3.314560	-3.141038	3.035709	0.476236	-0.327109	0.004575	-0.977539	0.102783	0.392334	0.130778	0.025783	-0.028734	0.094787	-0.665119	-0.113956	-0.731879	24.518745	-84.369709	172.478123
31209		13.142600	3.628725	-3.062928	-3.108496	-4.204561	3.146312	0.491127	-0.305162	0.132696	-0.979980	0.107178	0.398682	0.131448	0.036449	-0.030339	0.096735	-0.666078	-0.115453	-0.730515	24.837133	-84.560892	172.440912
31210		13.013269	4.089136	-2.922889	-2.767615	-4.624335	3.054519	0.603627	-0.174828	0.174869	-0.978027	0.115967	0.386963	0.130122	0.041093	-0.028991	0.099127	-0.666608	-0.116841	-0.729490	24.526208	-84.704576	173.060982
31211		12.422623	4.203890	-2.605769	-2.330801	-4.667877	2.498382	0.619972	-0.014434	0.132596	-0.984863	0.120361	0.393555	0.124200	0.042202	-0.025918	0.101671	-0.666431	-0.118663	-0.729008	24.164939	-84.744008	173.780465
31212		12.356046	3.735894	-2.186982	-2.042944	-4.113394	2.447737	0.524734	0.046917	0.056803	-0.980469	0.120605	0.395752	0.123545	0.037451	-0.021801	0.103558	-0.666111	-0.120135	-0.728793	23.924437	-84.744572	174.296814
31213		12.607807	2.625911	-1.724122	-1.958652	-2.923550	2.694963	0.461211	0.046754	0.032502	-0.987549	0.129150	0.390869	0.126070	0.026319	-0.017210	0.105243	-0.665723	-0.121680	-0.728650	23.882032	-84.728221	174.604717
31214		12.464976	1.396664	-1.021688	-1.664296	-1.547935	2.564879	0.368400	0.099261	0.055856	-0.976563	0.131592	0.383789	0.124641	0.014020	-0.010253	0.106642	-0.665302	-0.122598	-0.728677	23.470565	-84.702628	175.206855
31215		12.290211	0.619000	-0.857136	-1.747464	-0.777509	2.373737	0.323237	0.157988	0.122372	-0.980957	0.133789	0.376953	0.122891	0.006279	-0.008658	0.108263	-0.664631	-0.123281	-0.728935	22.579426	-84.647354	176.287802
31216		12.366262	1.062177	-0.655860	-1.431456	-1.157872	2.479302	0.144898	0.187483	0.178189	-0.981201	0.140381	0.376465	0.123647	0.010737	-0.006667	0.109458	-0.664073	-0.122966	-0.729319	21.167141	-84.599072	177.772865
31217		12.512162	2.030105	-0.519247	-1.016389	-2.058217	2.664322	-0.228322	0.140821	0.206907	-0.976807	0.138428	0.374512	0.125097	0.020424	-0.005304	0.109544	-0.663814	-0.121366	-0.729810	19.563886	-84.565301	179.251845
31218		12.501821	2.414690	-0.278814	-0.673382	-2.374809	2.681741	-0.421324	0.058077	0.194621	-0.974854	0.145020	0.374023	0.124994	0.024263	-0.002875	0.108857	-0.664047	-0.119029	-0.730085	18.039821	-84.583929	-179.472820
31219		12.077137	2.074868	0.017427	-0.467524	-1.981108	2.271153	-0.300399	0.028912	0.134471	-0.977051	0.147217	0.371582	0.120757	0.020830	0.000126	0.108371	-0.664188	-0.117466	-0.730282	17.034630	-84.591970	-178.636076
31220		11.580397	1.846779	0.563203	0.024713	-1.609720	1.816653	-0.317769	-0.016066	0.118185	-0.974854	0.149414	0.369385	0.115793	0.018545	0.005612	0.107746	-0.664582	-0.115837	-0.730276	16.128144	-84.634709	-177.915086
31221		11.422783	1.395730	0.597347	-0.065870	-1.186160	1.649142	-0.484811	-0.048364	0.119377	-0.981689	0.149414	0.371582	0.114218	0.014040	0.005967	0.106546	-0.665091	-0.113692	-0.730326	15.220797	-84.680501	-177.282826
31222		11.118560	1.063372	0.293000	-0.421836	-0.980558	1.309341	-0.538455	-0.027505	0.149634	-0.972900	0.154053	0.371338	0.111177	0.010725	0.002917	0.105323	-0.665639	-0.111183	-0.730390	13.986789	-84.730001	-176.355666
31223		10.535663	1.309807	0.520975	-0.076120	-1.163167	0.752747	-0.576576	-0.004495	0.168471	-0.979736	0.153809	0.375732	0.105345	0.013202	0.005174	0.104019	-0.666054	-0.108514	-0.730601	12.636001	-84.755362	-175.330970
31224		10.074107	0.882711	0.076510	-0.578362	-0.905751	0.243044	-0.537713	-0.035533	0.188352	-0.975098	0.151855	0.387207	0.100733	0.008924	0.000759	0.102974	-0.666649	-0.105895	-0.730590	11.117807	-84.811758	-174.113813
31225		9.722769	0.923653	0.223695	-0.389801	-0.917201	-0.094551	-0.252384	-0.015053	0.185410	-0.968262	0.149658	0.391602	0.097219	0.009329	0.002233	0.102806	-0.666935	-0.104359	-0.730574	9.830003	-84.840179	-172.965972
31226		9.081366	1.217693	0.730644	0.244953	-1.062060	-0.685814	-0.270760	-0.044500	0.168321	-0.965820	0.147461	0.394043	0.090802	0.012263	0.007310	0.102525	-0.667480	-0.102805	-0.730335	8.611475	-84.905236	-171.898293
31227		8.663440	0.757440	0.866885	0.287664	-0.592538	-1.097957	-0.347147	-0.090830	0.162628	-0.963867	0.152100	0.400391	0.086624	0.007660	0.008695	0.101917	-0.668077	-0.101036	-0.730122	7.445544	-84.970458	-170.927510
31228		8.495714	0.856480	0.745784	0.223783	-0.733153	-1.275750	-0.358121	0.000570	0.117852	-0.959473	0.154297	0.398193	0.084952	0.008628	0.007442	0.101154	-0.668480	-0.099322	-0.730094	6.453737	-85.003736	-170.138973
31229		7.338342	0.994797	0.891455	0.497775	-0.819144	-2.415607	-0.371786	0.086301	0.049186	-0.959229	0.147705	0.398438	0.073385	0.009983	0.008864	0.100138	-0.668381	-0.097752	-0.730536	5.853452	-84.958327	-169.750255
31230		6.788522	1.045282	0.809625	0.475348	-0.889993	-2.970605	-0.427317	0.078396	0.021534	-0.952393	0.150146	0.400635	0.067887	0.010477	0.008047	0.098835	-0.668437	-0.096072	-0.730885	5.395490	-84.933349	-169.536429
31231		6.180887	0.698387	0.627257	0.252450	-0.600580	-3.594961	-0.330287	0.040199	-0.036606	-0.949951	0.143311	0.396484	0.061811	0.006983	0.006249	0.097621	-0.668440	-0.094963	-0.731191	5.408837	-84.909216	-169.739855
31232		5.721595	0.371554	0.711539	0.282619	-0.255148	-4.047619	-0.220302	0.032728	-0.081044	-0.952148	0.143311	0.403320	0.057219	0.003700	0.007102	0.096601	-0.668484	-0.094411	-0.731357	5.775552	-84.900697	-170.235175
31233		5.382548	0.252713	0.884720	0.444431	-0.086359	-4.370864	-0.230613	-0.006504	-0.109806	-0.949951	0.143555	0.403076	0.053827	0.002508	0.008846	0.095430	-0.668572	-0.093934	-0.731492	6.340960	-84.898574	-170.935528
31234		5.129593	0.185322	0.847823	0.414460	-0.023616	-4.626789	-0.273570	-0.050827	-0.114106	-0.958984	0.143311	0.398682	0.051295	0.001836	0.008489	0.094065	-0.668922	-0.093336	-0.731426	6.953893	-84.933390	-171.709243
31235		5.002317	0.080031	0.697973	0.256668	0.044228	-4.767996	-0.318141	-0.105856	-0.100414	-0.958984	0.143311	0.403320	0.050020	0.000786	0.007005	0.092589	-0.669416	-0.092554	-0.731261	7.497627	-84.987177	-172.438118
31236		5.135353	0.123586	0.724139	0.289086	0.011515	-4.633132	-0.313618	-0.186638	-0.073617	-0.958740	0.138916	0.398926	0.051347	0.001228	0.007287	0.091196	-0.670287	-0.091752	-0.730740	7.966368	-85.099850	-173.087073
31237		5.286780	0.303978	0.844182	0.449051	-0.130623	-4.470744	-0.259400	-0.265280	-0.019084	-0.965576	0.138672	0.407959	0.052857	0.003046	0.008508	0.090139	-0.671370	-0.090984	-0.729972	8.191122	-85.249685	-173.461822
31238		5.496483	0.327603	1.015398	0.618957	-0.110685	-4.249028	-0.148476	-0.300278	0.050288	-0.960938	0.138672	0.401367	0.054949	0.003297	0.010234	0.089698	-0.672630	-0.090422	-0.728936	8.059742	-85.436001	-173.413533
31239		5.563061	0.388284	1.283205	0.904321	-0.102688	-4.163204	-0.050003	-0.294291	0.073253	-0.958984	0.143311	0.400879	0.055610	0.003906	0.012913	0.089667	-0.673763	-0.090121	-0.727930	7.788536	-85.609701	-173.170276
31240		5.771702	0.223609	1.500421	1.075682	0.109497	-3.943727	0.011943	-0.313826	0.085915	-0.968262	0.147461	0.398438	0.057692	0.002260	0.015095	0.089910	-0.675002	-0.090042	-0.726761	7.462099	-85.805076	-172.831353
31241		6.312129	-0.050384	1.394676	0.883942	0.343084	-3.418038	0.123046	-0.274294	0.094750	-0.959229	0.152100	0.402588	0.063102	-0.000483	0.014033	0.090550	-0.675991	-0.090289	-0.725731	7.050305	-85.968752	-172.347854
31242		6.517390	-0.213709	1.340965	0.792213	0.485621	-3.220510	0.222458	-0.176960	0.095575	-0.966064	0.152100	0.405029	0.065163	-0.002121	0.013465	0.091636	-0.676625	-0.090899	-0.724926	6.546198	-86.085032	-171.705636
31243		6.634023	-0.348334	1.532159	0.943359	0.662585	-3.093300	0.281451	-0.100210	0.110385	-0.966064	0.152100	0.402832	0.066334	-0.003468	0.015350	0.092946	-0.676915	-0.091587	-0.724402	5.862079	-86.149868	-170.858349
31244		6.832241	-0.194971	1.765088	1.200278	0.570200	-2.879631	0.269586	-0.043758	0.134580	-0.959473	0.152344	0.409424	0.068320	-0.001928	0.017663	0.094382	-0.677059	-0.092169	-0.724009	4.885235	-86.190778	-169.716686
31245		6.985041	0.044410	1.631421	1.127142	0.296293	-2.734830	0.213533	0.003539	0.175059	-0.961914	0.158936	0.404541	0.069850	0.000488	0.016313	0.095744	-0.677031	-0.092343	-0.723833	3.490564	-86.196989	-168.196350
31246		7.390347	0.397592	1.453472	1.025815	-0.107740	-2.341144	0.183295	0.037399	0.223210	-0.964111	0.158936	0.409180	0.073902	0.004045	0.014525	0.097237	-0.676963	-0.092267	-0.723707	1.636855	-86.190368	-166.226722
31247		8.150416	0.789247	1.513303	1.140539	-0.497127	-1.578958	0.169569	0.046332	0.243560	-0.953125	0.165771	0.408691	0.081498	0.007979	0.015121	0.098717	-0.676831	-0.092030	-0.723661	-0.371366	-86.166241	-164.116687
31248		9.031869	1.128426	1.601159	1.264883	-0.835309	-0.696000	0.170120	0.017477	0.268114	-0.953125	0.165771	0.406250	0.090305	0.011392	0.016013	0.100321	-0.676859	-0.091767	-0.723448	-2.592797	-86.161166	-161.785524
31249		9.952288	1.279890	1.995655	1.634888	-0.917543	0.244847	0.179726	-0.008645	0.310952	-0.960205	0.174561	0.408203	0.099502	0.012936	0.019972	0.102054	-0.676948	-0.091365	-0.723173	-5.154927	-86.154904	-159.114449
31250		10.259205	1.298785	2.405713	2.026883	-0.860426	0.573694	0.096742	-0.002994	0.351092	-0.953857	0.179199	0.405518	0.102569	0.013156	0.024065	0.103705	-0.677108	-0.090576	-0.722887	-8.101529	-86.140348	-156.097171
31251		10.743930	1.351085	2.733048	2.334815	-0.869527	1.073977	-0.083143	0.021852	0.326188	-0.953369	0.172363	0.406006	0.107420	0.013697	0.027313	0.104617	-0.677225	-0.089156	-0.722822	-10.850520	-86.097978	-153.389641
31252		11.435085	1.660211	2.492169	2.149017	-1.294310	1.738706	-0.113193	0.116826	0.364578	-0.956055	0.181152	0.405518	0.114335	0.016825	0.024845	0.105649	-0.677049	-0.087508	-0.723039	-13.671916	-85.993330	-150.618097
31253		11.955161	1.960616	2.625778	2.323097	-1.615452	2.256194	-0.067556	0.162988	0.401833	-0.956299	0.185791	0.400635	0.119533	0.019855	0.026154	0.106948	-0.676676	-0.085813	-0.723400	-16.500063	-85.843869	-147.821597
31254		12.215709	1.869086	2.874932	2.514922	-1.522825	2.529848	0.124522	0.208595	0.430675	-0.947510	0.190430	0.400391	0.122146	0.018936	0.028634	0.109070	-0.676048	-0.084769	-0.723794	-19.090846	-85.657923	-145.141723
31255		11.934580	1.617119	3.186673	2.752395	-1.235857	2.274534	0.227227	0.250132	0.434191	-0.942871	0.188232	0.398193	0.119350	0.016394	0.031736	0.111519	-0.675207	-0.083983	-0.724297	-21.337057	-85.438012	-142.758157
31256		11.807809	1.263138	2.949385	2.418900	-1.001196	2.139930	0.144889	0.297334	0.367030	-0.943359	0.201416	0.392822	0.118098	0.012827	0.029328	0.113499	-0.674213	-0.083188	-0.725007	-22.824917	-85.205710	-141.171859
31257		13.599227	1.243949	2.494189	1.843892	-1.247820	3.889509	-0.067155	0.175323	0.289218	-0.954590	0.198975	0.390869	0.135996	0.012644	0.024818	0.114398	-0.673741	-0.081866	-0.725454	-24.188800	-85.048019	-139.841669
31258		15.470810	1.129285	2.106656	1.317382	-1.386920	5.724368	-0.052125	-0.018656	0.234546	-0.945801	0.203613	0.390625	0.154693	0.011480	0.021078	0.115122	-0.673924	-0.080997	-0.725268	-25.629985	-85.003025	-138.412143
31259		13.862389	0.355093	1.946069	1.056442	-0.628077	4.136093	-0.004801	0.127676	0.205520	-0.948242	0.208252	0.396973	0.138633	0.003694	0.019372	0.115907	-0.673553	-0.080210	-0.725575	-26.478063	-84.886065	-137.563533
31260		12.584015	-0.492776	0.395205	-0.588683	-0.188877	2.771992	-0.146115	0.118683	0.193023	-0.957275	0.212402	0.390137	0.125847	-0.004803	0.003881	0.116220	-0.673278	-0.079071	-0.725904	-27.272919	-84.778620	-136.835566
31261		13.255695	-0.963346	-1.000336	-2.096054	-0.179682	3.348482	-0.325688	-0.064857	0.179190	-0.941406	0.206055	0.394775	0.132569	-0.009531	-0.009945	0.115753	-0.673779	-0.077320	-0.725703	-28.653221	-84.763751	-135.636894
31262		13.130226	-1.618373	-1.995989	-3.198304	0.181891	3.177448	-0.382878	-0.179222	0.134549	-0.948242	0.205811	0.397217	0.131331	-0.016133	-0.019811	0.114939	-0.674696	-0.075692	-0.725152	-30.122523	-84.818694	-134.367802
31263		12.569864	-2.656759	-3.306266	-4.663868	0.874789	2.575781	-0.300912	-0.304718	0.076199	-0.950195	0.201416	0.395264	0.125759	-0.026569	-0.032831	0.114089	-0.676007	-0.074515	-0.724186	-31.727888	-84.946434	-132.929122
31264		12.823131	-3.565482	-4.086714	-5.621085	1.547190	2.830723	-0.274913	-0.416083	0.016952	-0.948242	0.210449	0.401367	0.128319	-0.035700	-0.040551	0.113091	-0.677684	-0.073797	-0.722848	-33.423530	-85.147802	-131.375114
31265		13.500572	-4.416810	-3.885057	-5.623781	2.405370	3.583357	-0.254132	-0.512185	-0.030171	-0.955078	0.208008	0.401611	0.135098	-0.044238	-0.038448	0.111935	-0.679671	-0.073266	-0.721214	-35.417202	-85.400025	-129.520759
31266		12.680227	-4.493784	-3.454970	-5.124520	2.665792	2.818687	-0.138509	-0.392838	0.002846	-0.959473	0.208008	0.406006	0.126870	-0.044960	-0.034269	0.111406	-0.681185	-0.073054	-0.719888	-37.239361	-85.583952	-127.760173
31267		11.836721	-4.157030	-3.505141	-5.002845	2.394831	1.973367	-0.095642	-0.268184	-0.011326	-0.959473	0.210205	0.403809	0.118412	-0.041594	-0.034873	0.110946	-0.682205	-0.072894	-0.719009	-38.481189	-85.709524	-126.569710
31268		11.878804	-3.303248	-3.125685	-4.386808	1.674571	2.008438	-0.123304	-0.204376	0.034923	-0.964111	0.210205	0.408203	0.118826	-0.033031	-0.031115	0.110656	-0.683044	-0.072499	-0.718297	-39.818762	-85.789660	-125.288541
31269		12.272403	-2.292365	-3.193012	-4.185976	0.663457	2.356929	-0.191994	-0.099460	0.049395	-0.962158	0.216797	0.407715	0.122746	-0.022924	-0.031847	0.110146	-0.683531	-0.071692	-0.717993	-40.741171	-85.815049	-124.473942
31270		12.411286	-1.705479	-2.926106	-3.778083	0.155771	2.484166	-0.079388	0.083263	0.013822	-0.959717	0.212402	0.405762	0.124102	-0.017058	-0.029306	0.110065	-0.683328	-0.071364	-0.718231	-40.577407	-85.776184	-124.671008
31271		12.236427	-1.743158	-2.822089	-3.695237	0.221511	2.312865	0.267045	0.169042	-0.001021	-0.964111	0.212402	0.401367	0.122340	-0.017394	-0.028348	0.111038	-0.682579	-0.072229	-0.718707	-39.597400	-85.702667	-125.500280
31272		11.849422	-1.810991	-2.372424	-3.284879	0.409501	1.949909	0.467932	0.200565	-0.022696	-0.957520	0.214600	0.385498	0.118468	-0.018068	-0.023885	0.112732	-0.681658	-0.073930	-0.719144	-38.398265	-85.627395	-126.421435
31273		12.053592	-1.814088	-1.818680	-2.787204	0.530625	2.180538	0.451133	0.146226	-0.035898	-0.953125	0.219238	0.391846	0.120519	-0.018121	-0.018316	0.114198	-0.680870	-0.075588	-0.719487	-37.276472	-85.574103	-127.287269
31274		12.070577	-1.837345	-1.498687	-2.504854	0.627502	2.214475	0.455214	0.099423	-0.059627	-0.955811	0.225830	0.391602	0.120693	-0.018375	-0.015089	0.115703	-0.680308	-0.077432	-0.719582	-36.404798	-85.555505	-127.884806
31275		11.822269	-1.822494	-1.123318	-2.147205	0.725574	1.986143	0.530804	0.078960	-0.073706	-0.953369	0.221436	0.382813	0.118212	-0.018239	-0.011328	0.117279	-0.679693	-0.079543	-0.719678	-35.336294	-85.543895	-128.651456
31276		11.656350	-1.752632	-0.585285	-1.618838	0.813448	1.849319	0.588503	0.069902	-0.074124	-0.953369	0.223633	0.385010	0.116555	-0.017552	-0.005945	0.119195	-0.679166	-0.081939	-0.719591	-34.480793	-85.544420	-129.153708
31277		11.198536	-1.687407	-0.242428	-1.266136	0.875204	1.409800	0.550182	0.039203	-0.063299	-0.953369	0.225830	0.380371	0.111980	-0.016903	-0.002493	0.120856	-0.678676	-0.084106	-0.719527	-33.634701	-85.546481	-129.686132
31278		10.728197	-1.583111	-0.010892	-1.002275	0.871112	0.950080	0.518550	0.040528	-0.068262	-0.948975	0.225830	0.380371	0.107277	-0.015867	-0.000172	0.122535	-0.678292	-0.086241	-0.719352	-32.978088	-85.558449	-130.030223
31279		10.337311	-1.261959	0.022373	-0.869341	0.599363	0.547720	0.505309	0.040780	-0.041210	-0.955811	0.225830	0.382568	0.103371	-0.012641	0.000171	0.124122	-0.677823	-0.088169	-0.719288	-32.287389	-85.551913	-130.432561
31280		10.009450	-0.968350	0.175064	-0.627131	0.383128	0.218132	0.449800	0.056970	-0.015457	-0.951172	0.223633	0.384766	0.100094	-0.009695	0.001700	0.125755	-0.677442	-0.089854	-0.719155	-31.941952	-85.539491	-130.505726
31281		9.619112	-0.911690	0.308285	-0.475631	0.390674	-0.165166	0.410539	0.111256	-0.012208	-0.949219	0.230469	0.388916	0.096192	-0.009129	0.003011	0.127157	-0.676785	-0.091298	-0.719346	-31.222190	-85.489303	-130.991701
31282		8.988695	-1.125519	0.555906	-0.288414	0.705299	-0.768806	0.467983	0.177527	-0.053750	-0.946777	0.226074	0.384766	0.089889	-0.011292	0.005453	0.128748	-0.675948	-0.093085	-0.719620	-30.203192	-85.430081	-131.732960
31283		8.301982	-1.171149	0.803991	-0.054011	0.867675	-1.435034	0.492890	0.197510	-0.080964	-0.946777	0.228271	0.384521	0.083023	-0.011765	0.007929	0.130219	-0.674888	-0.095001	-0.720100	-28.745550	-85.354915	-132.911951
31284		7.585574	-1.215770	0.823070	-0.030983	0.961688	-2.146487	0.443140	0.188372	-0.095787	-0.937500	0.221680	0.387207	0.075858	-0.012212	0.008132	0.131562	-0.674000	-0.096815	-0.720446	-27.500471	-85.298648	-133.897318
31285		7.088119	-1.081404	0.912812	0.105465	0.896875	-2.641317	0.356792	0.158135	-0.102880	-0.928467	0.219727	0.394043	0.070883	-0.010867	0.009053	0.132476	-0.673153	-0.098339	-0.720864	-26.182067	-85.245042	-135.015043
31286		6.832811	-0.766957	0.900625	0.198864	0.614488	-2.908377	0.249145	0.119880	-0.062145	-0.928467	0.219727	0.403076	0.068331	-0.007702	0.008956	0.133197	-0.672675	-0.099350	-0.721039	-25.513302	-85.215413	-135.541130
31287		6.553863	-0.560339	0.757565	0.137466	0.391215	-3.204431	0.238831	0.109434	-0.030599	-0.926025	0.217529	0.400879	0.065542	-0.005622	0.007533	0.133950	-0.672114	-0.100237	-0.721299	-24.887085	-85.166852	-136.032187
31288		6.503689	-0.528969	0.714857	0.103115	0.350160	-3.258639	0.279301	0.137063	-0.004025	-0.926270	0.219727	0.400635	0.065042	-0.005301	0.007097	0.134960	-0.671568	-0.101112	-0.721497	-24.515972	-85.110827	-136.247897
31289		6.196352	-0.409950	0.860857	0.286972	0.302900	-3.557306	0.390436	0.181277	-0.013367	-0.930908	0.226318	0.393555	0.061971	-0.004120	0.008544	0.136319	-0.670651	-0.102439	-0.721907	-23.735945	-85.019936	-136.806245
31290		5.322475	-0.337908	0.953623	0.443722	0.317488	-4.422454	0.408049	0.142961	-0.002978	-0.928711	0.226318	0.395752	0.053231	-0.003399	0.009491	0.137779	-0.669974	-0.103770	-0.722069	-23.293746	-84.957301	-137.018223
31291		5.262616	-0.333712	1.004382	0.488736	0.335319	-4.477524	0.344419	0.077079	-0.006500	-0.928711	0.228516	0.391113	0.052630	-0.003356	0.010018	0.138955	-0.669463	-0.104978	-0.722143	-22.878360	-84.918957	-137.237082
31292		5.604544	-0.283940	0.951828	0.429955	0.251914	-4.142662	0.249043	0.073150	-0.032987	-0.933350	0.226318	0.393555	0.056048	-0.002860	0.009494	0.139742	-0.669123	-0.105884	-0.722174	-22.533989	-84.898842	-137.441815
31293		5.610903	-0.092987	0.989920	0.526329	0.087275	-4.139401	0.170056	0.041113	-0.020863	-0.931152	0.230713	0.386719	0.056111	-0.000944	0.009887	0.140262	-0.668854	-0.106535	-0.722227	-22.228826	-84.882476	-137.650330
31294		5.401901	-0.222134	1.094393	0.592432	0.258254	-4.334558	0.168984	0.014083	-0.016269	-0.931152	0.230713	0.395508	0.054020	-0.002235	0.010938	0.140809	-0.668787	-0.107137	-0.722094	-22.171133	-84.889393	-137.613514
31295		5.415024	-0.337678	1.224293	0.671141	0.413309	-4.306858	0.146717	0.003279	-0.047402	-0.935547	0.226318	0.389160	0.054150	-0.003399	0.012240	0.141135	-0.668656	-0.107819	-0.722050	-21.813841	-84.898720	-137.887790
31296		5.423066	-0.328808	1.522199	0.952201	0.511629	-4.274963	0.045475	-0.014551	-0.099591	-0.933350	0.230713	0.388916	0.054228	-0.003319	0.015225	0.140943	-0.668731	-0.108266	-0.721950	-21.391045	-84.938038	-138.289918
31297		5.507865	-0.428857	1.636309	1.017616	0.645744	-4.178375	-0.076858	-0.022467	-0.130648	-0.933350	0.226318	0.389160	0.055074	-0.004318	0.016371	0.140208	-0.668805	-0.108437	-0.721999	-20.712525	-84.977886	-139.015241
31298		5.625696	-0.523409	1.834970	1.164064	0.801308	-4.042732	-0.167349	-0.012242	-0.147624	-0.933350	0.230713	0.388916	0.056252	-0.005260	0.018358	0.139142	-0.668987	-0.108279	-0.722061	-20.093592	-85.023669	-139.735320
31299		5.794463	-0.602458	2.005705	1.285499	0.929953	-3.859177	-0.253989	-0.008733	-0.176337	-0.935791	0.232910	0.388672	0.057938	-0.006050	0.020067	0.137657	-0.669109	-0.107953	-0.722281	-19.178412	-85.063338	-140.799966
31300		5.959235	-0.891439	1.869665	1.049318	1.151949	-3.699199	-0.291657	0.011039	-0.210982	-0.944092	0.219238	0.389648	0.059584	-0.008950	0.018706	0.135990	-0.669244	-0.107559	-0.722530	-18.156850	-85.104662	-141.991624
31301		6.029391	-1.141684	1.795895	0.888778	1.367048	-3.630173	-0.271047	0.042523	-0.245554	-0.937500	0.221680	0.394043	0.060284	-0.011467	0.017962	0.134224	-0.669152	-0.107368	-0.722974	-16.673494	-85.124603	-143.636213
31302		6.087394	-1.110681	1.584865	0.694566	1.274344	-3.592126	-0.307877	0.082725	-0.294049	-0.937012	0.210449	0.387939	0.060864	-0.011172	0.015841	0.132213	-0.668988	-0.107118	-0.723533	-14.953598	-85.133508	-145.542264
31303		6.625880	-0.966373	1.478096	0.599737	1.090804	-3.069441	-0.406051	0.052569	-0.337476	-0.946045	0.210449	0.390137	0.066246	-0.009746	0.014783	0.129667	-0.668894	-0.106738	-0.724137	-12.909206	-85.152016	-147.827471
31304		7.732647	-1.097803	1.651830	0.638729	1.240760	-1.952659	-0.458302	0.003064	-0.398520	-0.945557	0.201416	0.390625	0.077305	-0.011094	0.016542	0.126727	-0.669048	-0.106334	-0.724574	-10.672045	-85.205561	-150.340040
31305		8.555086	-1.235793	1.980305	0.841012	1.471898	-1.108412	-0.419511	-0.026952	-0.475043	-0.938721	0.199463	0.393066	0.085519	-0.012519	0.019841	0.123593	-0.669166	-0.106416	-0.724994	-7.734332	-85.265677	-153.529091
31306		9.270587	-1.523485	2.256887	0.956875	1.843549	-0.376381	-0.345616	-0.072028	-0.534756	-0.944824	0.183594	0.394043	0.092657	-0.015444	0.022629	0.120496	-0.669434	-0.106913	-0.725196	-4.429076	-85.348284	-157.048527
31307		9.863252	-1.777752	2.547159	1.106082	2.205644	0.229406	-0.284944	-0.112536	-0.574394	-0.947021	0.179199	0.398682	0.098567	-0.018024	0.025553	0.117405	-0.669714	-0.107865	-0.725303	-0.565269	-85.428576	-161.088627
31308		10.119050	-2.081530	2.491637	0.941263	2.523214	0.467552	-0.314532	-0.095232	-0.618652	-0.948975	0.172363	0.399170	0.101114	-0.021089	0.024998	0.114059	-0.669986	-0.108734	-0.725456	3.587533	-85.483506	-165.445179
31309		11.170054	-2.729945	2.325969	0.500335	3.126807	1.483561	-0.352580	-0.038001	-0.614754	-0.946289	0.163574	0.399658	0.111612	-0.027602	0.023329	0.110633	-0.669997	-0.109531	-0.725856	7.832346	-85.471785	-169.905848
31310		11.564330	-2.525495	2.890537	1.057706	3.151685	1.909726	-0.233781	0.121518	-0.492369	-0.943604	0.154785	0.402588	0.115598	-0.025506	0.028865	0.108135	-0.669490	-0.110125	-0.726611	10.880816	-85.367508	-173.109921
31311		11.564685	-2.369017	2.981597	1.162045	3.067501	1.912669	-0.182947	0.274269	-0.386435	-0.952393	0.145508	0.398682	0.115642	-0.023886	0.029679	0.106276	-0.668388	-0.110600	-0.727826	12.990444	-85.169720	-175.331908
31312		11.602674	-2.216690	2.887482	1.079573	2.910397	1.944747	-0.055026	0.315110	-0.200652	-0.952393	0.145508	0.398682	0.116050	-0.022275	0.028698	0.105506	-0.667235	-0.110721	-0.728976	13.631592	-84.977827	-176.025044
31313		13.921928	-2.326900	2.648579	0.576350	2.933790	4.234022	-0.111931	0.301611	-0.107735	-0.954346	0.143311	0.398682	0.139246	-0.023329	0.026289	0.104913	-0.666146	-0.110508	-0.730090	13.771072	-84.797144	-176.229447
31314		16.877049	-2.443438	3.844033	1.376282	3.379974	7.283023	-0.291803	0.232272	-0.093605	-0.963379	0.140869	0.396729	0.168804	-0.024457	0.038280	0.103690	-0.665472	-0.109422	-0.731042	13.672693	-84.664822	-176.319639
31315		15.888685	-1.767016	3.963314	1.750976	2.767902	6.328973	-0.193328	0.225825	-0.046330	-0.962891	0.132080	0.392822	0.158927	-0.017669	0.039471	0.103007	-0.664732	-0.108746	-0.731912	13.504256	-84.534666	-176.261699
31316		14.408528	-1.058215	1.660478	-0.110504	1.410683	4.660751	-0.001983	0.119985	-0.055540	-0.965332	0.134277	0.396973	0.144092	-0.010622	0.016518	0.102803	-0.664330	-0.108618	-0.732324	13.496184	-84.468322	-176.280371
31317		14.644701	-0.666399	0.173656	-1.445032	0.601918	4.764386	0.059648	0.039219	-0.091824	-0.967529	0.134033	0.392578	0.146444	-0.006732	0.001706	0.102693	-0.664118	-0.109115	-0.732459	13.992472	-84.435855	-176.744653
31318		14.242492	-0.277790	-0.651956	-2.073359	-0.003860	4.295890	0.284783	-0.096747	-0.059190	-0.967285	0.129639	0.395020	0.142427	-0.002811	-0.006455	0.103305	-0.664365	-0.110149	-0.731993	14.470088	-84.490071	-177.087576
31319		14.020932	0.714353	-1.313750	-2.358898	-1.136612	4.042504	0.495342	-0.288041	-0.033927	-0.962891	0.132080	0.401611	0.140229	0.007152	-0.012918	0.104674	-0.665154	-0.112217	-0.730768	15.389407	-84.646424	-177.725956
31320		13.597468	1.705807	-2.406951	-3.009645	-2.404554	3.557214	0.579655	-0.294073	-0.029275	-0.971924	0.131836	0.401855	0.136012	0.017107	-0.023820	0.106247	-0.665990	-0.114324	-0.729451	16.235521	-84.814533	-178.271200
31321		14.214868	2.687036	-2.560976	-2.855461	-3.383149	4.195938	0.637599	-0.280179	-0.003536	-0.970215	0.143066	0.398926	0.142185	0.026949	-0.025325	0.108203	-0.666678	-0.116803	-0.728141	17.128667	-84.969666	-178.801147
31322		13.049553	3.532687	-2.626511	-2.499890	-4.208811	3.059981	0.587332	-0.117530	0.037989	-0.974854	0.145264	0.400879	0.130504	0.035428	-0.026084	0.110168	-0.666900	-0.118649	-0.727344	17.306964	-85.052797	-178.666869
31323		12.054671	3.717529	-3.162233	-2.826037	-4.565869	2.032189	0.491230	-0.026279	0.082149	-0.975098	0.149658	0.400635	0.120536	0.037302	-0.031515	0.112096	-0.666784	-0.120169	-0.726907	17.109174	-85.083074	-178.185868
31324		11.925322	3.383395	-3.027565	-2.772308	-4.224232	1.904691	0.417075	0.044861	0.073413	-0.977295	0.151855	0.395996	0.119234	0.033941	-0.030232	0.113743	-0.666530	-0.121236	-0.726707	16.670526	-85.084795	-177.524014
31325		12.586823	2.570186	-2.329718	-2.426127	-3.247347	2.598202	0.415279	0.078065	0.074891	-0.977539	0.156250	0.393555	0.125849	0.025797	-0.023293	0.115454	-0.666066	-0.122444	-0.726660	16.273965	-85.056055	-176.887191
31326		12.477614	1.695487	-1.664693	-2.077509	-2.224888	2.518999	0.448769	0.181777	0.132632	-0.977783	0.165039	0.386230	0.124750	0.017075	-0.016722	0.117519	-0.665331	-0.123388	-0.726842	15.268125	-84.991632	-175.633194
31327		11.748938	1.194465	-1.412850	-1.955536	-1.695068	1.796056	0.312736	0.257117	0.198812	-0.980225	0.167236	0.381592	0.117459	0.012084	-0.014261	0.119447	-0.664346	-0.123705	-0.727375	13.775103	-84.879554	-173.954471
31328		11.599566	1.268551	-1.312947	-1.839161	-1.766452	1.649423	0.081887	0.301540	0.217723	-0.978027	0.169434	0.374756	0.115962	0.012817	-0.013299	0.120715	-0.663438	-0.122993	-0.728115	11.951363	-84.754243	-172.084016
31329		11.665799	1.567304	-1.231020	-1.690326	-2.055407	1.719037	-0.194321	0.277805	0.215338	-0.973877	0.176270	0.372070	0.116624	0.015787	-0.012488	0.121032	-0.662687	-0.121396	-0.729013	10.196603	-84.623670	-170.433546
31330		11.590087	1.664709	-0.845819	-1.307058	-2.050193	1.672302	-0.324095	0.188539	0.240078	-0.971680	0.180664	0.365234	0.115873	0.016772	-0.008595	0.120981	-0.662445	-0.119223	-0.729600	8.290750	-84.554696	-168.710258
31331		11.457707	1.371382	-0.711433	-1.277451	-1.756958	1.542797	-0.408736	0.081768	0.240012	-0.974121	0.182861	0.364990	0.114558	0.013837	-0.007189	0.120559	-0.662548	-0.116880	-0.729955	6.553048	-84.527903	-167.199930
31332		11.143765	1.026093	-0.379264	-1.050232	-1.343676	1.254006	-0.437077	0.044738	0.236587	-0.981201	0.189453	0.366943	0.111425	0.010384	-0.003840	0.120081	-0.662882	-0.114416	-0.730121	4.739367	-84.530350	-165.628252
31333		10.849876	0.760534	-0.159404	-0.899467	-1.039889	0.977732	-0.537201	-0.023057	0.246833	-0.976563	0.189453	0.362305	0.108489	0.007735	-0.001602	0.119196	-0.663440	-0.111643	-0.730189	2.949156	-84.554861	-164.139111
31334		10.528729	0.574161	0.105462	-0.667416	-0.797411	0.680813	-0.537398	-0.064688	0.266771	-0.981201	0.191650	0.366699	0.105279	0.005885	0.001073	0.118469	-0.664235	-0.108793	-0.730014	0.889539	-84.610648	-162.374029
31335		10.337058	0.624924	0.353281	-0.385393	-0.788181	0.512053	-0.485176	-0.093154	0.276839	-0.979004	0.194092	0.371094	0.103360	0.006401	0.003566	0.117825	-0.665023	-0.106150	-0.729790	-1.096178	-84.665508	-160.658806
31336		9.983863	0.680288	0.360090	-0.311871	-0.854784	0.159373	-0.407469	-0.092436	0.261944	-0.969727	0.187500	0.380371	0.099828	0.006941	0.003633	0.117499	-0.665837	-0.103819	-0.729435	-3.125943	-84.727034	-158.847691
31337		9.661990	0.568963	0.331942	-0.332994	-0.770280	-0.164698	-0.316021	-0.036838	0.237002	-0.967773	0.189941	0.386963	0.096612	0.005809	0.003328	0.117301	-0.666292	-0.101892	-0.729324	-4.811205	-84.740373	-157.337120
31338		9.252272	0.819704	0.642786	0.085838	-0.921490	-0.548073	-0.267438	-0.026463	0.222055	-0.962891	0.183350	0.394043	0.092513	0.008308	0.006429	0.117265	-0.666821	-0.100182	-0.729083	-6.488029	-84.766700	-155.803772
31339		8.604657	1.168280	0.627892	0.239367	-1.252728	-1.200336	-0.351232	-0.067157	0.183502	-0.965576	0.192139	0.395752	0.086034	0.011773	0.006287	0.116737	-0.667375	-0.098322	-0.728914	-7.903912	-84.793345	-154.584076
31340		7.774100	1.081009	0.605265	0.271023	-1.156084	-2.030556	-0.364180	-0.108989	0.102943	-0.956543	0.190186	0.393555	0.077732	0.010861	0.006075	0.115869	-0.668219	-0.096712	-0.728495	-8.977515	-84.873453	-153.714438
31341		7.461621	0.613112	0.644953	0.203188	-0.689716	-2.332670	-0.306062	-0.146359	0.012201	-0.963135	0.189941	0.395996	0.074611	0.006146	0.006495	0.114828	-0.668948	-0.095633	-0.728133	-9.402450	-84.956762	-153.463891
31342		7.084171	0.237974	0.708321	0.195544	-0.295441	-2.698034	-0.270676	-0.176331	-0.053734	-0.954102	0.187988	0.395996	0.070836	0.002370	0.007142	0.113694	-0.669860	-0.094923	-0.727565	-9.528346	-85.081549	-153.490119
31343		6.695783	0.191110	0.821273	0.330099	-0.196681	-3.074968	-0.291663	-0.185806	-0.098487	-0.960693	0.185547	0.398438	0.066951	0.001890	0.008272	0.112279	-0.670668	-0.094289	-0.727123	-9.268069	-85.197477	-153.919063
31344		6.277922	0.039592	0.732229	0.245071	-0.053478	-3.497064	-0.287950	-0.201052	-0.132689	-0.953857	0.181396	0.412109	0.062772	0.000365	0.007385	0.110784	-0.671617	-0.093798	-0.726540	-8.860480	-85.340427	-154.490357
31345		5.976018	-0.184686	0.628017	0.114937	0.152795	-3.803967	-0.234275	-0.247719	-0.154385	-0.947021	0.179199	0.407715	0.059751	-0.001886	0.006356	0.109329	-0.672587	-0.093595	-0.725889	-8.189857	-85.495656	-155.297803
31346		5.885371	-0.271692	0.684018	0.165470	0.266684	-3.889786	-0.179032	-0.267764	-0.140818	-0.944824	0.179199	0.409912	0.058843	-0.002752	0.006921	0.108118	-0.673724	-0.093559	-0.725019	-7.641398	-85.678460	-155.949398
31347		5.741153	-0.303329	0.835653	0.326122	0.354631	-4.023127	-0.121249	-0.290088	-0.107427	-0.944824	0.179443	0.416748	0.057398	-0.003059	0.008442	0.107193	-0.674805	-0.093630	-0.724142	-7.202378	-85.853058	-156.459296
31348		5.623035	-0.375392	0.894215	0.386972	0.452581	-4.137790	-0.071798	-0.304744	-0.075591	-0.949219	0.177002	0.416992	0.056215	-0.003772	0.009029	0.106581	-0.676024	-0.093782	-0.723075	-7.068143	-86.048191	-156.632203
31349		5.667193	-0.427401	0.980538	0.468868	0.532960	-4.089288	0.001445	-0.317641	-0.031265	-0.949219	0.177002	0.419189	0.056656	-0.004283	0.009895	0.106333	-0.677170	-0.094054	-0.722002	-7.166643	-86.232876	-156.532664
31350		5.703787	-0.424649	1.047496	0.550419	0.554346	-4.050702	0.086686	-0.325782	0.002862	-0.949463	0.183594	0.418701	0.057021	-0.004250	0.010566	0.106524	-0.678403	-0.094522	-0.720755	-7.645285	-86.432598	-156.000927
31351		5.803893	-0.502124	1.041457	0.535171	0.629424	-3.952711	0.108956	-0.327852	0.038124	-0.951660	0.181396	0.416504	0.058023	-0.005016	0.010507	0.106885	-0.679558	-0.094952	-0.719556	-8.403330	-86.617430	-155.178960
31352		6.087940	-0.590856	0.927384	0.404756	0.678264	-3.676869	0.192581	-0.295003	0.073135	-0.949463	0.186035	0.423096	0.060868	-0.005895	0.009358	0.107731	-0.680638	-0.095552	-0.718328	-9.640301	-86.790157	-153.824202
31353		6.122373	-0.311866	0.884679	0.459157	0.398976	-3.648814	0.198734	-0.284252	0.108210	-0.952148	0.192627	0.420410	0.061213	-0.003094	0.008931	0.108669	-0.681618	-0.096042	-0.717192	-11.216041	-86.940932	-152.132076
31354		6.342843	-0.244608	0.770554	0.378461	0.295036	-3.436565	0.236409	-0.275215	0.143756	-0.951904	0.185791	0.420898	0.063419	-0.002410	0.007790	0.109944	-0.682630	-0.096553	-0.715965	-13.486723	-87.088842	-149.715667
31355		6.677537	0.008023	0.752165	0.438275	0.036343	-3.107325	0.270737	-0.256327	0.166700	-0.940918	0.192871	0.429443	0.066766	0.000126	0.007607	0.111349	-0.683493	-0.097086	-0.714852	-15.980886	-87.208283	-147.063107
31356		6.885491	0.220606	0.462345	0.234493	-0.262292	-2.917138	0.262983	-0.191133	0.181492	-0.947754	0.195068	0.431396	0.068848	0.002262	0.004692	0.112864	-0.684203	-0.097512	-0.713876	-18.797105	-87.292677	-144.088135
31357		7.214137	0.416689	0.211099	0.054178	-0.541517	-2.603958	0.249186	-0.094829	0.200866	-0.945557	0.199463	0.426758	0.072136	0.004237	0.002150	0.114396	-0.684513	-0.097760	-0.713301	-21.392031	-87.305634	-141.347396
31358		7.953661	0.462770	0.292836	0.130725	-0.596304	-1.863603	0.280396	-0.023461	0.218407	-0.947998	0.203857	0.428711	0.079531	0.004710	0.002944	0.116194	-0.684630	-0.098031	-0.712861	-24.040710	-87.279664	-138.528987
31359		8.831691	0.571414	0.454157	0.292090	-0.696928	-0.983164	0.344497	0.051636	0.248152	-0.948486	0.210449	0.428223	0.088311	0.005816	0.004529	0.118292	-0.684381	-0.098371	-0.712708	-26.301237	-87.193665	-136.068220
31360		9.520332	0.848165	0.971352	0.846624	-0.850723	-0.280685	0.357449	0.154288	0.273574	-0.946289	0.212891	0.430420	0.095199	0.008595	0.009655	0.120652	-0.683836	-0.098630	-0.712800	-28.324515	-87.051459	-133.829449
31361		10.105720	1.136855	1.435784	1.346852	-1.035621	0.316125	0.279827	0.282950	0.328562	-0.950928	0.219238	0.418701	0.101059	0.011515	0.014231	0.122928	-0.682834	-0.098325	-0.713413	-29.815482	-86.819379	-132.175788
31362		10.268787	1.532407	1.964429	1.945625	-1.295051	0.492281	0.120643	0.429195	0.333980	-0.948486	0.214844	0.416748	0.102704	0.015484	0.019433	0.124826	-0.681472	-0.097373	-0.714516	-30.675946	-86.518396	-131.236276
31363		10.813138	1.486524	1.794312	1.709517	-1.377406	1.028583	-0.043966	0.564000	0.321430	-0.946777	0.223877	0.414063	0.108157	0.015043	0.017635	0.126108	-0.679653	-0.095760	-0.716240	-30.643795	-86.147555	-131.293727
31364		10.648401	2.175839	2.022354	2.100109	-2.006497	0.853881	0.008929	0.626003	0.326093	-0.944580	0.226074	0.405029	0.106511	0.021931	0.019891	0.127661	-0.677633	-0.094319	-0.718067	-30.472128	-85.752467	-131.453984
31365		11.033670	2.236863	2.189128	2.208138	-2.085284	1.246835	0.105991	0.577295	0.293575	-0.951172	0.225830	0.395996	0.110366	0.022519	0.021585	0.129355	-0.675643	-0.093328	-0.719766	-30.165324	-85.383108	-131.700787
31366		11.036641	2.067464	2.640364	2.537877	-1.828727	1.289925	0.259452	0.553647	0.276278	-0.947021	0.234863	0.393066	0.110410	0.020793	0.026125	0.131546	-0.673668	-0.093014	-0.721259	-29.849824	-85.036744	-131.859722
31367		11.147189	1.647817	2.852643	2.554593	-1.409428	1.438978	0.225220	0.522285	0.215568	-0.951660	0.237061	0.386230	0.111528	0.016566	0.028254	0.133334	-0.671750	-0.092749	-0.722753	-29.301561	-84.716652	-132.280609
31368		12.291552	1.223924	2.330521	1.810510	-1.280498	2.560416	0.038947	0.438564	0.103747	-0.953857	0.232422	0.382080	0.122960	0.012299	0.023038	0.134123	-0.670242	-0.092305	-0.724063	-28.622647	-84.475160	-132.929358
31369		15.570887	1.426906	2.789340	2.056904	-1.583135	5.856765	-0.179079	0.187078	0.014567	-0.956299	0.239258	0.384033	0.155734	0.014305	0.027735	0.133671	-0.669707	-0.091474	-0.724746	-28.304447	-84.378143	-133.352140
31370		15.877499	0.854208	2.917641	1.948060	-1.039658	6.201723	-0.264774	0.226403	0.002227	-0.962646	0.232422	0.384521	0.158808	0.008582	0.028985	0.132948	-0.669113	-0.090425	-0.725559	-27.892124	-84.271303	-133.909263
31371		13.722675	-0.432954	1.430488	0.246596	-0.147676	3.988135	-0.262644	0.373876	0.059934	-0.956055	0.236816	0.372803	0.137254	-0.004270	0.014054	0.132465	-0.667973	-0.089016	-0.726871	-27.393422	-84.066850	-134.561800
31372		13.725800	-1.030706	-0.208689	-1.523598	-0.106184	3.868351	-0.470206	0.224365	0.104643	-0.953857	0.237061	0.381836	0.137261	-0.010240	-0.002217	0.131424	-0.667552	-0.086882	-0.727704	-27.627363	-83.932322	-134.587521
31373		13.739998	-1.583841	-1.402787	-2.833684	0.044244	3.797315	-0.619340	0.037049	0.120900	-0.953613	0.230225	0.380127	0.137407	-0.015799	-0.014004	0.129822	-0.667890	-0.084192	-0.727998	-28.486473	-83.882246	-134.080373
31374		13.108190	-2.583916	-2.667938	-4.264851	0.675056	3.109168	-0.642383	-0.206947	0.101948	-0.947021	0.232666	0.382080	0.131123	-0.025858	-0.026461	0.128017	-0.669177	-0.081715	-0.727418	-29.944516	-83.968406	-132.974496
31375		12.852513	-3.660826	-4.049348	-5.821178	1.345601	2.808268	-0.595605	-0.508711	0.101373	-0.953613	0.228027	0.389160	0.128646	-0.036663	-0.040057	0.126194	-0.671461	-0.079527	-0.725873	-32.243359	-84.189152	-131.006386
31376		14.449715	-4.599993	-4.100507	-6.147014	2.147950	4.483023	-0.462548	-0.763239	0.018366	-0.953613	0.228027	0.393555	0.144656	-0.046080	-0.040347	0.124463	-0.674603	-0.078326	-0.723384	-35.150657	-84.557435	-128.342001
31377		13.488797	-4.989111	-3.179508	-5.213201	2.895310	3.655309	-0.290211	-0.661187	-0.022409	-0.953613	0.230225	0.397949	0.134986	-0.049952	-0.031276	0.123154	-0.677178	-0.077756	-0.721261	-37.666739	-84.870886	-125.982141
31378		11.957755	-4.907820	-3.240157	-5.093705	2.939637	2.144974	-0.135719	-0.400194	-0.010526	-0.958252	0.230225	0.404785	0.119639	-0.049106	-0.032129	0.122578	-0.678760	-0.077590	-0.719888	-39.421860	-85.059386	-124.288934
31379		11.702163	-4.068469	-3.004074	-4.577554	2.231941	1.874137	-0.121030	-0.230047	0.053027	-0.962891	0.232422	0.404541	0.117067	-0.040672	-0.029881	0.122279	-0.679699	-0.077107	-0.719105	-40.786944	-85.141331	-122.988401
31380		12.249510	-2.720285	-2.795275	-4.004499	0.960151	2.365412	-0.169399	0.008608	0.048425	-0.958252	0.234619	0.393311	0.122500	-0.027197	-0.027935	0.121983	-0.679856	-0.076352	-0.719087	-41.243997	-85.122540	-122.617345
31381		12.026825	-1.658335	-2.277454	-3.210794	0.099844	2.114683	-0.117470	0.216511	-0.020345	-0.965088	0.232422	0.395752	0.120242	-0.016609	-0.022895	0.121603	-0.679158	-0.075859	-0.719863	-40.301988	-85.036864	-123.630336
31382		11.978376	-1.959769	-2.481445	-3.520750	0.327497	2.060671	0.254516	0.351870	-0.059190	-0.965332	0.239014	0.388428	0.119734	-0.019601	-0.025050	0.122529	-0.677754	-0.076785	-0.720930	-38.543362	-84.901438	-125.236426
31383		11.597022	-2.314523	-2.080327	-3.270988	0.792500	1.713278	0.613059	0.465973	-0.135789	-0.962891	0.236816	0.384033	0.115905	-0.023159	-0.021144	0.124305	-0.675658	-0.079161	-0.722335	-35.761992	-84.736424	-127.676424
31384		11.611987	-2.170903	-1.575760	-2.809986	0.782576	1.742625	0.636364	0.442884	-0.178521	-0.964844	0.227783	0.377930	0.116065	-0.021762	-0.016084	0.126154	-0.673674	-0.081818	-0.723570	-33.156860	-84.589561	-129.911152
31385		11.392332	-1.848971	-1.348398	-2.546244	0.550743	1.511408	0.658941	0.396133	-0.191400	-0.967529	0.241211	0.375000	0.113879	-0.018554	-0.013771	0.127852	-0.671759	-0.084589	-0.724734	-30.588022	-84.455791	-132.112395
31386		10.675485	-1.570030	-1.124535	-2.252884	0.398512	0.792077	0.696965	0.348024	-0.199353	-0.962891	0.236816	0.368408	0.106719	-0.015767	-0.011486	0.129748	-0.670086	-0.087596	-0.725587	-28.364737	-84.350589	-133.932400
31387		10.348988	-1.511052	-0.720895	-1.871816	0.488544	0.490809	0.745270	0.222600	-0.199562	-0.965332	0.243408	0.363525	0.103467	-0.015186	-0.007381	0.131628	-0.668720	-0.090816	-0.726113	-26.355297	-84.291198	-135.522533
31388		10.200346	-1.335000	-0.131501	-1.273225	0.518940	0.383200	0.702994	0.086117	-0.168492	-0.963135	0.243408	0.361328	0.101992	-0.013431	-0.001406	0.133578	-0.667998	-0.093910	-0.726027	-25.087884	-84.302028	-136.375567
31389		9.911711	-0.969014	0.041712	-0.988356	0.255962	0.093894	0.505276	0.035753	-0.120033	-0.958740	0.243408	0.361328	0.099111	-0.009751	0.000375	0.134857	-0.667490	-0.096113	-0.725970	-24.113382	-84.313532	-137.063848
31390		9.586859	-1.157566	0.035530	-1.037207	0.460503	-0.223046	0.452929	-0.001571	-0.090916	-0.965332	0.241211	0.368164	0.095863	-0.011620	0.000330	0.136220	-0.667286	-0.098101	-0.725637	-23.606178	-84.350129	-137.295794
31391		9.665686	-0.932743	0.194437	-0.824111	0.299180	-0.139807	0.377781	-0.017652	-0.028250	-0.960938	0.243408	0.363525	0.096655	-0.009345	0.001935	0.137380	-0.667096	-0.099570	-0.725394	-23.308482	-84.367433	-137.377310
31392		9.521684	-1.109936	0.190267	-0.876381	0.474308	-0.276566	0.318049	0.025954	-0.004753	-0.956543	0.247803	0.356445	0.095217	-0.011105	0.001873	0.138587	-0.666938	-0.100756	-0.725145	-23.265101	-84.372676	-137.223749
31393		9.040954	-1.396130	0.603872	-0.558587	0.911486	-0.707202	0.331786	0.095167	-0.018867	-0.956543	0.243408	0.365723	0.090411	-0.013980	0.005973	0.139683	-0.666371	-0.101949	-0.725290	-22.787424	-84.328364	-137.512605
31394		8.373677	-1.743685	0.802620	-0.453499	1.347015	-1.340205	0.340375	0.139147	-0.025403	-0.954102	0.243652	0.370117	0.083740	-0.017461	0.007938	0.140962	-0.665761	-0.103199	-0.725425	-22.376565	-84.276167	-137.714795
31395		7.807001	-1.823760	1.046641	-0.226961	1.542026	-1.879123	0.327007	0.110278	-0.032294	-0.949463	0.239258	0.372803	0.078073	-0.018267	0.010394	0.142001	-0.665132	-0.104407	-0.725627	-21.811113	-84.226300	-138.094665
31396		7.648880	-1.531259	1.088673	-0.083928	1.292587	-2.043679	0.256798	0.078535	-0.010282	-0.942383	0.232666	0.373047	0.076492	-0.015330	0.010837	0.142963	-0.664850	-0.105322	-0.725564	-21.673296	-84.209188	-138.077567
31397		7.388730	-1.134245	1.334802	0.295674	1.020915	-2.293921	0.163628	0.065540	0.037402	-0.938232	0.239502	0.372559	0.073894	-0.011340	0.013315	0.143689	-0.664534	-0.105737	-0.725650	-21.667261	-84.168171	-137.989272
31398		7.051443	-0.706099	1.310067	0.447325	0.631120	-2.647543	0.122484	0.026873	0.060164	-0.940674	0.243896	0.383545	0.070518	-0.007048	0.013087	0.144389	-0.664567	-0.105941	-0.725451	-22.063583	-84.162844	-137.518413
31399		6.936764	-0.511200	1.005962	0.238913	0.348238	-2.797444	0.136553	0.028468	0.048319	-0.938477	0.241699	0.374756	0.069370	-0.005102	0.010046	0.145044	-0.664410	-0.106247	-0.725419	-22.204322	-84.139125	-137.298172
31400		6.722257	-0.180568	1.000139	0.364371	0.048715	-3.023985	0.235658	0.113504	0.027101	-0.947266	0.239258	0.381592	0.067228	-0.001808	0.009961	0.146065	-0.664011	-0.106891	-0.725485	-22.189823	-84.090804	-137.174907
31401		5.993845	-0.267458	1.076678	0.452191	0.205923	-3.737322	0.244685	0.125858	0.004682	-0.943359	0.250488	0.378662	0.059945	-0.002686	0.010726	0.146973	-0.663398	-0.107663	-0.725749	-21.842362	-84.024812	-137.383180
31402		5.641857	-0.392260	1.250864	0.592231	0.408253	-4.065370	0.209072	0.073279	-0.011855	-0.943359	0.250488	0.374268	0.056423	-0.003939	0.012484	0.147730	-0.663123	-0.108362	-0.725742	-21.709556	-84.003883	-137.395617
31403		5.794818	-0.346387	1.218249	0.562444	0.343860	-3.917822	0.131552	0.038189	0.002367	-0.942871	0.243896	0.370117	0.057951	-0.003471	0.012169	0.148207	-0.662908	-0.108796	-0.725776	-21.597908	-83.984964	-137.431980
31404		5.718599	-0.423291	1.183241	0.508858	0.408107	-3.994086	0.086176	-0.001296	0.020888	-0.938721	0.248291	0.378906	0.057186	-0.004232	0.011831	0.148648	-0.662998	-0.109000	-0.725573	-21.846830	-83.994808	-137.129889
31405		5.596103	-0.437149	1.434881	0.747917	0.518957	-4.091004	0.035311	-0.018457	0.013973	-0.940918	0.248291	0.376709	0.055960	-0.004370	0.014353	0.148817	-0.663067	-0.109088	-0.725462	-21.963725	-84.003564	-136.991893
31406		5.657818	-0.415481	1.520741	0.835002	0.524963	-4.022750	-0.079340	-0.044440	-0.020533	-0.940918	0.250488	0.374268	0.056574	-0.004155	0.015222	0.148525	-0.663415	-0.108854	-0.725239	-22.187547	-84.045228	-136.811867
31407		5.703581	-0.476421	1.569070	0.858176	0.596440	-3.970806	-0.213199	-0.047688	-0.045202	-0.940918	0.248291	0.374268	0.057031	-0.004760	0.015709	0.147639	-0.663742	-0.108258	-0.725209	-22.208057	-84.082253	-136.913946
31408		5.567196	-0.438231	1.638662	0.952262	0.595180	-4.102180	-0.288992	-0.024741	-0.081267	-0.943115	0.248291	0.376709	0.055668	-0.004381	0.016400	0.146456	-0.664129	-0.107457	-0.725214	-22.198642	-84.125065	-137.087440
31409		5.386171	-0.334705	1.615749	0.983839	0.504233	-4.288982	-0.390250	-0.018533	-0.133898	-0.938477	0.241699	0.379150	0.053858	-0.003352	0.016169	0.144676	-0.664430	-0.106492	-0.725439	-21.797710	-84.165624	-137.715128
31410		5.526458	-0.340819	1.585710	0.946975	0.491987	-4.152868	-0.480720	-0.018983	-0.185860	-0.940430	0.235107	0.384033	0.055260	-0.003421	0.015871	0.142472	-0.664872	-0.105334	-0.725639	-21.326010	-84.226914	-138.464583
31411		5.758977	-0.452735	1.530145	0.840729	0.567480	-3.923437	-0.529359	-0.025617	-0.243612	-0.938232	0.237305	0.384033	0.057582	-0.004557	0.015321	0.139825	-0.665232	-0.104233	-0.725983	-20.414839	-84.292419	-139.685060
31412		6.112924	-0.692337	1.486856	0.696021	0.763980	-3.568507	-0.557550	-0.044754	-0.302645	-0.948975	0.228027	0.384521	0.061115	-0.006974	0.014902	0.136913	-0.665747	-0.103192	-0.726214	-19.360031	-84.387862	-141.066219
31413		6.425461	-1.126249	1.245268	0.303144	1.087955	-3.268216	-0.540302	-0.045085	-0.353363	-0.944336	0.223877	0.389404	0.064232	-0.011342	0.012498	0.133819	-0.666116	-0.102429	-0.726560	-17.816387	-84.479104	-142.928098
31414		7.052616	-1.218039	1.099484	0.093077	1.111822	-2.658178	-0.549340	-0.056205	-0.419750	-0.944092	0.219238	0.389648	0.070497	-0.012298	0.011048	0.130496	-0.666589	-0.101808	-0.726818	-16.004394	-84.592392	-145.065385
31415		7.850886	-1.309060	1.091136	-0.001740	1.183569	-1.866640	-0.619819	-0.102389	-0.511979	-0.948242	0.208008	0.392578	0.078469	-0.013258	0.010992	0.126529	-0.667121	-0.101319	-0.727100	-13.516117	-84.726329	-147.921071
31416		8.842332	-1.563456	1.280194	0.027919	1.478461	-0.863761	-0.591388	-0.148009	-0.592453	-0.945557	0.197021	0.395508	0.088367	-0.015858	0.012914	0.122389	-0.667847	-0.101172	-0.727163	-10.577060	-84.893820	-151.213633
31417		9.593315	-1.933822	1.483614	0.056013	1.915730	-0.101920	-0.525786	-0.185808	-0.632630	-0.952148	0.192383	0.397949	0.095858	-0.019602	0.014977	0.118250	-0.668540	-0.101476	-0.727168	-7.019141	-85.057311	-155.087566
