// General information: 
//  MT Manager version: 2019.2.0 
//  XDA version: 2019.2.0 build 3853 rev 94535 built on 2019-09-09
// Device information: 
//  DeviceId: 00B40A8D
//  ProductCode: MTW2-3A7G6
//  Firmware Version: 4.3.5
//  Hardware Version: 1.1.0
// Device settings: 
//  Filter Profile: human(46.1)
//  Option Flags: Orientation Smoother Disabled, AHS Disabled, ICC Disabled
// Coordinate system: ENU
PacketCounter	SampleTimeFine	Acc_X	Acc_Y	Acc_Z	FreeAcc_E	FreeAcc_N	FreeAcc_U	Gyr_X	Gyr_Y	Gyr_Z	Mag_X	Mag_Y	Mag_Z	VelInc_X	VelInc_Y	VelInc_Z	Quat_q0	Quat_q1	Quat_q2	Quat_q3	Roll	Pitch	Yaw
39277		11.594880	-0.449561	1.286115	1.281476	0.583931	1.776481	0.439744	-0.859258	-0.197278	-0.950439	-0.331299	-0.636963	0.289476	-0.012141	0.035198	0.746871	0.169689	-0.601997	0.225810	-4.833440	-77.385627	37.516566
39278		12.878065	0.485274	-0.268848	2.070087	2.201617	2.717824	0.403599	-0.829979	0.075530	-0.963379	-0.340820	-0.610596	0.321986	0.012458	-0.003318	0.739424	0.175131	-0.608849	0.227780	-5.321682	-78.573034	38.597698
39279		12.826121	0.333918	-1.086199	2.649158	2.474462	2.542830	0.296008	-0.130126	0.271068	-0.969727	-0.345459	-0.599365	0.320666	0.009534	-0.026600	0.736921	0.176085	-0.609919	0.232252	-6.991305	-78.729631	40.723950
39280		12.464863	-1.375686	-1.108691	3.460843	1.074628	2.243883	-0.046966	-0.225451	0.342369	-0.979248	-0.336914	-0.597168	0.311841	-0.033074	-0.026819	0.734215	0.173608	-0.613006	0.234547	-9.836574	-78.990275	43.546089
39281		11.835136	-2.100774	-2.177026	4.451316	0.975540	1.520870	0.050740	-0.924354	0.393673	-0.991455	-0.315430	-0.563965	0.296735	-0.051027	-0.051033	0.725719	0.173668	-0.622276	0.236523	-14.359294	-80.180122	48.208908
39282		10.718035	-3.575303	-2.366009	5.193935	-0.215918	0.494129	0.497504	0.417550	0.296375	-0.983887	-0.328369	-0.579590	0.267963	-0.088014	-0.061099	0.726889	0.174548	-0.617771	0.243975	-15.178461	-79.505729	49.755741
39283		10.978868	-1.721472	10.456175	-5.300105	-5.185228	3.504969	1.138798	6.276604	-0.020713	-0.860107	-0.350342	-0.718750	0.293769	-0.046615	0.238198	0.770490	0.165282	-0.555471	0.265478	-6.987570	-70.687292	42.981999
39284		13.557600	15.272216	18.634055	-20.686811	4.677812	7.911978	0.733611	-2.226248	1.312994	-0.955322	-0.320557	-0.621582	0.319463	0.382806	0.478431	0.748622	0.170477	-0.577006	0.278508	-13.479058	-73.511569	50.901068
39285		11.849122	4.192648	-2.406922	1.416516	7.598204	0.384715	-1.616043	1.097684	1.995785	-0.912109	-0.247559	-0.709961	0.292630	0.110848	-0.066404	0.752499	0.136967	-0.576382	0.287695	-22.836274	-71.131613	58.280195
39286		-0.206465	-3.012954	14.901129	-10.072161	-10.066363	-4.504958	-1.461818	3.849380	0.820007	-0.880859	-0.201660	-0.763184	0.013524	-0.068428	0.373470	0.778659	0.103225	-0.546181	0.291068	-22.364402	-65.598001	55.512053
39287		8.924509	-4.921013	7.170342	-1.705493	-4.945658	1.478142	-0.894324	-7.622892	0.215348	-1.016357	-0.176025	-0.579590	0.204975	-0.120290	0.200743	0.723399	0.120211	-0.621381	0.275914	-40.353665	-74.872827	73.179929
39288		15.331647	-5.678066	-7.828038	10.025076	2.793642	5.015754	0.188257	-5.115484	-0.289374	-1.082520	-0.187744	-0.468994	0.394243	-0.142943	-0.171049	0.682840	0.141464	-0.665347	0.266516	-65.200112	-79.754949	98.873204
39289		13.765061	-0.858502	-7.582054	6.850366	6.090307	2.976625	0.409646	2.970674	-0.286664	-1.030518	-0.205322	-0.577393	0.336695	-0.021664	-0.202259	0.707203	0.137269	-0.637767	0.272535	-45.881482	-77.656008	79.772781
39290		6.592161	0.567030	4.557805	-3.189440	-0.176820	-2.456977	0.766884	8.521803	-0.149366	-0.877930	-0.215088	-0.765381	0.175686	0.012877	0.095721	0.770081	0.115388	-0.556197	0.290354	-22.274428	-67.464172	56.294834
39291		2.319918	0.837416	7.709169	-6.119818	-2.490732	-5.137731	-0.007112	-1.008140	0.020371	-0.920654	-0.212158	-0.716797	0.055558	0.020967	0.193438	0.762864	0.118755	-0.566035	0.289033	-23.804086	-68.790524	57.922524
39292		7.837329	1.503072	-0.188847	0.521943	3.536057	-2.677953	-0.219348	-3.490956	0.002559	-0.981201	-0.207764	-0.643799	0.195892	0.037586	0.003726	0.737676	0.129068	-0.599683	0.282056	-30.861924	-73.246265	65.038306
39293		7.045643	1.023373	-1.840475	1.837663	3.665756	-3.708700	-0.419936	0.841375	-0.054144	-0.954590	-0.202393	-0.683594	0.175660	0.025217	-0.047994	0.744719	0.122554	-0.593394	0.279747	-29.356322	-72.249157	62.822944
39294		3.829572	0.163973	3.101767	-1.969562	-0.319155	-5.304597	-0.594129	2.722352	-0.258024	-0.903809	-0.193848	-0.738770	0.098316	0.004344	0.074196	0.766183	0.109276	-0.569497	0.276938	-24.318130	-68.939905	56.572717
39295		3.422946	0.104681	4.152386	-2.799240	-0.910842	-5.306775	-0.664894	-0.880329	-0.451721	-0.926270	-0.190186	-0.714600	0.084441	0.003006	0.104719	0.762223	0.109089	-0.579667	0.266649	-25.154308	-70.364324	56.439550
39296		7.892282	0.111357	-0.337178	1.449270	2.267335	-2.387218	-0.909469	-3.265523	-0.525626	-0.984619	-0.185791	-0.636963	0.197445	0.001452	-0.000392	0.740777	0.114943	-0.612664	0.250361	-31.483160	-74.850906	61.692380
39297		11.804705	-0.070372	-2.551766	3.396544	3.651366	1.184980	-0.754292	-2.511575	-0.335420	-1.020508	-0.180664	-0.577393	0.296913	-0.003545	-0.054463	0.723190	0.118249	-0.637571	0.237730	-39.714758	-78.067990	69.035210
39298		13.888280	-0.024948	-1.498116	2.440041	3.405317	3.513044	-0.637715	0.637511	-0.024939	-0.994385	-0.166260	-0.608398	0.346894	-0.001045	-0.040211	0.729156	0.110707	-0.633741	0.233340	-37.947416	-77.384309	66.282646
39299		11.721016	-1.081310	0.739203	1.230732	1.256479	1.847342	-0.593164	2.641179	0.063957	-0.952637	-0.151123	-0.677002	0.293448	-0.026708	0.008994	0.750208	0.096956	-0.611247	0.232735	-30.723686	-74.207562	57.949183
39300		10.187462	-3.202115	2.613527	0.692058	-1.557268	1.048453	-0.635535	0.250718	-0.089923	-0.948730	-0.139893	-0.674561	0.254801	-0.079821	0.065174	0.753042	0.090877	-0.610732	0.227325	-30.661810	-73.972603	56.928871
39301		12.311365	-3.659141	1.147792	2.325343	-0.986471	2.831630	-0.583940	-1.263974	-0.343634	-0.971680	-0.129883	-0.650391	0.306876	-0.092562	0.034221	0.744823	0.091505	-0.623918	0.218156	-33.581816	-75.775846	59.077567
39302		13.080959	-3.707848	1.824929	1.982973	-1.184112	3.708281	-0.113140	2.093559	-0.331230	-0.917480	-0.138916	-0.707764	0.327683	-0.093996	0.037185	0.761832	0.087215	-0.604261	0.216504	-26.834774	-73.426763	51.903831
39303		9.245884	-5.365150	12.916679	-6.828746	-7.589705	3.478966	0.544511	3.923944	-0.417391	-0.851563	-0.160889	-0.776367	0.245861	-0.137527	0.310166	0.790963	0.084766	-0.564357	0.220666	-18.251990	-68.463053	43.651803
39304		9.062602	-7.025793	7.919059	-1.419734	-7.314984	1.960769	0.749424	-2.444002	-1.067919	-0.894287	-0.202393	-0.716797	0.218025	-0.180480	0.203049	0.775312	0.106338	-0.585100	0.212702	-16.014897	-72.270818	42.411570
39305		8.248180	-2.148448	6.121000	-2.155707	-2.819016	0.061036	0.801483	1.763942	-1.364145	-0.842529	-0.251709	-0.758789	0.208530	-0.058753	0.147872	0.790349	0.119284	-0.563924	0.207628	-7.743013	-70.207852	34.885343
39306		6.813817	4.890924	10.222835	-9.079183	1.085179	-0.261676	0.683938	-1.490866	-0.901745	-0.883545	-0.282227	-0.696777	0.166878	0.118170	0.259725	0.780866	0.136168	-0.575488	0.201296	-3.622764	-72.473593	31.566037
39307		14.799373	5.162741	1.148929	-0.169139	6.033671	4.692807	0.172619	-3.581735	-0.187187	-0.945801	-0.286865	-0.630371	0.368497	0.128119	0.045525	0.754420	0.148019	-0.609205	0.194448	-3.632362	-77.622684	31.828241
39308		12.123582	1.640318	-2.522597	3.731981	4.086063	1.385531	-0.067221	1.168556	0.263701	-0.915283	-0.272217	-0.674561	0.301988	0.041949	-0.067517	0.762641	0.142468	-0.598870	0.198585	-4.851279	-75.937250	32.977305
39309		7.303273	-1.968465	3.211901	-0.134730	-2.066728	-1.861776	-0.267577	2.570731	0.424665	-0.875732	-0.259521	-0.725586	0.185296	-0.047977	0.074533	0.780821	0.130223	-0.575576	0.205116	-6.160046	-72.225484	33.933393
39310		5.106506	-3.826106	3.841312	-0.184009	-4.170457	-3.644698	-0.263025	-0.107842	0.315107	-0.883057	-0.246582	-0.721191	0.127907	-0.094832	0.096518	0.779577	0.125606	-0.577917	0.206144	-8.037414	-72.335016	35.503423
39311		5.296171	-3.307372	0.958608	1.997377	-2.422516	-4.331054	-0.101028	-0.602165	0.022420	-0.899170	-0.238281	-0.705566	0.132242	-0.082616	0.025065	0.775227	0.125945	-0.584172	0.204706	-8.732690	-73.195104	36.074259
39312		5.365914	-1.471882	1.301515	0.848515	-0.957247	-4.243402	0.333077	0.188730	-0.119130	-0.887207	-0.253418	-0.716553	0.134169	-0.037131	0.032067	0.776298	0.129489	-0.581407	0.206303	-7.619439	-72.963256	35.403025
39313		5.764821	-0.455578	2.492985	-0.551404	-0.554448	-3.564195	0.553111	-0.523471	0.018366	-0.906494	-0.269775	-0.692383	0.143712	-0.011791	0.063185	0.771440	0.135997	-0.585171	0.209668	-7.284436	-73.714583	35.874050
39314		7.548161	-1.423585	0.945157	1.475961	-0.498865	-2.232419	0.655011	-1.632951	0.145243	-0.935059	-0.277588	-0.650391	0.188238	-0.035460	0.027184	0.757733	0.145435	-0.599412	0.213059	-8.332148	-76.015562	37.925886
39315		9.399273	-2.080692	-0.604065	3.213046	-0.162748	-0.719617	0.853937	-1.346556	0.153048	-0.956787	-0.291748	-0.603760	0.235297	-0.051430	-0.011694	0.745450	0.155871	-0.610158	0.218439	-9.383219	-77.899527	40.255025
39316		10.461066	-1.402773	-0.953456	3.141685	0.678487	0.285774	0.716311	-0.549951	0.071729	-0.967529	-0.301025	-0.590576	0.261715	-0.034630	-0.022349	0.739527	0.163435	-0.613541	0.223509	-9.533923	-78.671934	41.452351
39317		10.961047	-0.666892	0.077525	1.940888	0.845287	0.962889	0.514925	0.303441	0.009987	-0.958008	-0.311768	-0.594971	0.274033	-0.016646	0.000792	0.740666	0.167207	-0.609416	0.228185	-8.595715	-78.252713	41.242693
39318		10.271306	-0.258085	1.081951	0.862461	0.617308	0.464043	0.194058	0.389269	-0.006819	-0.957520	-0.318604	-0.594971	0.256910	-0.006538	0.025783	0.743145	0.167885	-0.605352	0.230432	-7.957902	-77.714865	40.869919
39319		10.728492	0.942422	0.899329	0.354270	1.739567	0.847503	-0.066543	-1.021308	0.045742	-0.980225	-0.312744	-0.566162	0.267883	0.023734	0.025885	0.735271	0.169795	-0.615194	0.228215	-9.522461	-79.163779	42.365094
39320		11.326376	0.786976	-1.743373	2.356572	2.892862	1.050000	0.075720	-1.920245	0.106152	-1.000488	-0.311523	-0.513184	0.284070	0.020088	-0.036754	0.719735	0.175049	-0.632789	0.225651	-13.696554	-81.841749	46.701512
39321		12.232321	-0.679202	-1.034876	2.397837	1.252891	2.180745	0.262235	-0.144444	0.073600	-0.995605	-0.318115	-0.510986	0.305870	-0.016615	-0.025375	0.717708	0.177181	-0.633624	0.228085	-14.496216	-82.029140	47.884298
39322		11.250224	-1.247627	5.542820	-2.289555	-2.541573	2.310974	0.536173	4.395452	0.053605	-0.919434	-0.321533	-0.621582	0.288309	-0.031857	0.122642	0.749969	0.168720	-0.591958	0.242210	-7.917027	-75.843527	41.968695
39323		10.599015	6.272587	16.229249	-14.609387	-1.785021	4.274410	0.503717	0.868029	0.806879	-0.938477	-0.300049	-0.603760	0.267781	0.156959	0.403824	0.752697	0.164768	-0.584044	0.255324	-10.786785	-74.441240	45.679065
39324		15.677539	6.461244	3.144953	-3.988986	6.599633	5.607468	-1.027228	-2.948019	2.079343	-0.988525	-0.237549	-0.566162	0.384350	0.172703	0.090714	0.725744	0.149117	-0.618796	0.261059	-29.341754	-77.430014	63.272268
39325		8.039063	-2.483648	6.254447	-2.737851	-3.429668	-0.296044	-0.801487	3.646522	1.379576	-0.939697	-0.186523	-0.656982	0.208851	-0.057026	0.147547	0.749945	0.119070	-0.590257	0.273864	-27.767990	-71.904246	60.449255
39326		7.109556	-6.672768	9.563087	-3.458210	-8.511755	0.288668	-0.617793	-3.147884	0.576021	-1.005615	-0.164795	-0.561768	0.169305	-0.163692	0.247123	0.724959	0.119671	-0.622343	0.269820	-39.526129	-75.222846	71.774272
39327		12.349996	-4.964822	-2.455993	5.151805	-0.163963	2.696295	0.202759	-4.489670	0.069901	-1.069824	-0.176270	-0.458008	0.311664	-0.123722	-0.044271	0.688270	0.135887	-0.661538	0.264927	-61.757950	-79.306653	94.834626
39328		12.460895	-1.575416	-5.225873	5.100731	3.866706	2.191245	0.966014	0.367088	-0.299793	-1.055176	-0.197754	-0.482178	0.310771	-0.038958	-0.132546	0.690517	0.145370	-0.654713	0.270934	-56.889166	-79.405080	91.280242
39329		10.281637	0.902264	-0.066402	0.047060	2.973071	0.064322	0.986805	5.006786	-0.350731	-0.971924	-0.214355	-0.617188	0.256374	0.021582	-0.017456	0.729371	0.139431	-0.606323	0.284515	-32.088903	-74.538533	67.307471
39330		3.955445	2.819907	6.487657	-6.339306	-0.252789	-4.770836	0.298598	2.293288	-0.167741	-0.944580	-0.224365	-0.648193	0.103632	0.069685	0.159527	0.746429	0.135171	-0.583922	0.289151	-25.766284	-71.783374	61.146912
39331		6.988661	2.931348	2.128302	-2.537761	2.974737	-2.981933	0.065737	-2.315506	0.083688	-0.989746	-0.215088	-0.590576	0.173001	0.073419	0.058292	0.728709	0.143457	-0.605288	0.286409	-31.332501	-74.651108	67.054394
39332		7.929667	1.541781	-0.162256	0.037592	3.256526	-2.418322	-0.405634	-0.016817	0.075326	-0.989990	-0.210693	-0.604004	0.198206	0.038710	-0.004211	0.728939	0.139222	-0.607125	0.284014	-32.349073	-74.621875	67.503204
39333		5.635761	0.181006	2.473593	-1.461372	0.242641	-3.836443	-0.802447	1.238712	-0.095973	-0.961670	-0.196289	-0.634766	0.141834	0.004961	0.059600	0.739879	0.128151	-0.598524	0.279151	-29.963375	-73.179863	63.815440
39334		5.337669	0.152758	2.344064	-1.362215	0.247579	-4.147837	-0.664962	-0.851853	-0.275612	-0.979736	-0.192383	-0.610596	0.132821	0.003855	0.059986	0.735374	0.126992	-0.608326	0.270255	-31.963364	-74.436702	64.902611
39335		7.145008	-0.385163	-0.409400	1.255604	1.527191	-2.924282	-0.906702	-1.658538	-0.310377	-1.004639	-0.182373	-0.581787	0.178745	-0.010410	-0.006415	0.724951	0.126554	-0.626067	0.257817	-37.127028	-76.653589	68.889661
39336		9.095103	-1.039370	-2.008042	2.937112	2.021780	-1.145808	-0.794773	-0.830490	-0.209470	-1.011719	-0.176025	-0.563965	0.227811	-0.027062	-0.047572	0.720220	0.123618	-0.635857	0.248371	-40.592162	-77.773884	71.271358
39337		11.773522	-1.152915	0.132401	1.300265	1.298214	1.874324	-0.478179	0.083319	-0.196862	-1.007568	-0.169189	-0.568604	0.294269	-0.029528	0.003179	0.722130	0.120576	-0.636376	0.242931	-39.994699	-77.870666	69.955051
39338		11.825584	-1.789077	0.706218	1.160213	0.442812	2.103753	-0.384625	0.060945	-0.206553	-1.009766	-0.169189	-0.575195	0.295536	-0.045405	0.017648	0.723723	0.118516	-0.636778	0.238102	-39.292687	-77.997818	68.668796
39339		11.838257	-1.950033	0.384417	1.452524	0.364915	2.097310	-0.412814	-0.623261	-0.181006	-1.010254	-0.160400	-0.555176	0.295757	-0.049362	0.012169	0.719792	0.118026	-0.643451	0.232250	-41.833595	-78.850184	70.653662
39340		11.665785	-1.801546	1.553325	0.411438	-0.103211	2.085268	-0.433963	1.089961	-0.203165	-0.988037	-0.159424	-0.599365	0.292025	-0.045583	0.035102	0.729621	0.112526	-0.634642	0.228518	-36.652622	-77.829491	64.723393
39341		10.096326	-3.453398	7.467613	-3.711405	-4.318731	1.898952	-0.352804	2.297503	-0.333072	-0.938721	-0.159912	-0.645996	0.257277	-0.086597	0.179729	0.748899	0.105282	-0.614061	0.225821	-28.140858	-75.304856	55.449477
39342		9.125952	-4.804593	8.589374	-3.931103	-6.187423	1.429959	0.264917	-0.551348	-0.818087	-0.962158	-0.185303	-0.617188	0.225415	-0.123143	0.215890	0.746488	0.115530	-0.617450	0.219464	-25.050574	-76.543549	52.648869
39343		11.895873	-5.319162	5.134395	-0.217911	-4.988799	3.271914	0.373896	-0.356364	-1.475980	-0.948486	-0.235840	-0.623779	0.294295	-0.139030	0.129035	0.747025	0.131312	-0.617600	0.208042	-16.696392	-77.785316	44.626391
39344		7.780052	1.734107	7.569887	-6.088564	-0.856647	-0.700964	0.287731	0.566356	-1.359113	-0.939941	-0.268799	-0.628174	0.196526	0.039348	0.188007	0.754255	0.142938	-0.609319	0.198489	-6.913491	-77.397566	35.028191
39345		13.128954	5.251260	4.113991	-4.006062	4.089801	3.753176	-0.097542	-2.537297	-0.701174	-0.979736	-0.279297	-0.568359	0.325880	0.128552	0.113054	0.736366	0.153523	-0.631985	0.186523	-3.588639	-81.120733	31.500128
39346		13.604418	2.915672	0.044169	0.347302	3.621071	3.616746	-0.076258	-0.304906	-0.055655	-0.977783	-0.274902	-0.570801	0.340154	0.072657	0.002331	0.734155	0.153923	-0.634946	0.184842	-3.412385	-81.572300	31.208197
39347		10.736150	-1.822819	0.549556	1.777130	-0.954452	0.902543	-0.587534	0.821181	0.391156	-0.965088	-0.258789	-0.603760	0.268746	-0.044168	0.011309	0.740766	0.143464	-0.629549	0.185346	-7.142211	-80.359088	34.128469
39348		7.691149	-4.485452	0.651153	2.598827	-3.486888	-2.016432	-0.480339	1.167837	0.342544	-0.950195	-0.242432	-0.632568	0.192973	-0.111222	0.014135	0.749859	0.133540	-0.620465	0.186821	-9.222100	-78.642673	35.539189
39349		5.694435	-3.987340	1.951526	1.017194	-3.720585	-3.708978	-0.169087	0.855278	0.128293	-0.944092	-0.235596	-0.654785	0.143033	-0.099353	0.047472	0.756362	0.128891	-0.613110	0.188147	-9.437654	-77.413409	35.506806
39350		5.939131	-2.278946	1.956537	0.331767	-2.133065	-3.517070	0.101044	-0.222091	-0.018851	-0.947998	-0.246826	-0.643799	0.148328	-0.057071	0.049253	0.754469	0.130445	-0.615031	0.188406	-9.465304	-77.740952	35.677838
39351		8.283011	-0.306893	1.304061	0.308363	0.141383	-1.429194	0.267405	-1.175795	0.080623	-0.968018	-0.245361	-0.614990	0.206574	-0.007580	0.035615	0.744646	0.135039	-0.625642	0.189310	-11.198146	-79.386693	37.831951
39352		8.021676	-1.148705	-0.816218	2.350210	0.234672	-2.018241	0.607142	-0.608117	0.134960	-0.983154	-0.257080	-0.601563	0.200738	-0.028231	-0.019096	0.738431	0.141000	-0.630148	0.194299	-12.441046	-80.208804	39.973443
39353		7.569902	-1.516869	0.142250	1.623559	-0.533531	-2.282603	0.939159	0.569774	0.166375	-0.971436	-0.265625	-0.614990	0.189343	-0.037556	0.001766	0.740717	0.146897	-0.622934	0.204238	-11.518871	-79.370104	40.398446
39354		7.459177	-1.350325	1.270775	0.634064	-0.872906	-2.202611	0.778095	0.179749	0.127464	-0.970703	-0.281250	-0.599365	0.186603	-0.033765	0.031022	0.740260	0.152554	-0.619582	0.211801	-11.149674	-79.090262	41.148603
39355		8.706465	-1.247396	-0.191370	1.961109	0.072044	-1.237023	0.358520	-0.755875	0.087039	-0.990479	-0.286377	-0.583984	0.217728	-0.030932	-0.002866	0.733374	0.157130	-0.625857	0.213953	-12.586512	-80.134055	43.126912
39356		10.244520	-0.288748	-0.171235	1.519262	1.007557	0.273848	0.150369	-0.502377	0.014505	-0.994873	-0.291016	-0.570801	0.256135	-0.007166	-0.002686	0.729023	0.159651	-0.630176	0.214277	-13.544404	-80.839199	44.308561
39357		11.213579	0.128735	0.534738	0.717353	1.056692	1.341451	-0.056117	-0.362039	-0.054980	-1.003662	-0.291260	-0.559570	0.280277	0.003036	0.014635	0.726351	0.160456	-0.633612	0.212612	-14.013357	-81.370451	44.693652
39358		11.597252	0.224817	-0.953163	1.829171	1.811671	1.537243	-0.020416	-0.941804	-0.133070	-1.016846	-0.294189	-0.528564	0.290194	0.005132	-0.020415	0.719162	0.163729	-0.642009	0.209340	-15.263040	-82.732790	45.917452
39359		13.084010	-0.670905	-2.069695	3.028527	1.511456	3.010776	-0.101760	-1.725686	-0.026708	-1.041504	-0.292969	-0.488770	0.328109	-0.016942	-0.044650	0.705348	0.167419	-0.657687	0.204701	-22.763237	-85.095440	53.303420
39360		14.163168	-1.574519	-1.635620	3.011219	0.502014	4.202548	0.355575	0.527958	0.013678	-1.023193	-0.305420	-0.517578	0.353805	-0.039113	-0.043400	0.708810	0.168998	-0.652239	0.208837	-19.639579	-84.391236	50.669487
39361		12.855531	-2.361308	4.385395	-1.017394	-2.876269	3.623398	0.369513	4.891423	0.012859	-0.942627	-0.306641	-0.634766	0.327281	-0.059425	0.089462	0.746446	0.158999	-0.606879	0.221892	-8.538472	-77.571588	39.976800
39362		11.616030	6.682796	13.759359	-12.965804	0.407611	4.351455	0.511734	1.104955	0.657275	-0.956543	-0.296143	-0.625977	0.293751	0.167286	0.341012	0.751803	0.155612	-0.596479	0.234074	-10.680223	-75.863898	42.921338
39363		11.947548	3.846695	1.091487	-1.136110	4.722125	1.810996	-0.505752	-1.591663	1.388158	-0.976563	-0.256836	-0.621582	0.296345	0.101518	0.032569	0.736512	0.145028	-0.615496	0.240169	-22.271047	-77.501926	54.076303
39364		6.445151	-0.773591	5.716824	-3.337902	-2.171160	-2.137001	-0.264864	3.416843	0.887748	-0.924072	-0.232422	-0.705566	0.167233	-0.017048	0.135922	0.759821	0.125289	-0.585953	0.252258	-20.468124	-72.487048	51.810329
39365		3.986838	-3.189141	7.464362	-3.877380	-5.386500	-3.670688	-0.380336	-1.596314	0.635753	-0.974609	-0.207520	-0.650391	0.096541	-0.078058	0.188930	0.746469	0.121948	-0.603263	0.252956	-26.929759	-74.223453	57.976254
39366		10.208168	-3.515815	0.296039	2.671495	-0.927897	0.608041	-0.072782	-3.436647	0.381890	-1.028564	-0.198730	-0.570801	0.254986	-0.086664	0.018439	0.718699	0.129061	-0.635659	0.250504	-39.980920	-78.057567	71.292396
39367		11.477306	-2.384452	-2.723651	4.346887	1.610408	1.293320	0.364295	0.042288	-0.197923	-1.023438	-0.214111	-0.586182	0.286748	-0.060010	-0.068516	0.718989	0.133691	-0.633904	0.251690	-38.305790	-78.191439	70.105723
39368		9.477025	0.706484	0.339572	0.323748	2.381237	-0.614269	0.403123	3.006101	-0.424719	-0.962158	-0.229492	-0.663574	0.237113	0.016390	-0.000335	0.742869	0.131044	-0.604552	0.255909	-26.050841	-74.857013	58.096947
39369		6.247749	3.507944	5.499611	-5.499878	1.587213	-2.826097	0.003683	1.127318	-0.275634	-0.957764	-0.231445	-0.685791	0.158411	0.087149	0.135272	0.752116	0.129463	-0.593659	0.255203	-22.481275	-73.552748	54.384619
39370		7.494322	3.174744	1.794502	-2.093686	3.404942	-2.499803	-0.178825	-1.742137	0.024639	-0.989014	-0.228271	-0.634766	0.186300	0.079532	0.048750	0.739153	0.133050	-0.610601	0.251232	-26.701547	-75.814519	58.485436
39371		8.457808	1.198777	0.561053	-0.076313	2.472625	-1.617220	-0.477555	-0.563972	0.086583	-0.991943	-0.217041	-0.634766	0.211308	0.030287	0.015336	0.735272	0.129669	-0.617524	0.247437	-29.428551	-76.474576	60.581283
39372		7.729536	-0.273184	2.360139	-0.913364	0.222331	-1.781162	-0.729808	0.678598	-0.044936	-0.981201	-0.207764	-0.654785	0.193726	-0.006410	0.057421	0.741708	0.121128	-0.613520	0.242468	-28.409601	-75.660285	58.446119
39373		7.033997	-1.049640	1.444329	0.152854	-0.134010	-2.558591	-0.857246	-0.670432	-0.146703	-0.995361	-0.192871	-0.636963	0.175489	-0.026164	0.037861	0.738173	0.116253	-0.622147	0.233493	-30.879633	-76.604168	59.717161
39374		7.786996	-0.898483	-1.149925	2.190704	1.205057	-2.295871	-0.579575	-1.928806	-0.191190	-1.026855	-0.187500	-0.594971	0.195235	-0.023113	-0.023879	0.724270	0.117909	-0.641249	0.224342	-37.974117	-79.045820	66.115372
39375		9.246887	-0.412751	-1.846683	2.433172	2.011964	-0.918226	-0.577691	-1.057024	-0.167071	-1.033691	-0.183350	-0.572998	0.231732	-0.011121	-0.043029	0.716964	0.116892	-0.652211	0.216609	-43.312281	-80.354590	70.691070
39376		11.170229	-0.466800	-1.355275	2.121224	1.991141	1.066723	-0.514998	0.672182	-0.046977	-1.018555	-0.173828	-0.597168	0.278951	-0.012062	-0.036150	0.723212	0.110756	-0.647572	0.212950	-40.205891	-79.683914	66.779479
39377		11.399130	-0.419560	0.359451	0.864803	1.448955	1.473694	-0.436099	1.534769	0.039507	-0.996826	-0.164063	-0.634766	0.285087	-0.010319	0.003574	0.735917	0.102310	-0.634884	0.211852	-34.405416	-77.902627	60.221807
39378		11.179166	-1.064485	1.911927	-0.012792	0.333662	1.573662	-0.359508	0.544408	0.075422	-0.986328	-0.152344	-0.650391	0.279821	-0.026139	0.046013	0.740400	0.096884	-0.631002	0.210375	-33.423834	-77.200673	58.680610
39379		11.138748	-2.707319	0.404988	1.966832	-0.543938	1.474196	-0.110600	-1.029966	-0.065105	-1.006104	-0.155518	-0.619385	0.278252	-0.067892	0.013802	0.732445	0.098998	-0.640792	0.207629	-37.258543	-78.463944	62.432424
39380		11.860800	-2.043743	-1.854821	3.462884	0.919869	1.825232	0.196496	-1.523320	-0.263774	-1.030273	-0.163086	-0.577393	0.297162	-0.051968	-0.040843	0.720470	0.106766	-0.653880	0.204856	-43.053466	-80.382172	68.604082
39381		12.847795	-0.830826	-2.658978	3.510710	2.314735	2.642897	-0.042176	-0.304168	-0.291684	-1.021240	-0.167236	-0.581787	0.321366	-0.021977	-0.065241	0.718697	0.109469	-0.656432	0.201465	-43.167789	-80.989499	68.649859
39382		12.632410	-0.321530	0.374507	1.035760	1.610163	2.679384	-0.150671	3.539450	-0.154897	-0.952148	-0.164551	-0.685791	0.315796	-0.008650	-0.004596	0.747543	0.100291	-0.624277	0.203470	-27.445575	-76.946462	52.416583
39383		7.808912	-2.780592	11.750649	-7.681802	-5.522312	1.006045	-0.144604	4.837400	-0.205242	-0.871338	-0.167969	-0.778564	0.212316	-0.069529	0.281393	0.784527	0.087986	-0.578183	0.206108	-17.610553	-70.642653	41.967668
39384		7.321488	-6.086157	8.793270	-3.478871	-7.426192	0.219996	0.378214	-2.605476	-0.888951	-0.932373	-0.199219	-0.703369	0.174054	-0.155177	0.224870	0.767028	0.104699	-0.601532	0.197141	-16.748855	-74.593586	41.624099
39385		9.237706	-4.158936	3.368547	0.869666	-3.552522	0.216357	0.484307	1.252803	-1.388215	-0.876709	-0.241699	-0.749756	0.230361	-0.108467	0.079955	0.778945	0.116579	-0.586438	0.189062	-8.014782	-73.273044	33.250096
39386		3.979007	0.138229	9.659041	-7.424898	-3.223336	-3.207772	0.418910	0.409292	-1.113005	-0.886475	-0.268799	-0.736572	0.100732	0.000797	0.240972	0.783806	0.127747	-0.579870	0.181880	-2.073465	-72.839044	27.658061
39387		13.167308	3.897324	3.657476	-2.032104	3.402386	3.827322	0.141817	-4.369383	-0.544788	-0.959717	-0.280518	-0.636963	0.324185	0.095030	0.109410	0.751914	0.142728	-0.620678	0.170334	0.969110	-79.117058	24.727410
39388		14.391657	3.403680	-3.334712	3.730076	5.578440	3.780492	0.450174	-1.138084	0.183742	-0.979492	-0.285645	-0.623779	0.360727	0.086368	-0.077757	0.741741	0.147849	-0.630760	0.173503	0.161744	-80.760208	26.193489
39389		10.011122	-0.832426	-0.795967	2.782768	0.524620	-0.143715	0.108885	2.729969	0.564523	-0.928467	-0.279297	-0.692383	0.249543	-0.019013	-0.028451	0.761326	0.138314	-0.605972	0.184527	-3.281013	-76.837801	29.851276
39390		5.314939	-2.883345	4.198212	-1.226177	-3.709844	-3.574588	-0.046047	1.513134	0.515149	-0.913818	-0.260986	-0.712158	0.135287	-0.071158	0.102453	0.771464	0.130374	-0.592548	0.191658	-5.624025	-74.629785	32.191655
39391		5.662396	-2.871921	2.082665	0.668178	-2.680303	-3.728738	-0.015903	-1.307691	0.290077	-0.941162	-0.250732	-0.679199	0.140943	-0.071276	0.054388	0.760937	0.131102	-0.605683	0.192184	-8.167027	-76.449861	34.785326
39392		7.332970	-2.143681	0.219977	2.109385	-1.055737	-2.542907	0.241234	-0.994446	0.100588	-0.953857	-0.262451	-0.663574	0.183306	-0.053382	0.007617	0.752644	0.134926	-0.614774	0.193326	-9.458472	-77.844964	36.455642
39393		8.049920	-0.620148	0.552214	1.158485	0.209145	-1.806134	0.691209	-0.124983	0.045368	-0.960205	-0.267090	-0.650391	0.201235	-0.015510	0.013986	0.750314	0.141290	-0.614431	0.198851	-8.963029	-78.020678	36.952846
39394		7.524600	-1.080425	-0.090009	1.821493	0.027646	-2.431878	0.904282	-0.275989	0.057951	-0.968506	-0.282959	-0.639160	0.188141	-0.026852	-0.001905	0.746334	0.149914	-0.614932	0.205841	-8.409257	-78.408693	37.701675
39395		7.981981	-2.036331	-0.542781	2.721146	-0.528731	-2.036506	1.029906	-0.373186	0.030400	-0.971680	-0.305420	-0.621582	0.199631	-0.050660	-0.013292	0.741319	0.160148	-0.615866	0.213325	-7.584855	-78.942108	38.356759
39396		8.530418	-1.201472	-0.413086	2.280654	0.210179	-1.497871	1.042980	0.205962	-0.053106	-0.975342	-0.325684	-0.623779	0.213212	-0.030036	-0.011268	0.740823	0.169573	-0.611123	0.221256	-5.602327	-78.668461	37.850049
39397		9.739005	0.091833	0.201599	1.327115	1.158121	-0.231747	0.642309	0.285790	-0.050564	-0.961426	-0.333984	-0.623779	0.243492	0.002106	0.004188	0.741686	0.175026	-0.606680	0.226292	-4.218818	-78.278078	37.368277
39398		11.479712	0.393074	1.043437	0.735298	1.169481	1.637984	0.219018	-0.331095	0.096407	-0.972168	-0.341064	-0.605957	0.286869	0.010099	0.027301	0.738341	0.177175	-0.609445	0.228119	-4.828809	-78.751581	38.302029
39399		12.780244	0.875040	0.201511	1.144163	2.102967	2.772976	-0.128579	-1.091119	0.234124	-0.992920	-0.330811	-0.583984	0.319332	0.022823	0.009358	0.729498	0.177216	-0.620453	0.226858	-7.813387	-80.280029	41.140909
39400		12.513314	0.743023	-1.944834	2.656329	3.031613	2.214965	-0.113401	-0.827507	0.315647	-1.000000	-0.322266	-0.561768	0.313237	0.019745	-0.045410	0.722315	0.175987	-0.629094	0.227004	-12.086061	-81.381186	45.295281
39401		12.636702	-1.184530	-2.611248	4.049812	1.757318	2.369892	-0.144034	-0.561273	0.313118	-1.018311	-0.314209	-0.541992	0.316478	-0.028490	-0.063010	0.717225	0.173730	-0.635354	0.227446	-16.748992	-82.059375	49.789827
39402		13.401268	-1.663996	-0.052561	2.416741	0.245932	3.469899	0.122969	1.981753	0.110505	-0.980225	-0.316895	-0.603760	0.334918	-0.041127	-0.009676	0.732077	0.168188	-0.617406	0.233636	-13.134083	-79.285828	46.297093
39403		10.743911	-1.151629	8.710481	-4.605674	-3.811312	2.705368	0.206678	4.356685	-0.023647	-0.901611	-0.322754	-0.698975	0.279903	-0.029409	0.202644	0.764152	0.157214	-0.576115	0.243816	-8.070665	-73.164856	41.386831
39404		12.462563	8.382422	12.363804	-12.137634	2.820730	5.124726	0.278469	-1.148276	0.789182	-0.951904	-0.300293	-0.645996	0.304998	0.211503	0.314238	0.752732	0.157587	-0.587814	0.251067	-12.592194	-74.593158	46.498950
39405		12.100122	3.059641	1.148792	-0.467788	4.508864	1.871398	-0.975778	0.685823	1.531807	-0.928223	-0.241455	-0.701172	0.301186	0.082588	0.025151	0.754592	0.134882	-0.587380	0.259582	-20.333793	-73.036296	53.094543
39406		3.791666	-1.299597	10.535572	-7.205401	-5.264423	-2.929006	-1.194024	2.200422	0.934380	-0.912109	-0.202881	-0.734375	0.102335	-0.027415	0.261078	0.769234	0.109480	-0.571860	0.263190	-22.380542	-69.622152	53.440157
39407		8.847775	-4.489097	4.085120	0.345069	-3.395084	0.354788	-0.838182	-4.153674	0.631255	-0.989990	-0.166016	-0.632568	0.216329	-0.109350	0.114604	0.737450	0.110348	-0.614682	0.257212	-34.898959	-74.441924	65.314280
39408		12.222227	-4.810897	-2.782382	6.000152	0.164802	2.196422	-0.073152	-1.579475	0.126548	-1.014648	-0.166748	-0.617188	0.307038	-0.119847	-0.063397	0.724785	0.113683	-0.629632	0.255590	-40.906021	-76.121923	71.407291
39409		10.064592	-1.651523	-1.640827	3.263142	1.800317	-0.179415	0.386371	2.147065	-0.221117	-0.967041	-0.178467	-0.670166	0.250275	-0.041761	-0.047951	0.741495	0.111945	-0.608499	0.259582	-32.599221	-73.845536	63.373758
39410		6.340323	1.268402	2.950355	-2.186273	1.297654	-3.176679	0.250680	2.228443	-0.305059	-0.930908	-0.188232	-0.707764	0.160601	0.030878	0.069402	0.758713	0.109238	-0.586470	0.261679	-26.094273	-71.279299	56.925314
39411		6.019552	2.568479	2.825298	-2.665353	2.428496	-3.663496	-0.319494	-0.387361	-0.132293	-0.942627	-0.175293	-0.701172	0.150251	0.064247	0.071104	0.756648	0.108372	-0.591106	0.257551	-26.833811	-71.867821	57.213738
39412		6.829594	2.332140	0.661532	-0.623162	3.449687	-3.469886	-0.572608	-0.272487	0.069343	-0.941162	-0.161865	-0.705566	0.170632	0.058571	0.016701	0.755087	0.103244	-0.595710	0.253601	-28.533984	-72.174197	58.129946
39413		5.657174	1.060814	2.185798	-1.430018	1.430329	-3.997703	-0.865664	0.757256	0.074882	-0.924072	-0.145508	-0.721191	0.141911	0.027233	0.053011	0.761455	0.092033	-0.591447	0.248812	-28.541248	-71.176619	56.822480
39414		5.313348	-0.092525	3.110391	-1.719787	0.017542	-3.900326	-0.991138	-0.412730	-0.053000	-0.940918	-0.121826	-0.707764	0.132429	-0.001432	0.078465	0.759566	0.084197	-0.598446	0.240482	-30.681265	-71.734627	57.573454
39415		6.951339	-0.415567	0.809458	0.535297	1.067532	-2.905024	-0.846724	-1.606735	-0.219877	-0.967773	-0.118408	-0.679199	0.173300	-0.010626	0.023832	0.748824	0.082537	-0.615961	0.230307	-35.129888	-73.844758	60.951215
39416		8.827897	-0.940405	-1.204240	2.558802	1.707175	-1.398709	-1.155327	-1.326303	-0.276103	-0.984619	-0.094727	-0.650391	0.221068	-0.024669	-0.026092	0.740339	0.077575	-0.631362	0.217399	-39.931659	-75.597709	64.204083
39417		11.329536	-1.419294	-1.397114	3.066975	1.762835	1.133080	-0.866004	-0.136011	-0.181780	-0.980713	-0.083496	-0.648193	0.283215	-0.036498	-0.034055	0.740475	0.071277	-0.634859	0.208733	-40.954970	-75.918579	63.970593
39418		12.624456	-1.432524	0.610872	1.465981	1.264546	2.759119	-0.652409	0.733195	-0.131386	-0.968018	-0.069580	-0.670166	0.315676	-0.036221	0.012673	0.747083	0.064281	-0.629712	0.202972	-38.774420	-75.237101	60.744824
39419		12.078321	-1.276680	1.033718	1.070508	1.155604	2.274610	-0.334327	0.154729	-0.109560	-0.968018	-0.069580	-0.661377	0.301963	-0.032224	0.025393	0.748760	0.061549	-0.629123	0.199434	-38.328096	-75.166670	59.778630
39420		11.911657	-3.102191	-0.457307	3.025664	-0.097900	2.126815	-0.266386	-0.685770	-0.126830	-0.974854	-0.065430	-0.650391	0.297750	-0.078059	-0.008621	0.743769	0.061705	-0.636186	0.195621	-40.660150	-76.046654	61.785886
39421		11.638681	-3.412399	1.715814	1.219287	-1.191907	2.316784	-0.341280	1.580058	-0.285357	-0.930420	-0.059326	-0.694580	0.291437	-0.086181	0.037509	0.757052	0.056865	-0.622086	0.191435	-34.709580	-74.509542	55.122015
39422		9.868009	-5.006217	11.995845	-7.314876	-6.115560	3.428258	-0.434547	3.166693	-0.477473	-0.876465	-0.068359	-0.758789	0.257579	-0.125076	0.290522	0.782423	0.048775	-0.592431	0.185637	-26.091598	-70.939043	45.443346
39423		8.457289	-7.096787	9.012342	-3.908511	-7.513252	1.648128	0.423409	-1.605731	-0.956538	-0.919678	-0.098877	-0.714600	0.204716	-0.181098	0.228511	0.772192	0.063642	-0.606499	0.178402	-24.749298	-73.612570	44.664185
39424		11.084093	-5.905645	6.487127	-1.418300	-5.572108	3.099338	0.825412	0.475830	-1.631844	-0.892090	-0.157959	-0.734375	0.274944	-0.154916	0.158965	0.778494	0.082830	-0.598696	0.169262	-15.301252	-73.781225	36.047315
39425		5.946356	1.484192	9.689317	-7.911397	-1.030629	-1.579726	0.667408	-0.162732	-1.309377	-0.907959	-0.198486	-0.712158	0.148724	0.032647	0.242820	0.779154	0.099379	-0.597504	0.161346	-8.111950	-74.400140	29.560354
39426		13.826891	4.586023	4.917307	-3.477801	4.030070	4.606004	0.456089	-3.632776	-0.433015	-0.965332	-0.211914	-0.621582	0.340210	0.112036	0.139112	0.751443	0.114206	-0.630865	0.155883	-8.011541	-79.648479	30.122959
39427		14.894802	1.943591	-1.822760	3.028982	3.771560	4.523934	0.309314	-1.146284	0.187766	-0.978760	-0.212402	-0.617188	0.372854	0.049626	-0.040038	0.741447	0.117792	-0.641307	0.158452	-10.801166	-81.233901	33.396575
39428		10.953061	-2.147359	-1.682848	4.001792	-0.269358	0.737002	-0.070365	2.149003	0.400733	-0.938965	-0.201904	-0.670166	0.272830	-0.052357	-0.049363	0.757641	0.109563	-0.621968	0.164717	-10.878644	-78.111557	33.367349
39429		6.493769	-3.780895	4.420991	-1.218223	-4.278776	-2.316357	0.101459	2.523921	0.260676	-0.899170	-0.193604	-0.723389	0.166027	-0.094121	0.105205	0.776138	0.103178	-0.597996	0.171362	-9.646130	-74.496955	32.243008
39430		5.649201	-3.063802	3.294671	-0.497028	-3.244393	-3.379841	0.257605	-0.555234	-0.065868	-0.916748	-0.201172	-0.698975	0.140592	-0.076978	0.083097	0.771708	0.107283	-0.602819	0.171949	-9.468211	-75.306149	32.434620
39431		7.968539	-1.162988	0.781947	1.428469	-0.305622	-1.854870	0.512298	-0.548797	-0.081641	-0.925049	-0.210205	-0.692383	0.199044	-0.029408	0.020727	0.766960	0.113943	-0.606966	0.174303	-8.820868	-76.110047	32.518196
39432		7.382074	-0.216778	1.068496	0.654210	0.364933	-2.388257	0.800103	0.313538	0.237483	-0.920166	-0.223389	-0.698975	0.184670	-0.005133	0.025936	0.767569	0.119046	-0.602609	0.183106	-8.787285	-75.623325	33.658948
39433		5.768125	-0.657804	1.501979	0.141536	-0.390870	-3.830463	0.887704	-0.087787	0.471356	-0.928955	-0.226074	-0.683594	0.144257	-0.016012	0.037528	0.764381	0.124130	-0.602166	0.194190	-10.246665	-75.644900	36.471722
39434		5.657447	-1.369139	1.697026	0.242179	-1.087992	-3.852945	0.726398	-0.271601	0.584513	-0.937744	-0.228516	-0.672363	0.141539	-0.033581	0.042599	0.759665	0.127250	-0.603955	0.204827	-12.796539	-75.868074	40.169772
39435		7.010276	-1.534362	0.670570	1.387140	-0.534549	-2.760246	0.510145	-0.611469	0.459134	-0.948730	-0.229004	-0.661377	0.175340	-0.037464	0.017863	0.752941	0.130117	-0.609240	0.212074	-15.595920	-76.564799	43.798682
39436		9.287799	-1.365358	0.083811	2.065351	0.258376	-0.658446	0.302925	-0.620834	0.287786	-0.964355	-0.231689	-0.643799	0.232291	-0.033311	0.003771	0.746853	0.132349	-0.614816	0.216090	-18.030537	-77.304986	46.737474
39437		10.795817	-0.299931	1.461527	0.508495	0.796834	1.044667	0.284954	-0.012387	0.105992	-0.961914	-0.236084	-0.639160	0.269899	-0.007271	0.036554	0.745926	0.134145	-0.614431	0.219256	-18.350661	-77.281958	47.476102
39438		11.550611	1.470785	2.018623	-0.825937	2.154977	1.777183	-0.058535	-0.702140	0.007098	-0.981934	-0.234863	-0.608398	0.288304	0.036833	0.052970	0.740513	0.135383	-0.621226	0.217695	-20.071100	-78.235923	49.142727
39439		12.068086	1.480222	-1.014245	1.538274	3.488429	1.776065	-0.500523	-1.823405	-0.069771	-1.009277	-0.227051	-0.575195	0.302211	0.036611	-0.018701	0.727109	0.136138	-0.639273	0.210022	-25.852694	-80.689455	54.285134
39440		11.783225	-0.001723	-2.744718	3.441099	2.749429	1.455557	-0.138427	-0.682982	-0.226322	-1.012939	-0.240479	-0.563965	0.295150	-0.000993	-0.066099	0.722376	0.138396	-0.645533	0.205685	-27.088402	-81.716521	55.326662
39441		11.718890	-2.541012	-0.922553	3.130200	-0.385240	1.792708	0.069800	1.012582	-0.330183	-0.999512	-0.244385	-0.590576	0.292383	-0.064711	-0.026823	0.731137	0.139000	-0.635685	0.204994	-20.532778	-80.586495	48.785711
39442		10.725383	-4.286682	3.951937	0.188716	-4.109169	1.677834	0.613774	3.086176	-0.290137	-0.937988	-0.266357	-0.665771	0.271264	-0.108848	0.087541	0.754688	0.138818	-0.605024	0.212416	-11.702129	-76.454442	40.669630
39443		9.878371	0.448324	13.091167	-9.374538	-4.151984	2.993518	0.803010	1.688133	0.293247	-0.926270	-0.274902	-0.672363	0.253757	0.008880	0.322069	0.765009	0.139580	-0.587407	0.224125	-10.403878	-74.009942	40.508678
39444		15.204396	7.184790	4.337567	-4.741692	6.774253	5.454290	-0.140858	-2.913751	1.499030	-0.982178	-0.232422	-0.623779	0.372379	0.186854	0.121774	0.738947	0.135202	-0.617884	0.232158	-23.540963	-77.407003	53.840076
39445		9.646826	1.312026	3.412813	-2.082770	1.500631	0.176357	-0.070554	3.076924	1.336064	-0.927979	-0.197021	-0.703369	0.243619	0.036926	0.075949	0.758237	0.115111	-0.591484	0.248944	-23.654843	-72.608025	53.844721
39446		4.160779	-3.803068	8.152614	-4.238917	-5.993318	-3.153187	-0.442443	-0.400172	0.869028	-0.958740	-0.166992	-0.674561	0.104013	-0.092816	0.204853	0.753089	0.105650	-0.597935	0.253313	-28.703501	-72.577475	58.462547
39447		9.767151	-4.987507	0.976124	2.851150	-2.352972	0.555535	-0.068498	-3.405717	0.403045	-1.012695	-0.160156	-0.604004	0.243466	-0.123433	0.034886	0.725689	0.112604	-0.630283	0.251873	-40.541737	-76.288589	70.632029
39448		11.795500	-3.336933	-3.341717	5.422450	1.355991	1.597447	0.611946	-0.803144	-0.327555	-1.020508	-0.180420	-0.597168	0.295368	-0.084005	-0.081220	0.719401	0.123177	-0.635213	0.252574	-41.447839	-77.466379	72.454385
39449		8.980663	0.465853	-1.587881	2.003358	3.164704	-1.486741	0.793920	3.081584	-0.504749	-0.956543	-0.207031	-0.674561	0.222838	0.010687	-0.048195	0.743588	0.124416	-0.603804	0.258879	-28.009016	-74.234136	59.768146
39450		4.960854	2.972698	5.752926	-5.563803	0.855353	-3.910006	0.205317	2.088581	-0.298779	-0.934082	-0.212646	-0.703369	0.127998	0.073481	0.140705	0.759672	0.121702	-0.583150	0.260812	-22.340187	-71.711410	54.140262
39451		6.572527	2.754467	2.529542	-2.511049	2.632857	-3.184347	-0.057032	-2.134975	0.016367	-0.978760	-0.212158	-0.648193	0.162535	0.068942	0.067543	0.743801	0.127886	-0.603527	0.257216	-26.724169	-74.492748	58.626834
39452		8.277473	1.402012	-0.052613	0.367059	3.056313	-2.001999	-0.428539	-0.869059	0.135053	-0.986328	-0.197021	-0.641602	0.206877	0.035400	0.000743	0.737370	0.125598	-0.613255	0.253829	-30.242953	-75.501073	61.625923
39453		7.579140	0.922893	2.102570	-1.306322	1.454558	-2.138576	-0.665427	0.619257	0.042832	-0.975586	-0.187744	-0.654785	0.189864	0.023602	0.050901	0.742912	0.117093	-0.609782	0.250074	-29.781799	-74.707646	60.154037
39454		7.291397	-0.183719	1.280357	-0.089421	0.874595	-2.459908	-0.980501	-0.634647	-0.089334	-0.985352	-0.167969	-0.648193	0.182018	-0.004392	0.033508	0.739642	0.110572	-0.618639	0.240810	-32.600902	-75.557027	61.609327
39455		8.914558	-0.421646	-0.524613	1.594415	1.738672	-1.190137	-1.133138	-1.380571	-0.200654	-1.012939	-0.155762	-0.621582	0.223017	-0.011248	-0.009111	0.730882	0.105704	-0.634472	0.228218	-38.056741	-77.341939	65.542660
39456		10.158183	-1.461022	-2.473623	3.702826	1.742343	-0.081869	-1.066270	-0.815638	-0.245200	-1.015869	-0.140381	-0.610596	0.254449	-0.038102	-0.058747	0.726346	0.100145	-0.644641	0.216403	-41.899574	-78.466648	67.902025
39457		11.547430	-1.657576	-0.710773	2.284613	0.945317	1.610179	-0.478079	0.281601	-0.264791	-1.009277	-0.140137	-0.617188	0.288482	-0.042504	-0.018533	0.729839	0.097096	-0.643121	0.210483	-39.964196	-78.413729	65.218795
39458		11.893770	-1.987319	1.748897	0.456071	-0.275554	2.360064	-0.255244	1.188951	-0.206656	-0.984619	-0.139160	-0.639404	0.297822	-0.050321	0.039458	0.740091	0.093214	-0.632717	0.207955	-34.526136	-77.240331	59.273375
39459		10.879418	-2.163274	0.865860	1.346793	-0.242907	1.228960	-0.101703	-0.214296	-0.078907	-0.991211	-0.141602	-0.630371	0.271873	-0.054322	0.022444	0.738643	0.093377	-0.634968	0.206163	-35.108666	-77.562313	59.712230
39460		12.380782	-1.774892	-0.611422	2.485043	0.870771	2.429154	0.047833	-1.202585	-0.072932	-1.006836	-0.140137	-0.597168	0.309662	-0.044647	-0.010658	0.729069	0.097410	-0.645891	0.204435	-39.764686	-78.999971	64.528128
39461		12.990150	-2.002489	-0.289840	2.370965	0.622319	3.102992	-0.030538	1.279859	-0.122334	-0.978027	-0.136719	-0.641602	0.324506	-0.050563	-0.012420	0.739580	0.094759	-0.634179	0.204597	-33.887841	-77.641203	58.474126
39462		10.532581	-2.441671	6.958452	-3.589156	-2.868605	2.192034	0.242220	3.313040	-0.222899	-0.914795	-0.147461	-0.718994	0.270036	-0.062292	0.162682	0.765406	0.090131	-0.602233	0.208196	-23.582698	-73.624606	48.193404
39463		7.068118	-4.487739	9.929010	-5.489594	-6.496870	0.002306	0.350695	-0.087897	-0.661754	-0.927246	-0.170410	-0.696777	0.175488	-0.114736	0.247919	0.765972	0.098609	-0.601486	0.204398	-20.253010	-74.102508	45.240933
39464		10.682281	-3.633202	5.973186	-1.579614	-3.804709	2.270170	0.780079	-0.537845	-1.389231	-0.917725	-0.225586	-0.692383	0.264402	-0.096899	0.150188	0.764269	0.117815	-0.602901	0.196273	-12.991076	-75.421702	38.867853
39465		5.709133	-0.471123	7.811141	-5.367794	-2.863573	-2.275713	0.510517	0.927683	-1.327160	-0.904541	-0.262939	-0.698975	0.144744	-0.015407	0.193517	0.773526	0.130332	-0.590788	0.188785	-4.573314	-74.405819	30.903247
39466		11.736149	3.116250	5.797866	-4.070445	1.607718	2.908310	0.131264	-3.056421	-0.855283	-0.961914	-0.280762	-0.623779	0.288389	0.074555	0.156155	0.752085	0.144968	-0.618256	0.176386	-0.014135	-78.843606	26.409665
39467		15.538381	2.867339	-1.377578	2.327568	4.342530	5.261901	-0.021318	-1.828488	-0.064466	-0.981934	-0.279297	-0.597168	0.389169	0.071362	-0.025568	0.737862	0.149207	-0.635308	0.172280	0.497385	-81.474581	25.856147
39468		11.696793	-0.069148	-1.999861	3.523501	1.740874	1.383461	0.154460	1.550488	0.520643	-0.958008	-0.269287	-0.643799	0.291380	0.000274	-0.055652	0.748559	0.143033	-0.621598	0.181154	-3.400821	-79.242976	30.024273
39469		6.355336	-2.458816	2.408064	0.198476	-2.526911	-3.045691	0.099149	2.593715	0.499969	-0.911621	-0.256348	-0.698975	0.161102	-0.060538	0.054926	0.766943	0.134036	-0.597747	0.191131	-5.244947	-75.492031	32.049057
39470		4.396909	-2.527413	2.979156	-0.514358	-2.950573	-4.750531	-0.041126	-0.159318	0.259672	-0.927734	-0.250488	-0.679199	0.109978	-0.062790	0.074730	0.765143	0.131991	-0.599890	0.193045	-6.883537	-75.687992	33.670696
39471		6.087856	-2.074254	0.679002	1.527228	-1.341452	-3.673373	-0.011621	-1.119502	0.060605	-0.943115	-0.250977	-0.659180	0.151978	-0.051738	0.019110	0.756479	0.134031	-0.610766	0.191676	-8.184877	-77.276635	34.983526
39472		7.918371	-0.907200	0.241612	1.592622	0.067149	-1.999851	0.339077	-0.471231	0.006985	-0.956055	-0.262695	-0.648193	0.197921	-0.022691	0.007110	0.752214	0.138224	-0.614500	0.193540	-8.239446	-77.952538	35.528190
39473		7.764131	-0.533579	-0.110803	1.645969	0.518991	-2.223217	0.583159	-0.183233	0.076082	-0.956055	-0.264893	-0.645996	0.194122	-0.013136	-0.002422	0.749529	0.143480	-0.615022	0.198414	-8.149335	-78.206323	36.281561
39474		7.778253	-1.040379	-0.024175	1.773243	0.042999	-2.168228	0.775166	-0.283331	0.168169	-0.966309	-0.280762	-0.628174	0.194512	-0.025598	-0.000165	0.745440	0.150058	-0.616118	0.205430	-8.546621	-78.582209	37.811928
39475		7.731681	-1.826605	0.188092	1.953197	-0.721158	-2.143558	0.818979	-0.023995	0.162973	-0.961182	-0.293945	-0.623779	0.193383	-0.045317	0.004295	0.743193	0.156407	-0.614612	0.213199	-8.602734	-78.591406	39.057627
39476		8.286711	-1.276473	0.736736	1.311870	-0.432005	-1.510033	0.807268	-0.029150	-0.011519	-0.971924	-0.303223	-0.617188	0.207157	-0.032126	0.018170	0.741318	0.163985	-0.612779	0.219224	-7.453876	-78.645087	39.056953
39477		9.782461	-1.146608	0.864262	1.323331	-0.254584	-0.017772	0.407223	-0.632158	-0.092590	-0.977783	-0.319336	-0.586182	0.244348	-0.029064	0.023391	0.735792	0.170112	-0.617409	0.220179	-6.836244	-79.570628	39.013542
39478		11.954621	0.142837	-0.054011	1.462944	1.400654	1.969417	0.242157	-1.474931	0.041672	-0.999756	-0.326904	-0.544189	0.298821	0.003720	0.004171	0.723577	0.175971	-0.630396	0.219254	-8.642465	-81.667583	41.187508
39479		12.922426	0.595497	-2.379419	2.868381	2.906711	2.689713	-0.089872	-1.435187	0.220525	-1.026855	-0.319092	-0.513184	0.324016	0.015717	-0.053696	0.711664	0.177251	-0.644112	0.217339	-14.459407	-83.631782	46.914022
39480		12.971303	-0.178539	-3.826021	4.147578	2.921533	2.724432	0.061900	-0.829933	0.372063	-1.042969	-0.308594	-0.490967	0.325267	-0.002880	-0.092282	0.703709	0.176970	-0.652219	0.219284	-23.122796	-84.597806	55.703508
39481		12.883007	-1.761672	-1.713455	3.227000	0.595342	2.884810	0.228325	1.321812	0.292045	-1.011719	-0.307373	-0.530762	0.321465	-0.042735	-0.048275	0.712995	0.172867	-0.640633	0.226593	-20.150882	-82.692311	53.033907
39482		10.821372	-2.358898	5.787763	-2.161928	-3.622098	1.943415	0.348263	4.523340	0.079358	-0.947266	-0.304688	-0.639160	0.278180	-0.059283	0.128846	0.746997	0.162172	-0.598618	0.239482	-10.901190	-76.411131	44.140977
39483		10.427941	4.868247	15.559813	-13.490885	-2.409219	3.852047	0.553777	1.127323	0.543766	-0.947510	-0.298096	-0.634766	0.265330	0.120820	0.386116	0.752498	0.159791	-0.587568	0.250954	-11.890172	-74.684809	45.971936
39484		15.004218	8.706386	2.507724	-4.650997	8.773547	4.627518	-0.860962	-1.961253	1.777196	-0.977295	-0.241211	-0.621582	0.368490	0.226618	0.069375	0.733711	0.144622	-0.612014	0.257277	-26.162402	-76.531671	59.418839
39485		5.853307	0.268806	7.441169	-5.369712	-2.147552	-2.318001	-0.761882	4.138878	1.276645	-0.917236	-0.192139	-0.712158	0.155533	0.010876	0.178048	0.761460	0.114284	-0.578004	0.270237	-24.349980	-70.394081	56.384428
39486		5.954922	-4.957064	9.248400	-4.159031	-7.039789	-0.945095	-0.951232	-3.262557	0.720840	-0.994873	-0.157227	-0.621582	0.140336	-0.119829	0.238492	0.736031	0.110865	-0.612843	0.265313	-35.841130	-73.939637	67.006881
39487		13.172530	-6.144956	-2.509283	6.267759	-0.801925	3.510949	-0.472889	-3.428657	0.183923	-1.048584	-0.152832	-0.548584	0.331923	-0.153174	-0.047634	0.709053	0.116300	-0.645720	0.258386	-50.516200	-77.369486	81.435608
39488		12.709444	-2.723823	-3.208548	4.772900	2.151224	2.508671	0.516588	1.365987	-0.234068	-1.014648	-0.164795	-0.604004	0.316100	-0.068479	-0.086062	0.719893	0.118261	-0.631588	0.262422	-42.779403	-76.268773	74.242192
39489		7.546501	0.779411	2.953858	-2.096965	1.062436	-2.021106	0.645232	3.756215	-0.225169	-0.951416	-0.177734	-0.692383	0.191908	0.018400	0.065036	0.748433	0.113316	-0.594732	0.270742	-29.728995	-72.099755	61.643112
39490		5.845114	2.279284	4.559334	-4.198798	1.193585	-3.402355	0.016567	-0.616623	0.003785	-0.974121	-0.172119	-0.656982	0.145241	0.056965	0.115117	0.743722	0.115451	-0.600529	0.270023	-31.187832	-72.863061	63.189110
39491		8.407803	2.242867	0.007633	-0.214563	4.017962	-2.097350	-0.332048	-1.256410	0.195874	-0.994385	-0.168213	-0.641602	0.210022	0.056595	0.003256	0.733934	0.115050	-0.613633	0.267504	-35.874788	-74.214227	67.571624
39492		7.407200	0.908634	0.668699	-0.184386	2.359176	-2.703904	-0.605036	1.215401	0.123639	-0.966064	-0.151611	-0.685791	0.185368	0.023114	0.013728	0.743538	0.104405	-0.604692	0.265702	-33.927713	-72.689226	64.628334
39493		5.201008	-0.357586	3.574128	-2.146288	-0.556407	-3.893595	-0.826315	0.611383	-0.130545	-0.955811	-0.135742	-0.687988	0.130690	-0.008236	0.088444	0.749543	0.095605	-0.601628	0.259016	-33.143563	-72.067117	62.555337
39494		5.944412	-0.544696	1.280562	-0.067204	0.511515	-3.729768	-0.715184	-1.451533	-0.321490	-0.982910	-0.127930	-0.652588	0.147940	-0.013910	0.034826	0.740294	0.095934	-0.617124	0.248835	-36.895777	-74.039267	65.398068
39495		7.435747	-0.801041	-1.507688	2.455831	1.744115	-2.803803	-0.844216	-1.400427	-0.433579	-1.005371	-0.124268	-0.621582	0.186399	-0.021409	-0.034211	0.731615	0.095731	-0.632145	0.236574	-41.074228	-75.993665	68.462731
39496		9.825775	-1.839260	-1.427115	2.936276	1.144190	-0.219443	-0.736575	-0.610573	-0.407068	-1.009766	-0.128906	-0.614990	0.245666	-0.047546	-0.033370	0.728741	0.093936	-0.639463	0.226274	-42.823582	-77.037261	69.168066
39497		11.631518	-1.127597	0.401786	1.142105	1.253425	1.756588	-0.217763	0.352925	-0.329235	-1.007568	-0.128906	-0.623779	0.290709	-0.029361	0.008841	0.732661	0.093512	-0.636559	0.221936	-40.217902	-76.974956	66.165323
39498		11.259494	-1.476242	1.119265	0.790896	0.572457	1.556173	-0.139127	0.781781	-0.176698	-0.985352	-0.125732	-0.643799	0.281661	-0.037483	0.025295	0.739424	0.091397	-0.629645	0.220105	-36.720006	-76.259772	62.356401
39499		11.270110	-2.736244	1.166791	1.407751	-0.544388	1.745239	-0.120300	-0.001554	-0.065879	-0.983154	-0.121338	-0.634766	0.281696	-0.068594	0.029278	0.739657	0.090731	-0.630012	0.218541	-36.650531	-76.322619	62.098639
39500		12.064778	-2.773016	0.227609	2.336527	-0.050327	2.346190	-0.109269	-0.073676	-0.068291	-0.980957	-0.121094	-0.645996	0.301555	-0.069575	0.006063	0.739310	0.090383	-0.631015	0.216960	-36.809783	-76.470696	62.092504
39501		11.557408	-2.574885	2.835432	0.080080	-0.955797	2.324140	-0.028326	1.690092	-0.082258	-0.949707	-0.122314	-0.685791	0.290281	-0.064647	0.064785	0.752657	0.086088	-0.615342	0.217833	-31.288477	-74.533766	56.339793
39502		9.556033	-3.091952	9.525549	-5.497331	-4.367213	2.116260	0.333670	1.416860	-0.195527	-0.933350	-0.137207	-0.707764	0.242873	-0.078870	0.233534	0.763530	0.086779	-0.600892	0.220047	-26.657977	-72.899097	52.005291
39503		10.613612	-5.474950	6.740991	-1.710471	-5.322925	2.708364	0.600423	-1.593669	-0.757441	-0.954102	-0.169189	-0.661377	0.260608	-0.140642	0.172702	0.752713	0.102482	-0.613565	0.215543	-25.991414	-75.433156	52.197961
39504		10.055943	-2.204193	5.730890	-2.290760	-2.482224	1.474245	0.700570	0.827186	-1.256043	-0.925293	-0.208008	-0.687988	0.251939	-0.060294	0.140156	0.761313	0.116379	-0.602254	0.210116	-17.046478	-74.997319	43.977447
39505		5.239245	0.829029	7.773246	-6.099651	-1.794564	-2.875261	0.616561	-0.086190	-1.165251	-0.929688	-0.252686	-0.670166	0.131040	0.017318	0.194615	0.762666	0.131145	-0.599768	0.203520	-10.154773	-75.517955	37.756285
39506		13.282123	4.102816	3.860797	-3.095683	3.549581	3.819767	0.084902	-3.528607	-0.712693	-0.991699	-0.264160	-0.586182	0.328260	0.099521	0.111164	0.737059	0.146060	-0.631495	0.191378	-9.382660	-80.681136	37.084410
39507		15.346080	2.371590	-2.772817	3.114529	4.765475	4.897459	-0.171295	-1.173174	0.030783	-1.005371	-0.260254	-0.572998	0.384592	0.059297	-0.063812	0.727888	0.146949	-0.642797	0.188142	-12.094625	-82.334016	39.569897
39508		10.901021	-0.732383	-2.412741	3.850556	1.580574	0.571071	-0.167737	2.538408	0.489719	-0.959229	-0.242676	-0.650391	0.270536	-0.016788	-0.068888	0.747003	0.135358	-0.620747	0.195803	-11.972301	-78.639096	39.193472
39509		5.398211	-3.227024	3.815310	-0.825533	-3.753433	-3.542298	0.127067	3.024327	0.420417	-0.917480	-0.232178	-0.707764	0.138849	-0.080099	0.090054	0.768634	0.125693	-0.592536	0.205680	-10.746094	-74.278784	38.110757
39510		4.033255	-3.694023	3.195306	-0.216969	-3.996451	-4.903173	-0.156786	-0.743978	0.171559	-0.933594	-0.221680	-0.681396	0.100279	-0.091977	0.080997	0.762832	0.124736	-0.600423	0.204992	-12.699830	-75.280723	39.893629
39511		6.336947	-2.926188	-0.033564	2.527332	-1.591667	-3.504278	-0.013786	-1.335545	-0.044286	-0.953125	-0.231445	-0.656982	0.158368	-0.073242	0.001818	0.752768	0.128255	-0.613140	0.202362	-14.350228	-77.164510	41.563603
39512		7.601009	-1.205933	-0.046748	1.851585	0.055669	-2.342734	0.549592	-0.268900	-0.120887	-0.961670	-0.242676	-0.652588	0.189982	-0.030429	-0.000738	0.750048	0.134947	-0.614159	0.205002	-13.279768	-77.587835	41.265083
39513		7.463874	-0.175253	0.265095	1.045538	0.769297	-2.455698	0.801038	-0.228152	-0.035378	-0.967529	-0.258545	-0.639160	0.186575	-0.004533	0.007115	0.746933	0.143222	-0.614247	0.210426	-12.297701	-77.925952	41.425717
39514		7.571818	-0.965450	-0.313713	1.880636	0.335502	-2.415894	0.758797	-0.676526	0.035631	-0.978027	-0.270264	-0.610596	0.189365	-0.023986	-0.006470	0.740161	0.151720	-0.618680	0.215356	-12.530410	-78.870332	42.764416
39515		7.902205	-1.575296	-0.847795	2.628982	0.094679	-2.149489	0.702749	-0.236898	-0.030429	-0.977295	-0.283447	-0.612793	0.197602	-0.039273	-0.020955	0.736976	0.159010	-0.618999	0.220049	-11.738192	-79.220931	42.974505
39516		8.246544	-0.867830	0.154863	1.517175	0.248669	-1.663004	0.448789	0.595262	-0.196028	-0.967773	-0.296631	-0.612793	0.206130	-0.022216	0.002214	0.741131	0.162935	-0.611964	0.222885	-8.982416	-78.441811	40.812240
39517		9.577538	-0.546406	1.675337	0.356676	-0.098288	-0.081431	0.076000	-0.035234	-0.238135	-0.969482	-0.305420	-0.610596	0.239378	-0.014413	0.041975	0.741296	0.165481	-0.611697	0.221184	-7.309737	-78.550844	39.208011
39518		11.897981	0.114583	1.336094	0.503613	0.790598	2.123381	-0.137832	-1.256279	-0.104307	-0.989502	-0.308594	-0.572998	0.296880	0.002540	0.038063	0.732099	0.168376	-0.623533	0.216534	-8.070445	-80.365106	39.772545
39519		12.865267	0.344565	-1.627080	2.666716	2.408939	2.651350	-0.139871	-1.295704	0.040052	-1.014160	-0.307373	-0.541992	0.322230	0.008710	-0.035476	0.722012	0.170194	-0.635880	0.213048	-10.691157	-82.198719	42.212856
39520		13.674185	-0.973091	-3.187581	4.399231	1.997755	3.405954	-0.136261	-1.145815	0.238001	-1.023193	-0.301025	-0.513184	0.343019	-0.023438	-0.074742	0.712400	0.170034	-0.647134	0.211642	-16.836439	-83.725142	48.199533
39521		14.703678	-2.048158	-1.892938	3.865200	0.556208	4.634347	0.293348	0.877944	0.228160	-1.010010	-0.298340	-0.541992	0.367185	-0.049972	-0.051539	0.718142	0.168395	-0.639095	0.217884	-16.162496	-82.437720	47.935943
39522		12.580171	-2.908091	3.787737	0.061765	-2.819001	3.337753	0.263457	4.414163	0.084850	-0.931641	-0.301758	-0.661377	0.319154	-0.072638	0.076924	0.751429	0.157735	-0.598093	0.229692	-9.121830	-76.242317	41.157751
39523		11.590976	4.926487	15.711318	-13.332996	-1.962596	5.147776	0.549211	1.421076	0.526980	-0.929932	-0.292969	-0.652588	0.295892	0.122421	0.388405	0.759249	0.154768	-0.584181	0.241496	-9.919694	-74.118474	42.788049
39524		14.202029	7.822796	3.136848	-4.413773	7.659717	4.133719	-0.666388	-1.780719	1.759606	-0.963867	-0.238525	-0.641602	0.348789	0.203976	0.084556	0.741732	0.140854	-0.606302	0.249783	-22.649814	-75.881490	54.971086
39525		6.281303	0.295338	7.308700	-5.116781	-1.876001	-1.864187	-0.615163	3.855590	1.304603	-0.899414	-0.191406	-0.729980	0.165423	0.011401	0.174800	0.766909	0.112975	-0.574082	0.263660	-22.317852	-70.070363	53.694104
39526		5.368709	-4.399281	8.487216	-3.836328	-6.287722	-1.693867	-0.809419	-2.647157	0.889363	-0.977051	-0.154297	-0.650391	0.128273	-0.106350	0.217580	0.745546	0.107441	-0.603088	0.262493	-32.084872	-72.875016	62.763099
39527		12.038204	-6.287665	-1.699991	5.863524	-1.512712	2.458148	-0.231215	-3.457307	0.319029	-1.028809	-0.149658	-0.581787	0.303027	-0.156082	-0.028979	0.717966	0.114052	-0.636019	0.258838	-45.093192	-76.488143	75.888537
39528		11.051089	-3.413177	-2.648661	4.855421	1.023221	0.964664	0.735967	1.407073	-0.329709	-0.991943	-0.172852	-0.628174	0.274693	-0.085820	-0.071845	0.728955	0.118627	-0.620502	0.263684	-37.398186	-75.283939	69.033818
39529		6.658600	-0.085533	1.228830	-0.139948	0.990054	-3.117047	0.756732	3.032363	-0.459640	-0.941650	-0.195313	-0.696777	0.167452	-0.003349	0.024357	0.752231	0.118924	-0.589314	0.269656	-26.621616	-71.941063	58.929123
39530		5.482516	2.386727	3.945488	-3.638425	1.448000	-3.813870	0.292592	0.265041	-0.333671	-0.941162	-0.204102	-0.692383	0.137635	0.058735	0.098398	0.754792	0.123163	-0.585425	0.269067	-24.431062	-71.810063	57.056584
39531		6.906464	3.143746	0.816552	-1.280786	3.952261	-3.410603	0.112026	-0.763584	-0.045901	-0.954346	-0.208984	-0.679199	0.172501	0.078464	0.022171	0.749079	0.127047	-0.592259	0.268270	-25.583086	-72.835916	58.425528
39532		6.574076	1.968346	0.906250	-0.767303	2.861314	-3.556752	-0.277093	0.721629	0.153703	-0.932861	-0.192627	-0.705566	0.164451	0.049599	0.021002	0.754242	0.120821	-0.586749	0.268790	-25.257656	-71.814558	57.658990
39533		4.907607	0.211748	3.490842	-2.146387	-0.220376	-4.186051	-0.617389	0.497572	0.079606	-0.935791	-0.177246	-0.709961	0.123224	0.006085	0.086461	0.758454	0.112668	-0.584321	0.265749	-25.580035	-71.128029	57.057455
39534		6.298172	-0.563256	2.250712	-0.562444	0.095618	-3.125458	-0.600638	-1.469200	-0.095276	-0.960693	-0.171631	-0.670166	0.156368	-0.013831	0.059251	0.748665	0.112458	-0.600096	0.258337	-29.104760	-73.067093	59.848221
39535		8.084115	-0.945724	-0.810881	2.233651	1.525972	-2.094053	-0.873461	-1.556542	-0.213863	-0.992188	-0.166016	-0.643799	0.202378	-0.024375	-0.016072	0.738646	0.110819	-0.617132	0.247528	-33.562406	-75.137661	63.173093
39536		10.439663	-1.600326	-1.773184	3.452027	1.765247	0.169978	-0.871526	-0.790850	-0.193749	-0.995605	-0.144043	-0.628174	0.261311	-0.041102	-0.041304	0.734195	0.106633	-0.626894	0.237887	-36.529191	-76.229947	64.938066
39537		12.906163	-1.227445	0.527228	1.491392	1.482319	2.990870	-0.341505	0.339296	-0.172972	-0.986328	-0.148193	-0.634766	0.322639	-0.031331	0.011945	0.737734	0.103763	-0.624656	0.234067	-35.121620	-75.985471	62.974913
39538		11.134885	-0.552604	1.649067	0.174307	1.230530	1.388203	-0.125455	0.943860	-0.169214	-0.963867	-0.151611	-0.659180	0.278803	-0.014343	0.037961	0.745633	0.101085	-0.616159	0.232727	-31.702429	-74.995790	59.248799
39539		11.263349	-2.340673	1.755353	0.985726	-0.363613	1.776781	-0.148857	-0.661325	-0.146853	-0.981934	-0.147949	-0.639404	0.281100	-0.058948	0.046318	0.741054	0.102677	-0.622648	0.229360	-33.250088	-75.913981	60.618566
39540		12.986736	-1.930902	-0.073410	2.361928	0.983373	3.064822	-0.210942	-1.173626	-0.203185	-0.997559	-0.148682	-0.610596	0.324524	-0.049093	0.003055	0.732609	0.105582	-0.633899	0.224297	-36.685143	-77.464860	63.828593
39541		13.192349	-1.155719	-0.001265	1.971811	1.609206	3.182885	-0.289726	1.125834	-0.175986	-0.966553	-0.142822	-0.650391	0.329701	-0.029629	-0.004566	0.742247	0.101079	-0.624210	0.221843	-32.358107	-76.284166	58.950610
39542		11.027289	-2.469092	8.172487	-4.299420	-3.211996	3.055620	-0.066478	3.093985	-0.299283	-0.907959	-0.149658	-0.712158	0.283074	-0.062613	0.193510	0.766666	0.094061	-0.594951	0.222283	-23.669725	-72.568001	49.828636
39543		8.181762	-4.526708	9.015009	-4.273006	-5.963037	0.905233	0.144395	-0.900106	-0.780945	-0.935791	-0.175049	-0.679199	0.200872	-0.115550	0.227442	0.761809	0.103683	-0.602292	0.214805	-21.719749	-74.197476	48.003530
39544		11.222813	-3.593153	5.673123	-1.169343	-3.478262	2.739705	0.394748	0.059662	-1.409395	-0.916016	-0.216553	-0.694580	0.279027	-0.095451	0.141158	0.765322	0.117824	-0.598843	0.204418	-14.190529	-74.749815	40.771934
39545		4.801698	-0.807830	8.372779	-5.840229	-3.523892	-2.936664	0.315814	0.749671	-1.354476	-0.907715	-0.247559	-0.690186	0.121622	-0.023069	0.208097	0.773714	0.128986	-0.588846	0.194908	-6.254370	-74.045057	32.997574
39546		12.396971	2.827023	4.859562	-3.053767	1.927638	3.307550	-0.111625	-3.464651	-0.812922	-0.960449	-0.262939	-0.610596	0.304979	0.067741	0.134676	0.749541	0.142142	-0.620816	0.180475	-3.335285	-79.100496	29.830582
39547		14.984271	2.072809	-2.176158	3.204008	4.102868	4.555167	-0.092761	-1.492863	0.049047	-0.985107	-0.261719	-0.592773	0.375504	0.051993	-0.047462	0.737810	0.144181	-0.635079	0.177549	-4.805252	-81.239223	31.183233
39548		10.330135	-0.603877	-1.873960	3.482353	1.272974	0.026681	0.047987	2.135186	0.521244	-0.943604	-0.242188	-0.656982	0.256971	-0.013389	-0.053728	0.753174	0.135636	-0.616068	0.186527	-7.123749	-78.128677	33.603902
39549		5.236550	-3.159059	2.944687	-0.111894	-3.389487	-3.934204	0.021153	2.618064	0.471949	-0.901611	-0.233887	-0.707764	0.133691	-0.078212	0.069251	0.771720	0.125952	-0.591925	0.195472	-7.876476	-74.331536	34.402672
39550		4.051210	-3.378742	3.215239	-0.382185	-3.767598	-4.931621	-0.016785	-0.490401	0.194209	-0.919678	-0.229980	-0.692383	0.100990	-0.084206	0.081018	0.767560	0.125483	-0.597084	0.196459	-9.329774	-74.994395	35.878404
39551		5.721319	-2.808345	0.596582	1.885378	-1.928751	-4.007560	0.106249	-1.113130	-0.064368	-0.946289	-0.233398	-0.661377	0.142751	-0.070345	0.016809	0.759099	0.129637	-0.607439	0.194887	-9.920405	-76.591565	36.638567
39552		7.320329	-1.503672	0.698679	1.419536	-0.658754	-2.471912	0.580479	-0.411892	-0.157919	-0.947754	-0.251221	-0.652588	0.182841	-0.038083	0.018134	0.755312	0.137273	-0.609750	0.197140	-8.591093	-77.220308	36.121516
39553		7.729478	-0.876388	0.714080	1.135592	-0.121326	-2.084964	0.892246	-0.581144	-0.063686	-0.962402	-0.269531	-0.625977	0.193084	-0.022271	0.019008	0.749371	0.147534	-0.612972	0.202341	-7.487560	-78.067337	36.294287
39554		8.267431	-1.563943	0.186397	1.912825	-0.479180	-1.630953	1.030608	-0.900502	0.014393	-0.974854	-0.287842	-0.597168	0.206627	-0.039137	0.006482	0.740351	0.159270	-0.618836	0.208700	-6.987375	-79.355115	37.284242
39555		8.723764	-1.984642	-0.880223	3.001076	-0.304468	-1.344035	1.112631	-0.557032	0.008795	-0.982666	-0.308350	-0.579590	0.218249	-0.049294	-0.021173	0.733638	0.170871	-0.621133	0.216269	-6.027435	-80.157526	37.923133
39556		9.160950	-0.589105	-0.822574	2.255867	0.906304	-0.922461	0.951272	0.164760	-0.056752	-0.977295	-0.328125	-0.572998	0.228970	-0.014640	-0.021210	0.732909	0.179518	-0.616986	0.223485	-4.148122	-79.941125	37.393451
39557		10.380240	-0.309869	-0.252004	1.837737	0.989104	0.363418	0.398948	0.163600	-0.019019	-0.972656	-0.330322	-0.568359	0.259490	-0.007775	-0.006869	0.733238	0.182807	-0.614427	0.226766	-3.399293	-79.721287	37.208685
39558		11.840563	0.152767	0.456420	1.164708	1.126963	1.926245	0.108525	-0.441164	0.071756	-0.981201	-0.337402	-0.550781	0.295942	0.004068	0.013048	0.729303	0.184443	-0.618426	0.227259	-4.127733	-80.357852	38.101277
39559		11.828816	0.767420	-0.355991	1.382453	2.053777	1.785023	0.037866	-0.216426	0.141993	-0.983887	-0.330811	-0.548584	0.295708	0.019714	-0.008091	0.727048	0.184258	-0.620727	0.228361	-5.507400	-80.662873	39.551192
39560		11.754656	0.570528	-1.872057	2.614431	2.717508	1.491307	0.105044	-0.397773	0.233879	-0.988281	-0.328857	-0.530762	0.294051	0.015183	-0.045320	0.722955	0.184468	-0.624683	0.230390	-7.935567	-81.202031	42.156595
39561		12.853648	-0.743936	-0.956282	2.627104	1.250157	2.765834	0.133932	-0.124177	0.177633	-0.993164	-0.324463	-0.530762	0.321418	-0.017845	-0.023438	0.721074	0.184589	-0.625942	0.232759	-9.640898	-81.351511	44.070147
39562		12.764705	-2.421692	2.642784	0.931749	-1.894898	3.274351	0.044035	2.533565	0.031907	-0.950439	-0.329346	-0.594971	0.321019	-0.060447	0.055889	0.740250	0.177215	-0.602862	0.239127	-7.035360	-77.766339	41.480419
39563		12.476033	2.976073	14.253948	-10.749905	-3.348537	5.703468	0.486479	3.005789	0.338420	-0.912598	-0.323486	-0.636963	0.324689	0.073637	0.344757	0.760178	0.169995	-0.574034	0.252419	-6.315750	-73.447044	41.451477
39564		14.955699	11.196281	7.249294	-9.549921	8.047050	5.854945	-0.640022	-2.084085	1.850281	-0.960449	-0.262939	-0.612793	0.362416	0.289868	0.188482	0.740181	0.157050	-0.599527	0.260834	-19.098545	-75.799996	53.746197
39565		7.210358	0.564449	5.746400	-3.727301	-0.853123	-1.407910	-0.905791	3.501379	1.577251	-0.900879	-0.205078	-0.707764	0.185961	0.019306	0.135403	0.762069	0.125214	-0.572569	0.275203	-21.661230	-70.320857	55.061710
39566		4.929693	-5.119544	10.489002	-4.873395	-8.107160	-1.385157	-1.060018	-1.695210	0.838195	-0.960693	-0.171631	-0.645996	0.118934	-0.123215	0.266430	0.748355	0.114863	-0.593563	0.272864	-29.471918	-72.003548	61.703623
39567		11.870960	-6.297326	-0.460400	5.003029	-1.997494	2.501244	-0.536871	-3.974141	0.358460	-1.023926	-0.156250	-0.568604	0.297523	-0.156107	0.004313	0.717404	0.120540	-0.632406	0.266204	-43.747509	-76.302040	75.723367
39568		12.026201	-4.512748	-3.401220	6.069253	0.792397	1.981174	0.686520	0.422718	-0.231771	-1.003174	-0.171143	-0.590576	0.299870	-0.112944	-0.087585	0.720353	0.127078	-0.626046	0.270201	-40.178395	-76.077433	73.057689
39569		8.552598	-0.798041	0.769922	0.730210	1.066640	-1.288616	0.912544	3.341419	-0.402012	-0.947998	-0.202148	-0.667969	0.214259	-0.021177	0.010066	0.745637	0.126986	-0.591755	0.278794	-27.732719	-72.415898	61.489472
39570		5.711709	2.141311	3.922762	-3.502327	1.221007	-3.580705	0.486765	0.844922	-0.264472	-0.938477	-0.210693	-0.674561	0.143995	0.052466	0.096874	0.751895	0.130486	-0.581816	0.281277	-24.402719	-71.502117	58.717285
39571		7.006110	2.717361	1.464115	-1.617086	3.298151	-3.095562	0.147021	-0.466965	-0.016053	-0.947266	-0.213379	-0.661377	0.174948	0.067830	0.037749	0.748214	0.133586	-0.585758	0.281458	-25.026726	-72.127547	59.592107
39572		6.502489	1.861041	1.388121	-1.126456	2.536731	-3.490739	-0.239362	0.804958	0.115757	-0.934570	-0.199463	-0.690186	0.162832	0.046862	0.032926	0.753973	0.127624	-0.579339	0.282141	-24.418794	-71.019151	58.586262
39573		4.576881	0.582577	3.407054	-2.284821	0.011622	-4.552063	-0.615400	0.330563	0.064086	-0.928711	-0.183594	-0.692383	0.114760	0.015308	0.084587	0.757014	0.120145	-0.578577	0.278824	-25.013941	-70.558382	58.277861
39574		5.240938	-0.246411	2.156437	-0.771660	0.145753	-4.194988	-0.559691	-1.336253	-0.115537	-0.958252	-0.176025	-0.659180	0.130090	-0.005961	0.056131	0.748387	0.120277	-0.593006	0.271650	-27.964114	-72.353156	60.538667
39575		6.934581	-0.481876	-0.034439	1.236001	1.366804	-3.110417	-0.765032	-1.402886	-0.282832	-0.973877	-0.174316	-0.632568	0.173299	-0.012648	0.002298	0.739860	0.119915	-0.608284	0.261188	-31.250597	-74.307992	62.820419
39576		9.536427	-0.884077	-1.214789	2.595227	2.056084	-0.744486	-0.881746	-0.922912	-0.341717	-0.989990	-0.166016	-0.614990	0.238640	-0.023434	-0.027364	0.735097	0.117314	-0.619201	0.249920	-33.675639	-75.692608	64.018817
39577		11.828304	-0.533219	-0.805442	2.218507	2.500776	1.574349	-0.626770	-0.325332	-0.261386	-0.996826	-0.161865	-0.604004	0.295740	-0.014448	-0.018823	0.734198	0.114542	-0.623840	0.242191	-34.436953	-76.294650	63.873102
39578		12.244350	-0.441137	0.798387	0.874293	1.859407	2.292392	-0.435100	0.408421	-0.181317	-0.976807	-0.158936	-0.621582	0.306180	-0.011619	0.018459	0.738446	0.110678	-0.621238	0.237722	-32.933970	-75.959019	61.678030
39579		11.488625	-1.920447	1.443262	1.027923	0.120846	1.878688	-0.343293	0.105589	-0.176296	-0.977051	-0.156738	-0.625977	0.287157	-0.048490	0.035910	0.740174	0.108515	-0.621134	0.233579	-32.307538	-75.974636	60.519935
39580		12.326839	-2.809179	0.968730	1.873464	-0.370287	2.722342	-0.352817	-0.817521	-0.260498	-0.988281	-0.155029	-0.601807	0.307669	-0.071115	0.027676	0.734933	0.109602	-0.629436	0.227312	-34.260655	-77.165271	62.002608
39581		11.901842	-2.584708	0.361330	2.254837	-0.073475	2.161087	-0.304178	0.765120	-0.282138	-0.970459	-0.154297	-0.628174	0.297386	-0.065639	0.006437	0.742043	0.106794	-0.622955	0.223368	-30.791428	-76.465371	57.986237
39582		10.884618	-2.749278	6.721006	-2.959309	-3.040040	2.563227	-0.090555	2.277738	-0.238144	-0.927734	-0.156982	-0.679199	0.276547	-0.069366	0.160271	0.760179	0.101347	-0.601619	0.223411	-24.176892	-73.731428	51.003272
39583		8.747481	-4.483943	8.172052	-3.463283	-5.609682	1.138950	0.431498	-0.321727	-0.585504	-0.935547	-0.181885	-0.656982	0.217031	-0.114794	0.204562	0.758733	0.110680	-0.602803	0.220686	-21.523948	-74.490150	48.881027
39584		11.852882	-4.084836	5.522843	-0.679117	-3.816852	3.326110	0.729750	-0.198017	-1.266489	-0.919922	-0.225830	-0.665771	0.294301	-0.108049	0.137834	0.759517	0.127616	-0.600918	0.213883	-14.452070	-75.330886	42.634717
39585		5.180345	-0.125597	8.636096	-6.216906	-3.176424	-2.554677	0.514142	1.318093	-1.310904	-0.908936	-0.265381	-0.674561	0.132952	-0.006678	0.213695	0.771812	0.138719	-0.584863	0.207361	-5.850946	-73.809114	34.472176
39586		11.882376	4.276955	5.479307	-4.351024	2.752739	2.950612	0.020562	-3.270666	-0.876854	-0.953125	-0.276123	-0.597168	0.292278	0.103665	0.149026	0.749380	0.153624	-0.614405	0.193227	-2.082897	-78.583219	30.621841
39587		14.366326	3.032539	-1.385733	2.050918	4.644477	4.033550	-0.131520	-1.062967	-0.180841	-0.966309	-0.278809	-0.590576	0.359747	0.074949	-0.029990	0.741769	0.156278	-0.624364	0.188482	-1.175796	-80.123236	29.502877
39588		10.715201	-0.066432	0.471653	1.357025	0.749110	0.799969	-0.053021	1.329753	0.330507	-0.946533	-0.271240	-0.628174	0.268030	-0.000548	0.007337	0.751299	0.149993	-0.612803	0.193712	-3.377281	-78.211266	31.661461
39589		6.914856	-3.409925	1.417395	1.633460	-2.849515	-2.694964	-0.164316	0.722241	0.444912	-0.938721	-0.250977	-0.645996	0.173653	-0.084213	0.034043	0.755953	0.143225	-0.607308	0.197984	-6.171144	-77.137268	34.274761
39590		5.753605	-4.060465	1.480682	1.706923	-3.508965	-3.766437	0.085032	0.063903	0.273952	-0.936279	-0.255371	-0.639160	0.144216	-0.101057	0.036794	0.755537	0.141722	-0.607075	0.201341	-7.747810	-77.008824	36.010891
39591		5.598229	-3.279728	0.989394	1.738218	-2.594188	-4.039955	0.373267	-0.093881	0.027471	-0.944824	-0.264648	-0.636963	0.139955	-0.082060	0.024516	0.754016	0.145209	-0.607160	0.204282	-7.512272	-77.146969	36.312321
39592		7.344702	-1.347895	1.382397	0.756000	-0.897019	-2.309657	0.690079	-0.610766	-0.092878	-0.957520	-0.278564	-0.608398	0.183309	-0.034215	0.035667	0.748244	0.153903	-0.611042	0.207541	-6.461735	-78.041690	36.243388
39593		8.218144	-1.070452	0.433152	1.465562	-0.184727	-1.646504	0.813776	-0.996227	-0.056059	-0.974609	-0.292480	-0.577393	0.205281	-0.027031	0.013112	0.739043	0.164445	-0.618159	0.211310	-5.715286	-79.479877	36.665869
39594		8.422151	-1.482734	-0.326256	2.227436	-0.209014	-1.552451	1.083475	-0.686287	0.009676	-0.978271	-0.306152	-0.552979	0.210621	-0.036944	-0.006851	0.731316	0.176110	-0.621679	0.218352	-4.817099	-80.468666	37.324880
39595		8.355215	-1.301743	-0.606693	2.328064	0.092683	-1.661412	1.285817	0.135594	0.029485	-0.981445	-0.333008	-0.548584	0.208866	-0.032213	-0.016041	0.729287	0.187179	-0.617017	0.228898	-3.211107	-80.283490	37.558801
39596		8.803839	-0.182469	0.123801	1.211936	0.711386	-1.118966	1.033261	0.348564	0.036761	-0.980469	-0.352783	-0.544189	0.220109	-0.004492	0.002078	0.729307	0.195246	-0.611016	0.238013	-1.963666	-79.794436	37.790468
39597		10.061281	-0.164146	0.000016	1.469980	0.954342	0.096111	0.334061	-0.258167	0.131905	-0.980469	-0.350830	-0.524170	0.251537	-0.003691	0.000796	0.726033	0.198003	-0.612795	0.241150	-2.698130	-80.168966	39.018495
39598		11.454486	0.341006	-0.047173	1.277690	1.508545	1.475064	0.019206	-0.542998	0.179243	-0.985107	-0.346680	-0.508789	0.286341	0.009167	0.000766	0.721181	0.198388	-0.618203	0.241591	-4.574868	-80.941840	40.944947
39599		12.266934	1.181420	-0.020833	0.723905	2.226560	2.286544	-0.143872	-0.283058	0.184210	-0.996582	-0.342529	-0.510986	0.306604	0.030242	0.000510	0.718700	0.196469	-0.621749	0.241451	-6.797427	-81.331594	42.981529
39600		12.001602	0.274908	-1.322399	2.180600	2.235013	1.854017	-0.234519	-0.167024	0.220768	-0.999512	-0.329346	-0.506592	0.300088	0.007605	-0.032455	0.717218	0.193098	-0.624603	0.241211	-9.516907	-81.535672	45.387474
39601		13.268199	-0.051181	0.681072	0.923840	1.022510	3.401298	-0.035410	0.578519	0.085883	-0.985840	-0.335449	-0.524170	0.331818	-0.000917	0.014628	0.721453	0.190309	-0.619829	0.243106	-9.545649	-80.710357	45.360523
39602		12.446361	-1.678305	4.291976	-0.754645	-2.172446	3.256896	-0.337039	2.313147	-0.024080	-0.943848	-0.327148	-0.577393	0.314078	-0.041625	0.098421	0.739851	0.180300	-0.599790	0.245691	-7.386502	-77.450024	42.666660
39603		11.569216	3.999586	11.197858	-9.226011	-1.160564	3.925612	0.298971	1.575375	0.433457	-0.939941	-0.313477	-0.601563	0.294129	0.100542	0.274561	0.749410	0.174890	-0.585268	0.255460	-8.273034	-75.142331	44.015529
39604		12.423807	5.672720	6.083959	-6.116033	3.526544	3.365356	-0.668820	-0.963341	1.525986	-0.964844	-0.265381	-0.594971	0.305947	0.148969	0.154576	0.738650	0.160446	-0.599700	0.262705	-18.805403	-75.985849	53.896594
39605		7.873008	-0.245505	6.158057	-3.620588	-1.781490	-0.666357	-0.754790	1.772353	1.339116	-0.940186	-0.222168	-0.636963	0.200221	-0.001380	0.149568	0.748651	0.137517	-0.588346	0.272874	-23.112900	-72.936691	57.240661
39606		7.703570	-4.706931	7.473908	-2.414489	-5.879912	0.032320	-0.871978	-1.868936	0.904383	-0.991211	-0.181885	-0.588379	0.189433	-0.113441	0.192550	0.732940	0.128997	-0.610226	0.271632	-32.684906	-74.708488	65.901623
39607		11.647293	-4.575086	0.311373	3.189322	-1.255916	2.224252	-0.106581	-2.606480	0.408405	-1.031738	-0.178955	-0.533203	0.291298	-0.112871	0.017426	0.711360	0.133656	-0.634880	0.270243	-44.053892	-77.289629	77.454461
39608		11.318067	-2.726829	-1.800568	3.598170	1.167124	1.343761	0.457015	0.224261	-0.209441	-1.024414	-0.189697	-0.550781	0.282644	-0.068649	-0.046198	0.712977	0.138592	-0.631070	0.272409	-41.526514	-77.260874	75.533087
39609		9.447072	0.378053	0.026179	0.518534	2.404199	-0.684690	0.484189	2.121192	-0.426266	-0.983643	-0.199463	-0.597168	0.236130	0.008214	-0.005555	0.729960	0.138955	-0.609637	0.276028	-31.511095	-75.179854	65.935171
39610		6.408506	2.835530	3.489025	-3.656526	1.978606	-3.180297	0.037626	1.702834	-0.328752	-0.960693	-0.213867	-0.639160	0.162310	0.070184	0.083819	0.743749	0.135852	-0.593360	0.276234	-25.900057	-73.270828	60.157798
39611		6.089109	3.062900	2.508472	-2.916139	2.663519	-3.717381	-0.287061	-0.318093	-0.142759	-0.967529	-0.211914	-0.625977	0.152114	0.076527	0.063042	0.742275	0.135302	-0.597156	0.272260	-26.418761	-73.777260	60.266718
39612		6.890106	1.853624	1.908347	-1.657533	2.176616	-2.952210	-0.602443	-0.282613	-0.097599	-0.974854	-0.198975	-0.625977	0.172140	0.046491	0.047967	0.741407	0.131366	-0.601741	0.266396	-27.536964	-74.208958	60.529399
39613		6.036573	0.453365	2.413100	-1.425089	0.573164	-3.479494	-0.833209	0.048011	-0.192791	-0.966309	-0.189697	-0.636963	0.150978	0.011597	0.060117	0.743655	0.124891	-0.603817	0.258427	-27.799960	-74.283464	59.559047
39614		6.255427	-0.102001	1.289533	-0.214234	0.689926	-3.466019	-0.845767	-0.837176	-0.290233	-0.977783	-0.183594	-0.614990	0.156027	-0.002764	0.033901	0.739430	0.121869	-0.613900	0.248027	-29.856004	-75.540956	60.429690
39615		6.983753	-0.153823	-0.658482	1.429251	1.628114	-3.139414	-0.863381	-1.161156	-0.317737	-0.998535	-0.170898	-0.586182	0.174790	-0.004699	-0.013878	0.732616	0.119866	-0.626812	0.236671	-33.133305	-77.203330	62.525262
39616		8.439402	-0.839768	-1.736663	2.735647	1.686225	-1.774336	-0.989034	-0.599828	-0.220163	-1.001221	-0.162109	-0.588379	0.211242	-0.022097	-0.041565	0.729889	0.114248	-0.634930	0.225995	-35.644776	-78.096246	63.641302
39617		10.367488	-0.634140	-0.101300	1.423297	1.445957	0.374450	-0.729759	0.759201	-0.031385	-0.988525	-0.150635	-0.610596	0.259142	-0.015992	-0.004846	0.736907	0.105631	-0.630058	0.220991	-33.755155	-77.232609	60.631637
39618		10.213120	-1.170427	2.029558	-0.057697	0.125674	0.664597	-0.682493	0.920374	0.036979	-0.971436	-0.134277	-0.628174	0.255904	-0.028725	0.048044	0.744804	0.096443	-0.623544	0.217158	-31.962737	-76.101778	57.779304
39619		11.251069	-1.785863	1.979350	0.334238	-0.173130	1.743440	-0.599233	-0.982024	-0.004079	-0.991699	-0.130615	-0.599365	0.280636	-0.044271	0.053264	0.737728	0.093492	-0.634341	0.211254	-36.196550	-77.276161	61.241590
39620		11.921983	-3.088814	-1.420736	3.628880	-0.021499	2.040431	-0.399190	-1.795783	-0.182158	-1.019043	-0.120850	-0.550781	0.298564	-0.078053	-0.028432	0.724156	0.095920	-0.651669	0.204266	-43.908111	-79.422241	68.524601
39621		12.458753	-2.407431	-3.213750	4.639108	1.158084	2.372228	0.232545	-1.067307	-0.416379	-1.027100	-0.136719	-0.535400	0.312187	-0.061584	-0.076359	0.716080	0.104067	-0.660273	0.201097	-47.593488	-80.920607	72.596199
39622		14.167725	-1.474797	-1.437525	2.798459	1.413961	4.155885	-0.008759	1.081481	-0.417462	-1.002197	-0.142334	-0.570801	0.353465	-0.038720	-0.040716	0.725909	0.104638	-0.650103	0.198677	-38.696040	-80.200754	63.557955
39623		12.512888	-1.403974	2.766890	-0.352632	-0.255793	3.066402	0.153576	4.002938	-0.265657	-0.925781	-0.150391	-0.679199	0.315637	-0.036257	0.053352	0.757894	0.098050	-0.612353	0.202501	-23.294507	-75.445186	48.037270
39624		7.623769	-3.543432	11.424085	-7.005232	-6.150249	0.874091	0.214575	2.882202	-0.244795	-0.885010	-0.164307	-0.714355	0.200435	-0.089942	0.278258	0.779736	0.094528	-0.583915	0.205229	-17.082758	-71.695253	41.877823
39625		8.316914	-4.117102	6.716063	-2.272421	-4.819505	0.326248	0.813412	-2.134299	-0.955766	-0.923340	-0.201416	-0.667969	0.202102	-0.107102	0.172271	0.765199	0.114800	-0.601323	0.199252	-14.321130	-75.019214	40.206901
39626		7.292495	-2.776961	6.181200	-2.461282	-3.878342	-0.982460	0.616973	1.996567	-1.286462	-0.860840	-0.243652	-0.716553	0.184923	-0.073549	0.149379	0.782092	0.125279	-0.578665	0.194379	-5.541753	-72.523944	31.981269
39627		3.908367	-0.127386	9.390082	-7.008013	-3.595130	-3.377098	0.520061	-1.051191	-1.281130	-0.896973	-0.280762	-0.665771	0.094530	-0.006247	0.235974	0.776538	0.142085	-0.585631	0.183950	1.091664	-74.112646	25.829328
39628		16.275392	4.694416	2.416703	-0.925668	4.554662	6.645930	-0.185245	-4.476772	-0.662887	-0.963623	-0.285400	-0.577393	0.403622	0.114180	0.082806	0.744324	0.155140	-0.627459	0.167953	6.996419	-80.462872	19.509931
39629		15.429490	2.679566	-4.291360	5.002497	5.176649	4.742108	0.047773	0.075174	0.116149	-0.950439	-0.282715	-0.597168	0.385538	0.067613	-0.107606	0.744515	0.154447	-0.626968	0.169569	5.962095	-80.385601	20.622978
39630		9.147185	-1.594562	2.342313	0.445726	-1.687543	-0.400502	0.112023	3.662506	0.453359	-0.899414	-0.276123	-0.681152	0.231259	-0.038630	0.047953	0.771178	0.143944	-0.592959	0.181559	1.502753	-75.199977	25.338601
39631		5.023146	-3.300486	4.511816	-1.245259	-4.348759	-3.811097	0.061761	0.011881	0.380606	-0.904541	-0.265381	-0.661377	0.125986	-0.082000	0.112713	0.770218	0.141623	-0.593478	0.185720	-0.511362	-75.198893	27.507339
39632		6.967876	-3.011669	0.512655	2.406403	-2.120098	-2.913788	0.000787	-1.225104	0.164045	-0.931396	-0.263916	-0.652588	0.174127	-0.074935	0.015483	0.760587	0.143175	-0.605585	0.185136	-1.634817	-76.960159	28.660341
39633		7.620980	-1.143571	0.673115	1.472243	-0.473506	-2.233234	0.405390	0.276672	0.069365	-0.926514	-0.270508	-0.648193	0.190606	-0.028507	0.016024	0.761717	0.145787	-0.602222	0.189373	-1.478916	-76.571831	29.090343
39634		7.145812	0.049513	1.694669	-0.033972	0.096819	-2.469226	0.512465	0.047825	0.212073	-0.928711	-0.272949	-0.641357	0.178667	0.001440	0.042269	0.760554	0.148881	-0.601023	0.195353	-2.052721	-76.504959	30.429131
39635		7.142968	-1.068833	0.732315	1.244969	-0.446988	-2.674833	0.540042	-0.898163	0.321550	-0.950928	-0.275879	-0.619385	0.178461	-0.026135	0.020134	0.751876	0.153708	-0.608882	0.200796	-3.624849	-77.778268	32.829076
39636		8.006110	-2.402208	0.270100	2.297901	-1.313301	-1.879566	0.676987	-0.889595	0.293979	-0.966309	-0.278809	-0.588379	0.200284	-0.059386	0.008475	0.742917	0.159980	-0.616143	0.206999	-5.238580	-79.027228	35.460326
39637		8.775416	-2.116208	-0.390946	2.705615	-0.675189	-1.218403	0.974611	-0.737220	0.129300	-0.976318	-0.301514	-0.561768	0.219552	-0.052443	-0.008392	0.734793	0.169854	-0.620755	0.214225	-5.441079	-80.072431	37.080038
39638		9.564907	-1.725566	-1.441824	3.398093	0.276068	-0.597474	0.913858	-0.403571	0.058700	-0.982666	-0.310791	-0.548584	0.239333	-0.042557	-0.035327	0.729428	0.178800	-0.622192	0.221001	-5.003601	-80.651824	37.959339
39639		10.350255	-0.166576	-0.528881	1.877095	1.216726	0.308115	0.662496	0.304930	0.121981	-0.979980	-0.319580	-0.550781	0.258709	-0.003655	-0.014240	0.729872	0.182978	-0.617934	0.227954	-4.933890	-80.213156	38.845790
39640		11.041408	1.528219	1.485220	-0.626308	1.640264	1.294569	0.260878	-0.023889	0.176523	-0.983887	-0.328613	-0.541992	0.275939	0.038693	0.037339	0.728501	0.184002	-0.617915	0.231540	-6.109846	-80.234736	40.413197
39641		10.873307	2.872943	-0.708858	0.179193	3.876656	0.766115	-0.101167	-1.484247	0.251303	-1.008789	-0.320801	-0.493164	0.271873	0.072659	-0.012769	0.716327	0.185353	-0.632297	0.229608	-10.671115	-82.298844	44.876592
39642		12.182426	0.772120	-1.235886	1.605100	2.420651	2.107554	-0.013411	-0.935312	0.178676	-1.013916	-0.309814	-0.482178	0.304850	0.019979	-0.027337	0.708311	0.186447	-0.641189	0.228932	-15.223392	-83.559910	49.440319
39643		13.741802	-0.980514	3.261890	-0.775489	-1.219642	4.268796	0.177262	2.418412	0.015446	-0.975586	-0.317139	-0.544189	0.345804	-0.024611	0.071061	0.726825	0.180831	-0.619126	0.236027	-9.926796	-80.181981	44.343660
39644		12.798520	2.129157	10.120297	-7.570475	-2.077383	4.646090	0.330025	2.343108	0.430807	-0.953857	-0.305176	-0.588379	0.326903	0.053959	0.243721	0.742530	0.173450	-0.597671	0.247697	-9.692618	-76.781049	44.582385
39645		13.508665	6.217577	6.992022	-7.273424	3.497085	4.500066	-0.242395	-0.882988	1.504848	-0.978760	-0.254883	-0.575195	0.332754	0.162266	0.178007	0.731534	0.162601	-0.609842	0.257899	-20.659250	-77.450688	55.470049
39646		8.902632	-0.062534	4.766494	-2.664943	-0.811148	-0.107397	-0.377183	1.699170	1.524235	-0.967529	-0.212158	-0.619385	0.224998	0.003255	0.114392	0.739952	0.141942	-0.598467	0.272324	-25.462959	-74.361719	59.859507
39647		7.106399	-4.960850	7.029187	-2.078606	-6.085620	-0.693991	-0.711912	-1.012005	1.066176	-0.996338	-0.173096	-0.588379	0.177027	-0.120075	0.179052	0.729778	0.130754	-0.612116	0.275029	-33.976552	-74.870915	67.626738
39648		9.898785	-4.894536	1.011543	2.603485	-2.230809	0.731369	-0.209591	-2.396026	0.603534	-1.032715	-0.159180	-0.528809	0.247471	-0.120416	0.033018	0.709273	0.132358	-0.635482	0.274912	-45.782930	-76.965193	79.481733
39649		10.734575	-3.035808	-0.814238	2.822133	0.356451	1.004829	0.577399	-0.058846	-0.029491	-1.027588	-0.172119	-0.533203	0.268352	-0.075846	-0.020706	0.707841	0.137873	-0.634051	0.279161	-45.159046	-77.056828	79.687523
39650		8.933440	0.139517	-0.928013	1.197828	2.646957	-1.313508	0.676743	1.497911	-0.422871	-1.001953	-0.193359	-0.579590	0.222865	0.002529	-0.027352	0.719779	0.141914	-0.617660	0.283328	-36.527551	-75.830078	71.803909
39651		6.874612	2.977656	2.011518	-2.694956	2.910103	-3.146846	0.499315	1.760288	-0.454989	-0.974121	-0.212158	-0.617188	0.173341	0.073158	0.046944	0.733818	0.143600	-0.599171	0.286154	-28.764522	-74.059683	64.503012
39652		6.010654	2.929689	2.313269	-2.857977	2.521623	-3.851524	0.141078	0.015093	-0.217407	-0.985107	-0.219238	-0.604004	0.150475	0.072731	0.057932	0.734375	0.146426	-0.598230	0.285262	-27.611272	-74.193899	63.510029
39653		7.334658	1.142372	1.331065	-0.893112	1.917830	-2.574108	-0.245385	-0.683073	-0.064773	-0.989746	-0.215088	-0.597168	0.183097	0.028516	0.034753	0.729830	0.147056	-0.605334	0.281592	-29.420668	-75.105559	65.018676
39654		7.076352	-0.623082	1.181539	0.172075	0.476141	-2.629200	-0.422301	-0.241552	-0.127102	-0.989990	-0.208496	-0.594971	0.176793	-0.015700	0.030155	0.729132	0.144975	-0.608876	0.276803	-30.131951	-75.502814	65.124651
39655		6.690626	-1.171189	1.506972	0.146057	-0.278401	-2.862302	-0.442712	-0.314743	-0.229123	-0.994629	-0.204102	-0.588379	0.167031	-0.029547	0.038495	0.728233	0.143726	-0.612941	0.270781	-30.604212	-76.063911	64.953069
39656		8.172028	-1.709898	0.271073	1.532353	0.175776	-1.603093	-0.562360	-0.735036	-0.297259	-1.005859	-0.204590	-0.577393	0.204064	-0.043448	0.008956	0.724486	0.143316	-0.621054	0.262438	-32.251768	-77.190276	65.813602
39657		10.640393	-1.553182	-1.026836	2.606910	1.329600	0.585185	-0.337240	-0.833318	-0.273158	-1.019043	-0.207275	-0.555176	0.266122	-0.039838	-0.022733	0.719389	0.145057	-0.629271	0.255845	-34.319083	-78.408379	67.429227
39658		12.115501	-1.027111	-0.256181	1.771937	1.530724	2.121377	-0.142924	0.330488	-0.223449	-1.003418	-0.208984	-0.566406	0.302784	-0.026536	-0.007609	0.722872	0.144421	-0.626443	0.253316	-32.050366	-78.193293	64.898172
39659		10.596020	-1.428815	1.264748	0.740763	0.138676	0.927225	-0.099657	0.704703	-0.216307	-0.994141	-0.213135	-0.579590	0.265068	-0.036399	0.029329	0.729145	0.142924	-0.620075	0.251848	-28.652510	-77.484970	61.270690
39660		11.010562	-0.984580	1.758359	0.183981	0.305778	1.375031	-0.340555	-0.382809	-0.223878	-0.998779	-0.213379	-0.579590	0.274979	-0.025193	0.045382	0.727392	0.142706	-0.624325	0.246486	-29.135112	-78.127218	61.259861
39661		11.898397	-0.148545	2.080865	-0.434598	0.965557	2.220673	-0.297691	0.350930	-0.146395	-0.980957	-0.208252	-0.583984	0.297677	-0.004068	0.050731	0.731021	0.140003	-0.621880	0.243459	-27.643534	-77.791630	59.292918
39662		11.625286	-1.620717	6.862250	-3.492653	-2.634734	3.060166	-0.333556	1.250123	-0.256515	-0.963135	-0.209717	-0.619385	0.293137	-0.040752	0.167158	0.741927	0.135069	-0.611042	0.240683	-23.379714	-76.340170	54.422267
39663		10.769817	-3.927544	5.143840	-0.819602	-3.952976	2.085530	0.008426	-0.605317	-0.814630	-0.977783	-0.230225	-0.597168	0.267244	-0.100930	0.130613	0.739607	0.143122	-0.615303	0.232162	-20.132857	-77.586171	51.096285
39664		10.075759	-2.565453	5.067596	-1.359548	-3.097657	1.247177	0.200188	1.112405	-1.351194	-0.939941	-0.270996	-0.636963	0.252487	-0.068709	0.123013	0.751471	0.152045	-0.601974	0.223162	-9.946143	-76.554932	40.935394
39665		6.689453	1.792019	7.766642	-6.219236	-1.388303	-1.586377	-0.175985	-0.196113	-1.198614	-0.945801	-0.289063	-0.614990	0.167410	0.042721	0.194481	0.753523	0.159880	-0.602045	0.210197	-3.105229	-77.038847	33.645114
39666		13.393034	4.352445	2.171802	-1.816880	4.051031	3.724976	-0.533200	-2.475776	-0.727143	-0.978760	-0.299316	-0.568359	0.333920	0.106178	0.063926	0.737390	0.166689	-0.625075	0.194299	1.028900	-80.617902	28.650456
39667		13.760957	1.637998	-1.552378	2.532245	3.248033	3.510008	-0.638704	0.118394	-0.100179	-0.972900	-0.281250	-0.581787	0.344016	0.040205	-0.039642	0.739799	0.161233	-0.625393	0.188641	0.901939	-80.456518	27.847078
39668		10.001888	-1.730887	0.315809	2.163569	-0.771519	0.079020	-0.689837	1.553182	0.306619	-0.944824	-0.264648	-0.634766	0.250306	-0.042271	0.003404	0.752375	0.148677	-0.613219	0.189183	-2.332972	-78.235762	30.125863
39669		6.186702	-3.716864	1.504576	1.569358	-3.281192	-3.399959	-0.454366	1.069836	0.274005	-0.934326	-0.248535	-0.659180	0.155473	-0.092182	0.036064	0.760636	0.139673	-0.604753	0.190255	-4.393148	-76.690797	31.561942
39670		5.250250	-4.230670	1.233725	1.870220	-3.670961	-4.334388	-0.312486	-0.170253	0.152766	-0.938965	-0.244141	-0.659180	0.131391	-0.105394	0.031535	0.759460	0.135871	-0.607467	0.189060	-5.915634	-76.923542	32.658709
39671		5.890638	-3.105508	0.545932	2.024752	-2.305275	-3.877404	0.177600	-0.518197	-0.035454	-0.947754	-0.246826	-0.636963	0.147140	-0.077734	0.014429	0.755224	0.138971	-0.611985	0.189203	-5.827666	-77.676872	32.822636
39672		7.172259	-2.607352	0.153966	2.297784	-1.592835	-2.710200	0.486986	-0.785404	-0.113613	-0.960449	-0.262939	-0.614990	0.179167	-0.065467	0.005211	0.748517	0.146209	-0.618106	0.190497	-4.916783	-78.822558	32.598336
39673		7.636331	-2.690801	-0.293870	2.736644	-1.467751	-2.329603	0.827091	-0.570348	-0.104388	-0.968506	-0.278809	-0.597168	0.190870	-0.067448	-0.006683	0.742717	0.156027	-0.621331	0.194873	-3.319192	-79.658904	32.172120
39674		8.492307	-1.538584	0.020351	2.004690	-0.557708	-1.436709	1.244328	-0.386323	-0.049158	-0.971680	-0.308105	-0.575195	0.212280	-0.038607	0.000934	0.737238	0.168806	-0.621808	0.203320	-1.333802	-80.225888	31.959902
39675		9.681957	-0.418789	-0.285618	1.809927	0.638940	-0.309396	1.176180	-0.405444	0.037613	-0.986328	-0.326416	-0.559570	0.242086	-0.010261	-0.006065	0.731345	0.180296	-0.622660	0.211948	-0.081222	-80.817802	32.393019
39676		11.034380	0.115036	-0.717001	1.920991	1.406950	0.985991	0.553872	-0.683193	0.291012	-0.997559	-0.324707	-0.532959	0.275986	0.003993	-0.015543	0.723881	0.184829	-0.628156	0.217384	-2.215451	-81.800260	35.349497
39677		12.010795	0.395982	-0.751345	1.739769	1.755509	1.971637	0.261397	-0.252607	0.364448	-1.004150	-0.324951	-0.530762	0.300278	0.011327	-0.017800	0.720206	0.184952	-0.630667	0.222162	-5.795122	-82.137108	39.337647
39678		12.034954	0.863423	-0.178125	0.950298	1.927424	2.061559	0.062129	0.300141	0.345190	-0.997803	-0.317871	-0.533203	0.300757	0.022888	-0.005564	0.721376	0.181893	-0.628687	0.226463	-8.851923	-81.659005	42.510064
39679		11.507866	0.532707	-0.913634	1.655547	2.101035	1.429806	0.092886	-0.066336	0.293416	-1.011719	-0.307373	-0.517578	0.287664	0.014399	-0.022586	0.719722	0.180552	-0.629793	0.229700	-11.747980	-81.688695	45.566477
39680		12.472858	0.110739	-0.030997	1.205711	1.412828	2.521630	0.113736	-0.046262	0.159973	-1.005127	-0.304932	-0.524170	0.311815	0.003393	-0.000590	0.718548	0.180392	-0.630357	0.231944	-13.311126	-81.715507	47.306066
39681		12.533232	-1.056326	2.789603	-0.255051	-0.923775	3.033946	-0.073755	1.718124	0.042424	-0.978271	-0.305908	-0.568359	0.314746	-0.026181	0.063014	0.731874	0.174314	-0.615205	0.235577	-10.780049	-79.306908	44.628109
39682		11.376231	1.478252	9.195520	-6.574348	-2.101757	3.167012	0.304770	2.148063	0.294579	-0.945557	-0.293701	-0.612793	0.290306	0.037162	0.222287	0.746501	0.168391	-0.595186	0.245225	-9.786836	-76.215867	44.053869
39683		12.887389	6.552563	8.605505	-8.702498	2.948959	4.280196	-0.160051	-0.807752	1.363357	-0.976074	-0.261230	-0.597168	0.317134	0.169682	0.218021	0.736417	0.159137	-0.606075	0.255027	-19.195912	-76.859678	53.486298
39684		9.794276	0.504627	4.113284	-2.280625	0.239193	0.570873	-0.326221	1.307024	1.593850	-0.960693	-0.216309	-0.630371	0.246171	0.017920	0.098751	0.741553	0.139793	-0.598154	0.269759	-25.188219	-74.269106	59.185270
39685		6.832931	-4.521934	7.500366	-2.690597	-5.969179	-0.839761	-0.580468	-0.201744	1.071766	-0.978027	-0.181152	-0.621582	0.171830	-0.109384	0.188744	0.737273	0.127017	-0.603884	0.274991	-31.281246	-73.803584	64.653185
39686		9.625995	-5.160422	1.713606	2.350537	-2.780578	0.624738	0.125933	-2.484486	0.565298	-1.021240	-0.165283	-0.557373	0.240073	-0.127388	0.050101	0.715911	0.132345	-0.627036	0.277097	-41.495395	-76.203317	75.406559
39687		10.285813	-3.798074	-1.445679	3.947650	0.085186	0.517948	0.701044	-0.186130	0.003630	-1.027100	-0.183105	-0.557373	0.257234	-0.094622	-0.036374	0.713150	0.139182	-0.626364	0.282336	-41.306010	-76.403425	76.241538
39688		9.135116	-0.403101	-0.995778	1.704182	2.370504	-1.090779	0.848918	1.376793	-0.392661	-0.996826	-0.208740	-0.594971	0.227851	-0.010904	-0.028932	0.723592	0.144895	-0.610381	0.287846	-33.649140	-75.183200	69.595252
39689		6.886463	2.686123	2.011535	-2.434462	2.709800	-3.074308	0.599791	1.963851	-0.400151	-0.969238	-0.220947	-0.639160	0.173667	0.065929	0.046535	0.738601	0.146216	-0.589626	0.292286	-26.165727	-73.032462	62.706028
39690		5.617226	3.202257	2.733398	-3.314548	2.438186	-4.125153	0.075492	0.144738	-0.162763	-0.968994	-0.225342	-0.641602	0.140716	0.079706	0.068156	0.740039	0.147533	-0.587818	0.291627	-25.128343	-72.953202	61.729313
39691		6.981982	1.981947	1.422344	-1.382053	2.542786	-3.006600	-0.247423	-0.534829	0.026371	-0.980469	-0.221191	-0.634766	0.174291	0.049718	0.036571	0.736367	0.146948	-0.593804	0.289079	-26.763838	-73.632614	63.061913
39692		6.800796	0.165627	1.882231	-0.728789	0.790751	-2.836687	-0.503032	-0.082678	-0.006645	-0.974365	-0.209961	-0.630371	0.169972	0.004423	0.047204	0.736607	0.142616	-0.596459	0.285143	-27.691470	-73.748928	63.272659
39693		6.937431	-1.112269	1.776893	0.049570	-0.179556	-2.567994	-0.527083	-0.814130	-0.161754	-0.990234	-0.206055	-0.617188	0.172914	-0.027855	0.046367	0.731918	0.141812	-0.605602	0.278266	-29.773469	-74.889351	64.645600
39694		8.115864	-1.353061	-0.484597	1.984974	0.983593	-1.874290	-0.600717	-1.302401	-0.288081	-1.008057	-0.206787	-0.583984	0.202931	-0.034630	-0.008553	0.723934	0.142929	-0.619095	0.268725	-33.151093	-76.701334	67.232967
39695		10.255102	-0.805756	-1.253870	2.361644	2.116400	0.052875	-0.725969	-0.537299	-0.285529	-1.012451	-0.204834	-0.577393	0.256505	-0.021332	-0.029434	0.721907	0.140294	-0.625945	0.259540	-34.651994	-77.573205	67.697485
39696		11.719584	-0.172859	-0.529531	1.567959	2.478783	1.547511	-0.624680	0.484687	-0.191024	-1.001709	-0.197754	-0.597168	0.292891	-0.005133	-0.014975	0.727305	0.134501	-0.623333	0.253758	-32.879093	-77.153130	64.955092
39697		11.781583	-0.582867	1.547687	0.229587	1.135550	2.027682	-0.417875	0.769330	-0.194733	-0.988770	-0.190430	-0.612793	0.294858	-0.015097	0.035936	0.734502	0.129696	-0.617402	0.250001	-30.085287	-76.364257	61.461205
39698		11.778438	-1.872600	2.022006	0.575494	-0.185688	2.268708	-0.347365	-0.289415	-0.160074	-0.993164	-0.188477	-0.606201	0.294181	-0.047181	0.051819	0.733244	0.128567	-0.620981	0.245370	-30.699231	-76.844058	61.571632
39699		12.176901	-2.351818	-0.260060	2.643255	0.470192	2.297601	-0.157894	-1.007735	-0.196764	-1.006592	-0.189209	-0.575195	0.304325	-0.059552	-0.002550	0.726140	0.131650	-0.630441	0.240693	-33.380833	-78.223455	64.077040
39700		12.336373	-1.473700	-1.607647	3.190311	1.752423	2.174459	0.019296	-0.422817	-0.186137	-1.009033	-0.187012	-0.575195	0.308529	-0.037551	-0.038570	0.723236	0.134505	-0.634014	0.238463	-33.996801	-78.882010	64.727724
39701		11.385843	-1.241963	0.344946	1.557801	0.891523	1.503037	-0.073751	2.169215	-0.162981	-0.961914	-0.187256	-0.634766	0.284677	-0.031626	0.000933	0.740683	0.128551	-0.614229	0.239970	-26.167390	-76.311146	56.598877
39702		9.023560	-1.816670	8.397966	-4.696990	-3.643502	1.135060	-0.058305	2.795949	-0.204099	-0.915039	-0.189941	-0.696777	0.232624	-0.045855	0.201933	0.762321	0.121044	-0.587927	0.241984	-19.692215	-72.738451	49.789634
39703		6.868143	-4.700439	7.920661	-2.904470	-6.256855	-0.624938	0.219801	-0.326771	-0.609328	-0.920654	-0.212402	-0.672363	0.169989	-0.119355	0.198387	0.761324	0.128529	-0.589538	0.237301	-17.188285	-73.467511	47.494170
39704		9.415044	-3.761602	6.170213	-1.302208	-4.323317	1.162940	0.345201	0.206645	-1.365777	-0.903320	-0.245117	-0.687988	0.234114	-0.098707	0.153230	0.766143	0.141184	-0.584371	0.227161	-10.057664	-73.651427	40.569697
39705		4.666258	-0.400008	8.200869	-5.521132	-3.521626	-3.008423	0.371791	0.447058	-1.383814	-0.898926	-0.287354	-0.687988	0.117592	-0.012980	0.204311	0.772478	0.153485	-0.576594	0.217391	-2.697021	-73.244861	33.440175
39706		13.197210	4.628292	5.069008	-3.872934	3.178224	4.188760	-0.265266	-3.795373	-0.745918	-0.958740	-0.294189	-0.594971	0.324502	0.113118	0.141832	0.746690	0.166362	-0.611940	0.200769	0.797537	-78.712861	29.445222
39707		14.419585	3.457877	-2.871996	2.921678	5.673415	3.876004	-0.048176	-1.520419	0.066752	-0.983398	-0.295166	-0.566162	0.361696	0.086708	-0.064985	0.734779	0.169120	-0.626384	0.197841	0.247600	-80.904215	29.928198
39708		10.217861	-0.525125	-1.048072	2.729721	1.022515	0.049537	-0.423302	1.825761	0.395138	-0.950928	-0.275879	-0.625977	0.254822	-0.012027	-0.031957	0.748710	0.157513	-0.611419	0.201966	-3.136885	-78.286557	32.746137
39709		6.043152	-3.399255	2.371059	0.774005	-3.352774	-3.343399	-0.309750	1.485284	0.297350	-0.929199	-0.263916	-0.652588	0.152462	-0.084193	0.056781	0.759719	0.148488	-0.598867	0.205274	-4.849585	-76.144275	34.039808
39710		5.763203	-3.793542	1.789988	1.424010	-3.399867	-3.711758	-0.170046	-0.724243	0.075620	-0.949219	-0.262451	-0.632568	0.143755	-0.094605	0.046253	0.754315	0.148087	-0.606396	0.203378	-6.012612	-77.177662	34.978033
39711		6.971197	-3.272053	0.256382	2.613997	-2.122688	-2.882298	0.196312	-0.521902	-0.158695	-0.953369	-0.269287	-0.628174	0.174071	-0.082164	0.007344	0.750303	0.152396	-0.610613	0.202415	-5.088663	-77.955171	34.313801
39712		7.786084	-1.453452	0.666410	1.483879	-0.688424	-2.034271	0.713599	-0.238749	-0.117359	-0.952637	-0.287109	-0.614990	0.194548	-0.036772	0.016914	0.747314	0.160505	-0.610897	0.206312	-3.447854	-78.319554	33.674908
39713		7.494389	-1.791201	0.785555	1.489453	-1.104589	-2.292536	0.886132	-0.389004	0.037203	-0.962891	-0.301025	-0.592773	0.187284	-0.044914	0.020053	0.742343	0.169418	-0.612378	0.212646	-2.647837	-78.884457	34.147365
39714		7.942383	-1.680278	0.265683	1.908077	-0.706538	-1.949143	1.278722	-0.403515	0.143125	-0.973389	-0.316895	-0.575195	0.198600	-0.041761	0.006975	0.735983	0.181169	-0.613046	0.222894	-2.073465	-79.465673	35.421656
39715		9.031893	-0.781779	-0.159493	1.865714	0.385458	-0.948058	1.104968	-0.432588	0.146317	-0.979492	-0.328369	-0.552979	0.225851	-0.019085	-0.003032	0.729597	0.191331	-0.614319	0.231719	-1.834754	-80.090171	36.781603
39716		10.466923	-0.449761	-1.623220	2.923141	1.608296	0.250078	0.510304	-0.678667	0.202008	-0.994385	-0.340088	-0.526367	0.262032	-0.010333	-0.038426	0.722454	0.196323	-0.619588	0.235857	-3.173031	-81.061503	38.873406
39717		11.405904	-0.466557	-1.297260	2.717093	1.550817	1.241980	0.284449	0.423309	0.269511	-0.983643	-0.333008	-0.539795	0.285007	-0.010585	-0.033979	0.724132	0.195500	-0.615687	0.241541	-4.938175	-80.442677	41.070197
39718		11.276692	1.247175	1.598606	-0.496303	1.425566	1.544603	0.243081	1.104629	0.272622	-0.968018	-0.332520	-0.555176	0.282326	0.032027	0.036165	0.731054	0.192188	-0.605672	0.248566	-5.962361	-78.843074	42.459808
39719		10.459532	1.242235	0.590168	0.191466	1.995965	0.544414	-0.177511	-0.707690	0.275196	-0.988770	-0.319824	-0.532959	0.261236	0.031991	0.016996	0.725142	0.190623	-0.613441	0.248039	-9.059341	-79.809971	45.347920
39720		12.333155	0.148295	-1.571397	2.437736	2.444588	2.130875	-0.264598	-1.943253	0.275307	-1.015869	-0.312256	-0.475586	0.309147	0.004657	-0.031796	0.709697	0.192032	-0.632464	0.243811	-15.849064	-82.460177	51.829650
39721		13.836874	-1.021025	-0.856222	2.465840	1.171426	3.817403	-0.143916	0.512117	0.159671	-1.007324	-0.305176	-0.508789	0.345826	-0.024876	-0.023574	0.713497	0.187863	-0.628847	0.245318	-16.280638	-81.702946	52.050945
39722		12.909960	-1.820328	5.085297	-1.356617	-2.522982	3.879636	0.039697	3.923209	0.141337	-0.936279	-0.300049	-0.605957	0.328540	-0.044989	0.111089	0.742850	0.174793	-0.593449	0.255812	-10.609846	-76.195445	46.331502
39723		12.683641	8.511350	15.187867	-14.874621	0.686339	5.751714	0.343454	1.110753	1.028560	-0.944580	-0.264648	-0.605957	0.319574	0.215262	0.376192	0.746822	0.166705	-0.584297	0.270304	-14.339712	-74.334182	50.689948
39724		11.800433	3.361055	3.543178	-2.948318	3.393693	2.139538	-0.977724	-0.119805	1.843889	-0.940674	-0.208984	-0.632568	0.292821	0.091870	0.087928	0.741417	0.144406	-0.592471	0.280047	-24.671876	-73.620864	59.974846
39725		5.943207	-2.180979	9.696695	-5.609902	-5.298723	-1.180402	-1.054882	1.881145	1.068101	-0.929443	-0.166260	-0.661377	0.154917	-0.049313	0.239497	0.753093	0.120024	-0.580501	0.285417	-26.869410	-70.537046	60.690180
39726		8.990243	-5.571512	4.756008	0.344086	-4.508901	0.862240	-0.933224	-3.474024	0.587459	-0.995850	-0.133301	-0.579590	0.220274	-0.136184	0.130134	0.726333	0.119196	-0.616899	0.278691	-39.044834	-74.277587	72.045089
39727		11.386769	-4.949928	-1.986053	5.100115	-0.188647	1.677852	0.122149	-1.949674	0.118735	-1.024658	-0.140869	-0.546387	0.285953	-0.123255	-0.042881	0.710403	0.126090	-0.634262	0.277743	-46.623897	-76.216780	80.056264
39728		10.312690	-2.062876	-1.770523	3.220987	1.760988	0.199868	0.729000	1.439862	-0.323482	-0.990234	-0.157471	-0.588379	0.256749	-0.052177	-0.049364	0.721541	0.130068	-0.618409	0.282896	-38.858559	-75.018107	73.116496
39729		7.068896	0.921894	1.339252	-0.877918	1.866095	-2.859867	0.512810	2.587138	-0.428071	-0.944824	-0.175537	-0.652588	0.177804	0.021907	0.027885	0.741734	0.128720	-0.592332	0.287064	-29.353736	-72.289638	63.974806
39730		4.980581	2.527451	3.468219	-3.530220	1.571671	-4.493995	-0.112653	0.764496	-0.367550	-0.937988	-0.177490	-0.654785	0.125624	0.062732	0.085420	0.748774	0.127586	-0.585127	0.284053	-26.565130	-71.574939	60.865352
39731		5.855605	2.556011	1.507729	-1.794013	2.868390	-4.187014	-0.467663	-0.516833	-0.230552	-0.945068	-0.166748	-0.650391	0.146328	0.063701	0.038266	0.746438	0.126672	-0.591345	0.277661	-27.414578	-72.391982	61.048514
39732		5.560554	1.261608	1.601486	-1.169435	1.688678	-4.257820	-0.622315	0.341167	-0.192802	-0.934082	-0.164063	-0.665771	0.139258	0.031512	0.039198	0.750503	0.121039	-0.590100	0.271803	-26.893239	-72.090061	59.558045
39733		5.148155	-0.044079	3.132810	-1.753328	-0.231381	-4.051426	-0.836430	-0.015035	-0.225154	-0.939209	-0.150879	-0.665771	0.128687	-0.000645	0.078353	0.752302	0.114838	-0.592811	0.263494	-27.276976	-72.262863	58.695806
39734		6.920598	-1.295345	1.031189	0.818378	0.136234	-2.745777	-0.810969	-1.422784	-0.285983	-0.961670	-0.149658	-0.630371	0.172400	-0.032716	0.029180	0.743624	0.113932	-0.608425	0.252710	-30.576036	-74.251468	60.920644
39735		8.778228	-1.772360	-1.324629	3.086027	1.104898	-1.374672	-0.935936	-1.217837	-0.280573	-0.978271	-0.132324	-0.610596	0.219763	-0.045437	-0.029245	0.736358	0.111136	-0.622287	0.241214	-34.212659	-75.946039	63.290170
39736		10.640085	-1.261642	-1.297956	2.898056	1.787800	0.429010	-0.950436	-0.073318	-0.121396	-0.978271	-0.127930	-0.612793	0.265983	-0.032325	-0.031824	0.737341	0.103475	-0.625717	0.232592	-35.305775	-76.136436	63.006312
39737		11.865116	-1.188161	1.189160	0.857511	1.009724	2.097424	-0.706996	0.461381	0.018091	-0.972656	-0.107666	-0.623779	0.296800	-0.029383	0.028278	0.741689	0.095407	-0.623613	0.227821	-34.956715	-75.586512	61.595212
39738		10.800141	-0.452927	1.550320	0.116446	1.319554	1.026909	-0.566760	0.047094	0.011969	-0.968994	-0.094238	-0.623779	0.270028	-0.011009	0.038678	0.742596	0.089853	-0.624895	0.223571	-35.736057	-75.527072	61.554116
39739		11.165447	-1.916285	0.576275	1.573338	0.474081	1.410833	-0.619234	-0.667665	-0.048740	-0.980713	-0.079346	-0.599365	0.278972	-0.047952	0.017107	0.738081	0.086275	-0.632832	0.217522	-38.778307	-76.335829	63.768207
39740		12.596469	-2.035300	-0.996382	2.882869	1.126752	2.605253	-0.260278	-1.511133	-0.229102	-0.998291	-0.086670	-0.566406	0.315158	-0.051853	-0.018790	0.726808	0.089708	-0.647220	0.211682	-44.503636	-78.177766	69.247119
39741		13.570267	-1.541253	-2.190756	3.560124	2.016018	3.400340	-0.255564	-0.512016	-0.324750	-0.996094	-0.084473	-0.561768	0.339437	-0.040079	-0.052470	0.723700	0.091294	-0.652268	0.206083	-45.910784	-79.028184	70.301397
39742		13.487968	-2.090314	-0.064932	2.207363	0.675113	3.637548	-0.372387	2.585747	-0.363304	-0.940430	-0.082275	-0.628174	0.336675	-0.053828	-0.012264	0.745661	0.084102	-0.629183	0.202595	-33.711940	-76.505464	57.270222
39743		10.600961	-5.080816	10.657032	-5.662409	-6.386563	3.557513	0.375031	3.586742	-0.470897	-0.883301	-0.106689	-0.712158	0.275830	-0.129832	0.253613	0.773808	0.082052	-0.593786	0.204713	-22.426787	-72.278339	46.111881
39744		6.730985	-6.541001	8.447085	-3.341613	-7.751226	-0.422533	0.739250	-1.015185	-1.017254	-0.904053	-0.136475	-0.667969	0.163476	-0.167579	0.211736	0.767881	0.099253	-0.600659	0.199287	-18.582247	-74.160464	43.194306
39745		7.405662	-2.840456	7.528726	-3.772560	-4.252753	-0.471506	0.850176	0.894062	-1.285730	-0.872559	-0.188477	-0.696777	0.186029	-0.075977	0.185352	0.776478	0.114732	-0.588324	0.194405	-10.187548	-73.385478	35.712645
39746		4.534865	0.104155	9.899441	-7.581878	-3.323686	-2.739149	0.509693	-0.581664	-1.264395	-0.888672	-0.222656	-0.665771	0.111574	-0.000749	0.248304	0.774340	0.130286	-0.590920	0.185033	-3.614360	-74.442093	29.624262
39747		14.434704	4.098007	4.889785	-3.237465	3.095961	5.314414	-0.221751	-3.781565	-0.913952	-0.955078	-0.234131	-0.581787	0.355706	0.098735	0.138867	0.747907	0.143395	-0.625925	0.168198	1.285448	-79.900658	24.272225
39748		15.761577	3.582108	-3.044910	3.453657	5.550117	5.279511	-0.183415	-1.385864	0.014368	-0.966309	-0.234619	-0.561768	0.395265	0.089459	-0.069487	0.737185	0.144376	-0.639286	0.164398	1.085280	-81.896468	24.201609
39749		10.712453	-0.721011	-0.371702	2.275780	0.318580	0.680081	-0.097890	2.403828	0.495270	-0.929199	-0.215332	-0.628174	0.267476	-0.016386	-0.017313	0.755139	0.134428	-0.618028	0.172441	-2.898832	-78.451541	28.093243
39750		6.643029	-4.064643	3.323097	0.026157	-4.364729	-2.557413	-0.075756	0.991069	0.354763	-0.922852	-0.210449	-0.652588	0.167537	-0.100798	0.081104	0.762027	0.128736	-0.609478	0.176857	-4.946676	-77.011034	30.069078
39751		6.228660	-4.370109	1.091904	2.095398	-3.704107	-3.411506	0.077380	-0.261224	0.050419	-0.927246	-0.210693	-0.641357	0.155695	-0.109181	0.027700	0.759730	0.129578	-0.611971	0.177515	-5.355612	-77.387536	30.593919
39752		7.324251	-2.508765	1.148503	1.463306	-1.928062	-2.369659	0.474440	0.108991	-0.052613	-0.931396	-0.219727	-0.639160	0.183103	-0.063007	0.028090	0.759830	0.134152	-0.609886	0.180832	-4.341551	-77.248755	30.243082
39753		7.783754	-0.615945	2.061791	-0.075365	-0.575985	-1.757901	0.531972	-0.267428	0.108731	-0.932861	-0.233154	-0.623779	0.194441	-0.015479	0.052092	0.756564	0.138887	-0.611488	0.185483	-4.467714	-77.629300	31.145161
39754		7.072383	-0.647263	0.409496	1.170609	0.016095	-2.796037	0.850436	-0.750491	0.247315	-0.945801	-0.242676	-0.603760	0.176753	-0.015754	0.011727	0.748627	0.146680	-0.617078	0.193019	-5.437134	-78.680400	33.373171
39755		6.642994	-1.028934	-0.145768	1.670869	-0.106248	-3.300711	0.936525	-0.358235	0.325764	-0.958984	-0.245361	-0.592773	0.166193	-0.025008	-0.003196	0.743225	0.153699	-0.618816	0.202635	-6.810796	-79.151360	36.132813
39756		6.553660	-1.612362	-0.013486	1.810362	-0.637156	-3.342248	1.057987	0.037106	0.281399	-0.960449	-0.260986	-0.583984	0.163982	-0.039723	-0.000941	0.740624	0.161159	-0.616378	0.213499	-7.409399	-79.059060	38.278237
39757		7.394347	-1.496215	-0.021044	1.877468	-0.391402	-2.516298	0.824054	-0.230939	0.164629	-0.962158	-0.272217	-0.570801	0.184936	-0.037020	-0.000375	0.736626	0.168047	-0.616717	0.220911	-7.756215	-79.366361	39.826035
39758		9.133720	-0.649219	-0.042473	1.639418	0.539786	-0.819993	0.427167	-0.366176	0.072459	-0.966553	-0.272461	-0.557373	0.228360	-0.016021	-0.000103	0.732610	0.172352	-0.619153	0.224113	-8.177423	-79.882058	40.869710
39759		11.778247	0.806904	1.100116	0.099715	1.387058	1.962239	-0.085011	-0.886842	0.059339	-0.988525	-0.277832	-0.526367	0.294112	0.020422	0.030743	0.725638	0.173510	-0.627710	0.222089	-10.090723	-81.133497	42.679188
39760		13.212292	1.690827	-0.199115	0.509530	2.781176	3.204359	-0.465164	-1.717881	0.131515	-1.007080	-0.265137	-0.486572	0.330246	0.042811	0.001867	0.712538	0.172914	-0.644819	0.215868	-16.403363	-83.498625	48.369502
39761		12.380914	0.382088	-3.237376	3.308293	2.999264	2.185749	-0.302618	-1.128346	0.198407	-1.025391	-0.254883	-0.462402	0.310599	0.010026	-0.076596	0.703398	0.171574	-0.656151	0.212742	-25.282807	-84.920584	56.851809
39762		12.485468	-1.686410	-2.879234	3.927084	1.002281	2.458997	-0.055087	-0.003038	0.110287	-1.016602	-0.254639	-0.464600	0.312197	-0.041779	-0.071940	0.703109	0.170120	-0.656672	0.213259	-27.145568	-84.862457	58.636253
39763		12.276543	-2.947190	-0.714769	3.017672	-1.018930	2.423530	0.339071	2.193806	-0.021486	-0.987305	-0.260010	-0.521973	0.306244	-0.073662	-0.026586	0.720093	0.167292	-0.636305	0.220441	-16.435580	-81.953460	48.341240
39764		10.024063	-2.278670	6.425006	-2.826066	-3.962531	1.285051	0.292778	3.749793	0.038232	-0.924316	-0.268555	-0.608398	0.257779	-0.057403	0.148442	0.748311	0.159037	-0.601254	0.230720	-9.877953	-76.714130	42.095543
39765		12.162477	7.218123	14.621789	-14.021177	0.406353	4.920040	0.455951	-0.335897	1.001340	-0.968506	-0.236816	-0.572998	0.300248	0.182135	0.367846	0.741835	0.156663	-0.605117	0.242839	-15.704025	-76.876281	48.744454
39766		13.921917	4.431041	1.054406	-1.583086	5.677725	3.594983	-0.347565	-1.207721	1.964519	-0.968750	-0.185791	-0.575195	0.344741	0.119398	0.031075	0.727019	0.142120	-0.621065	0.255977	-30.607040	-77.372045	63.511409
39767		7.507773	-1.920714	7.650058	-4.382228	-3.757340	-0.583498	-0.536478	3.265430	1.399862	-0.939453	-0.144287	-0.643799	0.196082	-0.043386	0.183661	0.748026	0.115728	-0.595080	0.270082	-29.235750	-72.322872	61.289404
39768		6.997621	-5.703607	5.882099	-1.049163	-5.856337	-0.831285	-0.438208	-2.692453	0.720640	-0.992188	-0.119873	-0.563965	0.171113	-0.140207	0.153628	0.725651	0.115231	-0.622504	0.269519	-40.307572	-74.918304	72.164034
39769		10.883086	-5.254572	-1.628849	4.811566	-0.947404	1.351134	0.261439	-2.125579	0.100093	-1.018555	-0.127441	-0.526367	0.273202	-0.130905	-0.033900	0.708051	0.123889	-0.640918	0.269331	-48.971905	-76.992304	81.474352
39770		10.134560	-1.943056	-2.884972	3.962180	2.213341	-0.107022	0.935208	1.123943	-0.446285	-0.999023	-0.160156	-0.555176	0.252039	-0.049110	-0.076244	0.716894	0.131876	-0.627114	0.274590	-40.999394	-76.305606	74.652950
39771		7.388905	1.603920	0.722521	-0.796847	2.696921	-2.758526	0.876322	2.799096	-0.555606	-0.948975	-0.178223	-0.623779	0.185485	0.038658	0.012010	0.738709	0.134328	-0.597783	0.280928	-28.870253	-73.465503	63.390913
39772		5.292557	3.165411	4.063231	-4.369939	1.736726	-4.118266	0.159119	0.731260	-0.364341	-0.946289	-0.186768	-0.634766	0.133594	0.078328	0.100520	0.745065	0.135880	-0.589934	0.279987	-25.587980	-72.778580	60.192714
39773		6.940763	2.786099	1.307054	-1.707667	3.276554	-3.180173	-0.197643	-1.110946	-0.108970	-0.959717	-0.187500	-0.610596	0.173139	0.069501	0.034911	0.737431	0.138657	-0.600836	0.275620	-27.876480	-74.276985	62.277629
39774		7.118960	1.450707	1.306123	-0.966253	2.205703	-2.834798	-0.460124	0.285650	-0.028526	-0.955811	-0.176025	-0.619385	0.178102	0.036389	0.031808	0.740374	0.133585	-0.599830	0.272405	-27.793218	-73.940789	61.499665
39775		6.381664	-0.092898	2.932226	-1.513525	-0.049239	-2.954199	-0.720007	-0.069716	-0.064120	-0.951904	-0.162598	-0.617188	0.159476	-0.001790	0.073462	0.741161	0.127574	-0.602901	0.266298	-28.762874	-74.078761	61.428950
39776		7.805256	-0.685223	1.291804	0.218732	0.579890	-1.896257	-0.791161	-1.322608	-0.148542	-0.981445	-0.157227	-0.583984	0.194528	-0.017150	0.035684	0.732731	0.125681	-0.617541	0.256813	-32.887093	-75.821027	64.518972
39777		9.455005	-0.996661	-1.196247	2.429099	1.747886	-0.710075	-0.990341	-1.168578	-0.249612	-0.992920	-0.146484	-0.561768	0.236695	-0.025994	-0.026133	0.725845	0.122207	-0.631018	0.245011	-37.181875	-77.402655	67.469082
39778		10.790422	-1.018195	-1.633778	2.817360	2.047387	0.580039	-0.967990	-0.138615	-0.209085	-0.991455	-0.133057	-0.561768	0.269762	-0.026648	-0.040059	0.726730	0.115424	-0.634976	0.235257	-38.117486	-77.747346	67.000669
39779		11.742550	-1.159153	0.808085	0.916415	0.931198	1.942101	-0.704480	0.586539	-0.215286	-0.978271	-0.128174	-0.583984	0.293624	-0.029602	0.018308	0.732902	0.108931	-0.631472	0.228546	-35.809875	-77.266078	63.596260
39780		11.723443	-1.769304	1.062392	1.007110	0.241045	2.045815	-0.498629	-0.384727	-0.222319	-0.991943	-0.122070	-0.568604	0.292829	-0.044874	0.028247	0.731072	0.107140	-0.636199	0.222046	-36.917921	-77.903414	63.991926
39781		12.255561	-2.482289	-1.126008	3.083261	0.482329	2.347530	-0.248183	-1.450987	-0.279932	-1.002686	-0.129150	-0.533203	0.306610	-0.063205	-0.022395	0.720428	0.111035	-0.649768	0.215538	-42.529554	-79.764659	69.341083
39782		12.377088	-1.990653	-2.697348	4.014654	1.402825	2.284471	-0.059956	-0.620949	-0.312980	-1.013916	-0.127441	-0.517578	0.309740	-0.051027	-0.064992	0.716197	0.114634	-0.655169	0.211365	-44.379802	-80.722392	71.123959
39783		12.194108	-2.151411	0.252325	1.761490	-0.014884	2.444195	-0.137650	2.657948	-0.272566	-0.957764	-0.134033	-0.599365	0.304654	-0.054824	-0.003724	0.738391	0.108473	-0.631099	0.211488	-30.684555	-77.925472	56.985423
39784		8.794037	-2.652610	10.750443	-6.869510	-5.192711	1.396755	0.160344	3.716715	-0.375372	-0.898926	-0.149414	-0.679199	0.231692	-0.067909	0.258043	0.767591	0.102894	-0.595298	0.214098	-19.746220	-73.325211	45.933313
39785		6.739504	-4.510204	7.062626	-2.857463	-5.697790	-1.152755	0.236625	-1.545255	-0.889111	-0.931396	-0.170898	-0.630371	0.163769	-0.115121	0.179421	0.757895	0.115815	-0.608304	0.205300	-17.660933	-75.839710	44.114677
39786		9.752060	-2.575281	6.318021	-2.487998	-3.466806	1.297088	0.294122	0.556557	-1.500308	-0.904541	-0.218750	-0.656982	0.243620	-0.069528	0.156006	0.765317	0.128480	-0.600088	0.194105	-8.368802	-75.556162	34.954230
39787		6.492143	1.314906	7.626892	-5.851246	-1.327153	-1.686195	0.404899	-0.312431	-1.401351	-0.916260	-0.252686	-0.621582	0.162088	0.029064	0.191459	0.765522	0.143521	-0.599840	0.183220	-0.016333	-76.161452	26.932774
39788		14.619411	3.878013	2.840162	-1.581247	3.455727	5.096155	-0.405217	-3.274546	-0.539172	-0.963135	-0.250000	-0.555176	0.362830	0.094907	0.085410	0.742198	0.150984	-0.630698	0.169014	3.935178	-80.838211	22.305571
39789		13.466815	0.908335	-3.111866	4.265193	3.003287	3.018926	0.189490	-0.354104	0.219666	-0.963135	-0.252197	-0.563965	0.336946	0.023815	-0.076250	0.738506	0.151675	-0.634081	0.171884	2.311282	-81.373474	24.217016
39790		9.088520	-2.231389	0.313188	2.159059	-1.415825	-0.813205	0.102737	2.153011	0.489503	-0.930664	-0.233154	-0.612793	0.227648	-0.054397	0.001636	0.753974	0.143980	-0.614773	0.181237	-1.618088	-78.303394	28.349636
39791		5.196666	-3.518041	2.156240	0.675436	-3.537299	-4.239480	0.096037	0.874344	0.402701	-0.921631	-0.235107	-0.625977	0.130935	-0.087357	0.052374	0.759485	0.139714	-0.607097	0.187338	-3.896214	-77.035683	30.814089
39792		5.194334	-2.918070	0.900179	1.498187	-2.410550	-4.497568	0.217088	-0.837409	0.182812	-0.943848	-0.235840	-0.599365	0.129781	-0.072718	0.023666	0.752205	0.142259	-0.614923	0.189263	-5.269679	-78.221605	32.531394
39793		6.942130	-1.834718	0.308083	1.726124	-1.030934	-2.912611	0.556667	-0.739943	-0.013138	-0.952148	-0.249512	-0.583984	0.173467	-0.045956	0.008987	0.745433	0.149256	-0.620602	0.192108	-4.915932	-79.290082	32.976966
39794		7.876658	-0.871151	0.056279	1.547811	-0.027581	-2.040531	0.856283	-0.627219	-0.061836	-0.955811	-0.265381	-0.557373	0.196882	-0.021955	0.002716	0.738979	0.159127	-0.624322	0.197005	-3.641308	-80.203790	32.921496
39795		8.012949	-1.751873	-0.154538	2.101294	-0.732345	-1.916613	1.065729	-0.639916	-0.029804	-0.966309	-0.276855	-0.535400	0.200333	-0.043829	-0.002845	0.731773	0.170684	-0.627579	0.203767	-2.214454	-81.133123	33.016251
39796		7.877550	-2.134599	-0.385889	2.455291	-0.957215	-2.078587	1.458377	-0.159565	0.009142	-0.973877	-0.303955	-0.519775	0.196965	-0.053160	-0.010225	0.727186	0.184251	-0.625346	0.214931	-0.322084	-81.373555	33.208588
39797		8.564341	-0.674785	-0.467429	1.822733	0.396100	-1.413731	1.517164	-0.130462	0.014184	-0.972412	-0.330811	-0.500000	0.214131	-0.016610	-0.011653	0.722422	0.198176	-0.622485	0.226596	1.653354	-81.573586	33.402719
39798		10.483371	-0.566615	-1.288716	2.572113	1.111545	0.386792	0.993595	-0.574175	0.209827	-0.983398	-0.337891	-0.471191	0.262343	-0.013092	-0.030503	0.714738	0.207058	-0.625420	0.234791	0.997747	-82.416325	35.496965
39799		12.070174	0.495429	-0.828820	1.568799	1.827101	2.054032	0.588859	-0.419030	0.410689	-0.992188	-0.336182	-0.448975	0.301788	0.014079	-0.019040	0.708606	0.210265	-0.628579	0.241983	-2.934764	-83.020492	40.306732
39800		12.823102	1.492071	-0.513425	0.603749	2.531544	2.842193	0.191916	-0.276929	0.451745	-0.992920	-0.322754	-0.442383	0.320402	0.039140	-0.011634	0.704451	0.209187	-0.631738	0.246774	-8.494005	-83.363889	46.177338
39801		12.175951	1.264723	-2.051624	1.694992	3.239438	2.048613	0.075812	-0.705685	0.359457	-1.009033	-0.314453	-0.420166	0.304689	0.033034	-0.048573	0.697445	0.209120	-0.638743	0.248690	-15.070772	-84.261333	52.896207
39802		12.519456	-0.144115	-1.263853	1.824893	1.675496	2.524944	-0.121627	0.016055	0.167680	-0.998291	-0.302979	-0.431396	0.312987	-0.002995	-0.031654	0.697273	0.206612	-0.639536	0.249230	-17.603364	-84.182673	55.261363
39803		13.348243	-0.737626	3.777916	-1.388431	-1.451061	3.930630	-0.205767	2.836832	0.060058	-0.956055	-0.301270	-0.510986	0.336789	-0.017966	0.082587	0.719759	0.195310	-0.615331	0.255282	-11.218612	-80.230433	48.517589
39804		13.120701	6.732205	13.462849	-12.910388	-0.666049	5.402820	0.274164	2.452627	0.780538	-0.946045	-0.278564	-0.548584	0.336484	0.170429	0.326922	0.734996	0.183782	-0.594101	0.270275	-12.683227	-76.573228	50.406447
39805		11.224276	6.871047	7.006958	-8.184914	3.524311	2.138523	-0.765196	-0.136204	1.901252	-0.947021	-0.216309	-0.561768	0.276096	0.180042	0.173951	0.728992	0.162980	-0.602221	0.281671	-24.644551	-75.892856	61.585143
39806		6.657788	-2.033279	7.969415	-4.303048	-4.505229	-1.261133	-1.042601	1.384614	1.445827	-0.940430	-0.166992	-0.588379	0.170717	-0.045195	0.196919	0.736077	0.137605	-0.596089	0.289713	-29.591536	-73.189461	65.160840
39807		9.609750	-6.258405	6.696083	-0.966117	-6.262577	1.853878	-1.050894	-3.042300	0.822325	-1.006836	-0.138428	-0.513184	0.235173	-0.151729	0.178426	0.711525	0.132659	-0.628877	0.283986	-44.091200	-75.993808	78.625437
39808		11.638123	-5.731661	-1.287622	4.553036	-1.311955	2.330381	0.008729	-2.635771	0.224460	-1.042480	-0.137695	-0.455811	0.292203	-0.142470	-0.022591	0.689519	0.140214	-0.652405	0.281551	-57.839182	-78.138229	92.734886
39809		11.070443	-2.543395	-2.678753	3.637565	1.778662	1.132616	0.732617	0.599058	-0.273114	-1.032959	-0.150391	-0.479980	0.276029	-0.063899	-0.069622	0.693938	0.146591	-0.644233	0.286225	-52.482721	-77.968168	88.329125
39810		9.724839	0.588802	-0.296171	0.222109	2.801571	-0.481143	0.747464	2.531594	-0.365770	-0.987305	-0.170898	-0.544189	0.242791	0.013726	-0.014960	0.713787	0.146830	-0.618680	0.293570	-38.762118	-75.794501	75.341065
39811		5.873552	2.647835	3.721468	-4.028241	1.440848	-3.726528	0.197030	2.396103	-0.314073	-0.953369	-0.178467	-0.590576	0.149798	0.065389	0.088741	0.732694	0.142104	-0.595827	0.296574	-30.184534	-73.217278	66.730995
39812		5.688752	3.211270	2.921559	-3.594674	2.376765	-4.099637	-0.188377	-0.174837	-0.192946	-0.962158	-0.183105	-0.588379	0.142252	0.080111	0.073161	0.732349	0.142414	-0.597886	0.293112	-30.129875	-73.578850	66.387343
39813		6.555115	1.782785	1.986979	-1.904626	1.989440	-3.292682	-0.476716	-0.175778	-0.130252	-0.958252	-0.169678	-0.590576	0.163841	0.044599	0.049769	0.732262	0.139619	-0.601100	0.288058	-30.752193	-73.896612	66.319542
39814		5.925439	-0.025164	2.726715	-1.527130	-0.019869	-3.471256	-0.727666	-0.234429	-0.190530	-0.960938	-0.163086	-0.590576	0.147934	-0.000359	0.068606	0.732342	0.135175	-0.605606	0.280436	-31.639806	-74.330833	66.152861
39815		6.718036	-1.690007	1.429460	0.460331	-0.550934	-2.776243	-0.711859	-1.151608	-0.342354	-0.976563	-0.161621	-0.555176	0.167228	-0.042632	0.038526	0.725838	0.135212	-0.618071	0.269937	-34.566975	-75.985715	68.120029
39816		7.859724	-2.053029	-1.133465	2.712993	0.581716	-2.094531	-0.680764	-1.125963	-0.399974	-0.996826	-0.160156	-0.541992	0.196601	-0.052531	-0.025126	0.719451	0.135852	-0.629915	0.259119	-37.691818	-77.631055	70.322233
39817		8.909341	-1.582421	-1.793340	2.970252	1.350404	-1.184346	-0.570992	-0.509812	-0.284110	-0.999268	-0.155762	-0.535400	0.222869	-0.040664	-0.043126	0.717210	0.134537	-0.635932	0.251197	-39.223869	-78.459714	71.045889
39818		11.151092	-0.956626	0.284912	0.989742	1.132336	1.281504	-0.321304	-0.105147	-0.182308	-0.999023	-0.160156	-0.533203	0.278712	-0.024521	0.007587	0.717400	0.133367	-0.637670	0.246833	-39.232381	-78.745025	70.578053
39819		11.347555	-0.323375	0.532808	0.472445	1.546315	1.436360	-0.164679	0.115770	-0.076484	-0.994629	-0.157959	-0.535400	0.283700	-0.008329	0.012927	0.718752	0.132078	-0.637111	0.245031	-38.598408	-78.688792	69.684341
39820		10.892178	-1.281172	0.172933	1.248617	0.831041	1.052906	-0.187354	-0.072721	0.027623	-0.997314	-0.151367	-0.533203	0.272311	-0.031925	0.004646	0.718315	0.130333	-0.638484	0.243670	-39.429690	-78.748975	70.251469
