// General information: 
//  MT Manager version: 2019.2.0 
//  XDA version: 2019.2.0 build 3853 rev 94535 built on 2019-09-09
// Device information: 
//  DeviceId: 00B40ACF
//  ProductCode: MTW2-3A7G6
//  Firmware Version: 4.6.0
//  Hardware Version: 1.1.0
// Device settings: 
//  Filter Profile: human(46.1)
//  Option Flags: Orientation Smoother Disabled, AHS Disabled, ICC Disabled
// Coordinate system: ENU
PacketCounter	SampleTimeFine	Acc_X	Acc_Y	Acc_Z	FreeAcc_E	FreeAcc_N	FreeAcc_U	Gyr_X	Gyr_Y	Gyr_Z	Mag_X	Mag_Y	Mag_Z	VelInc_X	VelInc_Y	VelInc_Z	Quat_q0	Quat_q1	Quat_q2	Quat_q3	Roll	Pitch	Yaw
27433		20.486013	5.954099	-6.441283	-0.000000	-0.000000	12.471308	1.219415	2.496517	1.962482	-0.639648	0.666016	-0.929932	0.203438	0.061943	-0.066585	0.516124	-0.173219	-0.787018	-0.290196	137.068399	-65.913911	-176.220550
27434		20.607197	7.535187	-6.272390	-0.000000	0.000000	13.006835	1.261990	2.597409	2.159440	-0.613037	0.675537	-0.951904	0.204406	0.077970	-0.064899	0.508185	-0.152294	-0.786770	-0.315510	129.772776	-63.605022	-169.497428
27435		19.474590	9.408772	-6.390505	1.639143	2.050062	12.585619	1.116497	2.556871	2.394934	-0.592773	0.680420	-0.973633	0.192764	0.096768	-0.065843	0.521673	-0.160146	-0.784181	-0.295417	133.505993	-65.894006	-171.969893
27436		17.293334	8.373079	-6.193820	2.509627	1.692237	10.145445	0.910309	2.397208	2.613917	-0.568604	0.696533	-0.993408	0.171061	0.086262	-0.063607	0.535574	-0.164453	-0.777049	-0.286900	134.135517	-67.925596	-172.087173
27437		16.320594	3.880750	-4.452211	-0.421478	-0.522841	7.529777	0.682081	2.273165	2.714230	-0.544189	0.703857	-1.006592	0.162139	0.041169	-0.046231	0.546048	-0.169433	-0.770984	-0.280550	134.847481	-69.563028	-172.574429
27438		16.028924	-2.171441	-2.458992	-4.680259	-3.883779	5.375185	0.593330	2.220611	2.714616	-0.519531	0.708740	-1.024170	0.160277	-0.019462	-0.026430	0.558832	-0.175136	-0.763332	-0.272688	135.785985	-71.561388	-173.209023
27439		15.348818	-2.893020	-3.443965	-3.513342	-4.760680	5.046152	0.366914	2.013538	2.718769	-0.504639	0.729004	-1.028564	0.153505	-0.026778	-0.036036	0.572425	-0.185226	-0.754826	-0.261263	138.777396	-73.934946	-175.963329
27440		12.427852	0.159418	-3.658795	-0.354485	-2.273777	2.937070	-0.199836	1.639111	2.528758	-0.477783	0.731689	-1.032959	0.123940	0.003125	-0.037607	0.581664	-0.193179	-0.747446	-0.256268	140.482290	-75.589141	-177.848817
27441		10.730933	-1.015753	-3.819658	-0.029722	-2.821091	1.269288	-0.905271	1.153560	2.294562	-0.464844	0.747559	-1.037354	0.107195	-0.009102	-0.038772	0.590747	-0.214299	-0.739873	-0.240170	151.300320	-77.712506	170.984814
27442		11.754772	-6.015485	-1.894982	-4.503150	-5.463022	1.493070	0.193506	1.043798	2.242510	-0.444824	0.752441	-1.043945	0.118111	-0.058814	-0.019623	0.597463	-0.220753	-0.734563	-0.233931	155.662366	-78.822099	166.643218
27443		9.394926	-11.733647	-1.483143	-7.321848	-9.233698	-0.365021	1.170732	0.804652	2.293304	-0.424561	0.748535	-1.059082	0.095223	-0.116158	-0.015895	0.607611	-0.244775	-0.728898	-0.199003	-177.692591	-79.480982	140.955908
27444		6.704865	-8.401293	-1.073690	-5.006477	-6.579721	-2.861190	2.241489	0.590007	2.070366	-0.422119	0.746338	-1.078857	0.067879	-0.083184	-0.011872	0.614491	-0.244894	-0.726714	-0.185242	-169.788981	-79.688033	134.225994
27445		1.409278	7.018592	-5.023172	8.036367	3.244423	-8.643561	1.458098	0.637816	1.261729	-0.408447	0.744629	-1.085449	0.013489	0.070636	-0.049762	0.628148	-0.280551	-0.713790	-0.131245	-136.897931	-76.018398	102.778918
27446		-3.869465	20.212766	-10.036272	19.878740	10.029453	-15.151303	0.336092	-0.197848	0.198291	-0.421631	0.737793	-1.096436	-0.038796	0.202258	-0.100061	0.628042	-0.280332	-0.714352	-0.129145	-136.684618	-75.857989	102.757531
27447		1.702258	13.154426	-0.867105	7.987236	10.624717	-9.897997	0.494310	-0.534962	-0.313770	-0.424072	0.741943	-1.087646	0.017251	0.131538	-0.008300	0.607231	-0.277098	-0.733101	-0.130577	-147.581858	-74.299263	113.746568
27448		3.065696	1.788249	-0.023978	0.682733	2.201722	-7.113958	-0.006025	-0.752692	-0.364008	-0.430420	0.730713	-1.083252	0.030690	0.017827	-0.000125	0.604221	-0.276271	-0.735880	-0.130660	-149.010546	-74.041940	115.227973
27449		-0.617523	3.483235	-4.204287	5.468199	0.462541	-9.539534	-0.321108	-1.155003	-0.829343	-0.450684	0.732666	-1.074463	-0.005788	0.034789	-0.042133	0.582707	-0.259847	-0.754361	-0.154506	-165.681238	-73.625220	131.245162
27450		-0.815987	7.838948	-2.964316	7.015629	4.636644	-10.238842	-0.836576	-1.574618	-1.594607	-0.466309	0.725586	-1.061279	-0.007300	0.078325	-0.030031	0.574407	-0.257468	-0.760320	-0.160250	-169.772029	-72.937508	135.015826
27451		1.639234	6.562594	-1.351900	4.373830	4.871250	-7.640008	-1.213686	-1.930167	-1.950069	-0.492920	0.718262	-1.043945	0.017163	0.065378	-0.013753	0.542160	-0.239752	-0.782423	-0.190775	173.515979	-70.030601	150.472793
27452		2.389145	3.312148	-1.487231	2.300897	2.243692	-6.886865	-1.231993	-2.156901	-2.352637	-0.515137	0.711182	-1.028564	0.024438	0.032745	-0.014813	0.529923	-0.235910	-0.789800	-0.199359	169.752564	-68.611275	153.740456
27453		1.971444	3.251847	-1.423002	2.117461	2.020770	-6.998951	-1.012712	-2.316054	-2.878197	-0.548584	0.699219	-1.006592	0.020343	0.032157	-0.014160	0.498083	-0.214591	-0.807920	-0.230497	158.241937	-64.655157	164.119627
27454		2.186993	5.077499	-0.805738	2.528740	3.834766	-6.633123	-0.918729	-2.471874	-3.351512	-0.575195	0.687500	-0.984619	0.022815	0.050361	-0.008011	0.483137	-0.206141	-0.816429	-0.239850	155.283332	-62.595606	166.833802
27455		3.433743	5.431453	-0.331742	1.497439	4.317379	-5.283456	-1.005110	-2.642452	-3.744845	-0.605713	0.664551	-0.960449	0.035388	0.053642	-0.003125	0.451511	-0.183810	-0.830458	-0.269614	147.763441	-58.107050	173.279825
27456		5.195328	4.435457	-0.371885	-0.194238	3.534152	-3.958881	-0.998420	-2.786637	-4.148846	-0.643311	0.645996	-0.947266	0.052905	0.043247	-0.003204	0.433285	-0.172535	-0.838945	-0.280476	145.499943	-55.465806	175.300808
27457		6.909922	3.608769	-0.363109	-2.142049	2.608610	-2.777397	-0.805612	-2.883076	-4.593675	-0.673340	0.612061	-0.918701	0.069948	0.034475	-0.002768	0.403469	-0.148622	-0.848175	-0.309391	140.025094	-50.931162	179.776813
27458		8.095341	3.624636	0.085460	-3.554225	2.760198	-2.170146	-0.693952	-2.965099	-5.010441	-0.699219	0.578125	-0.887939	0.081804	0.034209	0.001942	0.382457	-0.133298	-0.856441	-0.320104	138.388434	-47.769153	-178.590886
27459		9.272366	3.181767	0.457124	-5.303904	2.231654	-1.864764	-0.724239	-3.109716	-5.359931	-0.727051	0.541992	-0.861328	0.093447	0.029339	0.005911	0.356348	-0.110935	-0.860817	-0.345982	134.441992	-43.651018	-175.593674
27460		10.344962	3.541898	1.326991	-6.884949	2.813673	-1.690629	-0.972063	-3.238343	-5.674228	-0.754883	0.503418	-0.832764	0.104169	0.032539	0.014790	0.331865	-0.093789	-0.867582	-0.358288	133.071428	-40.019437	-174.374783
27461		11.341427	2.752045	1.818774	-8.638864	2.107335	-2.041412	-1.410109	-3.401715	-5.958823	-0.780273	0.462891	-0.803955	0.113840	0.024269	0.019943	0.309382	-0.076171	-0.866211	-0.384915	129.577064	-36.485486	-172.408900
27462		14.842885	0.762528	1.277916	-12.435682	-0.255135	-1.583064	-1.550740	-3.558982	-6.109986	-0.798828	0.417969	-0.768799	0.148313	0.003205	0.015383	0.281422	-0.058911	-0.870490	-0.399473	128.267014	-32.480738	-171.665461
27463		17.690855	-0.203652	1.269661	-15.435469	-1.550852	-1.220239	-1.311123	-3.553755	-6.205216	-0.815186	0.375244	-0.739990	0.176471	-0.007420	0.015872	0.264858	-0.047917	-0.865649	-0.422145	125.504102	-29.934086	-170.659012
27464		21.242800	-2.610562	1.720762	-19.937165	-3.451127	-2.640920	-1.059260	-3.585474	-6.218987	-0.835938	0.328125	-0.700195	0.211126	-0.032580	0.021162	0.235790	-0.029943	-0.869081	-0.433826	124.701934	-25.837608	-170.242370
27465		24.818019	-6.112092	1.023997	-23.910443	-6.663428	-3.652695	-0.719520	-3.442619	-6.306882	-0.840820	0.279053	-0.673584	0.245862	-0.068852	0.014724	0.228871	-0.027668	-0.863411	-0.448748	122.866621	-24.837837	-169.997031
27466		26.670509	-9.852592	0.266388	-26.502912	-9.958366	-7.253984	-0.209277	-3.296953	-6.354411	-0.848145	0.234375	-0.644775	0.263303	-0.106923	0.007133	0.200211	-0.007860	-0.867039	-0.456178	122.587220	-20.753694	-169.585779
27467		26.005656	-12.238347	-0.472324	-26.311110	-11.503169	-8.633437	0.167422	-3.318797	-6.018004	-0.855469	0.189697	-0.611572	0.256250	-0.130132	-0.000556	0.204937	-0.017248	-0.864005	-0.459563	122.093934	-21.714840	-170.173268
27468		24.105726	-13.209458	-0.576143	-24.692186	-11.916035	-11.811285	0.299049	-3.257331	-5.250786	-0.856201	0.149658	-0.587158	0.237533	-0.138357	-0.002077	0.178732	-0.001737	-0.868069	-0.463150	122.257205	-18.174570	-170.149461
27469		22.565748	-14.268452	2.234239	-24.815453	-9.472978	-13.290691	0.219411	-3.030549	-4.292378	-0.855225	0.118408	-0.560791	0.222155	-0.147505	0.025567	0.194329	-0.026636	-0.867315	-0.457484	122.859032	-21.189895	-171.885876
27470		21.431544	-16.166265	7.607262	-25.608268	-5.992720	-19.125060	-0.169268	-2.647362	-3.267712	-0.849854	0.093994	-0.542969	0.210604	-0.165058	0.079016	0.175310	-0.018680	-0.869743	-0.460939	122.856043	-18.794209	-172.160785
27471		21.075626	-20.118008	11.349675	-28.452661	-4.350632	-22.026552	-0.365441	-1.951568	-2.193194	-0.856201	0.082764	-0.529785	0.207412	-0.203257	0.115902	0.201212	-0.058351	-0.866450	-0.453182	123.710316	-23.676219	-174.909836
27472		19.442545	-21.386378	12.955031	-27.541593	-3.502967	-25.057314	-0.179602	-0.906840	-0.901895	-0.853516	0.073730	-0.520996	0.192868	-0.214619	0.130620	0.195184	-0.056678	-0.867200	-0.454593	123.670197	-22.958075	-175.068458
27473		18.838102	-21.650415	13.307454	-28.940002	-2.142196	-22.405855	-0.422718	-0.109701	0.295346	-0.854004	0.082764	-0.525391	0.188627	-0.215944	0.133635	0.233850	-0.110716	-0.857553	-0.444589	124.872607	-29.968551	-178.806488
27474		17.686953	-19.175755	13.118513	-27.003440	-0.636868	-20.904165	-0.920155	0.662431	1.349279	-0.847412	0.091797	-0.534180	0.178590	-0.189952	0.131472	0.239172	-0.116101	-0.853953	-0.447306	124.420031	-30.820364	-178.954014
27475		18.924256	-16.425799	7.498227	-26.007939	-1.857857	-11.873274	-1.542006	0.988644	2.448935	-0.850830	0.122803	-0.541016	0.191602	-0.161342	0.075290	0.283372	-0.182946	-0.832342	-0.439815	125.755540	-39.245896	175.906344
27476		6.341904	4.248233	-9.475598	0.477312	-5.326432	1.116672	-2.304229	0.695282	2.718066	-0.844971	0.142822	-0.543213	0.062513	0.042239	-0.095462	0.290088	-0.195963	-0.823667	-0.446117	124.918307	-40.746784	175.154824
27477		5.814751	27.905648	-16.024836	19.856982	0.654535	16.159447	-1.861935	0.502642	1.610829	-0.845459	0.156250	-0.552246	0.055498	0.278002	-0.162981	0.319852	-0.257656	-0.799207	-0.438835	127.397534	-47.509754	168.807087
27478		12.270401	8.567296	-3.271137	-1.161113	2.836130	5.196127	-1.220420	0.746976	1.146865	-0.841309	0.165283	-0.563232	0.122086	0.086171	-0.033693	0.323768	-0.262541	-0.793824	-0.442821	126.758834	-48.292116	168.725475
27479		18.788814	-3.235392	2.401415	-14.052465	3.987427	2.672219	-0.874557	1.040158	1.443158	-0.841797	0.176270	-0.569824	0.188237	-0.030894	0.023173	0.344753	-0.306393	-0.773125	-0.435369	129.677680	-53.116902	163.190209
27480		16.947598	0.807956	2.291687	-9.580582	5.299476	3.349486	-0.641698	1.111462	1.716952	-0.840088	0.196533	-0.580811	0.169522	0.009606	0.021946	0.351784	-0.311699	-0.767138	-0.436568	129.495293	-54.280946	162.960314
27481		16.687059	3.067384	3.465745	-6.422880	7.668795	4.322397	-0.733270	0.863846	2.060321	-0.838623	0.211914	-0.583252	0.166689	0.032517	0.033820	0.373113	-0.350528	-0.744061	-0.429290	133.096455	-58.891890	157.071305
27482		15.024699	-0.545070	4.818083	-8.668982	7.181115	1.256167	-0.661713	0.749941	2.335879	-0.834961	0.234375	-0.587646	0.150475	-0.003536	0.047631	0.379727	-0.358815	-0.737087	-0.428674	133.750441	-60.159470	155.872662
27483		10.048188	-0.636953	0.627776	-4.617341	2.467796	-1.189998	-0.607749	0.653622	2.381341	-0.840088	0.254150	-0.592285	0.100568	-0.005154	0.005966	0.403249	-0.386397	-0.714376	-0.421609	137.677269	-64.416874	150.591313
27484		8.129527	-2.046477	-2.163997	-4.269721	-0.940306	-2.339875	-0.705823	0.479336	2.275242	-0.836182	0.267578	-0.603271	0.081470	-0.019615	-0.021765	0.408364	-0.394908	-0.707473	-0.420438	138.965783	-65.489106	148.722766
27485		9.019815	-6.754805	-3.270904	-8.119412	-3.188509	-1.964915	-0.786445	0.322759	2.242920	-0.830322	0.291992	-0.596924	0.090896	-0.066660	-0.032592	0.426982	-0.416961	-0.687545	-0.413657	144.030439	-68.763962	142.577779
27486		11.523230	-5.325187	-2.630744	-7.514557	-1.509540	0.642474	-0.526618	0.419647	2.168975	-0.828613	0.305420	-0.605713	0.115746	-0.052068	-0.026412	0.431786	-0.424647	-0.680993	-0.411685	146.049835	-69.673454	140.095258
27487		10.858883	-2.041872	-2.113449	-3.816583	-0.092109	0.769043	-0.085089	0.551400	1.793963	-0.824707	0.318848	-0.605713	0.108707	-0.019453	-0.021426	0.446717	-0.441867	-0.664747	-0.404116	152.546896	-71.996555	132.900487
27488		9.557792	-2.568587	-2.137883	-3.859983	-0.558276	-0.468926	0.362543	0.557039	1.607689	-0.818604	0.334473	-0.614746	0.095720	-0.024878	-0.021691	0.452602	-0.445259	-0.660657	-0.400535	154.906126	-72.690774	130.642699
27489		9.755803	-1.947845	-2.466231	-2.812880	-0.620051	0.023615	0.543110	0.554612	1.497331	-0.818848	0.341309	-0.616943	0.097631	-0.018680	-0.024984	0.465235	-0.456310	-0.648958	-0.392672	161.798872	-74.195364	123.588427
27490		10.011222	-0.499303	-1.625803	-1.506407	0.608312	0.211061	0.605179	0.563464	1.436332	-0.814697	0.350342	-0.623535	0.100098	-0.004224	-0.016554	0.471249	-0.458442	-0.645535	-0.388639	164.646093	-74.742300	120.993261
27491		9.733551	1.634790	-0.376938	0.603406	2.297346	-0.225559	0.453462	0.431358	1.391553	-0.810791	0.370361	-0.630127	0.097210	0.017033	-0.003941	0.480943	-0.466570	-0.636436	-0.382041	171.313786	-75.621532	114.255374
27492		10.143718	0.641581	0.207091	-0.401137	2.668301	-0.011302	0.149046	0.315447	1.344880	-0.812988	0.365967	-0.636719	0.101394	0.007096	0.001916	0.484853	-0.469878	-0.632809	-0.379059	174.323420	-75.897412	111.238493
27493		10.214108	1.042171	0.138370	0.249425	2.709195	0.088309	-0.196576	0.217222	1.321307	-0.806885	0.381592	-0.632324	0.102071	0.011097	0.001262	0.492229	-0.475276	-0.625624	-0.374724	179.759816	-76.432732	105.742510
27494		10.191639	0.411592	-0.404852	-0.082978	2.039869	0.188987	-0.420876	0.157261	1.267810	-0.811523	0.383545	-0.636963	0.101884	0.004753	-0.004138	0.494086	-0.479972	-0.621420	-0.373285	-177.454517	-76.508354	102.629357
27495		10.377197	-1.286062	-1.006763	-1.380907	1.034449	0.549535	-0.439543	0.198629	1.137241	-0.812012	0.399170	-0.632568	0.103833	-0.012293	-0.010143	0.500489	-0.482643	-0.615977	-0.370322	-173.175786	-76.917833	98.417114
27496		10.376308	-1.873688	-1.541929	-1.703613	0.384569	0.699449	-0.150955	0.372632	0.917043	-0.812012	0.399170	-0.639160	0.103819	-0.018273	-0.015599	0.502965	-0.485150	-0.612543	-0.369386	-170.881618	-77.056544	95.973739
27497		10.373268	-2.303556	-1.681743	-1.926817	0.065405	0.771339	0.141745	0.552190	0.718695	-0.807861	0.408203	-0.647949	0.103768	-0.022651	-0.017120	0.510220	-0.484173	-0.608871	-0.366780	-167.291179	-77.550597	92.792670
27498		10.091188	-1.838018	-1.990250	-1.305295	-0.204499	0.551919	0.423990	0.604773	0.603634	-0.808105	0.412598	-0.650146	0.100906	-0.018033	-0.020246	0.514190	-0.483815	-0.606636	-0.365409	-165.131545	-77.804814	90.830795
27499		9.494645	-1.094286	-1.996934	-0.459464	-0.213909	-0.061995	0.620394	0.559843	0.530604	-0.810303	0.412598	-0.654541	0.094918	-0.010628	-0.020268	0.521220	-0.481543	-0.604395	-0.362151	-161.716238	-78.188819	88.010144
27500		9.271152	-0.774750	-1.910622	-0.103984	-0.124597	-0.316470	0.629133	0.441666	0.538907	-0.810059	0.410400	-0.663330	0.092689	-0.007437	-0.019335	0.525041	-0.480727	-0.603078	-0.359904	-159.549675	-78.325250	86.165461
27501		9.200753	0.868333	-1.823717	1.542260	0.369480	-0.527303	0.476903	0.319404	0.556527	-0.814941	0.419189	-0.667725	0.091954	0.008983	-0.018363	0.530169	-0.479742	-0.601252	-0.356741	-156.500166	-78.469392	83.547596
27502		9.196174	0.647692	-1.730033	1.366093	0.388380	-0.540968	0.264328	0.209455	0.578453	-0.812988	0.426025	-0.672363	0.091924	0.006766	-0.017388	0.532463	-0.480404	-0.599776	-0.354913	-154.627327	-78.441596	81.790682
27503		9.904275	0.099618	-1.352149	0.832478	0.708854	0.123965	0.171494	0.204441	0.586242	-0.810791	0.430420	-0.670166	0.099025	0.001298	-0.013622	0.536166	-0.480325	-0.597958	-0.352506	-152.091655	-78.476892	79.509134
27504		10.565706	-0.800322	-0.645941	-0.148909	1.233539	0.729975	0.192563	0.264496	0.566160	-0.815186	0.428223	-0.676758	0.105670	-0.007698	-0.006607	0.538416	-0.481033	-0.596224	-0.351045	-150.229689	-78.453209	77.721411
27505		10.706952	-0.415489	-0.466499	0.249523	1.508778	0.802865	0.274821	0.286765	0.606433	-0.813232	0.434814	-0.676758	0.107075	-0.003824	-0.004824	0.542712	-0.480064	-0.594629	-0.348452	-147.599901	-78.516712	75.455584
27506		9.955134	-0.489261	-0.777804	0.309701	1.041577	0.125514	0.357206	0.276937	0.606958	-0.811279	0.439453	-0.685547	0.099555	-0.004576	-0.007924	0.545447	-0.480414	-0.593037	-0.346405	-145.540005	-78.457559	73.562279
27507		10.017938	-0.839239	-0.576450	-0.005036	1.101303	0.196426	0.442247	0.269902	0.632965	-0.815918	0.448242	-0.685547	0.100197	-0.008062	-0.005918	0.550322	-0.478489	-0.592011	-0.343099	-142.838750	-78.501983	71.389852
27508		10.040898	-0.079291	-0.819940	0.865781	1.106114	0.163520	0.475010	0.253152	0.652153	-0.811279	0.443848	-0.689941	0.100400	-0.000446	-0.008328	0.553323	-0.478675	-0.590562	-0.340501	-140.691067	-78.384647	69.475544
27509		10.074452	-0.549848	-0.941745	0.543497	0.823016	0.272478	0.530749	0.239503	0.664871	-0.820557	0.452637	-0.694336	0.100751	-0.005138	-0.009552	0.558396	-0.476312	-0.589870	-0.336710	-138.005611	-78.384443	67.405291
27510		10.365395	-1.217471	-0.832378	-0.017007	0.762000	0.629295	0.553898	0.252542	0.694468	-0.812012	0.463867	-0.698730	0.103685	-0.011791	-0.008488	0.561624	-0.476384	-0.588436	-0.333735	-135.806413	-78.218221	65.483559
27511		10.218243	-0.909435	-0.869491	0.358633	0.768001	0.447746	0.534491	0.262539	0.749797	-0.812012	0.463867	-0.703125	0.102204	-0.008688	-0.008853	0.566774	-0.474185	-0.587525	-0.329742	-133.031343	-78.154708	63.319719
27512		10.035181	-0.764457	-1.092917	0.644816	0.576036	0.273711	0.537069	0.257896	0.798695	-0.814697	0.470459	-0.703369	0.100367	-0.007214	-0.011078	0.570116	-0.474579	-0.585778	-0.326508	-130.761626	-77.912681	61.314167
27513		10.037720	-0.510801	-1.315723	1.056112	0.435746	0.259146	0.559157	0.279930	0.849428	-0.810547	0.483887	-0.709961	0.100379	-0.004645	-0.013311	0.575347	-0.472617	-0.584627	-0.322212	-127.949777	-77.766534	59.110924
27514		9.887625	0.002480	-1.656708	1.738649	0.275774	0.056962	0.568531	0.318267	0.898263	-0.813232	0.490479	-0.712158	0.098848	0.000516	-0.016723	0.579061	-0.473087	-0.582494	-0.318713	-125.555131	-77.463175	56.992763
27515		10.306884	-0.128075	-1.829732	1.841176	0.132072	0.492054	0.544995	0.401604	0.945972	-0.808838	0.495117	-0.716553	0.103036	-0.000743	-0.018507	0.584442	-0.471454	-0.580702	-0.314552	-122.638050	-77.256681	54.630888
27516		10.645079	-0.090552	-1.844183	2.043457	0.185304	0.794646	0.544982	0.540468	0.970105	-0.802246	0.504150	-0.727539	0.106403	-0.000339	-0.018731	0.588812	-0.471819	-0.577681	-0.311403	-119.909276	-76.942223	52.151837
27517		10.780632	-0.466187	-1.383432	1.667379	0.452172	0.928214	0.578968	0.795741	0.948987	-0.804932	0.512939	-0.729736	0.107770	-0.004110	-0.014276	0.595052	-0.469733	-0.574710	-0.308175	-116.448119	-76.776521	49.199162
27518		10.647212	-0.619930	-1.499202	1.692145	0.216953	0.821343	0.522932	0.977389	0.981161	-0.798584	0.524414	-0.747559	0.106426	-0.005637	-0.015527	0.600585	-0.469478	-0.570286	-0.306040	-113.015627	-76.500004	45.979197
27519		10.717626	-0.824600	-1.502083	1.662929	0.075536	0.912535	0.418445	1.050065	1.043143	-0.792236	0.533447	-0.754150	0.107136	-0.007655	-0.015600	0.607087	-0.467829	-0.566043	-0.303605	-109.295868	-76.250856	42.639120
27520		11.107755	-0.964436	-1.346065	1.700346	0.164819	1.287011	0.394792	1.065622	1.106424	-0.781250	0.544678	-0.767334	0.111055	-0.009003	-0.014071	0.612689	-0.468131	-0.560800	-0.301612	-105.955203	-75.831270	39.429971
27521		11.355648	-0.646445	-0.820421	1.978434	0.727761	1.394231	0.438297	1.095199	1.159285	-0.779541	0.553711	-0.776123	0.113544	-0.005787	-0.008839	0.619252	-0.466854	-0.556077	-0.298921	-102.469849	-75.422341	36.298098
27522		11.630861	-0.382494	-0.396617	2.273163	1.192493	1.544602	0.422283	1.118693	1.235416	-0.761963	0.565186	-0.791504	0.116305	-0.003097	-0.004624	0.625173	-0.467292	-0.550338	-0.296521	-99.350825	-74.848278	33.321508
27523		11.973908	-0.009124	-0.032465	2.704901	1.641529	1.735504	0.357103	1.174502	1.337322	-0.760254	0.578613	-0.793701	0.119731	0.000711	-0.001027	0.632049	-0.466265	-0.544940	-0.293517	-96.083932	-74.274294	30.397048
27524		12.345124	-0.053916	-0.239001	3.049345	1.419339	2.067731	0.254408	1.257125	1.463902	-0.747070	0.587891	-0.809082	0.123432	0.000368	-0.003166	0.638186	-0.467583	-0.537901	-0.291114	-93.217020	-73.496307	27.564738
27525		12.919614	-0.085719	-1.255339	3.808972	0.470354	2.587469	0.192181	1.366085	1.596590	-0.738770	0.607910	-0.815674	0.129108	0.000186	-0.013436	0.645701	-0.466848	-0.531271	-0.287878	-90.075638	-72.722104	24.736082
27526		14.149659	-0.132358	-2.725780	4.986404	-0.818017	3.682419	0.237899	1.466277	1.730294	-0.721191	0.619385	-0.831055	0.141296	-0.000067	-0.028295	0.652601	-0.468536	-0.522805	-0.285064	-87.388271	-71.711929	22.057186
27527		15.908009	-0.138386	-4.289454	6.453401	-2.141545	5.195203	0.412935	1.588657	1.865760	-0.706055	0.635254	-0.842285	0.158736	0.000188	-0.044157	0.661031	-0.467789	-0.514994	-0.281056	-84.459658	-70.700495	19.484953
27528		17.780977	0.195687	-5.470931	8.211885	-2.992461	6.610485	0.689826	1.745402	2.033026	-0.688477	0.644775	-0.861816	0.177290	0.003953	-0.056247	0.669933	-0.468247	-0.505389	-0.276616	-81.713456	-69.423280	16.984336
27529		19.179376	1.454669	-5.979225	10.387280	-2.924964	7.194185	1.009138	1.892733	2.181737	-0.673096	0.658447	-0.875244	0.191041	0.016941	-0.061521	0.679591	-0.467205	-0.496119	-0.271553	-78.983309	-68.134203	14.696868
27530		20.892177	2.414533	-6.126891	12.398184	-2.634933	8.052116	1.293594	2.074551	2.320779	-0.648926	0.672363	-0.899170	0.207970	0.026967	-0.063261	0.690814	-0.465683	-0.485334	-0.265266	-76.145395	-66.579262	12.425344
27531		21.882183	5.803218	-6.255501	16.118027	-1.373967	7.213950	1.665743	2.302500	2.404162	-0.626465	0.675049	-0.918945	0.217363	0.061183	-0.064562	0.701898	-0.463272	-0.474665	-0.259638	-73.432681	-65.080141	10.297395
27532		22.527635	9.012981	-7.380414	20.005568	-1.027358	5.738953	1.775355	2.431935	2.517801	-0.604248	0.682373	-0.951904	0.223200	0.093615	-0.075706	0.714915	-0.459772	-0.462510	-0.252171	-70.596571	-63.277370	8.277158
27533		21.311748	10.987972	-8.302348	21.847282	-1.125290	3.040842	1.527415	2.389646	2.720053	-0.580078	0.700684	-0.969482	0.210586	0.113398	-0.084693	0.725288	-0.458131	-0.450969	-0.246374	-68.584903	-61.631227	6.746942
27534		17.782602	8.864776	-7.659868	18.694520	-1.735238	0.233681	1.156379	2.240025	2.903750	-0.552979	0.698975	-0.986816	0.175641	0.091657	-0.078050	0.736431	-0.457641	-0.437535	-0.238322	-66.930675	-59.605230	5.609162
27535		16.075677	3.114205	-5.116572	12.731510	-2.308892	1.450056	0.951649	2.078665	2.914705	-0.529053	0.715088	-1.000000	0.159736	0.033723	-0.052673	0.744057	-0.458623	-0.426377	-0.232910	-65.970042	-58.009193	4.817897
27536		15.479655	-4.699738	-3.012503	6.234547	-4.219392	4.818829	0.973291	1.940664	2.803529	-0.506592	0.717773	-1.017578	0.155130	-0.044672	-0.031850	0.753574	-0.458647	-0.413794	-0.224819	-64.882733	-56.085801	4.186855
27537		14.045480	-3.629320	-3.346952	6.689568	-4.120503	2.832528	0.916244	1.624877	2.635787	-0.489014	0.729248	-1.028564	0.140636	-0.034283	-0.034772	0.758881	-0.460455	-0.404408	-0.220305	-64.453336	-54.753495	3.780739
27538		10.512897	0.084454	-3.188956	7.529600	-2.345848	-2.164643	0.359726	1.131949	2.401270	-0.471191	0.736328	-1.032959	0.104926	0.002163	-0.032481	0.764576	-0.462658	-0.394944	-0.213053	-64.261878	-53.232380	3.798862
27539		11.122446	-3.023131	-2.927382	5.755746	-3.570613	-0.038562	0.383225	0.827261	2.152794	-0.453125	0.732422	-1.043701	0.111418	-0.028976	-0.029791	0.765909	-0.467056	-0.388589	-0.210335	-64.632602	-52.346917	3.828832
27540		10.832614	-11.084886	-1.029447	-0.362175	-5.796624	4.593224	1.859777	0.886563	2.194756	-0.439697	0.734863	-1.070068	0.109483	-0.109547	-0.011801	0.774196	-0.463214	-0.381980	-0.200363	-63.682005	-50.993671	3.975449
27541		7.852033	-15.153249	-0.290489	-4.942480	-7.354727	4.775223	2.965072	0.455220	2.289212	-0.423584	0.726563	-1.087646	0.080237	-0.150554	-0.005323	0.780206	-0.459464	-0.378447	-0.192220	-62.986899	-50.100430	4.275787
27542		3.570720	-0.261097	-1.831495	2.915218	-1.520455	-7.497292	3.369199	0.455137	1.625834	-0.420654	0.713379	-1.107178	0.035683	-0.002011	-0.018433	0.790231	-0.448879	-0.376107	-0.180514	-61.297194	-49.154968	4.591770
27543		-3.994800	16.556740	-7.702470	11.111648	1.890832	-24.724596	0.901872	0.088653	0.618969	-0.416016	0.708984	-1.104980	-0.040495	0.165788	-0.076260	0.788852	-0.451368	-0.375019	-0.182590	-61.580120	-49.156618	4.426003
27544		-1.645030	21.870325	-3.924611	14.314949	8.136798	-24.822459	0.516944	-0.642050	-0.203625	-0.427246	0.706543	-1.109375	-0.016103	0.218820	-0.038733	0.788622	-0.449530	-0.378479	-0.180974	-61.595477	-49.434224	4.836950
27545		4.452006	5.115852	4.354806	4.222755	6.624914	-8.013965	-0.460684	-0.858504	-0.199273	-0.434082	0.708496	-1.096191	0.044384	0.051215	0.043621	0.782807	-0.453935	-0.383487	-0.184648	-62.696364	-50.177154	5.292116
27546		0.988723	-1.631340	-1.656596	0.303269	-2.193992	-8.597168	-0.761322	-1.256294	-0.211126	-0.438477	0.704102	-1.093994	0.009973	-0.016387	-0.016441	0.778454	-0.457657	-0.388169	-0.184078	-63.843722	-50.608947	6.215124
27547		-1.671801	4.103621	-2.699203	2.822484	-0.373283	-14.150140	-1.255071	-1.502220	-1.019736	-0.463379	0.712402	-1.070068	-0.016304	0.040949	-0.027373	0.769343	-0.462951	-0.397140	-0.189914	-65.497808	-51.898241	7.027512
27548		0.529387	6.769482	-0.406486	5.021148	3.020663	-13.267099	-1.801310	-1.904828	-1.513129	-0.477051	0.714111	-1.056885	0.005848	0.067612	-0.004620	0.759866	-0.468631	-0.406214	-0.194881	-67.382521	-53.129214	8.101878
27549		2.720070	3.062817	-0.525039	3.916334	1.239057	-9.386375	-1.795902	-2.114839	-1.745863	-0.504150	0.713623	-1.037354	0.027522	0.030342	-0.005234	0.747519	-0.474219	-0.418725	-0.202486	-69.696347	-54.890670	9.448015
27550		2.252832	0.007534	-0.652764	1.539472	-0.349158	-8.078033	-1.424466	-2.129584	-2.192737	-0.526123	0.701904	-1.019775	0.022595	-0.000217	-0.006286	0.737357	-0.477041	-0.430382	-0.208586	-71.589176	-56.480552	10.751306
27551		1.786155	1.423371	-0.226590	2.074233	0.633574	-9.062084	-1.159519	-2.204398	-2.703201	-0.552979	0.696777	-1.000000	0.018076	0.013978	-0.002149	0.724966	-0.477728	-0.445839	-0.217781	-73.674469	-58.706300	12.250160
27552		2.368566	3.189868	0.083410	3.523932	1.765202	-9.305713	-1.032798	-2.308997	-3.095188	-0.577148	0.682861	-0.975830	0.024165	0.031532	0.000948	0.713837	-0.476991	-0.460388	-0.225744	-75.649068	-60.766742	13.850800
27553		3.453500	3.171803	0.196320	3.923989	1.986672	-8.175993	-0.941213	-2.401214	-3.387391	-0.608154	0.666748	-0.953857	0.035040	0.031137	0.002234	0.700352	-0.474633	-0.478127	-0.235851	-78.141910	-63.329090	15.971793
27554		4.632023	2.664746	0.325383	3.874217	2.039522	-6.732216	-0.792235	-2.477147	-3.749258	-0.633789	0.635010	-0.931885	0.046765	0.025788	0.003728	0.687947	-0.471242	-0.494639	-0.244934	-80.695864	-65.701912	18.297503
27555		5.659972	2.409842	0.646064	3.718390	2.371936	-5.476657	-0.629887	-2.507761	-4.148504	-0.664551	0.612061	-0.914307	0.056997	0.022941	0.007100	0.673536	-0.464775	-0.514601	-0.255969	-83.964702	-68.613161	21.481274
27556		6.534284	2.335705	1.339442	3.388535	3.094994	-4.439028	-0.580898	-2.546849	-4.480382	-0.694824	0.584961	-0.898926	0.065668	0.021929	0.014164	0.659673	-0.458307	-0.532671	-0.266547	-87.780045	-71.280078	25.187270
27557		7.487577	2.398610	1.680690	3.185969	3.578799	-3.357417	-0.620102	-2.629920	-4.757662	-0.718506	0.553223	-0.876709	0.075190	0.022254	0.017724	0.643609	-0.448753	-0.553914	-0.278509	-93.487666	-74.359353	30.946605
27558		8.405107	2.256994	2.303146	2.592855	4.213418	-2.292623	-0.927900	-2.770447	-4.996822	-0.748779	0.519287	-0.850342	0.084253	0.020577	0.024099	0.626628	-0.441571	-0.572515	-0.290825	-101.668801	-76.994244	38.838463
27559		9.785830	2.152834	2.198395	2.226362	4.281673	-0.761954	-1.330183	-2.908194	-5.212315	-0.769775	0.483154	-0.821777	0.098045	0.019126	0.023276	0.607035	-0.431323	-0.593824	-0.304699	-115.548261	-79.670227	52.538923
27560		11.189443	1.364415	1.431548	1.442851	3.477241	0.906716	-1.464223	-2.970936	-5.345080	-0.791016	0.447021	-0.792969	0.111980	0.010764	0.015893	0.586616	-0.424210	-0.611842	-0.318711	-135.242541	-81.201935	71.653174
27561		13.327195	-0.726362	0.520994	-0.749576	2.052003	3.362448	-1.385840	-2.999630	-5.390588	-0.805420	0.411133	-0.768799	0.132914	-0.010804	0.007272	0.565736	-0.411738	-0.632460	-0.332278	-161.858653	-81.584991	98.182506
27562		16.119841	-1.825756	-0.314487	-2.341873	1.269704	6.190354	-0.988858	-2.968756	-5.521107	-0.821777	0.366211	-0.737793	0.160635	-0.022705	-0.000652	0.544857	-0.401802	-0.650260	-0.344742	176.437131	-80.276545	119.580003
27563		18.777653	-2.838700	-0.327036	-4.678621	1.121076	8.558371	-0.445679	-2.949550	-5.670257	-0.826904	0.326172	-0.713379	0.186892	-0.033698	-0.000438	0.524643	-0.384700	-0.671055	-0.355586	159.483730	-77.881636	136.990924
27564		21.252718	-4.327312	-0.017658	-7.763396	1.060728	10.407190	-0.096087	-2.992777	-5.779151	-0.838623	0.279053	-0.686768	0.211130	-0.049387	0.003013	0.503866	-0.370680	-0.689493	-0.365123	150.057408	-74.908611	146.628171
27565		23.791986	-6.689510	0.445404	-12.048091	0.522681	11.759571	0.186330	-3.053600	-5.794666	-0.850586	0.238770	-0.660156	0.235745	-0.073754	0.007998	0.483429	-0.351058	-0.709750	-0.373243	143.142279	-71.493370	154.339366
27566		24.203199	-8.645528	0.689254	-15.289026	-0.235955	10.851130	0.466134	-3.029093	-5.546925	-0.853516	0.194336	-0.637939	0.239371	-0.093141	0.010320	0.462906	-0.335724	-0.727319	-0.379492	139.599159	-68.151277	158.396801
27567		22.690351	-9.842951	0.852210	-17.015657	-1.172048	8.114737	0.444019	-2.921276	-5.017954	-0.858643	0.156250	-0.613525	0.224185	-0.104101	0.011583	0.444360	-0.318045	-0.744102	-0.384322	136.949079	-64.926175	161.885721
27568		21.114500	-10.933943	1.712875	-18.499933	-1.264489	5.165502	0.120780	-2.733840	-4.221195	-0.859619	0.118408	-0.589355	0.208515	-0.113771	0.019923	0.426130	-0.307224	-0.756885	-0.388783	135.678329	-62.122486	163.382155
27569		20.126081	-12.026269	5.046360	-20.890806	0.753165	1.938096	-0.332877	-2.511360	-3.284778	-0.856689	0.098389	-0.569336	0.198594	-0.123452	0.053172	0.411167	-0.297805	-0.766772	-0.392831	134.655370	-59.827383	164.577709
27570		19.652432	-15.248604	8.169763	-24.778812	1.796718	-1.554000	-0.743083	-2.100823	-2.331851	-0.855713	0.076172	-0.556152	0.193855	-0.154447	0.084315	0.397371	-0.294479	-0.773004	-0.397295	134.106150	-58.030370	164.721731
27571		19.053917	-18.286270	10.222400	-27.756329	1.915833	-4.537714	-0.716806	-1.363231	-1.312098	-0.857910	0.071533	-0.545166	0.188630	-0.183733	0.104172	0.391161	-0.291583	-0.775869	-0.400000	133.610374	-57.166071	165.087617
27572		17.493204	-18.912152	11.409231	-27.904178	2.582950	-6.891816	-0.694842	-0.611015	-0.245576	-0.853516	0.073975	-0.545166	0.174349	-0.188937	0.115282	0.387281	-0.293207	-0.776024	-0.402281	133.453536	-56.822707	164.799846
27573		17.493293	-17.959491	11.386780	-27.134450	3.113544	-6.314759	-1.003798	0.100715	0.776735	-0.851563	0.084961	-0.545166	0.175685	-0.178339	0.114677	0.392031	-0.296444	-0.771703	-0.403616	133.207384	-57.603780	164.733442
27574		19.242860	-15.234439	8.913866	-24.913770	2.930992	-2.565854	-1.454718	0.641242	1.830340	-0.854492	0.102783	-0.556152	0.194095	-0.149922	0.089614	0.396013	-0.305041	-0.764742	-0.406563	133.095636	-58.619965	163.883366
27575		11.900485	-7.505914	-1.680488	-11.115355	-3.359072	-1.692294	-2.079418	0.783967	2.560485	-0.855713	0.129395	-0.562988	0.119889	-0.073701	-0.016503	0.406679	-0.316008	-0.753450	-0.408736	133.035610	-60.592725	162.977512
27576		6.824524	21.874768	-13.147226	19.292385	-0.645799	8.222264	-2.591980	0.493093	2.119542	-0.853760	0.138428	-0.571777	0.065605	0.217723	-0.134462	0.408714	-0.328208	-0.743694	-0.414912	132.672843	-61.675038	161.695909
27577		10.108455	18.165401	-7.284350	13.176361	2.889413	7.601130	-1.752536	0.674719	1.168859	-0.854004	0.149658	-0.576172	0.099773	0.181590	-0.074773	0.415444	-0.334166	-0.735301	-0.418416	132.059015	-62.947952	161.571963
27578		16.339367	2.293018	1.165363	-5.378558	4.336055	5.215728	-1.403361	0.899112	1.349704	-0.854492	0.162842	-0.587402	0.163283	0.024110	0.010753	0.419204	-0.340142	-0.728200	-0.422251	131.516813	-63.867745	161.279076
27579		17.170258	-4.652515	3.204158	-11.941063	3.282756	3.353725	-0.962756	1.045674	1.612779	-0.843994	0.176514	-0.589600	0.172235	-0.044986	0.031361	0.429505	-0.344333	-0.720078	-0.422432	131.252816	-65.431967	161.341123
27580		16.178013	-0.361082	2.139914	-7.217943	3.955424	4.282777	-0.829746	0.791584	2.046694	-0.844482	0.189697	-0.598389	0.161888	-0.001867	0.020769	0.435220	-0.351787	-0.713052	-0.422358	131.760792	-66.610721	160.264867
27581		16.043376	1.191338	3.354264	-5.770856	5.601185	4.518026	-0.784467	0.608429	2.384635	-0.840820	0.214355	-0.603027	0.160376	0.013956	0.033003	0.446383	-0.358800	-0.704619	-0.418946	132.841707	-68.387562	159.063560
27582		12.044272	-0.838633	2.649588	-5.611249	3.702359	0.559691	-0.573841	0.577454	2.419430	-0.843750	0.231934	-0.607422	0.120608	-0.006853	0.026169	0.452420	-0.367366	-0.697731	-0.416570	134.380003	-69.619649	157.063798
27583		7.942879	-2.106707	-2.112236	-3.576474	-1.701696	-2.309396	-0.657081	0.442884	2.390797	-0.838135	0.263184	-0.609863	0.079627	-0.020186	-0.021231	0.463618	-0.373616	-0.689815	-0.411855	136.150485	-71.329046	155.340920
27584		7.823529	-5.307022	-4.030650	-5.651865	-4.621692	-2.580009	-0.713534	0.238777	2.296848	-0.838867	0.276611	-0.609863	0.078791	-0.052311	-0.040213	0.467805	-0.382673	-0.683451	-0.409408	138.404001	-72.322747	152.538921
27585		9.859202	-5.405430	-3.750120	-6.145252	-4.097630	-0.543011	-0.600123	0.269345	2.248141	-0.828369	0.298828	-0.614502	0.099142	-0.053054	-0.037474	0.477237	-0.389812	-0.675865	-0.404349	141.258404	-73.808605	149.629876
27586		9.979684	-2.891930	-2.835661	-4.022110	-2.248039	-0.077988	-0.075710	0.421621	1.809076	-0.822021	0.307861	-0.618896	0.099993	-0.028026	-0.028557	0.482152	-0.395237	-0.671150	-0.401093	143.601122	-74.632397	147.150429
27587		10.311151	-3.129022	-1.718997	-4.418472	-1.280827	0.081718	0.597778	0.457678	1.544735	-0.833496	0.316650	-0.623291	0.103309	-0.030441	-0.017518	0.492317	-0.397775	-0.666452	-0.394007	146.895189	-75.850856	144.415528
27588		10.393247	-1.133515	-1.081785	-2.656931	0.070476	0.356294	0.933376	0.387297	1.402055	-0.827148	0.327881	-0.629883	0.103987	-0.010555	-0.011070	0.498208	-0.399372	-0.664523	-0.388201	149.731003	-76.461958	142.045731
27589		10.100752	1.220838	-0.511797	-0.409451	1.449826	0.262342	0.798110	0.240351	1.361132	-0.818359	0.332520	-0.632080	0.100915	0.012916	-0.005189	0.507292	-0.401452	-0.660884	-0.380426	154.000094	-77.413245	138.409937
27590		10.621961	1.611728	-0.095369	-0.147548	2.096672	0.723590	0.590075	0.208544	1.379877	-0.822998	0.336914	-0.634521	0.106104	0.016853	-0.001015	0.511777	-0.404107	-0.658688	-0.375384	157.400288	-77.847886	135.275140
27591		10.395782	1.736487	1.013301	-0.198363	3.140180	0.297342	0.172480	0.122143	1.365597	-0.823975	0.358887	-0.634521	0.103842	0.018065	0.010085	0.519090	-0.407577	-0.654217	-0.369360	162.280659	-78.602597	130.696162
27592		10.960635	1.548595	1.500216	-0.486885	3.639015	0.737329	-0.228989	0.031437	1.368373	-0.826416	0.363281	-0.634521	0.109499	0.016253	0.014967	0.521243	-0.412580	-0.650907	-0.366612	165.905935	-78.835194	126.865760
27593		11.682422	-1.897869	-0.343408	-2.812132	0.742032	1.665029	-0.281848	0.066924	1.363760	-0.817627	0.372314	-0.634521	0.116949	-0.018186	-0.003447	0.527551	-0.416596	-0.645936	-0.361807	171.277510	-79.414961	121.607923
27594		11.168635	-2.242681	-2.292092	-2.200371	-1.188527	1.534814	0.095237	0.158746	1.229103	-0.822510	0.379150	-0.643555	0.111803	-0.021729	-0.023020	0.530478	-0.420019	-0.643115	-0.358581	175.048910	-79.589477	117.827900
27595		10.009307	-2.837564	-2.267621	-2.443050	-1.589714	0.428557	0.474732	0.207133	1.084481	-0.816162	0.387939	-0.643555	0.100221	-0.027778	-0.022846	0.537985	-0.421086	-0.639605	-0.352369	-179.230027	-80.047451	112.635277
27596		9.440391	-1.562953	-2.139691	-1.171671	-1.040399	-0.133542	0.684920	0.201169	0.946045	-0.813965	0.394775	-0.650146	0.094455	-0.015109	-0.021544	0.541730	-0.421908	-0.638265	-0.348050	-175.705751	-80.138961	109.456093
27597		9.593092	-0.842679	-1.843964	-0.459310	-0.464144	-0.029511	0.737378	0.217561	0.841098	-0.818604	0.396973	-0.641357	0.095945	-0.007955	-0.018574	0.548927	-0.421849	-0.635533	-0.341789	-170.059526	-80.432319	104.438612
27598		10.114255	-0.689751	-2.005714	-0.178849	-0.449144	0.510215	0.679110	0.237494	0.778306	-0.821289	0.405762	-0.654541	0.101144	-0.006435	-0.020200	0.552440	-0.422047	-0.634388	-0.337991	-166.907752	-80.476880	101.637216
27599		9.873319	-0.941692	-2.384972	-0.070958	-0.937908	0.344669	0.665345	0.250515	0.713953	-0.816895	0.410400	-0.656738	0.098736	-0.008985	-0.024004	0.559016	-0.421843	-0.631663	-0.332494	-161.469046	-80.658719	96.757602
27600		9.817761	-0.974190	-2.017057	-0.167483	-0.628500	0.236309	0.659013	0.315220	0.646709	-0.819092	0.412598	-0.663330	0.098176	-0.009358	-0.020357	0.562473	-0.421516	-0.630503	-0.329265	-158.590355	-80.702123	94.223108
27601		9.423516	0.053771	-1.702655	0.774345	0.014877	-0.267830	0.670963	0.375573	0.563621	-0.819580	0.423584	-0.670166	0.094201	0.000861	-0.017201	0.568839	-0.420787	-0.627702	-0.324579	-153.379649	-80.851333	89.539247
27602		9.433602	0.085152	-2.061853	1.034126	-0.297206	-0.216171	0.640050	0.465526	0.494974	-0.821533	0.416992	-0.674316	0.094285	0.001151	-0.020835	0.572447	-0.419761	-0.626365	-0.322137	-150.663767	-80.953993	87.160230
27603		9.657672	0.057785	-1.773849	1.018392	-0.042360	-0.046361	0.544179	0.465082	0.508033	-0.817383	0.426025	-0.676758	0.096533	0.000872	-0.017961	0.578445	-0.419077	-0.623255	-0.318324	-145.511614	-81.056047	82.442437
27604		9.818093	-0.286991	-1.619389	0.716916	-0.048813	0.116206	0.442422	0.428318	0.530953	-0.821777	0.425781	-0.685547	0.098153	-0.002573	-0.016410	0.581551	-0.418768	-0.621599	-0.316303	-142.771070	-81.076795	79.924918
27605		9.790307	-0.908840	-1.432374	0.210559	-0.188878	0.119449	0.380122	0.402822	0.563886	-0.817627	0.432617	-0.683350	0.097899	-0.008785	-0.014538	0.586846	-0.418819	-0.618341	-0.312821	-137.809141	-81.030840	75.287277
27606		9.777663	-1.065982	-1.446348	0.151672	-0.283878	0.123452	0.354739	0.393155	0.583905	-0.817871	0.437012	-0.692139	0.097778	-0.010348	-0.014674	0.589717	-0.418967	-0.616511	-0.310830	-135.091473	-80.963549	72.741581
27607		9.735763	-0.928083	-1.824171	0.580082	-0.573611	0.102351	0.341194	0.380478	0.612364	-0.822510	0.439209	-0.687744	0.097350	-0.008951	-0.018442	0.594704	-0.419359	-0.613175	-0.307378	-130.400118	-80.793855	68.332576
27608		9.758037	-0.474245	-1.774694	1.034151	-0.323605	0.057421	0.369131	0.387908	0.608839	-0.820557	0.448242	-0.698730	0.097559	-0.004412	-0.017945	0.597603	-0.419529	-0.611303	-0.305245	-127.780084	-80.663078	65.892245
27609		9.838414	-0.861829	-1.606643	0.749504	-0.354912	0.158782	0.401391	0.389734	0.622536	-0.818359	0.454834	-0.705322	0.098379	-0.008280	-0.016275	0.602501	-0.419815	-0.608042	-0.301716	-123.482555	-80.408900	61.889289
27610		9.997006	-0.564166	-1.271234	0.942112	0.093788	0.236069	0.389872	0.422899	0.647703	-0.823242	0.459229	-0.709717	0.099960	-0.005293	-0.012934	0.605581	-0.419970	-0.605986	-0.299463	-120.894606	-80.223636	59.490636
27611		10.018308	-0.540773	-1.135822	1.031137	0.213401	0.229205	0.369515	0.460179	0.684521	-0.816650	0.468262	-0.714111	0.100174	-0.005044	-0.011598	0.610509	-0.420417	-0.602381	-0.296083	-116.831884	-79.890740	55.687960
27612		10.059689	-0.794055	-0.925300	0.803043	0.275094	0.284973	0.339258	0.493011	0.746683	-0.812500	0.477295	-0.725342	0.100602	-0.007549	-0.009514	0.613810	-0.420898	-0.599797	-0.293813	-114.202443	-79.625943	53.213580
27613		9.947622	-0.523695	-1.190049	1.294323	0.144262	0.134611	0.313018	0.521525	0.811475	-0.812744	0.483887	-0.725342	0.099465	-0.004814	-0.012168	0.618822	-0.421717	-0.595720	-0.290400	-110.406412	-79.180054	49.637994
27614		10.101036	-0.352865	-1.141808	1.539825	0.280594	0.237605	0.303725	0.596978	0.859603	-0.808594	0.492920	-0.738525	0.100990	-0.003077	-0.011724	0.622484	-0.422467	-0.592487	-0.288088	-107.736901	-78.825815	47.095942
27615		9.979975	-0.272180	-1.278597	1.811053	0.164196	0.086846	0.250679	0.712391	0.900469	-0.809082	0.504150	-0.740723	0.099764	-0.002256	-0.013144	0.627871	-0.423372	-0.587609	-0.285044	-104.006553	-78.306094	43.536930
27616		10.257886	-0.753725	-1.490931	1.666371	-0.234611	0.443136	0.284892	0.816513	0.933539	-0.804688	0.506348	-0.747314	0.102550	-0.007037	-0.015338	0.632195	-0.424049	-0.583459	-0.282997	-101.121895	-77.885139	40.755827
27617		10.510844	-1.348223	-1.617673	1.435659	-0.631101	0.791614	0.282041	0.916615	0.985687	-0.802734	0.517578	-0.756104	0.105097	-0.012941	-0.016677	0.638140	-0.424752	-0.577851	-0.280091	-97.473977	-77.274991	37.277044
27618		10.611830	-1.478798	-1.560543	1.461004	-0.665802	0.894935	0.274543	0.953522	1.063317	-0.789795	0.531250	-0.762695	0.106119	-0.014202	-0.016131	0.642955	-0.425603	-0.572915	-0.277920	-94.681042	-76.726245	34.572249
27619		10.641283	-1.429042	-1.418021	1.627078	-0.550095	0.880191	0.313777	0.941567	1.133918	-0.787842	0.538086	-0.778320	0.106423	-0.013664	-0.014703	0.648969	-0.426630	-0.566945	-0.274591	-91.625581	-75.966990	31.681206
27620		11.034563	-1.193544	-0.986024	1.853140	-0.040363	1.174584	0.359551	0.940021	1.194534	-0.783691	0.549316	-0.784912	0.110366	-0.011258	-0.010400	0.654025	-0.427547	-0.561817	-0.271690	-89.294044	-75.286089	29.487158
27621		11.327623	-0.577587	-0.685776	2.485160	0.526945	1.262622	0.396494	0.956904	1.247681	-0.775391	0.567139	-0.791504	0.113275	-0.005055	-0.007410	0.660166	-0.428557	-0.555677	-0.267850	-86.771736	-74.419788	27.165548
27622		11.702009	-0.616903	-0.038673	2.397570	1.086970	1.605988	0.395058	0.982552	1.303008	-0.769043	0.576172	-0.800293	0.117053	-0.005405	-0.000973	0.665469	-0.429544	-0.550145	-0.264545	-84.774285	-73.632885	25.323485
27623		11.917009	-0.514601	0.352779	2.559022	1.471990	1.749558	0.370384	1.022122	1.380661	-0.756104	0.594238	-0.806885	0.119218	-0.004329	0.002910	0.671738	-0.430671	-0.543555	-0.260459	-82.644179	-72.668456	23.390880
27624		12.036394	-0.071518	0.262414	3.204420	1.600684	1.681411	0.331445	1.092672	1.449575	-0.745117	0.601074	-0.817871	0.120377	0.000154	0.001966	0.677285	-0.432058	-0.537166	-0.257029	-80.892028	-71.755913	21.750379
27625		12.276928	-0.252991	-0.107090	3.552040	1.186548	1.882137	0.310816	1.180718	1.510749	-0.734619	0.619141	-0.824707	0.122775	-0.001600	-0.001799	0.683880	-0.433174	-0.529807	-0.252930	-78.955932	-70.695285	19.996497
27626		12.623456	-0.453418	-0.873404	4.119808	0.429224	2.152152	0.314383	1.292681	1.571535	-0.717041	0.630615	-0.837891	0.126205	-0.003528	-0.009556	0.689941	-0.434606	-0.522347	-0.249507	-77.278081	-69.660681	18.404646
27627		13.010285	-0.849683	-1.825261	4.682350	-0.593306	2.477056	0.387599	1.387250	1.631328	-0.710938	0.646484	-0.862061	0.130035	-0.007399	-0.019170	0.697144	-0.435262	-0.514205	-0.245216	-75.416811	-68.499792	16.766428
27628		14.372941	-1.441310	-2.770406	5.454930	-1.612233	3.750822	0.522528	1.473990	1.702728	-0.693115	0.653564	-0.864258	0.143635	-0.013116	-0.028798	0.704116	-0.435983	-0.505962	-0.241126	-73.748874	-67.333794	15.289752
27629		15.868950	-0.866807	-4.103220	7.474887	-2.376420	4.605225	0.763834	1.563506	1.784194	-0.680420	0.671631	-0.873047	0.158430	-0.007094	-0.042301	0.712318	-0.435483	-0.497327	-0.235847	-71.908675	-66.053445	13.849836
27630		17.976581	0.598082	-5.152051	10.343016	-2.391775	5.593112	1.071511	1.767659	1.858670	-0.660156	0.674316	-0.895020	0.179234	0.007930	-0.053067	0.721174	-0.434163	-0.488194	-0.230385	-69.963701	-64.715079	12.386013
27631		19.288006	2.972210	-6.163113	13.624926	-1.967224	5.330161	1.455190	1.967502	1.986330	-0.638184	0.683594	-0.916748	0.191952	0.032088	-0.063295	0.731426	-0.431237	-0.478501	-0.223803	-67.787145	-63.252724	10.925992
27632		20.472596	6.004360	-6.395713	16.959958	-0.495290	4.615018	1.756722	2.161440	2.133800	-0.617920	0.686523	-0.943115	0.203363	0.062790	-0.065616	0.742664	-0.427434	-0.467882	-0.216420	-65.529024	-61.638475	9.514639
27633		21.451852	9.920091	-7.345585	21.142875	0.931228	3.017154	1.792970	2.294582	2.324755	-0.593506	0.695801	-0.960693	0.212486	0.102347	-0.074993	0.753967	-0.423372	-0.456890	-0.208665	-63.420203	-59.956556	8.293379
27634		21.072267	10.837361	-7.656850	22.161041	1.214757	1.477426	1.515606	2.324926	2.568928	-0.575684	0.700928	-0.989258	0.208400	0.111649	-0.078162	0.765036	-0.421027	-0.444181	-0.200400	-61.712336	-58.035467	7.314336
27635		19.078424	8.808793	-6.650592	19.556378	0.842708	0.316346	1.179339	2.218708	2.775585	-0.544434	0.708252	-1.000000	0.188784	0.091116	-0.068076	0.774532	-0.419659	-0.432500	-0.192171	-60.508061	-56.228688	6.748289
27636		17.290932	2.826936	-3.878425	13.597740	-0.403359	1.888343	0.817591	2.064172	2.873108	-0.522461	0.719727	-1.015381	0.172066	0.030908	-0.040440	0.783348	-0.420654	-0.419186	-0.183573	-59.743238	-54.211237	6.387691
27637		17.400038	-4.450309	-1.525683	8.240806	-2.680628	5.991223	0.595290	2.004356	2.869354	-0.500488	0.733643	-1.024170	0.174449	-0.041953	-0.017131	0.790563	-0.421527	-0.407947	-0.175798	-59.201150	-52.487722	6.218814
27638		15.358431	-3.721130	-3.764032	9.071544	-4.194473	2.993024	0.270235	1.854110	2.792979	-0.478271	0.745117	-1.030762	0.153725	-0.035013	-0.039113	0.797260	-0.424467	-0.394906	-0.168087	-58.934459	-50.568117	6.076108
27639		12.269372	-0.990078	-4.081123	9.217054	-3.032249	-1.209516	-0.137777	1.383306	2.519667	-0.460938	0.756592	-1.037354	0.122520	-0.008385	-0.041653	0.800760	-0.428253	-0.386124	-0.162145	-59.139285	-49.223542	6.244533
27640		11.507059	-1.906115	-4.826182	8.757127	-4.174189	-1.736770	-0.365992	0.978326	2.327525	-0.447510	0.761230	-1.048340	0.115045	-0.017811	-0.048791	0.803690	-0.433385	-0.376889	-0.155611	-59.572027	-47.789669	6.542397
27641		11.269863	-6.004231	-2.992783	5.553436	-5.013191	0.959292	0.875379	0.986918	2.150244	-0.425049	0.763916	-1.050537	0.113184	-0.058694	-0.030744	0.807869	-0.432927	-0.371211	-0.148741	-59.315145	-46.766453	6.798759
27642		8.303608	-10.844308	-1.374294	0.400310	-6.790616	2.110009	2.073860	0.830652	2.053001	-0.415771	0.759766	-1.078857	0.084081	-0.107431	-0.015208	0.815336	-0.427694	-0.364906	-0.138377	-58.336537	-45.512927	7.089661
27643		4.320515	-7.847022	-0.773542	-0.770215	-4.969958	-2.360150	2.797604	0.451765	1.704489	-0.397461	0.747070	-1.085449	0.043852	-0.077979	-0.008927	0.821822	-0.419475	-0.363324	-0.129014	-57.189273	-44.862841	7.519692
27644		1.159601	3.172898	-6.192556	5.486399	-2.732293	-13.304385	1.798153	-0.015665	1.325653	-0.401855	0.744873	-1.100830	0.011388	0.032360	-0.061636	0.826371	-0.414479	-0.361740	-0.120257	-56.574703	-44.230894	8.112402
27645		-2.090795	16.655836	-8.560469	11.150872	3.663641	-24.553889	0.991802	-0.300922	0.277507	-0.406006	0.740234	-1.103027	-0.021011	0.166951	-0.084809	0.826557	-0.411854	-0.364828	-0.118661	-56.418202	-44.494783	8.412075
27646		2.402993	14.136227	-1.354110	9.390114	8.216858	-17.006259	0.965515	-0.661647	-0.489618	-0.412109	0.724609	-1.102783	0.024419	0.141366	-0.012778	0.827033	-0.407356	-0.369132	-0.117556	-56.022408	-44.938095	8.635892
27647		4.276416	3.781676	3.049378	3.263529	5.201145	-7.767050	0.473604	-0.762849	-0.623227	-0.423340	0.722168	-1.100586	0.042765	0.037611	0.030746	0.824894	-0.404731	-0.376247	-0.119085	-56.046253	-45.817413	8.922292
27648		1.011556	0.995064	-0.098043	1.243915	0.679071	-9.692194	0.188089	-1.196550	-0.836279	-0.434326	0.713135	-1.100586	0.010163	0.009909	-0.000910	0.822505	-0.403084	-0.382972	-0.119754	-56.253837	-46.596665	9.359238
27649		-0.779896	4.257538	-2.578724	3.063542	0.717639	-13.747600	-0.207684	-1.474649	-1.430004	-0.451904	0.706055	-1.091797	-0.007304	0.042602	-0.025887	0.817154	-0.401769	-0.394259	-0.124103	-56.753835	-48.078600	9.822771
27650		0.384516	6.047373	-1.469791	4.244697	2.837643	-13.391439	-0.516962	-1.735120	-1.907877	-0.478516	0.696533	-1.083252	0.004550	0.060394	-0.014817	0.811442	-0.401162	-0.404823	-0.129419	-57.323428	-49.536181	10.186108
27651		2.208297	4.461979	-0.114858	3.878470	3.039252	-10.532639	-0.750473	-1.971320	-2.254302	-0.503418	0.696045	-1.063477	0.022595	0.044363	-0.001094	0.803200	-0.400338	-0.419327	-0.136982	-58.178267	-51.562402	10.725778
27652		2.429445	2.904845	-0.213614	3.216063	1.979342	-9.460368	-0.764158	-2.181695	-2.614224	-0.534180	0.679688	-1.043701	0.024693	0.028720	-0.001978	0.795185	-0.399359	-0.432731	-0.144694	-58.989106	-53.491827	11.195712
27653		2.304776	3.501184	-0.474485	3.633811	2.142198	-9.799349	-0.784997	-2.388616	-3.009534	-0.553955	0.668213	-1.026123	0.023626	0.034641	-0.004601	0.784961	-0.396773	-0.450137	-0.154220	-59.962474	-56.002417	11.877991
27654		3.327497	4.138854	-0.676639	4.688361	2.496205	-9.145641	-0.920841	-2.619706	-3.394925	-0.580322	0.647705	-1.004150	0.034057	0.040784	-0.006512	0.774434	-0.394671	-0.466332	-0.164381	-61.031035	-58.434207	12.521225
27655		4.912476	4.221301	-0.483903	5.361771	2.861614	-7.523058	-0.973921	-2.777709	-3.734723	-0.613525	0.635742	-0.975830	0.049964	0.041263	-0.004351	0.761594	-0.390752	-0.486086	-0.176092	-62.356852	-61.404031	13.490485
27656		6.035774	3.739468	0.454427	4.870680	3.370045	-5.871627	-1.070129	-2.864448	-4.095465	-0.644287	0.614990	-0.956055	0.061035	0.036176	0.005220	0.748689	-0.387268	-0.503890	-0.188633	-63.748322	-64.239327	14.365037
27657		6.952270	3.189698	1.335087	4.090751	3.767661	-4.395026	-1.364563	-2.970684	-4.444827	-0.674561	0.585449	-0.927246	0.070004	0.030439	0.014177	0.732953	-0.382277	-0.524728	-0.203235	-65.654650	-67.606028	15.726075
27658		8.337979	2.643634	1.713065	3.671100	3.810911	-2.641235	-1.680847	-3.095616	-4.761869	-0.707520	0.560303	-0.896484	0.083704	0.024596	0.018213	0.716462	-0.378922	-0.543232	-0.219088	-68.091618	-70.811828	17.301772
27659		9.482188	1.668634	2.754088	2.196463	4.081000	-0.936800	-2.027582	-3.186851	-5.041656	-0.728760	0.530762	-0.865723	0.094754	0.014585	0.028896	0.697038	-0.373787	-0.564258	-0.236715	-71.739300	-74.489378	20.082772
27660		10.808024	0.847690	3.039915	1.204076	3.882119	0.686011	-2.369068	-3.222341	-5.258705	-0.761230	0.492188	-0.828369	0.107752	0.006014	0.032056	0.676920	-0.370817	-0.582200	-0.255572	-77.033007	-77.890051	24.133977
27661		12.602084	-0.261930	2.195123	0.438200	2.638051	2.697347	-2.195867	-3.156229	-5.395475	-0.773682	0.467285	-0.792969	0.125526	-0.005755	0.023987	0.655498	-0.363945	-0.602169	-0.274333	-86.151232	-81.542659	32.334772
27662		14.343163	-1.483029	1.676043	-0.833636	1.575886	4.591829	-1.737214	-3.012371	-5.464834	-0.792480	0.427002	-0.766602	0.142682	-0.018577	0.019064	0.635431	-0.357127	-0.619284	-0.291846	-103.456261	-84.548917	48.757789
27663		16.917068	-3.101527	0.184417	-2.193039	-0.518521	7.236197	-1.017706	-2.881655	-5.538627	-0.802246	0.388916	-0.744385	0.168174	-0.035664	0.004446	0.615489	-0.344640	-0.638685	-0.307374	-149.368137	-86.442596	94.430497
27664		19.768006	-4.774996	-0.118044	-4.550419	-1.720683	9.930279	-0.041527	-2.753172	-5.703315	-0.818604	0.341797	-0.717773	0.196203	-0.053360	0.001538	0.597555	-0.330615	-0.656598	-0.320158	162.618847	-85.139889	142.532020
27665		19.861271	-5.393443	0.639975	-6.812229	-1.752535	9.535206	0.420828	-2.722698	-5.979728	-0.830078	0.292725	-0.697754	0.196772	-0.059854	0.008965	0.578592	-0.311531	-0.676692	-0.332066	141.032190	-81.872011	164.678443
27666		20.310829	-6.825371	0.771511	-9.330663	-2.768435	9.287505	0.564390	-2.808397	-6.088246	-0.842041	0.248047	-0.675537	0.200772	-0.074417	0.010341	0.559537	-0.293788	-0.694851	-0.343206	133.015053	-78.307105	173.140875
27667		21.223108	-7.337416	0.874048	-11.250724	-3.305853	9.353608	0.503281	-2.903433	-5.709399	-0.844971	0.207764	-0.651123	0.209867	-0.079415	0.011604	0.539311	-0.275424	-0.713167	-0.353098	129.277557	-74.523648	177.425381
27668		22.738860	-9.269084	0.499448	-14.070768	-4.964643	9.691854	0.212611	-2.902279	-4.974064	-0.845459	0.163330	-0.622314	0.224887	-0.098313	0.008168	0.520251	-0.262124	-0.727921	-0.361609	127.850747	-71.258189	179.045071
27669		22.144324	-11.506502	1.512863	-17.172260	-5.660528	7.450087	0.016182	-2.795375	-4.224738	-0.849121	0.140869	-0.598145	0.218707	-0.119706	0.018189	0.501576	-0.250413	-0.741373	-0.368892	127.221823	-68.196010	179.808142
27670		20.542825	-11.550620	6.027355	-19.869891	-2.114145	4.057330	-0.236669	-2.568315	-3.523938	-0.843750	0.114258	-0.584717	0.202554	-0.119019	0.063027	0.485140	-0.242620	-0.751612	-0.375304	126.981649	-65.697820	179.921724
27671		19.821279	-12.946395	9.697009	-23.109836	0.049690	1.159534	-0.774735	-2.161676	-2.721788	-0.852051	0.098389	-0.567139	0.195363	-0.131753	0.099599	0.470412	-0.237784	-0.758989	-0.382239	126.645308	-63.618561	179.828389
27672		18.855963	-16.486095	9.803448	-25.582572	-1.774166	-1.701522	-1.092245	-1.561684	-1.771324	-0.849609	0.087402	-0.553955	0.186315	-0.165974	0.100400	0.459761	-0.236594	-0.762617	-0.388662	126.247925	-62.270411	179.571859
27673		17.448372	-18.411210	9.657144	-26.387370	-2.749554	-4.084738	-1.212727	-0.878913	-0.753964	-0.840332	0.085205	-0.549561	0.173360	-0.184174	0.098452	0.453501	-0.238279	-0.763118	-0.393967	125.845192	-61.630135	179.235341
27674		16.675193	-18.789739	9.360517	-26.213345	-2.881821	-4.987777	-1.452027	-0.328583	0.234747	-0.840820	0.092041	-0.547363	0.166816	-0.187014	0.095239	0.450966	-0.243106	-0.760702	-0.398573	125.441379	-61.629531	178.748745
27675		19.615978	-17.998631	7.246773	-25.990144	-3.710455	-1.328920	-1.748816	0.160599	1.289244	-0.845947	0.109619	-0.553955	0.197371	-0.178075	0.073872	0.452398	-0.252438	-0.754778	-0.402395	125.144570	-62.384694	177.900176
27676		15.301556	-17.714041	3.190328	-21.817869	-6.588213	-3.595907	-1.889315	0.707297	2.162051	-0.842041	0.125244	-0.558594	0.155032	-0.175163	0.033018	0.456983	-0.263419	-0.746566	-0.405484	124.803875	-63.631882	177.067677
27677		10.554856	5.415728	-7.479312	3.113173	-3.269318	3.464670	-2.569019	0.574775	2.599130	-0.838379	0.147461	-0.567383	0.104624	0.054552	-0.075794	0.461519	-0.279418	-0.735602	-0.409653	124.659529	-65.219160	175.490442
27678		8.570058	23.214952	-11.675497	20.135123	1.846468	8.622075	-1.425575	0.625176	1.280807	-0.845459	0.156250	-0.573975	0.083846	0.231849	-0.118672	0.464427	-0.286122	-0.729413	-0.412794	124.104552	-66.026947	175.202981
27679		14.744476	7.275808	-0.824101	0.387352	3.358954	6.298731	-0.759551	0.877572	1.137597	-0.836914	0.167725	-0.578613	0.146989	0.073561	-0.009165	0.469167	-0.291582	-0.723470	-0.414070	123.670054	-66.973880	175.106603
27680		17.656377	-3.865427	3.443248	-11.391264	1.695886	4.536493	-0.168493	1.082424	1.445055	-0.837402	0.180908	-0.589600	0.177020	-0.037348	0.033507	0.475809	-0.294950	-0.718446	-0.412851	123.430128	-68.006563	175.261798
27681		15.041160	-1.532648	1.512254	-7.355884	1.078677	3.438393	-0.262246	0.864299	1.934481	-0.833496	0.196777	-0.600586	0.150614	-0.013851	0.014491	0.482964	-0.301922	-0.712213	-0.410295	123.907386	-69.341541	174.510396
27682		15.983374	3.654039	3.022117	-3.729451	4.977413	5.655234	-0.372698	0.714903	2.275638	-0.833984	0.212158	-0.598633	0.159510	0.038412	0.029580	0.489580	-0.309436	-0.706235	-0.407177	124.785189	-70.649164	173.349045
27683		12.904548	0.593076	3.072766	-4.913584	3.524301	2.008807	-0.443898	0.641585	2.390805	-0.832764	0.240967	-0.605225	0.129059	0.007541	0.030298	0.496636	-0.318645	-0.699212	-0.403635	126.108170	-72.127081	171.628791
27684		8.588968	-1.256885	-1.505009	-2.925228	-1.504646	-1.640118	-0.508179	0.524224	2.374643	-0.829102	0.259033	-0.607666	0.085991	-0.011587	-0.015245	0.502413	-0.327125	-0.693047	-0.400319	127.674793	-73.395711	169.683746
27685		8.402162	-4.894479	-3.320264	-5.032788	-4.728631	-2.204531	-0.736741	0.336318	2.371957	-0.834229	0.278809	-0.609863	0.084539	-0.048066	-0.033166	0.507784	-0.337441	-0.685960	-0.397174	129.858704	-74.727762	166.926084
27686		10.317022	-6.061886	-3.865365	-6.165810	-5.523237	-0.346990	-0.772103	0.297753	2.440153	-0.828369	0.296631	-0.607910	0.103843	-0.059504	-0.038577	0.512307	-0.347150	-0.679497	-0.394097	132.435541	-75.893296	163.805039
27687		10.344803	-2.716786	-3.148504	-3.356121	-3.282030	0.300187	-0.509754	0.509725	2.053139	-0.824463	0.314453	-0.612305	0.103640	-0.026185	-0.031681	0.517707	-0.355712	-0.672607	-0.391214	134.982820	-77.096052	160.800414
27688		9.412786	-3.030023	-2.527156	-3.530089	-2.887389	-0.682127	-0.156602	0.500053	1.745337	-0.824951	0.325684	-0.616699	0.094324	-0.029498	-0.025484	0.522504	-0.360993	-0.667873	-0.388096	137.257383	-77.996031	158.379251
27689		9.432329	-1.985961	-2.202612	-2.570718	-2.094298	-0.497771	0.018986	0.455476	1.569775	-0.820801	0.336914	-0.621338	0.094425	-0.019117	-0.022243	0.527526	-0.366757	-0.662813	-0.384557	140.245529	-78.926204	155.236194
27690		9.857052	-1.176066	-1.731990	-1.972189	-1.259902	-0.011382	0.184943	0.430237	1.440400	-0.809570	0.339355	-0.632080	0.098614	-0.011034	-0.017542	0.532047	-0.370205	-0.659373	-0.380923	142.959014	-79.632355	152.582437
27691		10.137282	0.141262	-0.276442	-1.276341	0.679488	0.225659	0.182673	0.334348	1.377569	-0.817139	0.354736	-0.632324	0.101355	0.002113	-0.002932	0.536483	-0.375123	-0.655181	-0.377103	146.782613	-80.369450	148.693950
27692		10.654145	0.251020	0.118467	-1.279395	1.158235	0.704338	0.086895	0.273967	1.298803	-0.812744	0.359131	-0.636719	0.106524	0.003202	0.001040	0.539983	-0.378619	-0.652158	-0.373840	150.180379	-80.892740	145.300789
27693		10.451858	0.347085	1.215063	-1.461955	2.212228	0.375804	-0.157909	0.168628	1.278323	-0.811035	0.376953	-0.636719	0.104504	0.004148	0.012059	0.543025	-0.384270	-0.647915	-0.371034	154.808470	-81.425550	140.425134
27694		10.144778	0.974154	0.914461	-0.609122	2.223403	0.156554	-0.360000	0.114033	1.236663	-0.808838	0.376953	-0.636719	0.101390	0.010385	0.009068	0.544988	-0.389034	-0.644547	-0.369054	158.838108	-81.764975	136.143327
27695		10.092871	0.546028	-0.102834	-0.422325	1.164282	0.219250	-0.469474	0.103954	1.127401	-0.809570	0.392578	-0.639160	0.100895	0.006027	-0.001094	0.546956	-0.394932	-0.640183	-0.367470	163.704259	-82.118812	130.877160
27696		10.819588	-0.852982	-1.375896	-1.129738	-0.457525	1.059180	-0.277984	0.106540	1.045320	-0.809570	0.396973	-0.645752	0.108231	-0.007983	-0.013805	0.548663	-0.398837	-0.637305	-0.365705	167.685614	-82.326371	126.698158
27697		10.906835	-2.272443	-1.880317	-2.092878	-1.451517	1.195065	0.021193	0.177131	0.962315	-0.807617	0.401367	-0.628174	0.109159	-0.022197	-0.018902	0.551493	-0.402621	-0.633951	-0.363122	172.734939	-82.586354	121.543801
27698		9.794183	-2.367050	-2.766794	-1.641614	-2.392668	0.225412	0.388649	0.199539	0.897420	-0.812256	0.405762	-0.641357	0.098019	-0.023177	-0.027811	0.554533	-0.404027	-0.632290	-0.359812	176.858531	-82.747227	117.610782
27699		9.484671	-1.931892	-2.190965	-1.342866	-1.707691	-0.129133	0.696881	0.229315	0.798653	-0.805664	0.410400	-0.645752	0.094897	-0.018863	-0.022085	0.558506	-0.405367	-0.630281	-0.355660	-177.921946	-82.921184	112.669573
27700		9.712352	-0.590764	-1.627052	-0.277992	-0.602831	0.030318	0.790766	0.218201	0.733432	-0.814941	0.416992	-0.652344	0.097126	-0.005487	-0.016399	0.562095	-0.405076	-0.629580	-0.351556	-173.995667	-83.016595	109.170110
27701		9.868926	0.348801	-1.325332	0.547031	0.105002	0.135330	0.711961	0.187678	0.707647	-0.805908	0.417236	-0.658936	0.098663	0.003885	-0.013333	0.565737	-0.406134	-0.627865	-0.347537	-168.944858	-83.075772	104.406076
27702		10.134637	-0.231875	-1.105762	-0.002085	0.099645	0.384220	0.625915	0.195641	0.660885	-0.808350	0.419434	-0.663330	0.101342	-0.001949	-0.011163	0.568767	-0.406095	-0.627048	-0.344096	-165.331255	-83.101007	101.127325
27703		9.929266	-0.131887	-1.157646	0.211932	0.090691	0.182027	0.595338	0.163000	0.621746	-0.803955	0.426025	-0.665527	0.099287	-0.000976	-0.011661	0.571911	-0.407155	-0.625387	-0.340636	-160.784227	-83.080067	96.809236
27704		10.054326	-0.840607	-1.026607	-0.414758	-0.074843	0.320031	0.587427	0.176736	0.602408	-0.810791	0.428223	-0.665771	0.100559	-0.008073	-0.010379	0.574683	-0.407055	-0.624647	-0.337433	-157.494837	-83.051957	93.834717
27705		10.242867	-0.780151	-0.741011	-0.394056	0.241845	0.476134	0.569266	0.216465	0.609374	-0.815674	0.434814	-0.665771	0.102444	-0.007468	-0.007543	0.577889	-0.407980	-0.622822	-0.334199	-153.062670	-82.995920	89.620913
27706		10.018935	-0.739535	-0.880265	-0.225142	0.114802	0.268808	0.546190	0.222265	0.594003	-0.815674	0.437012	-0.678955	0.100201	-0.007073	-0.008934	0.580686	-0.407877	-0.621872	-0.331231	-149.826927	-82.945192	86.676039
27707		9.778119	-1.106493	-1.401402	-0.228752	-0.530840	0.110283	0.501921	0.220775	0.571070	-0.815674	0.439209	-0.678955	0.097797	-0.010750	-0.014149	0.583682	-0.408789	-0.620008	-0.328325	-145.779700	-82.841798	82.814906
27708		9.620333	-1.159300	-1.455109	-0.186638	-0.617015	-0.035356	0.510819	0.209381	0.550364	-0.811523	0.446045	-0.683350	0.096219	-0.011291	-0.014681	0.586278	-0.408659	-0.619103	-0.325559	-142.900808	-82.755456	80.208191
27709		9.577741	-1.121869	-1.470197	-0.063560	-0.608307	-0.077248	0.517477	0.176340	0.535483	-0.813721	0.446045	-0.683350	0.095794	-0.010924	-0.014815	0.589066	-0.409446	-0.617468	-0.322627	-139.362358	-82.593143	76.867191
27710		9.834978	-1.565803	-1.145017	-0.536796	-0.485741	0.185571	0.544434	0.163194	0.528828	-0.813965	0.450439	-0.687744	0.098381	-0.015367	-0.011573	0.591537	-0.409210	-0.616774	-0.319719	-136.849961	-82.460357	74.647945
27711		10.159009	-1.274665	-0.903844	-0.297999	-0.086801	0.461090	0.579303	0.147175	0.523072	-0.814209	0.459473	-0.692139	0.101616	-0.012455	-0.009150	0.594304	-0.409785	-0.615350	-0.316581	-133.708098	-82.251808	71.740689
27712		10.080870	-0.864684	-0.669240	0.010258	0.307252	0.322632	0.571136	0.158910	0.525739	-0.807617	0.463867	-0.696533	0.100826	-0.008363	-0.006797	0.596795	-0.409452	-0.614696	-0.313583	-131.406189	-82.091362	69.747509
27713		10.161534	-0.800570	-0.809783	0.218583	0.236276	0.407366	0.549110	0.191192	0.523302	-0.818848	0.465820	-0.694580	0.101628	-0.007717	-0.008216	0.599614	-0.409977	-0.613102	-0.310626	-128.450630	-81.869038	67.012580
27714		10.054694	-0.623613	-1.195230	0.616517	-0.023983	0.313186	0.556156	0.216087	0.536520	-0.816895	0.470459	-0.703369	0.100550	-0.005933	-0.012078	0.602249	-0.409617	-0.612209	-0.307751	-126.154578	-81.699323	65.014750
27715		10.123290	-0.710676	-1.457461	0.759322	-0.275531	0.407749	0.566460	0.259328	0.575855	-0.817139	0.477051	-0.707764	0.101234	-0.006774	-0.014725	0.605362	-0.410072	-0.610345	-0.304722	-123.162178	-81.446188	62.254027
27716		10.127688	-0.727801	-1.474622	0.830292	-0.294072	0.409732	0.586138	0.325135	0.632138	-0.810547	0.479492	-0.712158	0.101275	-0.006914	-0.014931	0.608517	-0.409729	-0.608947	-0.301682	-120.527348	-81.236476	59.928607
27717		10.288483	-1.085226	-1.375601	0.589576	-0.356395	0.601126	0.602223	0.412929	0.710476	-0.813232	0.494873	-0.712158	0.102894	-0.010445	-0.014000	0.612326	-0.410191	-0.606403	-0.298456	-117.142242	-80.924054	56.789260
27718		10.272507	-0.623299	-1.549899	1.173734	-0.287847	0.524317	0.624751	0.490333	0.790276	-0.806641	0.495117	-0.718750	0.102710	-0.005778	-0.015769	0.616268	-0.409939	-0.604199	-0.295141	-114.013993	-80.636454	53.982808
27719		10.365471	-0.726062	-1.762747	1.329554	-0.511908	0.629845	0.644934	0.579843	0.866157	-0.809082	0.503906	-0.725342	0.103633	-0.006754	-0.017950	0.620835	-0.410425	-0.600878	-0.291652	-110.346754	-80.229236	50.577744
27720		10.376382	-0.111277	-2.031868	2.115978	-0.444584	0.537857	0.663757	0.639697	0.930683	-0.795898	0.513184	-0.742920	0.103702	-0.000562	-0.020653	0.625467	-0.410221	-0.597933	-0.288073	-107.013826	-79.840845	47.580012
27721		10.730108	-0.470195	-1.860289	1.912897	-0.436943	0.909496	0.690439	0.725595	0.961162	-0.796143	0.517578	-0.745117	0.107253	-0.004121	-0.019007	0.630611	-0.410562	-0.594016	-0.284452	-103.394466	-79.344641	44.241962
27722		11.153017	-0.811750	-1.418620	1.597368	-0.191534	1.343968	0.752349	0.787084	1.000123	-0.789795	0.531250	-0.756348	0.111512	-0.007505	-0.014654	0.635903	-0.410032	-0.590530	-0.280670	-100.059275	-78.874468	41.284707
27723		11.191736	-0.713934	-0.995726	1.633262	0.204901	1.324840	0.788353	0.842083	1.026408	-0.785889	0.544678	-0.767334	0.111909	-0.006524	-0.010455	0.641585	-0.409999	-0.586225	-0.276786	-96.654345	-78.290550	38.212721
27724		11.401765	-0.950595	-0.715062	1.482461	0.321049	1.550058	0.801640	0.949093	1.054400	-0.779297	0.549316	-0.773926	0.114030	-0.008875	-0.007728	0.647453	-0.409193	-0.582103	-0.272987	-93.391404	-77.735476	35.346739
27725		11.460887	-0.338845	-0.398187	2.016930	0.873927	1.447455	0.780995	1.131231	1.061269	-0.775146	0.560547	-0.789307	0.114600	-0.002763	-0.004642	0.653908	-0.408770	-0.576747	-0.269582	-89.861595	-77.077366	32.133409
27726		11.310541	-0.059552	-0.621048	2.514310	0.760480	1.206133	0.715150	1.278032	1.074659	-0.764404	0.571777	-0.804688	0.113064	0.000036	-0.006934	0.660481	-0.407793	-0.571306	-0.266604	-86.424055	-76.437191	29.023090
27727		11.380407	-0.494817	-0.965631	2.555979	0.189058	1.328165	0.591973	1.371890	1.121093	-0.755859	0.583252	-0.813477	0.113759	-0.004280	-0.010450	0.667201	-0.407684	-0.564749	-0.263999	-83.110216	-75.663478	25.910062
27728		11.557371	-0.481707	-1.385056	3.030183	-0.203172	1.434352	0.476967	1.423525	1.193211	-0.742432	0.585693	-0.826660	0.115497	-0.004093	-0.014683	0.673742	-0.407567	-0.558166	-0.261558	-80.145170	-74.867235	23.126966
27729		12.086708	-1.531006	-2.122783	2.933546	-1.394037	2.119813	0.379813	1.492038	1.281183	-0.733887	0.601563	-0.837646	0.120799	-0.014495	-0.022157	0.680415	-0.408329	-0.550549	-0.259228	-77.415387	-73.925743	20.473110
27730		12.712367	-1.241596	-2.766389	3.913864	-1.794364	2.526448	0.393200	1.572186	1.372001	-0.716309	0.613037	-0.850830	0.126982	-0.011489	-0.028686	0.687290	-0.408709	-0.542872	-0.256670	-74.880909	-72.945692	18.064155
27731		13.779690	-1.124997	-3.302529	4.867718	-2.166009	3.365225	0.470375	1.656272	1.444776	-0.703369	0.626709	-0.868408	0.137593	-0.010176	-0.034190	0.694585	-0.409305	-0.534393	-0.253862	-72.489542	-71.837423	15.786206
27732		14.847441	-0.210610	-3.993075	6.579970	-2.252446	3.900616	0.605301	1.748072	1.527567	-0.687988	0.635986	-0.883789	0.148128	-0.000850	-0.041230	0.702388	-0.409038	-0.525919	-0.250495	-70.170445	-70.686458	13.703771
27733		16.248917	0.840880	-4.195097	8.303406	-1.836012	4.678707	0.794884	1.839795	1.632045	-0.672363	0.640869	-0.901367	0.162018	0.009903	-0.043405	0.710775	-0.408649	-0.516738	-0.246548	-67.967298	-69.402135	11.784255
27734		17.968518	2.205612	-4.343104	10.413528	-1.180659	5.573607	0.973424	1.956928	1.784087	-0.652588	0.652344	-0.910156	0.179042	0.023872	-0.045072	0.719953	-0.407349	-0.507280	-0.241663	-65.792547	-68.020599	10.049087
27735		19.378932	4.934154	-4.551436	13.548956	0.163040	5.581304	1.178487	2.099939	1.948770	-0.634766	0.659424	-0.940918	0.192805	0.051498	-0.047243	0.729794	-0.405870	-0.496914	-0.236106	-63.715590	-66.483823	8.466581
27736		20.660555	7.296855	-4.819104	16.414457	1.286913	5.425356	1.259910	2.240383	2.116874	-0.614990	0.668945	-0.960693	0.205262	0.075457	-0.050025	0.740319	-0.403833	-0.485856	-0.229762	-61.701440	-64.816239	7.048447
27737		20.658559	9.495118	-5.358465	18.759635	2.060606	3.950672	1.173859	2.347069	2.333693	-0.590576	0.678223	-0.980225	0.204813	0.097670	-0.055427	0.750723	-0.402655	-0.473774	-0.223209	-60.013261	-63.011535	5.868330
27738		19.498908	9.645964	-5.536796	18.861827	1.943917	2.200388	0.966119	2.336988	2.502374	-0.568359	0.687744	-0.997803	0.193099	0.099157	-0.057157	0.760882	-0.402287	-0.460961	-0.216193	-58.666503	-61.094323	4.970690
27739		17.887209	6.744077	-4.446970	15.869416	1.062516	1.685332	0.602402	2.271085	2.651710	-0.539551	0.701660	-1.008789	0.177437	0.069937	-0.046282	0.769768	-0.403651	-0.447923	-0.209494	-57.827589	-59.173011	4.374268
27740		16.951576	1.098903	-1.911127	10.644509	-0.259008	3.559406	0.298549	2.265264	2.695925	-0.519531	0.706543	-1.019775	0.169116	0.013301	-0.021010	0.778151	-0.406105	-0.434000	-0.202985	-57.228380	-57.172021	3.870541
27741		16.596352	-3.945687	-2.932865	8.069627	-4.095935	4.941469	-0.030981	2.234038	2.713464	-0.502441	0.726807	-1.028564	0.166137	-0.037208	-0.031178	0.785217	-0.409760	-0.420257	-0.197270	-56.937236	-55.250497	3.481118
27742		14.290514	-2.707166	-4.719913	8.886904	-4.913212	1.619375	-0.372547	1.887308	2.633287	-0.471191	0.736328	-1.028564	0.142792	-0.025281	-0.048499	0.790916	-0.414841	-0.407023	-0.191551	-57.032719	-53.395223	3.335981
27743		11.922978	-0.721054	-4.830284	9.066469	-3.923804	-1.542003	-0.955899	1.426464	2.486336	-0.454102	0.756592	-1.030762	0.118961	-0.005964	-0.049121	0.793690	-0.422341	-0.395872	-0.187002	-57.730842	-51.846311	3.484047
27744		10.826657	-2.799216	-5.058368	7.368594	-5.317534	-1.562628	-1.234295	1.037624	2.285329	-0.443115	0.765625	-1.032959	0.108316	-0.027068	-0.050977	0.795200	-0.430752	-0.385730	-0.182545	-58.667260	-50.419286	3.778467
27745		10.989923	-7.751285	-2.216337	3.302241	-5.710166	2.114326	0.331450	1.086258	2.176225	-0.423340	0.772705	-1.039551	0.110611	-0.076274	-0.022890	0.799421	-0.432776	-0.377646	-0.176110	-58.674146	-49.132873	3.969919
27746		8.395520	-11.388408	-0.964494	-0.831317	-6.857907	2.571881	1.223906	0.837809	2.138681	-0.407227	0.768799	-1.054932	0.085123	-0.112915	-0.010693	0.805469	-0.431149	-0.370710	-0.167045	-58.234919	-47.836597	4.319953
27747		4.522837	-6.274041	-2.213321	0.422159	-5.193114	-3.683422	1.970782	0.576150	1.740650	-0.396240	0.771240	-1.065918	0.045706	-0.062121	-0.022879	0.811600	-0.426264	-0.366816	-0.158272	-57.452916	-46.915562	4.686827
27748		0.090712	6.827453	-7.764178	7.497205	-2.224712	-16.576258	0.839507	0.301360	1.136958	-0.398193	0.764648	-1.076660	0.000401	0.068603	-0.077355	0.814823	-0.424694	-0.363820	-0.152753	-57.190115	-46.273233	4.987251
27749		-1.641911	15.870440	-7.932458	11.410626	2.991171	-23.167044	0.967339	-0.251644	0.162667	-0.397949	0.758057	-1.076660	-0.016449	0.159072	-0.078576	0.815929	-0.421660	-0.365793	-0.150527	-56.898127	-46.374511	5.225819
27750		3.874666	7.925142	0.652329	6.724829	5.548771	-11.307083	1.125407	-0.442767	-0.360186	-0.399658	0.746826	-1.083252	0.038874	0.079143	0.007055	0.817207	-0.416736	-0.369194	-0.148999	-56.357085	-46.685677	5.368871
27751		4.053900	0.997208	2.004653	2.332480	2.453357	-6.652383	0.973421	-0.550910	-0.491841	-0.415283	0.746582	-1.092041	0.040508	0.009774	0.020206	0.817260	-0.412513	-0.373917	-0.148681	-55.983082	-47.209317	5.530484
27752		0.594852	2.787839	-1.418805	2.640706	0.651262	-11.468369	0.594195	-0.928560	-0.843801	-0.426025	0.733154	-1.092041	0.006132	0.027895	-0.014077	0.816104	-0.409189	-0.379881	-0.149096	-55.828132	-47.907258	5.781906
27753		-0.318347	5.908567	-2.510570	4.361674	1.689393	-14.221328	0.203447	-1.267332	-1.406660	-0.439209	0.721680	-1.078857	-0.002609	0.059131	-0.025063	0.812464	-0.406810	-0.388818	-0.152407	-55.947971	-49.095531	6.022448
27754		1.555213	5.834872	-0.791478	4.730782	3.124468	-12.036870	-0.100111	-1.541924	-1.818402	-0.461426	0.714600	-1.072266	0.016142	0.058200	-0.007821	0.807821	-0.404829	-0.398673	-0.156838	-56.184412	-50.452546	6.257021
27755		2.653785	4.159719	-0.060861	4.111844	2.725546	-9.925069	-0.308411	-1.783034	-2.139043	-0.483398	0.703125	-1.063477	0.026985	0.041309	-0.000433	0.801325	-0.403268	-0.410731	-0.162953	-56.641971	-52.156085	6.561999
27756		2.103352	3.705664	-0.430690	3.711500	2.111869	-10.136918	-0.450577	-2.047185	-2.521794	-0.514404	0.693359	-1.043701	0.021542	0.036778	-0.004171	0.794052	-0.401509	-0.423592	-0.169830	-57.157908	-54.006532	6.884382
27757		2.673924	4.071741	-0.519590	4.325101	2.298860	-9.738058	-0.634782	-2.293904	-2.923643	-0.541016	0.679443	-1.026123	0.027389	0.040304	-0.005013	0.784732	-0.399710	-0.438795	-0.178565	-57.886132	-56.245143	7.292496
27758		4.255565	4.406421	-0.275968	5.253963	2.789149	-8.324356	-0.908439	-2.504942	-3.262915	-0.571777	0.661133	-1.008545	0.043299	0.043350	-0.002418	0.774336	-0.398265	-0.454233	-0.188312	-58.782649	-58.589340	7.738585
27759		5.471700	3.874244	0.220900	5.169396	2.914442	-6.686039	-1.155771	-2.655052	-3.607160	-0.600586	0.649170	-0.982422	0.055370	0.037762	0.002721	0.761827	-0.396822	-0.471361	-0.199927	-59.954499	-61.266091	8.309145
27760		6.360784	3.092476	0.612069	4.686372	2.781647	-5.263982	-1.423323	-2.759546	-3.944819	-0.633789	0.635254	-0.960449	0.064111	0.029710	0.006789	0.748318	-0.395582	-0.488125	-0.212766	-61.290257	-64.010931	8.894595
27761		7.049816	2.795242	0.560148	4.568040	2.573398	-4.305625	-1.689560	-2.839734	-4.273990	-0.664307	0.607910	-0.927490	0.070988	0.026490	0.006379	0.732644	-0.394097	-0.506128	-0.227497	-62.980817	-67.063158	9.687371
27762		8.014449	2.415523	0.756807	4.255360	2.526869	-3.020648	-1.873908	-2.871131	-4.594628	-0.688232	0.584961	-0.903320	0.080555	0.022384	0.008507	0.716161	-0.392440	-0.523356	-0.243316	-64.873541	-70.150558	10.566428
27763		9.149649	1.767634	1.144673	3.518435	2.497872	-1.475261	-2.005274	-2.923764	-4.849110	-0.722900	0.553223	-0.870361	0.091712	0.015577	0.012623	0.697764	-0.389933	-0.541566	-0.260355	-67.364621	-73.498408	11.991810
27764		10.649646	0.870779	1.133267	2.731457	2.034144	0.376983	-1.979305	-2.973606	-5.041963	-0.746582	0.523682	-0.841553	0.106489	0.006145	0.012847	0.678960	-0.386872	-0.558932	-0.277379	-70.589814	-76.806465	14.153913
27765		11.806464	-0.157987	0.637677	1.766849	1.089111	1.826716	-1.730384	-2.944722	-5.198122	-0.767578	0.485352	-0.815186	0.117860	-0.004580	0.008144	0.659255	-0.381625	-0.577187	-0.294278	-75.448201	-80.276827	18.121597
27766		12.886595	-0.926119	-0.034499	0.925691	0.128877	3.071312	-1.294713	-2.888255	-5.357300	-0.786621	0.449463	-0.788574	0.128543	-0.012702	0.001588	0.640251	-0.374500	-0.594743	-0.310017	-83.785989	-83.601546	25.789671
27767		15.066248	-1.740481	-0.949912	0.040666	-1.027212	5.346184	-0.675512	-2.857987	-5.521167	-0.798584	0.411133	-0.759766	0.150220	-0.021583	-0.007282	0.621012	-0.363953	-0.613702	-0.324426	-108.663725	-86.742482	50.382599
27768		16.695595	-2.256191	-1.653438	-0.977118	-1.907303	6.976538	-0.027390	-2.882658	-5.739831	-0.821777	0.368408	-0.737793	0.166432	-0.027346	-0.014129	0.602488	-0.350916	-0.632734	-0.336917	175.726059	-87.299161	126.051498
27769		18.272098	-2.555761	-1.360822	-2.597195	-1.866256	8.405532	0.532819	-2.997243	-5.935271	-0.831055	0.319336	-0.708984	0.182033	-0.030936	-0.010954	0.582968	-0.334881	-0.653440	-0.347878	140.642669	-84.190921	161.541348
27770		20.731038	-4.362558	-0.413119	-6.124008	-2.087022	10.360377	0.932325	-3.214870	-6.021898	-0.845215	0.274658	-0.686768	0.205905	-0.049831	-0.001036	0.563208	-0.317886	-0.674125	-0.356793	132.067903	-80.464682	170.727557
27771		22.651705	-5.120702	1.454738	-9.488364	-1.034059	11.403672	1.067291	-3.383278	-5.910966	-0.850098	0.223389	-0.662354	0.224585	-0.057955	0.018061	0.541969	-0.300378	-0.695147	-0.364435	129.052701	-76.515554	174.441128
27772		23.591752	-6.005472	3.115353	-12.702928	-0.258035	11.180181	0.790330	-3.428143	-5.509383	-0.855225	0.183105	-0.626953	0.233565	-0.066644	0.034916	0.520915	-0.285176	-0.713778	-0.371273	127.945014	-72.821894	176.058493
27773		23.823362	-7.166682	4.014592	-15.471812	-0.244087	10.072175	0.315039	-3.311182	-4.939617	-0.855957	0.143066	-0.604736	0.235659	-0.077576	0.043943	0.499569	-0.272417	-0.730161	-0.378266	127.458964	-69.329135	176.771987
27774		22.517710	-8.506254	4.940690	-17.570093	-0.270879	7.359886	-0.270020	-2.990661	-4.226075	-0.855225	0.118408	-0.580566	0.222541	-0.089714	0.052867	0.480122	-0.263229	-0.742631	-0.385606	127.053845	-66.364328	177.042170
27775		21.367889	-12.208148	7.457194	-21.954054	-0.217568	3.570439	-0.723931	-2.544283	-3.343033	-0.856445	0.091797	-0.558350	0.210626	-0.125342	0.077714	0.462731	-0.257199	-0.751863	-0.392977	126.684677	-63.892067	176.994757
27776		19.743953	-18.238632	10.019799	-27.447814	-1.290912	-1.581958	-1.048207	-2.051128	-2.351808	-0.855957	0.076172	-0.538574	0.194233	-0.184147	0.103163	0.448986	-0.254778	-0.757472	-0.399668	126.363775	-62.109519	176.680790
27777		18.716688	-20.948222	11.156841	-29.720289	-1.561776	-4.535365	-0.987088	-1.354706	-1.223947	-0.851318	0.071777	-0.531982	0.185116	-0.210061	0.113863	0.439901	-0.255058	-0.760166	-0.404451	126.201125	-61.058224	176.215982
27778		18.364196	-21.186657	11.868174	-30.123755	-0.796654	-5.466745	-0.985649	-0.527836	-0.086387	-0.848877	0.071777	-0.533936	0.183235	-0.211356	0.120208	0.436453	-0.257961	-0.759433	-0.407708	126.023858	-60.839715	175.772682
27779		18.262464	-20.323050	11.921123	-29.441466	0.031011	-5.139229	-1.121193	0.334494	0.970852	-0.849365	0.084961	-0.534180	0.183806	-0.201669	0.120038	0.438258	-0.263663	-0.755053	-0.410252	125.713484	-61.420355	175.375898
27780		18.029662	-18.906455	11.047417	-27.782333	0.339471	-4.107014	-1.209289	0.976086	1.997082	-0.850098	0.100586	-0.547363	0.182708	-0.186579	0.110720	0.444408	-0.271829	-0.747741	-0.411695	125.417665	-62.676159	174.926336
27781		11.371062	-11.188968	-3.285446	-12.372173	-7.982018	-2.849028	-1.727769	0.944607	2.743989	-0.849121	0.134033	-0.549805	0.115080	-0.110598	-0.032437	0.451421	-0.284394	-0.737972	-0.413204	125.403007	-64.329016	173.812376
27782		6.039114	19.778728	-14.525413	19.488240	-2.662921	6.053685	-1.497354	0.703167	2.074855	-0.843018	0.149658	-0.558594	0.057828	0.197300	-0.146939	0.456131	-0.293952	-0.730277	-0.415009	125.313543	-65.531487	172.963946
27783		9.588092	16.421282	-8.131663	12.879966	1.252271	6.319446	-0.316902	0.832973	1.023342	-0.845215	0.151855	-0.567383	0.094699	0.164570	-0.081973	0.460947	-0.297209	-0.725934	-0.414987	125.070357	-66.335311	172.997379
27784		17.637450	0.910256	-0.452553	-5.959681	0.857059	6.796138	0.118050	1.235850	1.184204	-0.843750	0.169678	-0.580811	0.176284	0.010150	-0.005609	0.468047	-0.298661	-0.721545	-0.413650	124.687874	-67.296670	173.486968
27785		19.164898	0.251186	0.515421	-7.171182	1.389914	7.914454	0.157623	1.250076	1.622912	-0.841553	0.174316	-0.591797	0.191647	0.004064	0.003959	0.476234	-0.302004	-0.716247	-0.411078	124.681853	-68.512391	173.560790
27786		16.408805	3.857318	1.763984	-3.366049	4.069046	6.291319	-0.648431	0.983105	2.018524	-0.842041	0.189941	-0.598389	0.163771	0.040282	0.016706	0.482890	-0.308736	-0.709477	-0.410050	124.826562	-69.783566	173.008338
27787		15.579445	0.807211	4.595841	-6.437128	5.131976	4.212367	-1.117881	0.754993	2.407954	-0.836426	0.218750	-0.600830	0.155852	0.010203	0.045317	0.488912	-0.318810	-0.701310	-0.409255	125.480007	-71.210202	171.611347
27788		11.459317	-1.418345	2.058859	-5.594878	1.748381	0.346007	-1.046739	0.688906	2.417344	-0.830322	0.234375	-0.605225	0.114823	-0.012690	0.020262	0.494559	-0.328406	-0.693567	-0.408076	126.388635	-72.563301	170.024371
27789		8.906848	-3.513253	-0.946401	-5.164991	-1.922660	-1.926443	-0.890693	0.517864	2.371636	-0.829346	0.263428	-0.612061	0.089452	-0.034116	-0.009542	0.499947	-0.338102	-0.686218	-0.406011	127.868610	-73.881844	167.929129
27790		9.643514	-6.828187	-1.696493	-7.786832	-3.923113	-1.659879	-0.603737	0.423995	2.327524	-0.829834	0.278809	-0.609863	0.097185	-0.067205	-0.016966	0.505067	-0.346712	-0.679948	-0.402950	129.855016	-75.072855	165.508607
27791		11.334266	-6.577367	-2.415869	-7.510194	-4.252937	0.339475	-0.241888	0.483834	2.254950	-0.830322	0.290039	-0.614502	0.114016	-0.064520	-0.024355	0.511054	-0.354428	-0.673933	-0.398772	132.329693	-76.289065	162.788697
27792		10.964016	-1.600895	-1.804353	-3.058972	-1.529977	0.879635	0.161815	0.641557	1.930147	-0.821777	0.305664	-0.621094	0.109729	-0.014935	-0.018408	0.517323	-0.359222	-0.669161	-0.394410	134.529366	-77.345035	160.624776
27793		9.194593	-1.969287	-1.949404	-2.759421	-1.919943	-0.817380	0.315401	0.581702	1.749913	-0.822510	0.319092	-0.625488	0.092056	-0.018857	-0.019792	0.523505	-0.363605	-0.664712	-0.389733	137.141782	-78.343942	158.108218
27794		9.249542	-1.257536	-2.734371	-1.644962	-2.295308	-0.504867	0.305231	0.577955	1.620194	-0.815918	0.328125	-0.636475	0.092513	-0.011784	-0.027629	0.529118	-0.367052	-0.660823	-0.385513	139.710071	-79.207872	155.668194
27795		9.910182	-0.918636	-1.856941	-1.644974	-1.292567	0.093111	0.308667	0.618502	1.495428	-0.809814	0.345947	-0.641113	0.099109	-0.008416	-0.018889	0.534814	-0.370509	-0.656601	-0.381539	142.563663	-80.078924	152.914246
27796		9.982944	-0.410381	-0.820868	-1.477268	-0.125836	0.102011	0.219302	0.564521	1.433418	-0.809814	0.345947	-0.647705	0.099832	-0.003379	-0.008494	0.539791	-0.373542	-0.652835	-0.378019	145.513573	-80.823278	150.050352
27797		9.564051	0.902779	-0.450360	-0.242335	0.763201	-0.229048	0.088943	0.422590	1.365366	-0.812744	0.363770	-0.649902	0.095566	0.009682	-0.004701	0.544119	-0.377483	-0.648875	-0.374703	149.288910	-81.501003	146.247972
27798		10.248014	0.824061	0.242926	-0.555240	1.432179	0.355837	-0.095484	0.289280	1.303923	-0.802002	0.372803	-0.654297	0.102427	0.008910	0.002277	0.547308	-0.381425	-0.645433	-0.372001	153.206010	-82.006039	142.234711
27799		10.342090	1.066457	-0.109683	-0.055134	1.266035	0.507237	-0.255923	0.129736	1.267049	-0.806885	0.381592	-0.654297	0.103350	0.011318	-0.001178	0.549807	-0.386454	-0.641761	-0.369471	158.072965	-82.417624	137.145365
27800		9.985138	-0.094099	-0.828345	-0.649086	0.132702	0.185210	-0.250823	0.070322	1.180634	-0.806885	0.381592	-0.652100	0.099852	-0.000362	-0.008318	0.551720	-0.390797	-0.638810	-0.367158	162.702738	-82.682907	132.331280
27801		10.083300	-0.816148	-0.813498	-1.200707	-0.106779	0.264351	-0.157485	0.083385	1.096477	-0.802734	0.395020	-0.650146	0.100872	-0.007615	-0.008171	0.553909	-0.395028	-0.635737	-0.364659	167.800260	-82.923219	127.076570
27802		10.133810	-1.317852	-0.758656	-1.583584	-0.225484	0.308919	0.008624	0.084251	1.007583	-0.800781	0.399414	-0.661133	0.101400	-0.012667	-0.007630	0.556025	-0.398051	-0.633520	-0.362001	172.371099	-83.070308	122.476373
27803		10.365646	-1.660064	-0.984309	-1.708092	-0.510403	0.579248	0.149452	0.070700	0.961124	-0.798828	0.408447	-0.656738	0.103731	-0.016095	-0.009892	0.558506	-0.400990	-0.631270	-0.358853	177.510745	-83.182769	117.361141
27804		10.121538	-1.693650	-1.333367	-1.486727	-0.832939	0.394512	0.325536	0.086651	0.887158	-0.798828	0.410645	-0.654541	0.101283	-0.016466	-0.013405	0.561019	-0.402723	-0.629825	-0.355516	-178.031877	-83.234748	113.060119
27805		9.968188	-1.755899	-1.869253	-1.208202	-1.330332	0.321994	0.510423	0.124835	0.834442	-0.803467	0.415039	-0.665527	0.099742	-0.017095	-0.018799	0.564141	-0.404135	-0.628287	-0.351675	-173.090910	-83.281630	108.354546
27806		9.787673	-0.790223	-2.214999	-0.089048	-1.229637	0.177736	0.697194	0.181701	0.766185	-0.801514	0.421875	-0.669922	0.097886	-0.007450	-0.022265	0.567462	-0.404253	-0.627442	-0.347683	-168.857883	-83.315532	104.494621
27807		9.820732	-0.110832	-1.760954	0.425413	-0.507111	0.143280	0.772891	0.205737	0.695642	-0.803955	0.426270	-0.672119	0.098192	-0.000698	-0.017714	0.571082	-0.404327	-0.626379	-0.343562	-164.290486	-83.339010	100.315796
27808		9.921176	0.365336	-1.600062	0.861958	-0.126576	0.205489	0.746444	0.205165	0.676686	-0.806152	0.423828	-0.676514	0.099182	0.004049	-0.016088	0.574390	-0.403960	-0.625697	-0.339700	-160.390582	-83.333270	96.819966
27809		9.987255	0.167138	-1.194604	0.592808	0.172679	0.228155	0.624841	0.216514	0.693359	-0.808838	0.439453	-0.683350	0.099853	0.002055	-0.012048	0.577701	-0.404392	-0.624334	-0.336060	-155.944809	-83.292878	92.678781
27810		9.882751	0.216019	-1.134556	0.688155	0.251707	0.110276	0.525628	0.212697	0.724384	-0.808838	0.437256	-0.683350	0.098807	0.002548	-0.011444	0.580640	-0.404776	-0.623129	-0.332751	-152.031940	-83.220137	89.041932
27811		9.962658	-0.284473	-1.264041	0.391478	-0.062811	0.226014	0.439648	0.250937	0.725342	-0.804688	0.448486	-0.685547	0.099620	-0.002455	-0.012771	0.583708	-0.405742	-0.621277	-0.329656	-147.674471	-83.120125	84.883372
27812		9.856283	-0.554011	-1.630008	0.400942	-0.510228	0.171725	0.442506	0.278093	0.729295	-0.811523	0.446045	-0.694336	0.098559	-0.005144	-0.016449	0.586668	-0.406257	-0.619707	-0.326711	-143.837054	-83.016355	81.273125
27813		9.742659	-1.130112	-1.897248	0.106722	-1.012349	0.125080	0.477020	0.304242	0.735667	-0.807373	0.459473	-0.694336	0.097438	-0.010897	-0.019147	0.589960	-0.407024	-0.617722	-0.323570	-139.571964	-82.868884	77.227808
27814		9.952236	-1.164657	-1.660726	0.061790	-0.789580	0.313195	0.529523	0.336377	0.745159	-0.807373	0.459473	-0.698730	0.099537	-0.011231	-0.016805	0.593278	-0.407218	-0.616060	-0.320414	-135.739928	-82.723290	73.671119
27815		10.185387	-1.530265	-1.204786	-0.361974	-0.525894	0.537527	0.550515	0.375151	0.774936	-0.805420	0.466309	-0.698730	0.101889	-0.014874	-0.012280	0.596960	-0.407752	-0.613877	-0.317066	-131.472007	-82.519787	69.661760
27816		10.038701	-0.990520	-1.263189	0.232072	-0.343075	0.345064	0.540403	0.410668	0.801888	-0.803711	0.477539	-0.712158	0.100399	-0.009468	-0.012864	0.600588	-0.407947	-0.611862	-0.313844	-127.597570	-82.314625	66.065541
27817		9.892292	-1.072565	-1.231846	0.246883	-0.370331	0.203616	0.520247	0.445788	0.830059	-0.803711	0.479736	-0.712158	0.098938	-0.010283	-0.012566	0.604471	-0.408596	-0.609278	-0.310555	-123.453556	-82.040009	62.159750
27818		9.843978	-0.437307	-1.685074	1.119308	-0.472941	0.109874	0.468632	0.496777	0.825109	-0.799561	0.490967	-0.720947	0.098414	-0.003927	-0.017105	0.608217	-0.408919	-0.606806	-0.307641	-119.731604	-81.785716	58.671661
27819		10.067004	-0.641786	-1.842051	1.149376	-0.689415	0.353541	0.473909	0.668881	0.787146	-0.800049	0.499756	-0.729736	0.100632	-0.005978	-0.018772	0.612569	-0.409195	-0.603532	-0.305070	-115.467317	-81.523421	54.612474
27820		10.325041	-0.820984	-1.978830	1.199349	-0.893042	0.625650	0.493614	0.867414	0.770544	-0.800049	0.506592	-0.742920	0.103194	-0.007763	-0.020255	0.617363	-0.408681	-0.600036	-0.302985	-111.000220	-81.312942	50.380888
27821		10.303629	-0.940096	-1.879400	1.179307	-0.905656	0.597315	0.416346	0.925124	0.828404	-0.791260	0.509033	-0.745117	0.102985	-0.008935	-0.019289	0.622364	-0.408829	-0.595768	-0.300971	-106.377133	-80.989418	45.918801
27822		10.330064	-1.355120	-1.503766	0.769964	-0.819741	0.653516	0.432946	0.932823	0.879692	-0.789307	0.515625	-0.753906	0.103287	-0.013064	-0.015548	0.627340	-0.408693	-0.591701	-0.298840	-102.156278	-80.631619	41.894440
27823		10.427416	-1.277269	-1.080728	0.783426	-0.441987	0.709647	0.442834	0.924095	0.946239	-0.782715	0.524658	-0.769287	0.104281	-0.012255	-0.011317	0.632493	-0.409065	-0.587187	-0.296362	-98.143914	-80.145454	38.056332
27824		10.708037	-1.045364	-1.035749	1.140746	-0.294627	0.931501	0.469655	0.898629	1.007650	-0.787598	0.531250	-0.775879	0.107083	-0.009889	-0.010862	0.637572	-0.409200	-0.582961	-0.293622	-94.643677	-79.627935	34.774280
27825		11.425146	-0.943630	-0.545540	1.250915	0.223755	1.593664	0.479325	0.908768	1.084490	-0.776855	0.544922	-0.778320	0.114274	-0.008803	-0.005996	0.642879	-0.409826	-0.578215	-0.290545	-91.373924	-78.988996	31.700122
27826		11.950721	-0.454301	0.099153	1.595053	1.045872	1.993888	0.474021	0.932270	1.168873	-0.767822	0.547363	-0.791260	0.119534	-0.003846	0.000425	0.648227	-0.410319	-0.573489	-0.287314	-88.444565	-78.317284	28.989470
27827		12.303858	-0.653268	0.548508	1.457130	1.342479	2.360389	0.425276	0.985194	1.274088	-0.759766	0.569824	-0.804688	0.123102	-0.005759	0.004866	0.653830	-0.411474	-0.567972	-0.283907	-85.704032	-77.515661	26.411810
27828		12.265463	-0.309547	0.320665	2.056367	1.286503	2.218634	0.333536	1.061835	1.378410	-0.755615	0.576660	-0.811279	0.122687	-0.002255	0.002551	0.659466	-0.412779	-0.562112	-0.280622	-83.203002	-76.669585	24.042118
27829		12.354749	-0.364606	0.278555	2.275990	1.204060	2.279297	0.273939	1.129325	1.472110	-0.744629	0.585693	-0.817871	0.123583	-0.002740	0.002084	0.665336	-0.414680	-0.555429	-0.277248	-80.894562	-75.703990	21.805514
27830		12.594811	-0.557769	-0.664190	2.884121	0.286096	2.474552	0.201398	1.232991	1.548227	-0.727295	0.603760	-0.831055	0.125942	-0.004596	-0.007423	0.671295	-0.416585	-0.548364	-0.274076	-78.740112	-74.704769	19.696661
27831		13.006366	-1.071040	-1.698384	3.348040	-0.864116	2.885138	0.245174	1.336609	1.599240	-0.714600	0.621826	-0.839844	0.130026	-0.009649	-0.017865	0.677707	-0.418530	-0.540596	-0.270743	-76.645826	-73.609312	17.646526
27832		13.696121	-1.441942	-2.445428	3.885021	-1.686289	3.517654	0.352714	1.457643	1.650376	-0.710449	0.630859	-0.855225	0.136891	-0.013245	-0.025476	0.684580	-0.419801	-0.532642	-0.267225	-74.561275	-72.484499	15.678699
27833		14.680764	-1.049697	-2.895253	5.031410	-1.860906	4.195187	0.522552	1.595127	1.683511	-0.690430	0.642334	-0.866211	0.146651	-0.009184	-0.030148	0.692176	-0.420569	-0.524076	-0.263360	-72.432631	-71.267406	13.732287
27834		15.926079	-0.298279	-3.685008	6.766434	-2.144678	4.915170	0.668022	1.729891	1.730277	-0.681641	0.647217	-0.888184	0.158951	-0.001481	-0.038232	0.700340	-0.420484	-0.515283	-0.259232	-70.279404	-70.009908	11.855868
27835		17.371476	0.686542	-4.464946	8.815406	-2.298437	5.652168	0.875450	1.847166	1.798074	-0.655273	0.665527	-0.894775	0.173220	0.008624	-0.046216	0.709209	-0.419853	-0.505923	-0.254535	-68.148953	-68.645428	10.089069
27836		19.417705	2.091477	-5.509400	11.614676	-2.424670	6.648381	1.126316	1.993016	1.913139	-0.642090	0.670410	-0.923340	0.193402	0.023084	-0.056898	0.718974	-0.418120	-0.496211	-0.249052	-65.965209	-67.189582	8.429103
27837		21.099572	5.354090	-6.323856	15.677058	-1.384107	6.500603	1.398674	2.192142	2.039286	-0.615479	0.684326	-0.940918	0.209725	0.056135	-0.065155	0.729719	-0.415596	-0.485608	-0.242849	-63.733676	-65.583973	6.837380
27838		21.948426	7.744266	-7.790830	19.081167	-1.334236	5.565190	1.534846	2.313644	2.229564	-0.593018	0.687012	-0.965088	0.217682	0.080484	-0.079824	0.741120	-0.412539	-0.474315	-0.235750	-61.603586	-63.839262	5.454430
27839		21.179446	9.585783	-8.707792	21.053449	-1.100423	3.293075	1.528634	2.299087	2.494152	-0.568359	0.689941	-0.982422	0.209558	0.099155	-0.088746	0.752400	-0.410208	-0.462357	-0.227705	-59.884761	-61.953681	4.473577
27840		18.318973	9.158049	-8.575245	19.748701	-1.247641	0.255480	1.351151	2.163893	2.731766	-0.541992	0.701416	-0.997803	0.180973	0.094648	-0.087086	0.763155	-0.408909	-0.450066	-0.218697	-58.632867	-59.973574	3.927366
27841		15.565201	3.487659	-6.337548	13.620308	-2.649312	0.288821	1.234738	1.961639	2.785390	-0.523926	0.704102	-1.017578	0.154512	0.037430	-0.064669	0.772799	-0.408420	-0.438292	-0.209464	-57.773060	-58.051237	3.712801
27842		14.571114	-4.983827	-2.946065	6.035482	-4.792617	3.840683	1.372823	1.769462	2.639745	-0.495117	0.711426	-1.037354	0.146080	-0.047702	-0.031084	0.782131	-0.406989	-0.427431	-0.199831	-56.928798	-56.229767	3.644240
27843		13.602599	-5.111756	-2.087815	5.436723	-4.211241	3.156819	1.304982	1.545784	2.579429	-0.479736	0.722900	-1.043945	0.136500	-0.049217	-0.022257	0.790303	-0.405994	-0.417568	-0.190334	-56.328842	-54.543859	3.777547
27844		11.364121	-1.573925	-2.748615	7.089077	-2.672560	-0.770059	0.886776	1.051026	2.367674	-0.470459	0.718750	-1.054688	0.113669	-0.014270	-0.028149	0.796479	-0.406399	-0.409409	-0.181236	-56.167278	-53.080350	4.206922
27845		10.561605	-0.415556	-3.641316	7.986684	-2.644532	-2.451058	0.200994	0.710170	2.157605	-0.446289	0.730469	-1.063477	0.105522	-0.002980	-0.036791	0.799956	-0.409571	-0.402563	-0.173969	-56.547959	-51.866126	4.776645
27846		12.524443	-7.212922	-3.048151	5.022225	-6.119337	2.657231	1.264964	0.766075	2.016327	-0.436768	0.721680	-1.074463	0.125843	-0.070666	-0.031413	0.805782	-0.407875	-0.396434	-0.164906	-56.166152	-50.660232	5.216355
27847		9.406428	-15.020101	-1.523302	-1.864798	-9.944991	4.815785	2.727043	0.507959	2.282404	-0.427734	0.717529	-1.100586	0.095726	-0.148886	-0.017511	0.813786	-0.401201	-0.392155	-0.151671	-55.247288	-49.460854	5.988501
27848		5.649076	-10.762942	-0.543035	-1.901457	-6.934415	0.002010	3.492687	0.145805	2.068741	-0.411133	0.700195	-1.118164	0.057594	-0.106920	-0.007343	0.822480	-0.390856	-0.389976	-0.136660	-53.957019	-48.445412	6.931171
27849		2.771713	5.815382	-3.423989	6.703065	1.572053	-12.224731	2.934683	0.236627	1.292864	-0.410889	0.691406	-1.128906	0.027298	0.058826	-0.033412	0.829125	-0.381482	-0.388624	-0.126469	-52.709283	-47.810407	7.425019
27850		-3.175925	20.440784	-7.820736	12.477186	7.913157	-26.267953	0.734601	-0.187022	0.268657	-0.408203	0.684814	-1.133301	-0.031961	0.204650	-0.077486	0.830327	-0.379077	-0.389345	-0.123563	-52.485953	-47.752416	7.691784
27851		1.213575	18.899509	-2.479809	11.668643	11.223956	-19.945683	0.413680	-0.687644	-0.498774	-0.426025	0.680176	-1.124512	0.012691	0.189015	-0.024364	0.829126	-0.377119	-0.393673	-0.123907	-52.458297	-48.267866	7.896902
27852		4.717403	3.747971	4.053904	2.713885	5.938812	-6.634551	-0.772861	-1.057511	-0.442138	-0.430664	0.682129	-1.120117	0.047042	0.037533	0.040643	0.825294	-0.380102	-0.398400	-0.125257	-53.275691	-48.834862	8.396607
27853		1.946781	-1.299720	-0.281224	0.745091	-0.887351	-7.759499	-1.151737	-1.582748	-0.381177	-0.448975	0.688477	-1.107178	0.019464	-0.013050	-0.002583	0.819360	-0.385257	-0.405263	-0.126444	-54.682959	-49.600059	9.328337
27854		-0.027476	1.581429	-3.256310	2.667242	-1.346146	-11.856798	-1.127659	-1.700704	-0.952869	-0.467285	0.694580	-1.091797	0.000077	0.015631	-0.032652	0.813088	-0.389001	-0.413325	-0.129341	-55.916325	-50.602962	10.093730
27855		1.269764	4.818523	-1.554344	4.280742	2.165545	-11.869614	-1.293558	-1.777540	-1.580913	-0.482666	0.687500	-1.072266	0.013217	0.047981	-0.015738	0.805472	-0.392301	-0.423091	-0.135310	-57.145547	-51.974806	10.663019
27856		3.392692	4.455693	-0.464939	4.779384	2.943497	-9.544639	-1.486445	-2.019512	-1.921677	-0.507324	0.684814	-1.059082	0.034400	0.044193	-0.004633	0.796884	-0.395543	-0.433933	-0.142208	-58.515250	-53.522241	11.313655
27857		3.835503	2.158722	-0.070762	3.479367	1.784309	-7.791467	-1.405230	-2.202212	-2.243907	-0.527588	0.679932	-1.032715	0.038600	0.021151	-0.000433	0.787271	-0.397930	-0.446443	-0.150145	-59.970531	-55.329698	12.064357
27858		3.684830	2.332768	0.092336	3.347956	1.990707	-7.849202	-1.301967	-2.289968	-2.642939	-0.554199	0.674805	-1.017578	0.037140	0.022845	0.001198	0.777449	-0.398809	-0.459659	-0.158866	-61.319497	-57.292170	12.788807
27859		4.130342	3.026464	0.488118	3.712886	2.767128	-7.573714	-1.404029	-2.373338	-3.017998	-0.583008	0.658447	-0.993408	0.041694	0.029673	0.005165	0.766278	-0.399245	-0.474063	-0.169370	-62.819192	-59.515691	13.562565
27860		4.881477	3.174120	0.614229	4.020816	3.020103	-6.814346	-1.567044	-2.462427	-3.358432	-0.614014	0.646729	-0.964844	0.049261	0.030966	0.006502	0.754280	-0.399278	-0.488756	-0.180987	-64.447878	-61.865817	14.400303
27861		6.140440	2.512900	0.568683	4.040560	2.691523	-5.255595	-1.512727	-2.453904	-3.699190	-0.633545	0.628418	-0.947266	0.061781	0.024034	0.006259	0.741338	-0.398113	-0.504276	-0.193981	-66.155288	-64.439704	15.307751
27862		7.449951	1.990458	0.978015	3.757430	2.803600	-3.613281	-1.329234	-2.417744	-4.031778	-0.659668	0.603516	-0.920898	0.074757	0.018468	0.010557	0.728465	-0.395105	-0.519822	-0.207400	-67.741103	-67.107258	16.211101
27863		8.212316	1.603439	1.064143	3.401289	2.669993	-2.571475	-1.195314	-2.441626	-4.346593	-0.697021	0.580322	-0.901123	0.082309	0.014314	0.011557	0.714626	-0.390571	-0.536285	-0.221727	-69.514119	-69.998955	17.352338
27864		8.690555	1.359980	1.270107	2.886159	2.675375	-1.844938	-1.127047	-2.483073	-4.613415	-0.713867	0.548828	-0.883301	0.087024	0.011669	0.013712	0.700396	-0.384845	-0.552723	-0.236298	-71.535630	-72.965090	18.802496
27865		9.307978	1.231350	1.132725	2.603401	2.476766	-1.065938	-1.091831	-2.533473	-4.818171	-0.737305	0.515137	-0.854736	0.093188	0.010135	0.012448	0.684932	-0.378154	-0.569756	-0.251486	-74.369345	-76.093626	21.071697
27866		9.952957	0.890822	0.607576	2.303462	1.829366	-0.244695	-1.021972	-2.568292	-4.978722	-0.758789	0.489990	-0.834961	0.099622	0.006464	0.007318	0.669146	-0.370552	-0.586448	-0.266483	-78.428722	-79.213296	24.626164
27867		10.569016	0.766833	-0.329828	2.292713	0.956593	0.492557	-0.960931	-2.614897	-5.156860	-0.768799	0.456543	-0.803955	0.105872	0.004928	-0.001943	0.652128	-0.361883	-0.603602	-0.281842	-85.913816	-82.410042	31.631730
27868		12.008738	0.759224	-1.100318	2.250451	0.322434	2.052565	-0.841454	-2.719474	-5.338947	-0.791992	0.413818	-0.777344	0.120367	0.004339	-0.009390	0.634577	-0.352186	-0.620666	-0.296734	-103.254366	-85.366348	48.579344
27869		14.126861	-0.349950	-1.702624	0.999292	-0.789402	4.361314	-0.740998	-2.900133	-5.464377	-0.806152	0.373291	-0.753174	0.141328	-0.007419	-0.014954	0.615422	-0.341600	-0.638454	-0.311354	-154.797211	-86.919195	99.780909
27870		16.799478	-1.518252	-1.925328	-0.832183	-1.610765	7.064798	-0.379733	-3.102934	-5.589749	-0.822754	0.335205	-0.726563	0.167754	-0.019907	-0.016614	0.595852	-0.329586	-0.656629	-0.324301	157.401256	-85.055182	147.463008
27871		19.720733	-3.081179	-0.678149	-4.235120	-1.456158	9.646523	-0.019737	-3.353545	-5.689003	-0.834473	0.290527	-0.699951	0.196302	-0.036405	-0.003481	0.574803	-0.316120	-0.675938	-0.335824	141.444520	-81.643663	163.494241
27872		20.747147	-3.264334	2.256354	-7.489193	0.778424	9.918699	-0.256441	-3.508537	-5.774379	-0.839600	0.243652	-0.666748	0.205976	-0.038573	0.026233	0.552517	-0.303059	-0.694330	-0.347544	135.028394	-77.934699	169.860625
27873		22.853317	-4.453993	4.418667	-11.451679	1.893539	10.844272	-1.003550	-3.580937	-5.545604	-0.851563	0.205322	-0.633789	0.226343	-0.050601	0.048497	0.528182	-0.292536	-0.710771	-0.360903	131.665049	-74.151572	172.719531
27874		24.816309	-7.867885	4.168512	-15.900996	-0.156060	11.212062	-1.315831	-3.356131	-5.162040	-0.852783	0.174072	-0.607178	0.245276	-0.084740	0.046362	0.504754	-0.283583	-0.724458	-0.374119	129.454834	-70.653724	174.246235
27875		22.702155	-9.935830	2.427619	-17.099425	-2.758663	8.071453	-1.232944	-2.856948	-4.610982	-0.855957	0.138428	-0.578369	0.224270	-0.104385	0.028126	0.483480	-0.275147	-0.735818	-0.386152	127.781376	-67.518558	175.271329
27876		20.692755	-13.655761	2.077015	-19.901024	-5.077741	4.224201	-1.116492	-2.451385	-3.889711	-0.854736	0.107422	-0.562744	0.203940	-0.140415	0.024059	0.465277	-0.268196	-0.744735	-0.396179	126.623961	-64.893950	175.836728
27877		18.641436	-18.298837	4.311320	-24.231544	-5.601611	-0.740855	-1.157367	-2.324126	-3.075477	-0.851563	0.082764	-0.542969	0.183048	-0.185559	0.046322	0.448617	-0.263993	-0.751943	-0.404515	126.032683	-62.653724	175.746590
27878		17.998369	-21.314531	7.211028	-27.870791	-4.524559	-4.073459	-0.886398	-1.909095	-2.022018	-0.848877	0.071777	-0.531982	0.177114	-0.214618	0.074759	0.436128	-0.262216	-0.757023	-0.409818	125.908859	-61.073346	175.310943
27879		18.474647	-21.164619	10.430120	-29.555973	-1.443200	-5.081172	-0.513879	-1.117531	-0.769232	-0.842285	0.073975	-0.527344	0.183343	-0.212082	0.105873	0.429503	-0.262834	-0.759430	-0.411961	126.099417	-60.332198	174.745272
27880		20.015517	-20.732070	11.863646	-30.643471	0.272394	-4.148232	-0.494248	-0.196438	0.331553	-0.853760	0.078369	-0.523193	0.200381	-0.206694	0.119345	0.428784	-0.265562	-0.758396	-0.412864	126.174178	-60.418964	174.333355
27881		18.809134	-17.550666	13.190714	-28.154369	3.193043	-4.074932	-0.723891	0.679360	1.320907	-0.847656	0.093994	-0.531982	0.189691	-0.173780	0.131896	0.433165	-0.270917	-0.753603	-0.413587	126.024221	-61.278332	174.024780
27882		17.324590	-14.813681	5.035920	-21.712039	-2.230704	-1.534721	-1.408353	0.953283	2.407880	-0.852783	0.116211	-0.543213	0.175250	-0.145679	0.050559	0.439777	-0.281044	-0.745285	-0.414924	125.910935	-62.715482	173.239029
27883		7.373834	7.755910	-10.191496	7.131720	-4.667585	2.259449	-2.099465	0.659269	2.632528	-0.853516	0.133789	-0.549805	0.072380	0.077441	-0.102968	0.444882	-0.294318	-0.735527	-0.417680	125.904016	-64.198547	171.900948
27884		7.829591	27.159383	-13.373416	24.105096	1.473237	10.049695	-1.679590	0.692797	1.454755	-0.845215	0.147461	-0.556396	0.075854	0.271014	-0.136277	0.447963	-0.301942	-0.728289	-0.421610	125.285852	-65.107162	171.519966
27885		13.850376	7.612976	-2.671938	1.647704	1.952167	6.011268	-1.227757	0.826857	1.196805	-0.847656	0.158447	-0.561035	0.137932	0.076788	-0.027760	0.451714	-0.307520	-0.721917	-0.424525	124.632642	-65.965416	171.460162
27886		19.444717	-2.629608	2.140571	-10.691753	1.882288	6.671424	-0.804907	1.110153	1.494483	-0.843750	0.171875	-0.578613	0.194751	-0.024758	0.020427	0.457628	-0.312365	-0.715368	-0.425738	124.076685	-67.031123	171.563361
27887		16.865176	-1.447884	1.862111	-8.273176	1.993567	4.937445	-0.669019	1.071032	1.900182	-0.842041	0.187500	-0.580811	0.168875	-0.012815	0.017762	0.464554	-0.318605	-0.708371	-0.425313	123.978600	-68.305299	171.252313
27888		16.899438	1.855240	2.509819	-5.366899	4.033885	6.006293	-0.775058	0.802289	2.328116	-0.842773	0.207520	-0.592041	0.168861	0.020614	0.024343	0.471070	-0.326923	-0.701093	-0.423890	124.500984	-69.666623	170.216921
27889		13.875329	-1.091513	3.488884	-6.845881	3.543971	2.288958	-0.758441	0.719972	2.531988	-0.841553	0.229736	-0.594238	0.139000	-0.009025	0.034425	0.477852	-0.336221	-0.693453	-0.421587	125.497178	-71.125438	168.698862
27890		9.674371	-1.719952	-0.455573	-4.280853	-0.488899	-0.970227	-0.703509	0.632898	2.578653	-0.840088	0.251953	-0.594482	0.096940	-0.015967	-0.004805	0.484251	-0.345482	-0.686059	-0.418887	126.861963	-72.532164	166.838209
27891		8.319068	-2.695825	-2.921889	-3.625054	-3.163150	-1.947434	-0.840719	0.498363	2.499542	-0.831787	0.272217	-0.603271	0.083447	-0.026039	-0.029316	0.489909	-0.355201	-0.678560	-0.416387	128.591964	-73.876924	164.531187
27892		9.177185	-6.930015	-3.775663	-7.167603	-5.492895	-1.753540	-0.778590	0.378275	2.436013	-0.832764	0.294434	-0.603516	0.092537	-0.068323	-0.037664	0.494838	-0.364561	-0.671630	-0.413695	130.757582	-75.089820	161.820727
27893		11.433225	-4.523561	-2.689108	-5.767826	-3.284916	0.880675	-0.460929	0.563464	2.297867	-0.831055	0.312256	-0.612305	0.114766	-0.043981	-0.027112	0.500811	-0.372454	-0.664875	-0.410375	133.101844	-76.323290	159.130626
27894		10.493377	-2.501511	-1.644005	-3.893833	-1.584297	0.256846	-0.034703	0.686175	1.904167	-0.824707	0.321045	-0.614502	0.105108	-0.024018	-0.016796	0.506907	-0.377450	-0.659506	-0.406975	135.128327	-77.380343	157.029158
27895		9.468397	-2.582240	-1.536806	-3.605138	-1.591720	-0.694207	0.296480	0.648926	1.777808	-0.821045	0.339111	-0.621338	0.094858	-0.024957	-0.015713	0.513410	-0.381474	-0.654891	-0.402499	137.684265	-78.390321	154.589625
27896		9.575670	-1.715694	-2.000624	-2.487444	-1.669141	-0.343615	0.483363	0.613068	1.675382	-0.818604	0.339111	-0.632324	0.095834	-0.016305	-0.020340	0.519688	-0.384475	-0.651067	-0.397764	140.475484	-79.284632	152.026864
27897		9.643774	0.097436	-1.018388	-1.024948	-0.045545	-0.169348	0.551676	0.530534	1.615253	-0.817383	0.361328	-0.634521	0.096398	0.001782	-0.010435	0.525878	-0.387489	-0.647454	-0.392564	143.992936	-80.128078	148.773643
27898		9.662796	1.312286	-0.207152	-0.061626	1.198290	-0.133178	0.452350	0.366230	1.565550	-0.810791	0.365967	-0.636719	0.096517	0.013884	-0.002218	0.530993	-0.390642	-0.644324	-0.387675	147.986230	-80.803979	144.987233
27899		10.046074	1.438522	-0.205308	0.161648	1.321546	0.250144	0.235198	0.236120	1.476547	-0.806641	0.379395	-0.638916	0.100348	0.015129	-0.002154	0.535273	-0.394550	-0.641049	-0.383235	152.633125	-81.372014	140.421464
27900		10.618994	-0.210487	0.537052	-1.554409	1.443303	0.608183	-0.001270	0.187257	1.414018	-0.807129	0.390381	-0.639160	0.106206	-0.001354	0.005271	0.538565	-0.398723	-0.637740	-0.379809	157.298828	-81.812209	135.704330
27901		11.013826	0.044941	0.137945	-1.052093	1.261974	1.078777	-0.150043	0.175491	1.372814	-0.805420	0.401611	-0.641357	0.110133	0.001206	0.001282	0.541638	-0.403386	-0.634029	-0.376716	162.535398	-82.201966	130.332873
27902		10.811528	-1.018460	0.297056	-1.933859	1.012294	0.829139	-0.195744	0.165368	1.269623	-0.805420	0.401611	-0.641357	0.108179	-0.009495	0.002891	0.544146	-0.407627	-0.630638	-0.374219	167.474948	-82.481646	125.235687
27903		10.490696	-1.662819	-0.599605	-2.027512	-0.053773	0.630693	-0.015305	0.165765	1.172249	-0.796875	0.412842	-0.647949	0.104997	-0.016013	-0.006082	0.547048	-0.411256	-0.627556	-0.371187	172.790827	-82.708395	119.871295
27904		10.658567	-2.568843	-1.159934	-2.541614	-0.869648	0.879931	0.348722	0.175574	1.071984	-0.799316	0.419434	-0.647949	0.106711	-0.025096	-0.011737	0.550296	-0.413340	-0.625507	-0.367511	177.767874	-82.858876	115.055871
27905		10.304433	-2.514321	-1.655836	-2.156942	-1.322642	0.620050	0.658468	0.194201	0.956822	-0.801758	0.426025	-0.650146	0.103147	-0.024595	-0.016740	0.554245	-0.414364	-0.623986	-0.362984	-177.035276	-82.976623	110.204925
27906		9.901263	-1.908120	-1.967683	-1.349499	-1.404299	0.274607	0.926259	0.183507	0.854226	-0.797363	0.430664	-0.656982	0.099075	-0.018566	-0.019854	0.558275	-0.414127	-0.623375	-0.358094	-172.445259	-83.035912	106.115133
27907		9.934702	-1.419617	-1.488251	-0.982349	-0.757446	0.256521	1.006069	0.182707	0.797302	-0.792969	0.432861	-0.663330	0.099389	-0.013725	-0.015043	0.562574	-0.413679	-0.622788	-0.352869	-167.607752	-83.061512	101.827988
27908		9.844127	-0.220956	-1.493172	0.209758	-0.267984	0.140639	0.954093	0.173995	0.763917	-0.797607	0.437256	-0.672363	0.098436	-0.001762	-0.015026	0.566426	-0.413066	-0.622388	-0.348096	-163.370271	-83.047639	98.109822
27909		9.659644	0.054894	-1.738191	0.660478	-0.374670	-0.027197	0.849792	0.179461	0.714357	-0.793213	0.435303	-0.672119	0.096578	0.000968	-0.017465	0.570200	-0.412769	-0.621660	-0.343560	-159.030498	-83.007440	94.233826
27910		9.786257	-0.504558	-1.676419	0.209021	-0.524962	0.112833	0.758129	0.211100	0.669426	-0.795654	0.444092	-0.674561	0.097861	-0.004654	-0.016886	0.573563	-0.412328	-0.620968	-0.339719	-155.333422	-82.969342	90.946485
27911		9.779754	-0.722650	-1.779126	0.146150	-0.699267	0.128148	0.719574	0.226942	0.653958	-0.802490	0.446289	-0.683350	0.097800	-0.006842	-0.017927	0.577073	-0.412103	-0.619973	-0.335843	-151.358015	-82.905581	87.361600
27912		9.688958	-1.323886	-1.586307	-0.398498	-0.793355	0.054237	0.694114	0.238515	0.644151	-0.793457	0.448730	-0.689941	0.096912	-0.012871	-0.016024	0.580318	-0.411699	-0.619114	-0.332313	-147.855985	-82.835773	84.233027
27913		9.603990	-0.918054	-1.489146	0.007766	-0.533127	-0.065266	0.630996	0.270626	0.645499	-0.798340	0.455322	-0.698730	0.096048	-0.008823	-0.015050	0.583733	-0.411609	-0.617833	-0.328811	-144.025798	-82.739441	80.741965
27914		9.459341	-1.133177	-1.528256	-0.091250	-0.679635	-0.188340	0.608246	0.303183	0.637713	-0.798340	0.457520	-0.694336	0.094605	-0.010983	-0.015460	0.586964	-0.411309	-0.616626	-0.325684	-140.587250	-82.652408	77.626588
27915		9.502919	-1.035212	-1.737436	0.179691	-0.812815	-0.132691	0.600319	0.314843	0.648257	-0.794189	0.464111	-0.698730	0.095034	-0.009992	-0.017554	0.590424	-0.411222	-0.615133	-0.322347	-136.856691	-82.520129	74.216511
27916		9.763712	-0.874212	-1.553787	0.328811	-0.545128	0.091994	0.618489	0.346777	0.649249	-0.803223	0.464111	-0.707520	0.097638	-0.008377	-0.015733	0.593803	-0.410838	-0.613761	-0.319230	-133.446736	-82.397451	71.134222
27917		10.027229	-0.933849	-1.493441	0.352498	-0.485839	0.350325	0.589306	0.369360	0.677130	-0.796631	0.468750	-0.707520	0.100275	-0.008955	-0.015146	0.597418	-0.410763	-0.612002	-0.315941	-129.744208	-82.220407	67.743512
27918		10.300207	-0.837306	-0.991512	0.305066	0.029528	0.564392	0.541502	0.434320	0.713113	-0.792480	0.477539	-0.711914	0.103009	-0.007978	-0.010161	0.600980	-0.410644	-0.610085	-0.313034	-126.189861	-82.050050	64.468586
27919		10.078803	-0.723317	-1.088760	0.540358	-0.033082	0.336056	0.510628	0.449962	0.765777	-0.797363	0.488770	-0.720947	0.100790	-0.006819	-0.011132	0.604782	-0.410921	-0.607751	-0.309873	-122.412065	-81.801667	60.953087
27920		10.062281	-0.687339	-1.035043	0.644097	0.024029	0.305462	0.487592	0.500624	0.817352	-0.792969	0.493164	-0.727539	0.100623	-0.006437	-0.010618	0.608565	-0.411157	-0.605301	-0.306935	-118.813790	-81.543215	57.598796
27921		10.128488	-0.839815	-1.245898	0.732695	-0.228204	0.397791	0.484593	0.549805	0.867600	-0.791016	0.502197	-0.731934	0.101285	-0.007928	-0.012757	0.612730	-0.411636	-0.602381	-0.303736	-115.007636	-81.208289	54.034505
27922		10.399350	-1.076985	-1.416540	0.751656	-0.465384	0.700643	0.495502	0.618074	0.921445	-0.784424	0.506836	-0.740723	0.103997	-0.010255	-0.014513	0.617002	-0.411955	-0.599328	-0.300678	-111.341158	-80.860684	50.610088
27923		10.828568	-1.310828	-1.345848	0.696729	-0.475404	1.145159	0.552963	0.697657	0.970890	-0.787109	0.515625	-0.749512	0.108300	-0.012545	-0.013871	0.621851	-0.412273	-0.595801	-0.297243	-107.468735	-80.432084	47.010714
27924		11.300134	-1.454390	-1.018201	0.610977	-0.226103	1.607405	0.614661	0.818859	1.012602	-0.780518	0.522461	-0.756104	0.113030	-0.013939	-0.010688	0.627049	-0.412160	-0.592062	-0.293934	-103.593678	-79.996968	43.435842
27925		11.416160	-0.762869	-1.175315	1.465970	-0.042124	1.595147	0.663605	0.977785	1.054532	-0.774414	0.538330	-0.769287	0.114140	-0.006987	-0.012335	0.633005	-0.411919	-0.587588	-0.290460	-99.415762	-79.478024	39.579995
27926		11.496078	-0.375299	-1.187612	1.986946	0.101639	1.578091	0.665964	1.157255	1.072059	-0.763184	0.538574	-0.786865	0.114907	-0.003096	-0.012552	0.639313	-0.411274	-0.582659	-0.287474	-95.172061	-78.951027	35.648476
27927		11.527422	-0.195770	-1.250620	2.365892	0.089538	1.539631	0.626409	1.202397	1.133222	-0.761230	0.552002	-0.793457	0.115205	-0.001264	-0.013204	0.645859	-0.410990	-0.577178	-0.284288	-91.156931	-78.301885	31.921824
27928		11.802922	-0.535168	-0.801559	2.090679	0.282524	1.839929	0.573507	1.223730	1.213609	-0.754639	0.556641	-0.806641	0.118007	-0.004611	-0.008752	0.652270	-0.410893	-0.571519	-0.281206	-87.580976	-77.596939	28.601369
27929		12.032549	-0.623262	-0.470790	2.103349	0.495030	2.049821	0.512594	1.264153	1.295348	-0.741943	0.574707	-0.815674	0.120329	-0.005440	-0.005483	0.658864	-0.411279	-0.565254	-0.277912	-84.314889	-76.767829	25.554970
27930		12.079144	-0.659064	-0.232495	2.178633	0.632803	2.071871	0.459006	1.317778	1.377822	-0.733398	0.583740	-0.824463	0.120814	-0.005752	-0.003135	0.665418	-0.411819	-0.558686	-0.274762	-81.377968	-75.888629	22.803153
27931		12.208569	-1.036071	-0.264831	2.151459	0.374245	2.246283	0.440842	1.363697	1.458094	-0.722656	0.597412	-0.839844	0.122135	-0.009463	-0.003502	0.672227	-0.412671	-0.551554	-0.271294	-78.718157	-74.895134	20.316935
27932		12.464047	-0.769474	-0.751809	2.930230	0.063351	2.349289	0.446082	1.432398	1.520989	-0.713867	0.608643	-0.855225	0.124636	-0.006729	-0.008426	0.679125	-0.413409	-0.544171	-0.267881	-76.273659	-73.864815	18.044176
27933		12.859614	-0.631576	-1.735334	3.923535	-0.725987	2.550635	0.469621	1.504489	1.588201	-0.703125	0.620117	-0.866211	0.128505	-0.005253	-0.018333	0.686382	-0.414228	-0.536215	-0.264136	-74.009476	-72.731143	15.961675
27934		14.185301	-0.445714	-2.357324	5.062827	-1.117068	3.607027	0.540108	1.619281	1.644266	-0.685547	0.629395	-0.881592	0.141686	-0.003226	-0.024731	0.693968	-0.414624	-0.527923	-0.260369	-71.808891	-71.556184	13.974950
27935		16.025464	-0.394810	-3.515927	6.611420	-2.011818	5.072222	0.625178	1.738930	1.730205	-0.672363	0.643066	-0.899170	0.159966	-0.002451	-0.036560	0.702132	-0.414857	-0.518932	-0.256153	-69.692064	-70.262687	12.111961
27936		18.318025	0.497857	-5.002959	9.244518	-2.734727	6.553893	0.884485	1.899060	1.827924	-0.657227	0.654541	-0.907959	0.182637	0.006876	-0.051738	0.711170	-0.414031	-0.509551	-0.251343	-67.493698	-68.888703	10.307044
27937		20.043829	2.699901	-6.273199	12.701852	-2.616361	6.925939	1.239560	2.089060	1.954988	-0.628174	0.664063	-0.932129	0.199490	0.029349	-0.064642	0.721464	-0.412068	-0.499459	-0.245418	-65.197279	-67.359958	8.590937
27938		20.760494	5.677868	-6.599377	15.921507	-1.299884	6.048021	1.528601	2.224198	2.113456	-0.623779	0.666504	-0.958496	0.206238	0.059477	-0.067845	0.732658	-0.409051	-0.488879	-0.238511	-62.904467	-65.711791	7.046440
27939		20.713530	7.544966	-7.406596	18.211879	-0.951282	4.616737	1.643422	2.308180	2.241946	-0.595215	0.682617	-0.976074	0.205399	0.078377	-0.075807	0.744187	-0.405834	-0.477663	-0.230919	-60.801906	-63.944600	5.750440
27940		20.117386	9.219559	-8.108709	19.995399	-0.559618	2.648334	1.666127	2.292911	2.433519	-0.570313	0.678711	-0.995605	0.199086	0.095310	-0.082592	0.755726	-0.402737	-0.466029	-0.222484	-58.990944	-62.077890	4.789647
27941		18.255299	8.392942	-7.091987	18.402314	-0.189592	0.923544	1.351096	2.154379	2.636127	-0.552734	0.690186	-1.008789	0.180648	0.086804	-0.072293	0.766175	-0.401444	-0.454031	-0.213717	-57.778009	-60.149200	4.268479
27942		16.506877	2.364806	-4.496295	12.397651	-1.620363	2.100681	0.968927	1.988075	2.744553	-0.523682	0.697510	-1.028564	0.164265	0.026129	-0.046476	0.775448	-0.401784	-0.441866	-0.204948	-57.036113	-58.209306	4.051089
27943		16.278257	-5.742216	-1.938279	5.970261	-4.358693	5.904823	0.821934	1.874132	2.734777	-0.499512	0.711426	-1.039551	0.163354	-0.055107	-0.021141	0.783783	-0.402793	-0.429976	-0.196374	-56.533337	-56.326593	3.987158
27944		14.740423	-4.307565	-3.381995	7.298982	-4.698230	3.298532	0.535230	1.664609	2.677975	-0.479248	0.714111	-1.052490	0.147674	-0.041007	-0.035160	0.790970	-0.404775	-0.418525	-0.188043	-56.307013	-54.519385	4.084713
27945		12.111580	-0.990594	-4.073920	8.579098	-3.312489	-0.886010	0.194764	1.175703	2.430490	-0.459717	0.727783	-1.059082	0.120982	-0.008395	-0.041459	0.795862	-0.408109	-0.409217	-0.180532	-56.514739	-53.007524	4.446816
27946		11.376627	-1.119479	-5.426556	8.957749	-4.435686	-2.053439	-0.129570	0.875968	2.219258	-0.444336	0.737061	-1.063477	0.113642	-0.009969	-0.054757	0.799338	-0.412353	-0.401053	-0.173727	-56.950728	-51.667687	4.903702
27947		11.278218	-6.424701	-3.100663	4.752527	-5.718410	1.268507	1.135747	0.971432	2.039656	-0.430664	0.737305	-1.072266	0.113275	-0.062914	-0.031916	0.805129	-0.411211	-0.394069	-0.165478	-56.553763	-50.411840	5.188387
27948		8.494794	-12.359782	-1.398932	-0.980338	-8.184703	2.793390	2.254052	0.775567	2.149207	-0.414551	0.729004	-1.092041	0.086210	-0.122505	-0.015707	0.812967	-0.405684	-0.388338	-0.153944	-55.639933	-49.140659	5.682974
27949		4.916775	-8.831651	-0.286409	-1.505204	-5.472434	-1.444137	2.858047	0.284095	1.860412	-0.400391	0.713867	-1.111572	0.049981	-0.087801	-0.004192	0.820407	-0.397636	-0.385706	-0.141592	-54.586994	-48.199964	6.410175
27950		2.305697	4.575169	-5.555650	6.876676	-1.044778	-12.767539	1.814867	0.088530	1.251175	-0.398438	0.716064	-1.113770	0.022744	0.046396	-0.055148	0.825023	-0.392525	-0.384113	-0.133112	-53.966335	-47.587167	6.975121
27951		-1.495176	18.840690	-8.712160	13.415738	5.767507	-24.640393	0.734726	-0.233990	0.195556	-0.402588	0.707031	-1.120361	-0.015035	0.188711	-0.086446	0.825909	-0.390278	-0.385342	-0.130649	-53.782470	-47.603290	7.239902
27952		3.138935	14.327934	-0.210265	9.596455	9.628667	-15.324684	0.720801	-0.625651	-0.377716	-0.409180	0.704834	-1.126953	0.031665	0.143226	-0.001488	0.825852	-0.386985	-0.389126	-0.129583	-53.548208	-47.988900	7.481088
27953		4.672958	1.263820	3.792683	1.666531	4.064225	-5.508886	0.127390	-0.882720	-0.399382	-0.424561	0.699951	-1.118164	0.046587	0.012521	0.038141	0.823874	-0.386451	-0.393840	-0.129524	-53.820001	-48.508955	7.892905
27954		1.072172	-0.045603	-0.966111	1.208248	-0.643800	-9.353744	-0.111559	-1.263813	-0.655075	-0.433594	0.695313	-1.109375	0.010781	-0.000497	-0.009593	0.820725	-0.386436	-0.400228	-0.129983	-54.304866	-49.236770	8.451628
27955		-0.593677	4.642395	-2.570003	3.515612	1.132867	-13.668253	-0.498480	-1.461254	-1.309224	-0.453857	0.697266	-1.096191	-0.005444	0.046396	-0.025857	0.815705	-0.386979	-0.408630	-0.133769	-54.924171	-50.369518	8.841048
27956		1.448391	5.387508	-0.693905	4.212429	3.197995	-11.718428	-0.782351	-1.743101	-1.717273	-0.469238	0.687988	-1.083008	0.015007	0.053720	-0.007020	0.809414	-0.387803	-0.418503	-0.138973	-55.697653	-51.745926	9.259025
27957		3.340434	2.825463	-0.068202	3.619911	2.143636	-8.609908	-0.863438	-1.971962	-1.969608	-0.493896	0.685059	-1.070068	0.033686	0.027921	-0.000472	0.801907	-0.388674	-0.429890	-0.145164	-56.638368	-53.350869	9.776376
27958		2.717342	1.943039	-0.259456	2.833047	1.353189	-8.642789	-0.703132	-2.125623	-2.327121	-0.518066	0.673584	-1.056885	0.027423	0.019104	-0.002372	0.794178	-0.387991	-0.442367	-0.151842	-57.455433	-55.131184	10.286578
27959		2.272094	2.857000	-0.176490	3.046100	1.958912	-9.323852	-0.681704	-2.273928	-2.741787	-0.544678	0.659668	-1.037109	0.023128	0.028249	-0.001600	0.785349	-0.386449	-0.456363	-0.160054	-58.289604	-57.194405	10.779044
27960		3.147883	3.463831	0.041250	3.727355	2.593628	-8.678223	-0.848374	-2.443111	-3.087321	-0.575684	0.647705	-1.010742	0.032001	0.034149	0.000656	0.775504	-0.384621	-0.471149	-0.169346	-59.230999	-59.431836	11.313817
27961		4.804800	3.561731	0.401799	4.329959	3.073461	-7.031505	-0.973042	-2.577506	-3.392819	-0.599609	0.627197	-0.995361	0.048588	0.034817	0.004471	0.764222	-0.382625	-0.486975	-0.180050	-60.368280	-61.896450	11.940526
27962		6.445963	3.148052	0.671664	4.506802	3.144339	-5.153633	-1.046185	-2.663462	-3.703783	-0.626221	0.615479	-0.966797	0.064933	0.030318	0.007419	0.752191	-0.379906	-0.503162	-0.191591	-61.573723	-64.491569	12.619091
27963		6.897251	3.038495	1.057182	4.169491	3.371663	-4.412604	-1.293300	-2.740942	-4.054233	-0.650146	0.590332	-0.944824	0.069419	0.029052	0.011330	0.738413	-0.377180	-0.520021	-0.205083	-63.068364	-67.322219	13.409462
27964		7.656026	3.129216	1.184294	4.176084	3.541279	-3.502592	-1.580744	-2.818235	-4.400872	-0.680664	0.565186	-0.914063	0.077051	0.029698	0.012688	0.723316	-0.374333	-0.536910	-0.220036	-64.866236	-70.295710	14.365656
27965		8.674608	2.389629	1.230118	3.604190	3.135169	-2.090226	-1.791823	-2.884544	-4.701081	-0.704346	0.540283	-0.889893	0.087090	0.021968	0.013353	0.706420	-0.371283	-0.554194	-0.236619	-67.241657	-73.474426	15.752413
27966		9.802588	1.559046	1.534517	2.670211	2.883918	-0.571127	-1.964976	-2.931519	-4.925351	-0.732666	0.512939	-0.854736	0.098135	0.013334	0.016645	0.688498	-0.367884	-0.571111	-0.253896	-70.430381	-76.712030	17.885802
27967		11.031213	0.789651	1.192979	1.995131	2.170248	0.911666	-2.031551	-3.004114	-5.068210	-0.751709	0.479004	-0.828125	0.110272	0.005233	0.013524	0.669072	-0.364084	-0.588161	-0.271757	-75.598363	-80.040176	21.942621
27968		11.970717	0.063684	0.216561	1.493028	0.950075	2.026868	-1.856305	-2.981707	-5.180540	-0.770996	0.451904	-0.806152	0.119621	-0.002432	0.003963	0.649558	-0.358944	-0.604755	-0.288973	-84.686881	-83.263868	30.049541
27969		13.170236	-0.648407	-0.337039	0.593590	0.086452	3.362094	-1.446751	-2.939331	-5.308132	-0.787598	0.418213	-0.770752	0.131498	-0.009991	-0.001373	0.629725	-0.351690	-0.621672	-0.305425	-107.830443	-86.194141	52.422050
27970		15.618024	-2.224733	-1.510604	-0.829667	-1.723849	5.916669	-0.867569	-2.992147	-5.402344	-0.804199	0.377686	-0.744385	0.155704	-0.026516	-0.012665	0.610343	-0.342040	-0.638965	-0.319710	-169.949501	-87.058207	114.129762
