// General information: 
//  MT Manager version: 2019.2.0 
//  XDA version: 2019.2.0 build 3853 rev 94535 built on 2019-09-09
// Device information: 
//  DeviceId: 00B40AC7
//  ProductCode: MTW2-3A7G6
//  Firmware Version: 4.3.5
//  Hardware Version: 1.1.0
// Device settings: 
//  Filter Profile: human(46.1)
//  Option Flags: Orientation Smoother Disabled, AHS Disabled, ICC Disabled
// Coordinate system: ENU
PacketCounter	SampleTimeFine	Acc_X	Acc_Y	Acc_Z	FreeAcc_E	FreeAcc_N	FreeAcc_U	Gyr_X	Gyr_Y	Gyr_Z	Mag_X	Mag_Y	Mag_Z	VelInc_X	VelInc_Y	VelInc_Z	Quat_q0	Quat_q1	Quat_q2	Quat_q3	Roll	Pitch	Yaw
29707		9.640197	0.300912	-1.882058	0.033744	0.008507	0.014055	0.002479	0.008874	-0.025499	-0.982910	0.335449	0.301758	0.096402	0.002997	-0.018825	0.634572	-0.045046	-0.769496	-0.056249	171.126911	-79.012868	-179.379732
29708		9.688232	0.302507	-1.872006	0.015180	0.009039	0.059367	0.002479	0.008871	-0.025499	-0.987305	0.333252	0.306396	0.096882	0.003013	-0.018724	0.634586	-0.044925	-0.769488	-0.056306	171.053742	-79.013476	-179.301316
29709		9.664350	0.305273	-1.875761	0.023864	0.008931	0.036713	0.006778	0.008962	-0.025086	-0.987305	0.333008	0.297363	0.096643	0.003041	-0.018762	0.634600	-0.044790	-0.769481	-0.056346	170.983468	-79.013915	-179.223250
29710		9.693052	0.308832	-1.894131	0.036975	0.007359	0.068454	0.003660	0.010906	-0.026404	-0.987549	0.335449	0.306152	0.096930	0.003076	-0.018947	0.634622	-0.044661	-0.769467	-0.056401	170.907373	-79.015555	-179.141164
29711		9.688659	0.334007	-1.867463	0.015831	0.033691	0.059886	0.000131	0.012690	-0.023429	-0.987305	0.333252	0.306396	0.096886	0.003329	-0.018681	0.634649	-0.044552	-0.769446	-0.056461	170.836253	-79.018291	-179.065998
29712		9.645449	0.338510	-1.899668	0.056238	0.031507	0.023666	-0.003411	0.006564	-0.020715	-0.987305	0.330811	0.297607	0.096454	0.003375	-0.019000	0.634654	-0.044469	-0.769442	-0.056525	170.774689	-79.017958	-179.002843
29713		9.693441	0.315604	-1.891020	0.035798	0.007662	0.068458	-0.007492	0.014454	-0.023015	-0.989502	0.326660	0.299805	0.096933	0.003144	-0.018917	0.634687	-0.044387	-0.769413	-0.056616	170.699243	-79.021678	-178.928149
29714		9.641052	0.317066	-1.875009	0.031049	0.009270	0.014063	-0.001047	0.012619	-0.022459	-0.987305	0.331055	0.302002	0.096410	0.003160	-0.018756	0.634715	-0.044288	-0.769391	-0.056677	170.631027	-79.024577	-178.856838
29715		9.660534	0.317343	-1.845345	-0.001030	0.011436	0.027627	-0.003199	0.010591	-0.022731	-0.987305	0.333252	0.301758	0.096605	0.003162	-0.018459	0.634734	-0.044199	-0.769375	-0.056754	170.560122	-79.026129	-178.784888
29716		9.665369	0.345560	-1.866519	0.023009	0.034003	0.037235	-0.005346	0.012516	-0.022874	-0.987305	0.328857	0.299805	0.096653	0.003444	-0.018671	0.634761	-0.044112	-0.769352	-0.056834	170.488217	-79.028897	-178.712330
29717		9.694183	0.373450	-1.882966	0.037914	0.056741	0.069496	-0.005346	0.012513	-0.022874	-0.987305	0.333252	0.303955	0.096941	0.003723	-0.018836	0.634787	-0.044023	-0.769330	-0.056915	170.415209	-79.031485	-178.638725
29718		9.646289	0.327588	-1.894326	0.052089	0.007775	0.023161	-0.004583	0.010441	-0.019615	-0.987549	0.337646	0.303955	0.096462	0.003266	-0.018948	0.634807	-0.043947	-0.769313	-0.056980	170.354197	-79.033359	-178.576818
29719		9.665685	0.303352	-1.866468	0.018162	-0.014357	0.036204	-0.002229	0.008590	-0.021620	-0.987549	0.335449	0.301758	0.096656	0.003023	-0.018669	0.634818	-0.043851	-0.769305	-0.057039	170.289387	-79.033739	-178.509017
29720		9.670402	0.331532	-1.888212	0.042197	0.008216	0.045816	-0.005355	0.002621	-0.023202	-0.985107	0.333252	0.301758	0.096704	0.003304	-0.018883	0.634807	-0.043765	-0.769313	-0.057118	170.221375	-79.030823	-178.440429
29721		9.694456	0.333478	-1.882734	0.032682	0.008532	0.068468	-0.009852	0.014300	-0.021077	-0.989502	0.326660	0.304199	0.096944	0.003324	-0.018834	0.634839	-0.043692	-0.769284	-0.057204	170.150854	-79.034499	-178.371002
29722		9.665988	0.358824	-1.860797	0.020666	0.034677	0.037238	-0.009856	0.006391	-0.021340	-0.982666	0.326660	0.306396	0.096660	0.003577	-0.018611	0.634842	-0.043627	-0.769279	-0.057295	170.083797	-79.033862	-178.306015
29723		9.670639	0.314009	-1.887307	0.039166	-0.015817	0.045305	-0.010828	0.006401	-0.022518	-0.985107	0.331055	0.302002	0.096706	0.003128	-0.018876	0.634841	-0.043567	-0.769275	-0.057402	170.011322	-79.032777	-178.237334
29724		9.666039	0.314765	-1.862741	0.016217	-0.013811	0.036208	-0.008678	0.006450	-0.022310	-0.985107	0.331055	0.299805	0.096660	0.003136	-0.018631	0.634844	-0.043494	-0.769270	-0.057491	169.942105	-79.032047	-178.169460
29725		9.699394	0.368709	-1.901918	0.055499	0.031409	0.078087	-0.010827	0.008372	-0.022452	-0.985107	0.331055	0.304199	0.096994	0.003675	-0.019023	0.634853	-0.043422	-0.769260	-0.057586	169.869706	-79.032181	-178.098977
29726		9.646899	0.345785	-1.887977	0.048951	0.008667	0.023176	-0.012976	0.010294	-0.022595	-0.984863	0.326660	0.306396	0.096468	0.003446	-0.018885	0.634869	-0.043361	-0.769241	-0.057694	169.795199	-79.033557	-178.028223
29727		9.690294	0.321589	-1.855373	0.005899	-0.013292	0.058859	-0.014155	0.010226	-0.021626	-0.989502	0.331055	0.304199	0.096902	0.003204	-0.018559	0.634883	-0.043308	-0.769224	-0.057805	169.722079	-79.034650	-177.959901
29728		9.695008	0.349939	-1.876895	0.029922	0.009289	0.068476	-0.007500	0.004529	-0.023345	-0.987305	0.331055	0.308594	0.096950	0.003487	-0.018771	0.634879	-0.043228	-0.769226	-0.057893	169.651553	-79.032665	-177.890006
29729		9.671137	0.352687	-1.880598	0.038607	0.009189	0.045830	-0.011800	0.014302	-0.023431	-0.987061	0.324463	0.304199	0.096710	0.003514	-0.018813	0.634909	-0.043159	-0.769197	-0.058001	169.572612	-79.035835	-177.814232
29730		9.666589	0.329195	-1.857386	0.013840	-0.013151	0.036213	-0.002993	0.004709	-0.025075	-0.980469	0.324463	0.304199	0.096666	0.003280	-0.018576	0.634905	-0.043059	-0.769200	-0.058076	169.499563	-79.033737	-177.739137
29731		9.671225	0.381900	-1.877450	0.039623	0.033730	0.046346	-0.006529	0.006486	-0.022102	-0.989502	0.326660	0.304199	0.096712	0.003808	-0.018778	0.634906	-0.042984	-0.769197	-0.058163	169.430933	-79.032612	-177.671468
29732		9.671281	0.384157	-1.876702	0.039248	0.033851	0.046348	-0.006530	0.008460	-0.022035	-0.989502	0.326660	0.299805	0.096712	0.003830	-0.018771	0.634917	-0.042905	-0.769186	-0.058243	169.362691	-79.032911	-177.603333
29733		9.695301	0.386094	-1.871298	0.029720	0.034135	0.068995	-0.011034	0.006295	-0.020374	-0.987061	0.326416	0.297607	0.096953	0.003850	-0.018716	0.634918	-0.042849	-0.769181	-0.058340	169.296687	-79.031944	-177.540664
29734		9.647451	0.388777	-1.879772	0.047584	0.033852	0.023704	-0.015543	0.010058	-0.018512	-0.985107	0.328857	0.304199	0.096474	0.003877	-0.018803	0.634934	-0.042812	-0.769162	-0.058444	169.232633	-79.033490	-177.482054
29735		9.647567	0.390891	-1.878740	0.047176	0.033949	0.023706	-0.014365	0.010121	-0.019481	-0.989502	0.326660	0.304199	0.096475	0.003898	-0.018793	0.634950	-0.042764	-0.769144	-0.058545	169.165679	-79.034755	-177.419463
29736		9.690974	0.366340	-1.846233	0.004172	0.012006	0.059374	-0.016927	0.007933	-0.015464	-0.987305	0.326660	0.306396	0.096909	0.003654	-0.018466	0.634958	-0.042743	-0.769131	-0.058645	169.110837	-79.035409	-177.371045
29737		9.647792	0.370337	-1.878735	0.044562	0.009819	0.023196	-0.010270	0.006200	-0.017050	-0.987305	0.331055	0.299805	0.096478	0.003694	-0.018791	0.634959	-0.042698	-0.769126	-0.058728	169.055278	-79.034590	-177.318634
29738		9.676508	0.373312	-1.897250	0.057638	0.008272	0.054953	-0.015193	0.007830	-0.010962	-0.987305	0.328857	0.304199	0.096765	0.003726	-0.018977	0.634969	-0.042690	-0.769112	-0.058806	169.014552	-79.035661	-177.283584
29739		9.691137	0.395738	-1.842374	0.004766	0.036670	0.059887	-0.012419	0.006141	-0.017259	-0.987061	0.324463	0.302002	0.096911	0.003948	-0.018427	0.634970	-0.042642	-0.769108	-0.058889	168.957890	-79.034871	-177.229822
29740		9.652766	0.352638	-1.902131	0.064168	-0.016033	0.031802	-0.012629	0.008037	-0.015045	-0.989014	0.317627	0.297852	0.096527	0.003518	-0.019025	0.634980	-0.042610	-0.769095	-0.058971	168.906655	-79.035597	-177.182571
29741		9.676755	0.378501	-1.894962	0.056448	0.008571	0.054960	-0.013600	0.008045	-0.016223	-0.982666	0.324463	0.304199	0.096767	0.003776	-0.018954	0.634988	-0.042580	-0.769082	-0.059068	168.849632	-79.036006	-177.131079
29742		9.648278	0.354595	-1.876579	0.040822	-0.013982	0.022692	-0.012422	0.008110	-0.017192	-0.987061	0.326660	0.299805	0.096482	0.003536	-0.018770	0.634998	-0.042539	-0.769070	-0.059155	168.792234	-79.036517	-177.077429
29743		9.700873	0.382057	-1.888718	0.046527	0.008994	0.077607	-0.011240	0.006200	-0.018228	-0.987061	0.324463	0.304199	0.097008	0.003811	-0.018890	0.634999	-0.042487	-0.769065	-0.059241	168.732955	-79.035578	-177.020913
29744		9.676999	0.384236	-1.892560	0.055280	0.008916	0.054966	-0.012425	0.010081	-0.017124	-0.987305	0.326660	0.304199	0.096769	0.003833	-0.018931	0.635016	-0.042445	-0.769047	-0.059329	168.674604	-79.037183	-176.966295
29745		9.696395	0.384320	-1.862952	0.023154	0.011078	0.068492	-0.012217	0.010156	-0.019270	-0.985107	0.328857	0.299805	0.096963	0.003833	-0.018635	0.635031	-0.042394	-0.769030	-0.059424	168.609394	-79.038276	-176.904755
29746		9.696622	0.362028	-1.863515	0.020975	-0.013142	0.067982	-0.010072	0.012187	-0.018992	-0.989502	0.328857	0.299805	0.096965	0.003610	-0.018641	0.635057	-0.042337	-0.769005	-0.059510	168.545706	-79.040829	-176.843328
29747		9.672625	0.413027	-1.863596	0.033308	0.035460	0.046364	-0.012221	0.012126	-0.019202	-0.987061	0.322266	0.302246	0.096726	0.004120	-0.018642	0.635081	-0.042277	-0.768982	-0.059596	168.480114	-79.043155	-176.779882
29748		9.677601	0.392520	-1.887772	0.053702	0.009378	0.054975	-0.022004	0.015769	-0.018940	-0.989258	0.324463	0.299805	0.096775	0.003914	-0.018886	0.635118	-0.042257	-0.768942	-0.059728	168.407553	-79.047697	-176.716381
29749		9.683117	0.363579	-1.787475	-0.047920	-0.007238	0.040620	-0.029426	0.017570	-0.020682	-0.991455	0.324219	0.297607	0.096830	0.003623	-0.017884	0.635158	-0.042253	-0.768896	-0.059896	168.323527	-79.052819	-176.645755
29750		9.673481	0.371440	-1.862150	0.028548	-0.012896	0.045346	-0.022766	0.015846	-0.022265	-0.984863	0.320068	0.302246	0.096734	0.003702	-0.018630	0.635193	-0.042222	-0.768857	-0.060041	168.240716	-79.056984	-176.572261
29751		9.649732	0.374369	-1.865228	0.037279	-0.013014	0.022707	-0.021378	0.015987	-0.025379	-0.987305	0.328857	0.299805	0.096496	0.003729	-0.018660	0.635228	-0.042175	-0.768819	-0.060194	168.148378	-79.060654	-176.488496
29752		9.683406	0.356240	-1.908501	0.071110	-0.040748	0.063087	-0.028790	0.013833	-0.027262	-0.995850	0.322021	0.297607	0.096833	0.003546	-0.019092	0.635253	-0.042145	-0.768786	-0.060378	168.048734	-79.063054	-176.401375
29753		9.654677	0.406661	-1.884227	0.060877	0.009695	0.032346	-0.017638	0.018236	-0.030357	-0.991455	0.322266	0.304443	0.096546	0.004050	-0.018851	0.635296	-0.042062	-0.768743	-0.060527	167.943082	-79.067412	-176.301076
29754		9.674107	0.407806	-1.853988	0.028796	0.011871	0.045860	-0.018046	0.014126	-0.026205	-0.993652	0.319824	0.297852	0.096740	0.004064	-0.018547	0.635325	-0.042002	-0.768712	-0.060666	167.852379	-79.070046	-176.216793
29755		9.669739	0.384816	-1.830097	0.004026	-0.010543	0.036225	-0.019794	0.020136	-0.030499	-0.991455	0.322266	0.302002	0.096696	0.003832	-0.018311	0.635374	-0.041933	-0.768662	-0.060833	167.743043	-79.075292	-176.115411
29756		9.674526	0.414031	-1.850422	0.028012	0.012068	0.045862	-0.013545	0.016292	-0.027857	-0.991455	0.322021	0.297607	0.096744	0.004126	-0.018512	0.635411	-0.041851	-0.768625	-0.060960	167.648643	-79.078881	-176.024738
29757		9.674695	0.416914	-1.848888	0.027608	0.012157	0.045863	-0.012569	0.014306	-0.026749	-0.989258	0.322266	0.304443	0.096746	0.004155	-0.018496	0.635441	-0.041770	-0.768596	-0.061082	167.558291	-79.081295	-175.937693
29758		9.674847	0.419739	-1.847452	0.027232	0.012278	0.045864	-0.009241	0.014436	-0.027503	-0.993408	0.315430	0.300049	0.096748	0.004183	-0.018482	0.635472	-0.041677	-0.768566	-0.061191	167.468471	-79.083834	-175.849175
29759		9.631668	0.449035	-1.877522	0.069455	0.034446	0.010232	-0.008068	0.016476	-0.028400	-0.993896	0.324463	0.302002	0.096316	0.004476	-0.018783	0.635509	-0.041582	-0.768531	-0.061307	167.373991	-79.087106	-175.756324
29760		9.675211	0.425159	-1.844303	0.026436	0.012473	0.045866	-0.009879	0.016169	-0.020994	-0.987061	0.322266	0.302246	0.096751	0.004241	-0.018451	0.635549	-0.041515	-0.768494	-0.061399	167.301458	-79.091380	-175.685786
29761		9.675189	0.451903	-1.841131	0.027804	0.036924	0.046375	-0.007295	0.012438	-0.025215	-0.991455	0.324463	0.302002	0.096751	0.004506	-0.018417	0.635573	-0.041422	-0.768473	-0.061491	167.220241	-79.092763	-175.604524
29762		9.699295	0.454176	-1.834966	0.018281	0.037244	0.069012	-0.012029	0.016097	-0.021208	-0.989014	0.317627	0.297852	0.096992	0.004530	-0.018358	0.635612	-0.041361	-0.768436	-0.061592	167.145809	-79.096933	-175.533308
29763		9.694514	0.479055	-1.807902	-0.002911	0.063530	0.060385	-0.008685	0.012283	-0.022103	-0.993652	0.317627	0.300049	0.096945	0.004779	-0.018085	0.635636	-0.041285	-0.768413	-0.061681	167.072505	-79.098638	-175.461077
29764		9.675828	0.434360	-1.838919	0.024852	0.012920	0.045870	-0.009098	0.010154	-0.017882	-0.991455	0.317627	0.297852	0.096758	0.004334	-0.018394	0.635654	-0.041229	-0.768395	-0.061759	167.013278	-79.099884	-175.403636
29765		9.680476	0.462344	-1.860021	0.048798	0.035491	0.055515	-0.006949	0.010217	-0.017668	-0.993652	0.317871	0.302246	0.096804	0.004614	-0.018605	0.635671	-0.041171	-0.768378	-0.061833	166.954428	-79.101005	-175.346058
29766		9.671301	0.436229	-1.813000	0.001507	0.014957	0.036734	-0.005981	0.010210	-0.016488	-0.991455	0.322021	0.297607	0.096712	0.004354	-0.018135	0.635690	-0.041111	-0.768360	-0.061894	166.900961	-79.102441	-175.292665
29767		9.680702	0.465759	-1.857989	0.048009	0.035705	0.055518	-0.005012	0.010203	-0.015308	-0.986816	0.317871	0.297852	0.096806	0.004650	-0.018585	0.635709	-0.041052	-0.768343	-0.061949	166.850596	-79.103820	-175.242000
29768		9.661871	0.444816	-1.887287	0.077564	0.009444	0.041518	-0.004052	0.012169	-0.014057	-0.991455	0.317871	0.302246	0.096618	0.004441	-0.018879	0.635736	-0.040995	-0.768320	-0.061996	166.803922	-79.106649	-175.194400
29769		9.652523	0.442742	-1.838333	0.032021	0.013214	0.023241	0.000456	0.012378	-0.015775	-0.989258	0.322266	0.299805	0.096524	0.004420	-0.018389	0.635764	-0.040916	-0.768298	-0.062032	166.753754	-79.109118	-175.140821
29770		9.657462	0.445926	-1.860928	0.054207	0.011496	0.032383	0.000236	0.014272	-0.013558	-0.986816	0.317871	0.304443	0.096574	0.004453	-0.018616	0.635801	-0.040846	-0.768269	-0.062061	166.709497	-79.113170	-175.093181
29771		9.700300	0.493729	-1.822808	0.016464	0.062525	0.069520	0.003160	0.010312	-0.010160	-0.998047	0.315430	0.297852	0.097002	0.004933	-0.018233	0.635822	-0.040779	-0.768254	-0.062066	166.679151	-79.115144	-175.057698
29772		9.676733	0.470314	-1.828358	0.023461	0.038105	0.046382	-0.000381	0.010095	-0.007262	-0.991455	0.317871	0.302246	0.096767	0.004700	-0.018288	0.635845	-0.040737	-0.768237	-0.062076	166.655618	-79.117690	-175.031523
29773		9.676643	0.495475	-1.825612	0.024826	0.062518	0.046889	-0.000169	0.010171	-0.009408	-0.991455	0.317871	0.302246	0.096766	0.004950	-0.018261	0.635866	-0.040691	-0.768220	-0.062100	166.624438	-79.119770	-174.998573
29774		9.653087	0.471947	-1.831171	0.031827	0.038097	0.023752	-0.000593	0.010018	-0.005116	-0.989014	0.315430	0.297852	0.096530	0.004717	-0.018317	0.635889	-0.040657	-0.768203	-0.062104	166.607038	-79.122552	-174.978766
29775		9.696343	0.470422	-1.796868	-0.009469	0.040408	0.059869	-0.001763	0.007973	-0.004222	-0.991455	0.322266	0.299805	0.096963	0.004702	-0.017973	0.635902	-0.040634	-0.768192	-0.062114	166.591862	-79.124054	-174.962455
29776		9.653858	0.424092	-1.832955	0.027482	-0.010390	0.022743	-0.000805	0.009941	-0.002970	-0.993652	0.317871	0.302246	0.096538	0.004239	-0.018334	0.635926	-0.040609	-0.768174	-0.062112	166.580604	-79.127076	-174.949027
29777		9.672925	0.446629	-1.801769	-0.002884	0.016083	0.036732	0.000939	0.005911	0.001395	-0.986816	0.317871	0.297852	0.096729	0.004467	-0.018021	0.635934	-0.040597	-0.768170	-0.062090	166.585233	-79.128176	-174.950787
29778		9.682319	0.474255	-1.847386	0.043633	0.036883	0.055534	0.002895	0.001959	0.003613	-0.993652	0.317871	0.304443	0.096823	0.004745	-0.018475	0.635929	-0.040588	-0.768177	-0.062051	166.600718	-79.127625	-174.962433
29779		9.701547	0.472130	-1.818451	0.011484	0.039002	0.069015	0.002129	0.004011	0.000358	-0.995850	0.317871	0.302246	0.097015	0.004722	-0.018186	0.635929	-0.040570	-0.768180	-0.062030	166.604073	-79.127492	-174.962553
29780		9.672887	0.470358	-1.799075	-0.002294	0.040755	0.037236	0.000958	0.001967	0.001252	-0.993652	0.322021	0.299805	0.096729	0.004704	-0.017992	0.635924	-0.040559	-0.768187	-0.062006	166.611589	-79.126631	-174.967213
29781		9.682753	0.449173	-1.848315	0.040639	0.012843	0.055033	-0.003985	0.003576	0.007331	-0.993652	0.320068	0.302246	0.096827	0.004495	-0.018485	0.635924	-0.040587	-0.768187	-0.061985	166.632025	-79.127229	-174.988296
29782		9.683085	0.424289	-1.849711	0.038492	-0.011381	0.054530	-0.003773	0.003652	0.005185	-0.991455	0.317871	0.300049	0.096830	0.004245	-0.018499	0.635925	-0.040606	-0.768187	-0.061968	166.647082	-79.127828	-175.003396
29783		9.682974	0.448235	-1.847385	0.039839	0.013054	0.055036	-0.002612	0.007667	0.004362	-0.995850	0.319824	0.300049	0.096829	0.004484	-0.018478	0.635939	-0.040617	-0.768175	-0.061952	166.656831	-79.130285	-175.012838
29784		9.658867	0.472348	-1.850130	0.050393	0.037324	0.032914	0.000765	-0.002053	0.003255	-0.989258	0.319824	0.297852	0.096589	0.004725	-0.018500	0.635919	-0.040616	-0.768195	-0.061922	166.672815	-79.127447	-175.026234
29785		9.673767	0.419537	-1.800947	-0.007832	-0.007423	0.036225	0.000515	0.005757	0.005687	-0.995850	0.317627	0.300049	0.096737	0.004198	-0.018012	0.635928	-0.040620	-0.768190	-0.061887	166.689621	-79.129090	-175.040526
29786		9.707132	0.446768	-1.841781	0.029505	0.013589	0.077667	0.000533	0.001814	0.005544	-0.991455	0.319824	0.297852	0.097071	0.004470	-0.018419	0.635923	-0.040626	-0.768196	-0.061852	166.709454	-79.128708	-175.057977
29787		9.659322	0.446622	-1.851082	0.047434	0.013280	0.032416	-0.000231	0.003867	0.002289	-0.991455	0.317871	0.300049	0.096593	0.004467	-0.018513	0.635924	-0.040623	-0.768198	-0.061833	166.716935	-79.128850	-175.063693
29788		9.654854	0.420209	-1.828600	0.022736	-0.009121	0.022756	-0.002593	0.003723	0.004219	-0.993652	0.319824	0.300049	0.096548	0.004204	-0.018288	0.635925	-0.040634	-0.768197	-0.061814	166.729822	-79.129357	-175.075894
29789		9.659687	0.421673	-1.852293	0.044879	-0.010857	0.031916	0.001936	-0.000010	0.002361	-0.991455	0.317627	0.295654	0.096597	0.004218	-0.018523	0.635911	-0.040626	-0.768212	-0.061786	166.741529	-79.127300	-175.084659
29790		9.712590	0.398599	-1.868363	0.046957	-0.036510	0.085825	0.005265	0.000129	0.001612	-0.991455	0.322266	0.302002	0.097126	0.003987	-0.018684	0.635899	-0.040603	-0.768226	-0.061744	166.753802	-79.125460	-175.091651
29791		9.678416	0.467998	-1.820027	0.015886	0.040068	0.046390	0.006436	0.002172	0.000718	-0.993408	0.315430	0.295654	0.096784	0.004681	-0.018201	0.635894	-0.040569	-0.768235	-0.061701	166.762087	-79.124443	-175.093709
29792		9.707606	0.420826	-1.842642	0.025373	-0.010126	0.077170	-0.001171	-0.002043	0.000894	-0.989014	0.313477	0.302246	0.097076	0.004209	-0.018425	0.635873	-0.040565	-0.768255	-0.061686	166.770068	-79.121296	-175.100085
29793		9.687974	0.471411	-1.867875	0.060206	0.036610	0.064715	-0.005478	-0.000205	0.000534	-0.993652	0.320068	0.302246	0.096880	0.004714	-0.018679	0.635855	-0.040578	-0.768267	-0.061698	166.771501	-79.118891	-175.103659
29794		9.678650	0.443577	-1.821786	0.012957	0.016022	0.045888	-0.014294	0.001422	0.001890	-0.987061	0.320068	0.300049	0.096786	0.004435	-0.018219	0.635845	-0.040618	-0.768271	-0.061731	166.772484	-79.117807	-175.110566
29795		9.683931	0.396645	-1.849000	0.031575	-0.034387	0.054048	-0.007848	0.001622	0.002536	-0.991455	0.319824	0.295654	0.096839	0.003967	-0.018491	0.635835	-0.040639	-0.768278	-0.061738	166.778384	-79.116640	-175.118692
29796		9.683512	0.445314	-1.845270	0.034710	0.014426	0.055054	-0.005487	0.001766	0.000606	-0.993652	0.317871	0.302246	0.096835	0.004453	-0.018454	0.635827	-0.040645	-0.768284	-0.061741	166.780451	-79.115579	-175.121564
29797		9.659381	0.469793	-1.848095	0.045234	0.038662	0.032934	-0.006667	0.001693	0.001571	-0.989014	0.317627	0.297852	0.096594	0.004698	-0.018482	0.635818	-0.040660	-0.768290	-0.061748	166.783700	-79.114412	-175.126604
29798		9.654863	0.443561	-1.825801	0.020548	0.016251	0.023267	-0.009029	0.001549	0.003502	-0.986816	0.317871	0.297852	0.096548	0.004436	-0.018259	0.635809	-0.040689	-0.768295	-0.061755	166.792282	-79.113610	-175.138177
29799		9.655149	0.419114	-1.827290	0.018387	-0.008006	0.022766	-0.003348	0.003804	0.000893	-0.989258	0.317871	0.300049	0.096551	0.004191	-0.018275	0.635808	-0.040687	-0.768296	-0.061750	166.794140	-79.113528	-175.139410
29800		9.688503	0.446640	-1.868189	0.055691	0.013032	0.064227	-0.008274	0.001466	0.006828	-0.989258	0.322266	0.299805	0.096885	0.004469	-0.018683	0.635801	-0.040727	-0.768301	-0.061744	166.812859	-79.113114	-175.160864
29801		9.655017	0.442906	-1.825147	0.019346	0.016562	0.023269	-0.001181	-0.000072	0.000965	-0.993408	0.315430	0.300049	0.096550	0.004429	-0.018251	0.635786	-0.040718	-0.768315	-0.061727	166.819212	-79.110833	-175.165243
29802		9.679201	0.418384	-1.822037	0.008037	-0.007469	0.045389	-0.003338	0.001832	0.000821	-0.993652	0.322021	0.299805	0.096792	0.004184	-0.018221	0.635778	-0.040719	-0.768322	-0.061722	166.823085	-79.109838	-175.168700
29803		9.678992	0.442318	-1.820272	0.009375	0.016958	0.045890	-0.000842	-0.002282	0.008512	-0.993652	0.319824	0.300049	0.096790	0.004427	-0.018202	0.635757	-0.040745	-0.768341	-0.061686	166.852372	-79.107336	-175.197188
29804		9.683772	0.443435	-1.844358	0.031551	0.015271	0.055063	0.000551	-0.002132	0.005401	-0.989014	0.315674	0.300049	0.096838	0.004437	-0.018443	0.635737	-0.040752	-0.768360	-0.061649	166.874426	-79.104725	-175.216891
29805		9.683553	0.467277	-1.842691	0.032882	0.039697	0.055564	-0.001606	-0.000227	0.005257	-0.995850	0.322021	0.297607	0.096835	0.004675	-0.018427	0.635722	-0.040768	-0.768374	-0.061627	166.892373	-79.102918	-175.234316
29806		9.664625	0.444338	-1.873245	0.062496	0.013471	0.041620	-0.002778	-0.002271	0.006150	-0.989014	0.317627	0.297852	0.096646	0.004446	-0.018731	0.635701	-0.040788	-0.768392	-0.061602	166.914769	-79.100323	-175.256310
29807		9.679011	0.440042	-1.820726	0.007807	0.017367	0.045891	-0.003976	0.001599	0.007260	-0.989258	0.322266	0.304443	0.096790	0.004404	-0.018208	0.635694	-0.040814	-0.768398	-0.061578	166.936179	-79.099897	-175.277889
29808		9.683792	0.441082	-1.844813	0.029981	0.015683	0.055067	-0.002006	-0.006298	0.009333	-0.989258	0.317871	0.300049	0.096838	0.004415	-0.018445	0.635658	-0.040846	-0.768429	-0.061538	166.970925	-79.095463	-175.312009
29809		9.683767	0.440337	-1.845123	0.029551	0.015782	0.055068	-0.003967	-0.000373	0.007188	-0.987061	0.320068	0.300049	0.096838	0.004406	-0.018451	0.635643	-0.040873	-0.768442	-0.061516	166.993814	-79.093744	-175.335302
29810		9.683632	0.464142	-1.843068	0.030915	0.040250	0.055568	-0.010439	0.005341	0.006757	-0.989258	0.317871	0.302246	0.096836	0.004644	-0.018434	0.635649	-0.040918	-0.768434	-0.061519	167.008448	-79.095470	-175.353862
29811		9.664358	0.489700	-1.869674	0.063972	0.062696	0.042630	-0.013200	-0.000875	0.012763	-0.987061	0.322266	0.297607	0.096643	0.004902	-0.018697	0.635632	-0.040997	-0.768445	-0.061514	167.042327	-79.094211	-175.393780
29812		9.664851	0.440103	-1.873077	0.060113	0.014124	0.041634	-0.019663	0.002866	0.012261	-0.991455	0.317627	0.295654	0.096648	0.004405	-0.018733	0.635629	-0.041093	-0.768441	-0.061535	167.069285	-79.095258	-175.430273
29813		9.660397	0.412969	-1.850547	0.035429	-0.008327	0.031957	-0.018916	0.004750	0.015660	-0.989258	0.322266	0.299805	0.096603	0.004135	-0.018508	0.635634	-0.041194	-0.768431	-0.061540	167.104516	-79.097680	-175.474142
29814		9.660332	0.436131	-1.848309	0.036791	0.016141	0.032457	-0.013430	0.002983	0.015053	-0.989258	0.322021	0.297607	0.096603	0.004367	-0.018485	0.635633	-0.041281	-0.768427	-0.061528	167.143086	-79.099140	-175.518822
29815		9.703700	0.408391	-1.816499	-0.006288	-0.005914	0.068009	-0.012447	-0.000968	0.016089	-0.996094	0.324219	0.302002	0.097037	0.004091	-0.018165	0.635618	-0.041364	-0.768438	-0.061503	167.187537	-79.098353	-175.568034
29816		9.684462	0.433431	-1.843113	0.026815	0.016565	0.055075	-0.013438	0.004951	0.015126	-0.993652	0.317627	0.297852	0.096844	0.004340	-0.018434	0.635625	-0.041450	-0.768428	-0.061492	167.225034	-79.100910	-175.611626
29817		9.679792	0.430309	-1.818899	0.003862	0.018444	0.045891	-0.013636	0.000926	0.017126	-0.989014	0.313477	0.300049	0.096797	0.004310	-0.018190	0.635616	-0.041549	-0.768431	-0.061477	167.269814	-79.101298	-175.663238
29818		9.713250	0.456517	-1.859795	0.041120	0.039517	0.087374	-0.016218	0.002668	0.021275	-0.991211	0.315674	0.304443	0.097132	0.004574	-0.018600	0.635616	-0.041668	-0.768427	-0.061456	167.325094	-79.103342	-175.726561
29819		9.708776	0.428687	-1.837404	0.016409	0.017013	0.077692	-0.019335	0.002607	0.019878	-0.987061	0.320068	0.308838	0.097087	0.004295	-0.018376	0.635611	-0.041804	-0.768422	-0.061466	167.372532	-79.104840	-175.785865
29820		9.665685	0.453410	-1.868621	0.058709	0.039304	0.042149	-0.020949	0.004339	0.025208	-0.993652	0.319824	0.293213	0.096656	0.004544	-0.018689	0.635618	-0.041954	-0.768410	-0.061450	167.435488	-79.108287	-175.859765
29821		9.694928	0.404408	-1.890922	0.068177	-0.010905	0.072958	-0.020729	0.002445	0.022989	-0.991455	0.317871	0.304443	0.096949	0.004053	-0.018911	0.635614	-0.042097	-0.768405	-0.061445	167.492342	-79.110140	-175.927825
29822		9.637608	0.399454	-1.852361	0.041106	-0.007585	0.009356	-0.019342	0.004568	0.019952	-0.989258	0.317871	0.304443	0.096375	0.004002	-0.018526	0.635620	-0.042221	-0.768394	-0.061440	167.540854	-79.113036	-175.986077
29823		9.685805	0.373076	-1.844083	0.020537	-0.031480	0.054087	-0.011715	0.004836	0.019635	-0.986816	0.315674	0.304443	0.096857	0.003739	-0.018443	0.635625	-0.042329	-0.768385	-0.061419	167.591170	-79.115659	-176.043442
29824		9.685969	0.371349	-1.843573	0.020162	-0.031359	0.054088	-0.016226	0.004620	0.021348	-0.987061	0.322266	0.304443	0.096859	0.003722	-0.018438	0.635633	-0.042449	-0.768375	-0.061398	167.645555	-79.118736	-176.105856
29825		9.681302	0.368036	-1.819283	-0.002826	-0.029487	0.044897	-0.006771	0.003240	0.013556	-0.987305	0.328857	0.302002	0.096812	0.003686	-0.018195	0.635631	-0.042514	-0.768374	-0.061372	167.682516	-79.119683	-176.146042
29826		9.710026	0.392760	-1.836073	0.011870	-0.006615	0.077199	-0.011288	0.004996	0.015343	-0.991455	0.322266	0.302002	0.097100	0.003934	-0.018363	0.635639	-0.042595	-0.768365	-0.061352	167.722045	-79.122220	-176.190447
29827		9.662286	0.391972	-1.845243	0.029861	-0.006878	0.031976	-0.006771	0.003237	0.013555	-0.991455	0.322266	0.299805	0.096622	0.003926	-0.018454	0.635639	-0.042649	-0.768365	-0.061314	167.760144	-79.123304	-176.229931
29828		9.662407	0.391084	-1.844798	0.029487	-0.006757	0.031978	-0.009466	0.005318	0.007941	-0.984863	0.324463	0.304199	0.096623	0.003914	-0.018451	0.635646	-0.042696	-0.768357	-0.061310	167.778970	-79.125113	-176.252191
29829		9.667463	0.368027	-1.870056	0.049887	-0.032782	0.040679	-0.008279	0.003421	0.006902	-0.986816	0.317871	0.302246	0.096674	0.003683	-0.018702	0.635645	-0.042732	-0.768357	-0.061303	167.796279	-79.125465	-176.271920
29830		9.667549	0.367616	-1.869691	0.049513	-0.032660	0.040681	-0.008066	0.003504	0.004756	-0.987061	0.320068	0.300049	0.096675	0.003678	-0.018699	0.635644	-0.042762	-0.768355	-0.061303	167.807774	-79.125871	-176.285897
29831		9.686754	0.365338	-1.840647	0.017341	-0.030608	0.054096	-0.004522	0.003727	0.001862	-0.996094	0.324219	0.302002	0.096867	0.003654	-0.018408	0.635642	-0.042773	-0.768356	-0.061305	167.811453	-79.125778	-176.290574
29832		9.686575	0.414001	-1.836464	0.020411	0.018210	0.055087	0.001165	0.005987	-0.000740	-0.989258	0.324463	0.304199	0.096865	0.004140	-0.018368	0.635652	-0.042752	-0.768351	-0.061287	167.810651	-79.126909	-176.286643
29833		9.662982	0.365574	-1.844595	0.025758	-0.030577	0.031489	0.003324	0.002110	-0.000673	-0.993652	0.322266	0.302002	0.096630	0.003656	-0.018447	0.635645	-0.042727	-0.768360	-0.061263	167.813186	-79.125613	-176.285110
29834		9.672747	0.369577	-1.891548	0.070472	-0.034015	0.049891	0.001785	0.014120	-0.006877	-0.991455	0.317627	0.297852	0.096726	0.003693	-0.018922	0.635684	-0.042678	-0.768330	-0.061264	167.789714	-79.130555	-176.257733
29835		9.696814	0.394509	-1.883325	0.062577	-0.009405	0.072997	-0.004459	0.017948	-0.009524	-0.989258	0.324463	0.306396	0.096967	0.003940	-0.018842	0.635734	-0.042642	-0.768288	-0.061307	167.750945	-79.137140	-176.219473
29836		9.692449	0.369422	-1.859460	0.037939	-0.031852	0.063303	-0.007580	0.019861	-0.010847	-0.989258	0.324463	0.299805	0.096923	0.003688	-0.018604	0.635791	-0.042606	-0.768238	-0.061358	167.706811	-79.144806	-176.176523
29837		9.668716	0.395311	-1.860375	0.048443	-0.007580	0.041191	-0.009520	0.021847	-0.013135	-0.987061	0.320068	0.304443	0.096685	0.003946	-0.018615	0.635854	-0.042565	-0.768183	-0.061423	167.653424	-79.152990	-176.124999
29838		9.664205	0.394824	-1.834560	0.025525	-0.005682	0.031989	-0.003063	0.018101	-0.012633	-0.993652	0.319824	0.295654	0.096641	0.003942	-0.018354	0.635905	-0.042508	-0.768141	-0.061463	167.607659	-79.159439	-176.077755
29839		9.664428	0.396213	-1.833080	0.025115	-0.005602	0.031991	-0.002830	0.012273	-0.015004	-0.993652	0.322021	0.297607	0.096643	0.003955	-0.018337	0.635931	-0.042445	-0.768118	-0.061512	167.557590	-79.162103	-176.026661
29840		9.683667	0.395669	-1.803284	-0.007020	-0.003516	0.045392	0.007167	0.010724	-0.017318	-0.989258	0.320068	0.302246	0.096836	0.003949	-0.018038	0.635955	-0.042340	-0.768103	-0.061526	167.508676	-79.163830	-175.970243
29841		9.659672	0.421616	-1.805453	0.003503	0.020728	0.023279	0.011262	0.006832	-0.014886	-0.991455	0.319824	0.297852	0.096596	0.004210	-0.018058	0.635964	-0.042234	-0.768103	-0.061518	167.470748	-79.163463	-175.923030
29842		9.659933	0.398500	-1.806503	0.001414	-0.003501	0.022786	0.011249	0.010769	-0.014737	-0.989502	0.328613	0.297607	0.096599	0.003979	-0.018070	0.635990	-0.042126	-0.768088	-0.061508	167.431663	-79.165521	-175.874240
29843		9.664654	0.425898	-1.827992	0.025271	0.019190	0.032488	0.013431	0.000986	-0.014893	-0.989258	0.324219	0.297607	0.096647	0.004253	-0.018280	0.635978	-0.042006	-0.768107	-0.061482	167.399591	-79.161960	-175.830245
29844		9.698256	0.430639	-1.870636	0.060756	0.015961	0.073512	0.012450	0.004931	-0.015925	-0.987061	0.322266	0.302246	0.096982	0.004300	-0.018708	0.635981	-0.041891	-0.768112	-0.061469	167.361542	-79.160594	-175.781808
29845		9.664475	0.452677	-1.825596	0.026187	0.043776	0.032982	0.014390	0.002944	-0.013636	-0.984863	0.322266	0.302246	0.096645	0.004521	-0.018257	0.635976	-0.041773	-0.768124	-0.061437	167.332535	-79.158163	-175.740621
29846		9.664469	0.453691	-1.825376	0.025809	0.043897	0.032982	0.009878	0.002728	-0.011927	-0.991455	0.322266	0.304443	0.096645	0.004532	-0.018255	0.635971	-0.041683	-0.768135	-0.061421	167.306155	-79.156058	-175.705565
29847		9.688557	0.430105	-1.822248	0.014437	0.019848	0.055095	0.012034	0.000824	-0.011783	-0.993408	0.315430	0.300049	0.096886	0.004296	-0.018223	0.635957	-0.041586	-0.768153	-0.061396	167.282537	-79.152531	-175.672016
29848		9.683282	0.477709	-1.794888	-0.005068	0.070433	0.046866	0.006139	-0.003487	-0.007113	-0.993652	0.322021	0.297607	0.096833	0.004774	-0.017947	0.635929	-0.041527	-0.768181	-0.061378	167.272175	-79.147556	-175.655450
29849		9.693282	0.433147	-1.846451	0.036195	0.018272	0.064309	-0.000751	0.000089	-0.003327	-0.989258	0.324463	0.299805	0.096933	0.004330	-0.018465	0.635913	-0.041509	-0.768195	-0.061383	167.265043	-79.144877	-175.647244
29850		9.693222	0.433270	-1.846735	0.035817	0.018394	0.064311	0.007650	-0.005635	-0.000532	-0.991455	0.322021	0.297607	0.096933	0.004333	-0.018464	0.635879	-0.041472	-0.768229	-0.061337	167.276150	-79.139532	-175.651656
29851		9.664021	0.480431	-1.824336	0.025505	0.068780	0.033476	-0.000751	0.000089	-0.003327	-0.991455	0.317627	0.295654	0.096640	0.004803	-0.018243	0.635864	-0.041443	-0.768244	-0.061330	167.270333	-79.136862	-175.642919
29852		9.664369	0.431883	-1.828092	0.021721	0.020201	0.032494	0.002156	-0.001903	0.000144	-0.993652	0.319824	0.300049	0.096644	0.004319	-0.018280	0.635843	-0.041425	-0.768264	-0.061305	167.277802	-79.133688	-175.646832
29853		9.688419	0.407148	-1.825473	0.010393	-0.003888	0.054605	0.006253	-0.005790	0.002578	-0.991455	0.319824	0.297852	0.096885	0.004073	-0.018252	0.635808	-0.041407	-0.768297	-0.061260	167.295798	-79.128503	-175.659814
29854		9.669045	0.433243	-1.852925	0.043485	0.018633	0.041714	0.006468	-0.005709	0.000432	-0.989014	0.317627	0.297852	0.096691	0.004333	-0.018526	0.635774	-0.041378	-0.768330	-0.061217	167.309058	-79.123236	-175.667110
29855		9.645015	0.433192	-1.858345	0.052314	0.018522	0.019115	0.004104	-0.005857	0.002360	-0.991455	0.322266	0.304443	0.096451	0.004333	-0.018581	0.635739	-0.041364	-0.768364	-0.061179	167.325388	-79.117969	-175.679326
29856		9.697791	0.410145	-1.874938	0.054313	-0.007087	0.073048	0.005501	-0.005703	-0.000750	-0.989258	0.319824	0.295654	0.096978	0.004102	-0.018747	0.635704	-0.041333	-0.768397	-0.061143	167.334634	-79.112557	-175.683097
29857		9.668753	0.432729	-1.854568	0.042292	0.018927	0.041719	-0.003530	-0.004161	0.002744	-0.991455	0.322266	0.299805	0.096688	0.004328	-0.018544	0.635673	-0.041343	-0.768423	-0.061132	167.347130	-79.108222	-175.695525
29858		9.664359	0.357959	-1.836758	0.014287	-0.052245	0.031027	0.005938	-0.007511	-0.005115	-0.991455	0.322266	0.302002	0.096644	0.003578	-0.018364	0.635630	-0.041294	-0.768463	-0.061107	167.345115	-79.101252	-175.687574
29859		9.688140	0.357972	-1.832678	0.004641	-0.051957	0.053628	0.012169	-0.007393	-0.002317	-0.993652	0.319824	0.297852	0.096882	0.003580	-0.018323	0.635588	-0.041235	-0.768505	-0.061051	167.354197	-79.094466	-175.687277
29860		9.668529	0.409033	-1.858378	0.039427	-0.005079	0.041233	0.011838	-0.005174	-0.009862	-0.989258	0.320068	0.300049	0.096686	0.004087	-0.018581	0.635554	-0.041149	-0.768541	-0.061019	167.340282	-79.088206	-175.663764
29861		9.668375	0.409734	-1.859023	0.039025	-0.004996	0.041235	0.010664	-0.007218	-0.008971	-0.991455	0.317871	0.302246	0.096685	0.004094	-0.018587	0.635511	-0.041071	-0.768582	-0.060992	167.328532	-79.080747	-175.643517
29862		9.687325	0.408475	-1.830977	0.006876	-0.002934	0.054609	0.009690	-0.005242	-0.010080	-0.989258	0.324463	0.299805	0.096874	0.004081	-0.018307	0.635476	-0.040991	-0.768617	-0.060969	167.312844	-79.074419	-175.619450
29863		9.672295	0.486015	-1.878827	0.065845	0.066522	0.051932	0.006161	-0.009404	-0.007334	-0.991211	0.315430	0.297852	0.096724	0.004857	-0.018784	0.635424	-0.040933	-0.768665	-0.060952	167.305179	-79.065866	-175.605733
29864		9.715391	0.460127	-1.847684	0.022761	0.044421	0.087413	0.003981	-0.001590	-0.007258	-0.989258	0.322266	0.299805	0.097154	0.004598	-0.018476	0.635402	-0.040880	-0.768686	-0.060943	167.292044	-79.061934	-175.587598
29865		9.691291	0.460833	-1.853255	0.031595	0.044312	0.064816	-0.002846	-0.013772	-0.004057	-0.998047	0.315430	0.297852	0.096914	0.004606	-0.018526	0.635333	-0.040867	-0.768744	-0.060951	167.291003	-79.051425	-175.586185
29866		9.667183	0.461254	-1.858925	0.040456	0.044246	0.042220	-0.005462	-0.004148	0.000384	-0.989258	0.324463	0.299805	0.096672	0.004612	-0.018587	0.635302	-0.040874	-0.768769	-0.060954	167.296223	-79.047026	-175.592255
29867		9.643369	0.437201	-1.865933	0.047613	0.019786	0.019136	-0.009759	-0.004282	-0.000050	-0.987061	0.324463	0.299805	0.096434	0.004371	-0.018657	0.635269	-0.040896	-0.768793	-0.060978	167.296562	-79.042374	-175.596393
29868		9.691512	0.388319	-1.860497	0.025376	-0.028419	0.063354	0.001213	-0.007808	-0.001258	-0.991455	0.324219	0.299805	0.096916	0.003883	-0.018601	0.635225	-0.040877	-0.768832	-0.060960	167.303241	-79.035722	-175.600053
29869		9.691181	0.412832	-1.859343	0.026658	-0.003942	0.063843	0.003568	-0.005691	-0.003114	-0.989258	0.322021	0.297607	0.096912	0.004127	-0.018591	0.635189	-0.040834	-0.768866	-0.060931	167.304726	-79.029855	-175.595684
29870		9.657677	0.385324	-1.818902	-0.011227	-0.024871	0.022294	0.005938	-0.007515	-0.005116	-0.989258	0.320068	0.304443	0.096578	0.003851	-0.018185	0.635146	-0.040785	-0.768906	-0.060906	167.302795	-79.022881	-175.587815
29871		9.714404	0.461957	-1.852413	0.019989	0.045168	0.087415	0.005732	-0.009566	-0.003044	-0.991455	0.324463	0.302002	0.097145	0.004619	-0.018519	0.635094	-0.040743	-0.768953	-0.060875	167.307503	-79.014795	-175.586675
29872		9.661751	0.436295	-1.840840	0.013885	0.022307	0.032504	-0.000935	-0.007876	-0.001474	-0.989258	0.324463	0.299805	0.096618	0.004362	-0.018405	0.635050	-0.040731	-0.768992	-0.060865	167.312358	-79.008078	-175.589731
29873		9.671430	0.415812	-1.891047	0.056860	-0.005403	0.050489	0.001419	-0.005759	-0.003330	-0.989258	0.317871	0.300049	0.096715	0.004157	-0.018908	0.635012	-0.040695	-0.769026	-0.060847	167.311988	-79.002130	-175.584962
29874		9.637924	0.388224	-1.850689	0.018986	-0.026339	0.008937	-0.000927	-0.009848	-0.001548	-0.991455	0.322266	0.302002	0.096380	0.003881	-0.018502	0.634960	-0.040682	-0.769071	-0.060837	167.317907	-78.994301	-175.589097
29875		9.671294	0.391972	-1.894466	0.054393	-0.029542	0.050007	0.005937	-0.007517	-0.005117	-0.998047	0.315430	0.300049	0.096714	0.003918	-0.018941	0.634916	-0.040634	-0.769111	-0.060815	167.315108	-78.987120	-175.580614
29876		9.665940	0.439369	-1.867626	0.034844	0.021021	0.041744	0.010653	-0.005253	-0.008903	-0.991455	0.322266	0.299805	0.096660	0.004390	-0.018673	0.634881	-0.040555	-0.769146	-0.060784	167.303570	-78.980934	-175.560205
29877		9.670794	0.417359	-1.893957	0.055302	-0.005001	0.050498	0.005938	-0.007518	-0.005117	-0.991455	0.317871	0.302246	0.096709	0.004172	-0.018936	0.634837	-0.040512	-0.769187	-0.060768	167.300091	-78.973835	-175.551867
29878		9.684780	0.438406	-1.840264	0.002290	0.023132	0.055098	0.006143	-0.005467	-0.007190	-0.995850	0.315674	0.302246	0.096848	0.004381	-0.018400	0.634801	-0.040454	-0.769220	-0.060749	167.291052	-78.967744	-175.536636
29879		9.665681	0.416482	-1.871490	0.031983	-0.003087	0.041261	0.008095	-0.009423	-0.004974	-0.991455	0.320068	0.302246	0.096658	0.004163	-0.018710	0.634749	-0.040409	-0.769267	-0.060729	167.290153	-78.959487	-175.530503
29880		9.694008	0.442846	-1.889703	0.046559	0.019836	0.073582	0.005946	-0.009490	-0.005190	-0.991211	0.313477	0.304443	0.096941	0.004427	-0.018892	0.634699	-0.040361	-0.769314	-0.060704	167.289350	-78.951399	-175.523777
29881		9.669882	0.443516	-1.895343	0.055390	0.019713	0.050993	0.004002	-0.007507	-0.007479	-0.991455	0.320068	0.302246	0.096700	0.004432	-0.018950	0.634652	-0.040318	-0.769354	-0.060706	167.277963	-78.943839	-175.509124
29882		9.664959	0.442206	-1.872029	0.032482	0.021569	0.041750	-0.000738	-0.003858	-0.003473	-0.989014	0.315674	0.300049	0.096650	0.004420	-0.018718	0.634622	-0.040296	-0.769380	-0.060702	167.274621	-78.939115	-175.503714
29883		9.664868	0.442647	-1.872394	0.032074	0.021643	0.041752	-0.007184	-0.004059	-0.004120	-0.991455	0.317871	0.302246	0.096649	0.004424	-0.018722	0.634589	-0.040295	-0.769406	-0.060732	167.264542	-78.933997	-175.495981
29884		9.669525	0.444999	-1.896816	0.054225	0.020032	0.050999	-0.007167	-0.008003	-0.004266	-0.987061	0.320068	0.300049	0.096696	0.004447	-0.018964	0.634541	-0.040291	-0.769443	-0.060755	167.257940	-78.926857	-175.491001
29885		9.659818	0.441907	-1.849624	0.008759	0.023583	0.032507	-0.010513	-0.004201	-0.003370	-0.991455	0.320068	0.300049	0.096599	0.004416	-0.018494	0.634507	-0.040300	-0.769468	-0.060791	167.248565	-78.921760	-175.485372
29886		9.688844	0.395285	-1.872882	0.018309	-0.026545	0.063374	-0.005231	-0.008015	-0.001904	-0.989258	0.320068	0.302246	0.096889	0.003951	-0.018725	0.634461	-0.040300	-0.769506	-0.060799	167.249830	-78.914911	-175.487278
29887		9.664546	0.420224	-1.876512	0.028836	-0.002286	0.041271	-0.005995	-0.005959	-0.005158	-0.987061	0.322266	0.302246	0.096646	0.004199	-0.018762	0.634421	-0.040287	-0.769538	-0.060822	167.239267	-78.908634	-175.477554
29888		9.669156	0.422666	-1.901126	0.050987	-0.003893	0.050522	-0.002648	-0.009761	-0.006054	-0.991455	0.324219	0.299805	0.096693	0.004223	-0.019007	0.634367	-0.040262	-0.769582	-0.060833	167.231320	-78.900284	-175.468566
29889		9.668811	0.447470	-1.899871	0.052254	0.020583	0.051008	0.001402	-0.001819	-0.003185	-0.987061	0.322266	0.304443	0.096688	0.004473	-0.018998	0.634345	-0.040225	-0.769604	-0.060813	167.228830	-78.896597	-175.461479
29890		9.668906	0.423349	-1.902248	0.050209	-0.003646	0.050526	-0.000924	-0.009853	-0.001547	-0.991455	0.317871	0.304443	0.096690	0.004233	-0.019018	0.634293	-0.040212	-0.769648	-0.060803	167.234771	-78.888766	-175.465637
29891		9.687708	0.446088	-1.872439	0.019659	0.022715	0.064347	-0.003855	-0.003921	-0.004869	-0.993408	0.313477	0.304443	0.096878	0.004458	-0.018723	0.634260	-0.040195	-0.769675	-0.060819	167.225177	-78.883538	-175.455941
29892		9.663661	0.446573	-1.877682	0.028545	0.022651	0.041760	-0.004271	-0.006051	-0.000650	-0.991455	0.320068	0.302246	0.096637	0.004465	-0.018774	0.634222	-0.040196	-0.769707	-0.060820	167.229298	-78.877945	-175.460199
29893		9.691847	0.497043	-1.893618	0.044723	0.069880	0.074569	-0.008789	-0.004295	0.001139	-0.989258	0.317871	0.304443	0.096919	0.004970	-0.018934	0.634188	-0.040225	-0.769731	-0.060843	167.233101	-78.873329	-175.468367
29894		9.658917	0.420489	-1.856570	0.003565	0.000205	0.032024	-0.011141	-0.006415	0.002996	-0.987061	0.320068	0.304443	0.096590	0.004205	-0.018563	0.634148	-0.040261	-0.769761	-0.060859	167.243868	-78.867994	-175.483410
29895		9.644209	0.448716	-1.907743	0.059121	0.021021	0.028433	-0.011906	-0.004358	-0.000257	-0.989258	0.320068	0.302246	0.096443	0.004486	-0.019076	0.634113	-0.040288	-0.769786	-0.060891	167.242887	-78.863105	-175.487306
29896		9.663519	0.422444	-1.881293	0.025289	-0.001303	0.041281	-0.012330	-0.004519	0.004035	-0.984863	0.322266	0.302246	0.096636	0.004225	-0.018811	0.634081	-0.040332	-0.769809	-0.060909	167.254686	-78.858961	-175.504096
29897		9.658643	0.420501	-1.857994	0.002355	0.000530	0.032024	-0.007804	-0.008247	0.002172	-0.991455	0.317871	0.302246	0.096587	0.004205	-0.018576	0.634033	-0.040348	-0.769847	-0.060909	167.265993	-78.852308	-175.516829
29898		9.668122	0.424260	-1.906023	0.047028	-0.002787	0.050542	-0.005274	0.001842	-0.001536	-0.993652	0.315674	0.302246	0.096681	0.004241	-0.019061	0.634025	-0.040346	-0.769853	-0.060918	167.261938	-78.851014	-175.513340
29899		9.692023	0.424234	-1.901437	0.037358	-0.002541	0.073128	-0.009961	-0.006344	0.002030	-0.989258	0.320068	0.300049	0.096921	0.004242	-0.019012	0.633984	-0.040382	-0.769883	-0.060942	167.268806	-78.845438	-175.525074
29900		9.667558	0.473091	-1.903018	0.049568	0.046103	0.051510	-0.012118	-0.004441	0.001889	-0.991455	0.317871	0.302246	0.096676	0.004731	-0.019028	0.633952	-0.040416	-0.769906	-0.060965	167.274560	-78.841065	-175.535579
29901		9.662946	0.447011	-1.881254	0.024992	0.023553	0.041768	-0.016424	-0.002606	0.001534	-0.986816	0.315674	0.308838	0.096630	0.004469	-0.018812	0.633924	-0.040461	-0.769923	-0.061008	167.274615	-78.837562	-175.542858
29902		9.672456	0.450820	-1.929084	0.069661	0.020245	0.060293	-0.020942	-0.000853	0.003325	-0.995850	0.317627	0.300049	0.096725	0.004508	-0.019291	0.633904	-0.040528	-0.769932	-0.061061	167.277075	-78.835376	-175.555160
29903		9.696836	0.402216	-1.927894	0.056660	-0.028212	0.081916	-0.031695	0.000773	0.002326	-0.989258	0.317871	0.306641	0.096968	0.004020	-0.019280	0.633885	-0.040633	-0.769933	-0.061170	167.267891	-78.833728	-175.563381
29904		9.658426	0.421485	-1.858896	-0.000356	0.001222	0.032024	-0.029555	0.002810	0.002615	-0.982422	0.320068	0.304443	0.096584	0.004213	-0.018591	0.633877	-0.040723	-0.769928	-0.061260	167.261061	-78.833499	-175.571244
29905		9.687174	0.423699	-1.877690	0.012461	-0.000207	0.063872	-0.029123	0.000997	-0.001752	-0.995850	0.317871	0.304443	0.096872	0.004233	-0.018778	0.633859	-0.040795	-0.769931	-0.061362	167.242785	-78.831389	-175.567202
29906		9.644302	0.402104	-1.912657	0.051507	-0.026517	0.027493	-0.018388	0.003313	-0.000603	-0.991455	0.322266	0.299805	0.096443	0.004019	-0.019129	0.633854	-0.040838	-0.769928	-0.061419	167.232924	-78.831035	-175.565452
29907		9.696608	0.452874	-1.922749	0.058390	0.020934	0.082888	-0.030320	0.004860	-0.000636	-0.987061	0.320068	0.308838	0.096966	0.004526	-0.019231	0.633852	-0.040917	-0.769917	-0.061524	167.214131	-78.831459	-175.561765
29908		9.696980	0.429372	-1.923630	0.056360	-0.003295	0.082409	-0.052055	0.011961	-0.000337	-0.991455	0.320068	0.302246	0.096969	0.004289	-0.019243	0.633874	-0.041065	-0.769876	-0.061712	167.180171	-78.835969	-175.555113
29909		9.654790	0.350095	-1.837327	-0.029818	-0.069599	0.021313	-0.047325	0.010284	-0.004275	-0.986816	0.313477	0.306885	0.096547	0.003495	-0.018379	0.633887	-0.041182	-0.769845	-0.061894	167.138374	-78.838781	-175.537730
29910		9.659849	0.338725	-1.986232	0.112567	-0.104261	0.053872	-0.032810	0.007001	-0.008394	-0.993652	0.322266	0.306641	0.096598	0.003380	-0.019866	0.633890	-0.041239	-0.769827	-0.062032	167.095805	-78.839490	-175.511065
29911		9.673744	0.409463	-1.926901	0.062764	-0.027515	0.059356	-0.033381	0.013085	-0.013635	-0.991455	0.317871	0.308838	0.096736	0.004085	-0.019276	0.633914	-0.041280	-0.769793	-0.062196	167.033153	-78.842610	-175.465222
29912		9.664117	0.432053	-1.876036	0.018994	0.000376	0.041295	-0.031970	0.009298	-0.016901	-0.991211	0.315674	0.300049	0.096641	0.004309	-0.018766	0.633924	-0.041301	-0.769770	-0.062358	166.965467	-78.843494	-175.412466
29913		9.650085	0.413973	-1.929342	0.071262	-0.027495	0.036782	-0.031979	0.011264	-0.016824	-0.986816	0.315674	0.306641	0.096500	0.004129	-0.019300	0.633940	-0.041326	-0.769742	-0.062527	166.895426	-78.845266	-175.358226
29914		9.645206	0.438941	-1.902313	0.050012	-0.001312	0.027991	-0.033491	0.011439	-0.023477	-0.989258	0.320068	0.306641	0.096451	0.004375	-0.019029	0.633956	-0.041326	-0.769713	-0.062716	166.806821	-78.846462	-175.285036
29915		9.669462	0.417268	-1.898411	0.038652	-0.025379	0.050093	-0.030355	0.007556	-0.022238	-0.989014	0.315674	0.306641	0.096694	0.004159	-0.018988	0.633956	-0.041322	-0.769699	-0.062891	166.725625	-78.845314	-175.217767
29916		9.659692	0.440489	-1.847880	-0.005118	0.002504	0.032023	-0.021335	0.008014	-0.025665	-0.991211	0.313477	0.304443	0.096597	0.004391	-0.018483	0.633960	-0.041276	-0.769686	-0.063039	166.640081	-78.844270	-175.140599
29917		9.669529	0.423106	-1.896776	0.037856	-0.025181	0.050096	-0.016602	0.006355	-0.029603	-0.987061	0.322266	0.304443	0.096695	0.004215	-0.018971	0.633956	-0.041206	-0.769681	-0.063190	166.545927	-78.841481	-175.053068
29918		9.668757	0.499184	-1.890217	0.042407	0.048005	0.051534	-0.016815	0.006266	-0.027458	-0.991211	0.313477	0.306885	0.096688	0.004977	-0.018906	0.633954	-0.041139	-0.769675	-0.063327	166.459142	-78.839176	-174.971994
29919		9.674057	0.455430	-1.917313	0.061219	-0.002291	0.059857	-0.017996	0.006181	-0.026493	-0.993652	0.315674	0.304443	0.096741	0.004540	-0.019177	0.633951	-0.041077	-0.769670	-0.063463	166.374258	-78.836671	-174.893250
29920		9.645308	0.456429	-1.897671	0.047613	-0.000649	0.028003	-0.007029	0.004666	-0.027636	-0.993408	0.313477	0.311279	0.096453	0.004550	-0.018979	0.633945	-0.040979	-0.769672	-0.063563	166.293747	-78.833405	-174.812854
29921		9.669259	0.459234	-1.892100	0.037892	-0.000390	0.050582	-0.008998	0.010585	-0.029760	-0.991455	0.317871	0.306641	0.096692	0.004577	-0.018926	0.633958	-0.040887	-0.769656	-0.063688	166.200840	-78.832789	-174.722618
29922		9.669879	0.413457	-1.895076	0.034236	-0.048975	0.049627	-0.004903	0.008677	-0.027261	-0.993652	0.317871	0.306641	0.096699	0.004121	-0.018955	0.633968	-0.040782	-0.769646	-0.063779	166.119891	-78.831759	-174.640533
29923		9.640626	0.463168	-1.871120	0.023867	0.001362	0.018727	-0.001159	0.010970	-0.032221	-0.991211	0.315674	0.304443	0.096406	0.004616	-0.018717	0.633984	-0.040645	-0.769632	-0.063871	166.025351	-78.831032	-174.542373
29924		9.664921	0.441772	-1.867226	0.012559	-0.022688	0.040826	0.001958	0.011038	-0.030823	-0.991455	0.317871	0.302246	0.096649	0.004403	-0.018678	0.634003	-0.040504	-0.769617	-0.063947	165.936672	-78.830770	-174.448402
29925		9.669751	0.446754	-1.890212	0.034674	-0.024270	0.050110	0.006493	0.007329	-0.032694	-0.986816	0.313477	0.302246	0.096698	0.004452	-0.018906	0.634008	-0.040338	-0.769617	-0.064008	165.847706	-78.828010	-174.350826
29926		9.669448	0.474060	-1.887472	0.035931	0.000208	0.050589	0.010777	0.009449	-0.032181	-0.989014	0.315674	0.302246	0.096694	0.004726	-0.018879	0.634022	-0.040165	-0.769610	-0.064054	165.761426	-78.826619	-174.254148
29927		9.598335	0.428522	-1.904881	0.060149	-0.048936	-0.018086	0.020753	0.011888	-0.034343	-0.991211	0.311279	0.302490	0.095983	0.004271	-0.019054	0.634047	-0.039944	-0.769600	-0.064064	165.672724	-78.826090	-174.148302
29928		9.618650	0.366407	-2.005018	0.144938	-0.128641	0.017634	0.035238	0.014561	-0.038217	-0.989014	0.315674	0.306641	0.096186	0.003649	-0.020057	0.634084	-0.039668	-0.769586	-0.064036	165.579850	-78.826619	-174.030616
29929		9.676648	0.348909	-2.043659	0.169326	-0.155909	0.080887	0.055202	0.017462	-0.042620	-0.993408	0.309082	0.302490	0.096765	0.003474	-0.020444	0.634133	-0.039311	-0.769572	-0.063947	165.483375	-78.827831	-173.897696
29930		9.785235	0.469662	-1.960089	0.085581	-0.029721	0.177565	0.055544	0.029424	-0.046442	-0.991211	0.313477	0.302246	0.097851	0.004679	-0.019614	0.634228	-0.038934	-0.769519	-0.063870	165.368115	-78.835336	-173.745336
29931		9.816765	0.613219	-1.864919	0.008805	0.121918	0.197701	0.042253	0.024833	-0.043614	-0.991211	0.311279	0.304688	0.098167	0.006115	-0.018660	0.634303	-0.038615	-0.769476	-0.063839	165.255213	-78.840456	-173.603820
29932		9.702324	0.584677	-1.788569	-0.046068	0.103710	0.069774	0.015830	0.023643	-0.039793	-0.995605	0.311035	0.300293	0.097022	0.005829	-0.017897	0.634371	-0.038391	-0.769427	-0.063893	165.139855	-78.845615	-173.474558
29933		9.585554	0.418038	-1.824037	-0.011374	-0.067602	-0.046418	0.017241	0.021821	-0.042981	-0.995605	0.313477	0.302246	0.095854	0.004161	-0.018250	0.634429	-0.038155	-0.769385	-0.063956	165.016501	-78.849025	-173.337098
29934		9.571126	0.450560	-1.872461	0.044209	-0.046680	-0.049929	0.021612	0.026295	-0.054301	-0.995605	0.313477	0.304443	0.095710	0.004482	-0.018737	0.634503	-0.037857	-0.769333	-0.064034	164.861509	-78.853378	-173.164068
29935		9.605554	0.435496	-1.913823	0.077894	-0.074122	-0.009245	0.019407	0.046275	-0.065665	-0.988770	0.309082	0.304688	0.096053	0.004325	-0.019160	0.634648	-0.037517	-0.769219	-0.064162	164.657424	-78.866729	-172.942557
29936		9.612820	0.347363	-1.940192	0.093530	-0.173104	-0.001847	0.001142	0.060069	-0.089744	-0.989014	0.315674	0.302246	0.096124	0.003431	-0.019431	0.634837	-0.037136	-0.769059	-0.064438	164.364363	-78.884057	-172.640781
29937		9.640520	0.211527	-1.939827	0.074049	-0.318926	0.017881	-0.004627	0.082400	-0.119825	-0.990967	0.306885	0.304688	0.096398	0.002057	-0.019438	0.635098	-0.036646	-0.768833	-0.064830	163.965031	-78.908294	-172.233303
29938		9.595714	0.151665	-1.946193	0.087425	-0.392231	-0.028675	-0.003324	0.107098	-0.155611	-0.995605	0.308838	0.295898	0.095948	0.001442	-0.019513	0.635445	-0.036011	-0.768534	-0.065340	163.443188	-78.940074	-171.701060
29939		9.567816	0.027773	-2.027976	0.163434	-0.543666	-0.048762	0.036447	0.121626	-0.195486	-0.997803	0.306641	0.295898	0.095666	0.000188	-0.020338	0.635839	-0.035092	-0.768209	-0.065828	162.816144	-78.971893	-171.038604
29940		9.535353	0.091832	-1.969314	0.130604	-0.491652	-0.088966	0.077430	0.134165	-0.236385	-0.997559	0.302246	0.295898	0.095341	0.000813	-0.019757	0.636275	-0.033881	-0.767862	-0.066290	162.083295	-79.002259	-170.244375
29941		9.556739	0.481168	-1.947356	0.167727	-0.127720	-0.049979	0.098592	0.139420	-0.263311	-0.995361	0.304443	0.293701	0.095560	0.004695	-0.019538	0.636724	-0.032497	-0.767509	-0.066757	161.277527	-79.028424	-169.363692
29942		9.627965	0.692995	-1.804073	0.053022	0.074679	0.006894	0.074852	0.145884	-0.265522	-1.001953	0.297852	0.291748	0.096276	0.006809	-0.018108	0.637193	-0.031179	-0.767125	-0.067323	160.442323	-79.055438	-168.466858
29943		9.689646	0.795240	-1.496265	-0.235094	0.191551	0.019323	0.041841	0.137969	-0.260594	-1.004150	0.295654	0.291748	0.096896	0.007829	-0.015028	0.637626	-0.029983	-0.766754	-0.067995	159.605931	-79.076495	-167.587594
29944		9.760193	0.992688	-1.479978	-0.229592	0.361011	0.099630	0.035819	0.119241	-0.242416	-0.999512	0.291260	0.293945	0.097605	0.009811	-0.014856	0.637991	-0.028886	-0.766435	-0.068632	158.833593	-79.089043	-166.777685
29945		9.760062	1.138115	-1.484077	-0.199447	0.481188	0.111285	0.048531	0.109203	-0.217581	-1.001709	0.293457	0.289551	0.097605	0.011279	-0.014891	0.638325	-0.027854	-0.766149	-0.069148	158.145815	-79.099160	-166.047649
29946		9.616486	1.095226	-1.385218	-0.269068	0.440055	-0.049026	0.081456	0.094048	-0.177761	-0.999512	0.291260	0.289551	0.096168	0.010872	-0.013893	0.638621	-0.026868	-0.765915	-0.069400	157.603249	-79.108684	-165.445159
29947		9.648772	1.015078	-1.404068	-0.262786	0.341233	-0.019063	0.109731	0.069280	-0.153987	-1.001709	0.293457	0.287354	0.096491	0.010084	-0.014069	0.638832	-0.025888	-0.765767	-0.069462	157.170159	-79.109100	-164.937191
29948		9.684383	0.982293	-1.445440	-0.230712	0.289458	0.021154	0.144376	0.050579	-0.119508	-1.001465	0.284668	0.291992	0.096846	0.009776	-0.014472	0.638988	-0.024939	-0.765684	-0.069281	156.872963	-79.107027	-164.547869
29949		9.750238	0.856772	-1.614150	-0.092610	0.131894	0.106017	0.227695	0.043950	-0.075008	-1.003906	0.288818	0.282959	0.097502	0.008550	-0.016153	0.639142	-0.023898	-0.765647	-0.068641	156.753259	-79.110847	-164.290889
29950		9.685524	0.709166	-1.637057	-0.074727	-0.014672	0.035483	0.346623	0.054636	-0.031478	-0.999512	0.291260	0.285156	0.096852	0.007105	-0.016385	0.639366	-0.022638	-0.765607	-0.067404	156.807941	-79.130486	-164.141901
29951		9.611390	0.842895	-1.541006	-0.136888	0.137887	-0.044052	0.400079	0.044586	-0.011980	-1.010498	0.286621	0.280762	0.096111	0.008454	-0.015415	0.639562	-0.021280	-0.765614	-0.065895	156.958782	-79.149051	-164.058777
29952		9.639736	0.998908	-1.348195	-0.311528	0.320694	-0.038227	0.376228	0.034881	-0.000758	-1.001465	0.288818	0.278564	0.096395	0.010014	-0.013480	0.639720	-0.020050	-0.765639	-0.064445	157.138067	-79.165262	-164.019406
29953		9.674424	0.874655	-1.375235	-0.306801	0.197466	-0.008726	0.320003	0.000447	0.002980	-1.006104	0.293213	0.280762	0.096744	0.008770	-0.013739	0.639739	-0.019029	-0.765753	-0.063202	157.334068	-79.163938	-164.030855
29954		9.614231	0.778078	-1.548077	-0.141303	0.089421	-0.045015	0.293951	-0.028566	0.008012	-1.003906	0.295654	0.285156	0.096144	0.007807	-0.015456	0.639645	-0.018116	-0.765949	-0.062032	157.563815	-79.148555	-164.090861
29955		9.602319	0.726147	-1.609259	-0.090636	0.037292	-0.049904	0.273663	-0.049372	0.008508	-1.003662	0.286621	0.274170	0.096027	0.007288	-0.016059	0.639466	-0.017277	-0.766206	-0.060938	157.806823	-79.121843	-164.176363
29956		9.584902	0.673096	-1.647909	-0.062409	-0.013165	-0.064101	0.264888	-0.063729	0.001755	-1.008545	0.299805	0.276123	0.095854	0.006754	-0.016440	0.639230	-0.016443	-0.766503	-0.059896	158.041044	-79.086350	-164.257893
29957		9.609788	0.551623	-1.756323	0.019205	-0.141544	-0.029202	0.306467	-0.058457	-0.002364	-1.001953	0.297607	0.280518	0.096103	0.005542	-0.017527	0.639016	-0.015458	-0.766794	-0.058709	158.279663	-79.052676	-164.319684
29958		9.568366	0.758695	-1.611661	-0.101776	0.087743	-0.080852	0.326412	-0.056121	-0.006709	-1.001709	0.293213	0.280762	0.095688	0.007610	-0.016077	0.638809	-0.014393	-0.767082	-0.057459	158.515548	-79.019323	-164.367022
29959		9.642281	0.753462	-1.504346	-0.229552	0.095177	-0.027874	0.286779	-0.075679	-0.008096	-1.004150	0.299805	0.280518	0.096429	0.007552	-0.014996	0.638520	-0.013457	-0.767421	-0.056367	158.744928	-78.974840	-164.431248
29960		9.681288	0.800215	-1.479286	-0.267900	0.145997	0.008864	0.243982	-0.105056	-0.018653	-1.001709	0.297607	0.276123	0.096821	0.008011	-0.014732	0.638113	-0.012623	-0.767839	-0.055467	158.950958	-78.912799	-164.496302
29961		9.732103	0.801418	-1.506576	-0.264484	0.144772	0.063291	0.212053	-0.137897	-0.018305	-0.999756	0.299805	0.278320	0.097332	0.008021	-0.014990	0.637576	-0.011899	-0.768352	-0.054684	159.172313	-78.833011	-164.595160
29962		9.677380	0.702717	-1.613013	-0.175784	0.041925	0.021672	0.195413	-0.172156	-0.018497	-0.997314	0.297607	0.280518	0.096788	0.007034	-0.016040	0.636906	-0.011239	-0.768968	-0.053966	159.416115	-78.734945	-164.727127
29963		9.660325	0.702354	-1.684799	-0.121878	0.038519	0.017743	0.206065	-0.191771	-0.023162	-0.999512	0.297607	0.280518	0.096620	0.007030	-0.016748	0.636158	-0.010527	-0.769649	-0.053216	159.669991	-78.625085	-164.862348
29964		9.627644	0.727003	-1.809897	-0.011996	0.055991	0.010371	0.199542	-0.198213	-0.021773	-0.999756	0.297852	0.291748	0.096295	0.007278	-0.017996	0.635385	-0.009849	-0.770347	-0.052491	159.926172	-78.512138	-165.004632
29965		9.606974	0.676673	-1.860809	0.016177	0.005513	-0.003808	0.187810	-0.206803	-0.022018	-1.001709	0.293457	0.285156	0.096090	0.006774	-0.018502	0.634573	-0.009214	-0.771068	-0.051818	160.179040	-78.393932	-165.151370
29966		9.565707	0.647619	-1.815569	-0.043988	-0.013958	-0.054804	0.172358	-0.207596	-0.019252	-0.997314	0.295654	0.287354	0.095676	0.006483	-0.018051	0.633761	-0.008634	-0.771785	-0.051189	160.427313	-78.276165	-165.301601
29967		9.583867	0.791987	-1.728083	-0.143522	0.139180	-0.044165	0.164202	-0.208189	-0.024417	-0.995361	0.304443	0.291504	0.095858	0.007922	-0.017175	0.632941	-0.008069	-0.772501	-0.050621	160.652434	-78.156608	-165.434851
29968		9.601895	0.622547	-1.825345	-0.087578	-0.036189	-0.019485	0.172729	-0.223989	-0.019447	-1.002197	0.306641	0.289307	0.096040	0.006232	-0.018141	0.632063	-0.007491	-0.773267	-0.049990	160.907356	-78.029687	-165.591791
29969		9.560072	0.595699	-1.906551	-0.025932	-0.064068	-0.046422	0.196548	-0.241371	-0.015177	-0.997559	0.300049	0.293701	0.095624	0.005968	-0.018944	0.631116	-0.006850	-0.774093	-0.049243	161.198855	-77.893779	-165.770649
29970		9.543805	0.641171	-1.882484	-0.068137	-0.011953	-0.064137	0.210444	-0.249365	-0.022614	-0.990967	0.302246	0.289307	0.095462	0.006421	-0.018699	0.630137	-0.006147	-0.774945	-0.048475	161.479721	-77.752192	-165.932183
29971		9.590170	0.764064	-1.945529	-0.034272	0.106978	0.001973	0.216646	-0.265413	-0.015692	-0.995361	0.300049	0.298340	0.095928	0.007654	-0.019320	0.629095	-0.005449	-0.775847	-0.047657	161.789447	-77.602765	-166.118891
29972		9.649606	0.789604	-2.059226	0.038250	0.125190	0.084867	0.206239	-0.264121	-0.009077	-0.995361	0.302246	0.300293	0.096523	0.007913	-0.020457	0.628059	-0.004816	-0.776739	-0.046862	162.102469	-77.455191	-166.316006
29973		9.735942	0.840379	-2.192023	0.125450	0.166266	0.200121	0.171632	-0.255469	-0.000283	-0.999756	0.297852	0.300537	0.097387	0.008422	-0.021789	0.627052	-0.004327	-0.777595	-0.046179	162.404228	-77.313231	-166.522757
29974		9.676164	0.639271	-2.280655	0.185354	-0.032310	0.147371	0.139574	-0.246700	0.004446	-0.995117	0.295898	0.302734	0.096790	0.006411	-0.022683	0.626082	-0.003951	-0.778413	-0.045601	162.687223	-77.177066	-166.728467
29975		9.616045	0.536357	-2.390500	0.274086	-0.135220	0.105833	0.127730	-0.233470	0.000211	-0.997559	0.298096	0.307129	0.096188	0.005379	-0.023789	0.625158	-0.003607	-0.779186	-0.045102	162.936066	-77.046853	-166.909043
29976		9.575627	0.434254	-2.469925	0.331027	-0.236183	0.077527	0.140549	-0.213557	-0.002888	-0.993164	0.304688	0.306885	0.095783	0.004358	-0.024594	0.624313	-0.003192	-0.779897	-0.044544	163.168940	-76.927231	-167.062949
29977		9.611937	0.482326	-2.458096	0.292565	-0.185424	0.114255	0.132807	-0.210226	-0.014387	-0.992920	0.298096	0.309326	0.096145	0.004833	-0.024477	0.623474	-0.002765	-0.780597	-0.044063	163.363478	-76.807002	-167.183836
29978		9.623615	0.457520	-2.426395	0.236246	-0.206201	0.117687	0.118883	-0.203126	-0.030727	-0.988525	0.300293	0.304932	0.096261	0.004575	-0.024163	0.622661	-0.002307	-0.781269	-0.043676	163.505591	-76.688332	-167.257403
29979		9.595192	0.530475	-2.474141	0.272423	-0.134921	0.105883	0.105420	-0.197855	-0.039440	-0.990967	0.302490	0.307129	0.095977	0.005299	-0.024644	0.621863	-0.001861	-0.781921	-0.043378	163.612730	-76.570816	-167.304367
29980		9.621893	0.631692	-2.560538	0.336524	-0.042131	0.158329	0.069530	-0.177022	-0.043476	-0.993164	0.300293	0.311523	0.096243	0.006305	-0.025518	0.621147	-0.001501	-0.782500	-0.043224	163.676681	-76.464379	-167.326705
29981		9.688370	0.662690	-2.564609	0.309657	-0.017193	0.226470	0.031565	-0.152215	-0.049811	-0.990967	0.302490	0.315918	0.096905	0.006607	-0.025571	0.620525	-0.001230	-0.782992	-0.043244	163.686131	-76.370411	-167.316023
29982		9.614165	0.542028	-2.566229	0.306883	-0.137748	0.147148	0.005987	-0.125180	-0.062672	-0.986572	0.304688	0.313721	0.096159	0.005391	-0.025602	0.620007	-0.000981	-0.783395	-0.043398	163.635491	-76.289382	-167.257916
29983		9.618345	0.475736	-2.601557	0.324183	-0.212353	0.155100	-0.002037	-0.105706	-0.076269	-0.992920	0.298096	0.315918	0.096199	0.004720	-0.025965	0.619559	-0.000697	-0.783736	-0.043625	163.537683	-76.216512	-167.155769
29984		9.668195	0.315737	-2.578942	0.271521	-0.380753	0.187609	0.000467	-0.082172	-0.100905	-0.988770	0.300537	0.318115	0.096694	0.003109	-0.025750	0.619200	-0.000306	-0.784004	-0.043919	163.371752	-76.152818	-166.982157
29985		9.661933	0.326891	-2.562253	0.248580	-0.379057	0.178282	0.014063	-0.070660	-0.138757	-0.990967	0.300537	0.320313	0.096631	0.003204	-0.025588	0.618875	0.000274	-0.784240	-0.044286	163.122591	-76.088682	-166.715857
29986		9.815410	0.593993	-2.540891	0.198536	-0.134135	0.340824	0.002943	-0.059616	-0.165610	-0.988525	0.293945	0.322754	0.098167	0.005859	-0.025380	0.618590	0.000931	-0.784437	-0.044771	162.803858	-76.026129	-166.383248
29987		9.893846	0.762472	-2.480950	0.125109	0.016059	0.415153	-0.026730	-0.024910	-0.185212	-0.990479	0.291504	0.316162	0.098949	0.007530	-0.024798	0.618431	0.001574	-0.784523	-0.045442	162.403765	-75.978090	-165.985635
29988		9.774682	0.654123	-2.477433	0.141075	-0.104853	0.290729	-0.072371	-0.000765	-0.205033	-0.992920	0.293945	0.320557	0.097754	0.006432	-0.024776	0.618367	0.002167	-0.784519	-0.046343	161.920489	-75.939601	-165.527753
29989		9.643609	0.621152	-2.571603	0.261085	-0.159470	0.182538	-0.106066	0.021601	-0.224980	-0.995117	0.291504	0.316162	0.096440	0.006089	-0.025730	0.618383	0.002735	-0.784439	-0.047445	161.360110	-75.908346	-165.011082
29990		9.593929	0.594881	-2.551596	0.253749	-0.206782	0.127172	-0.126709	0.044221	-0.246039	-0.994873	0.287109	0.318359	0.095941	0.005815	-0.025541	0.618484	0.003331	-0.784280	-0.048686	160.729053	-75.884443	-164.432803
29991		9.533022	0.569532	-2.457839	0.178918	-0.249228	0.043765	-0.129565	0.053267	-0.267896	-1.001465	0.280518	0.316406	0.095331	0.005552	-0.024607	0.618614	0.004007	-0.784092	-0.050009	160.043994	-75.859443	-163.800695
29992		9.581187	0.724121	-2.342862	0.068356	-0.120263	0.076361	-0.128920	0.056329	-0.290586	-0.994873	0.282959	0.320801	0.095816	0.007087	-0.023460	0.618749	0.004774	-0.783891	-0.051396	159.311772	-75.829827	-163.119258
29993		9.569092	0.803155	-2.288041	0.026085	-0.068235	0.058599	-0.134759	0.053479	-0.297594	-1.001465	0.278320	0.320801	0.095697	0.007874	-0.022911	0.618867	0.005543	-0.783697	-0.052836	158.565607	-75.794794	-162.428088
29994		9.497490	0.806102	-2.293832	0.052189	-0.093008	-0.009509	-0.148800	0.054080	-0.311748	-0.999023	0.276123	0.312012	0.094981	0.007896	-0.022970	0.618985	0.006331	-0.783493	-0.054367	157.786141	-75.755116	-161.709454
29995		9.458363	0.860598	-2.219205	-0.004760	-0.063847	-0.059640	-0.160746	0.046785	-0.321471	-1.005615	0.269531	0.314453	0.094592	0.008436	-0.022221	0.619070	0.007119	-0.783306	-0.055975	156.989780	-75.706924	-160.980340
29996		9.464215	0.846738	-2.238582	0.014190	-0.114091	-0.051219	-0.158824	0.036148	-0.326852	-1.005371	0.267334	0.316650	0.094652	0.008295	-0.022410	0.619110	0.007930	-0.783150	-0.057592	156.198907	-75.649520	-160.255551
29997		9.426114	0.828314	-2.143131	-0.069942	-0.156419	-0.112106	-0.156305	0.015455	-0.334464	-0.996338	0.260742	0.316895	0.094273	0.008109	-0.021445	0.619064	0.008769	-0.783055	-0.059229	155.417750	-75.577039	-159.539901
29998		9.403220	0.861987	-2.169905	-0.038480	-0.158119	-0.125300	-0.142771	-0.014642	-0.339127	-0.998535	0.258789	0.319092	0.094048	0.008445	-0.021698	0.618897	0.009663	-0.783054	-0.060822	154.672654	-75.485458	-158.852412
29999		9.429860	1.098593	-2.308717	0.099225	0.027221	-0.042906	-0.148252	-0.047805	-0.347582	-0.998535	0.256592	0.321533	0.094323	0.010805	-0.023073	0.618593	0.010563	-0.783154	-0.062467	153.948365	-75.372106	-158.189509
30000		9.457882	1.039537	-2.309346	0.083175	-0.069932	-0.022216	-0.177221	-0.049645	-0.337003	-1.002686	0.247803	0.321777	0.094602	0.010216	-0.023079	0.618286	0.011331	-0.783245	-0.064190	153.240996	-75.258784	-157.560752
30001		9.343247	0.868231	-2.291107	0.071995	-0.262348	-0.157371	-0.130086	-0.114108	-0.347081	-1.000244	0.241211	0.323975	0.093460	0.008505	-0.022863	0.617716	0.012260	-0.783551	-0.065769	152.615183	-75.107608	-156.988816
30002		9.579746	1.591667	-2.358803	0.113980	0.389403	0.172509	-0.172135	-0.108934	-0.339611	-1.002441	0.245605	0.321777	0.095837	0.015734	-0.023549	0.617171	0.013035	-0.783821	-0.067483	151.986542	-74.959945	-156.437717
30003		9.558537	1.329489	-2.256508	-0.008393	0.105101	0.097598	-0.207998	-0.105362	-0.327307	-1.000244	0.239014	0.321777	0.095619	0.013115	-0.022528	0.616643	0.013650	-0.784068	-0.069305	151.367381	-74.815467	-155.918073
30004		9.629905	1.350103	-2.277123	-0.015998	0.079746	0.174124	-0.237436	-0.116114	-0.332053	-1.006592	0.232422	0.324219	0.096334	0.013314	-0.022731	0.616072	0.014192	-0.784332	-0.071252	150.745151	-74.663243	-155.411637
30005		9.565428	1.209965	-2.277562	-0.021756	-0.089612	0.093880	-0.274254	-0.121697	-0.342717	-1.001953	0.223633	0.328857	0.095689	0.011905	-0.022734	0.615475	0.014661	-0.784596	-0.073378	150.098376	-74.503620	-154.901328
30006		9.567333	1.057469	-2.368520	0.042151	-0.289415	0.095708	-0.296751	-0.131012	-0.367501	-0.999756	0.223633	0.328857	0.095708	0.010364	-0.023638	0.614831	0.015154	-0.784874	-0.075667	149.417746	-74.330811	-154.368758
30007		9.529075	1.007179	-2.585681	0.243457	-0.400347	0.101125	-0.335949	-0.138079	-0.402236	-1.008301	0.217041	0.331299	0.095329	0.009837	-0.025808	0.614142	0.015654	-0.785153	-0.078227	148.673761	-74.141985	-153.794611
30008		9.615059	0.991138	-2.509190	0.133399	-0.467746	0.161827	-0.402567	-0.113600	-0.442719	-1.003906	0.212646	0.333496	0.096186	0.009648	-0.025057	0.613537	0.016123	-0.785319	-0.081160	147.814623	-73.951257	-153.138467
30009		9.720839	1.040079	-2.597981	0.183858	-0.497885	0.288995	-0.448600	-0.112598	-0.494084	-1.001465	0.206055	0.331543	0.097248	0.010102	-0.025948	0.612910	0.016649	-0.785452	-0.084439	146.859499	-73.741944	-152.410394
30010		9.563892	1.074521	-2.429978	0.050417	-0.485653	0.101377	-0.462438	-0.107399	-0.545044	-1.003418	0.199707	0.340576	0.095681	0.010428	-0.024273	0.612277	0.017338	-0.785548	-0.087919	145.832044	-73.515811	-151.613187
30011		9.517703	1.113356	-2.491647	0.112139	-0.513535	0.074570	-0.459590	-0.096886	-0.592416	-1.007568	0.190918	0.343018	0.095221	0.010794	-0.024895	0.611655	0.018229	-0.785600	-0.091532	144.744623	-73.274713	-150.750822
30012		9.581164	1.098027	-2.563626	0.154195	-0.615360	0.145911	-0.414762	-0.043941	-0.630867	-1.009521	0.184082	0.334229	0.095851	0.010625	-0.025637	0.611212	0.019430	-0.785495	-0.095078	143.594000	-73.040900	-149.794431
30013		9.556411	1.171181	-2.613057	0.208143	-0.618734	0.142116	-0.374951	0.002585	-0.670917	-1.013916	0.177734	0.341064	0.095602	0.011342	-0.026153	0.610920	0.020931	-0.785251	-0.098591	142.381692	-72.808663	-148.749056
30014		9.915783	1.729309	-2.680489	0.232188	-0.212889	0.598773	-0.392004	0.098690	-0.684032	-1.009033	0.164551	0.341553	0.099203	0.016901	-0.026887	0.610991	0.022479	-0.784692	-0.102192	141.062769	-72.608513	-147.600439
30015		9.957361	1.657193	-2.518076	0.068690	-0.348980	0.584859	-0.447050	0.165022	-0.671729	-1.015625	0.159912	0.337158	0.099608	0.016181	-0.025299	0.611323	0.023842	-0.783891	-0.105973	139.678802	-72.433715	-146.416624
30016		10.139752	1.723445	-2.564003	0.089401	-0.402828	0.779200	-0.457325	0.211281	-0.673025	-1.017334	0.144531	0.337402	0.101427	0.016834	-0.025786	0.611828	0.025204	-0.782930	-0.109781	138.259328	-72.270201	-145.199513
30017		10.271922	1.945297	-2.446024	-0.013878	-0.276652	0.920543	-0.471797	0.271276	-0.665261	-1.010498	0.144531	0.333008	0.102750	0.019053	-0.024645	0.612564	0.026521	-0.781762	-0.113627	136.790164	-72.125398	-143.939577
30018		10.457314	2.207956	-2.378126	-0.066971	-0.130428	1.135541	-0.518917	0.379185	-0.657750	-1.021484	0.135742	0.328857	0.104599	0.021673	-0.024036	0.613719	0.027729	-0.780224	-0.117603	135.195377	-72.018221	-142.573387
30019		10.731460	2.046496	-2.074863	-0.390071	-0.381901	1.293995	-0.589673	0.612088	-0.637133	-1.014648	0.129150	0.320068	0.107315	0.020061	-0.021137	0.615794	0.028786	-0.777911	-0.121751	133.304984	-72.000042	-140.937396
30020		10.344027	2.270288	-2.206006	-0.070566	-0.200914	1.002713	-0.671498	0.804502	-0.632356	-1.020996	0.117920	0.315918	0.103421	0.022301	-0.022551	0.618608	0.029678	-0.774934	-0.126177	131.125291	-72.039918	-139.047790
30021		10.444302	2.480007	-1.941246	-0.231889	-0.069934	1.093366	-0.747712	0.925405	-0.622265	-1.025146	0.111328	0.307373	0.104428	0.024401	-0.019987	0.621890	0.030386	-0.771500	-0.130832	128.738182	-72.105793	-136.984500
30022		10.481426	2.462519	-1.781585	-0.292944	-0.163853	1.095290	-0.770566	0.949989	-0.631502	-1.029297	0.104492	0.298584	0.104805	0.024224	-0.018408	0.625228	0.031058	-0.767943	-0.135605	126.281977	-72.148837	-134.865155
30023		10.539272	1.778661	-1.466258	-0.590846	-0.875569	0.923815	-0.747642	0.961353	-0.638215	-1.033447	0.091309	0.294434	0.105376	0.017394	-0.015235	0.628580	0.031848	-0.764324	-0.140290	123.806753	-72.164938	-132.710122
30024		10.982365	2.059396	-1.559003	-0.453991	-0.820384	1.430222	-0.701639	0.957749	-0.672917	-1.033203	0.086670	0.276855	0.109815	0.020168	-0.016187	0.631850	0.032896	-0.760712	-0.144916	121.332037	-72.134191	-130.530107
30025		11.465318	2.017358	-1.305472	-0.691663	-1.033104	1.835475	-0.738296	1.022302	-0.688764	-1.037354	0.075439	0.266113	0.114653	0.019729	-0.013714	0.635335	0.033946	-0.756826	-0.149704	118.732732	-72.084765	-128.239168
30026		11.618497	1.980127	-1.463431	-0.453540	-1.246796	1.989407	-0.797881	1.067545	-0.717579	-1.041260	0.064453	0.255371	0.116174	0.019324	-0.015332	0.638940	0.034936	-0.752709	-0.154803	116.024439	-71.999884	-125.870271
30027		11.449548	1.805623	-1.721134	-0.078787	-1.536178	1.803954	-0.776521	1.037557	-0.754879	-1.043213	0.055664	0.249023	0.114471	0.017556	-0.017874	0.642378	0.036127	-0.748646	-0.159924	113.373912	-71.854947	-123.545386
30028		11.451507	1.906128	-1.768435	0.095329	-1.571963	1.824116	-0.751299	1.022078	-0.799373	-1.047607	0.048828	0.235840	0.114497	0.018536	-0.018340	0.645667	0.037533	-0.744612	-0.165100	110.783644	-71.649730	-121.268739
30029		11.323494	1.900263	-1.644008	0.101938	-1.642669	1.668789	-0.707363	0.975738	-0.837455	-1.051514	0.037598	0.227295	0.113231	0.018469	-0.017058	0.648722	0.039200	-0.740709	-0.170216	108.326993	-71.384689	-119.100480
30030		11.229331	1.648626	-1.702602	0.231846	-1.989906	1.487714	-0.655101	0.941318	-0.879944	-1.053467	0.028809	0.214111	0.112282	0.015935	-0.017607	0.651556	0.041145	-0.736922	-0.175293	106.006552	-71.061413	-117.043556
30031		11.325612	1.597644	-1.677633	0.277661	-2.189138	1.534770	-0.585903	0.912096	-0.942681	-1.053223	0.017578	0.207764	0.113251	0.015392	-0.017338	0.654199	0.043540	-0.733228	-0.180288	103.817986	-70.674782	-115.075981
30032		11.602061	1.630286	-1.613816	0.271776	-2.364405	1.771931	-0.523168	0.914878	-1.003229	-1.052734	0.006592	0.197021	0.116025	0.015678	-0.016710	0.656731	0.046341	-0.729542	-0.185269	101.728705	-70.229491	-113.174501
30033		11.833735	1.288625	-1.654021	0.309227	-2.905987	1.844526	-0.477635	0.917303	-1.079620	-1.061279	-0.006836	0.186279	0.118327	0.012207	-0.017113	0.659176	0.049593	-0.725823	-0.190288	99.726619	-69.720870	-111.327624
30034		12.574906	0.874592	-2.042762	0.610178	-3.766676	2.373479	-0.416199	0.933750	-1.169961	-1.063232	-0.017822	0.182129	0.125700	0.007967	-0.021032	0.661520	0.053365	-0.722054	-0.195403	97.814814	-69.139484	-109.537827
30035		13.535819	0.936654	-2.294360	0.848355	-4.262334	3.243668	-0.333927	0.969229	-1.268416	-1.060303	-0.033447	0.169189	0.135300	0.008469	-0.023614	0.663854	0.057813	-0.718164	-0.200489	95.979836	-68.486378	-107.768152
30036		14.183039	0.291710	-2.718619	1.173651	-5.364878	3.546579	-0.338572	0.998827	-1.373005	-1.064209	-0.048828	0.158691	0.141708	0.001897	-0.027898	0.666122	0.062629	-0.714103	-0.205952	94.200308	-67.753244	-106.057012
30037		14.630837	-0.182498	-2.529815	0.959984	-6.136138	3.674883	-0.374197	1.022986	-1.513093	-1.063721	-0.066650	0.150146	0.146157	-0.002979	-0.026041	0.668312	0.067864	-0.709811	-0.211948	92.467464	-66.923601	-104.404750
30038		15.013318	-0.591565	-1.899534	0.333312	-6.758428	3.735851	-0.432837	1.024420	-1.670823	-1.065674	-0.079834	0.143799	0.149977	-0.007211	-0.019749	0.670275	0.073440	-0.705344	-0.218696	90.817432	-65.983300	-102.872839
30039		15.518858	-1.301964	-1.384583	-0.251813	-7.749030	3.764027	-0.477986	1.014305	-1.834434	-1.064941	-0.099854	0.126709	0.154987	-0.014476	-0.014599	0.671981	0.079433	-0.700725	-0.226087	89.276631	-64.935435	-101.472842
30040		15.950597	-1.868915	-1.432750	-0.258981	-8.726721	3.742142	-0.492873	1.002621	-2.006542	-1.064209	-0.124023	0.118408	0.159233	-0.020324	-0.015077	0.673362	0.085946	-0.695974	-0.234130	87.864671	-63.771723	-100.217269
30041		16.253902	-2.196516	-1.800379	0.092444	-9.528902	3.657053	-0.571423	0.938493	-2.170462	-1.056641	-0.145996	0.103516	0.162201	-0.023779	-0.018699	0.674293	0.092688	-0.691174	-0.242933	86.600221	-62.507790	-99.158400
30042		16.888651	-2.648411	-2.408075	0.609982	-10.663808	3.749575	-0.758084	0.894094	-2.287173	-1.060303	-0.170410	0.093018	0.168459	-0.028505	-0.024729	0.674886	0.099125	-0.686139	-0.252817	85.388714	-61.164805	-98.274248
30043		17.192983	-4.525638	-3.283955	1.097516	-12.925601	2.779792	-0.988455	0.876767	-2.337649	-1.052734	-0.201172	0.084961	0.171238	-0.047425	-0.033360	0.675393	0.104930	-0.680715	-0.263554	84.155819	-59.790433	-97.499000
30044		16.129035	-6.455431	-4.780860	2.214088	-14.640138	0.454734	-1.121011	0.826519	-2.369206	-1.049805	-0.225342	0.079102	0.160310	-0.066726	-0.048103	0.675594	0.110297	-0.675158	-0.274900	82.987348	-58.388659	-96.883016
30045		15.078743	-6.692140	-5.452811	2.845712	-14.700492	-0.999902	-1.104451	0.729678	-2.427433	-1.042480	-0.245361	0.061768	0.149759	-0.069045	-0.054698	0.675262	0.115767	-0.669798	-0.286339	81.994102	-56.959002	-96.448671
30046		13.822001	-3.533304	-4.994801	3.164850	-11.619046	-0.677804	-1.077911	0.641144	-2.565872	-1.041504	-0.271729	0.058105	0.137589	-0.037371	-0.050192	0.674276	0.121636	-0.664555	-0.298200	81.160867	-55.451172	-96.186378
30047		13.957464	0.746413	-3.854587	3.063477	-8.349793	1.637446	-1.244106	0.719051	-2.724662	-1.036133	-0.298096	0.045410	0.139517	0.005321	-0.039085	0.673313	0.127558	-0.658564	-0.310921	80.234635	-53.854192	-95.912157
30048		14.633346	1.195159	-3.648247	2.936297	-8.718940	2.196171	-0.991148	0.751720	-2.863874	-1.026611	-0.322266	0.035156	0.146344	0.009673	-0.037084	0.671871	0.134813	-0.652605	-0.323297	79.492465	-52.163446	-95.691037
30049		13.988305	1.891668	-3.789877	3.285165	-8.191114	1.836911	-0.432662	0.596777	-2.779710	-1.019043	-0.350830	0.029297	0.140013	0.016889	-0.038354	0.669610	0.143364	-0.647997	-0.333421	79.196669	-50.552663	-95.612537
30050		12.848718	1.125264	-3.576747	2.920222	-8.287429	0.283362	0.028834	0.378847	-2.606855	-1.011719	-0.372803	0.029785	0.128551	0.009582	-0.036009	0.666397	0.152534	-0.644872	-0.341744	79.295562	-49.045115	-95.717242
30051		12.200480	1.197111	-3.404164	2.775219	-8.017632	-0.332124	0.077242	0.323372	-2.497944	-0.997803	-0.390381	0.025879	0.122086	0.010460	-0.034235	0.663132	0.161349	-0.642039	-0.349298	79.440266	-47.628870	-95.829124
30052		10.032647	1.196396	-4.038299	3.492110	-6.928291	-2.184327	-0.384837	0.190032	-2.338496	-0.992676	-0.410156	0.021973	0.100418	0.010712	-0.040500	0.659906	0.167908	-0.638825	-0.358098	79.373613	-46.292165	-96.036338
30053		8.633824	-1.337731	-3.639810	2.503515	-7.769510	-5.022702	-0.883128	-0.004417	-2.084365	-0.985352	-0.425537	0.020020	0.086192	-0.014437	-0.036334	0.656925	0.171602	-0.635528	-0.367569	79.105675	-45.140428	-96.349172
30054		7.608172	0.884457	-2.242047	1.775930	-5.342428	-4.156215	-0.820597	-0.029955	-1.868955	-0.978271	-0.438477	0.018311	0.076163	0.008041	-0.022443	0.654049	0.174788	-0.632502	-0.376312	78.858560	-44.092966	-96.663346
30055		5.737052	5.778112	-1.888440	2.913694	-0.848478	-2.024564	-1.026170	0.186645	-1.631170	-0.971436	-0.447510	0.005127	0.057821	0.057213	-0.019233	0.652439	0.176947	-0.628534	-0.384654	78.352441	-43.159664	-96.772915
30056		6.455891	2.773803	-2.069522	2.211432	-3.467116	-3.751088	-1.114409	0.409057	-1.161211	-0.966797	-0.451904	0.000977	0.064675	0.027246	-0.020980	0.652439	0.177748	-0.624028	-0.391559	77.634145	-42.460531	-96.652000
30057		7.726078	-0.244080	-5.259720	4.282892	-7.182297	-5.630867	-0.043347	0.209658	-0.751507	-0.964355	-0.453857	0.009766	0.077196	-0.002742	-0.052678	0.651619	0.180323	-0.622629	-0.393968	77.592260	-42.016925	-96.628070
30058		4.367172	-1.791370	-4.734595	3.630059	-5.545191	-8.934589	0.860154	-0.175528	-0.293772	-0.967041	-0.445068	0.014160	0.043687	-0.017774	-0.047384	0.649695	0.183698	-0.624644	-0.392392	78.209481	-41.873819	-96.810583
30059		2.879584	-4.702497	-1.983176	0.344200	-5.568402	-11.605076	1.108561	-0.445305	0.253100	-0.962891	-0.436279	0.027100	0.028900	-0.046878	-0.020028	0.647735	0.185595	-0.628529	-0.388517	79.049703	-42.069093	-97.118178
30060		3.764887	-6.669464	-1.101256	-1.052749	-7.257328	-12.280685	1.392203	-0.480711	0.645628	-0.965332	-0.427246	0.035645	0.037891	-0.066494	-0.011385	0.646150	0.187142	-0.633389	-0.382475	80.036936	-42.483185	-97.396398
30061		4.510391	-5.303357	-0.611984	-1.170747	-6.837003	-10.665782	1.442725	-0.324779	0.889913	-0.968262	-0.407471	0.048584	0.045349	-0.052787	-0.006428	0.645414	0.188319	-0.638049	-0.375326	80.961329	-43.019664	-97.541245
30062		4.106230	-2.303838	-0.271269	-0.678082	-4.527662	-8.680190	1.534428	-0.257985	1.114804	-0.968994	-0.385254	0.054688	0.041193	-0.022788	-0.002835	0.645193	0.189228	-0.642801	-0.367050	81.893017	-43.673553	-97.614266
30063		3.185388	-0.101362	-0.182364	-0.152685	-2.374781	-7.684986	1.532255	-0.431043	1.472196	-0.973877	-0.374268	0.072021	0.031864	-0.000765	-0.001761	0.644989	0.188600	-0.648400	-0.357766	82.906159	-44.545248	-97.809324
30064		2.895903	-0.040303	-0.883350	0.566677	-2.244725	-7.861309	1.435380	-0.652436	1.838057	-0.983643	-0.343262	0.086670	0.028989	-0.000074	-0.008740	0.644744	0.186096	-0.654777	-0.347765	83.985119	-45.634345	-98.168137
30065		3.105848	-0.569962	-1.607343	1.140598	-2.863447	-8.065222	1.497979	-0.769457	2.174977	-0.982422	-0.316895	0.099365	0.031179	-0.005241	-0.015994	0.644549	0.182469	-0.661848	-0.336478	85.185755	-46.919452	-98.632690
30066		3.539344	-0.981376	-1.474066	0.889448	-3.364059	-7.927561	1.567991	-0.810887	2.566163	-0.985596	-0.283936	0.102783	0.035574	-0.009243	-0.014671	0.644658	0.177652	-0.669379	-0.323709	86.480412	-48.419722	-99.165349
30067		4.045593	-1.468209	-1.031605	0.322417	-3.894970	-7.736598	1.529197	-0.795811	2.971015	-0.986572	-0.250732	0.117432	0.040708	-0.014000	-0.010263	0.645346	0.171344	-0.676983	-0.309618	87.793855	-50.145489	-99.733111
30068		4.617450	-1.617896	-0.502151	-0.275779	-4.184563	-7.243342	1.474693	-0.798268	3.311209	-0.996826	-0.208984	0.123047	0.046453	-0.015375	-0.004952	0.646378	0.163638	-0.684580	-0.294563	89.147886	-52.054208	-100.383996
30069		5.385442	-1.247981	-0.480448	-0.322575	-4.246826	-6.256285	1.398613	-0.877693	3.630376	-0.991455	-0.169434	0.126465	0.054089	-0.011466	-0.004650	0.647443	0.154429	-0.692334	-0.278645	90.621008	-54.138115	-101.214936
30070		5.819155	-0.663162	-0.678611	-0.102280	-3.907511	-5.399214	1.254134	-0.977267	3.946692	-0.992432	-0.134277	0.138916	0.058339	-0.005440	-0.006538	0.648427	0.143440	-0.700153	-0.262209	92.233784	-56.384713	-102.299846
30071		6.530810	-0.084449	-1.095048	0.280251	-3.679369	-4.314120	0.930976	-1.054800	4.217169	-1.000488	-0.090332	0.146484	0.065362	0.000583	-0.010605	0.649428	0.130301	-0.707667	-0.245910	93.930604	-58.767868	-103.668929
30072		7.343504	-0.124371	-1.314133	0.357398	-3.893837	-3.458971	0.663277	-1.107938	4.473004	-0.999756	-0.046143	0.158691	0.073509	0.000443	-0.012735	0.650383	0.115241	-0.714819	-0.229683	95.789838	-61.267717	-105.373381
30073		8.386139	0.124427	-1.109165	0.016584	-3.794605	-2.252287	0.480678	-1.158541	4.700746	-0.998779	-0.004395	0.164307	0.083863	0.003241	-0.010600	0.651163	0.098665	-0.721658	-0.213217	97.966853	-63.865174	-107.506571
30074		9.382399	0.444360	-0.810064	-0.410567	-3.470173	-1.057500	0.336655	-1.187396	4.927682	-0.998047	0.037354	0.169922	0.093722	0.006767	-0.007534	0.651739	0.080695	-0.728097	-0.196464	100.607040	-66.542014	-110.198911
30075		10.205459	0.333499	-0.594056	-0.795617	-3.362632	-0.187151	0.132738	-1.186307	5.143326	-0.997070	0.081299	0.175537	0.101957	0.005962	-0.005332	0.652182	0.061238	-0.733938	-0.179568	103.873446	-69.281309	-113.632207
30076		11.051902	-0.177472	-0.666499	-0.963777	-3.585700	0.618226	-0.050221	-1.208273	5.310735	-0.989746	0.129639	0.176514	0.110552	0.001159	-0.005997	0.652274	0.040491	-0.739202	-0.162726	108.138915	-72.016698	-118.179486
30077		12.007577	-0.085609	-0.846948	-0.963228	-3.187756	1.753647	-0.090228	-1.305174	5.388107	-0.986816	0.180420	0.188477	0.120093	0.002376	-0.007686	0.651589	0.019234	-0.744215	-0.145624	114.155431	-74.631765	-124.503422
30078		13.066938	0.123159	-0.624506	-1.368731	-2.497735	2.954190	0.063216	-1.472177	5.409889	-0.984131	0.233154	0.202637	0.130614	0.004767	-0.005282	0.649774	-0.001756	-0.749299	-0.127835	122.995198	-76.956430	-133.579191
30079		14.148459	0.044582	-0.730604	-1.536727	-2.016575	4.124053	0.446114	-1.720451	5.391247	-0.979004	0.281738	0.216797	0.141460	0.004274	-0.006082	0.646502	-0.021574	-0.754847	-0.108516	135.950842	-78.725670	-146.558156
30080		15.533200	0.081899	-1.056094	-1.563003	-1.354149	5.616457	0.806919	-1.868378	5.411648	-0.962891	0.336914	0.230957	0.155323	0.005061	-0.009095	0.642190	-0.040380	-0.760439	-0.087717	152.964810	-79.665239	-163.401138
30081		17.374171	1.434551	-1.594393	-1.262835	0.724342	7.630271	0.833738	-1.820763	5.436993	-0.951416	0.396484	0.245117	0.173400	0.019125	-0.014291	0.637534	-0.059126	-0.765256	-0.066619	171.520447	-79.618924	178.235007
30082		19.060474	2.851732	-1.753783	-1.298534	3.146908	9.235078	0.682799	-1.714612	5.448262	-0.928467	0.451660	0.263672	0.189873	0.033753	-0.015799	0.632714	-0.078328	-0.769034	-0.046091	-171.767294	-78.630839	161.622773
30083		19.341030	2.190341	-2.055233	-1.309211	3.562116	9.385931	0.859465	-1.741721	5.465826	-0.907959	0.504639	0.271240	0.192883	0.027263	-0.018761	0.627328	-0.096963	-0.772299	-0.024728	-158.483199	-76.846880	148.544981
30084		19.900715	1.203296	-2.361537	-1.443930	3.734029	9.857634	1.252875	-1.776465	5.422299	-0.869629	0.559814	0.283203	0.198780	0.017565	-0.021750	0.621467	-0.114134	-0.775080	-0.001996	-148.623857	-74.542391	139.116828
30085		21.049404	2.486562	-2.410253	-1.568238	6.325277	10.496800	1.713024	-1.810623	5.271233	-0.840088	0.617188	0.284180	0.209943	0.030598	-0.021954	0.615195	-0.129178	-0.777405	0.022119	-141.389533	-71.951976	132.597336
30086		21.052492	4.553008	-2.469690	-1.354353	9.432547	9.657918	1.998571	-1.761661	5.079467	-0.799072	0.661377	0.291992	0.209478	0.051091	-0.022356	0.608813	-0.142511	-0.779013	0.046656	-135.929943	-69.268197	128.027767
30087		19.817669	5.543688	-2.419665	-1.184828	11.044887	7.675253	2.112650	-1.639126	4.845099	-0.764893	0.703369	0.288818	0.196939	0.060458	-0.021958	0.602548	-0.154486	-0.779776	0.070843	-131.648843	-66.609042	124.723492
30088		19.334689	6.547874	-1.073771	-2.414712	12.784652	5.950941	1.947589	-1.431974	4.544761	-0.728027	0.742920	0.279053	0.191858	0.069941	-0.008694	0.596649	-0.165764	-0.779642	0.093228	-128.260385	-64.084214	122.226537
30089		18.073323	4.513851	-1.385567	-2.290772	11.129367	5.011909	1.952081	-1.237679	4.138093	-0.689209	0.778320	0.280518	0.179825	0.048991	-0.012275	0.591323	-0.175420	-0.778790	0.114237	-125.467943	-61.757786	120.354258
30090		16.514509	9.079160	-2.333962	-0.572485	15.190927	1.565365	2.188213	-1.303148	3.560882	-0.654053	0.800537	0.273438	0.163634	0.093954	-0.021254	0.585982	-0.182014	-0.778092	0.134419	-123.260753	-59.650973	119.264111
30091		16.181322	17.885214	-0.769662	-1.143726	23.280132	-3.569331	1.544712	-1.169998	2.802628	-0.632324	0.815918	0.264404	0.159321	0.181144	-0.005366	0.580845	-0.187553	-0.777832	0.149737	-121.880394	-57.933446	118.691840
30092		16.345228	22.660971	1.123176	-2.613207	27.673674	-6.769655	0.511162	-0.699067	1.828887	-0.619141	0.824707	0.268555	0.161329	0.228061	0.012380	0.577196	-0.192632	-0.777732	0.157704	-121.263985	-56.829877	118.310594
30093		15.120112	19.520917	1.335024	-2.917515	24.364729	-6.761247	0.153320	-0.268643	0.721834	-0.610352	0.824951	0.272949	0.150477	0.195743	0.013703	0.575706	-0.194760	-0.777697	0.160684	-121.050969	-56.393576	118.166339
30094		14.171350	15.328293	0.621443	-2.531904	20.260394	-5.422379	0.423493	0.025422	-0.424142	-0.612549	0.824707	0.259766	0.142039	0.152968	0.006521	0.576544	-0.191896	-0.777701	0.161104	-120.979115	-56.608286	118.374020
30095		13.916150	16.221442	0.063357	-1.933069	20.890661	-5.734150	0.571878	0.305818	-1.382572	-0.627686	0.815674	0.251221	0.140280	0.161245	0.000882	0.579376	-0.185159	-0.777656	0.159028	-121.048649	-57.375299	118.842337
30096		12.775854	16.622758	-1.312696	-0.408092	20.684829	-6.176874	0.557590	0.478056	-1.983733	-0.647461	0.800293	0.251465	0.129368	0.164986	-0.012974	0.583285	-0.176185	-0.777629	0.155018	-121.294739	-58.488511	119.512542
30097		11.514398	10.817072	-7.187591	4.896961	15.082458	-2.756860	0.713908	0.179157	-2.005092	-0.658203	0.791260	0.240479	0.116158	0.107265	-0.071596	0.586130	-0.166485	-0.778270	0.151755	-121.740398	-59.519851	120.503340
30098		11.821582	7.591472	-8.483793	5.702042	12.260496	-0.511376	0.303595	0.053755	-2.312298	-0.677734	0.777832	0.240723	0.119061	0.074670	-0.084756	0.588295	-0.156612	-0.779762	0.146124	-122.750772	-60.655766	121.872358
30099		16.919429	-10.686628	-5.200732	-0.103896	-2.637027	10.694386	-0.612411	0.646992	-1.805426	-0.690918	0.769043	0.236572	0.168051	-0.108546	-0.052222	0.591624	-0.151889	-0.779679	0.137884	-123.567635	-61.722976	122.397326
30100		13.622915	-20.935968	1.612082	-6.524082	-13.935717	9.928591	-0.464296	0.710034	-1.537590	-0.697021	0.749268	0.239258	0.134672	-0.210362	0.016128	0.595065	-0.147737	-0.779045	0.131000	-124.124572	-62.680084	122.728883
30101		13.261097	-0.909682	4.463324	-7.652195	4.001127	1.234062	0.661953	0.388054	-2.310836	-0.718750	0.733643	0.226318	0.132579	-0.010776	0.044342	0.598531	-0.137059	-0.779104	0.126379	-124.872757	-63.895551	123.984406
30102		18.512290	9.378270	0.129772	-4.186197	15.278990	3.591528	1.500938	0.256429	-2.793232	-0.740479	0.718018	0.215576	0.186410	0.091173	0.001750	0.602236	-0.121816	-0.779213	0.123694	-125.708194	-65.285692	125.863931
30103		17.121751	4.724360	-1.830458	-2.263480	10.133557	4.712940	0.953970	0.097093	-2.734050	-0.755615	0.697998	0.209473	0.171834	0.044984	-0.018170	0.604819	-0.108391	-0.779914	0.119074	-127.145790	-66.577892	128.029839
30104		12.972058	2.108390	0.626789	-3.732312	5.870179	1.354804	-0.106342	0.145271	-2.691000	-0.774658	0.671631	0.209961	0.129993	0.019339	0.006163	0.606863	-0.098281	-0.780935	0.110450	-129.324082	-67.839425	130.328931
30105		10.421698	2.529371	1.774059	-4.216675	5.206277	-1.253187	-0.332963	0.075364	-2.565642	-0.787598	0.656006	0.212646	0.104537	0.023983	0.017661	0.608355	-0.089359	-0.782087	0.101284	-131.851340	-68.982719	132.834070
30106		7.548479	-0.284636	-1.828627	-0.079523	1.721780	-2.234343	0.048604	-0.180629	-2.192144	-0.796143	0.642822	0.212891	0.075464	-0.003669	-0.018219	0.608731	-0.080528	-0.783554	0.094898	-134.309909	-69.828188	135.492663
30107		7.652383	0.751918	-4.803938	2.761572	2.766006	-1.631997	0.539705	-0.394381	-1.911529	-0.806641	0.623047	0.208984	0.076686	0.006916	-0.047869	0.608274	-0.071259	-0.785231	0.091312	-136.601809	-70.434118	138.250731
30108		9.934160	2.575293	-5.390138	2.699938	4.965723	0.307730	0.753424	-0.443525	-1.796264	-0.815186	0.612061	0.213623	0.099688	0.025061	-0.053585	0.607577	-0.061694	-0.786846	0.088978	-138.832682	-70.937115	141.074536
30109		10.474420	1.611393	-4.478140	1.625220	3.944671	0.871875	0.547134	-0.364932	-1.642031	-0.830322	0.596436	0.205078	0.104954	0.015375	-0.044547	0.607011	-0.053461	-0.788192	0.086213	-141.026363	-71.381278	143.715864
30110		10.571384	1.681863	-4.365867	1.441803	3.880698	0.980957	0.319913	-0.296556	-1.603301	-0.832275	0.585693	0.214111	0.105909	0.016040	-0.043476	0.606584	-0.046027	-0.789366	0.082701	-143.339005	-71.808732	146.348821
30111		10.521842	1.061481	-4.070500	1.157397	3.089650	1.027848	0.097008	-0.144920	-1.550023	-0.840820	0.570068	0.212402	0.105326	0.009819	-0.040624	0.606649	-0.039609	-0.790105	0.078375	-145.664477	-72.255247	148.844066
30112		9.471632	0.429570	-3.184586	0.588895	2.088613	-0.049124	-0.168293	-0.025960	-1.436472	-0.847168	0.565674	0.212402	0.094748	0.003588	-0.031837	0.607046	-0.034419	-0.790523	0.073373	-147.969513	-72.691562	151.162662
30113		9.902961	0.846232	-2.547465	-0.147333	2.373920	0.168060	-0.386361	0.040887	-1.379133	-0.857910	0.552490	0.214844	0.099079	0.007730	-0.025510	0.607622	-0.030209	-0.790766	0.067611	-150.360589	-73.114975	153.424732
30114		10.158023	0.550776	-2.809929	0.063003	1.988535	0.551885	-0.616785	0.107696	-1.305311	-0.859863	0.539307	0.215332	0.101598	0.004758	-0.028169	0.608366	-0.026943	-0.790834	0.061205	-152.812580	-73.523307	155.617982
30115		9.789163	0.166100	-3.015238	0.387886	1.434439	0.323250	-0.752902	0.156058	-1.202189	-0.865967	0.521729	0.220215	0.097875	0.000959	-0.030233	0.609224	-0.024582	-0.790741	0.054508	-155.231927	-73.903554	157.681052
30116		9.599496	-0.561530	-2.515434	-0.008356	0.532026	0.112462	-0.714621	0.150884	-1.122816	-0.872559	0.521729	0.219971	0.095942	-0.006244	-0.025205	0.610010	-0.022346	-0.790607	0.048259	-157.586804	-74.238323	159.706626
30117		9.374886	-1.363795	-1.881273	-0.534242	-0.434768	-0.178779	-0.449902	0.073178	-1.057129	-0.872070	0.499756	0.225098	0.093668	-0.014176	-0.018816	0.610483	-0.019612	-0.790607	0.043206	-159.809092	-74.495458	161.738591
30118		9.711125	-1.378335	-1.603366	-0.886054	-0.539771	0.071602	-0.090333	-0.075104	-1.050360	-0.883057	0.499756	0.225098	0.097043	-0.014300	-0.015991	0.610381	-0.015705	-0.790958	0.039666	-161.973048	-74.649806	163.932204
30119		9.847835	-0.710433	-1.765003	-0.789902	0.039858	0.185982	0.158014	-0.216049	-1.052013	-0.887451	0.490967	0.225342	0.098458	-0.007608	-0.017550	0.609727	-0.011075	-0.791668	0.037056	-164.120354	-74.705088	166.244534
30120		10.141716	0.010160	-2.265296	-0.420874	0.697031	0.546953	0.182698	-0.237329	-1.052197	-0.888916	0.473389	0.225586	0.101443	-0.000411	-0.022533	0.608968	-0.006295	-0.792415	0.034600	-166.275620	-74.725562	168.589809
30121		10.195195	0.410656	-2.459874	-0.276832	1.005105	0.631155	0.009589	-0.139258	-1.019640	-0.891113	0.471191	0.234619	0.101988	0.003588	-0.024528	0.608572	-0.002258	-0.792870	0.031496	-168.426188	-74.773506	170.816574
30122		9.924123	0.048118	-2.775885	0.101926	0.544410	0.477524	-0.198885	-0.084767	-0.963159	-0.895508	0.464600	0.234619	0.099254	-0.000024	-0.027717	0.608363	0.000983	-0.793171	0.027794	-170.569079	-74.824226	172.921541
30123		9.589688	-0.015404	-3.256064	0.650020	0.391948	0.286191	-0.320551	-0.063323	-0.918390	-0.897217	0.449219	0.230713	0.095905	-0.000647	-0.032530	0.608221	0.003602	-0.793406	0.023687	-172.694712	-74.862715	174.925497
30124		9.651505	0.366258	-3.355306	0.715671	0.680411	0.364141	-0.441495	-0.019900	-0.867132	-0.901367	0.440430	0.235352	0.096533	0.003170	-0.033551	0.608230	0.005716	-0.793505	0.019314	-174.779261	-74.903437	176.825208
30125		9.675544	0.332405	-3.186953	0.552866	0.543606	0.350057	-0.557772	0.041229	-0.806635	-0.905762	0.436035	0.235352	0.096761	0.002845	-0.031898	0.608466	0.007159	-0.793413	0.014607	-176.804338	-74.958656	178.583454
30126		9.661683	0.053806	-2.702267	0.104371	0.156987	0.218117	-0.588336	0.052306	-0.768109	-0.909668	0.420654	0.240234	0.096611	0.000087	-0.027049	0.608728	0.008426	-0.793272	0.009955	-178.774383	-75.003417	-179.723369
30127		9.827651	0.000198	-2.093942	-0.518962	-0.001029	0.222121	-0.568706	0.021330	-0.765411	-0.907227	0.411865	0.238281	0.098273	-0.000434	-0.020949	0.608852	0.009674	-0.793207	0.005329	179.262831	-75.015211	-178.036728
30128		9.943213	0.072608	-1.681039	-0.947854	-0.024024	0.227185	-0.510523	-0.027018	-0.769184	-0.911621	0.409912	0.247070	0.099436	0.000301	-0.016798	0.608769	0.011184	-0.793268	0.000977	177.330385	-74.984463	-176.336469
30129		9.892548	0.456264	-1.936534	-0.698557	0.278638	0.249848	-0.485472	-0.078245	-0.776368	-0.920410	0.403320	0.247314	0.098950	0.004132	-0.019337	0.608466	0.012730	-0.793470	-0.003358	175.413335	-74.909266	-174.647303
30130		9.797101	0.582004	-2.377796	-0.256003	0.324811	0.277118	-0.525652	-0.096249	-0.752587	-0.917969	0.396484	0.242920	0.098003	0.005389	-0.023745	0.608084	0.014127	-0.793710	-0.007723	173.548367	-74.810727	-173.024809
30131		9.609845	0.750234	-2.537613	-0.062328	0.412952	0.146047	-0.580628	-0.107387	-0.750666	-0.917480	0.385742	0.254395	0.096139	0.007068	-0.025345	0.607646	0.015280	-0.793965	-0.012358	171.681851	-74.692121	-171.442960
30132		9.440087	0.766553	-2.783914	0.212215	0.348891	0.050661	-0.614106	-0.108319	-0.733546	-0.921875	0.376953	0.254639	0.094443	0.007234	-0.027811	0.607195	0.016332	-0.794203	-0.017017	169.860744	-74.561295	-169.916712
30133		9.187698	0.590978	-2.885228	0.368719	0.098155	-0.172077	-0.651706	-0.122436	-0.730441	-0.923828	0.370361	0.252441	0.091915	0.005480	-0.028814	0.606674	0.017187	-0.794464	-0.021873	168.058361	-74.409991	-168.441644
30134		9.283668	0.777805	-2.980037	0.426095	0.190606	-0.042655	-0.698032	-0.115175	-0.734958	-0.925781	0.359375	0.259277	0.092881	0.007333	-0.029773	0.606173	0.017989	-0.794675	-0.026869	166.251030	-74.249892	-166.977450
30135		9.385040	0.735121	-2.817422	0.234683	0.054637	0.010677	-0.760200	-0.103146	-0.748188	-0.925537	0.350586	0.261719	0.093891	0.006893	-0.028153	0.605703	0.018586	-0.794821	-0.032207	164.408929	-74.081856	-165.523364
30136		9.548370	0.624772	-2.694767	0.064714	-0.156866	0.126826	-0.798471	-0.094358	-0.778142	-0.927246	0.337646	0.270996	0.095519	0.005769	-0.026926	0.605252	0.019258	-0.794906	-0.037729	162.519683	-73.901024	-164.031363
30137		9.639965	0.437190	-2.706433	0.040385	-0.450035	0.199295	-0.814549	-0.092773	-0.829270	-0.927246	0.333252	0.268799	0.096429	0.003862	-0.027036	0.604775	0.020013	-0.794954	-0.043525	160.563106	-73.697885	-162.487784
30138		9.741126	0.356427	-2.646566	-0.054761	-0.640886	0.267301	-0.809328	-0.073042	-0.887799	-0.933350	0.320068	0.271484	0.097435	0.003025	-0.026443	0.604346	0.021091	-0.794908	-0.049418	158.535588	-73.478867	-160.855074
30139		9.845289	0.183381	-2.513374	-0.223362	-0.924674	0.305338	-0.795118	-0.042176	-0.928403	-0.933105	0.311279	0.278320	0.098465	0.001277	-0.025119	0.604001	0.022310	-0.794741	-0.055427	156.470092	-73.250761	-159.182692
30140		9.817363	-0.024797	-2.621644	-0.124866	-1.248099	0.270952	-0.723881	-0.019631	-0.992248	-0.939453	0.298096	0.276367	0.098173	-0.000830	-0.026204	0.603702	0.024073	-0.794487	-0.061285	154.371407	-73.002031	-157.420519
30141		9.793148	0.115253	-2.649074	-0.092054	-1.225406	0.258327	-0.634089	0.010900	-1.050441	-0.932373	0.289307	0.276611	0.097934	0.000554	-0.026498	0.603466	0.026277	-0.794133	-0.067013	152.258936	-72.735141	-155.597966
30142		9.752123	0.255229	-2.551237	-0.171221	-1.195081	0.198259	-0.550675	0.049120	-1.119756	-0.940918	0.276123	0.274658	0.097527	0.001936	-0.025542	0.603331	0.029089	-0.793651	-0.072554	150.112732	-72.448613	-153.676918
30143		9.951871	0.461112	-2.632946	-0.132601	-1.151965	0.426389	-0.496001	0.160318	-1.192150	-0.945068	0.260742	0.281738	0.099522	0.003952	-0.026420	0.603571	0.032324	-0.792813	-0.078134	147.849708	-72.173229	-151.607656
30144		10.392350	0.791349	-2.760939	-0.094500	-1.039444	0.918517	-0.463650	0.310133	-1.257630	-0.951416	0.249756	0.275391	0.103927	0.007196	-0.027788	0.604354	0.036042	-0.791487	-0.083699	145.430610	-71.923515	-149.341529
30145		10.911547	1.176320	-2.782527	-0.160448	-0.897041	1.472494	-0.515297	0.429582	-1.309711	-0.948730	0.236572	0.273438	0.109129	0.010976	-0.028089	0.605558	0.039789	-0.789733	-0.089656	142.852174	-71.681399	-146.945875
30146		11.428569	1.233264	-2.730785	-0.295555	-1.091623	1.947777	-0.580352	0.511863	-1.352684	-0.954834	0.216553	0.271729	0.114295	0.011480	-0.027634	0.607054	0.043613	-0.787643	-0.095923	140.159842	-71.426740	-144.455778
30147		12.278097	1.261717	-2.285842	-0.871158	-1.360150	2.635443	-0.707238	0.777601	-1.385083	-0.958740	0.205566	0.263184	0.122774	0.011685	-0.023378	0.609558	0.047235	-0.784630	-0.102779	137.126250	-71.234911	-141.689150
30148		12.312688	1.086044	-2.206611	-0.852742	-1.727518	2.594345	-0.924339	1.118112	-1.413811	-0.962646	0.185547	0.252686	0.123073	0.009886	-0.022801	0.613389	0.050548	-0.780387	-0.110430	133.591469	-71.119910	-138.511756
30149		12.590416	0.881662	-1.784951	-1.190544	-2.148366	2.695024	-1.065760	1.363403	-1.476770	-0.975586	0.172119	0.239502	0.125838	0.007789	-0.018751	0.618097	0.053734	-0.775212	-0.118806	129.647112	-71.004535	-134.995014
30150		12.738253	0.610133	-1.835795	-1.011173	-2.673935	2.750168	-1.107731	1.623048	-1.543757	-0.972656	0.152344	0.226807	0.127269	0.005013	-0.019421	0.623704	0.057266	-0.769078	-0.127410	125.326010	-70.867175	-131.092333
30151		12.113486	0.296918	-2.190909	-0.367057	-3.095037	2.099640	-0.990668	1.555306	-1.661197	-0.978760	0.136719	0.209473	0.120978	0.001852	-0.022861	0.628834	0.061495	-0.763082	-0.135986	121.144395	-70.557984	-127.271181
30152		12.130700	0.123337	-1.763146	-0.640356	-3.442497	1.935088	-0.781559	1.352749	-1.783655	-0.980469	0.114746	0.198975	0.121188	0.000081	-0.018453	0.632963	0.066769	-0.757710	-0.144136	117.419285	-70.044357	-123.787785
30153		12.457197	0.177669	-1.686755	-0.631398	-3.715764	2.180881	-0.597731	1.258306	-1.905226	-0.981934	0.096924	0.190674	0.124472	0.000539	-0.017654	0.636484	0.072943	-0.752630	-0.152042	114.045552	-69.372738	-120.563607
30154		12.737493	-0.045830	-2.250736	-0.011352	-4.344117	2.370588	-0.396700	1.226877	-2.012095	-0.981445	0.079102	0.173340	0.127220	-0.001784	-0.023285	0.639654	0.080190	-0.747651	-0.159466	110.987446	-68.575816	-117.528482
30155		13.054764	0.581840	-3.036107	0.892753	-4.236787	2.884835	-0.310788	1.185839	-2.119567	-0.987305	0.057129	0.167236	0.130416	0.004388	-0.031142	0.642444	0.088005	-0.742728	-0.166960	108.208719	-67.658648	-114.733427
30156		13.577300	0.752071	-3.236033	1.152791	-4.577842	3.343480	-0.376453	1.137454	-2.217330	-0.984375	0.030762	0.156738	0.135658	0.005954	-0.033144	0.644915	0.095983	-0.737742	-0.174953	105.643217	-66.632052	-112.181002
30157		14.786631	0.343351	-2.797537	0.641638	-5.658889	4.120762	-0.489038	1.155462	-2.283416	-0.981445	0.010742	0.144043	0.147727	0.001677	-0.028835	0.647328	0.103778	-0.732455	-0.183592	103.190057	-65.529076	-109.811277
30158		16.183596	-0.932905	-2.774218	0.465017	-7.711700	4.705319	-0.542401	1.206486	-2.352512	-0.980469	-0.017822	0.131592	0.161540	-0.011307	-0.028688	0.649794	0.111746	-0.726781	-0.192537	100.839744	-64.353889	-107.557367
30159		17.369488	-2.288932	-3.378082	0.953054	-9.875245	5.016357	-0.486683	1.237931	-2.441160	-0.984131	-0.044434	0.121094	0.173184	-0.025089	-0.034795	0.652118	0.120164	-0.720884	-0.201567	98.671658	-63.095240	-105.457646
30160		18.185950	-2.771243	-3.045297	0.654825	-11.009505	5.221288	-0.554443	1.212106	-2.569127	-0.974609	-0.066406	0.110596	0.181294	-0.030130	-0.031472	0.654146	0.128836	-0.714770	-0.211181	96.667115	-61.728568	-103.551867
30161		19.969273	-4.637699	-3.037675	0.442316	-13.888246	5.562535	-0.781197	1.189705	-2.656727	-0.971436	-0.095215	0.089355	0.198868	-0.049144	-0.031373	0.655987	0.136965	-0.708292	-0.221911	94.729296	-60.281591	-101.855042
30162		20.931666	-6.787044	-3.524585	0.763736	-16.711689	4.908716	-1.061902	1.158200	-2.737367	-0.963623	-0.123779	0.078857	0.208153	-0.070915	-0.036082	0.657681	0.144454	-0.701369	-0.233817	92.826148	-58.760010	-100.350145
30163		20.867189	-7.765269	-4.295307	1.523738	-18.039196	3.840667	-1.416997	1.037214	-2.753416	-0.960693	-0.150391	0.066406	0.207349	-0.080820	-0.043466	0.659021	0.150653	-0.694238	-0.247039	90.986546	-57.203572	-99.134611
30164		19.621093	-10.023700	-5.663963	2.712444	-19.831491	0.997245	-1.974945	0.884392	-2.674770	-0.948730	-0.172363	0.053711	0.194592	-0.103405	-0.056492	0.660161	0.154510	-0.686785	-0.261994	89.095131	-55.671323	-98.220033
30165		16.797111	-11.872583	-5.647224	2.533069	-20.052875	-2.999707	-2.365093	0.743983	-2.685710	-0.941162	-0.205322	0.041260	0.166143	-0.121627	-0.055666	0.660901	0.156883	-0.679062	-0.278338	87.210267	-54.120643	-97.568569
30166		14.884236	-7.569700	-4.115677	1.677818	-15.504664	-2.564225	-1.929421	0.684857	-3.067081	-0.926514	-0.244873	0.031250	0.147514	-0.078362	-0.040916	0.660343	0.161856	-0.671611	-0.294428	85.730622	-52.342600	-97.098659
30167		15.999842	0.051580	-4.127290	2.866672	-10.639909	2.498922	-0.969176	0.785063	-3.469613	-0.918701	-0.275635	0.025391	0.159809	-0.002460	-0.041893	0.658533	0.171444	-0.664692	-0.308426	84.825089	-50.325819	-96.645690
30168		16.343913	1.909229	-6.596480	5.595264	-10.359197	3.440176	0.197605	0.494841	-3.315121	-0.899902	-0.306152	0.030762	0.163563	0.016447	-0.066352	0.654786	0.183859	-0.660451	-0.318206	84.814034	-48.408689	-96.478786
30169		14.433282	0.146980	-6.067561	4.871635	-10.637476	0.591939	0.982487	0.021688	-2.993028	-0.892578	-0.330322	0.026855	0.144330	-0.000392	-0.060690	0.649101	0.196978	-0.659132	-0.324674	85.526657	-46.700450	-96.676575
30170		13.929783	1.118753	-5.174421	4.121379	-9.735899	0.688657	0.083142	-0.065759	-2.894386	-0.874023	-0.354248	0.029785	0.139457	0.009192	-0.051694	0.644019	0.206667	-0.656579	-0.333815	85.747742	-45.049864	-96.914838
30171		13.025441	-1.696298	-4.780135	3.276038	-11.253955	-2.197495	-1.415838	-0.096397	-2.615956	-0.866211	-0.385010	0.019531	0.130038	-0.019002	-0.047609	0.640717	0.210520	-0.651774	-0.346921	85.111976	-43.561916	-97.160595
30172		11.360000	-2.001784	-2.302323	0.857996	-10.004612	-3.687142	-1.618540	0.066615	-2.128078	-0.854736	-0.398193	0.017578	0.113369	-0.021411	-0.022892	0.638873	0.212374	-0.646474	-0.358902	84.258763	-42.344478	-97.265933
30173		7.412148	0.846419	-3.291606	2.677716	-5.579402	-4.503404	-1.391348	0.145956	-1.763556	-0.840820	-0.415771	0.007080	0.074167	0.007581	-0.033025	0.637607	0.213885	-0.641622	-0.368826	83.488710	-41.332792	-97.300784
30174		4.553976	5.875779	-4.543443	5.177740	-0.646894	-2.835864	-1.409644	0.195407	-1.576131	-0.833740	-0.431152	0.000977	0.045955	0.058074	-0.045890	0.636782	0.214803	-0.636697	-0.378134	82.683185	-40.423035	-97.300422
30175		8.641643	3.442058	-4.655817	4.438088	-5.406245	-2.113583	-1.577923	0.343152	-0.695611	-0.835693	-0.433594	-0.003418	0.086454	0.033750	-0.046975	0.638220	0.212641	-0.631875	-0.384960	81.665300	-40.003386	-97.118076
30176		7.291152	-2.518834	-7.089406	5.613253	-8.622811	-7.836971	-0.578237	-0.016645	-0.021311	-0.833496	-0.433594	-0.003418	0.072915	-0.025401	-0.070815	0.638721	0.210836	-0.630809	-0.386862	81.347625	-39.992981	-97.135556
30177		2.990810	-5.211367	-2.829806	1.267583	-6.086446	-12.149227	0.053139	-0.166078	0.431833	-0.838135	-0.431396	-0.003662	0.030044	-0.052041	-0.028287	0.638965	0.209330	-0.631922	-0.385460	81.431253	-40.253916	-97.211794
30178		-0.786433	-5.258806	-0.986098	-0.166846	-2.881535	-14.385928	0.136513	-0.421629	1.025263	-0.838379	-0.420166	0.007324	-0.007574	-0.052621	-0.009913	0.639440	0.205717	-0.634615	-0.382179	81.644247	-40.870765	-97.415369
30179		-0.353012	-4.580841	-0.042454	-0.969455	-2.625533	-13.456437	0.003865	-0.796450	1.387229	-0.854248	-0.413818	0.007080	-0.003211	-0.045831	-0.000439	0.639529	0.199806	-0.638601	-0.378509	81.948828	-41.724637	-97.867329
30180		0.954048	-4.027876	0.985227	-1.979676	-3.048944	-12.023827	-0.069119	-0.809311	1.727380	-0.863525	-0.404785	0.020020	0.009848	-0.040191	0.009906	0.640237	0.192535	-0.642775	-0.373988	82.206827	-42.769066	-98.306393
30181		1.627441	-2.724615	0.014300	-0.824789	-2.945290	-10.659435	-0.116522	-0.929480	1.805044	-0.875244	-0.389404	0.028564	0.016518	-0.027098	0.000235	0.640694	0.184620	-0.647262	-0.369429	82.513518	-43.866945	-98.844798
30182		2.071665	-1.965181	-0.538704	-0.176613	-2.900391	-9.801173	0.010982	-0.914793	2.012255	-0.884766	-0.367432	0.034424	0.020937	-0.019442	-0.005293	0.641385	0.176449	-0.652050	-0.363760	82.890963	-45.077349	-99.371141
30183		1.440107	-1.804755	-1.096931	0.464211	-2.495125	-10.117186	0.459439	-1.061199	2.622755	-0.896484	-0.349854	0.049561	0.014694	-0.017831	-0.010933	0.642214	0.167431	-0.658561	-0.354719	83.599965	-46.643172	-99.986512
30184		1.571434	-2.635192	-1.525144	0.664486	-3.284333	-10.526938	0.651360	-1.225277	3.170285	-0.917480	-0.319092	0.064209	0.016222	-0.026048	-0.015238	0.643144	0.156892	-0.666225	-0.343357	84.536822	-48.522632	-100.746610
30185		2.627362	-2.808315	-1.585544	0.554426	-4.121226	-9.714968	1.043565	-1.321847	3.503152	-0.927490	-0.290283	0.083252	0.026864	-0.027533	-0.015824	0.643803	0.146288	-0.674914	-0.329557	85.828609	-50.588254	-101.652671
30186		3.809862	-2.160187	-1.078047	0.062346	-4.210885	-8.198611	1.352055	-1.385451	3.808549	-0.942139	-0.248535	0.097656	0.038574	-0.020798	-0.010657	0.644252	0.135480	-0.684252	-0.313663	87.450101	-52.813309	-102.728316
30187		5.054034	-1.754797	-0.762786	-0.323843	-4.452504	-6.768012	1.435135	-1.412023	4.089802	-0.954346	-0.211182	0.118896	0.050937	-0.016455	-0.007390	0.644683	0.123870	-0.693667	-0.296423	89.300990	-55.180477	-103.994161
30188		6.192703	-1.005046	-0.706495	-0.393192	-4.299820	-5.207407	1.348425	-1.409514	4.344407	-0.962402	-0.169189	0.131104	0.062173	-0.008656	-0.006689	0.645200	0.111034	-0.702720	-0.278521	91.316374	-57.665351	-105.482443
30189		6.909693	-0.045128	-1.009315	-0.034557	-3.704970	-3.894342	1.146378	-1.454117	4.574415	-0.975098	-0.122803	0.158447	0.069153	0.001186	-0.009587	0.645615	0.096611	-0.711355	-0.260426	93.549321	-60.250478	-107.316379
30190		7.573382	0.060863	-1.396957	0.224375	-3.708545	-3.067717	0.965227	-1.584689	4.788031	-0.981201	-0.072266	0.172852	0.075797	0.002488	-0.013360	0.645518	0.080612	-0.719822	-0.242206	96.212381	-62.906900	-109.711995
30191		8.481449	-0.098743	-1.897550	0.485509	-3.983171	-2.103858	0.826206	-1.702003	5.008868	-0.995850	-0.028320	0.191406	0.084960	0.001216	-0.018251	0.644861	0.063109	-0.728104	-0.223688	99.514449	-65.618670	-112.856270
30192		9.553232	-0.065935	-1.907237	0.268120	-3.913785	-0.896856	0.719697	-1.732134	5.247973	-0.995605	0.029053	0.216553	0.095665	0.001917	-0.018240	0.643932	0.044374	-0.735883	-0.204596	103.647010	-68.366215	-116.893847
30193		10.927340	-0.147335	-1.599839	-0.339907	-3.823178	0.542140	0.597599	-1.716261	5.427706	-0.997559	0.088623	0.232666	0.109391	0.001541	-0.015058	0.642743	0.024501	-0.742945	-0.185241	108.918969	-71.079243	-122.152433
30194		12.537970	0.322345	-1.031770	-1.134793	-3.041488	2.344057	0.359217	-1.681542	5.535402	-0.988037	0.145996	0.246826	0.125307	0.006710	-0.009254	0.641295	0.003538	-0.749063	-0.166233	115.732471	-73.650740	-129.080865
30195		13.616780	0.568697	-0.708608	-1.646759	-2.219098	3.549693	0.167740	-1.701435	5.582351	-0.976318	0.196777	0.265625	0.135992	0.009490	-0.005922	0.639258	-0.018300	-0.754455	-0.147685	124.888149	-75.927526	-138.471507
30196		14.623252	0.922792	-0.723523	-1.800781	-1.222915	4.692952	0.187728	-1.795962	5.631057	-0.958008	0.249756	0.290771	0.145952	0.013346	-0.005912	0.636366	-0.040245	-0.759504	-0.128737	137.395039	-77.689443	-151.200181
30197		15.635421	0.927521	-1.087722	-1.712660	-0.509303	5.783556	0.360704	-1.917173	5.696372	-0.944092	0.304932	0.307129	0.156100	0.013742	-0.009358	0.632512	-0.061998	-0.764358	-0.108818	153.477888	-78.644493	-167.421506
30198		17.007976	0.807141	-1.513674	-1.681444	0.202513	7.194802	0.579027	-1.962832	5.759574	-0.919189	0.360352	0.330078	0.169890	0.013007	-0.013436	0.628015	-0.083203	-0.768752	-0.087717	171.186365	-78.571518	174.860590
30199		18.830221	1.232586	-1.562078	-1.974006	1.738029	8.935794	0.789796	-1.891586	5.817932	-0.894043	0.408936	0.351074	0.187973	0.017855	-0.013778	0.623305	-0.103929	-0.772260	-0.065603	-172.497308	-77.512616	158.644674
30200		20.687523	1.749124	-1.293597	-2.538596	3.659121	10.503197	0.891195	-1.771478	5.863868	-0.868896	0.462158	0.363281	0.206346	0.023599	-0.011010	0.618541	-0.124309	-0.774669	-0.042921	-159.311903	-75.696377	145.622665
30201		21.783668	1.221032	-1.566995	-2.681179	4.536995	11.413435	1.189468	-1.762090	5.862239	-0.832764	0.517334	0.377441	0.217479	0.018674	-0.013654	0.613396	-0.143708	-0.776356	-0.019087	-149.274861	-73.318162	135.912559
30202		21.958004	1.642374	-2.394206	-1.895595	6.127700	11.383615	1.798711	-1.841984	5.757829	-0.800781	0.563721	0.380859	0.219189	0.022941	-0.021735	0.607772	-0.160631	-0.777666	0.006902	-141.732669	-70.573509	129.069334
30203		21.526726	4.251103	-3.078624	-0.638679	9.640062	10.123553	2.372138	-1.885206	5.537286	-0.759766	0.607910	0.388672	0.214248	0.048798	-0.028209	0.601841	-0.174861	-0.778476	0.034443	-135.970192	-67.667130	124.352917
30204		21.431363	7.775457	-2.929366	-0.135169	14.086568	8.345890	2.603962	-1.875357	5.198125	-0.723389	0.649902	0.394287	0.212446	0.083648	-0.026232	0.595632	-0.186838	-0.778773	0.061860	-131.563824	-64.770626	121.172277
30205		22.383369	10.055713	-1.907252	-1.063254	17.658706	7.294614	2.319092	-1.717521	4.741212	-0.691162	0.689697	0.391113	0.221509	0.106024	-0.015955	0.589407	-0.197843	-0.778436	0.086571	-128.259732	-62.052449	118.958330
30206		21.023278	12.048225	-1.663864	-0.833583	19.716779	4.341630	2.037261	-1.579802	4.161482	-0.656250	0.718506	0.388428	0.207780	0.124973	-0.013733	0.583286	-0.207278	-0.777869	0.108318	-125.814494	-59.602541	117.498023
30207		18.236929	19.057601	-1.143101	0.442968	25.232333	-2.058821	1.605216	-1.372859	3.451836	-0.634766	0.738281	0.394531	0.179109	0.193763	-0.008647	0.577618	-0.215289	-0.777258	0.126009	-124.095316	-57.528609	116.555144
30208		16.664910	25.124923	0.071175	0.656105	30.039463	-7.335857	0.588540	-0.865620	2.422201	-0.617432	0.753906	0.396484	0.163583	0.253238	0.002167	0.573301	-0.222423	-0.776720	0.136232	-123.213767	-56.097368	115.907647
30209		15.497903	24.738162	-0.281093	1.207582	29.141862	-8.578006	-0.055634	-0.409087	1.171277	-0.612793	0.751953	0.407715	0.153532	0.248283	-0.002565	0.570841	-0.226902	-0.776603	0.139802	-122.995782	-55.405478	115.598768
30210		15.274368	21.743343	-1.591352	1.950534	26.407769	-7.085641	-0.066043	-0.116645	-0.117552	-0.614990	0.751953	0.409912	0.152881	0.217338	-0.015896	0.570385	-0.226537	-0.777123	0.139362	-123.168451	-55.424295	115.765448
30211		14.604493	18.891964	-0.946911	0.903128	23.624865	-6.328850	0.034653	0.104053	-1.229831	-0.621338	0.736572	0.410156	0.147198	0.188019	-0.009513	0.571664	-0.221713	-0.778189	0.135890	-123.645576	-56.044094	116.369679
30212		15.673440	15.038136	-0.653374	-0.487975	20.759652	-3.408598	0.285294	0.183078	-1.996319	-0.640869	0.725342	0.406006	0.158219	0.148816	-0.006465	0.574009	-0.213228	-0.779653	0.131104	-124.318494	-57.050052	117.374956
30213		10.666908	10.457108	-1.054110	0.155265	14.211197	-5.095334	0.862845	0.210266	-2.270194	-0.654053	0.714111	0.401855	0.107836	0.103396	-0.010206	0.577184	-0.202009	-0.780856	0.127734	-124.832838	-58.188535	118.571809
30214		15.228936	7.284302	-4.006929	1.123762	13.253631	1.327427	1.242956	0.208510	-2.627832	-0.677979	0.700928	0.397705	0.153189	0.071082	-0.039783	0.580860	-0.188259	-0.782040	0.124799	-125.391824	-59.487791	120.060028
30215		21.480753	-24.808521	-0.099462	-8.911101	-13.081582	18.933274	0.479362	0.813734	-1.578448	-0.688965	0.689697	0.391357	0.212833	-0.249765	-0.002461	0.585442	-0.181179	-0.780839	0.121332	-125.367296	-60.494363	120.351052
30216		14.358943	-17.558924	8.623283	-14.180758	-9.825731	7.251691	0.936348	0.549542	-2.014671	-0.708496	0.674072	0.380615	0.142043	-0.177425	0.085013	0.589609	-0.170879	-0.780445	0.118604	-125.579276	-61.615962	121.209075
30217		17.101696	13.582510	1.738616	-4.428631	19.199059	-0.236692	2.831720	0.079526	-3.276559	-0.730469	0.664795	0.360840	0.173216	0.132736	0.019212	0.594133	-0.149739	-0.781156	0.119914	-125.986493	-63.164945	123.501830
30218		24.732328	15.548559	-0.830216	-4.202230	23.436487	7.131925	2.252914	0.044956	-3.363421	-0.747559	0.644775	0.350098	0.249891	0.151378	-0.006637	0.597878	-0.129892	-0.782039	0.118682	-126.999055	-64.728609	126.068225
30219		17.539323	5.377019	1.550719	-5.607099	10.821934	3.984564	-0.141140	0.038298	-3.109800	-0.773682	0.620605	0.361816	0.176204	0.051045	0.015437	0.599699	-0.118145	-0.783941	0.108806	-129.457007	-66.141638	128.683550
30220		11.572938	3.566028	1.865113	-4.538698	6.833388	-0.712044	-1.035215	-0.004702	-3.192638	-0.788330	0.594238	0.362305	0.116280	0.033903	0.018475	0.600709	-0.108701	-0.786303	0.095181	-132.870078	-67.516060	131.753137
30221		7.669025	0.206897	-4.181384	2.076817	2.350462	-1.658067	-0.633369	-0.271641	-2.846557	-0.803467	0.576660	0.367188	0.076765	0.000845	-0.041714	0.600578	-0.099256	-0.788892	0.084288	-136.352197	-68.567608	135.117826
30222		5.277121	-0.031977	-8.946180	7.238784	1.406266	-2.498014	0.257088	-0.469428	-2.457896	-0.815918	0.550293	0.376709	0.052973	-0.000855	-0.089338	0.599829	-0.088569	-0.791360	0.078166	-139.387731	-69.311573	138.530859
30223		7.940148	4.913257	-8.994879	6.734153	6.750244	-1.027709	0.705875	-0.437306	-2.267308	-0.824463	0.537109	0.376953	0.080150	0.048543	-0.089602	0.599242	-0.077288	-0.793351	0.074355	-142.122776	-69.938690	141.881477
30224		11.189446	4.246423	-4.942342	1.860002	6.556594	1.196872	0.378846	0.047227	-1.896847	-0.830811	0.528320	0.368164	0.112279	0.041494	-0.049371	0.600240	-0.068628	-0.793775	0.070171	-144.289362	-70.609747	144.416183
30225		10.728209	1.480587	-3.203690	0.232795	3.529920	0.912650	0.045456	0.267658	-1.711823	-0.841553	0.510498	0.366455	0.107361	0.013894	-0.032177	0.601883	-0.061773	-0.793523	0.065126	-146.350662	-71.292934	146.626044
30226		9.437266	1.310081	-3.385029	0.767562	2.973992	-0.179375	-0.161184	0.244852	-1.657134	-0.847656	0.490723	0.366943	0.094435	0.012291	-0.033976	0.603310	-0.055747	-0.793333	0.059440	-148.625500	-71.919876	148.928490
30227		10.285014	1.323681	-1.620709	-1.130753	2.914589	0.206509	-0.548731	0.378306	-1.572505	-0.856201	0.479736	0.364990	0.102919	0.012383	-0.016436	0.605090	-0.051259	-0.792774	0.052419	-151.036074	-72.558902	151.131138
30228		10.670495	0.738357	-1.025671	-1.777510	2.215874	0.549965	-0.865582	0.387094	-1.453948	-0.862305	0.464355	0.372070	0.106734	0.006563	-0.010493	0.606747	-0.048200	-0.792183	0.044505	-153.589627	-73.140570	153.286946
30229		10.176543	-0.827728	-1.370455	-1.324848	0.453082	0.393349	-0.610792	0.185665	-1.276625	-0.870850	0.451172	0.370117	0.101697	-0.008969	-0.013772	0.607591	-0.045021	-0.792054	0.038173	-156.004739	-73.546958	155.444122
30230		9.507125	-1.284032	-1.706418	-0.836778	-0.206044	-0.106906	-0.130922	-0.075967	-1.225363	-0.872803	0.444580	0.372559	0.094997	-0.013434	-0.017019	0.607469	-0.040536	-0.792581	0.033965	-158.345695	-73.777258	157.807879
30231		9.392289	-0.869024	-2.203683	-0.328036	0.080843	-0.132227	0.078239	-0.146318	-1.209058	-0.879150	0.433594	0.375000	0.093884	-0.009249	-0.021972	0.607086	-0.035466	-0.793253	0.030639	-160.648449	-73.939857	160.253410
30232		9.911689	-0.177178	-2.737538	0.051808	0.709937	0.446911	0.146864	-0.117453	-1.160732	-0.883301	0.418213	0.373047	0.099121	-0.002327	-0.027319	0.606799	-0.030384	-0.793790	0.027735	-162.842406	-74.082255	162.625654
30233		9.874647	-0.057704	-2.308096	-0.362934	0.712993	0.296625	0.138331	-0.084220	-1.140657	-0.880859	0.411621	0.368896	0.098751	-0.001124	-0.023040	0.606620	-0.025410	-0.794197	0.024842	-165.025794	-74.215083	164.979371
30234		9.722829	-0.039953	-1.985976	-0.646160	0.611313	0.070985	0.183729	-0.141241	-1.098392	-0.894043	0.405029	0.375488	0.097238	-0.000915	-0.019792	0.606195	-0.020459	-0.794741	0.022275	-167.155392	-74.285735	167.303879
30235		10.234320	0.470288	-2.754662	-0.052900	1.054584	0.743577	0.041400	-0.135272	-1.052824	-0.895996	0.400635	0.375732	0.102385	0.004170	-0.027476	0.605757	-0.016119	-0.795253	0.019268	-169.293358	-74.331160	169.550891
30236		10.170128	0.767394	-3.202652	0.388946	1.246936	0.797227	-0.278364	0.015244	-0.964043	-0.897949	0.387451	0.378174	0.101734	0.007139	-0.032044	0.605865	-0.013117	-0.795313	0.015257	-171.394590	-74.430304	171.569557
30237		9.414565	-0.026211	-3.451635	0.831918	0.323220	0.174861	-0.485161	0.081524	-0.879604	-0.899902	0.378418	0.371826	0.094129	-0.000760	-0.034553	0.606203	-0.011080	-0.795161	0.010664	-173.452872	-74.541141	173.418844
30238		9.444756	-0.409831	-3.332418	0.715262	-0.158887	0.184247	-0.574657	0.111985	-0.844420	-0.901855	0.369873	0.376465	0.094410	-0.004593	-0.033364	0.606639	-0.009457	-0.794900	0.005830	-175.506150	-74.649408	175.209586
30239		9.651759	-0.416559	-2.993755	0.342742	-0.259938	0.292097	-0.586816	0.113623	-0.853915	-0.899414	0.361084	0.374512	0.096481	-0.004665	-0.029979	0.607065	-0.007831	-0.794613	0.000908	-177.615035	-74.741725	177.049117
30240		10.147822	-0.103541	-2.607696	-0.147817	-0.039276	0.664182	-0.631351	0.103705	-0.865341	-0.907715	0.341309	0.379395	0.101459	-0.001557	-0.026125	0.607433	-0.006296	-0.794335	-0.004214	-179.791290	-74.810190	178.932097
30241		10.124182	-0.006476	-2.231388	-0.495329	-0.040860	0.542518	-0.636787	0.090333	-0.878380	-0.909668	0.336914	0.377197	0.101230	-0.000581	-0.022358	0.607729	-0.004725	-0.794074	-0.009407	177.983100	-74.851895	-179.138253
30242		10.064705	0.578492	-2.373660	-0.325117	0.438207	0.529874	-0.665590	0.053573	-0.864516	-0.909424	0.325928	0.379639	0.100664	0.005271	-0.023782	0.607862	-0.003299	-0.793901	-0.014661	175.771049	-74.853390	-177.239197
30243		9.822377	0.833872	-2.796436	0.158425	0.581349	0.416219	-0.766990	0.059734	-0.837194	-0.915771	0.319336	0.382080	0.098249	0.007820	-0.028024	0.608000	-0.002288	-0.793675	-0.020244	173.555322	-74.840686	-175.397199
30244		9.791154	0.742242	-2.733565	0.110876	0.389271	0.371874	-0.858992	0.066809	-0.806018	-0.919922	0.306152	0.386719	0.097931	0.006910	-0.027399	0.608149	-0.001681	-0.793393	-0.026087	171.359445	-74.815852	-173.629493
30245		9.768139	0.483258	-2.324621	-0.279877	0.048033	0.235819	-0.895288	0.066670	-0.796818	-0.917480	0.299561	0.389160	0.097692	0.004339	-0.023299	0.608276	-0.001219	-0.793077	-0.032054	169.166879	-74.774074	-171.887198
30246		9.902120	0.443995	-2.023238	-0.602758	-0.079639	0.285437	-0.886570	0.047834	-0.822237	-0.919434	0.290771	0.387207	0.099033	0.003943	-0.020274	0.608302	-0.000635	-0.792792	-0.038054	166.952712	-74.701276	-170.116152
