// General information: 
//  MT Manager version: 2019.2.0 
//  XDA version: 2019.2.0 build 3853 rev 94535 built on 2019-09-09
// Device information: 
//  DeviceId: 00B40ACF
//  ProductCode: MTW2-3A7G6
//  Firmware Version: 4.3.5
//  Hardware Version: 1.1.0
// Device settings: 
//  Filter Profile: human(46.1)
//  Option Flags: Orientation Smoother Disabled, AHS Disabled, ICC Disabled
// Coordinate system: ENU
PacketCounter	SampleTimeFine	Acc_X	Acc_Y	Acc_Z	FreeAcc_E	FreeAcc_N	FreeAcc_U	Gyr_X	Gyr_Y	Gyr_Z	Mag_X	Mag_Y	Mag_Z	VelInc_X	VelInc_Y	VelInc_Z	Quat_q0	Quat_q1	Quat_q2	Quat_q3	Roll	Pitch	Yaw
08670		10.472434	-0.722133	-0.817067	0.532534	1.710048	0.562890	0.630013	0.025218	0.670000	-0.800049	0.487305	-0.492676	0.104747	-0.006845	-0.008206	0.006583	-0.753577	-0.071626	-0.653412	150.183656	-80.311211	36.179457
08671		9.992829	-0.555296	-0.527892	0.773564	1.456947	0.072770	0.702619	0.035293	0.553903	-0.804688	0.491699	-0.501465	0.099942	-0.005258	-0.005315	0.011135	-0.753661	-0.071674	-0.653249	152.282199	-80.488538	34.454802
08672		10.104380	0.407872	-0.310162	1.123474	0.482266	0.230523	0.725024	0.055983	0.463859	-0.802734	0.493896	-0.503662	0.101033	0.004324	-0.003115	0.015435	-0.753624	-0.072172	-0.653149	154.110142	-80.639935	33.016844
08673		10.267755	0.851275	-0.504877	1.016488	-0.013618	0.452437	0.694219	0.062769	0.374181	-0.800537	0.498535	-0.516846	0.102660	0.008722	-0.005051	0.019377	-0.753524	-0.072867	-0.653082	155.714739	-80.769178	31.789313
08674		10.382396	0.541879	-0.388321	1.109548	0.275209	0.528087	0.644878	0.044724	0.326329	-0.798584	0.502930	-0.516846	0.103814	0.005601	-0.003889	0.022920	-0.753458	-0.073620	-0.652960	157.156530	-80.869589	30.697049
08675		10.326025	-0.236934	-0.520129	0.867321	0.984944	0.445530	0.566350	0.001502	0.292342	-0.802734	0.498535	-0.514648	0.103264	-0.002204	-0.005208	0.026089	-0.753521	-0.074211	-0.652701	158.564329	-80.938385	29.595262
08676		10.330311	-0.778931	-0.812894	0.506183	1.444983	0.465375	0.532859	-0.017302	0.292305	-0.805420	0.507324	-0.519043	0.103315	-0.007617	-0.008140	0.029076	-0.753641	-0.074733	-0.652376	159.953782	-80.989950	28.491446
08677		10.170679	-0.684254	-1.215700	0.111534	1.246440	0.376655	0.481799	-0.073675	0.264668	-0.800781	0.505127	-0.519043	0.101720	-0.006679	-0.012136	0.031807	-0.753936	-0.075162	-0.651858	161.339328	-81.004428	27.363416
08678		10.015680	0.033457	-1.906274	-0.461014	0.391017	0.364900	0.540057	-0.091705	0.267612	-0.803223	0.511719	-0.516846	0.100165	0.000520	-0.019016	0.034713	-0.754275	-0.075810	-0.651243	162.750282	-81.002589	26.242126
08679		9.721461	0.778573	-2.475015	-0.919112	-0.491337	0.194925	0.631885	-0.113873	0.295711	-0.798828	0.511963	-0.521240	0.097217	0.008008	-0.024670	0.038095	-0.754672	-0.076617	-0.650498	164.373111	-80.991023	24.960919
08680		9.817651	0.678660	-2.690471	-1.106279	-0.467772	0.318578	0.683985	-0.143492	0.359878	-0.803223	0.511719	-0.523438	0.098183	0.007055	-0.026810	0.041822	-0.755170	-0.077393	-0.649600	166.230309	-80.963936	23.471213
08681		9.739058	1.425395	-2.789121	-1.051177	-1.280087	0.282668	0.764235	-0.197119	0.421007	-0.798828	0.509766	-0.519043	0.097388	0.014565	-0.027740	0.046076	-0.755835	-0.078173	-0.648443	168.416208	-80.908326	21.696377
08682		9.629613	2.411581	-3.003982	-1.053531	-2.354417	0.232973	0.729124	-0.254989	0.507996	-0.799072	0.516357	-0.523438	0.096272	0.024469	-0.029828	0.050410	-0.756714	-0.078557	-0.647048	170.854039	-80.816081	19.644297
08683		9.404394	2.449919	-2.958865	-0.980631	-2.467149	-0.007055	0.743702	-0.268050	0.642129	-0.803711	0.522949	-0.525879	0.094004	0.024911	-0.029371	0.055326	-0.757660	-0.078516	-0.645543	173.762211	-80.712883	17.134896
08684		9.194372	2.467956	-2.318693	-0.332759	-2.454508	-0.332841	0.656695	-0.271330	0.795733	-0.803955	0.529541	-0.521484	0.091876	0.025121	-0.022980	0.060305	-0.758685	-0.077578	-0.644004	177.049048	-80.592188	14.179118
08685		9.702271	1.648701	-1.805895	0.138310	-1.621787	0.059660	0.489447	-0.274985	0.958163	-0.799805	0.540771	-0.525879	0.096967	0.016996	-0.017884	0.065266	-0.759807	-0.075519	-0.642441	-179.259388	-80.442658	10.725950
08686		10.714659	1.192879	-0.875812	1.163008	-1.067330	0.887818	0.352619	-0.217398	1.114527	-0.797852	0.547363	-0.530273	0.107087	0.012541	-0.008620	0.070133	-0.760828	-0.072370	-0.641081	-175.266119	-80.283785	6.874441
08687		11.289576	1.163077	-0.085056	2.066719	-0.996037	1.302589	0.259813	-0.180621	1.250077	-0.793701	0.556396	-0.521484	0.112821	0.012337	-0.000733	0.075185	-0.761776	-0.068430	-0.639814	-170.979331	-80.090159	2.680278
08688		11.598255	1.188191	-0.031008	2.226142	-1.151353	1.573658	0.191746	-0.153434	1.351953	-0.785156	0.567627	-0.519531	0.115899	0.012666	-0.000209	0.080217	-0.762668	-0.063833	-0.638614	-166.607393	-79.847505	-1.653953
08689		11.807452	1.414935	-0.421649	1.981661	-1.614011	1.808896	0.146007	-0.143878	1.450889	-0.781250	0.581055	-0.523926	0.117971	0.015008	-0.004121	0.085480	-0.763534	-0.058746	-0.637384	-162.156956	-79.536762	-6.087181
08690		12.204511	0.950113	-0.750003	1.693768	-1.409525	2.252001	0.157845	-0.092221	1.535454	-0.777344	0.596680	-0.521729	0.121971	0.010444	-0.007436	0.090976	-0.764217	-0.053308	-0.636282	-157.711907	-79.177540	-10.523990
08691		12.973803	0.970111	-0.537107	2.090619	-1.607843	2.938374	0.216600	-0.010555	1.619234	-0.773438	0.609863	-0.515381	0.129654	0.010757	-0.005353	0.097068	-0.764578	-0.047738	-0.635389	-153.195805	-78.776834	-14.993381
08692		13.492630	1.635535	-0.498354	2.395039	-2.493163	3.340937	0.289530	0.083338	1.696458	-0.762695	0.621338	-0.517578	0.134779	0.017506	-0.005015	0.103611	-0.764578	-0.042014	-0.634760	-148.675006	-78.336935	-19.442582
08693		13.344966	2.131729	-0.640452	2.359919	-3.230571	3.111388	0.303373	0.138449	1.802305	-0.756592	0.636963	-0.521973	0.133246	0.022528	-0.006463	0.110631	-0.764347	-0.035941	-0.634226	-144.161052	-77.820148	-23.873267
08694		13.721405	2.048829	-0.305987	2.762764	-3.359421	3.364709	0.285253	0.226588	1.909948	-0.750732	0.663818	-0.531006	0.137006	0.021802	-0.003185	0.117844	-0.763805	-0.029304	-0.633922	-139.708267	-77.236704	-28.272229
08695		14.264869	2.034635	-0.640165	2.558766	-3.751708	3.876942	0.259151	0.333691	2.045411	-0.735352	0.668457	-0.528564	0.142420	0.021812	-0.006612	0.125416	-0.762872	-0.021980	-0.633888	-135.248939	-76.572416	-32.703106
08696		14.390495	1.954727	-1.155301	2.076870	-4.107306	4.009386	0.339172	0.429172	2.192272	-0.725098	0.697510	-0.526611	0.143654	0.021143	-0.011826	0.133728	-0.761518	-0.014307	-0.634037	-130.814614	-75.809856	-37.075218
08697		14.429050	2.343594	-1.012001	2.293403	-4.783489	3.846091	0.595213	0.537201	2.329260	-0.716553	0.710938	-0.535400	0.143977	0.025145	-0.010434	0.143460	-0.759543	-0.006834	-0.634403	-126.333801	-74.944253	-41.358558
08698		14.530826	3.931015	-0.655525	2.954399	-6.581259	3.415093	0.834910	0.649863	2.433102	-0.706055	0.726807	-0.546387	0.144794	0.041102	-0.006857	0.154389	-0.756924	0.000338	-0.635003	-121.921661	-73.986061	-45.447393
08699		14.601185	6.570478	-1.843052	2.337285	-9.727519	2.822976	0.975934	0.753512	2.504904	-0.688965	0.749268	-0.553223	0.145103	0.067617	-0.018652	0.166068	-0.753716	0.007426	-0.635829	-117.682675	-72.940809	-49.291067
08700		15.188935	8.074294	-2.996455	1.638696	-11.906050	2.852918	1.032881	0.867306	2.589524	-0.671631	0.767578	-0.564209	0.150695	0.082855	-0.030196	0.178175	-0.749950	0.014734	-0.636876	-113.655409	-71.805219	-52.901724
08701		15.252282	6.411718	-3.623577	0.700938	-10.896765	3.134132	1.123627	0.913894	2.745730	-0.656494	0.781250	-0.575195	0.151455	0.066406	-0.036561	0.191082	-0.745762	0.022379	-0.637829	-109.871056	-70.524565	-56.225335
08702		15.436437	6.829666	-3.864104	0.599908	-11.797141	2.848315	1.533695	0.963026	2.875034	-0.636963	0.803711	-0.592773	0.153172	0.070802	-0.038844	0.205867	-0.740822	0.029237	-0.638708	-106.180788	-69.115163	-59.226722
08703		16.666616	10.156664	-3.149414	2.294390	-15.421489	2.341801	1.996525	1.087596	2.933663	-0.617188	0.817627	-0.608154	0.164979	0.104308	-0.031362	0.222467	-0.734755	0.034947	-0.639861	-102.468062	-67.628138	-61.995756
08704		17.680304	13.908329	-4.237671	2.422378	-19.827981	1.364101	1.931048	1.108383	3.190603	-0.600098	0.840088	-0.625977	0.174317	0.142284	-0.041984	0.239566	-0.728390	0.041827	-0.640552	-99.116718	-65.937683	-64.444569
08705		17.790553	12.139777	-4.545822	1.800069	-18.811297	1.473423	1.036807	1.003581	3.665113	-0.573486	0.851807	-0.636719	0.175409	0.124864	-0.045701	0.254841	-0.723048	0.053138	-0.639870	-96.695388	-63.926456	-66.468018
08706		18.872999	5.987581	-2.548339	2.365559	-13.852913	4.363930	0.422722	1.080839	4.084216	-0.545410	0.879150	-0.647949	0.187313	0.063766	-0.026366	0.269126	-0.717828	0.068022	-0.638488	-94.808313	-61.646779	-68.323900
08707		19.786570	3.599642	-2.843518	1.618757	-12.975951	5.727201	0.330211	1.263741	4.236601	-0.510010	0.895264	-0.652344	0.196859	0.040222	-0.029617	0.283345	-0.711756	0.083933	-0.637239	-93.060411	-59.266583	-70.122175
08708		20.428995	3.339005	-2.918974	1.523975	-13.801226	5.812301	0.064280	1.413587	4.373971	-0.475098	0.922607	-0.661133	0.203282	0.037853	-0.030617	0.296877	-0.705160	0.101378	-0.635874	-91.574971	-56.782011	-71.836487
08709		19.983367	1.791891	-3.764530	0.194108	-13.278913	5.688299	-0.272964	1.282991	4.392702	-0.446533	0.938721	-0.661133	0.199130	0.022245	-0.038953	0.309149	-0.699101	0.119675	-0.633532	-90.601384	-54.273228	-73.214408
08710		17.584977	5.410004	-4.187252	0.116249	-15.442853	1.026618	-0.724580	0.922722	4.014463	-0.411377	0.957031	-0.656738	0.174523	0.057458	-0.042884	0.318750	-0.694763	0.137504	-0.629918	-90.298013	-51.964345	-74.120047
08711		15.255888	5.952601	-3.659278	0.247131	-14.681879	-1.693555	-1.313858	0.631400	3.516398	-0.389648	0.977539	-0.652344	0.151366	0.061950	-0.037474	0.324758	-0.692354	0.154892	-0.625450	-90.595667	-49.947968	-74.714368
08712		11.863550	5.924253	-2.188606	0.977396	-12.389542	-4.697796	-1.441433	0.480280	2.877173	-0.367676	0.986816	-0.639160	0.117715	0.060779	-0.022604	0.328389	-0.690888	0.170219	-0.621176	-91.085308	-48.290739	-75.167015
08713		6.999578	4.358121	-1.655977	0.298457	-8.094632	-7.551243	-1.079501	0.584873	2.272254	-0.349854	0.991455	-0.639160	0.069446	0.044281	-0.017001	0.331172	-0.688884	0.182412	-0.618458	-91.316370	-46.993164	-75.700332
08714		4.491944	-11.432195	-2.980495	-3.942162	4.404708	1.359138	-0.055245	0.751798	1.990756	-0.334473	0.998535	-0.641357	0.045942	-0.113876	-0.029945	0.336471	-0.684809	0.190774	-0.617599	-90.881578	-45.848039	-76.352430
08715		14.140882	-3.643471	-3.516447	-1.695798	-7.922913	2.834444	1.095315	0.508158	1.534553	-0.321045	1.000977	-0.654541	0.141592	-0.035154	-0.035719	0.344441	-0.679933	0.193536	-0.617734	-89.962044	-44.968045	-76.771802
08716		7.244068	6.322688	-3.466363	-1.150589	-10.138969	-9.225559	1.178351	0.428177	0.787617	-0.314209	1.003418	-0.667480	0.072117	0.063715	-0.034444	0.350495	-0.675814	0.193405	-0.618888	-89.056972	-44.501818	-77.106959
08717		0.155136	10.561691	-2.366498	-0.415792	-7.840591	-17.264227	0.716876	0.334798	-0.164647	-0.323242	1.000977	-0.674072	0.001599	0.105700	-0.023289	0.352057	-0.673714	0.191254	-0.620957	-88.466109	-44.590102	-77.373661
08718		-2.117352	10.100892	-1.312558	0.218554	-5.740317	-18.486446	-0.028064	0.126912	-1.030039	-0.334229	0.996338	-0.674316	-0.020661	0.101114	-0.013127	0.348679	-0.674360	0.188190	-0.623094	-88.403323	-45.165257	-77.493895
08719		-1.719343	6.933683	-1.138466	-0.122026	-3.894774	-15.907174	-0.500918	-0.057273	-1.671400	-0.349609	0.987305	-0.661133	-0.016610	0.069448	-0.011563	0.341795	-0.676999	0.184042	-0.625281	-88.710281	-46.122239	-77.475909
08720		-0.262070	4.385217	-1.010266	-0.246450	-3.156099	-13.021570	-0.613871	-0.180723	-2.124948	-0.363037	0.986816	-0.658936	-0.002146	0.043845	-0.010239	0.333260	-0.680543	0.178548	-0.627631	-89.157607	-47.328621	-77.352826
08721		0.691308	3.872087	-1.003829	-0.200014	-3.480185	-11.892594	-0.573858	-0.275291	-2.544406	-0.382813	0.975342	-0.652344	0.007419	0.038600	-0.010139	0.323509	-0.684616	0.171251	-0.630330	-89.656643	-48.787036	-77.133659
08722		1.065556	3.790465	-0.838060	-0.004902	-3.674808	-11.455818	-0.497323	-0.318908	-3.001584	-0.411621	0.963623	-0.645752	0.011236	0.037718	-0.008457	0.312622	-0.688932	0.162109	-0.633530	-90.163280	-50.494208	-76.850621
08723		1.595976	3.651891	-0.786842	0.097674	-3.930215	-10.834853	-0.220007	-0.274673	-3.430646	-0.440186	0.947754	-0.650146	0.016594	0.036229	-0.007886	0.301140	-0.692864	0.150570	-0.637638	-90.513801	-52.458097	-76.573096
08724		1.997181	4.114230	-0.237497	0.781437	-4.433781	-10.649616	0.128211	-0.190071	-3.785950	-0.468750	0.931641	-0.650146	0.020748	0.040756	-0.002329	0.289644	-0.696021	0.136836	-0.642602	-90.627145	-54.613165	-76.348275
08725		2.399898	4.366933	0.484474	1.601406	-4.719527	-10.284211	0.147055	-0.157430	-4.147151	-0.497314	0.911133	-0.645752	0.024894	0.043156	0.004896	0.276839	-0.699042	0.121708	-0.647988	-90.730291	-56.987652	-76.130609
08726		3.564712	3.634458	0.871627	1.997342	-4.630479	-8.698605	0.036629	-0.122572	-4.474891	-0.527832	0.885986	-0.641357	0.036443	0.035533	0.008745	0.262516	-0.701957	0.105855	-0.653557	-90.892508	-59.537382	-75.922264
08727		4.385148	2.968578	0.830180	1.916187	-4.402058	-7.430257	-0.004502	-0.110965	-4.778311	-0.553711	0.858887	-0.643311	0.044539	0.028627	0.008326	0.246830	-0.704693	0.088956	-0.659219	-91.109867	-62.273662	-75.684866
08728		4.865556	3.342009	0.845517	2.036678	-4.809106	-6.936154	-0.093572	-0.115082	-5.120777	-0.583984	0.827148	-0.634521	0.049485	0.032164	0.008468	0.229634	-0.707258	0.071159	-0.664824	-91.441472	-65.192495	-75.381637
08729		5.793037	4.132479	0.750052	2.166363	-5.736734	-6.127116	-0.259663	-0.126834	-5.485915	-0.614258	0.797852	-0.627930	0.059030	0.039725	0.007485	0.210396	-0.709700	0.052483	-0.670302	-91.995648	-68.332586	-74.948482
08730		7.063727	4.344134	0.959749	2.477437	-6.091963	-4.672670	-0.472170	-0.146941	-5.869918	-0.644043	0.757324	-0.625488	0.071865	0.041367	0.009551	0.189038	-0.711948	0.033170	-0.675496	-92.906249	-71.676148	-74.274082
08731		8.754485	3.744426	0.962295	2.412458	-5.683258	-2.502427	-0.715067	-0.214255	-6.212802	-0.680664	0.716553	-0.620850	0.088642	0.034736	0.009590	0.165405	-0.714063	0.013282	-0.680131	-94.525347	-75.221590	-73.020620
08732		10.994155	2.246487	0.583945	1.791325	-4.353937	0.387784	-0.995165	-0.339569	-6.523328	-0.708252	0.671631	-0.603271	0.110587	0.018894	0.005927	0.139646	-0.716113	-0.006798	-0.683838	-97.683454	-78.905076	-70.373031
08733		13.459136	1.081465	0.048649	1.071989	-3.026714	3.299924	-1.147334	-0.486137	-6.759002	-0.731201	0.626709	-0.598633	0.134853	0.006264	0.000769	0.112277	-0.717953	-0.027380	-0.686431	-104.690377	-82.656977	-63.951554
08734		16.422623	0.104560	-0.063483	0.818593	-1.436270	6.523656	-1.291845	-0.590689	-6.916334	-0.756104	0.570801	-0.580811	0.164132	-0.004634	-0.000132	0.083797	-0.719342	-0.047971	-0.687913	-125.910114	-86.137640	-43.391364
08735		19.731835	-0.914800	-0.185303	0.560712	0.652426	9.918337	-1.568676	-0.680502	-7.028894	-0.776855	0.528076	-0.567383	0.196839	-0.016083	-0.001075	0.053707	-0.720206	-0.068076	-0.688320	160.684954	-87.165774	29.198233
08736		22.902404	-1.588592	-1.035431	-0.343199	2.750155	12.995486	-1.844707	-0.737072	-6.975859	-0.786133	0.476807	-0.549561	0.228318	-0.023948	-0.009316	0.022815	-0.720423	-0.086881	-0.687693	121.515685	-84.168118	67.393355
08737		25.568451	-4.411351	-2.480500	-2.136230	7.257216	15.124098	-2.210191	-0.770775	-6.836178	-0.800293	0.434326	-0.538330	0.254064	-0.053080	-0.023270	-0.009054	-0.719902	-0.103898	-0.686195	110.474960	-80.437741	77.242842
08738		29.156862	-10.398926	-2.368946	-2.614320	15.531088	16.934901	-2.427259	-0.724306	-6.663068	-0.818359	0.382813	-0.524902	0.287964	-0.113892	-0.021300	-0.040978	-0.718392	-0.119336	-0.684100	105.271665	-76.686214	81.123912
08739		30.487630	-12.149917	-1.075407	-1.398660	19.421506	16.621654	-0.990291	-0.316481	-6.156486	-0.823730	0.347168	-0.524658	0.300960	-0.130854	-0.009643	-0.065807	-0.715262	-0.137888	-0.681951	102.240819	-73.215706	83.665625
08740		26.201104	-13.129227	-1.962515	-2.576819	20.437207	11.120163	-0.394939	-0.100598	-5.546022	-0.833496	0.309326	-0.518066	0.258246	-0.138527	-0.019226	-0.086136	-0.711409	-0.156169	-0.679771	100.320841	-70.099840	85.442951
08741		25.514157	-14.533053	-5.229356	-6.096308	22.252589	9.082207	-0.237686	0.028420	-4.799823	-0.839111	0.278076	-0.515625	0.251548	-0.151459	-0.052152	-0.103277	-0.707272	-0.172335	-0.677791	98.959771	-67.393904	86.748933
08742		21.674117	-19.188228	-6.987803	-8.500199	25.613149	2.771844	-0.231012	-0.013125	-4.231920	-0.847412	0.258057	-0.517578	0.212620	-0.196491	-0.069639	-0.118388	-0.703427	-0.186353	-0.675609	98.037320	-65.006920	87.605717
08743		20.466584	-27.184182	-9.749977	-12.234282	32.431024	-2.646585	0.588784	-0.033807	-3.617559	-0.846191	0.229248	-0.515381	0.199725	-0.275196	-0.098273	-0.128555	-0.700425	-0.200929	-0.672685	97.829653	-62.957657	88.204657
08744		17.262408	-26.622664	-8.778209	-11.637709	30.588708	-6.257823	1.903698	-0.056833	-2.725969	-0.852295	0.215820	-0.515137	0.169007	-0.267695	-0.090277	-0.131063	-0.699041	-0.216696	-0.668735	98.563045	-61.419422	88.601959
08745		13.699833	-23.337497	-5.060866	-8.093080	26.288062	-8.654706	2.134623	-0.052264	-1.761976	-0.851563	0.195801	-0.515137	0.134952	-0.234012	-0.053069	-0.129513	-0.698680	-0.229829	-0.665020	99.558481	-60.428470	88.855960
08746		15.176004	-22.310975	-1.685620	-5.062310	26.446541	-7.390426	1.946692	0.040994	-0.624666	-0.851563	0.195801	-0.512939	0.151059	-0.223404	-0.019061	-0.124704	-0.699088	-0.238382	-0.662494	100.527708	-60.092282	89.017400
08747		18.486993	-14.638508	-0.126670	-2.553485	21.708018	-0.963557	1.743638	-0.029095	-0.227557	-0.849365	0.195801	-0.519531	0.184704	-0.146577	-0.002517	-0.119343	-0.700025	-0.244799	-0.660148	101.519285	-59.975355	89.020260
08748		17.698137	-16.641512	4.261726	1.185284	23.658656	-2.943804	0.833004	0.232485	1.093261	-0.845215	0.204834	-0.523926	0.177937	-0.165619	0.041720	-0.112501	-0.701116	-0.243738	-0.660585	101.995942	-60.627712	89.014103
08749		18.050343	-15.613615	2.696541	-0.181645	22.568878	-1.599250	-0.269275	0.279441	2.176975	-0.841309	0.222656	-0.519531	0.182226	-0.154123	0.026920	-0.105838	-0.702706	-0.235215	-0.663081	102.038374	-61.898310	88.784272
08750		16.762328	21.730649	6.471145	10.728680	-10.143749	14.209017	0.916355	0.653878	2.412671	-0.848633	0.235840	-0.530762	0.165201	0.219011	0.065170	-0.093810	-0.703837	-0.229984	-0.665523	102.427480	-63.340577	88.930642
08751		10.392122	24.501022	10.557782	15.242472	-15.194976	9.069083	-0.756164	-0.082283	1.625157	-0.842529	0.251465	-0.526367	0.101880	0.246241	0.104691	-0.091080	-0.705646	-0.221551	-0.666846	102.505028	-64.257598	88.355577
08752		14.667546	-5.720406	6.871675	5.966348	12.408066	0.458685	-2.370098	-0.321550	2.044093	-0.840820	0.262695	-0.524170	0.147133	-0.054880	0.069613	-0.092940	-0.707854	-0.206147	-0.669185	102.066492	-65.374681	87.332971
08753		16.336139	-10.859777	-0.881592	-2.168578	16.313511	0.897882	-2.203873	-0.583008	2.709677	-0.839355	0.287109	-0.513428	0.164836	-0.106456	-0.007156	-0.092191	-0.711499	-0.188730	-0.670560	102.287103	-66.839659	85.704337
08754		11.496436	-0.981848	-0.240476	0.011665	5.250229	0.464344	-1.129791	-0.468585	2.559556	-0.831299	0.309326	-0.507080	0.115083	-0.008359	-0.002085	-0.088028	-0.714927	-0.175484	-0.671071	103.059747	-68.223528	84.161349
08755		10.430313	-2.618121	-1.577306	-1.470110	5.992768	-0.865421	-0.762563	-0.362855	2.491779	-0.829590	0.320313	-0.507080	0.104647	-0.024938	-0.015487	-0.082624	-0.717969	-0.163685	-0.671491	104.024711	-69.581869	82.652964
08756		14.352542	-5.904420	-8.015585	-7.944069	9.568644	2.452227	-0.879423	-0.646177	2.494120	-0.827881	0.335938	-0.500488	0.144507	-0.057596	-0.079435	-0.077895	-0.721782	-0.151379	-0.670856	105.543623	-70.880969	80.497296
08757		17.297744	-3.049594	-7.363881	-6.625950	7.637977	6.326773	-0.720432	-0.652206	2.487049	-0.822021	0.355957	-0.494141	0.173580	-0.028604	-0.072968	-0.072552	-0.725544	-0.139556	-0.669959	107.433613	-72.160856	78.064204
08758		11.523248	0.741212	-3.020140	-2.146979	2.365036	1.687123	-0.150782	-0.483559	2.570271	-0.820313	0.369385	-0.489746	0.115197	0.008870	-0.029929	-0.064787	-0.728871	-0.129421	-0.669179	109.732265	-73.479936	75.561723
08759		5.725632	1.399616	-3.690195	-3.093378	-0.102804	-3.585418	-0.621801	-0.672619	2.123203	-0.820801	0.380371	-0.485352	0.057228	0.014489	-0.036754	-0.060288	-0.732283	-0.119211	-0.667769	112.179145	-74.497303	72.640725
08760		8.926924	-0.811521	-5.581460	-4.868126	2.609486	-0.813168	-0.834098	-0.543188	1.964781	-0.819092	0.393799	-0.485596	0.089496	-0.007469	-0.055540	-0.057069	-0.735001	-0.108942	-0.666820	114.447132	-75.418795	69.791342
08761		8.664404	-0.356177	-2.923493	-2.158987	2.147424	-1.183013	-0.518788	-0.281418	1.758937	-0.812744	0.406982	-0.474609	0.086712	-0.002875	-0.029105	-0.053170	-0.736757	-0.100499	-0.666530	116.492121	-76.277090	67.371264
08762		8.256940	0.627734	-2.110607	-1.278685	1.023213	-1.425636	-0.371227	-0.283928	1.487426	-0.813477	0.422607	-0.474609	0.082550	0.006852	-0.021001	-0.049687	-0.738356	-0.093584	-0.666036	118.573950	-76.967680	65.006660
08763		9.452618	1.842868	-2.086018	-1.018218	-0.036402	-0.011654	-0.432096	-0.423140	1.341762	-0.811035	0.420410	-0.472412	0.094444	0.019018	-0.020701	-0.046919	-0.740305	-0.086919	-0.664976	121.002845	-77.530992	62.258059
08764		9.936479	1.805106	-1.782882	-0.625572	-0.009355	0.423425	-0.636821	-0.582365	1.260276	-0.813721	0.427002	-0.463867	0.099300	0.018621	-0.017598	-0.045304	-0.742643	-0.079878	-0.663361	123.756098	-77.971436	59.061242
08765		9.885119	0.618565	-1.323269	-0.186630	1.051829	0.122439	-0.746036	-0.616712	1.239407	-0.807373	0.440430	-0.459473	0.098851	0.006750	-0.012952	-0.044117	-0.745029	-0.072496	-0.661611	126.733418	-78.362282	55.578146
08766		9.984163	-0.796091	-0.006102	1.124485	2.387884	-0.150941	-0.747593	-0.509556	1.208688	-0.814453	0.449219	-0.457275	0.099887	-0.007357	0.000222	-0.043054	-0.746991	-0.065287	-0.660219	129.597257	-78.734648	52.213056
08767		11.060164	-0.629757	0.710667	2.030725	2.279896	0.859963	-0.687712	-0.407151	1.136619	-0.805908	0.455811	-0.450684	0.110620	-0.005644	0.007352	-0.041912	-0.748575	-0.058518	-0.659131	132.364391	-79.086340	48.987370
08768		11.314666	-0.231014	0.899439	2.312769	1.794854	1.156001	-0.636872	-0.354539	1.080208	-0.806152	0.462646	-0.450928	0.113141	-0.001670	0.009201	-0.040805	-0.749933	-0.052181	-0.658189	135.077687	-79.400429	45.848074
08769		10.555430	-1.211254	1.350443	2.684199	2.548049	0.237650	-0.534733	-0.333525	0.981537	-0.803955	0.467041	-0.444336	0.105589	-0.011558	0.013712	-0.039576	-0.751197	-0.046508	-0.657248	137.783555	-79.661046	42.780442
08770		10.414768	-1.657407	0.445363	1.806784	2.868549	0.183250	-0.311948	-0.365015	0.906498	-0.802002	0.475830	-0.442139	0.104213	-0.016095	0.004669	-0.037819	-0.752557	-0.041885	-0.656105	140.596177	-79.848231	39.734573
08771		9.916833	-0.199081	-1.482513	-0.111593	1.277454	0.133976	-0.038709	-0.295276	0.805804	-0.802490	0.484619	-0.439941	0.099197	-0.001594	-0.014678	-0.035292	-0.753708	-0.038505	-0.655130	143.311713	-80.009428	36.949638
08772		9.271325	0.493206	-2.459526	-1.133645	0.447293	-0.285658	0.192930	-0.211358	0.726618	-0.793457	0.482666	-0.444336	0.092720	0.005293	-0.024492	-0.032192	-0.754590	-0.036241	-0.654404	145.829288	-80.156953	34.500045
08773		9.662322	-0.144505	-2.005201	-0.617275	1.045177	-0.018387	0.269603	-0.158653	0.678381	-0.802734	0.493652	-0.442139	0.096643	-0.001090	-0.019977	-0.028893	-0.755298	-0.034374	-0.653841	148.275722	-80.300076	32.169967
08774		9.777231	0.001804	-1.610981	-0.192772	0.839570	0.058841	0.279102	-0.133593	0.646890	-0.791748	0.500488	-0.446533	0.097782	0.000357	-0.016044	-0.025714	-0.755902	-0.032704	-0.653361	150.613885	-80.426360	29.954493
08775		9.801157	0.046034	-1.297527	0.136448	0.730549	0.046102	0.204594	-0.131522	0.611291	-0.796387	0.500488	-0.444336	0.098018	0.000773	-0.012910	-0.022876	-0.756482	-0.030882	-0.652884	152.900339	-80.531998	27.750583
08776		9.948236	0.169718	-1.128719	0.341312	0.557209	0.179456	0.237914	-0.122232	0.560753	-0.796387	0.500488	-0.448730	0.099484	0.001989	-0.011224	-0.020131	-0.757012	-0.029403	-0.652429	155.032968	-80.612829	25.720889
08777		10.112256	-0.015052	-1.178500	0.327495	0.691651	0.339203	0.396006	-0.130693	0.520476	-0.785400	0.509521	-0.453125	0.101130	0.000136	-0.011719	-0.016865	-0.757577	-0.028550	-0.651903	157.218848	-80.669768	23.731069
08778		10.020895	-0.416031	-0.968602	0.526734	1.031057	0.196750	0.596072	-0.128058	0.477458	-0.790283	0.518311	-0.453369	0.100225	-0.003892	-0.009634	-0.013036	-0.758128	-0.028553	-0.651350	159.350287	-80.704572	21.911201
08779		9.883326	0.015328	-0.423476	1.069896	0.548831	0.006356	0.718598	-0.124193	0.435984	-0.790527	0.522705	-0.446777	0.098835	0.000384	-0.004172	-0.008823	-0.758661	-0.029071	-0.650776	161.469625	-80.724560	20.176493
08780		10.009401	0.631871	-0.385015	1.164180	-0.105185	0.155715	0.741117	-0.135595	0.406145	-0.788330	0.527344	-0.455566	0.100083	0.006536	-0.003758	-0.004677	-0.759209	-0.029816	-0.650147	163.471368	-80.721346	18.572429
08781		10.118104	0.902063	-0.889935	0.716025	-0.433133	0.350048	0.616715	-0.187136	0.404264	-0.786133	0.527344	-0.453369	0.101171	0.009252	-0.008776	-0.000964	-0.759911	-0.030121	-0.649328	165.484614	-80.682006	16.885975
08782		10.088413	0.509548	-1.201739	0.412984	-0.104701	0.350880	0.548289	-0.214932	0.446806	-0.783936	0.527344	-0.455566	0.100885	0.005354	-0.011895	0.002570	-0.760696	-0.030083	-0.648406	167.560324	-80.621747	15.094655
08783		9.923603	0.524589	-1.655554	-0.031435	-0.204600	0.259589	0.487317	-0.234369	0.530827	-0.779785	0.536377	-0.455566	0.099241	0.005549	-0.016426	0.006193	-0.761548	-0.029488	-0.647407	169.915549	-80.549983	12.985815
08784		9.940763	0.407272	-1.946586	-0.292226	-0.169172	0.319405	0.440499	-0.234856	0.666793	-0.775146	0.536377	-0.457764	0.099416	0.004447	-0.019340	0.010026	-0.762408	-0.028263	-0.646401	172.623055	-80.473690	10.490601
08785		9.740279	1.706637	-2.134399	-0.406093	-1.565599	0.173532	0.434939	-0.212191	0.815860	-0.780273	0.547363	-0.457764	0.097355	0.017510	-0.021203	0.014373	-0.763203	-0.026412	-0.645459	175.820547	-80.398362	7.496261
08786		9.799545	2.685946	-2.268485	-0.438355	-2.644820	0.247294	0.359009	-0.211239	0.950188	-0.771484	0.556396	-0.455566	0.097890	0.027365	-0.022533	0.018813	-0.763996	-0.023840	-0.644506	179.325760	-80.297741	4.143340
08787		10.664756	1.647400	-2.252453	-0.307603	-1.710650	1.073184	0.288227	-0.208057	1.097885	-0.771729	0.562988	-0.453613	0.106578	0.017092	-0.022389	0.023506	-0.764781	-0.020440	-0.643537	-176.764230	-80.160517	0.338799
08788		10.918065	2.194158	-1.617678	0.425530	-2.347826	1.184598	0.288175	-0.190884	1.226289	-0.772217	0.572021	-0.458008	0.109059	0.022634	-0.016040	0.028565	-0.765493	-0.016581	-0.642596	-172.593915	-79.981912	-3.733307
08789		11.447998	1.773768	-1.471033	0.666474	-2.074037	1.659840	0.258717	-0.168359	1.341518	-0.763672	0.583252	-0.462402	0.114370	0.018524	-0.014590	0.033926	-0.766112	-0.012150	-0.641696	-168.197575	-79.751805	-8.053337
08790		11.850060	1.418888	-1.440309	0.774642	-1.893430	2.033153	0.267344	-0.142278	1.431816	-0.764160	0.596436	-0.455811	0.118405	0.015056	-0.014299	0.039566	-0.766611	-0.007428	-0.640849	-163.752371	-79.467411	-12.422905
08791		12.398142	1.427864	-1.220806	1.117417	-2.090783	2.500721	0.277306	-0.133617	1.498674	-0.759766	0.603271	-0.455811	0.123878	0.015224	-0.012105	0.045497	-0.767038	-0.002449	-0.639982	-159.331364	-79.113584	-16.765263
08792		13.047439	-0.196053	-0.975191	1.405561	-0.689105	3.178503	0.315193	-0.140085	1.561702	-0.753662	0.616699	-0.460449	0.130491	-0.000926	-0.009663	0.051732	-0.767429	0.002618	-0.639038	-155.056314	-78.684477	-20.943775
08793		13.622008	-0.976787	-0.258170	2.195560	-0.116218	3.668472	0.420627	-0.101150	1.634842	-0.747559	0.632324	-0.460449	0.136295	-0.008649	-0.002532	0.058639	-0.767614	0.007668	-0.638178	-150.798600	-78.195097	-25.048390
08794		13.683422	-0.286578	-0.477155	2.060904	-1.055439	3.684719	0.469009	-0.052852	1.700012	-0.732422	0.645996	-0.458252	0.136853	-0.001691	-0.004740	0.065895	-0.767570	0.012798	-0.637441	-146.673034	-77.653906	-28.998494
08795		13.676853	0.097927	-0.801605	1.785898	-1.706202	3.663321	0.532766	0.007133	1.775488	-0.730957	0.666016	-0.460693	0.136752	0.002215	-0.008016	0.073663	-0.767241	0.018061	-0.636858	-142.605937	-77.055397	-32.858608
08796		13.595555	1.559648	-0.862984	1.821893	-3.395272	3.346483	0.562867	0.058440	1.831680	-0.722168	0.670410	-0.456299	0.135802	0.016865	-0.008623	0.081678	-0.766666	0.023433	-0.636398	-138.723268	-76.405052	-36.522444
08797		13.767881	1.596253	-1.678473	1.070571	-3.790458	3.581343	0.551731	0.083370	1.885936	-0.716064	0.690674	-0.465088	0.137513	0.017306	-0.016796	0.089901	-0.765934	0.029015	-0.635941	-135.061378	-75.687262	-39.964798
08798		13.586673	1.665406	-2.163995	0.574249	-4.147408	3.397786	0.616796	0.130909	1.983576	-0.707764	0.710693	-0.467285	0.135678	0.018067	-0.021675	0.098579	-0.764930	0.034824	-0.635572	-131.511839	-74.899444	-43.275221
08799		13.459135	3.228968	-2.470734	0.368590	-5.966768	2.912598	0.710521	0.208811	2.110169	-0.699707	0.730957	-0.474121	0.134214	0.033795	-0.024729	0.108075	-0.763518	0.040808	-0.635370	-127.966425	-74.031261	-46.527509
08800		13.772014	4.350680	-3.478957	-0.475417	-7.528629	2.985105	0.667082	0.283651	2.242258	-0.684570	0.744629	-0.474121	0.137171	0.045163	-0.034836	0.117713	-0.761764	0.047515	-0.635297	-124.554462	-73.078787	-49.692526
08801		14.784167	4.318870	-3.876131	-0.684187	-8.093731	3.834984	0.676258	0.352194	2.381481	-0.673828	0.760254	-0.482910	0.147244	0.045076	-0.038871	0.127869	-0.759640	0.054706	-0.635299	-121.254081	-72.027680	-52.741140
08802		15.045717	6.236162	-3.781077	-0.401844	-10.336794	3.322479	0.818558	0.412625	2.516653	-0.658691	0.778320	-0.489502	0.149577	0.064402	-0.037859	0.138881	-0.757067	0.062038	-0.635384	-118.041667	-70.878291	-55.640909
08803		16.020117	5.217303	-4.291739	-0.815981	-10.075154	4.332572	0.942529	0.442477	2.678711	-0.643799	0.796387	-0.491943	0.159386	0.054514	-0.043017	0.150853	-0.754112	0.069607	-0.635385	-114.957921	-69.603215	-58.349363
08804		16.260486	5.935421	-3.956206	-0.377603	-11.195929	3.962932	1.372524	0.472692	2.838058	-0.624512	0.821289	-0.509521	0.161645	0.061924	-0.039526	0.164894	-0.750508	0.076409	-0.635381	-111.852985	-68.205072	-60.840558
08805		16.311879	7.915179	-3.737586	0.085863	-13.452116	2.903409	1.950107	0.468859	2.935639	-0.609131	0.834961	-0.531494	0.161843	0.081895	-0.036967	0.181368	-0.746187	0.081718	-0.635321	-108.725216	-66.706962	-63.023369
08806		17.285889	10.007945	-3.317163	1.027424	-16.065081	2.466619	2.626984	0.597912	2.976463	-0.589355	0.848877	-0.549072	0.171242	0.103065	-0.032344	0.200377	-0.740557	0.085115	-0.635751	-105.371286	-65.163474	-65.054323
08807		16.650339	14.059231	-3.135927	1.837117	-19.817917	-0.402695	2.859803	0.726837	3.183582	-0.561035	0.871826	-0.577637	0.164122	0.143652	-0.029919	0.220752	-0.733873	0.088622	-0.636275	-102.000683	-63.477936	-66.982737
08808		15.765201	11.323988	-1.422773	3.144150	-16.980905	-0.839510	2.250602	0.864852	3.514082	-0.543457	0.881104	-0.590820	0.155569	0.116141	-0.013607	0.239791	-0.726933	0.095400	-0.636371	-99.073416	-61.575614	-68.834959
08809		19.446225	1.795896	1.980931	5.531770	-10.055145	6.110659	1.565833	1.087728	3.836445	-0.517334	0.906006	-0.610596	0.194176	0.021535	0.018912	0.257123	-0.719623	0.105728	-0.636280	-96.564850	-59.473361	-70.693040
08810		20.832581	0.884722	1.021140	4.593698	-10.850898	7.418684	1.722607	1.256172	3.898622	-0.486572	0.926758	-0.630371	0.208161	0.012825	0.009003	0.275032	-0.711193	0.115970	-0.636485	-94.085652	-57.302700	-72.451752
08811		18.421856	4.298160	-0.269086	3.497066	-13.344671	3.131701	1.267255	1.296817	3.714853	-0.455566	0.936279	-0.643555	0.183356	0.046414	-0.003595	0.290552	-0.703043	0.126978	-0.636543	-92.087606	-55.209736	-73.988745
08812		16.955915	3.441560	-0.824700	2.492277	-12.474505	1.941845	0.344672	1.077650	3.518292	-0.431396	0.950195	-0.652344	0.168871	0.037406	-0.009095	0.302265	-0.696776	0.139895	-0.635270	-90.969498	-53.198020	-75.130919
08813		15.634364	3.591434	-1.578747	1.532591	-12.400964	0.369052	-0.143897	0.701568	3.240000	-0.407471	0.968262	-0.650146	0.155678	0.038428	-0.016361	0.311519	-0.692430	0.152742	-0.632587	-90.511754	-51.341307	-75.821924
08814		13.424639	4.604288	-1.255779	1.664279	-12.036466	-2.373824	-0.233400	0.455990	2.886804	-0.385010	0.973145	-0.650146	0.133534	0.047959	-0.012918	0.319498	-0.689088	0.164270	-0.629360	-90.323620	-49.676305	-76.246700
08815		9.860058	4.578249	-1.975612	0.390433	-10.109772	-5.372176	-0.200014	0.355623	2.456695	-0.367188	0.978027	-0.647949	0.097993	0.046969	-0.019977	0.326211	-0.686247	0.173970	-0.626407	-90.206659	-48.265566	-76.562231
08816		6.241932	-0.260189	-1.204673	-0.250786	-4.177204	-5.020259	-0.138438	0.347800	2.036205	-0.356689	0.993652	-0.654541	0.062420	-0.001975	-0.012154	0.331832	-0.683590	0.182049	-0.624060	-90.073540	-47.086485	-76.857627
08817		7.738241	-5.738814	-0.930574	-0.645123	-1.323140	-0.246531	-0.102490	0.225541	1.660482	-0.338867	1.000732	-0.652344	0.077845	-0.056748	-0.009364	0.336430	-0.681552	0.188458	-0.621921	-90.004880	-46.131868	-77.041982
08818		9.753242	2.025659	-3.168159	-1.232757	-8.747212	-4.224125	-0.025319	-0.118652	0.993878	-0.334717	1.005127	-0.652344	0.097449	0.020737	-0.031626	0.339582	-0.681032	0.191821	-0.619745	-90.098182	-45.549452	-76.940474
08819		2.037570	8.306618	-2.452384	-0.756258	-7.721270	-14.168804	-0.408353	-0.221408	0.090575	-0.336670	0.998535	-0.645752	0.020365	0.083025	-0.024671	0.338664	-0.682356	0.193062	-0.618404	-90.471296	-45.494051	-76.754999
08820		-0.515887	9.681747	-1.151552	0.260623	-6.671751	-16.936402	-0.888248	-0.324935	-0.573037	-0.343750	1.004883	-0.641357	-0.004862	0.096779	-0.011953	0.334209	-0.685421	0.193400	-0.617332	-91.184622	-45.806705	-76.477518
08821		0.319181	6.936885	-0.845039	0.221422	-5.300125	-14.372847	-1.047332	-0.311097	-1.062979	-0.354736	0.998047	-0.625977	0.003574	0.069305	-0.008808	0.327605	-0.689174	0.192505	-0.616973	-91.997969	-46.408375	-76.191391
08822		1.238334	4.548083	-0.779915	0.058504	-4.249191	-11.996067	-0.958801	-0.303192	-1.494811	-0.365479	0.986572	-0.610596	0.012735	0.045348	-0.007998	0.320007	-0.693104	0.189908	-0.617363	-92.779247	-47.243828	-75.881584
08823		1.432714	3.477626	-1.139627	-0.425180	-3.708299	-11.042524	-0.747998	-0.295215	-1.901179	-0.381104	0.986328	-0.612793	0.014674	0.034595	-0.011504	0.311781	-0.697016	0.185186	-0.618602	-93.470113	-48.320463	-75.537214
08824		1.325117	3.692869	-0.958008	-0.247941	-3.788290	-11.190220	-0.496064	-0.232290	-2.335779	-0.405762	0.981445	-0.606201	0.013692	0.036747	-0.009656	0.303059	-0.700634	0.178307	-0.620866	-94.016185	-49.634139	-75.198098
08825		1.181598	4.076735	-0.291260	0.427468	-3.892061	-11.476623	-0.350364	-0.158164	-2.823712	-0.425293	0.965576	-0.606201	0.012392	0.040590	-0.002974	0.293144	-0.704137	0.169285	-0.624180	-94.482649	-51.239261	-74.863065
08826		1.482406	4.148558	0.556471	1.319669	-4.004239	-11.205731	-0.215202	-0.036643	-3.249499	-0.447021	0.945068	-0.599609	0.015494	0.041243	0.005523	0.282276	-0.707239	0.158544	-0.628488	-94.836422	-53.080109	-74.578840
08827		1.890184	4.549144	1.501502	2.370005	-4.411795	-11.012036	-0.144623	0.067031	-3.660128	-0.470947	0.926758	-0.599609	0.019735	0.045146	0.014976	0.270127	-0.710050	0.146163	-0.633638	-95.130082	-55.171357	-74.327908
08828		2.264681	4.636847	2.135632	3.066115	-4.601225	-10.596279	-0.258674	0.115691	-4.083790	-0.503906	0.908447	-0.601807	0.023600	0.045921	0.021283	0.256170	-0.712885	0.132716	-0.639185	-95.514131	-57.494115	-74.051797
08829		2.933985	4.774934	2.136825	3.183904	-5.082102	-9.876022	-0.279646	0.178433	-4.468432	-0.532471	0.885742	-0.593018	0.030416	0.047108	0.021275	0.240671	-0.715492	0.117916	-0.645170	-95.940294	-60.050979	-73.749447
08830		3.850903	5.176924	1.994246	3.221625	-5.877779	-8.993179	-0.154749	0.277475	-4.833503	-0.567139	0.856201	-0.593018	0.039773	0.050834	0.019848	0.224332	-0.717442	0.101532	-0.651646	-96.289891	-62.808383	-73.459241
08831		5.018274	5.856635	1.805481	3.272409	-6.954210	-7.899726	-0.092661	0.304747	-5.245737	-0.595215	0.826904	-0.592773	0.051723	0.057231	0.017950	0.206635	-0.718999	0.083359	-0.658326	-96.702419	-65.814282	-73.068500
08832		6.761506	5.906960	1.382270	3.039154	-7.605167	-5.885301	-0.127619	0.282028	-5.626007	-0.629883	0.792969	-0.594971	0.069260	0.057145	0.013689	0.187500	-0.720284	0.063924	-0.664792	-97.347980	-69.020151	-72.455253
08833		8.642596	5.022538	1.098455	2.763253	-7.186117	-3.345742	-0.057698	0.244766	-5.963298	-0.657227	0.748047	-0.588135	0.087885	0.047622	0.010864	0.167262	-0.721138	0.042874	-0.670929	-98.331818	-72.424870	-71.456026
08834		10.387423	4.301954	0.962777	2.593774	-6.570607	-1.015531	-0.069096	0.119261	-6.301620	-0.680176	0.703125	-0.590088	0.105166	0.039722	0.009551	0.145808	-0.721813	0.020578	-0.676241	-100.198809	-75.986545	-69.564073
08835		13.031807	2.463417	-0.300254	1.154648	-4.967660	2.431154	-0.070127	-0.045823	-6.609324	-0.716797	0.660156	-0.587891	0.131038	0.020310	-0.002980	0.123080	-0.722330	-0.003051	-0.680501	-104.074992	-79.686663	-65.649484
08836		16.393134	0.883364	-0.875366	0.421418	-3.149687	6.314296	0.208964	-0.164976	-6.803926	-0.737305	0.608887	-0.587646	0.164113	0.003261	-0.008613	0.100654	-0.722269	-0.028317	-0.683663	-112.847460	-83.352378	-56.669959
08837		19.223522	0.056557	-0.805568	0.348835	-1.405466	9.369415	0.372189	-0.291141	-6.892050	-0.755859	0.566406	-0.580811	0.192114	-0.006042	-0.007783	0.078282	-0.721693	-0.054576	-0.685604	-141.306780	-86.500838	-27.907022
08838		21.513429	-1.032293	-1.031844	-0.137477	0.937255	11.725159	0.262709	-0.456267	-6.857323	-0.782959	0.514648	-0.571777	0.214635	-0.017676	-0.009848	0.055595	-0.720888	-0.080248	-0.686141	150.159034	-86.547271	40.870080
08839		24.419471	-1.685348	-1.200072	-0.470498	3.216966	14.472889	-0.048144	-0.670808	-6.778956	-0.790039	0.461426	-0.569336	0.243475	-0.025118	-0.011178	0.031805	-0.720085	-0.104622	-0.685215	121.133738	-83.454623	69.956094
08840		26.715135	-2.445158	-1.430551	-0.886365	5.858799	16.385413	-0.522309	-0.886614	-6.648010	-0.808594	0.423096	-0.555908	0.266201	-0.033347	-0.013045	0.006708	-0.719357	-0.126730	-0.682950	112.309942	-79.823872	78.561402
08841		28.470357	-7.485243	-1.039002	-1.452064	12.876698	16.634083	-1.365878	-0.979992	-6.493288	-0.822510	0.374023	-0.544678	0.282117	-0.084103	-0.008450	-0.021056	-0.718247	-0.145340	-0.680113	107.986728	-76.133794	82.171305
08842		30.332273	-14.489561	1.632479	-0.025595	22.134848	15.531776	-0.999011	-0.651261	-6.174106	-0.825684	0.336182	-0.542236	0.298603	-0.154076	0.018057	-0.046063	-0.715552	-0.163856	-0.677506	105.105955	-72.647226	84.560562
08843		24.950592	-12.840596	2.320256	0.740641	20.411107	9.563414	-0.602480	-0.397530	-5.533227	-0.830811	0.298340	-0.531006	0.245781	-0.135169	0.024094	-0.067310	-0.711963	-0.181398	-0.675035	103.147930	-69.517730	86.256612
08844		23.051827	-15.495592	-1.215483	-3.228468	22.600262	6.050144	-1.274204	-0.337339	-4.742552	-0.843506	0.273682	-0.524414	0.226776	-0.160435	-0.010760	-0.088103	-0.708194	-0.193693	-0.673188	101.452446	-66.833473	87.289698
08845		23.259061	-20.215285	-5.175548	-7.752468	27.140270	3.588133	-1.351672	-0.210036	-4.088852	-0.853516	0.244629	-0.521973	0.228442	-0.207194	-0.050125	-0.106856	-0.704198	-0.203408	-0.671798	99.975309	-64.513525	88.052314
08846		20.012047	-23.346659	-7.202968	-10.082736	28.796307	-1.662607	-1.077065	-0.268041	-3.627130	-0.854736	0.220215	-0.517578	0.195934	-0.237428	-0.070494	-0.123051	-0.700745	-0.212264	-0.669895	98.980566	-62.450598	88.467527
08847		15.563644	-23.295029	-7.593113	-10.396474	26.897461	-6.507155	-0.364103	-0.241179	-2.840393	-0.858643	0.202393	-0.517334	0.152397	-0.235268	-0.075319	-0.134076	-0.698268	-0.220727	-0.667626	98.565888	-60.829784	88.693959
08848		16.346494	-24.444859	-4.132255	-7.091228	28.724163	-7.272976	0.042243	-0.112684	-1.738487	-0.855713	0.186768	-0.510742	0.161355	-0.245849	-0.041283	-0.139819	-0.696765	-0.226737	-0.666003	98.446533	-59.847388	88.852288
08849		15.630301	-24.221412	-1.175391	-4.186235	28.507933	-8.352009	0.361530	-0.207295	-0.775009	-0.858154	0.188965	-0.510742	0.155375	-0.242796	-0.012031	-0.141339	-0.696861	-0.230374	-0.664331	98.743719	-59.403298	88.741044
08850		17.001602	-22.174648	0.394787	-2.401493	27.616799	-6.281677	0.374769	-0.078019	0.581803	-0.858398	0.195557	-0.510742	0.170659	-0.221258	0.003599	-0.138157	-0.698088	-0.229418	-0.664043	99.124678	-59.737898	88.541331
08851		18.405247	-22.395053	0.034804	-2.730658	28.423175	-4.818859	-0.409817	0.069897	1.710912	-0.854492	0.208984	-0.512939	0.185959	-0.222364	0.000740	-0.133760	-0.699553	-0.221984	-0.665926	99.096624	-60.728845	88.296848
08852		20.833445	-4.790747	-3.987137	-4.292469	13.660878	6.552053	0.497840	0.367906	2.753763	-0.852783	0.229004	-0.521973	0.208893	-0.044934	-0.040370	-0.122396	-0.701684	-0.214116	-0.668441	99.471454	-62.332180	88.188173
08853		12.354511	30.607389	6.718243	11.222930	-20.588170	14.367966	1.362864	0.265629	2.181137	-0.846680	0.242432	-0.517578	0.120292	0.306931	0.069111	-0.109949	-0.703955	-0.211006	-0.669205	100.388336	-63.608901	88.029806
08854		10.345963	9.000332	8.076342	9.487422	-2.517262	2.713898	-0.860776	-0.322697	1.873942	-0.843018	0.260254	-0.515381	0.102478	0.091314	0.080538	-0.107010	-0.706536	-0.201223	-0.669974	100.680156	-64.642805	87.150721
08855		16.958034	-12.403083	-0.455654	-1.647922	18.204998	0.553063	-1.819737	-0.545186	2.589125	-0.841553	0.280273	-0.509033	0.171177	-0.121854	-0.002976	-0.105232	-0.709939	-0.185515	-0.671191	100.917815	-66.059173	85.735726
08856		11.937702	-1.829738	-4.321123	-4.090106	5.950275	0.788539	-1.027499	-0.544593	2.797445	-0.835449	0.298096	-0.504639	0.119736	-0.016845	-0.042796	-0.099951	-0.713772	-0.171711	-0.671606	101.787960	-67.581345	84.142375
08857		9.136918	2.207492	-1.215421	-0.591997	1.217979	-0.432089	-0.728735	-0.268599	2.420790	-0.826904	0.311523	-0.504883	0.091110	0.023135	-0.012115	-0.094565	-0.716368	-0.160318	-0.672438	102.489547	-68.924063	82.931746
08858		13.023853	-6.503519	-6.095615	-6.088009	10.117183	0.658326	-0.656561	-0.319755	2.437929	-0.834473	0.329102	-0.504883	0.131117	-0.063640	-0.060537	-0.088935	-0.719059	-0.149096	-0.672915	103.445994	-70.256095	81.503566
08859		19.817100	-8.060419	-7.305447	-6.940031	13.501871	6.937577	-0.607462	-0.484233	2.389755	-0.826172	0.347168	-0.498535	0.199293	-0.078448	-0.072332	-0.083347	-0.722181	-0.138072	-0.672640	104.858651	-71.535365	79.634962
08860		17.351064	-3.159454	-1.841835	-1.071212	8.065068	5.942328	0.270332	-0.322987	2.773306	-0.826904	0.364746	-0.498535	0.173956	-0.029160	-0.018178	-0.073225	-0.725252	-0.128700	-0.672371	106.948341	-73.024566	77.597725
08861		5.917953	-1.545501	-0.162813	0.094012	3.090000	-4.532692	0.210150	-0.508691	2.455024	-0.825195	0.378174	-0.489746	0.059367	-0.014725	-0.001493	-0.064436	-0.728601	-0.120139	-0.671234	109.544218	-74.289313	75.013318
08862		8.502860	-3.263988	-3.384624	-3.029886	5.066498	-2.095486	0.012397	-0.390745	2.029101	-0.814453	0.391602	-0.485596	0.085420	-0.031772	-0.033682	-0.057778	-0.731125	-0.112538	-0.670413	111.856834	-75.308842	72.618146
08863		10.155860	-2.892945	-1.474550	-0.934452	5.072108	-0.480910	0.279598	-0.119912	1.858467	-0.814697	0.398193	-0.487793	0.101830	-0.027963	-0.014724	-0.050493	-0.732659	-0.106471	-0.670317	113.946409	-76.282273	70.623308
08864		9.334004	-0.061024	-0.181787	0.560628	2.065836	-0.725515	0.355776	-0.126137	1.525453	-0.819580	0.411377	-0.485596	0.093342	0.000105	-0.001759	-0.044108	-0.733989	-0.101921	-0.670020	116.013875	-77.054436	68.701995
08865		9.989371	0.928583	-1.174441	-0.250281	1.030201	0.232396	0.206212	-0.240094	1.270636	-0.813232	0.418213	-0.483398	0.099846	0.009932	-0.011615	-0.039117	-0.735508	-0.097722	-0.669290	118.211650	-77.658292	66.566112
08866		10.462666	1.130876	-1.672295	-0.645950	0.763733	0.795844	0.250414	-0.267279	1.134329	-0.811035	0.422852	-0.489990	0.104582	0.011923	-0.016568	-0.034496	-0.737020	-0.094216	-0.668383	120.502531	-78.159414	64.363915
08867		9.997453	1.189704	-0.956945	0.069535	0.558943	0.284933	0.290449	-0.287703	1.024748	-0.818359	0.433594	-0.485840	0.099925	0.012423	-0.009408	-0.030037	-0.738539	-0.091189	-0.667340	122.917415	-78.589490	62.063815
08868		9.826044	1.323376	-1.211704	-0.144996	0.277965	0.170876	0.272390	-0.291136	0.945840	-0.813965	0.438232	-0.479248	0.098214	0.013715	-0.011956	-0.025974	-0.740000	-0.088441	-0.666261	125.344901	-78.953402	59.742006
08869		9.835245	1.232109	-1.415339	-0.315087	0.260943	0.191575	0.250880	-0.271732	0.839072	-0.816406	0.444824	-0.483643	0.098319	0.012751	-0.014004	-0.022274	-0.741336	-0.085967	-0.665232	127.703920	-79.262817	57.481567
08870		10.485658	0.488081	-1.459660	-0.332169	1.006784	0.732134	0.301978	-0.198514	0.775162	-0.814453	0.447021	-0.488037	0.104851	0.005309	-0.014485	-0.018627	-0.742384	-0.083956	-0.664432	129.889313	-79.545759	55.428226
08871		10.740165	-0.593307	-0.745460	0.316991	2.083755	0.761609	0.469478	-0.090276	0.759588	-0.819092	0.455811	-0.485840	0.107426	-0.005508	-0.007419	-0.014304	-0.743073	-0.082519	-0.663949	132.031788	-79.854814	53.519544
08872		10.411938	-0.774371	-0.093261	0.922777	2.192449	0.353824	0.551510	-0.051425	0.733458	-0.814941	0.460449	-0.483643	0.104147	-0.007359	-0.000926	-0.009807	-0.743606	-0.081502	-0.663560	134.155987	-80.148790	51.677400
08873		10.096761	0.180341	-0.438438	0.663667	1.099844	0.213219	0.610563	-0.035895	0.677081	-0.814941	0.464844	-0.488281	0.100961	0.002159	-0.004360	-0.005210	-0.744056	-0.080840	-0.663188	136.298444	-80.420563	49.854173
08874		9.915957	1.455441	-1.024436	0.224203	-0.310084	0.254446	0.698584	0.025945	0.603426	-0.806396	0.471680	-0.488281	0.099114	0.014889	-0.010206	-0.000566	-0.744252	-0.080793	-0.662994	138.227447	-80.672496	48.298335
08875		10.027169	1.733392	-0.850110	0.454398	-0.618000	0.369786	0.747699	0.089607	0.509687	-0.813232	0.476074	-0.494873	0.100223	0.017621	-0.008480	0.004036	-0.744188	-0.081207	-0.663004	139.918291	-80.914478	47.014853
08876		9.627321	1.741238	-0.315942	0.950232	-0.665185	-0.093045	0.698666	0.064060	0.461899	-0.808594	0.476074	-0.499268	0.096232	0.017646	-0.003129	0.008227	-0.744170	-0.081684	-0.662926	141.537698	-81.116071	45.774566
08877		9.777256	1.287295	-0.935321	0.310673	-0.322630	0.083065	0.472720	-0.058539	0.389819	-0.808838	0.480469	-0.497070	0.097750	0.013086	-0.009294	0.011345	-0.744533	-0.081638	-0.662478	143.195157	-81.236607	44.366713
08878		10.137397	0.768776	-1.337348	-0.099452	0.133351	0.440044	0.414833	-0.074488	0.377695	-0.806641	0.482910	-0.508057	0.101364	0.007907	-0.013319	0.014143	-0.744936	-0.081492	-0.661989	144.813359	-81.334216	42.964030
08879		9.877803	1.023793	-1.627309	-0.360021	-0.228219	0.241436	0.444431	-0.066898	0.379386	-0.804443	0.485107	-0.501465	0.098764	0.010461	-0.016217	0.017116	-0.745308	-0.081392	-0.661512	146.515669	-81.434696	41.495174
08880		9.660181	0.775568	-1.974782	-0.745056	-0.098035	0.049130	0.466254	-0.046869	0.405614	-0.806885	0.487305	-0.510254	0.096590	0.007998	-0.019707	0.020210	-0.745614	-0.081308	-0.661090	148.265966	-81.541534	39.989467
08881		9.922016	-0.189950	-1.722918	-0.597225	0.860402	0.204983	0.483611	-0.039536	0.456627	-0.811279	0.487061	-0.510254	0.099227	-0.001631	-0.017214	0.023651	-0.745902	-0.081112	-0.660675	150.270910	-81.663921	38.248203
08882		9.653247	0.670548	-1.538139	-0.299665	-0.039798	-0.019371	0.445229	-0.078481	0.491735	-0.798340	0.496338	-0.508057	0.096522	0.006977	-0.015328	0.026937	-0.746333	-0.080640	-0.660121	152.454365	-81.762824	36.293471
08883		9.634054	0.731512	-1.715601	-0.443843	-0.184554	-0.011563	0.352897	-0.140914	0.542404	-0.796143	0.502930	-0.512451	0.096332	0.007607	-0.017075	0.030131	-0.746990	-0.079704	-0.659353	154.970140	-81.834627	33.961301
08884		9.631565	1.626874	-1.800332	-0.355623	-1.136779	0.048139	0.316676	-0.196424	0.553240	-0.796387	0.509521	-0.508057	0.096288	0.016563	-0.017883	0.033092	-0.747835	-0.078593	-0.658385	157.579333	-81.861350	31.502743
08885		9.769733	1.365013	-2.166396	-0.705625	-0.985727	0.213989	0.281342	-0.208363	0.605784	-0.801270	0.513916	-0.510254	0.097678	0.013976	-0.021543	0.036197	-0.748732	-0.077196	-0.657366	160.443550	-81.878749	28.777585
08886		9.948834	1.136251	-2.251932	-0.769280	-0.827750	0.388495	0.300247	-0.208583	0.662417	-0.796631	0.511963	-0.510254	0.099473	0.011726	-0.022398	0.039451	-0.749643	-0.075622	-0.656323	163.492114	-81.883493	25.865908
08887		9.892530	1.465591	-2.028261	-0.463603	-1.194185	0.310669	0.286122	-0.262359	0.738373	-0.803955	0.527344	-0.508301	0.098897	0.015050	-0.020132	0.042985	-0.750745	-0.073754	-0.655053	166.922350	-81.848325	22.571710
08888		9.832760	2.275341	-2.129332	-0.390754	-2.089412	0.280645	0.229316	-0.285655	0.808761	-0.795166	0.531738	-0.508301	0.098265	0.023175	-0.021127	0.046422	-0.751951	-0.071413	-0.653693	170.521843	-81.777736	19.061887
08889		10.086758	1.991531	-1.878186	-0.113082	-1.843255	0.474454	0.169478	-0.274301	0.900121	-0.790771	0.536377	-0.503906	0.100802	0.020385	-0.018626	0.050038	-0.753147	-0.068557	-0.652354	174.411728	-81.688965	15.234558
08890		10.429830	1.370189	-1.637976	0.111827	-1.276239	0.756103	0.142212	-0.293904	1.038087	-0.789063	0.552002	-0.508301	0.104249	0.014255	-0.016217	0.053890	-0.754443	-0.065067	-0.650906	178.676915	-81.554162	10.999727
08891		10.894347	1.077140	-1.274585	0.535726	-1.030537	1.147289	0.103173	-0.290404	1.179643	-0.782715	0.560791	-0.503906	0.108896	0.011420	-0.012582	0.058155	-0.755755	-0.060945	-0.649414	-176.658050	-81.372245	6.347471
08892		11.512700	1.023086	-0.630692	1.299289	-0.996489	1.646088	0.101709	-0.239534	1.330580	-0.782959	0.567627	-0.501953	0.115063	0.011000	-0.006164	0.062817	-0.756919	-0.056198	-0.648051	-171.678618	-81.153494	1.362577
08893		11.875395	1.119345	-0.360016	1.686986	-1.203769	1.939336	0.115266	-0.197928	1.439813	-0.774414	0.578857	-0.504150	0.118673	0.012050	-0.003476	0.067991	-0.757932	-0.051100	-0.646765	-166.514320	-80.879235	-3.793727
08894		11.771278	1.272537	-0.209958	1.893544	-1.501782	1.779665	0.145444	-0.192444	1.564934	-0.772705	0.592041	-0.501953	0.117610	0.013647	-0.001977	0.073583	-0.758908	-0.045586	-0.645419	-161.291727	-80.517611	-9.007392
08895		11.952792	1.558215	-0.314894	1.918724	-1.994009	1.923387	0.146215	-0.146982	1.668836	-0.771240	0.607666	-0.504395	0.119395	0.016581	-0.003049	0.079614	-0.759705	-0.039697	-0.644154	-156.084726	-80.081808	-14.199672
08896		12.244112	1.979189	-0.337096	2.060581	-2.627365	2.137043	0.116977	-0.096511	1.760071	-0.764893	0.618896	-0.500000	0.122262	0.020870	-0.003300	0.085737	-0.760315	-0.033309	-0.643009	-151.069459	-79.574393	-19.232848
08897		12.969727	1.534720	-0.494166	2.003399	-2.485743	2.860746	0.081409	-0.043705	1.864938	-0.760742	0.630127	-0.500000	0.129548	0.016558	-0.004907	0.092154	-0.760719	-0.026420	-0.641963	-146.202432	-78.984693	-24.133649
08898		13.170163	2.281956	-0.799025	1.898373	-3.533571	2.962414	0.103735	0.015844	1.966856	-0.754883	0.650146	-0.500000	0.131468	0.024117	-0.007988	0.098891	-0.760868	-0.019147	-0.641041	-141.543583	-78.316825	-28.830700
08899		13.286848	2.322137	-0.880221	1.877745	-3.861900	3.003730	0.065730	0.073269	2.094765	-0.739746	0.668213	-0.502441	0.132612	0.024614	-0.008843	0.105976	-0.760779	-0.011277	-0.640201	-137.070532	-77.552272	-33.361140
08900		13.600227	1.783941	-0.584611	2.162000	-3.606878	3.256306	0.045608	0.165681	2.247553	-0.729248	0.683838	-0.498047	0.135785	0.019368	-0.005954	0.113379	-0.760327	-0.002669	-0.639563	-132.748244	-76.695210	-37.774009
08901		14.058566	1.728492	-0.624683	2.213481	-3.941379	3.625219	0.075867	0.246178	2.416098	-0.716064	0.695313	-0.502441	0.140355	0.018984	-0.006413	0.121503	-0.759491	0.006483	-0.639037	-128.561779	-75.721993	-42.034911
08902		14.465646	2.759459	-0.828188	2.244559	-5.390469	3.731612	0.156295	0.335692	2.565337	-0.705811	0.719971	-0.500488	0.144272	0.029453	-0.008502	0.130305	-0.758199	0.016044	-0.638668	-124.564196	-74.643036	-46.083256
08903		14.871503	4.337750	-1.363283	2.015417	-7.452522	3.686180	0.303553	0.436171	2.665039	-0.693359	0.746826	-0.502686	0.148089	0.045375	-0.013888	0.140029	-0.756342	0.025525	-0.638504	-120.749622	-73.477065	-49.864510
08904		15.660604	5.695172	-1.921605	1.784682	-9.408609	3.958904	0.486433	0.575077	2.713580	-0.678223	0.760498	-0.509277	0.155758	0.059116	-0.019523	0.150477	-0.753766	0.034748	-0.638738	-117.090100	-72.262090	-53.408206
08905		16.394215	5.199652	-3.070950	0.698343	-9.737975	4.675214	0.715900	0.674503	2.817584	-0.656494	0.780762	-0.518066	0.163083	0.054409	-0.031069	0.162087	-0.750513	0.043708	-0.639177	-113.544892	-70.953305	-56.717269
08906		16.440181	5.271423	-3.473087	0.304410	-10.334158	4.442733	1.188570	0.709558	2.903813	-0.643799	0.801025	-0.531494	0.163488	0.055300	-0.034988	0.175684	-0.746572	0.051488	-0.639621	-110.090985	-69.546186	-59.669482
08907		17.133688	6.794969	-2.993587	1.131952	-12.319000	4.174015	1.924548	0.831586	2.888954	-0.624268	0.817139	-0.551270	0.170204	0.070702	-0.029974	0.191903	-0.741374	0.056953	-0.640542	-106.479514	-68.110292	-62.365481
08908		17.684422	11.668530	-2.454336	2.633663	-17.281143	2.406295	2.564542	0.995967	2.886371	-0.611328	0.837402	-0.568848	0.175013	0.119529	-0.023897	0.210366	-0.734776	0.060494	-0.642021	-102.691154	-66.639916	-64.883886
08909		16.686226	15.292881	-2.854959	2.915477	-20.627581	-0.517382	2.332217	1.027530	3.132406	-0.582764	0.851563	-0.597412	0.164293	0.155841	-0.027592	0.228661	-0.727946	0.065684	-0.643035	-99.312185	-64.978756	-67.129255
08910		17.244843	11.572995	-1.546472	3.659653	-17.561214	0.764327	1.541811	1.110185	3.507620	-0.560791	0.865234	-0.612793	0.170296	0.118849	-0.015506	0.245175	-0.721339	0.074858	-0.643393	-96.574544	-63.062723	-69.198131
08911		19.562100	4.733118	0.107816	4.187222	-12.679033	5.245384	0.991898	1.398838	3.828689	-0.534668	0.890381	-0.628174	0.194670	0.051062	-0.000039	0.260502	-0.714054	0.087256	-0.643935	-94.129556	-60.944226	-71.329937
08912		20.018204	3.936600	-0.556823	3.330343	-13.033092	5.533970	0.970622	1.706696	3.951327	-0.506348	0.910889	-0.636963	0.199296	0.043341	-0.007068	0.275918	-0.705419	0.100546	-0.645093	-91.705077	-58.719579	-73.497331
08913		20.062437	3.015741	-2.513835	1.091723	-13.478197	5.516748	0.385551	1.732298	4.125709	-0.473145	0.929199	-0.650146	0.199717	0.034334	-0.026807	0.289647	-0.697071	0.116286	-0.645503	-89.882096	-56.362534	-75.402627
08914		19.463125	1.573800	-3.628654	-0.520275	-12.944692	5.239218	-0.091579	1.446301	4.145379	-0.440430	0.949951	-0.652344	0.193980	0.019746	-0.037699	0.301834	-0.689977	0.133199	-0.644272	-88.794053	-53.964970	-76.799122
08915		17.588989	3.769716	-4.526728	-1.294718	-14.343531	1.875873	-0.689799	0.940860	3.758648	-0.406982	0.961670	-0.650146	0.174926	0.040832	-0.046229	0.310873	-0.685376	0.149838	-0.641223	-88.553173	-51.794373	-77.604393
08916		15.204010	4.830448	-4.395313	-1.349983	-14.021402	-1.131030	-1.112782	0.453578	3.265150	-0.391846	0.975098	-0.645752	0.151127	0.050530	-0.044574	0.317181	-0.683118	0.165378	-0.636708	-88.932388	-49.905504	-77.945281
08917		10.079748	5.942899	-3.139103	-0.676140	-11.512021	-6.100208	-0.975478	0.206168	2.579254	-0.376709	0.988770	-0.636963	0.099989	0.060568	-0.031788	0.321844	-0.681841	0.177651	-0.632416	-89.389893	-48.422725	-78.087805
08918		2.299597	2.481758	-2.170697	-1.409807	-3.764372	-9.784946	-0.606115	0.430962	1.839608	-0.356445	0.986816	-0.639160	0.022720	0.024961	-0.021832	0.325237	-0.679800	0.186624	-0.630289	-89.485188	-47.353463	-78.435528
08919		8.242006	-10.582943	-3.695723	-4.189347	1.244134	3.396517	0.721727	0.654555	1.774286	-0.347900	0.998291	-0.654541	0.083231	-0.104959	-0.037609	0.332635	-0.674906	0.191478	-0.630232	-88.699169	-46.328482	-78.955172
08920		11.826839	1.760849	-2.068210	-0.178316	-9.744565	-2.583527	1.528765	0.511318	1.313501	-0.329834	1.000977	-0.667725	0.118095	0.018543	-0.020845	0.341466	-0.669472	0.192032	-0.631135	-87.555830	-45.553946	-79.335581
08921		1.242700	7.638397	-2.699875	-1.102186	-6.726529	-14.364281	1.161263	0.197986	0.129185	-0.338867	0.998535	-0.678711	0.012351	0.076547	-0.026567	0.345545	-0.666767	0.189174	-0.632641	-86.789732	-45.472320	-79.486312
08922		-1.111668	10.238853	-2.551252	-0.684087	-6.883231	-17.858235	0.857448	0.109161	-0.694725	-0.343018	0.989746	-0.689453	-0.010774	0.102534	-0.025067	0.346139	-0.665602	0.184429	-0.634939	-86.219829	-45.853135	-79.604581
08923		-1.277252	8.444186	-1.864027	-0.318326	-5.441701	-16.646101	0.199099	-0.109368	-1.398545	-0.356201	0.984863	-0.680664	-0.012171	0.084547	-0.018563	0.342429	-0.666920	0.178984	-0.637122	-86.126798	-46.655533	-79.585116
08924		-0.311709	4.915226	-1.865481	-0.881804	-3.698309	-13.456966	-0.253417	-0.311443	-1.861484	-0.367432	0.982422	-0.678711	-0.002630	0.049155	-0.018721	0.335960	-0.669998	0.173142	-0.638949	-86.399566	-47.718787	-79.419368
08925		0.562858	3.237977	-1.848127	-1.091588	-3.128682	-11.611601	-0.430484	-0.438385	-2.209900	-0.385010	0.970947	-0.669922	0.006026	0.032275	-0.018538	0.327787	-0.674035	0.166400	-0.640737	-86.856712	-48.996630	-79.147292
08926		0.763543	3.133645	-1.631981	-0.882536	-3.171706	-11.304916	-0.481761	-0.520104	-2.610984	-0.411377	0.955078	-0.667725	0.008086	0.031193	-0.016374	0.318244	-0.678619	0.158376	-0.642740	-87.406438	-50.492935	-78.796539
08927		0.879307	3.491277	-1.422759	-0.599876	-3.507158	-11.337547	-0.471508	-0.549221	-3.104562	-0.428711	0.941406	-0.660889	0.009372	0.034737	-0.014284	0.307030	-0.683551	0.148498	-0.645321	-87.994079	-52.282129	-78.399699
08928		1.323552	3.854225	-0.879090	0.051907	-3.974499	-11.069031	-0.386398	-0.527054	-3.572176	-0.455322	0.934082	-0.658936	0.013944	0.038280	-0.008829	0.294566	-0.688403	0.136805	-0.648550	-88.548548	-54.324226	-77.991834
08929		1.975852	4.141271	-0.237499	0.812030	-4.463886	-10.535270	-0.268142	-0.459878	-3.919217	-0.483887	0.915771	-0.654541	0.020570	0.041012	-0.002383	0.281157	-0.692880	0.123516	-0.652390	-89.030182	-56.574287	-77.602747
08930		2.555391	4.132904	0.611435	1.703884	-4.590947	-9.849027	-0.363108	-0.427834	-4.250591	-0.516846	0.895264	-0.643555	0.026412	0.040785	0.006096	0.266276	-0.697272	0.109450	-0.656452	-89.592272	-58.999619	-77.191480
08931		3.044584	3.356904	0.568045	1.553888	-4.180187	-8.828346	-0.559144	-0.410206	-4.617597	-0.542725	0.865723	-0.643311	0.031199	0.032870	0.005651	0.249284	-0.701743	0.094645	-0.660649	-90.337953	-61.645290	-76.710700
08932		4.125647	2.881518	0.175579	1.175439	-4.283257	-7.441630	-0.490353	-0.340039	-4.928582	-0.572998	0.838623	-0.634521	0.041947	0.027791	0.001758	0.231410	-0.705616	0.078627	-0.665112	-91.083155	-64.453609	-76.196807
08933		5.125622	3.162273	-0.075871	1.059031	-4.860983	-6.418762	-0.376005	-0.287945	-5.232943	-0.603516	0.811279	-0.625732	0.052061	0.030266	-0.000742	0.212673	-0.708863	0.061089	-0.669740	-91.858411	-67.446832	-75.592105
08934		6.160228	3.747322	-0.325218	0.991589	-5.620730	-5.395983	-0.344001	-0.289895	-5.553117	-0.628906	0.773193	-0.621094	0.062615	0.035738	-0.003224	0.192907	-0.711646	0.042338	-0.674206	-92.842157	-70.606101	-74.756411
08935		7.720090	3.933300	-0.517468	0.924267	-6.032709	-3.642713	-0.372851	-0.330696	-5.898676	-0.661377	0.736816	-0.612305	0.078324	0.037024	-0.005116	0.171636	-0.714097	0.022301	-0.678314	-94.332319	-73.968097	-73.424698
08936		9.488700	3.592795	-0.769138	0.679329	-5.797402	-1.480237	-0.476027	-0.438779	-6.254078	-0.693359	0.694092	-0.612061	0.095965	0.032920	-0.007562	0.148733	-0.716365	0.001313	-0.681687	-96.994157	-77.496754	-70.967012
08937		11.663897	2.457561	-1.146552	0.150790	-4.612956	1.234750	-0.568600	-0.579046	-6.591838	-0.720703	0.646973	-0.598633	0.117396	0.020682	-0.011189	0.124100	-0.718447	-0.020759	-0.684107	-102.484536	-81.167551	-65.722001
08938		14.800644	1.399784	-1.168058	0.020542	-3.168907	4.756182	-0.471811	-0.701043	-6.858310	-0.748291	0.602051	-0.596436	0.148409	0.008886	-0.011186	0.098843	-0.720027	-0.044087	-0.685454	-116.461555	-84.750967	-51.924978
08939		18.115806	0.276496	-0.750668	0.284075	-1.096024	8.281727	-0.212224	-0.751592	-6.912013	-0.770752	0.548340	-0.587402	0.181136	-0.003504	-0.006824	0.074110	-0.720782	-0.068556	-0.685770	-165.194311	-87.127224	-3.222378
08940		21.207092	-0.361509	-0.212128	0.721210	0.985656	11.359083	-0.174015	-0.841420	-6.894432	-0.793457	0.496826	-0.573975	0.211785	-0.010921	-0.001222	0.049552	-0.720968	-0.092957	-0.684916	135.501230	-85.426825	56.074963
08941		23.643890	-1.038418	-0.272336	0.526649	3.342301	13.607690	-0.398197	-0.984703	-6.845294	-0.807373	0.447754	-0.562744	0.235908	-0.018469	-0.001529	0.024132	-0.720854	-0.116421	-0.682812	118.119794	-81.904774	73.316455
08942		26.240322	-3.234626	-1.031337	-0.624193	7.356295	15.590110	-0.811407	-1.103666	-6.729930	-0.812500	0.403076	-0.547119	0.261167	-0.041187	-0.008715	-0.002385	-0.720414	-0.137852	-0.679702	111.714976	-78.146519	79.337879
08943		29.889297	-9.334810	0.119773	-0.569016	15.938376	17.128185	-1.044035	-1.038395	-6.482551	-0.828857	0.360596	-0.540283	0.295646	-0.102954	0.003259	-0.028943	-0.719091	-0.157523	-0.676208	108.216517	-74.448873	82.313659
08944		30.162877	-9.598034	2.837724	1.979309	18.391825	16.023164	0.048302	-0.634048	-6.003632	-0.831543	0.316162	-0.535645	0.298475	-0.104979	0.029302	-0.049517	-0.716223	-0.178989	-0.672707	106.107777	-71.065755	84.543365
08945		24.774998	-9.739020	0.878888	-0.311809	17.766133	10.024432	0.071726	-0.410849	-5.463157	-0.839111	0.280518	-0.528809	0.244948	-0.104110	0.009257	-0.068023	-0.712490	-0.198567	-0.669554	104.545301	-67.985119	86.246674
08946		23.838501	-12.347430	-3.380606	-5.137254	20.025464	7.640482	-0.585314	-0.370401	-4.710507	-0.846924	0.249268	-0.524170	0.235449	-0.129140	-0.032996	-0.086192	-0.708692	-0.213088	-0.667023	103.196429	-65.325657	87.343678
08947		23.152180	-21.880015	-6.972740	-10.411187	28.399935	2.363642	-1.192765	-0.501906	-4.140236	-0.854736	0.220215	-0.517578	0.227093	-0.223940	-0.067828	-0.104761	-0.705301	-0.223440	-0.664567	102.026435	-62.951828	87.876499
08948		20.643959	-26.517565	-6.925821	-11.117647	31.763052	-3.125592	-0.156239	-0.667487	-3.472071	-0.856201	0.195801	-0.510742	0.202024	-0.268762	-0.068370	-0.117547	-0.703488	-0.234663	-0.660470	101.871155	-60.938348	87.944229
08949		13.361525	-22.707285	-3.955975	-7.662840	25.497366	-8.846691	0.337230	-0.619521	-2.492630	-0.860107	0.184570	-0.506348	0.130895	-0.228649	-0.039536	-0.125298	-0.702788	-0.244063	-0.656371	102.156665	-59.476103	87.831108
08950		14.723909	-24.651027	0.092684	-4.027167	28.428374	-9.536236	0.101742	-0.411981	-1.089699	-0.855225	0.173584	-0.508301	0.145891	-0.247308	0.001103	-0.128987	-0.702902	-0.247847	-0.654112	102.382945	-58.827763	87.628488
08951		18.522141	-23.127105	0.419373	-3.366385	29.149020	-5.676233	0.423729	-0.272745	0.174307	-0.855469	0.180176	-0.499756	0.185417	-0.231118	0.003957	-0.127228	-0.704329	-0.248325	-0.652739	102.921076	-58.903488	87.277363
08952		16.466118	-15.960384	2.033770	-0.546001	22.251287	-3.931853	0.519586	-0.212181	0.474040	-0.860107	0.184570	-0.506348	0.165018	-0.159265	0.020099	-0.124084	-0.705976	-0.248097	-0.651651	103.523692	-59.151900	86.914778
08953		16.785919	-18.787405	2.453263	-0.602535	24.806135	-4.810518	-0.422296	0.104339	2.040081	-0.852051	0.204590	-0.506348	0.169776	-0.186097	0.024839	-0.118729	-0.707919	-0.239432	-0.653779	103.661369	-60.318285	86.469671
08954		18.506290	-0.722996	-1.976963	-1.496626	9.261643	6.276892	0.056508	0.350025	2.708332	-0.848145	0.224609	-0.508789	0.185103	-0.004718	-0.020095	-0.109216	-0.710023	-0.230098	-0.656502	104.018820	-61.884722	86.091575
08955		14.845611	33.160189	12.361512	18.815387	-20.287942	16.779347	0.928183	0.662869	2.181939	-0.844238	0.235840	-0.515381	0.145243	0.332621	0.124672	-0.097909	-0.710864	-0.225590	-0.658935	104.444693	-63.208399	86.205735
08956		12.253924	7.276481	12.875593	14.381346	0.928049	2.883198	-1.424171	-0.074680	1.881829	-0.842529	0.249268	-0.510986	0.121794	0.074828	0.128274	-0.096818	-0.712524	-0.214039	-0.661153	104.261131	-64.254047	85.493817
08957		17.833896	-14.812309	4.660600	2.856368	21.425732	-0.226428	-2.547808	-0.506212	2.560108	-0.836426	0.269287	-0.504639	0.180088	-0.145212	0.048923	-0.097892	-0.715621	-0.196069	-0.663220	104.180099	-65.621846	83.965308
08958		13.492716	-4.911050	-3.032502	-3.040334	9.506006	0.945880	-1.487696	-0.689091	2.764715	-0.833008	0.291504	-0.495850	0.135693	-0.047460	-0.029501	-0.094678	-0.719830	-0.180763	-0.663480	105.123185	-67.066378	81.998727
08959		10.792988	0.084175	-1.100406	-0.457917	3.853031	0.318707	-0.580714	-0.319011	2.500295	-0.824707	0.311523	-0.489502	0.107926	0.002159	-0.010837	-0.088674	-0.722848	-0.169511	-0.663999	106.176089	-68.415700	80.495673
08960		12.668586	-6.602409	-4.966995	-4.936937	10.120422	0.284236	-0.231104	-0.281806	2.628087	-0.829834	0.326904	-0.493896	0.127609	-0.064408	-0.049416	-0.080983	-0.725877	-0.158987	-0.664280	107.607699	-69.821141	78.815445
08961		17.135972	-7.579491	-10.049018	-9.648385	11.800129	5.010180	-0.248139	-0.530494	2.616431	-0.825928	0.342529	-0.487305	0.172598	-0.073667	-0.099941	-0.073521	-0.729587	-0.148273	-0.663560	109.649395	-71.164265	76.493327
08962		18.163503	-3.817281	-5.132416	-4.112904	8.620600	6.907688	0.329065	-0.249210	2.811350	-0.817871	0.364990	-0.489746	0.182211	-0.035530	-0.051157	-0.063138	-0.732576	-0.138884	-0.663368	112.016219	-72.630143	74.195552
08963		7.725379	-0.369860	-0.841559	-0.226654	2.400817	-2.416211	0.465526	-0.274464	2.523788	-0.809326	0.378418	-0.487549	0.077304	-0.002704	-0.008317	-0.053150	-0.735363	-0.130914	-0.662780	114.704722	-73.915108	71.662234
08964		6.727064	-1.656413	-3.165798	-2.728292	2.992463	-3.361412	0.126634	-0.229737	2.140549	-0.816406	0.382813	-0.491943	0.067479	-0.015823	-0.031591	-0.045705	-0.737547	-0.123275	-0.662374	117.153891	-74.970952	69.189175
08965		9.861931	-1.488949	-2.401432	-1.629454	3.501267	-0.308795	0.155451	-0.064916	2.032121	-0.805908	0.405029	-0.485596	0.098771	-0.013868	-0.023993	-0.038341	-0.739049	-0.116103	-0.662462	119.551954	-75.996635	66.799598
08966		8.175608	0.325835	-0.292608	0.540671	1.407124	-1.765423	0.089723	-0.072567	1.669991	-0.803955	0.409668	-0.492188	0.081726	0.003942	-0.002895	-0.032486	-0.740279	-0.110092	-0.662428	121.802448	-76.807942	64.531024
08967		9.107838	0.506027	-1.233540	-0.248513	1.204456	-0.690367	-0.271068	-0.206999	1.336143	-0.808838	0.418213	-0.487793	0.091055	0.005652	-0.012249	-0.029077	-0.741676	-0.104040	-0.662003	123.958194	-77.403989	62.155757
08968		10.616387	0.925801	-1.954064	-0.722496	0.898362	0.960091	-0.278939	-0.269209	1.213981	-0.806641	0.425049	-0.487793	0.106131	0.009875	-0.019411	-0.026200	-0.743171	-0.098455	-0.661299	126.241421	-77.893167	59.648748
08969		10.307474	0.553097	-1.165204	0.025035	1.161120	0.509988	-0.232855	-0.323633	1.133944	-0.807129	0.431641	-0.481445	0.103060	0.006102	-0.011492	-0.023375	-0.744791	-0.093256	-0.660336	128.756208	-78.311797	56.938034
08970		9.824581	0.664486	-1.252571	-0.057043	0.855063	0.076572	-0.227991	-0.374408	1.095551	-0.802979	0.442871	-0.481445	0.098231	0.007169	-0.012350	-0.020748	-0.746526	-0.088259	-0.659150	131.463760	-78.661543	54.035513
08971		9.322816	1.426320	-1.765262	-0.498000	-0.112630	-0.231244	-0.335730	-0.403610	0.975283	-0.802979	0.442871	-0.479248	0.093193	0.014688	-0.017489	-0.018867	-0.748274	-0.083298	-0.657869	134.129051	-78.928760	51.118010
08972		9.703557	1.371843	-2.351356	-0.997387	-0.128866	0.215169	-0.406936	-0.367708	0.876217	-0.810059	0.453857	-0.479248	0.097017	0.014096	-0.023364	-0.017627	-0.749827	-0.078526	-0.656721	136.556512	-79.138569	48.401841
08973		9.848379	1.483393	-2.187582	-0.773361	-0.277696	0.351019	-0.454782	-0.311064	0.768162	-0.803711	0.460449	-0.474854	0.098460	0.015163	-0.021757	-0.016836	-0.751135	-0.073956	-0.655777	138.730054	-79.315752	45.919757
08974		9.752743	0.217461	-1.384961	-0.076236	0.956443	-0.006543	-0.516607	-0.254586	0.677797	-0.803711	0.462646	-0.468262	0.097537	0.002470	-0.013732	-0.016615	-0.752195	-0.069575	-0.655047	140.575860	-79.461900	43.734627
08975		10.140726	-0.881543	-1.578882	-0.278111	2.022717	0.283613	-0.389140	-0.195531	0.602118	-0.803955	0.467041	-0.472656	0.101449	-0.008541	-0.015673	-0.016080	-0.753040	-0.065851	-0.654474	142.290881	-79.600184	41.759539
08976		10.049920	-0.432572	-1.824549	-0.473391	1.499123	0.289059	-0.031909	-0.142020	0.515266	-0.804443	0.478271	-0.475098	0.100523	-0.004070	-0.018173	-0.014528	-0.753694	-0.063676	-0.653972	143.895442	-79.717560	40.103834
08977		9.827711	-0.712389	-1.426284	-0.115219	1.725250	-0.007804	0.292977	-0.108362	0.420134	-0.799805	0.478271	-0.475098	0.098299	-0.006897	-0.014220	-0.011990	-0.754233	-0.062875	-0.653480	145.455954	-79.815720	38.684396
08978		9.931596	-0.905343	-0.771768	0.540475	1.928183	-0.012598	0.532951	-0.080939	0.327466	-0.802246	0.482666	-0.479492	0.099334	-0.008870	-0.007701	-0.008903	-0.754653	-0.063257	-0.653007	146.840099	-79.886206	37.582396
08979		10.360988	-1.363874	-0.380415	0.953665	2.419182	0.316130	0.662915	-0.081852	0.278055	-0.800293	0.487305	-0.475098	0.103630	-0.013482	-0.003807	-0.005425	-0.755065	-0.064200	-0.652477	148.226652	-79.940892	36.555589
08980		10.366612	-0.266579	0.083599	1.517696	1.338852	0.358288	0.764462	-0.092566	0.212311	-0.802490	0.487305	-0.486084	0.103668	-0.002559	0.000874	-0.001844	-0.755475	-0.065770	-0.651865	149.472846	-79.962314	35.728746
08981		10.467881	0.688873	0.331152	1.882570	0.401224	0.505048	0.765782	-0.096758	0.173411	-0.800049	0.482910	-0.486084	0.104671	0.006967	0.003389	0.001676	-0.755879	-0.067443	-0.651226	150.665882	-79.971946	34.958476
08982		10.500213	0.443405	-0.137851	1.416204	0.588205	0.585314	0.753931	-0.091375	0.147503	-0.797852	0.487305	-0.488281	0.104999	0.004517	-0.001314	0.005007	-0.756241	-0.069221	-0.650603	151.726078	-79.970150	34.314438
08983		10.326129	-0.004020	-0.926254	0.579987	0.914242	0.498211	0.800327	-0.085050	0.163455	-0.802490	0.491699	-0.497070	0.103265	0.000081	-0.009218	0.008628	-0.756576	-0.071042	-0.649977	152.892655	-79.978036	33.591104
08984		10.122272	0.787159	-1.320761	0.272700	0.040027	0.421976	0.906610	-0.074728	0.221374	-0.804932	0.493896	-0.499268	0.101219	0.008043	-0.013134	0.012782	-0.756878	-0.073035	-0.649337	154.231126	-79.998998	32.753355
08985		9.748505	1.659636	-1.661015	0.019695	-0.938569	0.170558	0.870228	-0.094149	0.331963	-0.800537	0.498535	-0.501465	0.097465	0.016830	-0.016491	0.017209	-0.757269	-0.074444	-0.648618	155.950731	-80.036786	31.509230
08986		9.243002	2.711713	-2.383944	-0.587595	-2.165297	-0.146485	0.702195	-0.126694	0.479284	-0.800781	0.502930	-0.497070	0.092380	0.027422	-0.023685	0.021406	-0.757819	-0.074798	-0.647810	158.026060	-80.079371	29.804665
08987		8.907700	3.075412	-2.867621	-1.022327	-2.681458	-0.389702	0.505117	-0.156377	0.634945	-0.798828	0.509521	-0.501465	0.089001	0.031109	-0.028528	0.025406	-0.758531	-0.073883	-0.646936	160.560542	-80.129130	27.521279
08988		9.119236	2.231252	-2.777460	-0.990174	-1.893883	-0.258349	0.330397	-0.155646	0.801058	-0.801270	0.516113	-0.501709	0.091123	0.022723	-0.027666	0.029223	-0.759309	-0.071814	-0.646095	163.495804	-80.186817	24.728261
08989		9.146487	1.563539	-2.298770	-0.585916	-1.255353	-0.353975	0.200602	-0.150597	0.987288	-0.792480	0.520752	-0.501709	0.091403	0.016110	-0.022903	0.033203	-0.760140	-0.068576	-0.645277	167.025365	-80.249781	21.258811
08990		9.297792	1.743065	-1.798553	-0.019388	-1.454813	-0.294067	0.115268	-0.119535	1.138622	-0.790527	0.529785	-0.503906	0.092887	0.017970	-0.017920	0.037304	-0.760911	-0.064521	-0.644562	170.977908	-80.306310	17.309670
08991		10.073060	1.656919	-1.683968	0.230648	-1.431272	0.431561	0.011877	-0.101851	1.218172	-0.788818	0.540771	-0.492920	0.100636	0.017183	-0.016787	0.041323	-0.761644	-0.059786	-0.643907	175.201992	-80.331883	13.026989
08992		10.996970	0.933589	-1.773159	0.218694	-0.822916	1.332823	-0.024133	-0.114947	1.254636	-0.779785	0.543213	-0.501709	0.109918	0.010023	-0.017670	0.045266	-0.762406	-0.054835	-0.643181	179.484811	-80.296732	8.662211
08993		12.055486	0.360836	-1.570790	0.543106	-0.346433	2.332905	0.056525	-0.088326	1.255259	-0.778320	0.561035	-0.497314	0.120536	0.004369	-0.015653	0.049571	-0.763033	-0.050096	-0.642506	-176.193525	-80.221940	4.305664
08994		12.671677	0.360878	-1.284728	0.958206	-0.455951	2.884710	0.142004	-0.058223	1.274917	-0.774170	0.569824	-0.501953	0.126694	0.004426	-0.012807	0.054224	-0.763514	-0.045584	-0.641894	-171.874197	-80.108174	-0.001510
08995		12.328803	0.639066	-1.230219	1.021910	-0.890459	2.519451	0.252268	-0.047567	1.335861	-0.777100	0.585449	-0.499756	0.123245	0.007229	-0.012264	0.059539	-0.763910	-0.041153	-0.641251	-167.376446	-79.937111	-4.426130
08996		12.071250	1.201512	-1.217288	1.096691	-1.613358	2.221939	0.298673	-0.009961	1.430009	-0.768555	0.596680	-0.510742	0.120623	0.012896	-0.012148	0.065292	-0.764153	-0.036533	-0.640682	-162.742548	-79.713711	-8.966185
08997		11.931756	2.007363	-1.414937	1.017868	-2.618075	2.040790	0.310778	0.034421	1.544950	-0.771240	0.607666	-0.497803	0.119155	0.021016	-0.014138	0.071562	-0.764220	-0.031529	-0.640197	-157.912082	-79.425076	-13.691355
08998		12.455193	1.403304	-1.369505	1.093191	-2.238138	2.547265	0.272485	0.076196	1.695078	-0.762695	0.618896	-0.504395	0.124422	0.015107	-0.013722	0.078070	-0.764142	-0.025779	-0.639787	-152.962708	-79.052403	-18.576357
08999		12.755821	1.703272	-0.962518	1.604567	-2.718196	2.700121	0.286904	0.134995	1.868404	-0.752197	0.636963	-0.500000	0.127385	0.018237	-0.009686	0.085283	-0.763825	-0.019423	-0.639470	-147.826460	-78.578909	-23.639113
09000		13.099587	2.188502	-0.674412	2.029509	-3.430146	2.874024	0.198753	0.160494	2.023180	-0.750488	0.652344	-0.497803	0.130760	0.023215	-0.006826	0.092554	-0.763407	-0.012146	-0.639136	-142.826400	-77.984491	-28.635199
09001		13.613442	1.973117	-0.571287	2.206307	-3.530526	3.310026	0.130526	0.191476	2.145842	-0.737549	0.668213	-0.504639	0.135907	0.021194	-0.005830	0.100038	-0.762839	-0.004206	-0.638789	-138.059656	-77.272186	-33.433412
09002		14.181671	1.492123	-1.079310	1.760728	-3.511484	3.937646	0.100719	0.215310	2.258021	-0.722656	0.688477	-0.506836	0.141624	0.016526	-0.010938	0.107664	-0.762122	0.004309	-0.638404	-133.632421	-76.447536	-37.926318
09003		14.611631	2.443955	-1.619557	1.444072	-4.917377	4.180853	0.114587	0.256586	2.370660	-0.720947	0.701904	-0.511230	0.145792	0.026178	-0.016368	0.115773	-0.761153	0.013187	-0.638019	-129.482892	-75.513641	-42.130380
09004		14.979651	2.793470	-2.024704	1.160009	-5.732348	4.402626	0.156513	0.297343	2.476551	-0.701416	0.722168	-0.513428	0.149405	0.029802	-0.020447	0.124272	-0.759913	0.022399	-0.637641	-125.646922	-74.479955	-46.014808
09005		15.518338	3.657690	-2.110690	1.275206	-7.058173	4.581538	0.267243	0.353863	2.589043	-0.688965	0.744629	-0.513672	0.154655	0.038610	-0.021330	0.133549	-0.758278	0.031736	-0.637317	-122.025394	-73.345295	-49.629560
09006		15.913106	5.198336	-2.640884	1.004257	-9.103615	4.446389	0.397544	0.419672	2.708332	-0.671875	0.767090	-0.513672	0.158352	0.054184	-0.026635	0.143640	-0.756193	0.041129	-0.637062	-118.604094	-72.113791	-52.979827
09007		16.188950	5.462561	-3.555091	0.178454	-9.985242	4.498207	0.572593	0.458147	2.835912	-0.658691	0.778564	-0.522461	0.161011	0.057015	-0.035759	0.154778	-0.753671	0.050478	-0.636770	-115.373511	-70.770052	-56.046800
09008		16.661875	6.301786	-3.845785	0.082331	-11.394442	4.408886	0.967963	0.461792	2.987195	-0.641602	0.803467	-0.531494	0.165562	0.065682	-0.038527	0.167833	-0.750623	0.059117	-0.636320	-112.250004	-69.297512	-58.786008
09009		16.825467	7.749036	-3.740916	0.432821	-13.231632	3.672183	1.513698	0.482460	3.084576	-0.624512	0.825928	-0.546875	0.166940	0.080354	-0.037212	0.183199	-0.746807	0.066389	-0.635854	-109.138384	-67.728017	-61.203636
09010		17.902337	9.588767	-3.953671	0.764564	-15.786725	3.537215	2.204616	0.622192	3.127535	-0.604736	0.837646	-0.562256	0.177368	0.099102	-0.039010	0.201167	-0.741651	0.071727	-0.635878	-105.818057	-66.112327	-63.445902
09011		16.941921	14.286731	-4.265348	1.185830	-20.185008	0.208715	2.615457	0.708729	3.283894	-0.583252	0.862549	-0.588623	0.166889	0.146168	-0.041351	0.221031	-0.735439	0.076388	-0.635955	-102.473835	-64.375065	-65.484529
09012		16.342671	12.738960	-2.891195	2.360704	-18.609056	-0.550026	2.154203	0.835522	3.598181	-0.554199	0.869873	-0.608398	0.160977	0.130607	-0.028193	0.240058	-0.728880	0.083784	-0.635678	-99.522636	-62.429149	-67.410873
09013		19.374628	4.473877	-0.162968	4.084025	-12.519426	5.085342	1.381072	1.129557	3.872014	-0.528320	0.896973	-0.623779	0.192820	0.048493	-0.002394	0.256879	-0.721868	0.094927	-0.635538	-96.983742	-60.317113	-69.408645
09014		21.223672	0.673611	-0.301707	3.479707	-10.874273	8.091599	1.164521	1.322099	4.018382	-0.497070	0.908691	-0.636963	0.212018	0.011020	-0.004363	0.273197	-0.714111	0.107511	-0.635493	-94.668865	-58.090101	-71.333197
09015		18.866619	2.631267	-1.257504	2.429579	-12.253404	4.621695	0.974329	1.448587	3.944362	-0.473145	0.927002	-0.647949	0.188001	0.030090	-0.013798	0.288368	-0.705916	0.120524	-0.635611	-92.624555	-55.879992	-73.112518
09016		17.082593	4.384055	-0.757082	2.857593	-13.122899	1.641197	0.199365	1.302096	3.730260	-0.442383	0.945557	-0.654541	0.169915	0.047024	-0.008633	0.300123	-0.699123	0.135014	-0.634764	-91.357101	-53.756766	-74.530507
09017		14.808799	4.976711	-1.222546	2.063655	-12.796615	-1.007784	-0.328386	0.949313	3.318427	-0.416016	0.961426	-0.652344	0.147175	0.052193	-0.013010	0.308815	-0.694284	0.149119	-0.632746	-90.791650	-51.860486	-75.484309
09018		13.347982	5.831272	-0.856659	2.263561	-12.753719	-3.096374	-0.686800	0.678939	2.923406	-0.394043	0.975098	-0.654541	0.132578	0.060224	-0.009222	0.315175	-0.690950	0.162573	-0.629938	-90.687556	-50.177696	-76.132079
09019		9.900160	5.770214	-2.921933	-0.355244	-11.195806	-6.022413	-0.372973	0.506481	2.604330	-0.376465	0.982178	-0.650146	0.098165	0.058929	-0.029578	0.321636	-0.687792	0.173577	-0.627187	-90.553152	-48.685027	-76.598637
09020		6.486838	3.766141	-1.392362	0.244305	-7.264929	-7.497457	-0.091632	0.466863	2.179006	-0.356445	0.989258	-0.652344	0.064420	0.038358	-0.014092	0.327768	-0.684556	0.182198	-0.625104	-90.307053	-47.425660	-77.008101
09021		4.384054	-1.639858	-0.886147	-0.456743	-1.939957	-5.485815	-0.414953	0.319122	1.653819	-0.347656	0.991699	-0.647949	0.043960	-0.016054	-0.008898	0.331194	-0.682737	0.189714	-0.623049	-90.352952	-46.476564	-77.279491
09022		8.706806	0.988864	-3.857384	-2.294868	-7.401238	-4.189463	-0.458680	0.054074	0.915123	-0.347656	0.993896	-0.647949	0.087011	0.010198	-0.038621	0.332463	-0.682464	0.194454	-0.621208	-90.588210	-45.939583	-77.325926
09023		5.032861	7.519586	-2.581384	-0.655482	-9.248831	-11.414810	-0.285616	-0.022402	0.287023	-0.338867	0.998291	-0.643555	0.050224	0.075231	-0.025916	0.332378	-0.682761	0.196322	-0.620338	-90.773016	-45.772793	-77.305770
09024		-1.844475	10.643363	-0.610183	0.626000	-6.382229	-18.526462	-0.694207	-0.115892	-0.728370	-0.347900	1.000244	-0.630371	-0.018053	0.106478	-0.006482	0.327898	-0.684993	0.195894	-0.620397	-91.256209	-46.175919	-77.195250
09025		-2.855805	10.892280	-0.043201	0.988388	-5.878703	-19.365682	-0.998486	-0.144320	-1.512437	-0.361084	0.989014	-0.628174	-0.027733	0.109131	-0.000997	0.319886	-0.688566	0.193602	-0.621344	-91.951627	-47.038479	-77.035068
09026		-0.882560	8.531940	-0.537221	0.416246	-5.740641	-16.194668	-1.263883	-0.184992	-2.057787	-0.379150	0.988525	-0.608398	-0.007942	0.085368	-0.005919	0.309337	-0.693116	0.190235	-0.622664	-92.854985	-48.198991	-76.800594
09027		0.693027	5.888753	-1.267709	-0.449681	-5.071904	-13.104485	-1.296536	-0.214319	-2.495111	-0.391846	0.972656	-0.604004	0.007677	0.058711	-0.013050	0.297215	-0.698127	0.185308	-0.624454	-93.844599	-49.618162	-76.482607
09028		1.254828	4.035552	-1.579595	-0.921678	-4.146670	-11.332368	-1.084204	-0.172595	-2.924059	-0.418457	0.961182	-0.593018	0.013149	0.040080	-0.016003	0.284464	-0.702914	0.178311	-0.627054	-94.745895	-51.268302	-76.127160
09029		1.524345	3.063984	-1.382449	-0.812986	-3.551935	-10.399425	-0.886174	-0.137786	-3.411724	-0.445068	0.951660	-0.582031	0.015772	0.030312	-0.013949	0.270693	-0.707572	0.168909	-0.630505	-95.593535	-53.207547	-75.706537
09030		2.228354	2.920387	-0.972984	-0.333039	-3.781379	-9.640977	-0.545982	-0.011192	-3.770086	-0.467041	0.935547	-0.579834	0.022829	0.028750	-0.009807	0.256877	-0.711416	0.157353	-0.634934	-96.233352	-55.342332	-75.311223
09031		2.667877	3.577095	-0.114452	0.637189	-4.409452	-9.540348	-0.207305	0.145708	-4.118124	-0.501953	0.908447	-0.577637	0.027407	0.035210	-0.001201	0.242855	-0.714341	0.143551	-0.640415	-96.638500	-57.696095	-74.976875
09032		3.425881	4.671193	0.705836	1.664386	-5.570059	-9.309284	-0.098600	0.243199	-4.514633	-0.530029	0.883301	-0.577637	0.035310	0.045926	0.006993	0.227851	-0.716756	0.128109	-0.646477	-96.983955	-60.267872	-74.646763
09033		4.627226	5.278735	0.880562	2.053080	-6.592699	-8.275529	-0.229912	0.252572	-4.911820	-0.558105	0.854004	-0.575439	0.047561	0.051640	0.008686	0.210874	-0.719163	0.111532	-0.652609	-97.521583	-63.078162	-74.194241
09034		6.378010	4.932494	0.530185	1.857551	-6.972757	-6.178900	-0.241391	0.265387	-5.315806	-0.590576	0.820068	-0.577393	0.065068	0.047613	0.005158	0.192480	-0.721279	0.093556	-0.658753	-98.230615	-66.102815	-73.569262
09035		8.367131	3.980441	0.654062	2.046152	-6.591711	-3.598183	-0.065232	0.301012	-5.673716	-0.618408	0.788574	-0.575195	0.084765	0.037412	0.006401	0.173288	-0.722743	0.073593	-0.664979	-99.059714	-69.343693	-72.722030
09036		10.162074	3.000204	0.632302	2.020301	-5.861341	-1.198829	0.244837	0.297941	-5.942513	-0.657471	0.750000	-0.581543	0.102461	0.026958	0.006205	0.154271	-0.723429	0.051644	-0.670958	-100.086406	-72.716400	-71.494848
09037		11.659168	2.094663	0.946201	2.256166	-4.793120	0.822599	0.593129	0.281143	-6.185732	-0.689453	0.705078	-0.583496	0.117178	0.017300	0.009352	0.135462	-0.723303	0.027501	-0.676555	-101.596389	-76.229688	-69.583414
09038		13.635365	1.779182	0.775407	2.086014	-4.218018	3.128769	0.756212	0.185987	-6.403350	-0.710205	0.662598	-0.592285	0.136836	0.013386	0.007683	0.116483	-0.722692	0.002014	-0.681281	-104.602057	-79.815566	-66.075656
09039		16.276359	1.315043	0.759409	2.035818	-3.264991	6.072067	0.894391	0.083287	-6.523624	-0.733154	0.620117	-0.592041	0.163079	0.007800	0.007569	0.097370	-0.721588	-0.024530	-0.685003	-111.715869	-83.391639	-58.378002
09040		18.524739	1.594042	0.587593	1.881680	-2.676286	8.496427	0.830030	-0.140690	-6.566438	-0.760742	0.575195	-0.587402	0.185633	0.009824	0.006056	0.077846	-0.720495	-0.051001	-0.687187	-135.902058	-86.533088	-33.638389
09041		20.759447	0.891768	0.335593	1.451535	-0.824051	10.897675	0.465723	-0.381442	-6.595233	-0.780762	0.517090	-0.582764	0.207731	0.002060	0.003762	0.056661	-0.719571	-0.076452	-0.687868	153.427459	-86.971346	37.378292
09042		22.726747	-0.627630	-0.392405	0.376870	2.016457	12.829246	0.043855	-0.608242	-6.574623	-0.799316	0.472168	-0.575928	0.226908	-0.013740	-0.003236	0.033985	-0.718779	-0.100269	-0.687130	120.977802	-84.045628	69.931790
09043		24.530561	-1.954284	-1.588066	-1.109821	4.800657	14.345028	-0.390632	-0.821441	-6.472016	-0.806641	0.429932	-0.564697	0.244564	-0.027496	-0.014827	0.009853	-0.718059	-0.122241	-0.685093	111.725636	-80.498826	79.030483
09044		25.607168	-5.731341	-2.657110	-2.894105	10.023953	14.405765	-1.080993	-0.970701	-6.362261	-0.818359	0.380859	-0.551270	0.254197	-0.065559	-0.024995	-0.016379	-0.717202	-0.141244	-0.682204	107.617326	-76.888403	82.580365
09045		27.920375	-11.823613	-1.181937	-2.459941	18.199273	14.336332	-1.304506	-0.749898	-6.129836	-0.825928	0.347412	-0.544434	0.275444	-0.126787	-0.009973	-0.042543	-0.714984	-0.158604	-0.679583	104.739117	-73.392819	84.775677
09046		26.106858	-9.480251	1.601923	0.622916	17.277389	11.979533	-0.555450	-0.562604	-5.720747	-0.838135	0.309326	-0.533447	0.258169	-0.102169	0.017025	-0.064358	-0.711980	-0.176863	-0.676507	102.998234	-70.144842	86.266509
09047		23.723407	-11.204703	1.767730	0.423990	19.198213	8.147158	-0.964301	-0.483293	-5.308680	-0.843262	0.267090	-0.517822	0.234106	-0.118200	0.018806	-0.086191	-0.708365	-0.192221	-0.673677	101.489234	-67.114444	87.285008
09048		24.194769	-19.819862	-2.670303	-5.231905	27.452624	4.474981	-0.980374	-0.464486	-4.653467	-0.851074	0.240234	-0.519775	0.237307	-0.203882	-0.025158	-0.105725	-0.704871	-0.205027	-0.670778	100.389807	-64.458177	87.867775
09049		21.177996	-24.495503	-6.973559	-10.225412	30.294870	-1.170139	0.157007	-0.243586	-4.004990	-0.856689	0.211182	-0.521729	0.206904	-0.249076	-0.069676	-0.118850	-0.701543	-0.219420	-0.667508	99.946846	-62.179613	88.455934
09050		16.644883	-24.202009	-9.654810	-13.091431	27.729841	-5.861933	1.006870	-0.167981	-3.177205	-0.860107	0.186768	-0.523926	0.162663	-0.244135	-0.097636	-0.126057	-0.699158	-0.233678	-0.663840	100.121819	-60.382415	88.907419
09051		15.899076	-23.123848	-8.617023	-12.223237	26.514484	-6.765667	1.435738	-0.060616	-2.289332	-0.859619	0.171143	-0.512695	0.156361	-0.232412	-0.087788	-0.128684	-0.697561	-0.246285	-0.660449	100.601657	-59.095111	89.297106
09052		15.102542	-23.124543	-5.036481	-9.084471	26.513893	-8.180965	1.694389	0.032272	-1.226415	-0.859619	0.171387	-0.521484	0.149597	-0.231728	-0.052351	-0.126746	-0.697037	-0.256049	-0.657658	101.325600	-58.420821	89.578872
09053		12.722161	-20.830884	-2.153582	-6.199653	23.703056	-9.443980	1.606494	0.136614	-0.177968	-0.859375	0.164551	-0.514893	0.127021	-0.208240	-0.023296	-0.121512	-0.697405	-0.261908	-0.655946	102.094129	-58.350072	89.751215
09054		16.972789	-15.492812	-3.093075	-6.274043	21.226111	-2.902340	1.382700	0.044011	0.440182	-0.859375	0.166992	-0.521484	0.170061	-0.154335	-0.032037	-0.115156	-0.698701	-0.264812	-0.654546	102.939121	-58.613634	89.682317
09055		17.563225	-11.716358	0.310106	-2.266378	18.905182	-0.686502	1.155007	0.076291	1.128024	-0.855469	0.180176	-0.519531	0.176290	-0.116186	0.002361	-0.107259	-0.700646	-0.264547	-0.653915	103.787187	-59.268984	89.459551
09056		14.559109	-12.309144	-2.344714	-5.003811	17.219917	-2.927761	-0.060726	-0.041945	2.188435	-0.853760	0.195801	-0.530518	0.146931	-0.121496	-0.023379	-0.100336	-0.703646	-0.256528	-0.654988	104.322356	-60.491235	88.793752
09057		14.846417	13.738108	1.090984	4.433142	-4.377642	9.461712	0.669209	0.338783	2.626549	-0.850098	0.218018	-0.526123	0.146662	0.139278	0.011124	-0.088854	-0.706238	-0.249471	-0.656580	105.071626	-62.015041	88.371747
09058		11.744216	30.874527	13.326985	20.374012	-18.585491	12.731023	-0.153978	0.201233	1.911062	-0.841553	0.229492	-0.535156	0.114618	0.309952	0.132915	-0.082838	-0.707901	-0.242178	-0.658304	105.328694	-63.113524	87.975985
09059		11.182514	4.066120	12.741836	13.544787	3.815171	0.477745	-2.581498	-0.349325	1.947758	-0.844482	0.244873	-0.519775	0.111189	0.043388	0.127065	-0.085909	-0.710295	-0.226466	-0.660919	104.835017	-64.155939	86.870302
09060		16.275675	-8.314547	4.310668	3.140532	15.010715	1.021626	-3.593647	-0.813708	2.502059	-0.838623	0.262695	-0.510986	0.163592	-0.080302	0.045231	-0.091272	-0.714135	-0.205183	-0.663008	104.513532	-65.436403	84.943379
09061		11.880917	-2.371116	-2.078797	-1.905245	6.680066	0.328248	-3.002272	-0.997192	2.470057	-0.836914	0.275879	-0.502441	0.119193	-0.022543	-0.019850	-0.094734	-0.718499	-0.185760	-0.663534	104.855377	-66.679085	82.681180
09062		11.006349	-2.197253	0.077233	0.391689	6.230782	-0.485812	-1.789838	-0.585846	2.386810	-0.830811	0.295898	-0.498047	0.110312	-0.020647	0.001284	-0.093746	-0.721762	-0.170830	-0.664144	105.469210	-67.922952	80.897806
09063		12.656477	-8.148756	-3.961547	-4.050208	11.792725	-0.496192	-1.304686	-0.671349	2.446059	-0.829346	0.315918	-0.487305	0.127682	-0.080185	-0.038662	-0.090815	-0.725432	-0.157179	-0.663925	106.663969	-69.182327	78.805434
09064		16.320944	-4.827739	-8.939524	-8.120155	9.429609	4.840863	-1.487164	-1.010988	2.464978	-0.818848	0.329346	-0.482910	0.164241	-0.046916	-0.088214	-0.088778	-0.729996	-0.142705	-0.662465	108.481338	-70.365519	75.954358
09065		16.273570	-1.302170	-5.886991	-4.543829	6.028952	5.813378	-0.819544	-0.814878	2.487441	-0.819580	0.349365	-0.474365	0.163121	-0.011234	-0.058157	-0.084011	-0.734076	-0.130369	-0.661119	110.697232	-71.571478	73.108914
09066		9.381526	-1.762660	-0.348352	0.419829	4.395567	-1.342801	-0.287260	-0.678237	2.499877	-0.811279	0.364990	-0.472168	0.094037	-0.016457	-0.003141	-0.077204	-0.737792	-0.119829	-0.659806	113.340819	-72.764757	70.152962
09067		7.121335	-3.117200	-3.222709	-2.678546	4.770682	-3.418997	-0.162901	-0.649430	2.248927	-0.809570	0.378174	-0.469971	0.071662	-0.030394	-0.031970	-0.070673	-0.741206	-0.110566	-0.658326	116.207204	-73.797907	67.058261
09068		10.579327	-2.927024	-3.553585	-2.555256	5.291157	0.116381	0.320711	-0.319720	2.207254	-0.805664	0.393799	-0.465820	0.106164	-0.028043	-0.035412	-0.062359	-0.743572	-0.103201	-0.657694	119.085637	-74.843401	64.253397
09069		9.021975	-1.661348	-1.567912	-0.637837	3.582960	-1.247229	0.755262	-0.161929	1.916977	-0.801270	0.400635	-0.472412	0.090386	-0.015688	-0.015666	-0.053227	-0.745327	-0.098329	-0.657256	122.003236	-75.760068	61.680334
09070		10.138089	-1.074281	-0.211434	0.899778	3.153384	-0.157435	0.870479	-0.109256	1.613228	-0.799561	0.414063	-0.472412	0.101464	-0.009915	-0.002103	-0.044701	-0.746706	-0.095025	-0.656812	124.809190	-76.506339	59.297798
09071		11.427381	-0.283576	1.168856	2.506132	2.560476	1.104864	0.787101	-0.105126	1.441081	-0.808838	0.422607	-0.479004	0.114284	-0.002058	0.011740	-0.036976	-0.747923	-0.092029	-0.656334	127.618666	-77.153451	56.871462
09072		11.416366	0.654810	1.446255	2.892018	1.510641	1.242013	0.682656	-0.157104	1.294405	-0.797852	0.427246	-0.479004	0.114107	0.007237	0.014576	-0.030215	-0.749167	-0.089277	-0.655641	130.457708	-77.680900	54.357245
09073		10.482395	0.187636	0.751665	2.081027	1.627899	0.360752	0.545702	-0.223996	1.166610	-0.800537	0.436279	-0.479248	0.104802	0.002467	0.007640	-0.024344	-0.750522	-0.086487	-0.654709	133.375308	-78.107655	51.688877
09074		10.704519	0.200768	-0.107827	1.297965	1.472113	0.712795	0.432042	-0.217524	1.016405	-0.796387	0.449707	-0.483643	0.107034	0.002554	-0.000957	-0.019457	-0.751741	-0.083939	-0.653805	136.072981	-78.440670	49.180455
09075		10.350910	0.941015	-0.194334	1.278557	0.580031	0.487442	0.189231	-0.282890	0.894706	-0.801025	0.451660	-0.479248	0.103468	0.009875	-0.001788	-0.015839	-0.753082	-0.080993	-0.652731	138.675951	-78.682034	46.631153
09076		9.975506	0.503882	-1.112833	0.318528	0.799164	0.200421	-0.126169	-0.336754	0.769893	-0.796631	0.454102	-0.481445	0.099753	0.005416	-0.010964	-0.013906	-0.754502	-0.077536	-0.651553	140.979018	-78.825027	44.203217
09077		10.537008	-1.010666	-2.242149	-0.825617	2.205032	0.748223	-0.094362	-0.278207	0.744189	-0.797119	0.462891	-0.477051	0.105438	-0.009725	-0.022270	-0.011846	-0.755714	-0.074229	-0.650574	143.233781	-78.972906	41.846172
09078		9.972346	-1.023911	-4.163396	-2.767286	1.921500	0.506198	0.193971	-0.170342	0.674647	-0.799561	0.469482	-0.477051	0.099793	-0.009862	-0.041559	-0.008950	-0.756551	-0.072181	-0.649878	145.319281	-79.124275	39.829114
09079		8.837186	0.875016	-4.500077	-3.057044	-0.194694	-0.340181	0.441083	-0.061645	0.559127	-0.797607	0.478516	-0.483887	0.088361	0.009096	-0.044954	-0.005387	-0.756997	-0.071324	-0.649491	147.174419	-79.283049	38.193705
09080		9.016063	1.075254	-3.675574	-2.184561	-0.366129	-0.270739	0.502202	-0.022389	0.425232	-0.804443	0.478271	-0.481689	0.090141	0.011036	-0.036718	-0.002082	-0.757257	-0.071225	-0.649218	148.656864	-79.405693	36.971964
09081		9.190959	0.933565	-2.491628	-0.996477	-0.152975	-0.297596	0.512215	-0.029022	0.327895	-0.800049	0.482910	-0.486084	0.091898	0.009550	-0.024879	0.001009	-0.757502	-0.071475	-0.648908	149.970941	-79.495861	35.929690
09082		9.463711	1.145419	-1.536573	0.018663	-0.281241	-0.160986	0.506225	-0.044160	0.246625	-0.802490	0.487305	-0.486084	0.094626	0.011610	-0.015316	0.003742	-0.757754	-0.072064	-0.648538	151.056795	-79.546904	35.114312
09083		9.770910	1.183494	-0.772788	0.834149	-0.239810	0.021700	0.504561	-0.081384	0.183074	-0.804688	0.487305	-0.499268	0.097701	0.011944	-0.007658	0.006313	-0.758104	-0.072840	-0.648022	152.075507	-79.563464	34.368225
09084		9.827510	1.145883	-0.507940	1.115362	-0.188304	0.029644	0.545183	-0.097107	0.128039	-0.802490	0.489502	-0.499268	0.098270	0.011535	-0.005000	0.008790	-0.758472	-0.074005	-0.647431	152.944602	-79.551036	33.796047
09085		9.916160	0.242434	-0.849491	0.699100	0.658955	0.096280	0.587811	-0.120829	0.116195	-0.804688	0.491699	-0.503662	0.099165	0.002507	-0.008428	0.011443	-0.758908	-0.075306	-0.646728	153.879350	-79.525925	33.183747
09086		9.962547	-0.540236	-1.244551	0.233026	1.371320	0.145135	0.659878	-0.134130	0.156528	-0.811523	0.493896	-0.508057	0.099638	-0.005283	-0.012396	0.014434	-0.759386	-0.076734	-0.645939	154.938163	-79.497986	32.485378
09087		9.829966	-0.057449	-1.682867	-0.134746	0.797733	0.127581	0.755790	-0.133408	0.220466	-0.802490	0.491699	-0.505859	0.098311	-0.000403	-0.016765	0.018056	-0.759871	-0.078181	-0.645103	156.269165	-79.486867	31.567852
09088		9.854730	0.915930	-1.542088	0.166595	-0.180007	0.200921	0.818936	-0.110356	0.293085	-0.802734	0.498291	-0.505859	0.098542	0.009367	-0.015328	0.022100	-0.760289	-0.079600	-0.644311	157.769847	-79.496255	30.512719
09089		9.884095	1.553559	-1.187680	0.639801	-0.803295	0.210516	0.801149	-0.105428	0.395044	-0.800781	0.502930	-0.512451	0.098816	0.015778	-0.011762	0.026466	-0.760720	-0.080526	-0.643522	159.594538	-79.527492	29.119584
09090		10.205065	0.748441	-0.862190	0.908250	0.012395	0.415778	0.791548	-0.074720	0.517043	-0.800781	0.502930	-0.512451	0.102034	0.007782	-0.008553	0.031141	-0.761084	-0.080997	-0.642823	161.707530	-79.586458	27.426097
09091		10.211047	0.875252	0.041672	1.831430	-0.038950	0.270827	0.843311	-0.020072	0.647498	-0.805420	0.509521	-0.523438	0.102081	0.009081	0.000465	0.036510	-0.761298	-0.081083	-0.642276	164.258302	-79.687790	25.319910
09092		10.334414	0.906380	0.885538	2.695215	0.004086	0.244208	0.856928	0.036637	0.792997	-0.801270	0.518555	-0.519287	0.103309	0.009435	0.008876	0.042363	-0.761361	-0.080690	-0.641890	167.224691	-79.820093	22.798338
09093		10.213171	2.215650	0.775415	2.821643	-1.391941	0.183282	0.780385	0.045387	0.894865	-0.801514	0.522949	-0.525879	0.102033	0.022583	0.007819	0.048308	-0.761425	-0.079617	-0.641529	170.575171	-79.946283	19.844770
09094		10.237296	3.334331	-0.518035	1.805140	-2.811538	0.435437	0.553077	0.010791	0.992245	-0.803711	0.525146	-0.525879	0.102206	0.033865	-0.005093	0.053630	-0.761669	-0.077492	-0.641076	174.147935	-80.026498	16.532497
09095		10.666989	2.934134	-1.798946	0.595898	-2.741115	1.039036	0.224633	-0.128550	1.085704	-0.795410	0.538574	-0.523682	0.106520	0.029940	-0.017888	0.057997	-0.762455	-0.073953	-0.640180	177.939352	-79.995507	12.808959
09096		11.370265	1.625319	-2.408450	-0.079538	-1.663585	1.804104	0.067084	-0.166353	1.157270	-0.793457	0.549805	-0.519287	0.113626	0.016919	-0.023984	0.061924	-0.763412	-0.069685	-0.639149	-178.213136	-79.898496	8.934472
09097		11.646004	0.809995	-2.202000	0.062677	-0.954352	2.028671	0.033650	-0.199509	1.251618	-0.789307	0.558594	-0.519287	0.116428	0.008832	-0.021902	0.066060	-0.764484	-0.064922	-0.637954	-174.149025	-79.733386	4.820404
09098		11.589444	1.026622	-2.612948	-0.255879	-1.389690	2.027833	0.074391	-0.178646	1.314651	-0.785400	0.569824	-0.521729	0.115847	0.011038	-0.026022	0.070508	-0.765467	-0.060074	-0.636773	-170.044527	-79.523295	0.685053
09099		11.540833	1.080120	-3.043385	-0.623691	-1.678442	2.036837	0.119454	-0.140938	1.392666	-0.779297	0.585449	-0.517334	0.115351	0.011623	-0.030346	0.075486	-0.766291	-0.055087	-0.635661	-165.803664	-79.271256	-3.554342
09100		11.462599	0.720780	-2.837599	-0.460658	-1.453154	1.919158	0.147793	-0.085495	1.504175	-0.777344	0.596436	-0.512939	0.114579	0.008091	-0.028321	0.080837	-0.766927	-0.049707	-0.634679	-161.433205	-78.974219	-7.924520
09101		11.336605	1.585696	-2.651144	-0.111406	-2.443780	1.679666	0.168683	-0.021713	1.602131	-0.777832	0.607666	-0.517578	0.113237	0.016787	-0.026485	0.086688	-0.767320	-0.044024	-0.633851	-156.943608	-78.627468	-12.397267
09102		11.876677	2.063260	-3.091372	-0.316348	-3.211909	2.206004	0.119062	0.040086	1.715966	-0.771484	0.618896	-0.515381	0.118578	0.021669	-0.030925	0.092619	-0.767517	-0.037682	-0.633182	-152.443096	-78.219186	-16.927571
09103		12.301832	2.393668	-2.768576	0.160554	-3.715599	2.471194	0.131884	0.124181	1.829166	-0.760986	0.634521	-0.515381	0.122775	0.025079	-0.027746	0.099059	-0.767394	-0.030942	-0.632721	-147.865060	-77.747836	-21.525518
09104		12.741226	2.323952	-1.756956	1.227755	-3.725185	2.654733	0.115016	0.193929	1.962535	-0.754883	0.652344	-0.513184	0.127159	0.024498	-0.017679	0.105765	-0.767016	-0.023561	-0.632412	-143.307403	-77.193582	-26.132801
09105		13.138301	1.676361	-1.083460	1.858004	-3.264294	2.934260	0.110804	0.262180	2.091157	-0.741943	0.668213	-0.517822	0.131184	0.018142	-0.010997	0.112946	-0.766351	-0.015677	-0.632222	-138.796149	-76.543812	-30.694709
09106		13.833200	1.298952	-0.954623	2.064775	-3.247224	3.571624	0.119611	0.326297	2.258162	-0.736084	0.686035	-0.520020	0.138158	0.014556	-0.009763	0.120591	-0.765403	-0.007101	-0.632112	-134.366837	-75.778516	-35.191771
09107		14.347229	1.489450	-0.956284	2.198927	-3.833730	3.950771	0.222237	0.387436	2.403004	-0.725586	0.708496	-0.517822	0.143261	0.016627	-0.009823	0.129102	-0.764090	0.001764	-0.632057	-130.043094	-74.893070	-39.534257
09108		14.703337	2.788324	-0.820830	2.605082	-5.474062	3.893970	0.399743	0.457737	2.519476	-0.710449	0.726563	-0.529053	0.146647	0.029749	-0.008486	0.138607	-0.762323	0.010537	-0.632092	-125.879320	-73.903468	-43.625428
09109		15.556314	4.483896	-1.376236	2.494817	-7.751644	4.246840	0.570026	0.574712	2.603161	-0.697754	0.746826	-0.531250	0.154921	0.046898	-0.014076	0.149020	-0.759918	0.019187	-0.632415	-121.835285	-72.833181	-47.510075
09110		16.336871	5.207893	-1.720256	2.409036	-9.080120	4.633893	0.791030	0.699773	2.660473	-0.683105	0.769287	-0.540039	0.162595	0.054314	-0.017560	0.160387	-0.756806	0.027428	-0.633063	-117.914672	-71.697753	-51.156406
09111		16.704877	4.950646	-1.760859	2.375534	-9.356629	4.797281	1.160454	0.789277	2.752930	-0.661133	0.787598	-0.548828	0.166275	0.051902	-0.017969	0.173412	-0.752923	0.034925	-0.633890	-114.038778	-70.463182	-54.555934
09112		16.728336	5.429012	-0.935993	3.246549	-10.063320	4.271140	1.806556	0.924655	2.849910	-0.650635	0.803467	-0.573242	0.166442	0.056752	-0.009626	0.189090	-0.747835	0.040837	-0.635075	-110.005348	-69.134429	-57.756781
09113		16.948791	8.372060	0.242042	4.990147	-12.975351	2.998493	2.617147	1.114378	2.861394	-0.628418	0.815186	-0.594971	0.168282	0.086101	0.002597	0.207733	-0.741100	0.044384	-0.636905	-105.694005	-67.755974	-60.785369
09114		17.092444	14.826349	0.126842	6.344980	-19.227073	0.287252	2.926646	1.258697	2.941350	-0.611084	0.835449	-0.625977	0.168732	0.150726	0.002396	0.227649	-0.733249	0.047371	-0.638966	-101.438256	-66.273214	-63.592695
09115		16.899683	16.304079	-0.580854	6.156465	-20.920148	-1.086079	2.135784	1.283049	3.235091	-0.587158	0.853760	-0.634766	0.166295	0.165803	-0.005120	0.245488	-0.725815	0.053954	-0.640326	-97.952931	-64.558700	-66.085331
09116		18.036896	9.151976	0.624585	5.874184	-15.134430	2.265261	1.224809	1.467895	3.589679	-0.553711	0.863525	-0.658691	0.178730	0.094702	0.005503	0.261013	-0.718518	0.064958	-0.641393	-95.107811	-62.597384	-68.484844
09117		19.435096	5.175737	0.724828	5.151717	-12.850532	4.792278	0.768440	1.752712	3.803252	-0.527588	0.886230	-0.663086	0.193375	0.055417	0.005759	0.275352	-0.710513	0.078506	-0.642798	-92.557328	-60.481750	-70.890816
09118		20.520537	4.774481	-1.603473	2.834904	-14.351785	5.431234	0.147077	1.862847	3.980779	-0.503662	0.906738	-0.672119	0.204040	0.051827	-0.017902	0.287907	-0.702612	0.094825	-0.643781	-90.577759	-58.217612	-73.100324
09119		20.090711	2.828100	-3.299727	0.502266	-13.692327	5.508062	-0.611984	1.574064	4.105203	-0.464111	0.927246	-0.667725	0.200003	0.032288	-0.034669	0.298156	-0.696324	0.113521	-0.642922	-89.541402	-55.860158	-74.759381
09120		18.230844	2.958853	-5.028303	-1.534652	-13.826010	3.334390	-1.097548	1.055481	3.926840	-0.440186	0.945557	-0.665527	0.181415	0.032876	-0.051416	0.306331	-0.692204	0.132371	-0.639917	-89.356668	-53.591598	-75.763150
09121		15.752337	5.315420	-6.006190	-2.443923	-14.860785	-0.559390	-1.380334	0.536219	3.540739	-0.407227	0.963867	-0.656738	0.156392	0.055511	-0.060860	0.312464	-0.690151	0.149889	-0.635288	-89.774336	-51.556327	-76.239977
09122		13.434393	6.553990	-5.914862	-2.559403	-14.590107	-3.568729	-1.520221	0.258747	3.116002	-0.387207	0.968506	-0.641357	0.133229	0.067168	-0.059828	0.316914	-0.689281	0.165953	-0.630013	-90.469836	-49.758415	-76.474721
09123		8.025732	6.685574	-3.572814	-1.181689	-10.841342	-8.098695	-1.309996	0.303740	2.441668	-0.367432	0.982178	-0.630371	0.079380	0.067592	-0.036290	0.319789	-0.688333	0.179000	-0.626013	-91.007694	-48.359268	-76.764206
09124		3.339584	-2.435334	-2.284745	-2.089801	-0.900278	-5.674367	-0.865510	0.532697	1.946032	-0.352051	0.989258	-0.634766	0.033571	-0.024126	-0.022832	0.322445	-0.686279	0.189348	-0.623857	-91.153187	-47.237262	-77.245288
09125		10.209767	-11.761512	-2.376179	-2.489298	1.073584	5.707037	0.385728	0.529988	1.863051	-0.338867	0.993896	-0.639160	0.103123	-0.116611	-0.024260	0.329040	-0.682235	0.195421	-0.622976	-90.601341	-46.172616	-77.708213
09126		9.708779	1.747499	-2.511486	-0.773720	-8.358059	-4.053825	1.065848	0.299292	1.038286	-0.325439	1.000977	-0.654541	0.096957	0.018113	-0.025165	0.335648	-0.678528	0.196229	-0.623245	-89.820907	-45.565447	-77.953022
09127		1.220470	7.974965	-4.005842	-2.481091	-7.247691	-14.550914	1.079761	0.229186	0.025253	-0.327637	0.996582	-0.663086	0.012149	0.079966	-0.039641	0.339137	-0.675998	0.193367	-0.624997	-89.077846	-45.548104	-78.136070
09128		-1.053388	10.518048	-3.573841	-1.877123	-7.395453	-17.954777	0.859814	0.210082	-0.820226	-0.343018	0.991943	-0.672119	-0.010139	0.105375	-0.035275	0.339311	-0.674679	0.188359	-0.627851	-88.460796	-46.002536	-78.318011
09129		-1.579399	8.083599	-3.028548	-1.757113	-5.295012	-16.586549	0.414142	0.043663	-1.486253	-0.351807	0.985107	-0.674072	-0.015199	0.081013	-0.030114	0.335963	-0.675257	0.182145	-0.630857	-88.181398	-46.852251	-78.385295
09130		-0.618790	5.473038	-2.745431	-1.770733	-4.116453	-14.030828	0.256470	-0.066691	-1.973679	-0.367432	0.980225	-0.667725	-0.005638	0.054823	-0.027386	0.330689	-0.676816	0.174651	-0.634084	-88.045471	-47.970943	-78.378435
09131		0.248651	4.641173	-2.108264	-1.157984	-4.018182	-12.738320	0.213939	-0.141806	-2.349836	-0.386963	0.966553	-0.674072	0.003047	0.046401	-0.021031	0.324032	-0.678958	0.165804	-0.637596	-87.973416	-49.319008	-78.320333
09132		0.577210	4.202592	-1.909553	-0.983401	-3.926742	-12.104779	0.060538	-0.255996	-2.811620	-0.409180	0.959473	-0.669922	0.006387	0.041945	-0.019075	0.315495	-0.681956	0.155736	-0.641206	-88.057818	-50.921281	-78.172942
09133		1.009566	3.765545	-1.710655	-0.803225	-3.877519	-11.375718	0.008319	-0.313506	-3.314134	-0.437744	0.945557	-0.674316	0.010745	0.037482	-0.017088	0.305064	-0.685477	0.143922	-0.645247	-88.215639	-52.825007	-77.975322
09134		1.702406	3.608406	-1.475584	-0.504628	-4.151764	-10.588823	0.133475	-0.297564	-3.742080	-0.464111	0.925049	-0.669922	0.017717	0.035767	-0.014706	0.293651	-0.688825	0.130290	-0.649857	-88.294266	-54.960465	-77.790757
09135		2.363329	3.958312	-0.816886	0.301389	-4.665001	-10.067155	0.253408	-0.267724	-4.111489	-0.488037	0.906982	-0.667480	0.024451	0.039096	-0.008087	0.281237	-0.691899	0.114914	-0.654963	-88.286803	-57.320077	-77.633622
09136		2.901473	4.116882	-0.059552	1.142138	-4.894050	-9.480518	0.062853	-0.315326	-4.483700	-0.520752	0.879639	-0.667480	0.029929	0.040505	-0.000536	0.266924	-0.695266	0.098830	-0.659992	-88.438330	-59.880362	-77.420951
09137		3.767502	3.859402	-0.008894	1.225939	-5.047700	-8.363105	-0.144176	-0.322490	-4.823470	-0.555664	0.854492	-0.660889	0.038591	0.037671	-0.000055	0.250545	-0.698747	0.082106	-0.665011	-88.749931	-62.648582	-77.168136
09138		5.130506	3.548214	0.097323	1.377625	-5.253968	-6.744974	-0.173920	-0.291388	-5.121743	-0.581543	0.827393	-0.658691	0.052190	0.034154	0.001019	0.232987	-0.701830	0.064507	-0.670067	-89.092955	-65.572917	-76.904360
09139		6.169959	3.942545	-0.115209	1.317753	-5.883894	-5.658735	-0.160927	-0.283212	-5.455431	-0.614014	0.793457	-0.645264	0.062746	0.037722	-0.001095	0.214102	-0.704506	0.045575	-0.675096	-89.497162	-68.701831	-76.573695
09140		7.665545	4.227824	0.059630	1.622060	-6.352809	-4.013744	-0.192455	-0.304981	-5.819468	-0.644043	0.755127	-0.645264	0.077841	0.040025	0.000675	0.193804	-0.706796	0.025490	-0.679875	-90.077901	-72.023906	-76.080755
09141		9.606485	3.945805	0.020411	1.585593	-6.272172	-1.690718	-0.239531	-0.394405	-6.120046	-0.674072	0.718994	-0.640625	0.097211	0.036495	0.000350	0.172060	-0.708856	0.004307	-0.684033	-91.144142	-75.529998	-75.121149
09142		11.556921	2.729101	-0.210396	1.109344	-5.073255	0.866177	-0.353484	-0.539369	-6.365391	-0.703613	0.674072	-0.634033	0.116365	0.023592	-0.001835	0.149005	-0.710809	-0.017397	-0.687202	-93.381461	-79.149618	-73.042898
09143		13.686099	1.913388	0.064846	1.194816	-3.841617	3.405471	-0.483165	-0.690937	-6.570477	-0.735352	0.620117	-0.622803	0.137388	0.014628	0.001084	0.124512	-0.712618	-0.039570	-0.689280	-98.686996	-82.857637	-67.961628
09144		16.157189	1.166877	0.044691	1.003065	-2.445234	6.166491	-0.693561	-0.818811	-6.684300	-0.760742	0.579590	-0.607178	0.161838	0.006265	0.001081	0.098815	-0.714173	-0.061367	-0.690236	-116.079882	-86.398123	-50.906419
09145		18.596909	1.233939	0.104962	1.058889	-1.451412	8.735021	-0.959366	-0.962082	-6.732625	-0.781494	0.532715	-0.595947	0.186236	0.006080	0.001906	0.071740	-0.715512	-0.082512	-0.689992	163.377358	-87.755319	29.148754
09146		21.571098	0.630368	0.024520	0.854952	0.536348	11.739829	-1.373029	-1.091868	-6.743525	-0.797363	0.481201	-0.584717	0.215755	-0.000965	0.001413	0.043113	-0.716589	-0.102124	-0.688630	121.252061	-84.706979	70.549662
09147		24.636994	-1.588179	-0.224766	0.196536	4.482920	14.460401	-1.769105	-1.166349	-6.685035	-0.815918	0.436279	-0.564697	0.245662	-0.024112	-0.000624	0.013072	-0.717157	-0.120145	-0.686353	111.472005	-80.962782	79.372275
09148		26.449011	-4.683977	-0.718471	-0.791901	9.347174	15.361466	-2.024284	-1.196201	-6.492995	-0.825439	0.391602	-0.542480	0.262817	-0.055450	-0.005077	-0.017152	-0.717102	-0.136369	-0.683282	107.289393	-77.235772	82.442441
09149		28.879537	-9.879406	-0.148887	-0.945073	16.642026	15.750582	-1.867268	-0.930554	-6.255608	-0.828369	0.351563	-0.535889	0.285518	-0.107759	0.000823	-0.045901	-0.715484	-0.152227	-0.680296	104.426798	-73.639234	84.285579
09150		27.551745	-8.928654	0.672202	-0.000438	16.976203	13.657430	-0.521951	-0.413661	-5.761413	-0.837891	0.307129	-0.529053	0.272779	-0.097153	0.007535	-0.067623	-0.712122	-0.170784	-0.677601	102.484361	-70.385085	86.006339
09151		23.073087	-8.206882	-1.347188	-2.083593	15.701932	8.908984	-0.401278	-0.296944	-5.302382	-0.850342	0.278076	-0.524414	0.228466	-0.088173	-0.012959	-0.087289	-0.708228	-0.188089	-0.674845	101.080472	-67.376547	87.256345
09152		24.167280	-11.861449	-2.770775	-4.081106	20.199050	7.726615	-0.742803	-0.198887	-4.803877	-0.855713	0.242432	-0.526367	0.238757	-0.124474	-0.027014	-0.106254	-0.703886	-0.202333	-0.672545	99.792220	-64.661038	88.193610
09153		22.942749	-22.257887	-6.818745	-9.588175	29.174075	1.369973	-0.535776	-0.261092	-4.346490	-0.861084	0.206787	-0.515137	0.224604	-0.227676	-0.067287	-0.123019	-0.699933	-0.215570	-0.669694	98.969278	-62.183117	88.762369
09154		20.418792	-28.783329	-8.537688	-12.297366	33.819140	-4.994229	0.630762	-0.383357	-3.582610	-0.853271	0.182373	-0.512939	0.199156	-0.291161	-0.085907	-0.133167	-0.697664	-0.229830	-0.665364	99.141480	-60.133673	88.971550
09155		14.527655	-26.344135	-7.602004	-11.362539	28.873757	-9.892658	1.491506	-0.368778	-2.535806	-0.857422	0.168945	-0.508301	0.142068	-0.264681	-0.077727	-0.136800	-0.696930	-0.243270	-0.660602	99.944336	-58.674443	89.024631
09156		14.385238	-23.423959	-3.260640	-6.984583	26.781958	-9.401637	1.578519	-0.196785	-1.510453	-0.859131	0.157959	-0.506104	0.142112	-0.235051	-0.034319	-0.136489	-0.696820	-0.253481	-0.656932	100.779432	-57.814964	89.099159
09157		17.062928	-20.665517	-0.915163	-4.516234	26.172796	-6.121665	1.557359	0.007531	-0.366845	-0.861328	0.155762	-0.508301	0.170250	-0.206888	-0.010768	-0.132214	-0.697421	-0.259753	-0.654715	101.606468	-57.622482	89.170347
09158		17.988308	-12.619428	0.279698	-2.059889	20.141865	-1.270612	1.386284	-0.013277	-0.085714	-0.852295	0.155762	-0.512695	0.179829	-0.126287	0.001934	-0.127645	-0.698294	-0.264458	-0.652805	102.399658	-57.584805	89.164568
09159		17.423575	-14.981458	3.412062	0.428831	22.262693	-3.190915	0.302053	0.155143	1.323230	-0.857178	0.164551	-0.512695	0.175248	-0.148709	0.033760	-0.122000	-0.699771	-0.260778	-0.653782	102.705038	-58.360508	89.003001
09160		19.096825	-13.189953	-2.052858	-4.483027	20.562645	0.183902	-0.459789	0.177472	2.451505	-0.851318	0.191406	-0.519531	0.192548	-0.129593	-0.020399	-0.115324	-0.702093	-0.250669	-0.656453	102.797463	-59.764790	88.581163
09161		16.901473	26.949200	8.952189	14.530237	-13.087755	16.825712	1.341318	0.713994	2.384597	-0.845215	0.202637	-0.523926	0.166113	0.270878	0.090739	-0.101798	-0.703501	-0.246931	-0.658596	103.419463	-61.207770	88.744468
09162		11.294611	19.462504	11.870798	15.824339	-9.318974	7.794107	-0.845801	-0.120500	1.816153	-0.845703	0.220459	-0.519531	0.111098	0.196139	0.117948	-0.098906	-0.705715	-0.237567	-0.660111	103.515412	-62.215456	88.078403
09163		16.611057	-9.512434	5.456449	3.880100	16.781598	0.160906	-2.824289	-0.525064	2.253699	-0.841797	0.233643	-0.519775	0.167016	-0.092459	0.056320	-0.101972	-0.708653	-0.219845	-0.662632	103.051366	-63.420708	86.774560
09164		15.684488	-8.962913	-0.896062	-1.870943	14.679595	0.585415	-2.214950	-0.787361	2.771393	-0.833740	0.258301	-0.508789	0.158099	-0.087532	-0.007363	-0.101455	-0.713098	-0.202132	-0.663581	103.446315	-64.874906	84.918931
09165		9.804012	0.955866	-0.584556	-0.024905	3.103086	-0.445767	-1.190871	-0.510882	2.548827	-0.836914	0.280273	-0.500244	0.097923	0.010773	-0.005657	-0.097666	-0.716732	-0.188650	-0.664204	104.165424	-66.243209	83.373665
09166		11.050180	-2.623366	-0.069393	0.121920	6.688969	-0.635048	-0.798287	-0.269064	2.534573	-0.828369	0.291504	-0.500244	0.110823	-0.024833	-0.000444	-0.092322	-0.719596	-0.176650	-0.665171	104.923909	-67.621910	82.045717
09167		11.665824	-1.767649	-3.160223	-2.700783	5.588746	0.707202	-0.503693	-0.378333	2.468217	-0.824707	0.309326	-0.496094	0.116925	-0.016314	-0.031339	-0.086164	-0.722781	-0.165739	-0.665353	106.123619	-68.946786	80.438169
09168		11.067293	-0.564737	-7.353888	-6.633897	3.684592	1.109563	-1.154108	-0.811046	2.165667	-0.822998	0.327148	-0.489502	0.111025	-0.004869	-0.073060	-0.083762	-0.726748	-0.153591	-0.664252	107.625214	-70.010908	78.122501
09169		14.100900	-2.295094	-7.788197	-6.911954	6.148805	3.572760	-1.129946	-0.639078	2.137663	-0.814697	0.340576	-0.487305	0.141494	-0.021878	-0.077305	-0.081159	-0.730021	-0.141622	-0.663645	109.075257	-71.078366	75.893064
09170		11.781503	-1.334040	-3.877421	-3.002951	4.597403	1.388161	-0.527173	-0.470666	2.153902	-0.819580	0.349365	-0.480957	0.118041	-0.012172	-0.038463	-0.076231	-0.732877	-0.131691	-0.663127	110.819670	-72.157621	73.730383
09171		8.467354	-0.457301	-3.299394	-2.554423	2.651860	-1.492133	-0.525177	-0.587362	1.969360	-0.813477	0.364990	-0.476563	0.084810	-0.003825	-0.032734	-0.071910	-0.735921	-0.122330	-0.662030	112.892993	-73.099477	71.238234
09172		9.025826	-1.162401	-2.714204	-1.915404	3.377399	-1.146337	-0.402570	-0.473606	1.879006	-0.809326	0.373779	-0.472168	0.090426	-0.010829	-0.026906	-0.067425	-0.738485	-0.113788	-0.661170	115.003092	-73.983906	68.791340
09173		8.344303	-0.920518	-1.889029	-1.090355	2.874884	-1.776043	-0.106136	-0.385113	1.658482	-0.807373	0.385010	-0.472168	0.083552	-0.008523	-0.018725	-0.062450	-0.740681	-0.107006	-0.660335	117.189112	-74.759108	66.454002
09174		8.973999	-0.344972	-2.224291	-1.268860	2.327668	-0.948738	0.176426	-0.341101	1.403252	-0.807617	0.389404	-0.474609	0.089799	-0.002800	-0.022092	-0.057312	-0.742620	-0.102163	-0.659389	119.392845	-75.384375	64.271780
09175		10.781420	0.027136	-1.324276	-0.108277	2.286038	0.805875	0.362251	-0.279028	1.326749	-0.803467	0.400635	-0.474609	0.107827	0.001010	-0.013091	-0.051632	-0.744344	-0.098175	-0.658520	121.708603	-75.975502	62.091821
09176		10.132396	1.425953	-0.133745	1.150556	0.710133	0.330643	0.242428	-0.332105	1.231309	-0.801758	0.411621	-0.472412	0.101236	0.014884	-0.001152	-0.046805	-0.746115	-0.094183	-0.657458	124.096201	-76.473627	59.770422
09177		10.079864	1.128860	-0.568612	0.735343	0.844113	0.284185	0.061692	-0.351847	1.141112	-0.808838	0.420410	-0.463623	0.100742	0.011865	-0.005505	-0.042887	-0.747849	-0.089871	-0.656358	126.489095	-76.907228	57.343668
09178		10.913219	0.279982	0.114006	1.488628	1.754288	0.859467	0.017079	-0.286624	1.108162	-0.806641	0.422607	-0.470215	0.109113	0.003404	0.001297	-0.039282	-0.749305	-0.085601	-0.655493	128.802066	-77.317976	54.974872
09179		11.253726	-0.327538	0.494733	1.898776	2.313360	1.051946	0.056513	-0.213686	1.032487	-0.809570	0.436035	-0.468262	0.112547	-0.002696	0.005067	-0.035677	-0.750484	-0.081702	-0.654848	131.047483	-77.708115	52.704069
09180		11.033912	-0.476524	0.362666	1.758884	2.306467	0.849931	0.143346	-0.169421	0.950445	-0.809814	0.447021	-0.461670	0.110357	-0.004243	0.003717	-0.032064	-0.751469	-0.078454	-0.654302	133.211849	-78.054305	50.568285
09181		10.568165	-0.700311	-0.035822	1.310516	2.332481	0.435201	0.240344	-0.125855	0.851228	-0.805664	0.451416	-0.466064	0.105710	-0.006553	-0.000300	-0.028325	-0.752279	-0.075848	-0.653851	135.311520	-78.367156	48.559874
09182		10.394472	-0.640001	-0.321284	1.026815	2.146164	0.331127	0.369034	-0.081180	0.749440	-0.805908	0.462646	-0.466064	0.103969	-0.006005	-0.003182	-0.024485	-0.752900	-0.074104	-0.653491	137.257738	-78.636877	46.783486
09183		10.412264	-0.367786	-1.016412	0.374177	1.758608	0.499947	0.629644	-0.006336	0.660516	-0.805908	0.462646	-0.474854	0.104134	-0.003302	-0.010172	-0.019858	-0.753266	-0.073500	-0.653295	139.143185	-78.899207	45.224845
09184		10.476639	-1.384438	-1.838148	-0.518459	2.638852	0.571074	0.901752	0.098559	0.605929	-0.804199	0.471680	-0.475098	0.104798	-0.013444	-0.018494	-0.014414	-0.753271	-0.074053	-0.653369	140.901619	-79.171342	43.953910
09185		10.161185	-0.856221	-1.965277	-0.655852	1.981018	0.360311	1.176771	0.222635	0.567349	-0.806396	0.473877	-0.488281	0.101613	-0.008158	-0.019815	-0.007945	-0.752853	-0.075601	-0.653784	142.612149	-79.484467	42.895190
09186		9.873266	0.738109	-1.602444	-0.189045	0.321284	0.210017	1.273173	0.286986	0.510739	-0.806641	0.480469	-0.492676	0.098690	0.007736	-0.016118	-0.001342	-0.752167	-0.077731	-0.654371	144.151225	-79.796080	42.066107
09187		9.771195	2.176988	-0.649450	0.897853	-1.084149	0.119863	1.206401	0.289076	0.457878	-0.804443	0.480713	-0.501465	0.097652	0.022033	-0.006503	0.004905	-0.751422	-0.079784	-0.654962	145.624804	-80.093152	41.267289
09188		9.969033	1.707887	-0.487017	1.024433	-0.633821	0.241381	1.043708	0.261259	0.428213	-0.804932	0.493896	-0.503662	0.099647	0.017318	-0.004910	0.010365	-0.750727	-0.081467	-0.655488	146.992629	-80.358250	40.480069
09189		9.901610	1.991757	-0.383415	1.156231	-0.960008	0.182177	0.927737	0.225096	0.423433	-0.804688	0.489502	-0.514648	0.098969	0.020145	-0.003852	0.015423	-0.750134	-0.082735	-0.655909	148.452440	-80.606544	39.534473
09190		9.794074	1.940484	-0.645164	0.882116	-1.003893	0.102930	0.762658	0.160798	0.424940	-0.809326	0.491699	-0.523438	0.097894	0.019637	-0.006456	0.019776	-0.749745	-0.083511	-0.656138	149.951587	-80.814159	38.452134
09191		9.842030	1.169234	-0.958793	0.469753	-0.335093	0.128076	0.649370	0.093606	0.445145	-0.802490	0.494141	-0.521240	0.098389	0.011943	-0.009595	0.023804	-0.749583	-0.083796	-0.656153	151.672152	-80.993947	37.081966
09192		9.803552	0.808547	-1.322062	0.060211	-0.090355	0.111989	0.595670	0.043272	0.472366	-0.809326	0.496094	-0.523438	0.098013	0.008356	-0.013217	0.027636	-0.749592	-0.083856	-0.655985	153.546457	-81.143529	35.524099
09193		9.346624	1.071043	-1.888603	-0.494898	-0.531243	-0.244723	0.488092	-0.050795	0.469466	-0.805176	0.500732	-0.525635	0.093445	0.010976	-0.018836	0.031075	-0.749913	-0.083539	-0.655505	155.601050	-81.239926	33.723442
09194		9.805783	0.368339	-2.843934	-1.467049	-0.007188	0.297920	0.385838	-0.103241	0.525318	-0.801025	0.509766	-0.523438	0.098062	0.003996	-0.028381	0.034233	-0.750436	-0.082731	-0.654851	157.855403	-81.306618	31.660306
09195		9.884643	0.246566	-2.910190	-1.519600	0.041151	0.381667	0.435084	-0.085199	0.589117	-0.803223	0.511963	-0.527832	0.098851	0.002820	-0.029054	0.037849	-0.750909	-0.081796	-0.654227	160.422370	-81.386542	29.311394
09196		9.496763	1.048933	-2.481206	-0.989000	-0.778722	-0.021869	0.481211	-0.080891	0.675236	-0.799072	0.518555	-0.530029	0.094941	0.010869	-0.024748	0.041863	-0.751382	-0.080732	-0.653571	163.314396	-81.463834	26.659479
09197		9.291029	2.139464	-2.393469	-0.708457	-1.926440	-0.199385	0.419854	-0.135761	0.722611	-0.799072	0.520752	-0.532471	0.092848	0.021780	-0.023826	0.045891	-0.752046	-0.079321	-0.652709	166.493822	-81.499566	23.693288
09198		9.831860	1.746801	-2.535666	-0.808211	-1.610615	0.331200	0.294249	-0.194818	0.781311	-0.804199	0.533936	-0.523682	0.098274	0.017889	-0.025235	0.049502	-0.752946	-0.077270	-0.651652	169.827131	-81.481617	20.487325
09199		10.011360	1.469742	-2.453779	-0.712872	-1.400099	0.479993	0.249494	-0.232438	0.849756	-0.797363	0.531982	-0.528076	0.100078	0.015153	-0.024403	0.053260	-0.753986	-0.074847	-0.650435	173.436283	-81.420999	16.987605
09200		9.993883	1.705568	-2.266445	-0.445917	-1.689405	0.427900	0.245795	-0.254444	0.919782	-0.797607	0.540771	-0.523682	0.099888	0.017543	-0.022516	0.057114	-0.755113	-0.072129	-0.649107	177.196853	-81.316484	13.320391
09201		10.464144	1.447645	-2.189680	-0.303437	-1.506272	0.865640	0.277149	-0.215030	0.993282	-0.802490	0.547363	-0.525879	0.104591	0.015026	-0.021764	0.061443	-0.756103	-0.069248	-0.647871	-178.806386	-81.198681	9.442711
09202		11.116311	1.229222	-1.597798	0.375462	-1.278956	1.405971	0.294457	-0.194500	1.060462	-0.793701	0.556396	-0.528076	0.111111	0.012905	-0.015851	0.065955	-0.757027	-0.066134	-0.646673	-174.717408	-81.049027	5.468925
09203		11.402687	0.679197	-1.142594	0.809800	-0.775748	1.612237	0.329727	-0.232400	1.165067	-0.789307	0.558594	-0.519287	0.113998	0.007475	-0.011282	0.071027	-0.758065	-0.062778	-0.645253	-170.371713	-80.824863	1.264974
09204		11.475568	0.684899	-0.270058	1.723682	-0.753837	1.531447	0.310639	-0.247160	1.298728	-0.783447	0.578857	-0.523926	0.114711	0.007598	-0.002547	0.076346	-0.759171	-0.058827	-0.643716	-165.868309	-80.527038	-3.124339
09205		11.789365	1.210193	-0.000679	2.191911	-1.375241	1.752581	0.206972	-0.210220	1.443305	-0.783936	0.589844	-0.519531	0.117802	0.012952	0.000130	0.081845	-0.760195	-0.054008	-0.642253	-161.187176	-80.168720	-7.747012
09206		11.436284	1.865497	-0.139058	2.175013	-2.207053	1.353481	0.069697	-0.184038	1.601428	-0.777588	0.598877	-0.523926	0.114210	0.019570	-0.001279	0.087231	-0.761193	-0.048102	-0.640830	-156.477536	-79.730994	-12.495438
09207		11.391191	1.606675	-0.578632	1.743835	-2.221070	1.354142	-0.011085	-0.138248	1.714183	-0.778320	0.618652	-0.515381	0.113773	0.017042	-0.005709	0.092773	-0.762045	-0.041519	-0.639497	-151.830134	-79.220701	-17.223442
