// General information: 
//  MT Manager version: 2019.2.0 
//  XDA version: 2019.2.0 build 3853 rev 94535 built on 2019-09-09
// Device information: 
//  DeviceId: 00B40A40
//  ProductCode: MTW2-3A7G6
//  Firmware Version: 4.4.0
//  Hardware Version: 1.1.0
// Device settings: 
//  Filter Profile: human(46.1)
//  Option Flags: Orientation Smoother Disabled, AHS Disabled, ICC Disabled
// Coordinate system: ENU
PacketCounter	SampleTimeFine	Acc_X	Acc_Y	Acc_Z	FreeAcc_E	FreeAcc_N	FreeAcc_U	Gyr_X	Gyr_Y	Gyr_Z	Mag_X	Mag_Y	Mag_Z	VelInc_X	VelInc_Y	VelInc_Z	Quat_q0	Quat_q1	Quat_q2	Quat_q3	Roll	Pitch	Yaw
59227		11.722962	-0.693430	3.669739	0.000000	0.000000	2.490789	-0.464305	-0.285545	-0.262956	-1.024658	0.115479	0.046143	0.117168	-0.007003	0.036881	0.067281	-0.591541	-0.014116	-0.803339	-10.751254	-72.234860	-162.569420
59228		11.148468	-0.642266	3.365316	0.000000	0.000000	1.850337	-0.423545	-0.185428	-0.193857	-1.024902	0.120117	0.045898	0.111447	-0.006459	0.033770	0.075489	-0.595616	-0.021605	-0.799422	-10.828255	-72.854588	-161.209081
59229		10.967690	-0.525456	3.538723	0.155301	-0.110152	1.722154	-0.394238	-0.236540	-0.123966	-1.029297	0.113281	0.052979	0.109632	-0.005253	0.035527	0.067479	-0.594056	-0.014634	-0.801455	-10.927405	-72.590938	-162.337671
59230		11.150376	-0.486832	3.681263	0.277399	-0.149661	1.935509	-0.406416	-0.306271	-0.070448	-1.026855	0.113281	0.057373	0.111445	-0.004833	0.036993	0.065967	-0.595413	-0.013318	-0.800596	-11.140921	-72.770900	-162.357933
59231		11.255259	-0.751089	3.621479	0.201260	0.110923	2.032446	-0.475702	-0.255090	-0.049576	-1.024414	0.108887	0.062256	0.112504	-0.007452	0.036376	0.063630	-0.596834	-0.012107	-0.799746	-11.143076	-72.974021	-162.648626
59232		11.136363	-0.883184	3.372481	0.009858	0.218565	1.854545	-0.529854	-0.130130	-0.028225	-1.022461	0.113525	0.055176	0.111340	-0.008758	0.033821	0.061928	-0.597519	-0.010114	-0.799396	-11.442541	-73.050304	-162.652933
59233		10.889681	-1.203367	3.033213	-0.266388	0.511870	1.540754	-0.571418	-0.018596	-0.001097	-1.022461	0.111328	0.064209	0.108894	-0.011948	0.030376	0.060143	-0.597708	-0.007739	-0.799417	-11.781732	-73.051529	-162.654998
59234		10.579354	-1.634374	2.907978	-0.337287	0.938207	1.235218	-0.581312	0.055101	0.027686	-1.026855	0.108887	0.064453	0.105804	-0.016245	0.029098	0.058518	-0.597661	-0.005316	-0.799593	-12.144216	-73.017357	-162.624242
59235		10.266358	-1.966209	2.749411	-0.426291	1.252282	0.914539	-0.545113	0.106230	0.060660	-1.022217	0.106934	0.073486	0.102684	-0.019556	0.027493	0.056606	-0.597478	-0.001900	-0.799883	-12.726964	-72.948124	-162.477985
59236		9.937706	-2.083874	2.608887	-0.480626	1.367362	0.570285	-0.477050	0.133081	0.074278	-1.019775	0.104736	0.064697	0.099402	-0.020740	0.026072	0.055479	-0.597080	0.000267	-0.800261	-13.079820	-72.864296	-162.394783
59237		9.562116	-1.919693	2.418271	-0.531654	1.185118	0.151254	-0.382264	0.133028	0.067471	-1.020020	0.106934	0.057861	0.095644	-0.019118	0.024156	0.052600	-0.596844	0.005134	-0.800615	-13.873504	-72.773963	-162.235745
59238		9.327884	-1.750489	2.368860	-0.504399	1.021225	-0.097349	-0.296881	0.104137	0.046938	-1.019775	0.104492	0.057861	0.093295	-0.017448	0.023666	0.051899	-0.596503	0.006490	-0.800905	-14.081218	-72.709568	-162.196357
59239		9.132148	-1.511439	2.337240	-0.447155	0.750208	-0.305822	-0.216723	0.072458	0.019118	-1.019775	0.104736	0.062500	0.091331	-0.015080	0.023356	0.048462	-0.596505	0.012522	-0.801047	-15.128631	-72.638971	-161.925156
59240		8.945557	-1.208993	2.306378	-0.408265	0.460052	-0.516145	-0.151582	0.060611	-0.001806	-1.024658	0.111084	0.057617	0.089462	-0.012073	0.023046	0.047998	-0.596299	0.013138	-0.801219	-15.183277	-72.605721	-161.958900
59241		8.747477	-0.790297	2.225119	-0.396090	0.011727	-0.760779	-0.131570	0.045733	-0.026242	-1.022461	0.113525	0.064209	0.087479	-0.007900	0.022236	0.044253	-0.596404	0.019458	-0.801228	-16.261960	-72.551737	-161.705268
59242		8.571991	-0.421873	2.091226	-0.459134	-0.341316	-0.997761	-0.157309	0.027099	-0.049022	-1.017578	0.104736	0.057861	0.085722	-0.004223	0.020904	0.043585	-0.596334	0.019948	-0.801304	-16.252492	-72.544694	-161.809673
59243		8.489183	-0.205742	1.989546	-0.516353	-0.580260	-1.125713	-0.183980	-0.012134	-0.073756	-1.019775	0.104736	0.062500	0.084890	-0.002070	0.019903	0.040184	-0.596795	0.024977	-0.800998	-17.074732	-72.564563	-161.678660
59244		8.567807	-0.043913	2.041565	-0.479164	-0.745779	-1.049614	-0.215764	-0.077963	-0.078520	-1.013428	0.111328	0.052979	0.085670	-0.000451	0.020450	0.039236	-0.597160	0.025592	-0.800753	-17.103065	-72.620481	-161.778524
59245		8.773251	-0.000720	2.123448	-0.437231	-0.818407	-0.833935	-0.252781	-0.127846	-0.084579	-1.017578	0.104736	0.062500	0.087719	-0.000017	0.021291	0.036906	-0.598296	0.028337	-0.799923	-17.579446	-72.763498	-161.718322
59246		8.910997	-0.057122	2.078298	-0.508827	-0.773687	-0.709340	-0.313424	-0.132783	-0.074202	-1.019775	0.104736	0.071533	0.089096	-0.000572	0.020843	0.035690	-0.598894	0.029344	-0.799494	-17.702601	-72.848883	-161.777386
59247		8.986019	-0.055303	1.982102	-0.593821	-0.776621	-0.662575	-0.349472	-0.110028	-0.055084	-1.020020	0.106934	0.069092	0.089849	-0.000543	0.019871	0.034301	-0.600152	0.030242	-0.798578	-17.852100	-73.030748	-161.815362
59248		9.049632	-0.019220	2.059625	-0.525141	-0.822099	-0.583027	-0.366325	-0.128220	-0.031065	-1.024414	0.106689	0.066895	0.090483	-0.000168	0.020655	0.033097	-0.600730	0.031589	-0.798141	-18.080811	-73.106121	-161.795687
59249		9.255333	0.114757	2.173170	-0.432391	-0.963411	-0.363779	-0.372789	-0.194672	-0.012524	-1.021973	0.104736	0.073730	0.092532	0.001182	0.021820	0.032990	-0.602481	0.030942	-0.796850	-18.123323	-73.362115	-161.709001
59250		9.488222	0.327402	2.181213	-0.464198	-1.203554	-0.157266	-0.393857	-0.246518	-0.002825	-1.026367	0.097900	0.073975	0.094855	0.003316	0.021923	0.031830	-0.603527	0.032462	-0.796045	-18.492935	-73.496719	-161.558816
59251		9.501979	0.383739	2.026005	-0.563481	-1.230746	-0.184226	-0.436504	-0.199327	-0.002232	-1.026611	0.104492	0.080322	0.095000	0.003881	0.020346	0.032718	-0.605501	0.029803	-0.794613	-18.174606	-73.807029	-161.586792
59252		9.331225	0.240953	1.934798	-0.593143	-1.080878	-0.360009	-0.454178	-0.145398	-0.008195	-1.026611	0.102295	0.089600	0.093298	0.002450	0.019410	0.031332	-0.606153	0.031558	-0.794104	-18.509952	-73.887582	-161.508584
59253		9.226682	0.065542	1.946643	-0.510056	-0.868265	-0.436584	-0.420434	-0.167864	-0.019981	-1.021973	0.102539	0.084961	0.092251	0.000687	0.019542	0.032665	-0.608081	0.028344	-0.792696	-18.110267	-74.195236	-161.536265
59254		9.298326	-0.081430	2.127677	-0.336550	-0.735079	-0.308013	-0.406743	-0.244635	-0.023634	-1.033203	0.100098	0.087402	0.092957	-0.000782	0.021392	0.031369	-0.609119	0.029844	-0.791896	-18.453735	-74.332581	-161.421545
59255		9.430853	-0.212787	2.232778	-0.213270	-0.571116	-0.137987	-0.388911	-0.301774	-0.026654	-1.028809	0.102295	0.093994	0.094274	-0.002097	0.022474	0.033193	-0.611585	0.025354	-0.790076	-17.839725	-74.733845	-161.519436
59256		9.648794	-0.357746	2.366636	-0.110089	-0.450431	0.117724	-0.376994	-0.308174	-0.026245	-1.031006	0.100098	0.098633	0.096451	-0.003545	0.023822	0.031975	-0.612866	0.026712	-0.789088	-18.204367	-74.906411	-161.365423
59257		9.928321	-0.355897	2.422412	-0.065586	-0.439572	0.403412	-0.359571	-0.277613	-0.012234	-1.033203	0.102295	0.105225	0.099249	-0.003521	0.024368	0.033684	-0.615134	0.023171	-0.787362	-17.839322	-75.263332	-161.301747
59258		9.977022	-0.377674	2.499404	0.023388	-0.429964	0.470559	-0.367886	-0.210939	0.016229	-1.033203	0.102295	0.107422	0.099744	-0.003723	0.025106	0.032641	-0.616023	0.024634	-0.786666	-18.226677	-75.375387	-161.119217
59259		9.923387	-0.311798	2.625240	0.205109	-0.471194	0.443948	-0.388684	-0.142202	0.032946	-1.030762	0.097900	0.110107	0.099216	-0.003051	0.026329	0.034210	-0.617615	0.022350	-0.785418	-18.142658	-75.613851	-160.888648
59260		9.723935	-0.233311	2.552398	0.196795	-0.546810	0.226552	-0.372087	-0.098575	0.041034	-1.031006	0.100098	0.114258	0.097227	-0.002266	0.025576	0.033233	-0.618061	0.023921	-0.785063	-18.512419	-75.660098	-160.727027
59261		9.583931	-0.247578	2.543937	0.261752	-0.492605	0.090516	-0.369279	-0.091920	0.032555	-1.031006	0.100098	0.116699	0.095828	-0.002413	0.025488	0.036567	-0.619608	0.019622	-0.783813	-18.198554	-75.901779	-160.417893
59262		9.398763	-0.384015	2.507665	0.276123	-0.353995	-0.087924	-0.378735	-0.114484	0.028613	-1.035645	0.104492	0.114014	0.093974	-0.003779	0.025138	0.035517	-0.620123	0.021174	-0.783414	-18.560228	-75.958906	-160.268747
59263		9.278347	-0.586360	2.549019	0.363698	-0.123816	-0.180377	-0.413587	-0.123177	0.022291	-1.032959	0.095703	0.116943	0.092768	-0.005800	0.025559	0.037850	-0.621266	0.018329	-0.782470	-18.416525	-76.133632	-159.989995
59264		9.299547	-0.688141	2.596466	0.415637	-0.035785	-0.141975	-0.431101	-0.108559	0.024594	-1.033447	0.102539	0.123291	0.092982	-0.006814	0.026030	0.036617	-0.621769	0.020071	-0.782086	-18.798445	-76.188150	-159.851050
59265		9.139994	-0.755246	2.633221	0.513879	0.070133	-0.285110	-0.407267	-0.103547	0.034422	-1.037598	0.097900	0.123535	0.091388	-0.007483	0.026395	0.040428	-0.623111	0.015768	-0.780929	-18.593497	-76.393788	-159.394097
59266		9.201951	-0.857787	2.608998	0.487431	0.152567	-0.223232	-0.415628	-0.136997	0.049227	-1.033447	0.104736	0.127686	0.092004	-0.008501	0.026171	0.039336	-0.623725	0.017517	-0.780457	-19.047256	-76.459080	-159.172288
59267		9.242021	-0.803209	2.545184	0.444039	0.105150	-0.203849	-0.389485	-0.189888	0.069776	-1.028809	0.102539	0.132080	0.092399	-0.007950	0.025555	0.043830	-0.625008	0.013557	-0.779269	-19.170938	-76.633281	-158.359177
59268		9.439904	-0.768949	2.558631	0.440531	0.039582	-0.011976	-0.355070	-0.235108	0.075386	-1.026611	0.102539	0.134521	0.094372	-0.007608	0.025711	0.043030	-0.625996	0.015125	-0.778491	-19.736424	-76.746039	-157.987149
59269		9.599343	-0.741050	2.673217	0.541118	0.020390	0.164753	-0.340330	-0.253390	0.079092	-1.031250	0.104736	0.136475	0.095962	-0.007327	0.026866	0.049779	-0.627006	0.009150	-0.777368	-19.743925	-76.885477	-156.941810
59270		9.669376	-0.768979	2.852622	0.727707	0.036306	0.271690	-0.321390	-0.239269	0.067498	-1.033447	0.104736	0.138916	0.096662	-0.007611	0.028654	0.049045	-0.628013	0.010552	-0.776584	-20.287516	-77.001225	-156.572837
59271		9.756779	-0.878906	3.022798	0.882907	0.167172	0.399902	-0.306245	-0.222570	0.056873	-1.035645	0.102539	0.141113	0.097537	-0.008715	0.030350	0.054656	-0.628694	0.005495	-0.775710	-20.246899	-77.101789	-155.743410
59272		9.724011	-1.000057	3.091911	0.972796	0.282416	0.389777	-0.306517	-0.198622	0.045964	-1.028809	0.102539	0.145752	0.097212	-0.009931	0.031031	0.053877	-0.629548	0.006774	-0.775062	-20.705786	-77.199387	-155.452882
59273		9.653590	-1.143835	3.057623	0.956602	0.452152	0.322876	-0.303305	-0.155910	0.054283	-1.033447	0.106934	0.147705	0.096515	-0.011366	0.030669	0.059024	-0.630291	0.002094	-0.774109	-20.702550	-77.312167	-154.654785
59274		9.510068	-1.230508	3.140626	1.077151	0.545046	0.205382	-0.282358	-0.128078	0.053603	-1.031250	0.104736	0.147705	0.095084	-0.012235	0.031484	0.058343	-0.630871	0.003318	-0.773684	-21.109286	-77.369988	-154.403742
59275		9.343648	-1.257051	3.181664	1.140037	0.601740	0.053675	-0.257375	-0.126723	0.050144	-1.026611	0.102783	0.150146	0.093419	-0.012506	0.031892	0.062484	-0.630815	-0.000068	-0.773414	-21.088360	-77.361452	-153.810450
59276		9.318516	-1.277813	3.183592	1.161854	0.614045	0.029864	-0.238164	-0.136580	0.049342	-1.035645	0.102539	0.159180	0.093167	-0.012717	0.031915	0.061924	-0.631418	0.000966	-0.772965	-21.470345	-77.424355	-153.558874
59277		9.310008	-1.280683	3.187950	1.170883	0.639302	0.020914	-0.224777	-0.117514	0.055285	-1.028809	0.102783	0.161377	0.093085	-0.012745	0.031949	0.067686	-0.631887	-0.003922	-0.772090	-21.536048	-77.495065	-152.624430
59278		9.352564	-1.347245	3.008859	0.995286	0.674445	0.030750	-0.204126	-0.100659	0.053443	-1.031494	0.109375	0.160889	0.093514	-0.013417	0.030149	0.067245	-0.632347	-0.002999	-0.771755	-21.878653	-77.537612	-152.393338
59279		9.360966	-1.347921	2.842003	0.816772	0.677059	0.005460	-0.180951	-0.078588	0.052879	-1.024658	0.107178	0.158691	0.093602	-0.013429	0.028469	0.074199	-0.632182	-0.008910	-0.771208	-21.766506	-77.529962	-151.455232
59280		9.353618	-1.269820	2.724072	0.722978	0.579761	-0.031872	-0.153637	-0.057900	0.046163	-1.026855	0.109375	0.160889	0.093531	-0.012656	0.027278	0.073889	-0.632466	-0.008193	-0.771012	-22.022512	-77.551214	-151.283228
59281		9.377241	-1.191568	2.659162	0.648262	0.486519	-0.026642	-0.127824	-0.045609	0.039459	-1.026855	0.107178	0.163330	0.093769	-0.011880	0.026621	0.075184	-0.631784	-0.008814	-0.771440	-21.993480	-77.445884	-151.155161
59282		9.438494	-1.091727	2.702063	0.696977	0.380218	0.033521	-0.098503	-0.033819	0.034818	-1.027100	0.111572	0.158447	0.094382	-0.010888	0.027042	0.075006	-0.631955	-0.008336	-0.771322	-22.166718	-77.456688	-151.035528
59283		9.352797	-0.917996	2.746204	0.762166	0.209019	-0.053867	-0.073834	-0.013858	0.030419	-1.024414	0.100586	0.168213	0.093527	-0.009156	0.027472	0.075053	-0.631223	-0.007645	-0.771923	-22.225786	-77.332661	-151.028337
59284		9.299752	-0.807481	2.781883	0.822355	0.105157	-0.107587	-0.052466	0.007174	0.021392	-1.026855	0.107178	0.165527	0.092999	-0.008058	0.027818	0.074970	-0.631219	-0.007371	-0.771938	-22.300472	-77.324567	-150.982622
59285		9.258198	-0.704976	2.799813	0.852790	0.002046	-0.152309	-0.046563	0.014710	0.012651	-1.024658	0.109619	0.165527	0.092584	-0.007037	0.027993	0.075531	-0.630854	-0.007311	-0.772182	-22.387908	-77.257824	-150.853952
59286		9.219401	-0.611187	2.886583	0.955536	-0.078954	-0.180243	-0.024921	0.016170	-0.001118	-1.029053	0.107178	0.163330	0.092196	-0.006109	0.028859	0.075449	-0.630804	-0.007212	-0.772232	-22.385043	-77.249900	-150.871561
59287		9.192465	-0.525163	2.954047	1.018751	-0.164810	-0.198189	-0.002388	0.011160	-0.005248	-1.029053	0.104980	0.165771	0.091926	-0.005254	0.029535	0.074768	-0.630060	-0.006204	-0.772913	-22.335981	-77.133635	-151.057754
59288		9.202355	-0.460617	3.209216	1.271516	-0.202930	-0.141253	0.003033	0.021980	-0.005261	-1.026855	0.107178	0.165527	0.092027	-0.004609	0.032082	0.074758	-0.629977	-0.006224	-0.772982	-22.302213	-77.123540	-151.090642
59289		9.142361	-0.414978	3.308757	1.365386	-0.244770	-0.180520	-0.012130	0.043832	0.008368	-1.020020	0.102783	0.163574	0.091431	-0.004144	0.033068	0.073667	-0.629133	-0.004782	-0.773784	-22.263970	-76.990015	-151.334864
59290		9.103923	-0.383761	3.337055	1.399788	-0.270699	-0.214150	-0.016684	0.056243	0.012174	-1.029297	0.109375	0.160889	0.091049	-0.003829	0.033345	0.073664	-0.628925	-0.004658	-0.773954	-22.249754	-76.957980	-151.359303
59291		9.133976	-0.287537	3.407910	1.449162	-0.377624	-0.175086	-0.025037	0.058218	0.006300	-1.026611	0.102783	0.165771	0.091350	-0.002868	0.034053	0.072103	-0.627957	-0.002915	-0.774895	-22.153145	-76.810923	-151.724906
59292		9.114500	-0.249058	3.507623	1.548746	-0.406407	-0.175480	-0.033015	0.069271	0.004972	-1.029053	0.107178	0.165527	0.091157	-0.002483	0.035045	0.072019	-0.627704	-0.002746	-0.775108	-22.120622	-76.773522	-151.777780
59293		9.186872	-0.309609	3.710921	1.697483	-0.348311	-0.052429	-0.038924	0.053084	-0.020517	-1.031250	0.102783	0.161377	0.091878	-0.003098	0.037085	0.070446	-0.626688	-0.001269	-0.776079	-21.920339	-76.629935	-152.226333
59294		9.592621	-0.403978	3.822495	1.710613	-0.286231	0.374801	-0.024047	-0.014525	-0.057724	-1.028809	0.102783	0.165771	0.095922	-0.004063	0.038232	0.070147	-0.626756	-0.001362	-0.776051	-21.818937	-76.650437	-152.344757
59295		9.912121	-0.314743	3.697293	1.509828	-0.423576	0.654413	0.027813	-0.051301	-0.083201	-1.026611	0.102783	0.161377	0.099110	-0.003194	0.036998	0.068440	-0.626023	-0.000367	-0.776795	-21.490718	-76.564928	-152.893190
59296		9.589328	-0.174163	3.467132	1.367309	-0.539792	0.279172	0.047346	0.044599	-0.068431	-1.024170	0.098389	0.168213	0.095900	-0.001783	0.034650	0.068322	-0.625837	-0.000750	-0.776955	-21.272754	-76.555901	-153.089445
59297		8.723532	-0.222911	3.463359	1.507845	-0.402901	-0.554793	0.032218	0.095887	-0.027282	-1.024414	0.104980	0.167969	0.087252	-0.002247	0.034591	0.067021	-0.624550	0.000164	-0.778104	-20.902410	-76.386961	-153.639751
59298		8.375797	-0.411155	3.589661	1.682001	-0.167238	-0.848783	0.041527	-0.052996	0.000059	-1.022217	0.102783	0.161377	0.083748	-0.004119	0.035918	0.067151	-0.624746	-0.000015	-0.777935	-20.924424	-76.415802	-153.592671
59299		8.933268	-0.466415	3.632485	1.593667	-0.164435	-0.291716	0.063314	-0.291205	-0.034160	-1.024414	0.100586	0.172607	0.089279	-0.004691	0.036453	0.066426	-0.624955	0.000055	-0.777829	-20.794063	-76.460788	-153.788185
59300		9.994217	-0.512839	3.619943	1.386389	-0.216751	0.736348	0.077923	-0.379169	-0.089828	-1.024414	0.100586	0.166016	0.099871	-0.005187	0.036387	0.066320	-0.626407	-0.000655	-0.776670	-20.872444	-76.682633	-153.661747
59301		10.706326	-0.635273	3.676366	1.285436	-0.150251	1.450955	0.071641	-0.254722	-0.106441	-1.024414	0.100586	0.170410	0.107013	-0.006423	0.036898	0.065106	-0.626401	-0.000600	-0.776777	-20.536592	-76.711694	-154.101460
59302		10.920738	-0.729141	3.771305	1.343024	-0.055396	1.685577	0.064449	-0.112578	-0.091708	-1.030762	0.095947	0.173096	0.109183	-0.007354	0.037772	0.064951	-0.626820	-0.001174	-0.776451	-20.387190	-76.790999	-154.217061
59303		10.610945	-0.827844	3.780788	1.383690	0.082873	1.396700	0.066802	-0.030500	-0.060868	-1.031006	0.098389	0.175049	0.106101	-0.008323	0.037821	0.064009	-0.625913	-0.001010	-0.777261	-19.946649	-76.686539	-154.747306
59304		10.260589	-1.049192	3.675688	1.333308	0.336819	1.050094	0.093453	-0.016637	-0.042031	-1.028564	0.096191	0.172852	0.102601	-0.010531	0.036761	0.064138	-0.625951	-0.001510	-0.777219	-19.811799	-76.704196	-154.830906
59305		10.057124	-1.343496	3.571998	1.218778	0.643997	0.855478	0.127704	-0.018442	-0.029155	-1.024170	0.098389	0.179443	0.100566	-0.013472	0.035721	0.063399	-0.624973	-0.001337	-0.778067	-19.425137	-76.583823	-155.291397
59306		10.049895	-1.451550	3.468216	1.108280	0.752289	0.833518	0.162291	-0.026954	-0.043714	-1.024414	0.100586	0.174805	0.100491	-0.014566	0.034684	0.063735	-0.625029	-0.002113	-0.777992	-19.255127	-76.607196	-155.370631
59307		10.184852	-1.557047	3.358818	0.937403	0.841156	0.950722	0.176013	-0.005910	-0.051816	-1.031006	0.098389	0.172852	0.101843	-0.015626	0.033577	0.063176	-0.624061	-0.002200	-0.778814	-18.837587	-76.491045	-155.826164
59308		10.261684	-1.480426	3.316839	0.882185	0.764174	1.010113	0.196399	0.047905	-0.028599	-1.026611	0.100586	0.170410	0.102623	-0.014851	0.033129	0.063678	-0.623816	-0.003039	-0.778967	-18.624516	-76.470830	-155.929625
59309		10.245985	-1.318347	3.244272	0.795541	0.599985	0.969273	0.220197	0.094705	0.019678	-1.031006	0.098389	0.172852	0.102476	-0.013209	0.032380	0.063671	-0.622417	-0.003081	-0.780085	-18.296213	-76.280804	-156.253858
59310		10.076200	-1.156138	3.235923	0.825676	0.456749	0.791429	0.226586	0.138336	0.048489	-1.028809	0.100586	0.168213	0.100787	-0.011574	0.032276	0.064567	-0.621809	-0.003770	-0.780493	-18.173458	-76.197337	-156.246632
59311		9.869681	-1.167177	3.261963	0.852556	0.481973	0.601443	0.240329	0.175275	0.065881	-1.031250	0.102783	0.165771	0.098729	-0.011678	0.032519	0.064518	-0.620117	-0.003388	-0.781844	-17.932693	-75.955498	-156.521198
59312		9.745758	-1.349315	3.178041	0.756956	0.665960	0.477300	0.252239	0.205988	0.073769	-1.029053	0.107178	0.163330	0.097495	-0.013497	0.031663	0.065592	-0.619235	-0.004079	-0.782451	-17.804674	-75.830704	-156.504234
59313		9.569404	-1.480692	3.071320	0.632164	0.796502	0.294975	0.266755	0.233099	0.075806	-1.028809	0.100586	0.166016	0.095735	-0.014811	0.030582	0.066068	-0.617354	-0.004112	-0.783895	-17.538933	-75.563694	-156.726690
59314		9.537741	-1.620495	3.029273	0.555692	0.932057	0.266668	0.296737	0.236482	0.088462	-1.036133	0.111572	0.156250	0.095420	-0.016208	0.030156	0.067335	-0.616333	-0.004924	-0.784586	-17.399071	-75.419725	-156.695593
59315		9.508572	-1.668767	3.069411	0.548153	0.975340	0.255439	0.313224	0.245267	0.088165	-1.029053	0.109375	0.151855	0.095131	-0.016694	0.030551	0.067573	-0.614405	-0.004607	-0.786079	-17.191426	-75.141782	-156.907880
59316		9.461282	-1.630129	3.086638	0.550199	0.941226	0.212870	0.327789	0.251524	0.090813	-1.029053	0.107178	0.152100	0.094659	-0.016309	0.030721	0.068941	-0.613309	-0.005531	-0.786809	-17.031544	-74.989229	-156.879028
59317		9.360037	-1.575176	3.125166	0.569856	0.889726	0.124198	0.341690	0.259516	0.086514	-1.026855	0.109375	0.151855	0.093648	-0.015764	0.031103	0.069421	-0.611371	-0.005399	-0.788274	-16.835351	-74.710680	-157.044814
59318		9.250996	-1.534794	3.040326	0.488184	0.852624	-0.003777	0.361159	0.260638	0.074375	-1.035889	0.111328	0.147461	0.092555	-0.015368	0.030255	0.070824	-0.610223	-0.006505	-0.789031	-16.620923	-74.555876	-157.052643
59319		9.098759	-1.525400	3.039831	0.479538	0.849530	-0.148160	0.390188	0.265968	0.055039	-1.033936	0.113770	0.142822	0.091032	-0.015288	0.030247	0.070896	-0.608259	-0.006225	-0.790542	-16.378086	-74.278599	-157.310502
59320		9.037311	-1.355443	2.948875	0.396221	0.683436	-0.242843	0.441869	0.258390	0.036825	-1.036133	0.113525	0.140625	0.090414	-0.013603	0.029342	0.072392	-0.607083	-0.007768	-0.791296	-16.050759	-74.131031	-157.387620
59321		9.111294	-1.246593	2.881974	0.279671	0.557708	-0.195718	0.478281	0.252852	0.029965	-1.027100	0.115967	0.138184	0.091151	-0.012521	0.028675	0.072811	-0.605151	-0.008077	-0.792733	-15.727896	-73.867663	-157.648685
59322		9.236454	-1.084182	2.818439	0.176133	0.385121	-0.104356	0.521176	0.247215	0.029265	-1.029785	0.122559	0.130859	0.092401	-0.010901	0.028042	0.074513	-0.603983	-0.009964	-0.793443	-15.354593	-73.727179	-157.726520
59323		9.352599	-0.823178	2.918690	0.230901	0.125772	0.015755	0.548041	0.245484	0.032881	-1.031738	0.118164	0.128906	0.093563	-0.008296	0.029049	0.075741	-0.602180	-0.011092	-0.794682	-15.006643	-73.488601	-157.879114
59324		9.516993	-0.600008	2.909538	0.178756	-0.104372	0.155043	0.569001	0.254619	0.037663	-1.029541	0.120361	0.122070	0.095208	-0.006065	0.028957	0.077617	-0.600955	-0.013144	-0.795397	-14.625767	-73.342509	-157.936407
59325		9.581166	-0.388524	2.970519	0.201777	-0.313261	0.218999	0.570670	0.290660	0.052694	-1.036377	0.120117	0.119873	0.095856	-0.003944	0.029555	0.078895	-0.598951	-0.014231	-0.796763	-14.285079	-73.075506	-158.080404
59326		9.593419	-0.231090	3.030264	0.243286	-0.456773	0.237271	0.567871	0.339157	0.070884	-1.034424	0.126953	0.114990	0.095986	-0.002363	0.030133	0.080901	-0.597381	-0.016147	-0.797703	-13.933960	-72.877583	-158.107384
59327		9.494945	-0.127663	2.914650	0.123863	-0.563759	0.103572	0.594208	0.337675	0.085414	-1.034424	0.126953	0.112793	0.094999	-0.001322	0.028982	0.082552	-0.595185	-0.017463	-0.799147	-13.596354	-72.585204	-158.198124
59328		9.553113	-0.051915	3.018317	0.184609	-0.627362	0.184670	0.598380	0.292951	0.087091	-1.034424	0.131348	0.105713	0.095575	-0.000568	0.030042	0.084705	-0.593775	-0.019474	-0.799924	-13.284002	-72.410760	-158.166192
59329		9.582756	0.019890	3.100163	0.215851	-0.691270	0.233013	0.619232	0.259453	0.095316	-1.032227	0.131348	0.105713	0.095868	0.000149	0.030878	0.083068	-0.592029	-0.018525	-0.801410	-12.962178	-72.174550	-158.697917
59330		9.606954	0.150335	3.444141	0.525037	-0.773144	0.351208	0.568879	0.309849	0.101951	-1.036865	0.131348	0.099121	0.096122	0.001455	0.034297	0.085189	-0.590560	-0.020374	-0.802226	-12.690841	-71.988856	-158.640562
59331		9.522383	0.151186	3.699204	0.736184	-0.735488	0.350960	0.532765	0.362379	0.101464	-1.032471	0.133545	0.087646	0.095290	0.001462	0.036823	0.083737	-0.588447	-0.019416	-0.803954	-12.381669	-71.698913	-159.144524
59332		9.382485	0.177625	3.801836	0.840358	-0.728668	0.251072	0.491584	0.379474	0.092410	-1.041748	0.144531	0.089355	0.093896	0.001726	0.037845	0.085592	-0.586724	-0.020961	-0.804978	-12.117233	-71.475558	-159.126405
59333		9.249783	0.162773	3.902466	0.918976	-0.684562	0.162329	0.447811	0.368384	0.085254	-1.041504	0.135498	0.085449	0.092569	0.001580	0.038858	0.086024	-0.584561	-0.021527	-0.806489	-11.783930	-71.189151	-159.373885
59334		9.163511	0.171921	3.985661	0.988116	-0.668918	0.110066	0.429115	0.357622	0.077755	-1.034912	0.142334	0.082764	0.091706	0.001670	0.039696	0.087630	-0.582943	-0.022876	-0.807450	-11.544935	-70.979750	-159.366639
59335		9.077485	0.182319	4.066602	1.040568	-0.659024	0.059194	0.418554	0.331715	0.060310	-1.037109	0.142334	0.075928	0.090842	0.001766	0.040519	0.086974	-0.580948	-0.022752	-0.808961	-11.216572	-70.714693	-159.755798
59336		8.981144	0.306466	4.129728	1.117770	-0.755786	-0.015299	0.386339	0.318523	0.055154	-1.039307	0.139893	0.069336	0.089876	0.003010	0.041160	0.088356	-0.579498	-0.024015	-0.809814	-10.983953	-70.529773	-159.767747
59337		8.926955	0.423776	4.191357	1.165479	-0.853771	-0.047943	0.343379	0.303307	0.043779	-1.035156	0.146729	0.066650	0.089332	0.004185	0.041785	0.088139	-0.577613	-0.024267	-0.811176	-10.667296	-70.282715	-160.078041
59338		8.684374	0.418759	4.192537	1.213014	-0.816716	-0.271588	0.277409	0.312363	0.039529	-1.037354	0.144531	0.066895	0.086908	0.004147	0.041795	0.089139	-0.576229	-0.025140	-0.812024	-10.479469	-70.102820	-160.108740
59339		8.512514	0.410013	4.212080	1.243378	-0.782002	-0.420401	0.195667	0.295437	0.034159	-1.034912	0.144531	0.062256	0.085187	0.004074	0.041999	0.089539	-0.574437	-0.025701	-0.813231	-10.219818	-69.868008	-160.285600
59340		8.335220	0.339524	4.158888	1.213656	-0.701023	-0.597315	0.086315	0.255645	0.022842	-1.037354	0.146729	0.057617	0.083405	0.003387	0.041484	0.089914	-0.573363	-0.025871	-0.813942	-10.135626	-69.721675	-160.322601
59341		8.251159	0.211668	4.105184	1.134779	-0.574807	-0.682473	-0.000697	0.212761	0.000709	-1.037354	0.146729	0.057617	0.082555	0.002117	0.040964	0.089454	-0.571979	-0.025686	-0.814972	-9.958797	-69.535351	-160.550008
59342		8.250090	0.140207	4.034503	1.039871	-0.518844	-0.701688	-0.077219	0.172159	-0.015261	-1.037354	0.144287	0.057861	0.082536	0.001411	0.040273	0.089194	-0.571311	-0.025337	-0.815479	-9.935141	-69.439810	-160.622481
59343		8.225558	0.019286	4.045307	1.011167	-0.399060	-0.710876	-0.144151	0.130650	-0.026473	-1.035156	0.146729	0.057617	0.082282	0.000211	0.040399	0.088116	-0.570323	-0.024629	-0.816309	-9.823358	-69.302676	-160.879794
59344		8.379402	-0.069575	4.059618	0.949694	-0.332742	-0.555955	-0.199313	0.064491	-0.051768	-1.035156	0.146729	0.055420	0.083807	-0.000677	0.040570	0.087346	-0.570142	-0.023934	-0.816539	-9.844316	-69.271421	-160.979448
59345		8.602378	-0.189037	4.071232	0.851484	-0.239490	-0.334861	-0.239544	0.006932	-0.067623	-1.039551	0.144287	0.053467	0.086025	-0.001871	0.040712	0.086523	-0.569706	-0.023536	-0.816942	-9.754715	-69.213140	-161.169117
59346		8.543111	-0.333379	3.945833	0.731457	-0.112648	-0.425581	-0.278736	0.013984	-0.063372	-1.037354	0.144287	0.057861	0.085433	-0.003306	0.039457	0.085474	-0.569763	-0.022571	-0.817041	-9.817464	-69.211493	-161.272787
59347		8.175796	-0.451194	3.772620	0.662875	0.017915	-0.821572	-0.317883	0.037960	-0.049710	-1.041748	0.144287	0.048828	0.081764	-0.004472	0.037718	0.084183	-0.569211	-0.021535	-0.817587	-9.797172	-69.128953	-161.484143
59348		7.764389	-0.492066	3.580563	0.617901	0.071438	-1.270944	-0.363928	0.011929	-0.062492	-1.034912	0.144287	0.051025	0.077644	-0.004880	0.035810	0.082896	-0.569309	-0.020219	-0.817684	-9.911081	-69.128400	-161.585351
59349		7.743674	-0.501841	3.419519	0.467847	0.059361	-1.345868	-0.423604	-0.074901	-0.089961	-1.034912	0.139893	0.058105	0.077422	-0.004981	0.034235	0.081779	-0.569208	-0.019366	-0.817887	-9.918284	-69.109421	-161.740616
59350		7.973400	-0.502975	3.158324	0.161384	-0.001618	-1.223332	-0.463473	-0.178607	-0.129642	-1.039551	0.144287	0.062256	0.079702	-0.005008	0.031666	0.079915	-0.570113	-0.017911	-0.817474	-10.039268	-69.223024	-161.895234
59351		8.243233	-0.407647	2.998322	-0.053656	-0.140798	-1.032924	-0.444977	-0.238660	-0.170411	-1.036865	0.133301	0.062988	0.082393	-0.004080	0.030091	0.078164	-0.570778	-0.017071	-0.817197	-9.998929	-69.316386	-162.150710
59352		8.332104	-0.270977	2.848900	-0.182249	-0.297858	-1.009753	-0.433389	-0.195118	-0.188679	-1.037109	0.139893	0.064941	0.083291	-0.002726	0.028576	0.076143	-0.571727	-0.015913	-0.816748	-10.017189	-69.445211	-162.396442
59353		8.412250	-0.138160	2.875936	-0.159022	-0.425314	-0.932944	-0.416872	-0.161165	-0.212043	-1.039063	0.135498	0.069580	0.084098	-0.001411	0.028830	0.073887	-0.572083	-0.014948	-0.816724	-9.885633	-69.500834	-162.794458
59354		8.765681	-0.041927	3.101234	-0.037567	-0.522581	-0.529259	-0.395184	-0.215570	-0.248445	-1.038818	0.128906	0.067871	0.087623	-0.000467	0.031108	0.071730	-0.573089	-0.014123	-0.816225	-9.793486	-69.646779	-163.134330
59355		9.167991	0.004959	3.423903	0.147023	-0.558839	-0.043286	-0.373883	-0.264009	-0.276077	-1.036621	0.128906	0.081299	0.091635	-0.000013	0.034360	0.069513	-0.573852	-0.013696	-0.815889	-9.559727	-69.768407	-163.587461
59356		9.349044	-0.107943	3.780157	0.428090	-0.411531	0.254744	-0.324189	-0.231261	-0.293140	-1.034180	0.122314	0.074951	0.093445	-0.001155	0.037911	0.067375	-0.574886	-0.013292	-0.815347	-9.354836	-69.926606	-164.003493
59357		9.230622	-0.358563	3.966602	0.620516	-0.111177	0.220728	-0.221630	-0.174275	-0.292162	-1.040771	0.117676	0.086426	0.092266	-0.003676	0.039750	0.065506	-0.575308	-0.013486	-0.815198	-8.983952	-70.009116	-164.513337
59358		8.896619	-0.613752	4.204728	0.934551	0.214229	-0.000096	-0.164572	-0.090865	-0.259998	-1.040771	0.117676	0.079590	0.088939	-0.006219	0.042093	0.063972	-0.575715	-0.013590	-0.815031	-8.696471	-70.083391	-164.919414
59359		8.611503	-0.839596	4.296176	1.085098	0.488386	-0.226027	-0.162496	-0.045755	-0.226671	-1.038086	0.108887	0.084717	0.086096	-0.008459	0.042988	0.061976	-0.575571	-0.013348	-0.815290	-8.367065	-70.080171	-165.433100
59360		8.469221	-0.984694	4.206462	1.037625	0.648722	-0.384319	-0.124810	-0.083481	-0.190645	-1.033691	0.111084	0.084473	0.084665	-0.009901	0.042106	0.060839	-0.575938	-0.013412	-0.815116	-8.160448	-70.143191	-165.728795
59361		8.521782	-0.967558	4.024767	0.856119	0.622384	-0.398052	-0.068643	-0.134063	-0.174909	-1.033447	0.108887	0.086914	0.085182	-0.009736	0.040308	0.058766	-0.576176	-0.012969	-0.815107	-7.898943	-70.188744	-166.197885
59362		8.772576	-0.962697	3.826777	0.601611	0.594145	-0.230719	-0.027153	-0.154926	-0.167311	-1.035645	0.102295	0.096436	0.087688	-0.009695	0.038337	0.058001	-0.576805	-0.013383	-0.814711	-7.685254	-70.289730	-166.441411
59363		8.979944	-0.952738	3.662656	0.387940	0.569038	-0.092203	0.029656	-0.128853	-0.159367	-1.037842	0.104492	0.096191	0.089768	-0.009604	0.036683	0.056308	-0.577048	-0.013276	-0.814659	-7.402925	-70.337183	-166.872377
59364		9.184002	-0.945217	3.570983	0.244058	0.555264	0.067765	0.106486	-0.078817	-0.145093	-1.040039	0.099854	0.092041	0.091819	-0.009538	0.035741	0.056023	-0.577331	-0.014148	-0.814463	-7.128389	-70.392665	-167.099036
59365		9.351839	-0.976189	3.517230	0.130427	0.584706	0.208382	0.156176	0.003555	-0.096968	-1.035645	0.106689	0.091553	0.093514	-0.009835	0.035163	0.054999	-0.576976	-0.014335	-0.814781	-6.851559	-70.355186	-167.444501
59366		9.516227	-1.011529	3.504871	0.055272	0.619674	0.359766	0.218118	0.055526	-0.051163	-1.035645	0.104492	0.087158	0.095169	-0.010178	0.035011	0.055427	-0.576688	-0.015354	-0.814938	-6.636172	-70.327321	-167.540483
59367		9.382666	-1.020127	3.596735	0.165088	0.656390	0.264686	0.293884	0.085390	0.010944	-1.037842	0.102051	0.089600	0.093843	-0.010249	0.035912	0.056877	-0.575931	-0.016918	-0.815341	-6.439521	-70.234753	-167.488028
59368		9.030315	-1.064995	3.685284	0.345367	0.741863	-0.035548	0.337254	0.116821	0.055558	-1.035400	0.102295	0.085205	0.090328	-0.010687	0.036782	0.058089	-0.575366	-0.018097	-0.815630	-6.315172	-70.165006	-167.414785
59369		8.625696	-1.189791	3.684516	0.441651	0.899501	-0.411108	0.370297	0.140702	0.074269	-1.044678	0.106445	0.080322	0.086287	-0.011934	0.036762	0.058795	-0.574398	-0.018860	-0.816244	-6.180370	-70.037343	-167.427321
59370		8.317305	-1.207916	3.761070	0.596012	0.954623	-0.673994	0.434631	0.123173	0.071104	-1.035889	0.108887	0.084717	0.083200	-0.012131	0.037533	0.060349	-0.573775	-0.020391	-0.816532	-6.023626	-69.963180	-167.329093
59371		8.361823	-1.015035	3.836510	0.650940	0.775829	-0.612496	0.478578	0.092596	0.084058	-1.042480	0.108643	0.077881	0.083640	-0.010207	0.038302	0.062292	-0.572907	-0.022184	-0.816949	-5.854966	-69.856805	-167.188674
59372		8.351016	-0.702504	3.894838	0.734929	0.483617	-0.613300	0.517434	0.086283	0.083775	-1.033447	0.106689	0.075928	0.083530	-0.007091	0.038894	0.064130	-0.572403	-0.024028	-0.817107	-5.676645	-69.803131	-167.062781
59373		8.340905	-0.388101	3.949655	0.811105	0.189010	-0.613369	0.533625	0.079455	0.077742	-1.033691	0.111084	0.075684	0.083426	-0.003954	0.039453	0.065601	-0.571569	-0.025620	-0.817526	-5.475525	-69.702987	-167.010085
59374		8.412256	-0.111705	3.984459	0.847006	-0.072279	-0.542748	0.528831	0.069732	0.062252	-1.035889	0.113281	0.075439	0.084137	-0.001196	0.039812	0.067379	-0.571119	-0.027579	-0.817632	-5.259940	-69.660162	-166.916840
59375		8.506157	0.010792	4.064982	0.891629	-0.177285	-0.429061	0.498467	0.065946	0.046881	-1.033691	0.115479	0.072998	0.085075	0.000027	0.040622	0.069226	-0.570363	-0.029547	-0.817937	-5.036056	-69.575520	-166.824868
59376		8.590442	0.147566	4.056842	0.868492	-0.304568	-0.356030	0.475385	0.041690	0.026161	-1.031494	0.113281	0.073242	0.085913	0.001390	0.040554	0.070699	-0.570033	-0.031399	-0.817972	-4.799941	-69.550712	-166.786135
59377		8.787197	0.178570	4.167628	0.898340	-0.319940	-0.132479	0.439806	0.000315	0.002475	-1.031494	0.115479	0.068604	0.087872	0.001695	0.041680	0.072287	-0.569560	-0.033359	-0.818085	-4.548475	-69.507842	-166.744128
59378		8.913333	0.181384	4.169738	0.856387	-0.314055	-0.012940	0.390399	-0.016523	-0.031438	-1.033691	0.113281	0.071045	0.089130	0.001718	0.041708	0.073272	-0.569483	-0.035048	-0.817981	-4.280465	-69.518932	-166.791406
59379		8.900451	0.212265	4.184976	0.870690	-0.322936	-0.019083	0.341895	-0.005935	-0.059891	-1.033691	0.115479	0.070801	0.089004	0.002024	0.041856	0.074155	-0.569031	-0.036690	-0.818144	-3.984067	-69.478246	-166.878670
59380		8.917175	0.250274	4.183807	0.868589	-0.342058	-0.003946	0.298288	-0.016000	-0.087601	-1.029053	0.111084	0.064209	0.089169	0.002401	0.041849	0.074647	-0.568971	-0.038163	-0.818073	-3.682819	-69.490961	-167.017786
59381		9.011953	0.349721	4.233868	0.892013	-0.419730	0.101511	0.251086	-0.066550	-0.118105	-1.031494	0.113281	0.073242	0.090107	0.003391	0.042373	0.074983	-0.568773	-0.039611	-0.818111	-3.350782	-69.484757	-167.202376
59382		9.366048	0.379280	4.423814	0.958539	-0.424085	0.499351	0.198646	-0.133718	-0.156638	-1.031250	0.108887	0.071289	0.093634	0.003675	0.044304	0.074886	-0.569215	-0.040916	-0.817748	-3.010263	-69.566365	-167.444302
59383		9.879059	0.434052	4.714789	1.067335	-0.445906	1.081133	0.154894	-0.190141	-0.197977	-1.031250	0.106689	0.073486	0.098750	0.004206	0.047245	0.074398	-0.569602	-0.042122	-0.817462	-2.617234	-69.639707	-167.779061
59384		10.272521	0.406701	4.896382	1.111937	-0.389289	1.513238	0.101636	-0.166983	-0.232591	-1.026611	0.106689	0.075684	0.102689	0.003923	0.049052	0.073707	-0.570198	-0.043259	-0.817050	-2.212117	-69.741045	-168.148873
59385		10.430341	0.297530	4.989669	1.128860	-0.248604	1.695620	0.050100	-0.114563	-0.244587	-1.026611	0.102295	0.078369	0.104278	0.002835	0.049957	0.072696	-0.570305	-0.044123	-0.817019	-1.793066	-69.770635	-168.580522
59386		10.466331	0.100749	4.980925	1.082493	-0.029537	1.728158	0.023554	-0.094541	-0.245604	-1.031006	0.102295	0.076172	0.104641	0.000873	0.049859	0.071745	-0.570630	-0.044951	-0.816832	-1.403389	-69.828831	-168.981288
59387		10.295109	-0.075529	4.831767	0.969588	0.158664	1.517609	-0.002646	-0.071318	-0.236325	-1.030518	0.093262	0.083252	0.102933	-0.000876	0.048354	0.070755	-0.570574	-0.045651	-0.816918	-1.023013	-69.831742	-169.385620
59388		10.099178	-0.200917	4.770237	0.961317	0.309579	1.312460	-0.005908	-0.057298	-0.231472	-1.026123	0.093506	0.078857	0.100976	-0.002125	0.047731	0.069785	-0.570758	-0.046304	-0.816836	-0.668433	-69.866644	-169.766850
59389		10.162012	-0.294803	4.747631	0.901629	0.416090	1.363506	-0.017514	-0.087198	-0.227646	-1.028320	0.091064	0.085693	0.101596	-0.003060	0.047521	0.067715	-0.570861	-0.046191	-0.816944	-0.306749	-69.880941	-170.309002
59390		10.384449	-0.397352	4.570393	0.652546	0.499726	1.510191	-0.043922	-0.098800	-0.210050	-1.028320	0.091064	0.085693	0.103818	-0.004073	0.045756	0.066715	-0.571232	-0.046641	-0.816742	-0.005240	-69.938039	-170.656778
59391		10.616833	-0.542775	4.393366	0.388352	0.622457	1.666646	-0.068325	-0.079763	-0.194711	-1.025879	0.086670	0.079346	0.106145	-0.005516	0.043978	0.065266	-0.571342	-0.046629	-0.816783	0.266213	-69.952999	-171.049010
59392		10.729988	-0.748470	4.165274	0.110679	0.802394	1.693235	-0.077115	-0.039250	-0.171168	-1.025879	0.086670	0.081543	0.107285	-0.007560	0.041677	0.064343	-0.571490	-0.046813	-0.816742	0.489425	-69.975107	-171.333580
59393		10.743703	-0.806568	3.937176	-0.120284	0.838107	1.626812	-0.052820	-0.029136	-0.134650	-1.030273	0.084473	0.083984	0.107426	-0.008128	0.039390	0.063524	-0.571299	-0.046889	-0.816935	0.673191	-69.948753	-171.578357
59394		11.042994	-0.953087	3.986208	-0.191943	0.988391	1.923247	0.020832	-0.123919	-0.099517	-1.025635	0.082275	0.081787	0.110400	-0.009590	0.039929	0.063153	-0.571777	-0.047294	-0.816606	0.842306	-70.019210	-171.745584
59395		11.554281	-1.121839	4.166190	-0.213193	1.167633	2.463639	0.044471	-0.212726	-0.039510	-1.025391	0.077881	0.084229	0.115496	-0.011250	0.041782	0.062741	-0.572360	-0.047380	-0.816225	0.930129	-70.100951	-171.861448
59396		11.681092	-1.251332	3.869797	-0.528241	1.251708	2.481344	0.077962	-0.186277	0.030530	-1.025635	0.082275	0.090820	0.116777	-0.012511	0.038802	0.063050	-0.573104	-0.047667	-0.815662	0.929266	-70.208138	-171.812984
59397		11.485258	-1.146681	3.697407	-0.595538	1.130039	2.239913	0.095856	-0.072266	0.094153	-1.021240	0.084717	0.092773	0.114845	-0.011430	0.037010	0.062749	-0.573206	-0.047088	-0.815647	0.825842	-70.216267	-171.782211
59398		11.130756	-1.039692	3.582573	-0.559125	1.018501	1.868903	0.172301	-0.067825	0.114784	-1.023438	0.084717	0.094971	0.111301	-0.010364	0.035855	0.063700	-0.573456	-0.047480	-0.815375	0.741336	-70.256205	-171.587466
59399		10.909613	-0.884987	3.398486	-0.625405	0.842125	1.600123	0.200286	-0.105384	0.112736	-1.021240	0.084717	0.097412	0.109083	-0.008822	0.034033	0.064361	-0.573749	-0.047629	-0.815108	0.644458	-70.299156	-171.424362
59400		10.664144	-0.708111	3.074390	-0.806413	0.627247	1.261314	0.239941	-0.095171	0.110724	-1.023438	0.084717	0.094971	0.106631	-0.007059	0.030786	0.065482	-0.574087	-0.048317	-0.814740	0.604467	-70.354660	-171.235858
59401		10.253724	-0.615617	2.684929	-1.012643	0.494038	0.744640	0.267851	-0.028523	0.109504	-1.023926	0.093506	0.092285	0.102537	-0.006136	0.026856	0.065707	-0.574098	-0.048295	-0.814716	0.553810	-70.356100	-171.168487
59402		9.728727	-0.522945	2.249540	-1.229129	0.358094	0.104118	0.295615	0.040199	0.111095	-1.023926	0.093506	0.092285	0.097295	-0.005209	0.022468	0.067022	-0.573867	-0.049165	-0.814720	0.542822	-70.334082	-170.976952
59403		9.146551	-0.412327	1.973103	-1.283929	0.225988	-0.537829	0.309911	0.078648	0.107437	-1.028564	0.097900	0.089844	0.091475	-0.004105	0.019689	0.069131	-0.573275	-0.050440	-0.814882	0.499650	-70.267080	-170.653436
59404		8.583697	-0.381833	1.768484	-1.288985	0.189128	-1.137670	0.285836	0.089153	0.087821	-1.028564	0.095703	0.094482	0.085847	-0.003806	0.017641	0.070334	-0.572838	-0.051320	-0.815032	0.520342	-70.216872	-170.501389
59405		8.131019	-0.380329	1.599325	-1.304764	0.178285	-1.622342	0.265548	0.082882	0.054241	-1.026367	0.097900	0.087646	0.081318	-0.003802	0.015954	0.071846	-0.572269	-0.052383	-0.815231	0.536265	-70.150971	-170.303620
59406		7.775928	-0.267983	1.391815	-1.364707	0.052507	-2.027520	0.243284	0.064030	0.027066	-1.026367	0.100098	0.083008	0.077764	-0.002686	0.013890	0.072674	-0.571931	-0.053271	-0.815338	0.629779	-70.114921	-170.254824
59407		7.521591	-0.234865	1.528849	-1.152845	0.055183	-2.220930	0.238913	-0.009506	-0.003923	-1.035400	0.099854	0.085205	0.075215	-0.002368	0.015289	0.074169	-0.571666	-0.054648	-0.815298	0.725056	-70.095720	-170.112609
59408		7.488716	-0.132580	1.641282	-1.014976	-0.018261	-2.212574	0.212168	-0.134768	-0.030695	-1.035400	0.102295	0.087402	0.074876	-0.001355	0.016462	0.074619	-0.572131	-0.055647	-0.814863	0.896140	-70.173107	-170.165235
59409		7.695076	0.053213	1.621726	-1.056151	-0.211363	-2.022511	0.164235	-0.276058	-0.063416	-1.033447	0.104492	0.089355	0.076928	0.000494	0.016324	0.075540	-0.572948	-0.056956	-0.814114	1.049979	-70.303925	-170.137026
59410		8.100134	0.233573	1.677780	-1.079404	-0.388402	-1.617226	0.119394	-0.405687	-0.091666	-1.033203	0.100098	0.096436	0.080968	0.002289	0.016943	0.075399	-0.574529	-0.057853	-0.812948	1.276790	-70.535638	-170.305110
59411		8.672396	0.367056	1.671968	-1.213024	-0.541738	-1.073374	0.082577	-0.486903	-0.107403	-1.037598	0.099854	0.096436	0.086685	0.003617	0.016932	0.076083	-0.576261	-0.059177	-0.811562	1.457043	-70.795063	-170.323851
59412		9.106870	0.395777	1.661864	-1.317007	-0.577001	-0.659224	0.039103	-0.485217	-0.111402	-1.037598	0.097900	0.105469	0.091030	0.003904	0.016840	0.075608	-0.578184	-0.059837	-0.810189	1.683097	-71.071607	-170.539266
59413		9.248845	0.327767	1.776000	-1.231376	-0.483179	-0.482477	-0.023480	-0.461588	-0.094598	-1.030762	0.095703	0.114746	0.092449	0.003236	0.017973	0.075518	-0.579847	-0.060375	-0.808968	1.807058	-71.311378	-170.630056
59414		9.288841	0.217318	1.875269	-1.131756	-0.342937	-0.408020	-0.045182	-0.469421	-0.080039	-1.032959	0.093506	0.112549	0.092845	0.002140	0.018970	0.074930	-0.581739	-0.060596	-0.807647	1.940539	-71.579034	-170.798094
59415		9.394837	0.179401	1.966461	-1.042669	-0.280208	-0.273494	-0.087293	-0.543441	-0.081864	-1.035156	0.093506	0.125977	0.093895	0.001764	0.019919	0.073975	-0.583910	-0.060407	-0.806181	2.028734	-71.880838	-170.985310
59416		9.565254	0.211476	1.978715	-1.026009	-0.302817	-0.101381	-0.131816	-0.569903	-0.069854	-1.035156	0.093506	0.130615	0.095596	0.002095	0.020058	0.073145	-0.586236	-0.060285	-0.804577	2.109344	-72.206086	-171.149369
59417		9.633143	0.228077	1.888247	-1.074847	-0.326139	-0.058046	-0.146651	-0.560282	-0.057920	-1.028320	0.091553	0.139648	0.096279	0.002267	0.019151	0.072074	-0.588552	-0.059776	-0.803019	2.130900	-72.525881	-171.305777
59418		9.557737	0.237045	1.804765	-1.078172	-0.335108	-0.148902	-0.155435	-0.518427	-0.041812	-1.028564	0.095947	0.148193	0.095531	0.002365	0.018293	0.071302	-0.590678	-0.059456	-0.801549	2.150175	-72.822292	-171.419194
59419		9.420816	0.013474	1.837918	-0.996633	-0.096152	-0.266631	-0.153435	-0.510350	-0.018508	-1.021973	0.096191	0.155029	0.094161	0.000140	0.018619	0.070643	-0.592910	-0.058936	-0.799996	2.079330	-73.132487	-171.449712
59420		9.409508	-0.122642	1.931126	-0.880012	0.061085	-0.246876	-0.160875	-0.551606	0.016248	-1.028320	0.089355	0.159912	0.094041	-0.001203	0.019572	0.070078	-0.595181	-0.058433	-0.798395	1.989083	-73.449349	-171.451671
59421		9.549581	-0.195294	2.045469	-0.764360	0.149490	-0.075659	-0.149572	-0.589489	0.045947	-1.026367	0.096191	0.168457	0.095435	-0.001916	0.020737	0.069503	-0.597812	-0.057650	-0.796534	1.797311	-73.815504	-171.376310
59422		9.650450	-0.080046	2.101671	-0.659529	0.041865	0.042139	-0.143979	-0.586210	0.103742	-1.023926	0.093994	0.173096	0.096443	-0.000735	0.021300	0.069326	-0.600231	-0.056964	-0.794778	1.536882	-74.153904	-171.191152
59423		9.605751	0.020902	2.099552	-0.568573	-0.064485	0.003182	-0.154062	-0.541460	0.170206	-1.021973	0.098389	0.179443	0.096000	0.000307	0.021255	0.069517	-0.602689	-0.055947	-0.792971	1.057451	-74.495253	-170.783766
59424		9.509037	0.031149	2.089968	-0.495500	-0.084315	-0.089631	-0.145795	-0.514703	0.214842	-1.021973	0.096191	0.184082	0.095036	0.000429	0.021144	0.069796	-0.604846	-0.054892	-0.791376	0.534938	-74.793023	-170.328508
59425		9.499658	0.001835	2.163228	-0.369412	-0.060062	-0.077046	-0.129295	-0.526468	0.249488	-1.021729	0.093994	0.186523	0.094939	0.000151	0.021882	0.070233	-0.607245	-0.053638	-0.789584	-0.132385	-75.122528	-169.732176
59426		9.475148	-0.048588	2.238422	-0.245715	-0.015048	-0.079730	-0.140363	-0.510470	0.269988	-1.021973	0.098633	0.195313	0.094694	-0.000342	0.022626	0.070746	-0.609390	-0.052435	-0.787965	-0.816797	-75.415105	-169.107643
59427		9.383820	-0.174227	2.288405	-0.141715	0.102081	-0.153884	-0.158180	-0.478593	0.267831	-1.015381	0.098633	0.197510	0.093785	-0.001598	0.023110	0.070218	-0.611596	-0.050399	-0.786435	-1.535908	-75.705248	-168.601981
59428		9.258116	-0.205474	2.326067	-0.031735	0.125180	-0.265508	-0.168238	-0.444946	0.249623	-1.015381	0.098877	0.206299	0.092532	-0.001920	0.023468	0.070583	-0.613476	-0.049123	-0.785017	-2.238509	-75.956851	-167.976758
59429		9.106733	-0.110483	2.402403	0.142578	0.034153	-0.394903	-0.194161	-0.426429	0.221433	-1.017822	0.105469	0.210449	0.091017	-0.000981	0.024219	0.070535	-0.615446	-0.047703	-0.783566	-2.902936	-76.219211	-167.435304
59430		9.024465	-0.097628	2.251135	0.062134	-0.016578	-0.511408	-0.236920	-0.407561	0.212640	-1.013428	0.110107	0.214600	0.090199	-0.000854	0.022696	0.070551	-0.617187	-0.046256	-0.782280	-3.600290	-76.447110	-166.857363
59431		8.956637	-0.170510	2.361664	0.216532	0.057355	-0.551071	-0.282194	-0.393917	0.203154	-1.011230	0.110107	0.219238	0.089521	-0.001581	0.023795	0.070325	-0.619045	-0.044524	-0.780932	-4.365593	-76.687088	-166.254780
59432		8.891773	-0.285342	2.402888	0.293255	0.162387	-0.603650	-0.296822	-0.410348	0.193050	-1.018066	0.112061	0.223633	0.088871	-0.002732	0.024215	0.070078	-0.620807	-0.042904	-0.779646	-5.095909	-76.914095	-165.679374
59433		8.861593	-0.405289	2.369658	0.294449	0.258517	-0.639157	-0.310159	-0.420769	0.190885	-1.015869	0.110107	0.230469	0.088570	-0.003931	0.023889	0.069716	-0.622745	-0.041111	-0.778228	-5.901519	-77.163148	-165.052322
59434		9.032995	-0.538635	2.363742	0.275666	0.361889	-0.471100	-0.330490	-0.444076	0.181358	-1.011230	0.107910	0.239502	0.090282	-0.005265	0.023847	0.069311	-0.624637	-0.039407	-0.776834	-6.680533	-77.406607	-164.447899
59435		9.204319	-0.541400	2.336858	0.265205	0.335045	-0.310545	-0.317112	-0.460179	0.169437	-1.009521	0.119141	0.245605	0.091994	-0.005299	0.023589	0.068725	-0.626764	-0.037710	-0.775256	-7.456237	-77.684533	-163.861184
59436		9.321559	-0.515500	2.418820	0.373369	0.299020	-0.180509	-0.308721	-0.464922	0.155060	-1.011475	0.112549	0.252686	0.093163	-0.005045	0.024413	0.068280	-0.628715	-0.036179	-0.773787	-8.217600	-77.938446	-163.263317
59437		9.401431	-0.554693	2.486704	0.472456	0.327121	-0.089115	-0.319606	-0.462572	0.136934	-1.004639	0.110352	0.252686	0.093960	-0.005443	0.025093	0.067599	-0.630885	-0.034463	-0.772157	-9.039897	-78.221544	-162.639043
59438		9.523716	-0.638660	2.477486	0.477672	0.388546	0.029448	-0.333804	-0.473568	0.113359	-1.007080	0.112549	0.263916	0.095182	-0.006291	0.025011	0.066911	-0.632862	-0.032968	-0.770664	-9.767014	-78.480983	-162.092026
59439		9.772493	-0.576612	2.416183	0.436230	0.293291	0.256846	-0.324085	-0.479120	0.100646	-1.002686	0.117188	0.272705	0.097670	-0.005678	0.024405	0.066022	-0.635029	-0.031451	-0.769019	-10.496350	-78.769515	-161.561104
59440		9.919666	-0.541013	2.472323	0.520239	0.246144	0.408536	-0.316111	-0.457244	0.091485	-0.998047	0.114990	0.268311	0.099142	-0.005325	0.024958	0.065307	-0.636924	-0.030088	-0.767566	-11.201700	-79.019505	-161.027017
59441		10.066629	-0.636176	2.545160	0.605284	0.328809	0.567337	-0.316563	-0.413256	0.088500	-0.998047	0.114990	0.272705	0.100616	-0.006277	0.025670	0.064418	-0.638822	-0.028492	-0.766123	-11.976400	-79.266450	-160.456565
59442		10.046493	-0.850883	2.573424	0.651791	0.534815	0.558790	-0.314652	-0.353918	0.090468	-1.000488	0.117188	0.281494	0.100423	-0.008423	0.025925	0.063718	-0.640312	-0.027104	-0.764988	-12.668665	-79.456219	-159.935794
59443		9.875422	-1.014804	2.439374	0.569030	0.677512	0.371683	-0.311211	-0.282551	0.096041	-0.998291	0.117432	0.286133	0.098724	-0.010063	0.024549	0.062922	-0.641608	-0.025488	-0.764022	-13.404619	-79.613349	-159.397368
59444		9.631956	-1.219008	2.269086	0.448389	0.861242	0.110338	-0.308501	-0.219583	0.108531	-0.993408	0.113037	0.288574	0.096301	-0.012103	0.022815	0.062328	-0.642579	-0.024022	-0.763302	-14.089736	-79.723571	-158.880808
59445		9.283151	-1.266550	2.057012	0.319683	0.891149	-0.267220	-0.280111	-0.153816	0.102975	-0.998047	0.112793	0.288574	0.092822	-0.012589	0.020659	0.061652	-0.643377	-0.022453	-0.762732	-14.758030	-79.807220	-158.395949
59446		8.843496	-1.198397	1.836465	0.200452	0.814436	-0.740054	-0.256112	-0.072936	0.096805	-0.993408	0.113037	0.288574	0.088434	-0.011918	0.018412	0.061198	-0.643768	-0.021179	-0.762476	-15.277276	-79.836087	-158.017682
59447		8.526454	-1.144016	1.603391	0.039514	0.742880	-1.093363	-0.265984	-0.000521	0.092607	-0.993652	0.117432	0.290527	0.085270	-0.011379	0.016049	0.060580	-0.643901	-0.019712	-0.762452	-15.752867	-79.825930	-157.711878
59448		8.382155	-1.173548	1.449678	-0.088518	0.753123	-1.259076	-0.298683	0.061505	0.089636	-0.993408	0.113037	0.290771	0.083831	-0.011676	0.014488	0.059975	-0.643789	-0.018258	-0.762631	-16.158694	-79.780841	-157.473629
59449		8.366282	-1.142668	1.421238	-0.110302	0.706794	-1.279895	-0.308024	0.078809	0.093583	-0.993652	0.117432	0.285889	0.083674	-0.011366	0.014197	0.059218	-0.643626	-0.016530	-0.762867	-16.614664	-79.723790	-157.219843
59450		8.397101	-1.018056	1.425418	-0.098320	0.569192	-1.254305	-0.313845	0.062048	0.081043	-0.993652	0.117432	0.283691	0.083980	-0.010124	0.014244	0.058531	-0.643512	-0.015045	-0.763047	-16.996806	-79.679263	-157.014428
59451		8.834937	-1.046115	1.649636	0.050614	0.575957	-0.782878	-0.356185	-0.059040	0.046820	-0.995605	0.110840	0.291016	0.088347	-0.010411	0.016541	0.057458	-0.643827	-0.013308	-0.762895	-17.464741	-79.696379	-156.775489
59452		9.811160	-1.103448	1.806272	0.058720	0.573893	0.207602	-0.353065	-0.267929	-0.028536	-0.991455	0.115234	0.292969	0.098086	-0.011016	0.018214	0.056204	-0.644971	-0.012122	-0.762041	-17.853513	-79.850501	-156.586216
59453		10.843633	-1.014281	1.804398	-0.065150	0.415487	1.218721	-0.263286	-0.345151	-0.094838	-0.991211	0.110840	0.299805	0.108400	-0.010170	0.018244	0.054856	-0.646363	-0.011302	-0.760971	-18.116796	-80.052998	-156.500269
59454		10.994812	-0.884038	1.686873	-0.159986	0.274009	1.341336	-0.174588	-0.191213	-0.082728	-0.984131	0.102051	0.298096	0.109928	-0.008871	0.016982	0.053976	-0.647157	-0.010948	-0.760364	-18.169525	-80.174758	-156.548513
59455		10.338487	-0.808187	1.646467	-0.075170	0.244244	0.684123	-0.154299	-0.044297	-0.055458	-0.986572	0.106445	0.302246	0.103379	-0.008098	0.016494	0.053157	-0.647379	-0.010367	-0.760242	-18.179317	-80.207730	-156.652821
59456		9.687729	-0.834019	1.637807	0.025946	0.319795	0.042623	-0.142993	-0.137249	-0.115149	-0.993164	0.104248	0.304688	0.096861	-0.008384	0.016451	0.052258	-0.647956	-0.010224	-0.759814	-18.054052	-80.305912	-156.863291
59457		9.937109	-1.020514	1.505668	-0.135078	0.491254	0.276659	-0.142937	-0.343373	-0.193186	-0.983887	0.095459	0.309814	0.099335	-0.010290	0.015235	0.050929	-0.649300	-0.010178	-0.758757	-17.935087	-80.525304	-157.094954
59458		10.532653	-1.200271	1.103345	-0.596926	0.625836	0.810238	-0.106424	-0.440824	-0.290399	-0.990723	0.097656	0.318604	0.105284	-0.012150	0.011272	0.049468	-0.651006	-0.010821	-0.757382	-17.515500	-80.819520	-157.582209
59459		11.010269	-1.191274	0.727146	-0.993321	0.595288	1.225090	-0.031447	-0.388586	-0.372542	-0.988037	0.091064	0.316650	0.110066	-0.012117	0.007487	0.047817	-0.652490	-0.011809	-0.756195	-16.724277	-81.095846	-158.428266
59460		11.396814	-0.938191	0.578759	-1.134661	0.357789	1.575321	0.099112	-0.352894	-0.427283	-0.992676	0.093018	0.321045	0.113937	-0.009628	0.005984	0.046512	-0.653797	-0.013653	-0.755116	-15.523803	-81.361176	-159.585754
59461		11.876651	-0.633085	0.749499	-0.970807	0.095216	2.064411	0.183645	-0.355277	-0.433401	-0.992188	0.082031	0.323975	0.118739	-0.006595	0.007700	0.045349	-0.655070	-0.015615	-0.754045	-14.243951	-81.618678	-160.801475
59462		12.098414	-0.241140	0.810539	-0.866731	-0.246787	2.281702	0.189924	-0.378603	-0.383415	-0.998779	0.079590	0.326416	0.120964	-0.002651	0.008332	0.044504	-0.656446	-0.017663	-0.752852	-13.032021	-81.884493	-161.916392
59463		12.268614	0.298260	0.976393	-0.637782	-0.730472	2.460069	0.169393	-0.340839	-0.326231	-0.996338	0.072998	0.329102	0.122674	0.002774	0.009975	0.043726	-0.657663	-0.019269	-0.751796	-12.005456	-82.113090	-162.876332
59464		12.258795	0.576713	1.253376	-0.301291	-0.942190	2.483771	0.136929	-0.289085	-0.267104	-0.998779	0.075195	0.335693	0.122577	0.005595	0.012715	0.043153	-0.658717	-0.020716	-0.750867	-11.089994	-82.309290	-163.721422
59465		12.104236	0.736564	1.171820	-0.318325	-1.070973	2.319080	0.093476	-0.223957	-0.213222	-0.998535	0.068604	0.340576	0.121037	0.007231	0.011857	0.042575	-0.659522	-0.021664	-0.750166	-10.381195	-82.456866	-164.400516
59466		11.776946	0.608070	1.313537	-0.128304	-0.894764	2.018393	0.037827	-0.135366	-0.150538	-0.994141	0.072998	0.333496	0.117765	0.005990	0.013216	0.042128	-0.660029	-0.022322	-0.749726	-9.834339	-82.551686	-164.930526
59467		11.406984	0.399438	1.365536	-0.040128	-0.655477	1.663908	0.065585	-0.049384	-0.097489	-0.998535	0.068604	0.333984	0.114068	0.003934	0.013685	0.041920	-0.660203	-0.022761	-0.749571	-9.472865	-82.588917	-165.273276
59468		10.944656	0.210982	1.254330	-0.109412	-0.452734	1.195782	0.083093	0.044106	-0.066674	-0.998535	0.070801	0.335938	0.109450	0.002068	0.012520	0.041957	-0.660037	-0.023274	-0.749700	-9.120870	-82.573503	-165.580541
59469		10.472625	0.007054	0.978504	-0.352610	-0.253238	0.696590	0.077883	0.148621	-0.075601	-0.996338	0.070801	0.333740	0.104734	0.000027	0.009707	0.041907	-0.659460	-0.023661	-0.750197	-8.706696	-82.495176	-165.967058
59470		10.133578	-0.019718	0.710195	-0.595310	-0.232694	0.325635	0.091726	0.202346	-0.094730	-1.000732	0.070801	0.333740	0.101343	-0.000248	0.006999	0.041886	-0.658695	-0.024266	-0.750852	-8.137189	-82.391811	-166.488851
59471		9.797456	-0.092865	0.619028	-0.671653	-0.151747	-0.019437	0.094574	0.246314	-0.081695	-1.005371	0.070557	0.335938	0.097982	-0.000972	0.006069	0.041873	-0.657759	-0.024704	-0.751658	-7.657315	-82.259471	-166.933789
59472		9.573663	-0.191455	0.594513	-0.700838	-0.043971	-0.244408	0.094272	0.267330	-0.065121	-1.007324	0.068359	0.324951	0.095744	-0.001948	0.005816	0.041978	-0.656750	-0.025206	-0.752517	-7.204156	-82.115816	-167.336988
59473		9.406614	-0.216222	0.526728	-0.772225	-0.018043	-0.420569	0.125623	0.248098	-0.046895	-1.004883	0.063965	0.325195	0.094072	-0.002188	0.005149	0.042203	-0.655808	-0.025659	-0.753311	-6.872637	-81.980020	-167.612959
59474		9.188597	-0.168195	0.452834	-0.833292	-0.065151	-0.649445	0.141702	0.241962	-0.014491	-1.005371	0.070557	0.322510	0.091891	-0.001692	0.004416	0.042652	-0.654888	-0.026180	-0.754067	-6.632820	-81.846745	-167.773496
59475		9.297168	0.054899	0.410136	-0.888323	-0.295497	-0.553525	0.159564	0.201442	-0.010395	-1.004883	0.063965	0.320801	0.092976	0.000541	0.004008	0.043127	-0.654122	-0.026669	-0.754687	-6.458273	-81.735802	-167.869211
59476		9.350684	0.033151	0.345363	-0.977996	-0.282041	-0.511095	0.186772	0.160275	-0.008791	-1.011963	0.070313	0.315918	0.093510	0.000324	0.003379	0.043734	-0.653500	-0.027358	-0.755167	-6.260920	-81.648525	-167.960831
59477		9.559761	0.053343	0.390536	-0.973531	-0.304352	-0.299329	0.252140	0.118958	-0.010642	-1.005127	0.070557	0.315918	0.095600	0.000523	0.003849	0.044508	-0.653026	-0.028231	-0.755499	-6.069663	-81.585102	-168.017859
59478		9.863048	0.171732	0.576830	-0.830123	-0.411506	0.025173	0.335184	0.081133	-0.004306	-1.009766	0.070557	0.320313	0.098633	0.001706	0.005731	0.045605	-0.652668	-0.029483	-0.755695	-5.841768	-81.542562	-168.054426
59479		10.213697	0.286338	0.787401	-0.667781	-0.512896	0.400667	0.393291	0.086705	-0.005551	-1.011963	0.068115	0.313721	0.102140	0.002845	0.007835	0.046851	-0.652297	-0.030872	-0.755884	-5.609857	-81.499500	-168.071823
59480		10.430450	0.436914	0.886752	-0.595773	-0.656735	0.626912	0.422371	0.162506	0.009695	-1.005371	0.072754	0.308838	0.104311	0.004356	0.008792	0.048297	-0.651609	-0.032389	-0.756323	-5.358331	-81.409744	-168.081784
59481		10.245453	0.184598	0.987387	-0.520011	-0.391519	0.461287	0.432853	0.292532	0.051575	-1.007813	0.079346	0.301758	0.102468	0.001851	0.009728	0.049940	-0.650445	-0.033729	-0.757159	-5.235928	-81.245357	-167.960644
59482		10.088708	0.226736	1.099442	-0.411483	-0.421905	0.321157	0.485381	0.335021	0.095484	-1.008057	0.081543	0.301758	0.100904	0.002289	0.010831	0.051944	-0.649093	-0.035163	-0.758119	-5.207837	-81.052680	-167.707952
59483		10.209761	0.359840	1.269647	-0.276289	-0.546630	0.463766	0.526010	0.314950	0.107270	-1.007568	0.074951	0.299805	0.102116	0.003620	0.012545	0.054089	-0.647819	-0.036632	-0.758988	-5.234233	-80.872108	-167.386301
59484		10.243210	0.331981	1.363927	-0.222437	-0.516697	0.510942	0.521208	0.325953	0.109443	-1.010254	0.081543	0.292725	0.102452	0.003341	0.013481	0.056259	-0.646483	-0.038158	-0.759894	-5.227271	-80.683858	-167.091142
59485		10.201950	0.213208	1.508154	-0.123359	-0.386684	0.494345	0.512053	0.370577	0.096300	-1.008057	0.085938	0.288086	0.102046	0.002143	0.014898	0.058358	-0.644992	-0.039671	-0.760925	-5.168393	-80.473924	-166.854503
59486		10.113099	0.221036	1.560724	-0.094706	-0.390594	0.414619	0.530088	0.417534	0.079844	-1.008301	0.090332	0.278809	0.101162	0.002210	0.015402	0.060461	-0.643285	-0.041299	-0.762117	-5.019119	-80.235026	-166.698180
59487		9.897560	0.203433	1.566956	-0.097595	-0.369615	0.202907	0.525671	0.459518	0.060048	-1.010742	0.092529	0.276367	0.099011	0.002023	0.015447	0.062468	-0.641422	-0.042914	-0.763436	-4.814785	-79.974460	-166.605436
59488		9.748791	0.143379	1.667665	-0.026803	-0.292455	0.074384	0.527245	0.443133	0.032261	-1.005859	0.088135	0.272217	0.097524	0.001406	0.016464	0.064384	-0.639593	-0.044676	-0.764708	-4.510957	-79.723349	-166.607534
59489		9.710228	0.143071	1.696207	-0.033671	-0.286491	0.041386	0.520376	0.419125	0.010359	-1.006104	0.090332	0.260742	0.097137	0.001392	0.016762	0.066185	-0.637864	-0.046470	-0.765891	-4.166166	-79.489183	-166.657286
59490		9.593978	0.140692	1.682292	-0.067350	-0.280395	-0.075593	0.517378	0.419250	0.010192	-1.006348	0.096924	0.258057	0.095975	0.001369	0.016625	0.067978	-0.636111	-0.048270	-0.767080	-3.821577	-79.252609	-166.706612
59491		9.401068	0.207001	1.676618	-0.066459	-0.337460	-0.267241	0.510807	0.417899	0.002579	-1.004150	0.099365	0.260254	0.094045	0.002029	0.016575	0.069717	-0.634358	-0.050051	-0.768261	-3.474722	-79.016870	-166.764076
59492		9.300275	0.236798	1.743751	-0.015956	-0.349529	-0.353865	0.502011	0.404062	-0.000346	-1.008789	0.103516	0.248779	0.093038	0.002324	0.017255	0.071416	-0.632652	-0.051831	-0.769392	-3.127446	-78.789215	-166.825188
59493		9.298978	0.348252	1.845075	0.065669	-0.440513	-0.336502	0.475284	0.392019	0.000490	-1.006348	0.099121	0.244629	0.093026	0.003439	0.018277	0.073007	-0.631023	-0.053442	-0.770470	-2.831170	-78.571217	-166.857708
59494		9.272419	0.511317	1.928992	0.145338	-0.583722	-0.347052	0.428950	0.397308	0.010151	-1.010986	0.103516	0.233154	0.092762	0.005077	0.019117	0.074513	-0.629361	-0.054909	-0.771581	-2.570223	-78.347031	-166.873519
59495		9.217526	0.638475	2.051560	0.261993	-0.684462	-0.376475	0.388190	0.397179	0.015002	-1.011230	0.105713	0.237305	0.092215	0.006352	0.020345	0.075905	-0.627700	-0.056178	-0.772707	-2.358831	-78.120809	-166.865061
59496		9.086732	0.704083	2.202984	0.410641	-0.716565	-0.472700	0.322223	0.413002	0.027126	-1.009033	0.110107	0.228027	0.090912	0.007018	0.021853	0.077144	-0.626012	-0.057172	-0.773879	-2.211380	-77.887200	-166.827377
59497		8.909548	0.625111	2.228645	0.419068	-0.630079	-0.638543	0.248810	0.447583	0.025493	-1.010986	0.105713	0.219482	0.089144	0.006235	0.022095	0.078139	-0.624219	-0.057811	-0.775179	-2.120190	-77.633538	-166.782173
59498		8.703871	0.437079	2.247414	0.403785	-0.437174	-0.832433	0.191475	0.473488	0.020193	-1.013428	0.105469	0.217285	0.087091	0.004358	0.022272	0.078959	-0.622338	-0.058297	-0.776571	-2.026572	-77.365451	-166.765991
59499		8.475768	0.256116	2.181740	0.312632	-0.266248	-1.066519	0.163418	0.481039	0.004079	-1.013428	0.109863	0.212402	0.084810	0.002545	0.021616	0.079640	-0.620398	-0.058724	-0.778020	-1.908227	-77.088859	-166.790444
59500		8.242851	0.220872	2.176314	0.311582	-0.225502	-1.293201	0.148346	0.459742	-0.006135	-1.020264	0.107666	0.205811	0.082478	0.002190	0.021575	0.080219	-0.618571	-0.059129	-0.779383	-1.779306	-76.829101	-166.835822
59501		8.078698	0.204699	2.263246	0.390579	-0.188698	-1.431680	0.127239	0.425020	-0.010100	-1.020264	0.109863	0.196777	0.080835	0.002029	0.022462	0.080708	-0.616853	-0.059457	-0.780669	-1.664016	-76.584421	-166.881210
59502		8.032665	0.244119	2.313718	0.424552	-0.218010	-1.463511	0.093734	0.364995	-0.025392	-1.022461	0.109619	0.201416	0.080369	0.002420	0.022992	0.081015	-0.615406	-0.059746	-0.781756	-1.533114	-76.379150	-166.960884
59503		8.037781	0.265154	2.303786	0.389299	-0.242234	-1.459642	0.061774	0.309370	-0.049937	-1.022217	0.105225	0.194824	0.080414	0.002624	0.022914	0.081113	-0.614134	-0.059987	-0.782727	-1.374303	-76.198922	-167.089724
59504		8.119404	0.292334	2.335388	0.381431	-0.266036	-1.371839	0.043935	0.269523	-0.072849	-1.010986	0.105469	0.190186	0.081226	0.002889	0.023245	0.081052	-0.613063	-0.060265	-0.783552	-1.173667	-76.048786	-167.270724
59505		8.215214	0.255165	2.454293	0.441222	-0.208556	-1.248799	0.039811	0.244957	-0.088849	-1.024902	0.114014	0.192139	0.082183	0.002510	0.024443	0.080926	-0.612039	-0.060618	-0.784337	-0.933947	-75.906764	-167.489965
59506		8.378711	0.192187	2.568165	0.476490	-0.128465	-1.061024	0.052636	0.229254	-0.108940	-1.024658	0.109619	0.187744	0.083817	0.001869	0.025586	0.080738	-0.611109	-0.061057	-0.785048	-0.656219	-75.779579	-167.745544
59507		8.517347	0.127559	2.735697	0.567853	-0.034035	-0.883978	0.063693	0.211940	-0.119537	-1.020020	0.105225	0.187988	0.085203	0.001216	0.027267	0.080529	-0.610206	-0.061501	-0.785736	-0.377259	-75.656347	-168.003670
59508		8.629082	0.114157	2.849998	0.626146	0.004087	-0.746020	0.079281	0.206667	-0.129505	-1.026611	0.102783	0.181641	0.086321	0.001074	0.028411	0.080334	-0.609346	-0.062116	-0.786375	-0.048168	-75.541480	-168.296769
59509		8.677744	0.057953	2.955673	0.680384	0.086809	-0.670910	0.085585	0.231503	-0.138200	-1.024414	0.100586	0.174805	0.086812	0.000507	0.029456	0.080146	-0.608338	-0.062785	-0.787121	0.301792	-75.405912	-168.605433
59510		8.679765	-0.049805	3.105123	0.775285	0.231511	-0.629668	0.094869	0.257186	-0.143033	-1.024170	0.098389	0.175049	0.086837	-0.000575	0.030939	0.079961	-0.607265	-0.063482	-0.787912	0.657785	-75.261120	-168.917450
59511		8.618634	-0.069795	3.256177	0.900027	0.294437	-0.647994	0.121391	0.289582	-0.145851	-1.021973	0.098389	0.163818	0.086233	-0.000781	0.032436	0.079870	-0.605956	-0.064316	-0.788861	1.041359	-75.083956	-169.237669
59512		8.577094	-0.116309	3.340918	0.950715	0.368982	-0.663824	0.144380	0.325593	-0.135283	-1.024170	0.096191	0.166260	0.085824	-0.001245	0.033269	0.079887	-0.604593	-0.065157	-0.789836	1.391914	-74.898987	-169.515172
59513		8.528061	-0.064708	3.387148	0.981682	0.339581	-0.695360	0.151188	0.343615	-0.132173	-1.028320	0.091553	0.164307	0.085338	-0.000729	0.033724	0.079945	-0.603021	-0.066024	-0.790958	1.741467	-74.684490	-169.785749
59514		8.562265	0.004061	3.375627	0.942501	0.277460	-0.661630	0.151024	0.344954	-0.124095	-1.026367	0.096191	0.161621	0.085681	-0.000038	0.033609	0.080032	-0.601577	-0.066849	-0.791979	2.055867	-74.487695	-170.022322
59515		8.516391	0.059598	3.490518	1.039077	0.257674	-0.671024	0.171202	0.335471	-0.113472	-1.026367	0.095947	0.157227	0.085223	0.000518	0.034763	0.080226	-0.600070	-0.067770	-0.793024	2.370458	-74.283442	-170.242291
59516		8.585722	0.116880	3.650178	1.150210	0.239305	-0.556785	0.169879	0.331451	-0.097987	-1.028564	0.093750	0.157471	0.085918	0.001096	0.036360	0.080468	-0.598675	-0.068596	-0.793982	2.630789	-74.094309	-170.411897
59517		8.663285	0.155273	3.723403	1.172913	0.219713	-0.457675	0.160846	0.313059	-0.072041	-1.026367	0.095947	0.152832	0.086692	0.001492	0.037100	0.080783	-0.597287	-0.069311	-0.794933	2.831161	-73.905172	-170.524695
59518		8.776148	0.125233	3.763599	1.144427	0.256896	-0.335063	0.150864	0.282423	-0.044600	-1.026123	0.091553	0.148438	0.087815	0.001204	0.037513	0.081164	-0.596108	-0.069921	-0.795725	2.971711	-73.745270	-170.581225
59519		8.972768	0.081899	3.764323	1.053765	0.292793	-0.143603	0.148145	0.248015	-0.019470	-1.021729	0.091553	0.144043	0.089774	0.000782	0.037533	0.081623	-0.594995	-0.070450	-0.796464	3.062828	-73.594237	-170.588652
59520		9.195193	0.011796	3.730149	0.921102	0.345429	0.061417	0.165949	0.230257	-0.002482	-1.023682	0.087158	0.142090	0.091995	0.000086	0.037196	0.082197	-0.594030	-0.071016	-0.797075	3.133060	-73.465379	-170.562918
59521		9.359726	0.036110	3.795111	0.914916	0.330445	0.240288	0.210190	0.227574	-0.001197	-1.030762	0.093750	0.146240	0.093640	0.000321	0.037845	0.082892	-0.592950	-0.071804	-0.797737	3.248158	-73.323350	-170.553545
59522		9.523243	0.170198	3.956004	1.024202	0.229136	0.447408	0.230614	0.232453	0.004719	-1.024170	0.098145	0.134766	0.095278	0.001659	0.039451	0.083687	-0.591949	-0.072605	-0.798324	3.340540	-73.193429	-170.512219
59523		9.632211	0.212042	4.040621	1.054549	0.202401	0.579520	0.221160	0.241557	0.022326	-1.028564	0.095947	0.132568	0.096371	0.002087	0.040292	0.084529	-0.590837	-0.073269	-0.798999	3.381247	-73.046515	-170.426377
59524		9.641648	0.245060	4.164586	1.149736	0.196748	0.627837	0.218361	0.244020	0.042680	-1.026367	0.098145	0.132324	0.096467	0.002426	0.041531	0.085443	-0.589805	-0.073904	-0.799605	3.394317	-72.911235	-170.309371
59525		9.717857	0.246645	4.254319	1.183887	0.208063	0.730171	0.209576	0.237858	0.060835	-1.030762	0.095703	0.125977	0.097228	0.002452	0.042430	0.086399	-0.588682	-0.074404	-0.800283	3.359204	-72.761804	-170.151523
59526		9.777443	0.359243	4.350916	1.258814	0.113087	0.820303	0.189742	0.220184	0.076054	-1.024170	0.098145	0.123535	0.097821	0.003588	0.043405	0.087354	-0.587766	-0.074836	-0.800812	3.299385	-72.641158	-169.975158
59527		9.888228	0.421111	4.415766	1.273926	0.054705	0.949629	0.157724	0.233578	0.090738	-1.021973	0.102539	0.120850	0.098932	0.004221	0.044045	0.088265	-0.586649	-0.075071	-0.801509	3.196711	-72.489343	-169.775128
59528		9.743116	0.494784	4.347491	1.247938	-0.031984	0.794639	0.177353	0.235111	0.095531	-1.021973	0.102539	0.114258	0.097480	0.004956	0.043365	0.089267	-0.585683	-0.075389	-0.802075	3.097134	-72.360497	-169.564224
59529		9.819907	0.494851	4.470880	1.312774	-0.017147	0.908343	0.166355	0.217271	0.079639	-1.020020	0.104980	0.118652	0.098246	0.004950	0.044606	0.090176	-0.584600	-0.075636	-0.802739	3.002215	-72.213924	-169.371154
59530		9.807707	0.462233	4.476083	1.293819	0.009985	0.900202	0.141779	0.194795	0.088638	-1.022217	0.104736	0.107422	0.098119	0.004634	0.044669	0.091030	-0.583805	-0.075850	-0.803201	2.902587	-72.107611	-169.181272
59531		9.891848	0.524719	4.661575	1.429885	-0.025406	1.041298	0.047615	0.224112	0.092418	-1.024414	0.104736	0.109619	0.098968	0.005282	0.046506	0.091651	-0.582751	-0.075580	-0.803921	2.720716	-71.957241	-168.967516
59532		9.762562	0.474900	4.552821	1.333994	-0.009075	0.886921	-0.005397	0.270912	0.106275	-1.020020	0.107178	0.104980	0.097685	0.004802	0.045396	0.092176	-0.581722	-0.075116	-0.804650	2.504579	-71.807366	-168.743445
59533		9.662725	0.573466	4.570549	1.372842	-0.114002	0.802832	-0.032593	0.289117	0.093122	-1.022461	0.111572	0.102539	0.096690	0.005787	0.045565	0.092582	-0.580416	-0.074513	-0.805602	2.286664	-71.616128	-168.538091
59534		9.494244	0.567868	4.582968	1.407525	-0.113145	0.650234	-0.066832	0.304868	0.082520	-1.020264	0.115967	0.099854	0.095010	0.005733	0.045683	0.092846	-0.579265	-0.073855	-0.806459	2.081421	-71.445649	-168.362139
59535		9.358127	0.605304	4.660258	1.496918	-0.145405	0.550562	-0.094408	0.302181	0.068534	-1.015625	0.111572	0.100098	0.093649	0.006107	0.046458	0.093063	-0.577919	-0.072996	-0.807478	1.839357	-71.244614	-168.169158
59536		9.589206	0.620106	4.820999	1.551480	-0.157005	0.824400	-0.148802	0.221624	0.057942	-1.022217	0.106934	0.095947	0.095944	0.006265	0.048099	0.092961	-0.577130	-0.072116	-0.808133	1.639608	-71.120830	-168.048221
59537		10.047550	0.598868	4.993729	1.541539	-0.148847	1.316135	-0.238944	0.100973	0.044480	-1.022461	0.111328	0.093506	0.100499	0.006071	0.049879	0.092495	-0.576691	-0.070903	-0.808607	1.407965	-71.040612	-167.953904
59538		10.567795	0.319253	5.111935	1.416906	0.092343	1.844752	-0.374518	0.031788	0.042088	-1.015625	0.109375	0.098145	0.105685	0.003310	0.051096	0.091610	-0.576765	-0.069244	-0.808798	1.116164	-71.024956	-167.872252
59539		10.353317	-0.105281	4.790421	1.086288	0.420545	1.536032	-0.500187	0.099798	0.052590	-1.017822	0.111572	0.104736	0.103557	-0.000906	0.047855	0.090437	-0.576437	-0.066950	-0.809357	0.721460	-70.943383	-167.762618
59540		9.412058	-0.271332	4.536917	1.109047	0.563390	0.565010	-0.520939	0.176830	0.021792	-1.008789	0.107178	0.093750	0.094161	-0.002585	0.045293	0.089096	-0.575976	-0.064690	-0.810017	0.378096	-70.844089	-167.715092
59541		8.727491	-0.147226	4.552236	1.361161	0.466446	-0.073938	-0.521078	0.085107	-0.036884	-1.015625	0.109375	0.100342	0.087294	-0.001370	0.045489	0.087470	-0.575772	-0.062567	-0.810507	0.121217	-70.783101	-167.767111
59542		8.545074	-0.052986	4.281936	1.196849	0.315555	-0.335134	-0.577366	-0.120715	-0.119615	-1.008789	0.107178	0.102539	0.085425	-0.000457	0.042872	0.085299	-0.576488	-0.060615	-0.810378	-0.018556	-70.854053	-167.969338
59543		8.800614	0.079095	3.769483	0.690114	0.062382	-0.263560	-0.623359	-0.317868	-0.236615	-1.013184	0.102783	0.116455	0.087947	0.000805	0.037832	0.082458	-0.577924	-0.058815	-0.809781	-0.009535	-71.029018	-168.364735
59544		9.488483	0.273118	3.256296	0.069729	-0.258600	0.219135	-0.625379	-0.444781	-0.348764	-1.008301	0.098389	0.114502	0.094817	0.002668	0.032765	0.079122	-0.579889	-0.057464	-0.808805	0.212632	-71.285357	-168.978041
59545		10.207310	0.401566	2.927487	-0.395257	-0.464497	0.796197	-0.616043	-0.457053	-0.390038	-1.010498	0.093994	0.119141	0.102014	0.003907	0.029496	0.075603	-0.581939	-0.056218	-0.807756	0.512128	-71.555559	-169.674867
59546		10.806463	0.362301	2.849377	-0.624292	-0.445085	1.342663	-0.614341	-0.365842	-0.360237	-1.010254	0.089600	0.121582	0.108019	0.003516	0.028680	0.072272	-0.583558	-0.054913	-0.806983	0.783290	-71.764784	-170.331321
59547		11.051055	0.203147	2.735984	-0.806664	-0.298765	1.541283	-0.595579	-0.239926	-0.272013	-1.012451	0.087158	0.124023	0.110480	0.001963	0.027486	0.069357	-0.584641	-0.053331	-0.806561	0.909303	-71.896143	-170.829693
59548		10.959672	0.098683	2.688226	-0.823504	-0.188608	1.440621	-0.586382	-0.116892	-0.161523	-1.014404	0.082764	0.122070	0.109582	0.000977	0.026943	0.066975	-0.585285	-0.051469	-0.806416	0.853353	-71.963664	-171.124194
59549		10.786701	0.024620	2.770776	-0.698509	-0.096229	1.301877	-0.580267	-0.052930	-0.076234	-1.014404	0.080566	0.128906	0.107860	0.000286	0.027736	0.064953	-0.585585	-0.049329	-0.806498	0.647701	-71.980873	-171.261376
59550		10.517470	-0.011664	2.823704	-0.565817	-0.051378	1.062413	-0.583672	-0.024651	0.003296	-1.014404	0.078369	0.129150	0.105171	-0.000032	0.028250	0.063267	-0.585886	-0.046964	-0.806554	0.300983	-71.996940	-171.248389
59551		10.279863	-0.018664	2.912373	-0.406893	-0.039582	0.863954	-0.598777	-0.003542	0.065666	-1.012451	0.087158	0.126221	0.102798	-0.000066	0.029126	0.061733	-0.586081	-0.044352	-0.806679	-0.149360	-71.995925	-171.139104
59552		10.246279	-0.272578	3.001027	-0.346081	0.197854	0.860067	-0.634390	-0.000888	0.125483	-1.008057	0.089600	0.128418	0.102464	-0.002566	0.030019	0.060395	-0.586320	-0.041416	-0.806763	-0.740977	-71.997777	-170.899170
59553		10.385282	-0.621564	2.927746	-0.501193	0.488598	0.972584	-0.656377	-0.016051	0.184591	-1.008057	0.091797	0.128174	0.103856	-0.006024	0.029306	0.059345	-0.586559	-0.038143	-0.806828	-1.495667	-71.995453	-170.500006
59554		10.531634	-1.176847	2.849618	-0.685907	0.980880	1.095468	-0.656188	0.007615	0.227724	-1.008057	0.089600	0.123779	0.105331	-0.011555	0.028530	0.058356	-0.586777	-0.034816	-0.806892	-2.279638	-71.988615	-170.070913
59555		10.677327	-1.574174	2.838615	-0.786368	1.320655	1.240747	-0.570448	0.037571	0.241694	-1.010498	0.091797	0.130615	0.106797	-0.015532	0.028411	0.057769	-0.586743	-0.031694	-0.807088	-3.076572	-71.946647	-169.578453
59556		10.897216	-1.778287	2.900086	-0.816531	1.477109	1.477725	-0.490527	0.095055	0.231092	-1.008301	0.093994	0.134766	0.109006	-0.017586	0.028992	0.057295	-0.586549	-0.028998	-0.807364	-3.760056	-71.886092	-169.155012
59557		10.781023	-1.752402	2.823145	-0.853810	1.409525	1.347763	-0.403316	0.172105	0.208017	-1.003662	0.094238	0.128174	0.107853	-0.017355	0.028174	0.057049	-0.586011	-0.026627	-0.807854	-4.372945	-71.779458	-168.756184
59558		10.414079	-1.532089	2.763759	-0.784397	1.175333	0.978138	-0.255830	0.242954	0.163260	-1.001465	0.096436	0.130127	0.104187	-0.015201	0.027531	0.057008	-0.585137	-0.025035	-0.808541	-4.775790	-71.634913	-168.486171
59559		9.936241	-1.135050	2.595027	-0.769385	0.770633	0.461820	-0.133755	0.260722	0.081781	-1.003906	0.098633	0.123291	0.099401	-0.011293	0.025828	0.057006	-0.584140	-0.024074	-0.809290	-4.991422	-71.481837	-168.348338
59560		9.337682	-0.811564	2.355880	-0.792535	0.452940	-0.191471	-0.058033	0.241755	0.002672	-1.001465	0.094238	0.132568	0.093405	-0.008108	0.023448	0.056894	-0.583192	-0.023751	-0.809991	-5.001160	-71.345385	-168.373028
59561		8.829434	-0.847630	1.997677	-0.993611	0.481264	-0.787767	-0.025557	0.187893	-0.047643	-1.006104	0.098633	0.123291	0.088311	-0.008495	0.019895	0.056667	-0.582478	-0.023642	-0.810524	-4.940586	-71.245332	-168.460375
59562		8.563789	-0.766439	1.701279	-1.190694	0.390399	-1.138006	0.018630	0.067125	-0.075413	-0.994873	0.096436	0.118896	0.085641	-0.007698	0.016983	0.056441	-0.582205	-0.023907	-0.810728	-4.801474	-71.212396	-168.595911
59563		8.543437	-0.669576	1.427213	-1.431222	0.272827	-1.248066	0.001188	-0.073429	-0.094233	-0.994629	0.094238	0.123535	0.085426	-0.006736	0.014303	0.056072	-0.582486	-0.024100	-0.810546	-4.686402	-71.256450	-168.725826
59564		8.641568	-0.674275	1.155631	-1.707363	0.252571	-1.240178	-0.020774	-0.196700	-0.109389	-0.999512	0.098633	0.123291	0.086401	-0.006789	0.011642	0.055563	-0.583290	-0.024379	-0.809995	-4.548368	-71.375559	-168.883979
59565		8.827525	-0.530297	1.015903	-1.860364	0.094202	-1.108172	-0.010899	-0.282980	-0.110403	-0.997070	0.096436	0.130127	0.088258	-0.005351	0.010284	0.055059	-0.584426	-0.024645	-0.809202	-4.432526	-71.541109	-169.020974
59566		9.058495	-0.360184	0.886277	-2.007786	-0.089087	-0.928301	-0.030720	-0.339787	-0.125031	-0.994629	0.092041	0.125977	0.090567	-0.003657	0.009017	0.054440	-0.585807	-0.024968	-0.808234	-4.287657	-71.742420	-169.192030
59567		9.374407	-0.200230	0.853297	-2.086789	-0.256119	-0.635143	-0.055892	-0.368545	-0.123795	-0.999023	0.092041	0.130371	0.093727	-0.002058	0.008706	0.053730	-0.587290	-0.025135	-0.807200	-4.171655	-71.956604	-169.354544
59568		9.673156	-0.058507	0.783571	-2.195173	-0.407991	-0.368005	-0.095692	-0.338165	-0.098850	-0.999023	0.087646	0.135254	0.096718	-0.000629	0.008000	0.053026	-0.588682	-0.025118	-0.806233	-4.103612	-72.155692	-169.483571
59569		9.770457	0.026931	0.839550	-2.132808	-0.482963	-0.253127	-0.130536	-0.292680	-0.062217	-0.996338	0.080811	0.133301	0.097692	0.000244	0.008538	0.052350	-0.589882	-0.024803	-0.805409	-4.118739	-72.324063	-169.551299
59570		9.731589	-0.000617	0.968116	-1.976115	-0.435245	-0.244691	-0.170053	-0.261263	-0.020814	-0.996826	0.087646	0.139648	0.097303	-0.000008	0.009808	0.051751	-0.590989	-0.024236	-0.804653	-4.221575	-72.475969	-169.545507
59571		9.644942	-0.054815	0.979048	-1.922071	-0.375231	-0.317887	-0.197696	-0.239409	0.021447	-1.001221	0.085449	0.142090	0.096438	-0.000528	0.009906	0.051219	-0.592009	-0.023401	-0.803961	-4.417461	-72.611922	-169.462969
59572		9.460045	-0.125908	1.064195	-1.772418	-0.290326	-0.463087	-0.239232	-0.210506	0.059754	-0.994141	0.078857	0.144775	0.094590	-0.001218	0.010743	0.050745	-0.592937	-0.022304	-0.803339	-4.703404	-72.731148	-169.306897
59573		9.410228	-0.285673	1.195521	-1.628723	-0.124122	-0.464154	-0.288319	-0.211294	0.081448	-1.003662	0.089844	0.150879	0.094091	-0.002801	0.012059	0.050196	-0.593886	-0.020926	-0.802709	-5.063517	-72.850062	-169.105910
59574		9.594365	-0.457748	1.522942	-1.363984	0.057935	-0.183729	-0.302775	-0.258676	0.071272	-0.999268	0.092041	0.148438	0.095925	-0.004520	0.015360	0.049574	-0.595021	-0.019552	-0.801942	-5.422407	-72.995607	-168.911827
59575		9.786215	-0.504385	1.677818	-1.247466	0.098714	0.050045	-0.305259	-0.272173	0.050213	-1.003662	0.089844	0.153076	0.097840	-0.004994	0.016919	0.048856	-0.596219	-0.018203	-0.801127	-5.760543	-73.151238	-168.744403
59576		9.786519	-0.447019	1.741707	-1.153922	0.039806	0.070437	-0.288316	-0.224254	0.041084	-0.999023	0.085449	0.166748	0.097846	-0.004425	0.017533	0.048159	-0.597204	-0.016968	-0.800462	-6.056421	-73.278275	-168.607782
59577		9.587742	-0.345332	1.718853	-1.088931	-0.060053	-0.127177	-0.270953	-0.143102	0.051366	-1.003418	0.085449	0.164551	0.095866	-0.003405	0.017262	0.047553	-0.597886	-0.015731	-0.800015	-6.355042	-73.361690	-168.460861
59578		9.234136	-0.273949	1.811754	-0.880373	-0.112794	-0.440443	-0.235191	-0.105111	0.074915	-1.005859	0.087646	0.166748	0.092333	-0.002684	0.018169	0.047160	-0.598382	-0.014579	-0.799689	-6.665037	-73.418293	-168.277873
59579		9.082040	-0.151638	1.847453	-0.777631	-0.233821	-0.579047	-0.211156	-0.158847	0.091421	-1.001221	0.085449	0.168945	0.090806	-0.001455	0.018548	0.046891	-0.599117	-0.013469	-0.799173	-7.012695	-73.508249	-168.043737
59580		9.086844	-0.295523	1.838830	-0.779978	-0.103044	-0.570376	-0.235969	-0.241119	0.099664	-1.003418	0.085449	0.171143	0.090848	-0.002888	0.018501	0.046585	-0.600156	-0.012272	-0.798431	-7.408450	-73.639750	-167.771982
59581		9.254882	-0.483626	1.761723	-0.889543	0.057187	-0.421427	-0.236852	-0.280045	0.090848	-1.001465	0.092285	0.182129	0.092526	-0.004773	0.017752	0.046228	-0.601382	-0.011097	-0.797546	-7.806846	-73.798265	-167.500068
59582		9.458948	-0.509211	1.775944	-0.905158	0.061198	-0.217801	-0.209732	-0.275201	0.083381	-1.006104	0.094238	0.181885	0.094567	-0.005034	0.017895	0.045933	-0.602545	-0.010061	-0.796698	-8.176294	-73.949352	-167.240467
59583		9.652470	-0.526635	1.844704	-0.865137	0.061130	-0.009719	-0.209661	-0.225024	0.084985	-1.005859	0.092041	0.182129	0.096506	-0.005206	0.018561	0.045647	-0.603560	-0.008982	-0.795959	-8.554028	-74.078485	-166.975199
59584		9.731629	-0.509109	1.857757	-0.851462	0.028379	0.071099	-0.216617	-0.152651	0.091303	-1.003662	0.092285	0.184326	0.097304	-0.005026	0.018657	0.045369	-0.604235	-0.007867	-0.795475	-8.916674	-74.158552	-166.727088
59585		9.662247	-0.395596	1.858684	-0.808887	-0.093991	0.000929	-0.236377	-0.062744	0.111875	-0.999268	0.094482	0.188721	0.096619	-0.003880	0.018622	0.045111	-0.604597	-0.006570	-0.795226	-9.315637	-74.190958	-166.455581
59586		9.538122	-0.269798	1.887148	-0.731367	-0.225943	-0.116095	-0.260103	-0.037963	0.135193	-1.003906	0.094482	0.186523	0.095379	-0.002609	0.018893	0.044880	-0.604824	-0.005123	-0.795077	-9.757540	-74.201109	-166.151091
59587		9.469913	-0.165155	1.930176	-0.656181	-0.343866	-0.175092	-0.301172	-0.043511	0.185230	-1.006104	0.092285	0.195557	0.094696	-0.001535	0.019325	0.044722	-0.605136	-0.003342	-0.794858	-10.337726	-74.215845	-165.729653
59588		9.393303	-0.287235	1.990514	-0.578646	-0.239268	-0.226935	-0.342794	-0.073252	0.228581	-1.006348	0.098877	0.195068	0.093929	-0.002731	0.019944	0.044611	-0.605520	-0.001292	-0.794577	-11.027662	-74.234302	-165.216700
59589		9.504527	-0.314577	1.921961	-0.661291	-0.251921	-0.136527	-0.375302	-0.121820	0.231067	-1.008545	0.098877	0.197510	0.095037	-0.003000	0.019283	0.044410	-0.606177	0.000886	-0.794088	-11.772309	-74.288556	-164.666999
59590		9.591857	-0.356207	1.938210	-0.656599	-0.244655	-0.045589	-0.398709	-0.111110	0.225340	-1.006348	0.101074	0.199463	0.095912	-0.003415	0.019442	0.044116	-0.606718	0.003140	-0.793686	-12.508303	-74.325088	-164.139693
59591		9.673031	-0.494244	2.034448	-0.578970	-0.137391	0.066413	-0.425523	-0.083297	0.210556	-1.004395	0.105713	0.206055	0.096727	-0.004797	0.020395	0.043682	-0.607227	0.005466	-0.793308	-13.232346	-74.356574	-163.641591
59592		9.638984	-0.724057	2.078555	-0.531063	0.068105	0.059897	-0.450135	-0.050188	0.184369	-1.006592	0.105469	0.199219	0.096391	-0.007105	0.020826	0.043067	-0.607532	0.007813	-0.793088	-13.891959	-74.361158	-163.224338
59593		9.528466	-0.786592	2.177088	-0.398521	0.115951	-0.015862	-0.450705	-0.065918	0.171708	-1.008789	0.105469	0.201416	0.095284	-0.007735	0.021820	0.042408	-0.607981	0.010142	-0.792753	-14.556336	-74.386230	-162.804478
59594		9.507086	-0.830994	2.286886	-0.276649	0.139966	-0.004074	-0.455408	-0.095765	0.160658	-1.006836	0.110107	0.208008	0.095066	-0.008181	0.022933	0.041684	-0.608462	0.012428	-0.792390	-15.197460	-74.416989	-162.409645
59595		9.514555	-0.866493	2.376174	-0.177211	0.152538	0.029520	-0.471832	-0.106073	0.132198	-1.006592	0.105713	0.212646	0.095139	-0.008546	0.023832	0.040805	-0.609064	0.014713	-0.791934	-15.820993	-74.466926	-162.045167
59596		9.568683	-0.829051	2.208124	-0.335645	0.084770	0.036320	-0.436090	-0.119685	0.105060	-1.004395	0.105713	0.212646	0.095678	-0.008192	0.022156	0.039921	-0.609632	0.016748	-0.791502	-16.359101	-74.517454	-161.745928
59597		9.610775	-0.958431	2.333663	-0.210813	0.194958	0.119536	-0.383505	-0.136249	0.080618	-1.006836	0.112305	0.218994	0.096096	-0.009501	0.023420	0.039106	-0.610360	0.018493	-0.790942	-16.848186	-74.595027	-161.466326
59598		9.576737	-1.111497	2.423149	-0.102059	0.337483	0.121930	-0.324550	-0.174535	0.050878	-1.010986	0.105469	0.217285	0.095749	-0.011051	0.024333	0.038352	-0.611123	0.019911	-0.790356	-17.253901	-74.683402	-161.238326
59599		9.550451	-1.262374	2.422856	-0.077259	0.478906	0.108985	-0.298701	-0.170640	0.021470	-1.004150	0.101318	0.228760	0.095485	-0.012577	0.024329	0.037568	-0.611974	0.021157	-0.789702	-17.613707	-74.788552	-161.044676
59600		9.619134	-1.272237	2.505237	0.003820	0.474222	0.197188	-0.291381	-0.121699	0.031251	-1.004395	0.105713	0.223877	0.096178	-0.012671	0.025129	0.036832	-0.612520	0.022393	-0.789279	-17.933828	-74.850805	-160.885871
59601		9.479232	-1.284702	2.501570	0.051672	0.488590	0.062673	-0.280905	-0.079848	0.032839	-1.002197	0.110352	0.228027	0.094784	-0.012796	0.025072	0.036132	-0.613025	0.023581	-0.788884	-18.241887	-74.907744	-160.732235
59602		9.471970	-1.254493	2.496872	0.061095	0.448126	0.052492	-0.269970	-0.070951	0.048958	-1.006592	0.105713	0.235107	0.094714	-0.012488	0.025019	0.035525	-0.613363	0.024796	-0.788612	-18.555090	-74.938810	-160.567978
59603		9.498088	-1.325023	2.529073	0.098369	0.504367	0.091932	-0.219918	-0.084297	0.057862	-0.999756	0.105957	0.226074	0.094974	-0.013195	0.025345	0.035111	-0.613864	0.025868	-0.788206	-18.900597	-74.991221	-160.343992
59604		9.491351	-1.257981	2.476698	0.062518	0.427573	0.067371	-0.170352	-0.094744	0.054649	-1.008545	0.099121	0.235596	0.094905	-0.012533	0.024823	0.034836	-0.614275	0.026704	-0.787870	-19.187266	-75.033677	-160.148187
59605		9.529357	-1.162060	2.407953	0.001746	0.320652	0.079453	-0.133336	-0.086047	0.033341	-1.006592	0.105713	0.230713	0.095285	-0.011589	0.024128	0.034581	-0.614725	0.027326	-0.787509	-19.415881	-75.085948	-159.991248
59606		9.488814	-1.126115	2.357749	-0.029215	0.282315	0.025206	-0.114347	-0.023270	0.026403	-1.006592	0.107910	0.228271	0.094887	-0.011235	0.023595	0.034356	-0.614848	0.027867	-0.787404	-19.564144	-75.094836	-159.905544
59607		9.313412	-1.168341	2.363869	0.021398	0.334407	-0.138999	-0.112214	0.017474	0.013797	-1.004395	0.108154	0.235107	0.093137	-0.011664	0.023637	0.034072	-0.614857	0.028406	-0.787390	-19.674989	-75.089444	-159.861987
59608		9.262400	-1.162199	2.421392	0.090011	0.328705	-0.174755	-0.107447	0.009936	0.004621	-1.001953	0.103760	0.239746	0.092625	-0.011607	0.024216	0.033778	-0.614851	0.028858	-0.787391	-19.751239	-75.084555	-159.846715
59609		9.421268	-1.109213	2.363725	0.000287	0.257841	-0.039696	-0.114166	-0.015205	0.012646	-1.009033	0.107910	0.237305	0.094212	-0.011073	0.023651	0.033488	-0.615014	0.029389	-0.787257	-19.886948	-75.100598	-159.778050
59610		9.569188	-1.047863	2.323951	-0.069233	0.179132	0.088385	-0.116236	-0.027730	0.019922	-1.002441	0.112549	0.239258	0.095690	-0.010456	0.023259	0.033233	-0.615155	0.029916	-0.787137	-20.026919	-75.113010	-159.702059
59611		9.627605	-0.940028	2.332555	-0.068189	0.061073	0.137532	-0.115025	-0.016566	0.014113	-1.004395	0.105957	0.241943	0.096275	-0.009380	0.023339	0.032947	-0.615305	0.030473	-0.787011	-20.170795	-75.126508	-159.627111
59612		9.684245	-0.988289	2.232505	-0.177371	0.101454	0.172484	-0.118056	0.002596	-0.008487	-1.006836	0.107910	0.237305	0.096842	-0.009874	0.022330	0.032569	-0.615331	0.030926	-0.786988	-20.232064	-75.128163	-159.633635
59613		9.769335	-0.979288	2.367469	-0.065017	0.081541	0.286468	-0.116274	0.017201	-0.018962	-1.004395	0.103516	0.239746	0.097694	-0.009788	0.023672	0.032140	-0.615344	0.031376	-0.786978	-20.276645	-75.129275	-159.660887
59614		9.885302	-1.028522	2.457662	-0.006615	0.118338	0.424651	-0.114240	0.027217	-0.026715	-1.002197	0.108154	0.241699	0.098855	-0.010284	0.024569	0.031699	-0.615275	0.031761	-0.787034	-20.280480	-75.121330	-159.724579
59615		9.900993	-1.047361	2.508849	0.037741	0.134544	0.453832	-0.120655	0.052949	-0.038350	-1.013184	0.103516	0.239746	0.099015	-0.010477	0.025069	0.031174	-0.615147	0.032176	-0.787139	-20.261444	-75.106587	-159.820408
59616		9.951610	-1.034834	2.600410	0.108581	0.117125	0.523755	-0.128824	0.097436	-0.049977	-1.006592	0.105713	0.239746	0.099526	-0.010356	0.025962	0.030586	-0.614808	0.032558	-0.787411	-20.174705	-75.065487	-159.986493
59617		9.911919	-1.038602	2.683507	0.188558	0.123590	0.505994	-0.129054	0.154664	-0.045727	-1.008789	0.105713	0.237305	0.099138	-0.010391	0.026765	0.029989	-0.614274	0.033000	-0.787832	-20.070162	-74.996463	-160.175902
59618		9.836165	-1.016454	2.831177	0.333400	0.105986	0.467218	-0.135864	0.213065	-0.041766	-1.009033	0.107910	0.230469	0.098390	-0.010166	0.028214	0.029392	-0.613477	0.033452	-0.788456	-19.921876	-74.891337	-160.410012
59619		9.754935	-1.046803	2.853183	0.353299	0.141892	0.397611	-0.147578	0.256528	-0.043922	-1.008789	0.101318	0.233154	0.097584	-0.010468	0.028414	0.028731	-0.612537	0.033994	-0.789187	-19.764077	-74.765919	-160.666122
59620		9.859386	-1.065918	3.041466	0.485580	0.147498	0.547650	-0.159983	0.257075	-0.044002	-1.010986	0.101318	0.230957	0.098631	-0.010657	0.030296	0.028044	-0.611569	0.034541	-0.789939	-19.600047	-74.637151	-160.931151
59621		10.109600	-0.975857	3.114924	0.471173	0.033562	0.800318	-0.128693	0.238783	-0.044041	-1.008789	0.101318	0.224121	0.101131	-0.009761	0.031035	0.027439	-0.610697	0.034998	-0.790615	-19.447145	-74.521588	-161.170985
59622		9.987006	-0.869445	3.146331	0.506840	-0.062631	0.681823	-0.098372	0.281207	-0.037146	-1.013184	0.098877	0.219971	0.099913	-0.008698	0.031327	0.026962	-0.609621	0.035325	-0.791447	-19.251723	-74.378075	-161.432281
59623		9.457637	-0.839987	3.035837	0.505409	-0.044865	0.142776	-0.087487	0.338818	-0.026148	-1.008789	0.101318	0.224121	0.094627	-0.008399	0.030202	0.026537	-0.608330	0.035689	-0.792437	-19.049013	-74.203102	-161.699619
59624		8.834822	-0.934898	3.013896	0.615146	0.102229	-0.451984	-0.075838	0.311924	-0.013432	-1.006592	0.103516	0.219482	0.088394	-0.009344	0.030005	0.026218	-0.607123	0.036003	-0.793359	-18.874671	-74.038059	-161.926002
59625		8.812277	-1.053392	3.016283	0.603134	0.219825	-0.461125	-0.065506	0.167164	-0.006128	-1.008789	0.105713	0.217285	0.088148	-0.010527	0.030093	0.025973	-0.606515	0.036321	-0.793817	-18.819668	-73.953393	-162.027092
59626		9.171530	-0.985714	2.999953	0.484048	0.121202	-0.125617	-0.064542	0.041171	-0.024796	-1.012939	0.096680	0.219971	0.091720	-0.009859	0.029984	0.025692	-0.606381	0.036521	-0.793920	-18.795309	-73.937137	-162.090871
59627		9.638300	-1.111682	2.973269	0.336804	0.208856	0.327132	-0.058641	-0.022604	-0.058189	-1.013184	0.098877	0.219971	0.096376	-0.011136	0.029747	0.025293	-0.606528	0.036627	-0.793815	-18.758407	-73.964206	-162.169037
59628		9.927348	-1.355522	2.827721	0.124969	0.436109	0.588268	-0.033834	-0.023453	-0.076772	-1.012939	0.094482	0.217773	0.099265	-0.013589	0.028291	0.024910	-0.606656	0.036539	-0.793734	-18.659575	-73.992546	-162.291985
59629		9.951061	-1.633403	2.813742	0.109282	0.718280	0.631493	0.022204	-0.001314	-0.083093	-1.012939	0.094482	0.217773	0.099504	-0.016378	0.028136	0.024649	-0.606709	0.036250	-0.793715	-18.512581	-74.012133	-162.436593
59630		9.824206	-1.790661	2.689664	0.022856	0.898525	0.490123	0.100547	0.012977	-0.085300	-1.012939	0.094482	0.213379	0.098236	-0.017962	0.026881	0.024634	-0.606677	0.035607	-0.793769	-18.296748	-74.022033	-162.601136
59631		9.658557	-1.815490	2.608814	-0.014270	0.950090	0.310886	0.171438	0.020197	-0.084268	-1.008301	0.092285	0.220215	0.096581	-0.018218	0.026063	0.024815	-0.606619	0.034733	-0.793846	-18.049220	-74.028757	-162.762273
59632		9.531869	-1.738552	2.507297	-0.082533	0.899955	0.154703	0.247901	-0.006609	-0.095133	-1.012695	0.092285	0.220215	0.095310	-0.017462	0.025055	0.025211	-0.606647	0.033473	-0.793866	-17.741745	-74.050664	-162.934303
59633		9.493649	-1.599467	2.338779	-0.235988	0.784204	0.060856	0.307349	-0.035226	-0.116098	-1.010498	0.092285	0.220215	0.094923	-0.016086	0.023380	0.025683	-0.606806	0.031963	-0.793791	-17.391216	-74.094176	-163.122570
59634		9.619920	-1.451839	2.265061	-0.339226	0.648257	0.149534	0.363158	-0.061439	-0.142311	-1.017578	0.096436	0.217773	0.096182	-0.014628	0.022654	0.026250	-0.607042	0.030096	-0.793666	-16.957662	-74.153489	-163.356958
59635		9.774358	-1.197878	2.221064	-0.418249	0.405630	0.265338	0.417014	-0.061823	-0.149949	-1.010254	0.085449	0.218506	0.097728	-0.012098	0.022216	0.026929	-0.607288	0.028056	-0.793529	-16.494583	-74.215360	-163.597559
59636		9.912697	-1.001926	2.255408	-0.417667	0.223664	0.391614	0.437994	-0.051369	-0.158543	-1.015137	0.094482	0.220215	0.099113	-0.010147	0.022557	0.027657	-0.607471	0.025843	-0.793440	-15.975610	-74.270675	-163.876015
59637		10.073390	-0.859753	2.297283	-0.414972	0.093675	0.546311	0.436868	-0.050463	-0.145863	-1.008301	0.092285	0.215820	0.100722	-0.008721	0.022979	0.028405	-0.607663	0.023735	-0.793332	-15.495093	-74.324782	-164.122899
59638		10.147319	-0.836940	2.310722	-0.420228	0.088007	0.619169	0.419087	-0.021982	-0.114047	-1.015137	0.094238	0.215576	0.101466	-0.008476	0.023101	0.029249	-0.607720	0.021737	-0.793315	-15.053862	-74.355866	-164.331738
59639		10.080462	-0.921243	2.322074	-0.396736	0.195547	0.563283	0.395410	0.030464	-0.093546	-1.012695	0.089844	0.215820	0.100804	-0.009305	0.023187	0.030079	-0.607581	0.019971	-0.793437	-14.658507	-74.355372	-164.514786
59640		9.878415	-1.013132	2.258891	-0.416599	0.318108	0.357727	0.373559	0.085520	-0.076089	-1.008301	0.094482	0.213379	0.098790	-0.010211	0.022528	0.030923	-0.607209	0.018285	-0.793729	-14.262130	-74.320575	-164.704138
59641		9.729403	-1.120704	2.178550	-0.471626	0.449584	0.199243	0.357822	0.123608	-0.079386	-1.010498	0.094482	0.213379	0.097303	-0.011285	0.021705	0.031682	-0.606704	0.016724	-0.794120	-13.870065	-74.266297	-164.906340
59642		9.624803	-1.201889	2.084043	-0.553947	0.551480	0.077387	0.352846	0.126039	-0.083912	-1.015137	0.096436	0.210938	0.096256	-0.012096	0.020758	0.032428	-0.606171	0.015102	-0.794529	-13.453687	-74.209292	-165.128902
59643		9.659439	-1.214033	2.042027	-0.618552	0.574596	0.098706	0.350641	0.104267	-0.093562	-1.014893	0.087646	0.209229	0.096599	-0.012221	0.020349	0.033116	-0.605745	0.013532	-0.794854	-13.055424	-74.167101	-165.342341
59644		9.726958	-1.189538	2.001299	-0.688634	0.560100	0.149539	0.358925	0.096815	-0.092362	-1.012695	0.092041	0.206787	0.097274	-0.011976	0.019944	0.033849	-0.605323	0.011855	-0.795172	-12.636273	-74.126642	-165.564268
59645		9.801724	-1.071190	1.918623	-0.796957	0.449488	0.190569	0.386548	0.107242	-0.082476	-1.010498	0.089844	0.204590	0.098023	-0.010789	0.019113	0.034674	-0.604871	0.010168	-0.795504	-12.234454	-74.080536	-165.760459
59646		9.793789	-0.948531	1.876457	-0.845861	0.340934	0.162649	0.405634	0.130644	-0.077381	-1.010498	0.094482	0.206543	0.097946	-0.009561	0.018681	0.035606	-0.604301	0.008358	-0.795917	-11.807244	-74.018464	-165.963049
59647		9.890376	-0.753568	1.803076	-0.949875	0.151567	0.222909	0.429525	0.148329	-0.084568	-1.012939	0.094238	0.199951	0.098914	-0.007616	0.017941	0.036557	-0.603680	0.006510	-0.796362	-11.369777	-73.949639	-166.171252
59648		10.003528	-0.577178	1.814315	-0.979260	-0.015648	0.323199	0.465976	0.162091	-0.095754	-1.021484	0.087402	0.198242	0.100047	-0.005862	0.018048	0.037597	-0.602968	0.004409	-0.796867	-10.865369	-73.871050	-166.418349
59649		10.158150	-0.403403	1.823770	-1.021979	-0.182093	0.463461	0.498263	0.177301	-0.100813	-1.014893	0.089844	0.193604	0.101596	-0.004131	0.018137	0.038686	-0.602201	0.002238	-0.797403	-10.348687	-73.785184	-166.667801
59650		10.263027	-0.189140	1.909634	-0.977550	-0.380555	0.575368	0.520907	0.213021	-0.102438	-1.014893	0.092041	0.184326	0.102650	-0.001994	0.018982	0.039863	-0.601268	-0.000093	-0.798053	-9.790148	-73.677291	-166.938731
59651		10.361588	-0.036523	2.027914	-0.907207	-0.516133	0.693823	0.534339	0.258056	-0.082835	-1.014893	0.092041	0.186523	0.103642	-0.000462	0.020144	0.041136	-0.600147	-0.002339	-0.798828	-9.269589	-73.540598	-167.170471
59652		10.362143	0.004224	2.145170	-0.822377	-0.535291	0.723575	0.531117	0.301808	-0.044573	-1.012939	0.096436	0.181885	0.103654	-0.000038	0.021295	0.042575	-0.598847	-0.004518	-0.799718	-8.799702	-73.375892	-167.343203
59653		10.251183	0.072827	2.271817	-0.698270	-0.579088	0.648200	0.509992	0.331865	-0.005988	-1.012695	0.094238	0.179688	0.102549	0.000668	0.022550	0.044096	-0.597441	-0.006417	-0.800674	-8.434097	-73.191583	-167.427524
59654		10.003059	0.063033	2.382056	-0.559279	-0.539455	0.440870	0.477746	0.358573	0.025421	-1.019531	0.093994	0.177490	0.100073	0.000586	0.023643	0.045656	-0.595917	-0.008161	-0.801706	-8.120960	-72.988277	-167.468719
59655		9.821181	0.025977	2.453878	-0.477180	-0.482676	0.287659	0.466155	0.352025	0.052730	-1.017578	0.100830	0.168213	0.098255	0.000229	0.024366	0.047273	-0.594444	-0.009720	-0.802688	-7.886439	-72.789499	-167.441653
59656		9.722106	-0.056178	2.606336	-0.345449	-0.381752	0.239691	0.451756	0.344813	0.076045	-1.015381	0.100830	0.159180	0.097266	-0.000583	0.025894	0.048957	-0.592972	-0.011212	-0.803655	-7.690392	-72.589979	-167.375893
59657		9.596221	-0.116506	2.759682	-0.202562	-0.302781	0.166495	0.437997	0.333961	0.090795	-1.021973	0.100586	0.166016	0.096009	-0.001182	0.027434	0.050666	-0.591535	-0.012534	-0.804588	-7.555309	-72.393074	-167.260863
59658		9.513323	-0.146793	2.825987	-0.151075	-0.261705	0.107981	0.433684	0.324552	0.085282	-1.020020	0.102783	0.163574	0.095180	-0.001488	0.028102	0.052332	-0.590140	-0.013931	-0.805482	-7.392792	-72.204464	-167.170631
59659		9.401795	-0.185327	2.943431	-0.041798	-0.205769	0.038592	0.427502	0.324449	0.080953	-1.022705	0.114014	0.156250	0.094066	-0.001878	0.029278	0.053953	-0.588786	-0.015264	-0.806342	-7.243315	-72.021601	-167.076081
59660		9.239780	-0.144225	2.978138	0.011241	-0.231180	-0.106505	0.414371	0.336956	0.076773	-1.024658	0.109375	0.151855	0.092448	-0.001468	0.029623	0.055527	-0.587338	-0.016604	-0.807264	-7.075630	-71.826710	-167.002738
59661		8.986843	-0.152670	2.976479	0.053384	-0.206122	-0.346926	0.374753	0.338539	0.076919	-1.020264	0.114014	0.147217	0.089919	-0.001548	0.029610	0.057021	-0.585911	-0.017701	-0.808173	-6.964266	-71.632250	-166.899522
59662		8.789236	-0.177187	2.954440	0.059286	-0.169804	-0.540236	0.339350	0.318136	0.072589	-1.022217	0.107178	0.140869	0.087940	-0.001790	0.029402	0.058357	-0.584552	-0.018755	-0.809038	-6.837490	-71.448451	-166.828195
59663		8.683353	-0.152560	2.964151	0.076782	-0.186590	-0.638303	0.292825	0.270184	0.056826	-1.022705	0.118408	0.137939	0.086874	-0.001544	0.029522	0.059495	-0.583399	-0.019617	-0.809766	-6.740946	-71.292425	-166.758854
59664		8.718665	-0.150988	2.915370	-0.001377	-0.194307	-0.620326	0.267213	0.187287	0.032471	-1.027100	0.113770	0.135986	0.087214	-0.001535	0.029070	0.060445	-0.582582	-0.020535	-0.810261	-6.614941	-71.185838	-166.730234
59665		8.927496	-0.139321	2.947307	-0.050182	-0.216702	-0.412861	0.232587	0.119940	0.018220	-1.022705	0.118408	0.135742	0.089293	-0.001419	0.029418	0.061262	-0.582037	-0.021296	-0.810571	-6.526853	-71.115864	-166.687686
59666		8.872687	-0.087408	2.923401	-0.059514	-0.262861	-0.474280	0.189560	0.096928	-0.002615	-1.022461	0.113770	0.133789	0.088741	-0.000903	0.029190	0.061834	-0.581604	-0.022029	-0.810819	-6.405050	-71.062997	-166.701621
59667		8.678023	-0.013827	3.054072	0.124119	-0.305217	-0.618828	0.094453	0.118396	-0.015682	-1.018066	0.116211	0.133545	0.086798	-0.000159	0.030489	0.062104	-0.581114	-0.022338	-0.811141	-6.337440	-70.997840	-166.720965
59668		8.435435	0.007274	2.977417	0.120151	-0.314494	-0.873544	0.008432	0.136186	-0.034473	-1.022461	0.113770	0.133789	0.084375	0.000057	0.029717	0.062025	-0.580574	-0.022416	-0.811532	-6.260297	-70.924591	-166.797444
59669		8.216684	-0.023662	2.812448	0.020942	-0.285295	-1.132683	-0.069791	0.102463	-0.053898	-1.024902	0.113770	0.131592	0.082181	-0.000249	0.028082	0.061651	-0.580211	-0.022183	-0.811827	-6.224000	-70.873325	-166.883155
59670		8.210166	-0.076711	2.610050	-0.179798	-0.252526	-1.202869	-0.139949	0.041641	-0.078716	-1.024902	0.113770	0.135986	0.082107	-0.000781	0.026084	0.060951	-0.580094	-0.021817	-0.811973	-6.176912	-70.856622	-167.017849
59671		8.282488	-0.066961	2.456184	-0.346413	-0.280908	-1.184940	-0.158633	-0.020050	-0.116222	-1.022217	0.107178	0.136475	0.082822	-0.000698	0.024571	0.060060	-0.580261	-0.021457	-0.811930	-6.109272	-70.880856	-167.188762
59672		8.415156	-0.036194	2.161605	-0.659637	-0.343852	-1.156168	-0.146045	-0.041992	-0.162472	-1.026855	0.109375	0.131836	0.084147	-0.000415	0.021634	0.058993	-0.580476	-0.021334	-0.811857	-5.942349	-70.916712	-167.453940
59673		8.507448	0.030166	2.022040	-0.809256	-0.418427	-1.115778	-0.116324	-0.038421	-0.197792	-1.029053	0.106934	0.131836	0.085071	0.000229	0.020237	0.057862	-0.580693	-0.021409	-0.811782	-5.706039	-70.956122	-167.777519
59674		8.827260	0.122923	2.108218	-0.816253	-0.506618	-0.787321	-0.085019	-0.067025	-0.245422	-1.022217	0.104980	0.132080	0.088267	0.001130	0.021111	0.056633	-0.580981	-0.021782	-0.811652	-5.368849	-71.010103	-168.185676
59675		9.318832	0.098814	2.429576	-0.666459	-0.460367	-0.215966	-0.044581	-0.134699	-0.288416	-1.021729	0.095947	0.134766	0.093173	0.000859	0.024358	0.055350	-0.581519	-0.022422	-0.811338	-4.958024	-71.102411	-168.650251
59676		9.844509	0.118453	2.779598	-0.488827	-0.447734	0.395888	0.039096	-0.186401	-0.320475	-1.026367	0.095947	0.141602	0.098421	0.001021	0.027888	0.054164	-0.582246	-0.023550	-0.810865	-4.434252	-71.226106	-169.179964
59677		10.235159	0.199926	3.024152	-0.357590	-0.491801	0.844427	0.100103	-0.153900	-0.314096	-1.026123	0.091553	0.135010	0.102331	0.001823	0.030321	0.053153	-0.582859	-0.024897	-0.810451	-3.870898	-71.334586	-169.716586
59678		10.049392	0.354905	3.208870	-0.102747	-0.583394	0.725913	0.105982	0.008992	-0.265809	-1.023926	0.093750	0.137207	0.100500	0.003398	0.032086	0.052407	-0.582779	-0.026085	-0.810519	-3.368590	-71.341346	-170.182656
59679		9.429070	0.292113	3.318351	0.175667	-0.452288	0.175739	0.051322	0.193838	-0.210055	-1.028076	0.084717	0.126465	0.094326	0.002814	0.033093	0.051747	-0.581951	-0.026815	-0.811133	-2.980802	-71.236438	-170.563687
59680		8.682002	0.101223	3.382119	0.428239	-0.202395	-0.506682	0.010015	0.245539	-0.146924	-1.030273	0.084717	0.131104	0.086862	0.000947	0.033715	0.051234	-0.580950	-0.027206	-0.811869	-2.717247	-71.102418	-170.836060
59681		8.370556	0.017939	3.428148	0.542039	-0.088733	-0.784010	0.006515	0.118960	-0.126249	-1.026123	0.091553	0.130615	0.083726	0.000125	0.034232	0.050717	-0.580385	-0.027562	-0.812294	-2.484733	-71.028761	-171.081165
59682		8.519330	-0.035664	3.482796	0.535496	-0.028226	-0.624512	-0.012153	-0.044568	-0.111592	-1.030273	0.084717	0.133301	0.085185	-0.000402	0.034847	0.050243	-0.580571	-0.027834	-0.812181	-2.317861	-71.059231	-171.264947
59683		8.970503	-0.080793	3.341156	0.257902	-0.012695	-0.243305	-0.038832	-0.082215	-0.096691	-1.032471	0.080078	0.131348	0.089691	-0.000845	0.033449	0.049782	-0.580916	-0.027932	-0.811959	-2.208863	-71.109986	-171.404253
59684		9.260721	-0.184233	3.249645	0.071613	0.074372	0.002832	-0.007192	-0.017694	-0.089365	-1.028076	0.084717	0.135498	0.092603	-0.001883	0.032505	0.049416	-0.580995	-0.028153	-0.811918	-2.073592	-71.124309	-171.551545
59685		9.268412	-0.247736	3.301857	0.108380	0.150407	0.027674	0.055419	0.059173	-0.073037	-1.030029	0.075928	0.138184	0.092693	-0.002520	0.032990	0.049285	-0.580741	-0.028564	-0.812093	-1.918818	-71.093260	-171.683048
59686		9.190005	-0.304312	3.358836	0.172722	0.223429	-0.027453	0.101570	0.090844	-0.055962	-1.032471	0.082520	0.135742	0.091914	-0.003086	0.033545	0.049386	-0.580357	-0.029103	-0.812342	-1.771302	-71.044551	-171.777452
59687		8.999456	-0.522260	3.362446	0.203149	0.455893	-0.204364	0.129356	0.114633	-0.018874	-1.034668	0.080078	0.133545	0.090013	-0.005253	0.033569	0.049669	-0.579932	-0.029667	-0.812608	-1.652458	-70.990013	-171.826066
59688		8.862659	-0.595916	3.318939	0.186176	0.533859	-0.347091	0.169227	0.113684	0.021664	-1.032471	0.082275	0.126709	0.088646	-0.005978	0.033134	0.050285	-0.579449	-0.030250	-0.812893	-1.594957	-70.926865	-171.784310
59689		8.694168	-0.710197	3.309007	0.206030	0.655087	-0.508341	0.194521	0.112152	0.059474	-1.025879	0.084717	0.133301	0.086962	-0.007108	0.033034	0.051098	-0.578954	-0.030825	-0.813174	-1.579216	-70.861697	-171.685162
59690		8.448028	-0.730072	3.316916	0.279614	0.686603	-0.737750	0.236020	0.107145	0.082667	-1.030273	0.082520	0.126709	0.084501	-0.007305	0.033115	0.052154	-0.578488	-0.031504	-0.813412	-1.584072	-70.801320	-171.536843
59691		8.332040	-0.701130	3.396013	0.384350	0.671522	-0.821097	0.275000	0.111969	0.096131	-1.028564	0.093750	0.132813	0.083343	-0.007018	0.033904	0.053365	-0.578027	-0.032286	-0.813630	-1.590640	-70.742650	-171.365564
59692		8.296857	-0.547192	3.459908	0.463410	0.528074	-0.834124	0.308499	0.105045	0.093936	-1.032959	0.091309	0.130615	0.082989	-0.005486	0.034547	0.054676	-0.577550	-0.033228	-0.813845	-1.571580	-70.683306	-171.198484
59693		8.420904	-0.364425	3.455796	0.434243	0.339443	-0.719659	0.316603	0.097224	0.092098	-1.032715	0.089111	0.124023	0.084228	-0.003660	0.034511	0.056102	-0.577204	-0.034141	-0.813955	-1.588072	-70.642090	-170.988970
59694		8.455309	-0.072912	3.482665	0.477897	0.055065	-0.680596	0.343157	0.067564	0.068249	-1.023926	0.093750	0.128174	0.084565	-0.000760	0.034797	0.057402	-0.576861	-0.035307	-0.814057	-1.508412	-70.604683	-170.864978
59695		8.651752	0.117726	3.558727	0.506980	-0.129356	-0.471518	0.361469	0.018355	0.053495	-1.030518	0.091309	0.126221	0.086520	0.001136	0.035581	0.058713	-0.576756	-0.036566	-0.813983	-1.414318	-70.601816	-170.747332
59696		8.891886	0.306809	3.630803	0.521342	-0.311692	-0.222403	0.366737	-0.011444	0.039644	-1.028564	0.098145	0.127930	0.088916	0.003019	0.036319	0.059950	-0.576720	-0.037934	-0.813856	-1.277934	-70.610209	-170.669140
59697		9.068365	0.423009	3.769658	0.612159	-0.409145	-0.010527	0.369447	0.007916	0.034280	-1.026123	0.089111	0.119629	0.090684	0.004176	0.037701	0.061230	-0.576680	-0.039280	-0.813725	-1.155817	-70.618122	-170.574906
59698		9.082415	0.453222	3.805595	0.642752	-0.424547	0.015072	0.358414	0.056713	0.022695	-1.030762	0.093506	0.116943	0.090834	0.004474	0.038038	0.062388	-0.576361	-0.040641	-0.813796	-0.994490	-70.587806	-170.528208
59699		9.068594	0.506445	3.843946	0.682716	-0.460169	0.015534	0.338594	0.080458	0.009620	-1.026123	0.091309	0.119385	0.090701	0.005004	0.038411	0.063376	-0.575875	-0.041947	-0.813997	-0.808928	-70.533840	-170.524010
59700		9.036675	0.512022	3.865443	0.707445	-0.449400	-0.006421	0.329202	0.059184	-0.009292	-1.026367	0.095947	0.119141	0.090378	0.005052	0.038636	0.064320	-0.575545	-0.043281	-0.814087	-0.612771	-70.502392	-170.531992
59701		9.150857	0.588597	3.989472	0.792474	-0.500214	0.143329	0.318153	0.030097	-0.021230	-1.023926	0.091309	0.114990	0.091515	0.005813	0.039890	0.065147	-0.575323	-0.044603	-0.814107	-0.401087	-70.485996	-170.566214
59702		9.262003	0.604596	4.043672	0.806399	-0.500515	0.267031	0.270244	0.015669	-0.032461	-1.021729	0.095947	0.119141	0.092624	0.005976	0.040438	0.065816	-0.575181	-0.045777	-0.814088	-0.202263	-70.479520	-170.612870
59703		9.393231	0.665860	4.010162	0.739338	-0.560514	0.380288	0.222686	0.013677	-0.035952	-1.024170	0.098145	0.121094	0.093936	0.006597	0.040103	0.066299	-0.575037	-0.046759	-0.814095	-0.019980	-70.470436	-170.674207
59704		9.655799	0.615357	4.017302	0.649148	-0.513143	0.630833	0.169753	0.022037	-0.037158	-1.024170	0.098145	0.114502	0.096564	0.006102	0.040168	0.066662	-0.574900	-0.047536	-0.814117	0.128707	-70.460194	-170.728764
59705		9.829706	0.508258	3.957935	0.515039	-0.419508	0.775298	0.120356	0.054646	-0.035231	-1.026123	0.093506	0.116943	0.098309	0.005041	0.039556	0.066973	-0.574649	-0.048045	-0.814239	0.216931	-70.430884	-170.748887
59706		9.851300	0.461822	3.915887	0.452342	-0.376184	0.782096	0.088323	0.110750	-0.025879	-1.024170	0.100342	0.109863	0.098535	0.004588	0.039106	0.067169	-0.574180	-0.048428	-0.814531	0.299794	-70.369774	-170.783107
59707		9.880640	0.374398	3.948959	0.444106	-0.285646	0.821345	0.061938	0.141965	-0.012345	-1.026367	0.095703	0.112305	0.098835	0.003726	0.039421	0.067396	-0.573531	-0.048610	-0.814959	0.326570	-70.281144	-170.774768
59708		9.855098	0.297378	3.930618	0.407996	-0.211797	0.791548	0.044140	0.147072	0.006530	-1.023926	0.091309	0.105957	0.098580	0.002968	0.039234	0.067606	-0.572936	-0.048708	-0.815354	0.331540	-70.199281	-170.753144
59709		9.831483	0.248192	3.929252	0.388732	-0.165264	0.769384	0.028147	0.154049	0.024932	-1.026367	0.095703	0.105713	0.098345	0.002489	0.039217	0.067799	-0.572223	-0.048676	-0.815840	0.308143	-70.099513	-170.715035
59710		9.850857	0.224886	3.980699	0.410439	-0.140755	0.805581	0.004011	0.162757	0.034421	-1.019531	0.095947	0.105713	0.098541	0.002265	0.039727	0.068012	-0.571584	-0.048525	-0.816279	0.246405	-70.008683	-170.646880
59711		9.961908	0.281857	4.015748	0.395928	-0.205573	0.922593	-0.012095	0.172796	0.039701	-1.021973	0.098145	0.103271	0.099653	0.002841	0.040071	0.068206	-0.570812	-0.048261	-0.816818	0.162567	-69.898141	-170.567080
59712		10.105662	0.278616	4.193218	0.493582	-0.191731	1.119133	-0.053179	0.178666	0.043064	-1.017334	0.100342	0.103027	0.101093	0.002819	0.041841	0.068295	-0.570128	-0.047846	-0.817313	0.055937	-69.798087	-170.485911
59713		10.457306	0.257878	4.447304	0.586342	-0.165050	1.537607	-0.086194	0.170674	0.045029	-1.017334	0.098145	0.101074	0.104610	0.002621	0.044383	0.068382	-0.569420	-0.047241	-0.817834	-0.099781	-69.692468	-170.371432
59714		10.448508	0.055582	4.421902	0.512926	0.016169	1.521518	-0.133229	0.216343	0.069807	-1.023926	0.095703	0.096680	0.104533	0.000622	0.044106	0.068360	-0.568614	-0.046410	-0.818444	-0.291122	-69.570592	-170.248695
59715		9.929235	-0.235588	4.146586	0.360577	0.270159	0.940742	-0.189632	0.328217	0.111365	-1.021729	0.098145	0.096436	0.099361	-0.002261	0.041305	0.068349	-0.567288	-0.045165	-0.819434	-0.573643	-69.371545	-170.067037
59716		9.405220	-0.463780	4.079574	0.411931	0.491284	0.429627	-0.200853	0.358854	0.130240	-1.017334	0.100342	0.091797	0.094128	-0.004536	0.040631	0.068415	-0.565931	-0.043836	-0.820439	-0.887254	-69.167143	-169.854698
59717		9.297319	-0.593964	4.106555	0.425190	0.606392	0.341531	-0.179652	0.258393	0.096744	-1.017334	0.100342	0.091797	0.093029	-0.005858	0.040951	0.068376	-0.564911	-0.042694	-0.821205	-1.140773	-69.011678	-169.696571
59718		9.736665	-0.636196	4.195068	0.329786	0.615917	0.785324	-0.198825	0.116099	0.030522	-1.017822	0.106934	0.093750	0.097392	-0.006305	0.041900	0.067986	-0.564524	-0.041738	-0.821552	-1.304741	-68.946883	-169.642882
59719		10.358666	-0.885257	3.994396	-0.120497	0.779669	1.296698	-0.232890	0.075243	-0.026346	-1.017578	0.102539	0.087158	0.103601	-0.008820	0.039915	0.067360	-0.564331	-0.040768	-0.821785	-1.436662	-68.909024	-169.642422
59720		10.945205	-1.003555	3.893830	-0.447442	0.838471	1.808986	-0.192755	0.122042	-0.059301	-1.013184	0.107178	0.084717	0.109473	-0.010031	0.038881	0.066619	-0.563899	-0.040088	-0.822176	-1.462928	-68.842061	-169.732578
59721		11.308753	-1.125431	3.978651	-0.533515	0.940374	2.179610	-0.138613	0.152026	-0.054549	-1.013184	0.107178	0.089111	0.113115	-0.011258	0.039708	0.066204	-0.563224	-0.039511	-0.822699	-1.511489	-68.742483	-169.764593
59722		11.735267	-1.173428	4.065802	-0.626469	0.968789	2.608791	-0.133752	0.113778	-0.025181	-1.013184	0.109375	0.082275	0.117374	-0.011722	0.040599	0.065769	-0.562812	-0.038980	-0.823042	-1.555033	-68.679727	-169.799998
59723		11.948188	-1.360256	3.951727	-0.846759	1.107896	2.768298	-0.173035	0.099298	0.025850	-1.019775	0.104736	0.087158	0.119503	-0.013553	0.039470	0.065745	-0.562445	-0.038013	-0.823339	-1.785503	-68.617191	-169.650641
59724		11.636178	-1.427668	3.775419	-0.917201	1.155940	2.414952	-0.130504	0.127119	0.088957	-1.022461	0.111328	0.086670	0.116392	-0.014200	0.037689	0.065792	-0.561998	-0.037170	-0.823680	-1.992659	-68.544699	-169.508290
59725		11.054849	-1.403949	3.741038	-0.746540	1.140995	1.862795	-0.096494	0.131766	0.138282	-1.008789	0.107178	0.080078	0.110583	-0.013945	0.037344	0.066428	-0.561555	-0.036227	-0.823973	-2.327760	-68.469850	-169.197595
59726		10.468477	-1.472485	3.652215	-0.635552	1.214724	1.287599	-0.116597	0.089263	0.165304	-1.015625	0.109375	0.082275	0.104713	-0.014617	0.036484	0.066822	-0.561271	-0.035238	-0.824177	-2.637340	-68.416603	-168.936385
59727		10.037601	-1.607100	3.479556	-0.661968	1.327022	0.828942	-0.152701	0.040310	0.183843	-1.011230	0.111572	0.086670	0.100398	-0.015952	0.034788	0.067285	-0.561163	-0.033893	-0.824269	-3.056234	-68.381889	-168.590016
59728		9.722387	-1.612790	3.238418	-0.769037	1.299400	0.450516	-0.185783	0.027463	0.184698	-1.011230	0.113770	0.084229	0.097243	-0.016008	0.032386	0.067555	-0.561159	-0.032585	-0.824303	-3.435972	-68.362063	-168.295825
59729		9.422027	-1.619756	2.721849	-1.133430	1.232853	-0.014625	-0.211222	0.062038	0.195076	-1.009277	0.120605	0.081543	0.094244	-0.016077	0.027206	0.067975	-0.561112	-0.030985	-0.824362	-3.912812	-68.330863	-167.916151
59730		9.039801	-1.626466	2.393548	-1.300200	1.202593	-0.487685	-0.212825	0.094327	0.196081	-1.015869	0.118164	0.086182	0.090425	-0.016151	0.023910	0.068227	-0.560842	-0.029511	-0.824579	-4.315918	-68.270745	-167.613322
59731		8.655917	-1.599359	2.153069	-1.381010	1.148190	-0.930515	-0.195262	0.108079	0.176976	-1.011719	0.127197	0.079102	0.086585	-0.015896	0.021499	0.068719	-0.560567	-0.027987	-0.824778	-4.770804	-68.207274	-167.242850
59732		8.279413	-1.536720	1.860036	-1.508846	1.063259	-1.388747	-0.137476	0.070947	0.130535	-1.013672	0.120361	0.079346	0.082811	-0.015300	0.018582	0.068910	-0.560355	-0.027015	-0.824938	-5.036641	-68.162189	-167.041103
59733		8.113563	-1.458411	1.660927	-1.620362	0.959725	-1.617024	-0.060337	-0.020455	0.064017	-1.014160	0.127197	0.079102	0.081139	-0.014553	0.016622	0.069261	-0.560466	-0.026363	-0.824855	-5.267356	-68.164914	-166.835315
59734		8.130685	-1.283156	1.690713	-1.567607	0.785643	-1.594512	0.000833	-0.110500	0.002484	-1.014160	0.129395	0.083252	0.081298	-0.012831	0.016952	0.069287	-0.560938	-0.026382	-0.824531	-5.294877	-68.229584	-166.804878
59735		8.039689	-1.000320	1.588416	-1.576910	0.497890	-1.724068	0.050123	-0.158032	-0.043837	-1.020752	0.126953	0.090332	0.080382	-0.010025	0.015945	0.069608	-0.561599	-0.026553	-0.824049	-5.346520	-68.320767	-166.713835
59736		8.028126	-0.633316	1.748225	-1.360574	0.162262	-1.686761	0.050334	-0.154049	-0.076524	-1.016357	0.129395	0.078857	0.080265	-0.006368	0.017542	0.069443	-0.562222	-0.027013	-0.823623	-5.238426	-68.414443	-166.798778
59737		8.030038	-0.204426	1.769959	-1.266251	-0.255860	-1.689438	0.064885	-0.160508	-0.100363	-1.018555	0.129150	0.081055	0.080285	-0.002090	0.017763	0.069586	-0.562886	-0.027456	-0.823142	-5.190355	-68.511596	-166.799627
59738		8.172601	0.131746	1.899838	-1.134258	-0.572431	-1.517876	0.062155	-0.212782	-0.122512	-1.013428	0.113770	0.084229	0.081707	0.001261	0.019086	0.069259	-0.563739	-0.028114	-0.822564	-5.014886	-68.641022	-166.949516
59739		8.461822	0.345430	1.979191	-1.114829	-0.786138	-1.223273	0.053516	-0.282034	-0.141317	-1.020508	0.118164	0.090820	0.084593	0.003389	0.019912	0.068821	-0.564792	-0.028599	-0.821861	-4.873809	-68.795798	-167.088738
59740		8.645400	0.530994	1.839865	-1.256692	-0.986215	-1.103037	0.053089	-0.325782	-0.130673	-1.020508	0.120361	0.095215	0.086427	0.005249	0.018541	0.068418	-0.566108	-0.029281	-0.820965	-4.701459	-68.989777	-167.240512
59741		8.834890	0.704465	1.852658	-1.257047	-1.159305	-0.921138	0.027453	-0.338628	-0.108946	-1.015869	0.113770	0.104492	0.088321	0.006994	0.018677	0.068186	-0.567514	-0.029731	-0.819996	-4.623306	-69.191661	-167.303308
59742		9.092677	0.779638	2.056840	-1.117074	-1.214955	-0.604477	-0.023257	-0.337424	-0.102326	-1.024658	0.111328	0.102539	0.090896	0.007752	0.020721	0.067682	-0.568905	-0.030024	-0.819063	-4.534212	-69.390792	-167.412424
59743		9.181351	0.809576	2.151113	-1.024257	-1.228319	-0.484132	-0.081668	-0.320111	-0.093767	-1.022705	0.115967	0.108887	0.091783	0.008062	0.021655	0.067089	-0.570352	-0.030055	-0.818104	-4.499348	-69.594247	-167.496165
59744		9.049169	0.838294	2.069116	-1.026113	-1.248446	-0.633370	-0.118581	-0.257569	-0.076597	-1.024658	0.111572	0.113770	0.090468	0.008361	0.020803	0.066431	-0.571449	-0.029858	-0.817399	-4.492024	-69.746590	-167.576059
59745		8.884172	0.856708	2.078298	-0.935589	-1.249874	-0.782502	-0.156397	-0.216690	-0.045135	-1.029297	0.115967	0.120117	0.088821	0.008563	0.020873	0.066000	-0.572512	-0.029455	-0.816704	-4.580796	-69.890065	-167.557803
59746		8.633111	0.689012	2.034876	-0.895895	-1.070026	-1.026423	-0.202908	-0.241806	-0.006927	-1.024902	0.115967	0.120117	0.086307	0.006908	0.020446	0.065387	-0.573581	-0.028708	-0.816030	-4.728922	-70.030285	-167.523507
59747		8.558634	0.430699	2.009443	-0.901947	-0.817386	-1.095354	-0.251699	-0.314114	0.028591	-1.022461	0.109375	0.131836	0.085554	0.004345	0.020223	0.065161	-0.575136	-0.027812	-0.814984	-5.024712	-70.233383	-167.322723
59748		8.606345	0.097356	1.978720	-0.960370	-0.500202	-1.047908	-0.301713	-0.400080	0.057680	-1.026855	0.106934	0.129639	0.086023	0.001028	0.019958	0.064504	-0.576888	-0.026528	-0.813840	-5.360181	-70.460512	-167.149682
59749		8.932286	-0.155182	1.927266	-1.102930	-0.287482	-0.744893	-0.349409	-0.469356	0.083797	-1.024902	0.115967	0.135742	0.089278	-0.001480	0.019485	0.063998	-0.579168	-0.025210	-0.812301	-5.777716	-70.759637	-166.885780
59750		9.263831	-0.351395	1.868835	-1.243946	-0.134993	-0.438853	-0.372947	-0.471499	0.107396	-1.024658	0.111572	0.140625	0.092596	-0.003429	0.018913	0.063326	-0.581230	-0.023517	-0.810930	-6.262618	-71.023706	-166.598377
59751		9.487181	-0.622017	1.910880	-1.261078	0.106368	-0.197950	-0.384611	-0.396534	0.127565	-1.025146	0.118408	0.146973	0.094838	-0.006123	0.019309	0.062984	-0.583154	-0.021840	-0.809622	-6.811915	-71.265995	-166.217814
59752		9.477778	-0.792921	1.959150	-1.196629	0.265026	-0.179776	-0.388113	-0.285548	0.146607	-1.025146	0.122803	0.153320	0.094755	-0.007822	0.019742	0.062446	-0.584464	-0.019912	-0.808768	-7.354244	-71.419835	-165.879740
59753		9.410937	-0.952940	2.102017	-1.026900	0.420317	-0.186628	-0.401565	-0.200645	0.165587	-1.025146	0.118408	0.158203	0.094096	-0.009409	0.021134	0.062435	-0.585643	-0.018023	-0.807960	-7.992959	-71.550438	-165.398518
59754		9.378150	-1.046078	2.164765	-0.944358	0.499420	-0.190377	-0.412847	-0.174404	0.165183	-1.020508	0.118408	0.158203	0.093771	-0.010339	0.021751	0.061911	-0.586507	-0.015907	-0.807418	-8.568038	-71.637508	-165.041347
59755		9.542391	-1.148990	2.210462	-0.934040	0.568983	-0.011295	-0.396582	-0.171914	0.156659	-1.025146	0.120605	0.162598	0.095414	-0.011371	0.022209	0.061812	-0.587604	-0.014134	-0.806661	-9.161105	-71.757624	-164.603203
59756		9.725662	-1.202743	2.240244	-0.944232	0.588459	0.178101	-0.367066	-0.161431	0.146345	-1.016357	0.123047	0.162354	0.097247	-0.011915	0.022503	0.061345	-0.588396	-0.012255	-0.806150	-9.683256	-71.836959	-164.274556
59757		10.038713	-1.245286	2.426557	-0.839423	0.599110	0.538692	-0.336540	-0.136270	0.129319	-1.025146	0.122803	0.166748	0.100379	-0.012347	0.024355	0.061312	-0.589306	-0.010760	-0.805508	-10.202519	-71.934219	-163.881595
59758		10.258104	-1.368607	2.629374	-0.707518	0.701179	0.818545	-0.318204	-0.101780	0.114069	-1.027344	0.120605	0.166992	0.102575	-0.013586	0.026368	0.060862	-0.589838	-0.009155	-0.805173	-10.629162	-71.981574	-163.624248
59759		10.288937	-1.388361	2.771705	-0.563477	0.710792	0.894756	-0.302996	-0.068173	0.103755	-1.025146	0.120605	0.169189	0.102887	-0.013788	0.027773	0.060853	-0.590443	-0.007930	-0.804743	-11.049566	-72.040473	-163.305627
59760		10.147250	-1.414334	2.831886	-0.455704	0.736358	0.781494	-0.279192	-0.038372	0.090321	-1.022949	0.120605	0.166992	0.101473	-0.014058	0.028358	0.060424	-0.590704	-0.006533	-0.804596	-11.394266	-72.053794	-163.111054
59761		10.135261	-1.296608	2.970101	-0.295213	0.615563	0.806169	-0.263509	-0.028425	0.085547	-1.023193	0.125244	0.173340	0.101354	-0.012884	0.029732	0.060339	-0.591106	-0.005471	-0.804316	-11.731261	-72.088197	-162.868485
59762		10.165853	-1.184322	3.143675	-0.119837	0.499755	0.881505	-0.254586	-0.026105	0.060900	-1.024902	0.116211	0.176270	0.101658	-0.011772	0.031465	0.059863	-0.591308	-0.004256	-0.804209	-12.007330	-72.097499	-162.731279
59763		10.260975	-1.121301	3.227859	-0.047585	0.424135	0.993877	-0.234715	-0.031846	0.017429	-1.025146	0.120605	0.171387	0.102606	-0.011166	0.032308	0.059710	-0.591783	-0.003616	-0.803874	-12.216605	-72.151589	-162.587571
59764		10.379731	-1.109476	3.360292	0.052275	0.404386	1.146101	-0.200559	-0.039361	-0.017507	-1.025391	0.123047	0.175781	0.103790	-0.011070	0.033634	0.059078	-0.592021	-0.002854	-0.803749	-12.331119	-72.177665	-162.587625
59765		10.392153	-1.028834	3.445454	0.149762	0.326782	1.178094	-0.155562	-0.045721	-0.039365	-1.022705	0.116211	0.178467	0.103912	-0.010282	0.034486	0.058849	-0.592454	-0.002606	-0.803447	-12.404993	-72.235508	-162.553323
59766		10.265375	-0.915969	3.482458	0.239488	0.229554	1.060876	-0.115502	-0.039543	-0.064329	-1.020996	0.127441	0.175537	0.102644	-0.009173	0.034850	0.058281	-0.592667	-0.002325	-0.803333	-12.389214	-72.267511	-162.639018
59767		10.126080	-0.792884	3.572963	0.388792	0.129302	0.946697	-0.080434	-0.040840	-0.059625	-1.022949	0.120850	0.178223	0.101251	-0.007945	0.035753	0.058193	-0.593071	-0.002406	-0.803041	-12.393882	-72.326230	-162.635284
59768		9.969031	-0.679137	3.525409	0.404927	0.029884	0.775346	-0.057111	-0.034974	-0.049752	-1.018311	0.118652	0.176025	0.099682	-0.006806	0.035273	0.057857	-0.593249	-0.002315	-0.802934	-12.368135	-72.353948	-162.696293
59769		9.821699	-0.611883	3.545521	0.480785	-0.020174	0.636204	-0.033807	-0.017782	-0.026420	-1.016113	0.120850	0.178223	0.098213	-0.006126	0.035465	0.057938	-0.593508	-0.002416	-0.802736	-12.386622	-72.390546	-162.663116
