// General information: 
//  MT Manager version: 2019.2.0 
//  XDA version: 2019.2.0 build 3853 rev 94535 built on 2019-09-09
// Device information: 
//  DeviceId: 00B40AC5
//  ProductCode: MTW2-3A7G6
//  Firmware Version: 4.3.5
//  Hardware Version: 1.1.0
// Device settings: 
//  Filter Profile: human(46.1)
//  Option Flags: Orientation Smoother Disabled, AHS Disabled, ICC Disabled
// Coordinate system: ENU
PacketCounter	SampleTimeFine	Acc_X	Acc_Y	Acc_Z	FreeAcc_E	FreeAcc_N	FreeAcc_U	Gyr_X	Gyr_Y	Gyr_Z	Mag_X	Mag_Y	Mag_Z	VelInc_X	VelInc_Y	VelInc_Z	Quat_q0	Quat_q1	Quat_q2	Quat_q3	Roll	Pitch	Yaw
06788		5.002042	-0.866035	8.675201	-0.258979	0.108723	0.234720	-0.093103	-0.569380	-0.136980	-0.719727	0.170898	-0.432861	0.049767	-0.008654	0.086898	0.080919	-0.250188	0.016258	-0.964673	-4.698615	-28.689854	-169.208014
06789		5.221895	-0.932779	8.367556	-0.546825	0.144318	0.078425	-0.079835	-0.600604	-0.176542	-0.721680	0.164307	-0.430420	0.051959	-0.009340	0.083836	0.080036	-0.253216	0.016215	-0.963957	-4.710792	-29.050682	-169.286284
06790		4.760727	-0.906348	8.569359	0.018082	0.208995	0.029849	-0.043144	-0.650913	-0.217397	-0.721680	0.164307	-0.421631	0.047318	-0.009097	0.085850	0.079077	-0.256581	0.015867	-0.963152	-4.686533	-29.455218	-169.380298
06791		4.313401	-1.371799	8.580138	0.407488	0.756784	-0.150036	-0.040624	-0.704399	-0.259202	-0.728271	0.159668	-0.412598	0.042814	-0.013756	0.085955	0.077851	-0.260093	0.015487	-0.962315	-4.650729	-29.879131	-169.508195
06792		4.580437	-1.524985	8.471714	0.180287	0.886303	-0.104066	-0.028986	-0.780840	-0.343326	-0.728271	0.157471	-0.399170	0.045447	-0.015316	0.084897	0.076308	-0.264075	0.014858	-0.961364	-4.578114	-30.363003	-169.680448
06793		5.037626	-1.120691	8.429691	-0.089340	0.443632	0.060905	0.000437	-0.882136	-0.397685	-0.739258	0.150635	-0.392334	0.049981	-0.011307	0.084518	0.074481	-0.268427	0.014031	-0.960314	-4.473590	-30.894419	-169.893407
06794		5.006735	-0.894625	8.493976	0.097070	0.259190	0.083669	-0.021197	-1.001172	-0.450874	-0.743652	0.150391	-0.385742	0.049621	-0.009049	0.085190	0.072440	-0.273454	0.013139	-0.959064	-4.360382	-31.507877	-170.130500
06795		5.292577	-1.116491	9.396609	0.413911	0.484225	1.010763	-0.074762	-1.098328	-0.496476	-0.754639	0.145996	-0.372314	0.052381	-0.011260	0.094259	0.070046	-0.278860	0.012458	-0.957693	-4.263160	-32.166380	-170.404010
06796		4.846725	-0.498738	9.680286	1.139387	-0.027807	0.964474	-0.101287	-1.095236	-0.465834	-0.756592	0.139160	-0.363037	0.047924	-0.005050	0.097069	0.067820	-0.284344	0.011897	-0.956247	-4.185081	-32.833008	-170.652867
06797		5.020183	-0.020400	10.131375	1.424577	-0.493478	1.393251	-0.131033	-1.145457	-0.380133	-0.767822	0.136719	-0.351807	0.049620	-0.000232	0.101599	0.065901	-0.289967	0.011631	-0.954694	-4.156167	-33.513019	-170.850633
06798		5.582531	0.030841	9.959767	1.013718	-0.601740	1.543853	-0.196113	-1.302978	-0.329122	-0.770020	0.134521	-0.343018	0.055175	0.000315	0.099958	0.064194	-0.296437	0.011649	-0.952821	-4.182587	-34.291764	-171.000376
06799		5.621541	0.836724	9.883953	1.195025	-1.394040	1.439883	-0.277312	-1.574133	-0.301975	-0.776367	0.127686	-0.320557	0.055448	0.008421	0.099266	0.062451	-0.304117	0.012055	-0.950509	-4.274879	-35.213584	-171.124610
06800		5.054495	0.612239	10.050332	1.921469	-1.090395	1.234805	-0.354854	-1.918815	-0.260311	-0.785645	0.129883	-0.305176	0.049586	0.006236	0.100971	0.060858	-0.313515	0.012732	-0.947546	-4.435015	-36.340995	-171.193904
06801		4.561432	0.348320	10.103522	2.549280	-0.766467	0.953808	-0.394012	-2.296982	-0.210337	-0.812256	0.125000	-0.282715	0.044454	0.003636	0.101543	0.059403	-0.324592	0.013608	-0.943889	-4.656094	-37.672064	-171.208695
06802		4.084611	0.127972	10.385581	3.347256	-0.485356	0.822779	-0.386027	-2.739088	-0.143501	-0.812012	0.120361	-0.256104	0.039420	0.001452	0.104400	0.058345	-0.337771	0.014367	-0.939308	-4.920053	-39.261842	-171.135351
06803		4.191830	-0.239316	10.200574	3.429134	-0.130972	0.670330	-0.347091	-3.222777	-0.097096	-0.832031	0.115723	-0.224854	0.040266	-0.002235	0.102667	0.057543	-0.353052	0.014930	-0.933713	-5.217641	-41.115600	-170.988954
06804		4.354141	-0.332943	10.200460	3.671719	-0.040068	0.657305	-0.270160	-3.802517	-0.073637	-0.843262	0.115479	-0.184814	0.041591	-0.003206	0.102812	0.057054	-0.370970	0.014951	-0.926770	-5.523381	-43.306580	-170.760202
06805		3.593280	-0.723978	10.898204	5.089759	0.480565	0.485304	-0.162647	-4.409324	-0.096188	-0.856689	0.112793	-0.138184	0.033515	-0.007167	0.109745	0.056636	-0.391445	0.014304	-0.918346	-5.816855	-45.835532	-170.480915
06806		3.876956	-0.846107	11.131789	5.543534	0.629269	0.603966	-0.062069	-5.080112	-0.114720	-0.869873	0.105957	-0.084717	0.035921	-0.008447	0.112257	0.056381	-0.414803	0.012910	-0.908071	-6.114014	-48.753922	-170.121702
06807		2.947670	-0.766544	12.524577	7.770541	0.764402	0.440482	-0.019437	-5.908620	-0.110224	-0.874268	0.101318	-0.020264	0.025756	-0.007668	0.126044	0.056209	-0.441536	0.011138	-0.895412	-6.509314	-52.135219	-169.629133
06808		3.422203	-1.791657	13.677702	8.973969	1.874066	1.044468	0.106907	-6.892645	-0.113885	-0.882813	0.094238	0.057617	0.029473	-0.018008	0.137838	0.056321	-0.472220	0.008457	-0.879639	-7.006423	-56.079561	-168.938092
06809		5.025629	-3.444305	13.847724	8.908825	3.496031	1.899461	0.136823	-7.963518	-0.222486	-0.885010	0.089600	0.137695	0.044654	-0.034590	0.140306	0.055965	-0.506908	0.005123	-0.860166	-7.681095	-60.630687	-168.059107
06810		8.401146	-4.684529	14.521823	8.841189	4.601460	4.465888	0.016948	-8.895325	-0.403335	-0.869141	0.087402	0.228516	0.077352	-0.047018	0.148754	0.054465	-0.544750	0.001537	-0.836826	-8.660267	-65.721168	-166.951886
06811		14.264648	-3.192094	15.780367	9.296760	2.869003	9.362431	-0.295286	-9.452168	-0.569115	-0.848389	0.078369	0.313232	0.134889	-0.032073	0.164350	0.051296	-0.583830	-0.001310	-0.810253	-10.288066	-71.126348	-165.389791
06812		18.708326	-3.071020	17.013851	11.065077	2.730862	12.958302	-0.555858	-9.495426	-0.793920	-0.818604	0.062988	0.409180	0.178605	-0.030941	0.178840	0.046342	-0.621830	-0.003791	-0.781771	-12.852196	-76.558615	-163.056632
06813		21.243161	-3.952619	17.572540	13.173645	3.788006	14.420312	-0.540122	-9.217386	-1.011393	-0.780029	0.054443	0.487305	0.203833	-0.040080	0.185362	0.040485	-0.657348	-0.006913	-0.752467	-17.515170	-81.819751	-158.633722
06814		24.185007	-1.983599	21.025827	18.549023	2.283869	16.283770	-0.270525	-8.470457	-1.188594	-0.743896	0.048096	0.551758	0.232538	-0.020943	0.220268	0.034785	-0.688669	-0.011474	-0.724150	-31.429615	-86.559554	-144.819800
06815		22.724882	-6.041072	24.908803	24.137703	7.055308	13.434752	-0.278216	-7.096270	-1.454563	-0.712158	0.037109	0.598877	0.217777	-0.061664	0.257013	0.028126	-0.713932	-0.016657	-0.699452	-139.805841	-88.503227	-36.564571
06816		7.544572	-8.944559	21.003433	20.723395	10.236065	-3.204205	0.059701	-5.487356	-1.902763	-0.675537	0.021973	0.639404	0.068792	-0.090184	0.211956	0.021187	-0.732671	-0.024360	-0.679817	178.411976	-85.708599	5.281835
06817		-5.718512	-3.908223	9.246478	8.318516	4.375271	-16.527127	0.400906	-5.986540	-2.795806	-0.640869	-0.002197	0.677979	-0.060457	-0.038435	0.090610	0.012404	-0.752290	-0.036539	-0.657701	167.673982	-82.083693	16.302040
06818		40.459544	3.453191	31.675475	37.451876	0.816164	25.522811	-0.106594	-3.291535	-2.888812	-0.635986	-0.017578	0.682861	0.399754	0.028905	0.323344	0.001859	-0.762415	-0.047156	-0.645366	160.838268	-79.816884	23.149903
06819		13.261052	-9.275965	27.819877	28.876847	11.880858	-2.014316	-1.333906	0.229964	-2.110848	-0.644043	-0.039795	0.670410	0.131955	-0.092297	0.278663	-0.009996	-0.761185	-0.050847	-0.646462	153.722953	-79.462913	29.601637
06820		5.738202	-16.600223	18.827254	18.372976	17.995270	-8.562399	-0.366129	1.897422	-1.770751	-0.659668	-0.046631	0.648438	0.057696	-0.166168	0.188030	-0.016693	-0.754482	-0.056358	-0.653683	145.681577	-79.899985	37.545403
06821		1.163013	-13.072522	13.427893	12.520654	13.848668	-11.810487	1.159590	2.797015	-1.460740	-0.675293	-0.051270	0.615234	0.012540	-0.131590	0.133346	-0.016317	-0.744978	-0.065837	-0.663632	136.730255	-80.621593	47.296641
06822		-0.721555	-7.817447	10.005584	9.187828	8.382932	-12.467283	1.781827	3.212430	-1.082508	-0.695557	-0.046875	0.586426	-0.006041	-0.079028	0.099458	-0.012285	-0.733922	-0.075850	-0.674874	126.404517	-81.395919	58.762370
06823		-0.610625	-4.413318	8.186648	7.636738	5.051621	-11.552109	1.620210	3.522519	-0.647438	-0.720459	-0.042725	0.555176	-0.004812	-0.044778	0.081598	-0.007200	-0.721810	-0.083847	-0.686956	114.061369	-82.094213	72.167107
06824		-0.696627	-3.912200	6.810059	6.291525	4.528677	-11.251255	1.077892	3.880723	-0.262109	-0.736328	-0.040771	0.523926	-0.005698	-0.039481	0.068007	-0.002666	-0.708206	-0.088422	-0.700442	98.355172	-82.587375	88.612344
06825		-1.155395	-4.993706	5.740168	5.090029	5.491784	-11.587096	0.705922	4.199931	-0.023493	-0.763428	-0.034180	0.481445	-0.010354	-0.050139	0.057451	0.001595	-0.693400	-0.090967	-0.714786	80.303616	-82.548607	107.217804
06826		-0.864231	-5.497133	5.545094	4.818821	6.063170	-11.126091	0.588217	4.455876	0.068731	-0.779297	-0.031982	0.439209	-0.007388	-0.055137	0.055463	0.005814	-0.677264	-0.092569	-0.729871	62.767399	-81.771905	125.231484
06827		0.162151	-4.751802	6.119802	5.362629	5.593105	-9.713313	0.480051	4.731637	0.116750	-0.795166	-0.030029	0.390381	0.003094	-0.047663	0.061022	0.010041	-0.659914	-0.093716	-0.745406	48.606788	-80.295278	139.838391
06828		1.675244	-3.931522	6.721031	5.767897	5.085785	-7.741248	0.201245	5.070534	0.205087	-0.808594	-0.030029	0.343750	0.018489	-0.039364	0.066717	0.013743	-0.640820	-0.093293	-0.761878	37.673334	-78.241913	151.053857
06829		2.854207	-3.777230	6.994604	5.663105	5.104101	-6.179381	-0.187109	5.453024	0.376353	-0.828857	-0.034424	0.290771	0.030506	-0.037651	0.069167	0.017105	-0.620068	-0.090920	-0.779074	29.317018	-75.758786	159.512820
06830		3.477943	-4.199366	6.817065	5.043864	5.509260	-5.296832	-0.516320	5.786755	0.616667	-0.833496	-0.025635	0.230469	0.036863	-0.041708	0.067232	0.020421	-0.597508	-0.086246	-0.796949	22.639528	-72.918996	166.108966
06831		4.429279	-4.158566	6.609007	4.272659	5.426074	-4.079269	-0.741001	6.017754	0.928372	-0.844971	-0.023193	0.175049	0.046449	-0.041131	0.064867	0.024485	-0.573801	-0.079821	-0.814728	17.231465	-69.866341	171.360499
06832		6.175949	-3.857851	6.307007	3.030840	5.033067	-2.179990	-0.879216	6.183899	1.326509	-0.845459	-0.007568	0.118896	0.063926	-0.037887	0.061283	0.029706	-0.548866	-0.071416	-0.832324	12.558183	-66.622694	175.816572
06833		7.287562	-3.918270	6.665532	2.397340	4.972727	-0.736466	-0.947129	6.313765	1.710199	-0.841553	0.008057	0.053955	0.075264	-0.038237	0.064487	0.036458	-0.523123	-0.061763	-0.849234	8.530631	-63.254101	179.656850
06834		8.813495	-3.803036	7.248833	1.614466	4.658381	1.156635	-0.925630	6.411470	2.084902	-0.835693	0.028320	-0.004395	0.090789	-0.036766	0.069778	0.044729	-0.496310	-0.050956	-0.865493	4.985507	-59.730635	-176.947107
06835		10.404384	-3.122016	7.930044	0.728860	3.651362	3.108064	-0.821031	6.549896	2.488464	-0.811523	0.046631	-0.067139	0.106943	-0.029585	0.075953	0.055101	-0.468559	-0.039692	-0.880818	1.877760	-56.078730	-173.840999
06836		11.202500	-2.062890	8.812657	0.281751	2.185337	4.416408	-0.707973	6.691375	2.851849	-0.796875	0.075928	-0.127930	0.115166	-0.018698	0.084376	0.067170	-0.439432	-0.027812	-0.895329	-0.863867	-52.242492	-170.995474
06837		11.744400	-0.809040	9.759259	-0.061166	0.446996	5.468634	-0.655161	6.763182	3.104293	-0.763916	0.094238	-0.184082	0.120757	-0.005922	0.093568	0.080525	-0.409589	-0.015731	-0.908573	-3.222116	-48.315425	-168.424942
06838		12.038708	0.308882	10.868755	-0.239584	-1.203010	6.359333	-0.642854	6.761052	3.238905	-0.733643	0.123535	-0.233887	0.123893	0.005417	0.104523	0.094274	-0.378987	-0.003251	-0.920582	-5.248536	-44.297941	-166.168129
06839		13.668858	1.339957	12.184594	-1.313990	-3.076563	8.236113	-0.701779	6.750642	3.264253	-0.694092	0.146484	-0.276855	0.140447	0.016088	0.117094	0.108021	-0.348120	0.009383	-0.931158	-6.976055	-40.261939	-164.205877
06840		15.603040	1.381784	12.660738	-3.545351	-4.264482	9.545126	-0.749235	6.757890	3.162707	-0.647461	0.166992	-0.321777	0.159937	0.016788	0.121187	0.120930	-0.316553	0.022186	-0.940573	-8.425930	-36.165266	-162.591620
06841		17.250108	1.341223	13.034182	-5.775275	-5.424930	10.343402	-0.685531	6.747601	2.959622	-0.604980	0.169922	-0.348389	0.176537	0.016438	0.124377	0.132947	-0.284782	0.034190	-0.948712	-9.552448	-32.090743	-161.292548
06842		19.343789	1.889817	13.439270	-8.332617	-7.337046	11.040839	-0.576896	6.721192	2.671834	-0.566895	0.174805	-0.381836	0.197527	0.021894	0.127739	0.143457	-0.252529	0.045313	-0.955822	-10.381131	-28.017774	-160.332010
06843		21.498112	3.313113	13.314585	-11.062410	-10.119962	10.811778	-0.518341	6.772829	2.335109	-0.535645	0.177490	-0.408447	0.218913	0.036004	0.125685	0.152355	-0.219935	0.055596	-0.961938	-10.975490	-23.965563	-159.663848
06844		21.920990	4.666573	12.728043	-12.518958	-12.212022	9.113310	-0.563467	6.748377	1.936400	-0.504395	0.184814	-0.437500	0.222866	0.049156	0.119664	0.158992	-0.187142	0.065644	-0.967156	-11.442465	-19.944955	-159.310635
06845		22.591610	5.890422	11.344891	-14.368979	-14.045048	6.613313	-0.726418	6.516125	1.358928	-0.481934	0.182861	-0.455322	0.229038	0.060847	0.105801	0.162682	-0.155752	0.075598	-0.971371	-11.867464	-16.140185	-159.296456
06846		23.594790	5.888318	9.153651	-16.924536	-14.519674	3.517742	-0.944343	6.116120	0.631242	-0.457520	0.192139	-0.484375	0.238405	0.060042	0.083988	0.162567	-0.126440	0.085681	-0.974804	-12.316781	-12.629800	-159.695759
06847		23.870521	3.305050	6.669824	-19.389456	-11.979765	0.462474	-0.925377	5.584755	-0.226466	-0.437256	0.185791	-0.510742	0.240478	0.033066	0.059846	0.158451	-0.100110	0.094578	-0.977715	-12.691788	-9.542846	-160.525334
06848		24.858613	4.352271	2.651255	-21.502737	-12.448687	-4.670786	-0.794230	5.041785	-1.022570	-0.418945	0.177246	-0.534912	0.249365	0.042337	0.020063	0.150597	-0.076521	0.101952	-0.980342	-12.976287	-6.853166	-161.753105
06849		24.189062	3.703402	-3.046357	-22.437314	-10.133106	-11.183639	-0.962776	4.355759	-1.602235	-0.403320	0.179688	-0.552734	0.241434	0.034934	-0.035897	0.140147	-0.056779	0.109335	-0.982436	-13.385543	-4.641328	-163.217888
06850		23.205016	1.852650	-8.066075	-22.814931	-6.443042	-16.509959	-0.976409	3.284163	-1.984195	-0.389404	0.170898	-0.563477	0.230849	0.015826	-0.084540	0.128313	-0.042431	0.115871	-0.984027	-13.843825	-3.082271	-164.767265
06851		25.782829	3.271349	-9.642225	-25.174269	-7.388828	-18.758818	-0.964014	2.043136	-1.935150	-0.391602	0.166504	-0.572021	0.257122	0.029750	-0.099200	0.117426	-0.034199	0.121528	-0.985024	-14.337641	-2.225537	-166.123570
06852		30.785237	4.309380	-10.568866	-29.970214	-8.683604	-20.027685	-1.014858	1.069278	-1.458090	-0.386963	0.164307	-0.567627	0.307581	0.040308	-0.107543	0.109455	-0.030488	0.126916	-0.985384	-14.888002	-1.851115	-167.081383
06853		28.864982	0.492104	-12.482594	-29.139770	-3.684266	-21.061334	-0.356654	0.316505	-1.137787	-0.391113	0.153320	-0.571533	0.288473	0.003056	-0.125289	0.103630	-0.029931	0.128699	-0.985800	-15.074902	-1.853142	-167.752692
06854		24.624769	-0.211837	-13.968726	-25.390464	-1.532298	-22.242863	1.487331	-1.422584	-1.659762	-0.408447	0.137451	-0.557861	0.247210	-0.003137	-0.137952	0.096645	-0.037373	0.120382	-0.987305	-14.196285	-2.896307	-168.457743
06855		6.629460	7.384651	-12.284756	-6.634518	-5.650075	-22.981206	1.963374	-3.515469	-3.045111	-0.437012	0.116943	-0.545898	0.069557	0.073997	-0.120918	0.084103	-0.055683	0.108414	-0.988975	-12.988473	-5.273014	-169.677770
06856		12.767424	-7.085945	24.878982	-9.918741	0.046002	17.272102	2.555979	-3.418580	-3.731444	-0.453613	0.079102	-0.526855	0.122017	-0.076361	0.249955	0.068265	-0.073676	0.093262	-0.990562	-11.336744	-7.656226	-171.354307
06857		-4.755424	-5.680455	13.017516	6.225231	4.140158	3.164730	2.944696	-2.333699	-2.820511	-0.466064	0.052246	-0.510498	-0.049875	-0.058015	0.128754	0.056484	-0.085609	0.076851	-0.991753	-9.453701	-9.272114	-172.712297
06858		-13.773550	-14.450618	5.559742	13.182120	15.192137	-4.836631	2.426070	-5.073600	-1.378865	-0.503906	0.038330	-0.469971	-0.140052	-0.144178	0.050313	0.052687	-0.110739	0.062777	-0.990465	-8.002242	-12.283585	-173.047682
06859		24.811495	1.352059	19.557128	-18.832693	-6.140946	14.829001	2.593275	-5.793255	-0.731330	-0.520996	0.018066	-0.440430	0.242351	0.010029	0.202793	0.052321	-0.138999	0.048008	-0.987743	-6.522311	-15.638494	-173.039042
06860		17.126333	17.990816	15.404742	-10.042195	-20.873105	8.009484	1.505781	-4.446576	-0.752143	-0.541016	0.010986	-0.417969	0.168434	0.178086	0.159159	0.050773	-0.160873	0.038892	-0.984901	-5.615975	-18.236374	-173.195770
06861		24.483070	-12.346979	21.018978	-16.868870	8.610179	19.080274	2.351211	-4.206175	-0.863856	-0.552002	0.001953	-0.393311	0.239816	-0.127012	0.213789	0.049238	-0.181192	0.025577	-0.981881	-4.172676	-20.689272	-173.496397
06862		21.233955	10.901693	13.225130	-13.779536	-13.357340	9.585203	2.055780	-2.385088	-0.135677	-0.554199	0.004150	-0.386719	0.210807	0.107489	0.135882	0.050815	-0.192582	0.014776	-0.979853	-3.001931	-22.080040	-173.476783
06863		16.222775	13.892179	16.622193	-7.128230	-15.581925	11.135737	0.827145	-1.876608	-0.174751	-0.549805	0.006348	-0.384766	0.160776	0.138088	0.168307	0.050913	-0.201654	0.010115	-0.978080	-2.513663	-23.168518	-173.525074
06864		6.696702	-1.551852	9.837650	-2.319481	0.884181	1.929138	0.386032	-0.949056	-0.088927	-0.550049	0.012939	-0.389404	0.066492	-0.015738	0.098663	0.051017	-0.206409	0.007868	-0.977103	-2.281234	-23.738557	-173.542763
06865		7.308147	0.258685	10.806814	-2.214148	-0.927635	3.013048	0.263846	-0.657959	-0.071354	-0.550293	0.017578	-0.398438	0.072726	0.002418	0.108311	0.050987	-0.209644	0.006375	-0.976427	-2.124203	-24.126560	-173.567660
06866		6.777469	-1.344489	9.643028	-2.299611	0.743401	1.801472	0.140965	-0.363304	-0.099764	-0.548340	0.028564	-0.405518	0.067593	-0.013547	0.096544	0.050762	-0.211598	0.005462	-0.976022	-2.022181	-24.361574	-173.609071
06867		6.458093	0.747246	9.322356	-1.909468	-1.290357	1.316577	0.076144	-0.174977	-0.080678	-0.552979	0.028564	-0.414307	0.064502	0.007411	0.093283	0.050473	-0.212520	0.004999	-0.975839	-1.965027	-24.473117	-173.652051
06868		5.884341	-0.105239	9.511950	-1.373818	-0.372468	1.281799	-0.002877	-0.114041	-0.081079	-0.553223	0.037598	-0.434570	0.058789	-0.001075	0.095153	0.050180	-0.213295	0.004870	-0.975686	-1.947624	-24.565197	-173.687606
06869		5.927929	-0.221427	8.700354	-1.748243	-0.264074	0.568036	0.001626	-0.124879	-0.141539	-0.560303	0.046387	-0.437012	0.059223	-0.002257	0.087041	0.049514	-0.213992	0.004718	-0.975568	-1.916549	-24.649187	-173.770178
06870		5.932389	0.722061	9.004614	-1.521008	-1.193077	0.820317	-0.045103	-0.081847	-0.116402	-0.567383	0.055176	-0.446289	0.059291	0.007206	0.090069	0.049003	-0.214622	0.004765	-0.975455	-1.913569	-24.723618	-173.828785
06871		5.312407	0.492209	9.127316	-0.921428	-0.903107	0.680510	-0.084834	-0.078548	-0.068789	-0.571777	0.057373	-0.450928	0.053090	0.004943	0.091292	0.048598	-0.215113	0.005124	-0.975366	-1.950596	-24.779673	-173.866565
06872		5.227097	0.142038	8.958083	-0.933608	-0.552227	0.502999	-0.102248	-0.103774	-0.061428	-0.583496	0.070557	-0.466797	0.052225	0.001450	0.089607	0.048295	-0.215863	0.005502	-0.975213	-1.994776	-24.865725	-173.889980
06873		5.226353	0.095701	9.259115	-0.795868	-0.508938	0.778001	-0.100320	-0.128113	-0.052095	-0.599365	0.072510	-0.475830	0.052204	0.000990	0.092624	0.047956	-0.216599	0.005942	-0.975064	-2.045505	-24.949878	-173.916068
06874		4.444824	-0.412594	9.169734	-0.155555	0.066966	0.384470	-0.079048	-0.152711	-0.045428	-0.602051	0.081543	-0.482910	0.044377	-0.004100	0.091733	0.047756	-0.217581	0.006212	-0.974854	-2.081007	-25.063670	-173.928221
06875		3.848251	-0.615836	9.585259	0.560054	0.326855	0.514217	-0.056636	-0.189839	-0.066064	-0.622559	0.090088	-0.478760	0.038389	-0.006144	0.095891	0.047399	-0.218607	0.006409	-0.974640	-2.103502	-25.183488	-173.961645
06876		5.109649	-0.080970	9.291412	-0.624486	-0.326895	0.767885	-0.042649	-0.252437	-0.088342	-0.631592	0.094482	-0.487793	0.050979	-0.000812	0.092979	0.047031	-0.220065	0.006432	-0.974330	-2.107544	-25.355047	-173.998818
06877		4.938927	0.299886	8.822284	-0.609147	-0.693262	0.260240	-0.072668	-0.285367	-0.073373	-0.640625	0.096436	-0.485596	0.049264	0.003013	0.088292	0.046623	-0.221560	0.006676	-0.974009	-2.138022	-25.529733	-174.034648
06878		4.553940	-0.004319	9.355140	-0.023773	-0.352733	0.585964	-0.116404	-0.328185	-0.055170	-0.656738	0.103027	-0.485840	0.045386	-0.000001	0.093626	0.046336	-0.223401	0.007076	-0.973599	-2.193892	-25.743943	-174.048964
06879		4.318872	-0.498129	9.376493	0.191983	0.153852	0.519725	-0.139918	-0.367010	-0.054526	-0.667969	0.104980	-0.477051	0.043015	-0.004927	0.093847	0.045947	-0.225307	0.007649	-0.973174	-2.268886	-25.965013	-174.070534
06880		4.328945	-0.141163	9.450000	0.291838	-0.209826	0.576385	-0.155304	-0.408141	-0.047902	-0.670410	0.114014	-0.479736	0.043096	-0.001349	0.094589	0.045654	-0.227542	0.008229	-0.972663	-2.350029	-26.224676	-174.077873
06881		3.478237	-0.538161	9.329435	1.010823	0.252552	0.103984	-0.185849	-0.457042	-0.043971	-0.681885	0.115967	-0.473145	0.034568	-0.005302	0.093378	0.045267	-0.229894	0.009016	-0.972121	-2.455520	-26.497089	-174.089640
06882		4.010326	-0.725554	9.550984	0.676855	0.379998	0.542390	-0.191259	-0.528700	-0.063413	-0.693115	0.120361	-0.466553	0.039848	-0.007177	0.095622	0.044859	-0.232718	0.009725	-0.971460	-2.554581	-26.825870	-174.102929
06883		4.064911	-1.080024	9.641631	0.702568	0.717921	0.658303	-0.175378	-0.591763	-0.086877	-0.699707	0.115723	-0.455322	0.040359	-0.010733	0.096545	0.044282	-0.235720	0.010382	-0.970756	-2.643670	-27.176543	-174.137347
06884		4.268793	-0.509361	9.501681	0.575715	0.124577	0.599642	-0.168174	-0.657112	-0.109319	-0.702393	0.124512	-0.455566	0.042373	-0.005037	0.095161	0.043681	-0.239157	0.010897	-0.969937	-2.718004	-27.579760	-174.175699
06885		4.421516	-0.372461	9.673083	0.606659	-0.032040	0.812166	-0.181518	-0.706844	-0.125312	-0.711182	0.124512	-0.444580	0.043871	-0.003664	0.096890	0.042914	-0.242715	0.011512	-0.969080	-2.800674	-27.997439	-174.230529
06886		4.820114	-0.003833	9.027771	0.060651	-0.440090	0.411614	-0.210507	-0.717463	-0.120850	-0.718018	0.124268	-0.440186	0.047877	0.000028	0.090450	0.042205	-0.246445	0.012205	-0.968160	-2.896472	-28.435330	-174.273754
06887		5.427412	0.123732	8.902729	-0.443523	-0.630467	0.586159	-0.249669	-0.729142	-0.091758	-0.724609	0.122070	-0.424561	0.053950	0.001324	0.089223	0.041517	-0.250116	0.013186	-0.967236	-3.028910	-28.864944	-174.304706
06888		5.102474	0.083156	8.923344	-0.072241	-0.574419	0.450477	-0.251786	-0.735456	-0.062440	-0.727051	0.128662	-0.420410	0.050696	0.000928	0.089419	0.041038	-0.253929	0.014145	-0.966248	-3.167265	-29.311403	-174.307509
06889		4.940178	-0.401500	8.510637	-0.091905	-0.090070	0.035179	-0.265419	-0.738475	-0.046914	-0.733887	0.126221	-0.411377	0.049086	-0.003913	0.085293	0.040546	-0.257637	0.015256	-0.965270	-3.324085	-29.745030	-174.306457
06890		4.803439	-0.615760	8.566123	0.118827	0.120438	0.026088	-0.261549	-0.764030	-0.064985	-0.738281	0.124023	-0.400146	0.047705	-0.006061	0.085852	0.040042	-0.261581	0.016252	-0.964214	-3.468792	-30.207828	-174.307475
06891		5.278655	-0.610470	8.675596	-0.152800	0.059848	0.359596	-0.245975	-0.784051	-0.085124	-0.744873	0.121582	-0.386719	0.052443	-0.006020	0.086969	0.039392	-0.265499	0.017209	-0.963152	-3.603890	-30.668860	-174.327337
06892		5.561376	-0.454978	8.468779	-0.404603	-0.126686	0.320220	-0.241604	-0.788365	-0.112838	-0.742676	0.123779	-0.389160	0.055277	-0.004479	0.084912	0.038683	-0.269549	0.018040	-0.962040	-3.722432	-31.147198	-174.357049
06893		5.608823	-0.444173	8.436382	-0.376816	-0.150234	0.319617	-0.248246	-0.807311	-0.143289	-0.751465	0.119385	-0.375732	0.055744	-0.004377	0.084595	0.037750	-0.273575	0.018924	-0.960923	-3.839898	-31.623795	-174.412723
06894		5.012770	-0.557410	8.620279	0.306085	0.001259	0.169972	-0.253685	-0.820727	-0.165465	-0.744873	0.123779	-0.369141	0.049769	-0.005506	0.086415	0.036771	-0.277777	0.019734	-0.959739	-3.947816	-32.122737	-174.474714
06895		5.202195	-0.741809	8.614672	0.221396	0.160786	0.274440	-0.252161	-0.872647	-0.164558	-0.758057	0.114746	-0.362305	0.051639	-0.007352	0.086382	0.035736	-0.282107	0.020595	-0.958496	-4.061508	-32.637711	-174.540088
06896		5.065426	-0.513148	8.774050	0.533192	-0.065437	0.317291	-0.230132	-0.938138	-0.185531	-0.760498	0.119141	-0.351318	0.050237	-0.005077	0.087983	0.034701	-0.286855	0.021242	-0.957109	-4.151258	-33.204569	-174.608911
06897		5.429079	-0.933783	8.555135	0.189965	0.324977	0.355624	-0.224414	-1.014222	-0.197383	-0.769287	0.112305	-0.337646	0.053847	-0.009295	0.085836	0.033561	-0.291848	0.021897	-0.955625	-4.240163	-33.802000	-174.688437
06898		4.817635	-1.164085	8.423879	0.723555	0.604082	-0.084536	-0.195000	-1.123134	-0.246030	-0.771484	0.110107	-0.333252	0.047688	-0.011617	0.084519	0.032304	-0.297462	0.022254	-0.953927	-4.290750	-34.477071	-174.788997
06899		5.380765	-1.580805	8.688408	0.516870	0.977262	0.469155	-0.118312	-1.277711	-0.289619	-0.784668	0.103271	-0.317383	0.053228	-0.015834	0.087235	0.030906	-0.303684	0.022222	-0.952012	-4.288426	-35.229108	-174.919069
06900		5.598326	-1.176642	8.392874	0.330195	0.579977	0.322347	-0.083978	-1.399689	-0.302532	-0.793457	0.100830	-0.308594	0.055376	-0.011815	0.084323	0.029571	-0.310574	0.021921	-0.949836	-4.257406	-36.064299	-175.047071
06901		5.423865	-0.640846	8.700997	0.828865	0.068442	0.426575	-0.046450	-1.543022	-0.320694	-0.802490	0.098389	-0.295166	0.053555	-0.006474	0.087426	0.028161	-0.318017	0.021456	-0.947424	-4.203791	-36.969139	-175.188986
06902		5.688744	-0.483646	8.889870	0.910730	-0.087847	0.712790	-0.023230	-1.687871	-0.321368	-0.806885	0.096191	-0.277344	0.056127	-0.004917	0.089375	0.026857	-0.326224	0.020793	-0.944682	-4.132315	-37.969298	-175.320914
06903		5.761248	-0.275758	8.923100	1.071105	-0.276133	0.754380	-0.001966	-1.860531	-0.326240	-0.811035	0.087158	-0.263672	0.056774	-0.002850	0.089762	0.025522	-0.335113	0.020061	-0.941619	-4.052972	-39.055543	-175.456916
06904		5.257000	-0.427280	9.102888	1.775221	-0.070979	0.556548	0.017222	-1.988081	-0.294753	-0.826416	0.082520	-0.241455	0.051655	-0.004357	0.091545	0.024432	-0.344665	0.019207	-0.938211	-3.971635	-40.225545	-175.561643
06905		5.865984	-1.119453	8.615120	1.191476	0.621902	0.583100	0.071465	-2.179949	-0.312364	-0.837402	0.071045	-0.220947	0.057699	-0.011316	0.086780	0.023314	-0.354972	0.018108	-0.934411	-3.857601	-41.493498	-175.679802
06906		5.738534	-1.199113	8.485721	1.435754	0.747370	0.373141	0.123626	-2.362794	-0.347493	-0.848633	0.073242	-0.192383	0.056357	-0.012142	0.085520	0.022189	-0.366178	0.016614	-0.930132	-3.689631	-42.878865	-175.817566
06907		6.206205	-1.059773	8.433056	1.318475	0.628082	0.609277	0.193571	-2.583284	-0.398377	-0.856689	0.050781	-0.169189	0.060945	-0.010802	0.085112	0.020918	-0.378252	0.014739	-0.925349	-3.457387	-44.379981	-175.999506
06908		5.695694	-1.222083	8.759767	2.190386	0.867958	0.439583	0.273007	-2.847649	-0.468223	-0.865723	0.048340	-0.133789	0.055673	-0.012472	0.088380	0.019538	-0.391563	0.012269	-0.919862	-3.127875	-46.045253	-176.237051
06909		5.163060	-1.427612	8.971403	3.010578	1.159913	0.125265	0.321694	-3.167078	-0.538749	-0.876709	0.041504	-0.100342	0.050163	-0.014558	0.090493	0.017894	-0.406158	0.009468	-0.913578	-2.720733	-47.882941	-176.547611
06910		5.939062	-0.873215	8.487041	2.482885	0.651145	0.260266	0.384951	-3.534847	-0.632122	-0.889404	0.025635	-0.057617	0.057850	-0.009081	0.085885	0.016009	-0.422394	0.006089	-0.906250	-2.187078	-49.942168	-176.957389
06911		5.836583	-0.652842	8.437568	2.889301	0.517946	0.038900	0.414736	-3.955418	-0.703453	-0.891113	0.010010	-0.014893	0.056658	-0.006906	0.085493	0.013825	-0.440296	0.002450	-0.897743	-1.550562	-52.230177	-177.475313
06912		5.923521	-0.028430	8.355961	3.200330	-0.017992	-0.083843	0.468757	-4.482297	-0.738622	-0.891113	0.007568	0.042969	0.057341	-0.000696	0.084858	0.011642	-0.460427	-0.001607	-0.887620	-0.782460	-54.825979	-178.091336
06913		5.623400	-0.029761	9.504502	4.780559	0.102117	0.140627	0.496894	-5.035024	-0.765572	-0.887939	-0.014648	0.096924	0.053816	-0.000745	0.096419	0.009352	-0.482661	-0.005822	-0.875738	0.125566	-57.723213	-178.845540
06914		6.107982	-0.163688	9.984509	5.469810	0.349726	0.528775	0.583208	-5.671399	-0.766789	-0.885498	-0.019287	0.161377	0.058209	-0.002158	0.101517	0.007273	-0.507380	-0.010505	-0.861627	1.266784	-60.985691	-179.778759
06915		7.041885	0.203668	11.081935	6.643622	0.132585	1.510851	0.623945	-6.458565	-0.754717	-0.873779	-0.034912	0.232910	0.066799	0.001430	0.113021	0.005267	-0.534940	-0.015291	-0.844735	2.706975	-64.679133	179.000331
06916		9.855217	-1.240663	12.224281	7.298887	1.785660	4.026639	0.700386	-7.180549	-0.728608	-0.857666	-0.041504	0.312988	0.094035	-0.013191	0.125628	0.003538	-0.564958	-0.020390	-0.824860	4.696059	-68.775129	177.276618
06917		13.081587	-3.159422	13.425396	8.328151	3.988180	6.797872	0.584220	-7.675021	-0.823369	-0.828125	-0.052490	0.384521	0.125408	-0.032520	0.139042	0.001009	-0.596157	-0.025198	-0.802472	7.760477	-73.106952	174.386470
06918		16.380207	-2.588924	15.250190	10.547737	3.790400	9.724367	0.189189	-7.839431	-0.992355	-0.796143	-0.063477	0.455811	0.157529	-0.026830	0.158735	-0.003382	-0.627113	-0.028937	-0.778383	13.101741	-77.441027	168.981534
06919		18.460445	-1.053328	15.799485	12.279868	2.515275	11.022272	-0.554739	-7.800848	-1.051497	-0.757568	-0.074219	0.525146	0.178200	-0.011030	0.165060	-0.010342	-0.656881	-0.029874	-0.753331	23.427593	-81.524987	158.159433
06920		20.493698	0.228669	17.637618	15.517399	1.444829	12.275789	-1.172340	-7.610064	-1.134123	-0.716553	-0.091553	0.583496	0.198044	0.002214	0.183987	-0.019592	-0.684888	-0.028755	-0.727817	48.768558	-84.759301	131.974673
06921		23.201399	-3.118062	19.180492	18.564464	4.989237	13.553516	-1.022410	-7.163227	-1.348021	-0.677979	-0.100098	0.628174	0.224733	-0.031703	0.200103	-0.029020	-0.710253	-0.028881	-0.702755	97.373166	-85.267856	82.615566
06922		21.191040	-6.520743	22.718892	23.570040	8.298202	9.757358	-0.493863	-6.011107	-1.925663	-0.639160	-0.113037	0.670898	0.204316	-0.066628	0.233570	-0.038408	-0.730713	-0.033063	-0.680801	124.711729	-82.931897	54.854320
06923		6.002873	-9.953292	16.973064	17.482686	10.362077	-6.642379	0.376860	-5.237618	-2.572278	-0.618408	-0.128418	0.702393	0.054272	-0.100577	0.171013	-0.046646	-0.747931	-0.042673	-0.660759	134.141574	-79.873817	45.535258
06924		6.575174	-7.945153	7.960377	8.796222	8.689494	-5.715667	1.266517	-6.381311	-2.789096	-0.573242	-0.136963	0.738281	0.062058	-0.080845	0.081114	-0.052485	-0.768261	-0.055695	-0.635545	140.946826	-76.092172	39.315189
06925		35.456932	-1.373525	27.462262	34.059834	6.841543	18.578999	0.771876	-3.628021	-1.926691	-0.557373	-0.141113	0.745117	0.349350	-0.018194	0.280927	-0.056656	-0.779341	-0.064534	-0.620687	142.947571	-73.768882	37.697233
06926		15.431557	-11.048064	24.194939	26.716222	13.356569	-2.504470	0.055472	-1.462349	-0.914996	-0.550781	-0.136719	0.749512	0.152033	-0.111247	0.243036	-0.059792	-0.783566	-0.067742	-0.614703	143.263942	-72.788780	37.387549
06927		11.786382	-14.324229	18.710551	20.416697	16.103214	-5.566806	0.855046	-0.162838	-0.308124	-0.564697	-0.127930	0.742432	0.117490	-0.144222	0.186586	-0.057461	-0.784263	-0.071477	-0.613614	143.500732	-72.602605	37.648250
06928		6.363895	-10.857902	14.818822	15.321488	11.949414	-9.149507	1.953170	0.889498	0.136383	-0.574219	-0.108154	0.732910	0.064369	-0.109974	0.146834	-0.049114	-0.782069	-0.077019	-0.616461	143.849004	-73.070627	38.437175
06929		3.407375	-5.355234	12.555345	12.586390	6.263751	-10.323245	2.342779	1.522324	0.505444	-0.599609	-0.090576	0.712158	0.035163	-0.054928	0.124651	-0.037822	-0.778122	-0.082581	-0.621511	144.278709	-73.940727	39.384556
06930		2.058424	-1.716169	10.630595	10.627266	2.628131	-10.394043	2.042528	1.989466	0.810608	-0.616455	-0.061768	0.693359	0.021711	-0.018158	0.105912	-0.026590	-0.772532	-0.085947	-0.628570	144.410513	-75.152343	40.441170
06931		2.233210	-0.811180	9.404254	9.514652	1.874186	-9.618772	1.480312	2.500102	0.960632	-0.632568	-0.050781	0.666504	0.023546	-0.008695	0.093690	-0.016794	-0.765250	-0.087164	-0.637583	143.716217	-76.629215	42.027167
06932		2.244879	-1.440123	8.788784	8.804238	2.566966	-9.318314	1.055891	3.102993	0.892800	-0.653320	-0.037598	0.636963	0.023873	-0.014759	0.087448	-0.008622	-0.755668	-0.087162	-0.649072	141.258429	-78.367998	45.141781
06933		2.397700	-1.647506	8.499147	8.459629	2.860711	-8.843354	0.841374	3.737665	0.662908	-0.680420	-0.029053	0.610107	0.025614	-0.016748	0.084453	-0.001678	-0.743780	-0.087486	-0.662672	135.782595	-80.221296	51.199999
06934		2.686566	-1.225046	8.258884	8.225281	2.533855	-8.127647	0.653093	4.353630	0.386522	-0.703369	-0.020264	0.565430	0.028678	-0.012464	0.081937	0.003858	-0.729278	-0.088022	-0.678522	124.826622	-82.029766	62.641527
06935		3.187510	-0.885242	8.007535	7.932810	2.291861	-7.192135	0.386471	4.898048	0.155686	-0.732422	-0.022949	0.518799	0.033830	-0.008980	0.079245	0.007934	-0.712566	-0.088599	-0.695944	105.564080	-83.322744	82.277220
06936		4.006650	-0.775927	7.650329	7.425085	2.261568	-5.950246	0.048414	5.348136	0.044958	-0.755127	-0.018555	0.467773	0.042094	-0.007768	0.075394	0.010539	-0.693634	-0.088152	-0.714836	78.729308	-83.477247	109.287002
06937		4.754032	-0.878307	7.132344	6.617946	2.368061	-4.830944	-0.290265	5.704168	0.056715	-0.777588	-0.020996	0.423340	0.049551	-0.008667	0.069942	0.012232	-0.673073	-0.086536	-0.734394	54.482012	-82.187642	133.546263
06938		5.818330	-1.349704	6.836475	5.829691	2.851911	-3.466836	-0.557593	5.928127	0.183755	-0.793213	-0.025391	0.361328	0.060188	-0.013255	0.066638	0.013490	-0.651020	-0.083254	-0.754360	37.961047	-79.883868	149.914844
06939		7.423567	-1.472834	6.705957	5.006608	3.012948	-1.562038	-0.743471	6.114185	0.381484	-0.809082	-0.020996	0.305664	0.076268	-0.014340	0.064802	0.015038	-0.627931	-0.078712	-0.774133	27.359801	-77.051175	160.291034
06940		8.889511	-1.571272	6.644884	4.066875	3.074986	0.167816	-0.880634	6.303059	0.638675	-0.824951	-0.014404	0.243408	0.090980	-0.015140	0.063671	0.017109	-0.603416	-0.072566	-0.793934	19.901382	-73.868707	167.442466
06941		10.173385	-1.776421	6.706055	3.083428	3.173627	1.676072	-0.941399	6.489072	0.928334	-0.833984	-0.014404	0.185791	0.103919	-0.016980	0.063793	0.020292	-0.577820	-0.065390	-0.813287	14.366677	-70.479418	172.682430
06942		11.156754	-1.887633	6.809908	2.062922	3.088805	2.858083	-0.902677	6.671427	1.235941	-0.832275	0.001465	0.118652	0.113870	-0.017881	0.064408	0.024765	-0.550721	-0.057215	-0.832358	9.964780	-66.871707	176.819499
06943		11.714577	-1.644727	6.859417	1.058506	2.567968	3.573758	-0.789651	6.817840	1.531083	-0.828369	0.010498	0.058350	0.119514	-0.015278	0.064608	0.030895	-0.522623	-0.048791	-0.850606	6.444224	-63.139254	-179.802193
06944		12.121945	-0.904591	6.914707	0.085493	1.494147	4.088764	-0.655157	6.872067	1.795373	-0.824219	0.021973	-0.008545	0.123573	-0.007726	0.064954	0.038355	-0.493464	-0.040007	-0.867998	3.546878	-59.285343	-176.958545
06945		12.845882	0.076516	7.101715	-0.965210	0.136163	4.830233	-0.584856	6.856498	1.977714	-0.804688	0.037842	-0.073486	0.130774	0.002250	0.066555	0.046844	-0.463984	-0.031208	-0.884054	1.182086	-55.416180	-174.554619
06946		13.381248	0.823132	7.352469	-1.958010	-1.034449	5.313192	-0.607237	6.809494	2.069871	-0.780518	0.051514	-0.131592	0.136115	0.009846	0.068888	0.055495	-0.433907	-0.021908	-0.898980	-0.807242	-51.497330	-172.545708
06947		13.681902	1.216900	7.748383	-2.765225	-1.861672	5.598324	-0.670561	6.708834	2.065375	-0.751709	0.063232	-0.185059	0.139176	0.013848	0.072796	0.064030	-0.403981	-0.012499	-0.912438	-2.460034	-47.630703	-170.885756
06948		14.660849	1.178019	8.285446	-4.026763	-2.356034	6.407627	-0.769929	6.594575	1.971552	-0.713867	0.074951	-0.232178	0.149104	0.013548	0.077915	0.071725	-0.373874	-0.002705	-0.924698	-3.861650	-43.775120	-169.577453
06949		15.673257	0.902069	9.038198	-5.292816	-2.657889	7.303058	-0.855572	6.517089	1.843129	-0.682617	0.079834	-0.265381	0.159470	0.010854	0.085171	0.078705	-0.343946	0.007071	-0.935659	-5.044130	-39.979852	-168.547610
06950		16.244870	0.994309	9.559631	-6.438497	-3.312512	7.614578	-0.932231	6.447579	1.737461	-0.656006	0.089111	-0.296875	0.165319	0.011800	0.090245	0.084846	-0.313747	0.017111	-0.945553	-6.088213	-36.187160	-167.754122
06951		16.550828	1.176395	9.789262	-7.562219	-4.035304	7.436541	-1.043788	6.358203	1.678217	-0.622314	0.089600	-0.332275	0.168397	0.013661	0.092501	0.090568	-0.283902	0.027401	-0.954173	-7.061256	-32.467435	-167.097389
06952		16.322362	0.961961	9.597685	-8.517136	-4.268186	6.575508	-1.140474	6.229948	1.677217	-0.598145	0.103516	-0.363770	0.166014	0.011532	0.090772	0.095949	-0.254179	0.038164	-0.961629	-8.013221	-28.785302	-166.544587
06953		16.207037	0.477451	9.668569	-9.386364	-4.242204	6.003697	-1.152473	5.994410	1.684810	-0.575684	0.101563	-0.392578	0.164819	0.006694	0.091738	0.101413	-0.225552	0.048736	-0.967712	-8.909641	-25.255371	-166.034936
06954		17.307205	0.186604	9.956229	-11.151639	-4.674670	6.073321	-1.055028	5.758322	1.730420	-0.555664	0.108398	-0.415039	0.175814	0.003887	0.094509	0.107061	-0.197579	0.058801	-0.972647	-9.717436	-21.824165	-165.559482
06955		18.441845	0.287645	10.107080	-12.928486	-5.507238	5.831150	-0.902472	5.645904	1.802023	-0.542725	0.119873	-0.446289	0.187134	0.004995	0.095794	0.113250	-0.170077	0.067997	-0.976537	-10.406367	-18.467798	-165.073477
06956		18.189574	1.170412	9.757006	-13.421362	-6.706622	4.406784	-0.757698	5.576714	1.892880	-0.511719	0.131348	-0.479980	0.184397	0.013798	0.092402	0.119836	-0.142465	0.076524	-0.979534	-10.991079	-15.115101	-164.587552
06957		17.781807	2.219885	9.342076	-13.607191	-7.976690	2.816558	-0.758088	5.446387	1.982574	-0.482666	0.138672	-0.515869	0.180038	0.024318	0.088448	0.126899	-0.115516	0.084908	-0.981500	-11.551870	-11.841733	-164.064024
06958		17.002272	1.756188	8.284353	-13.795632	-7.556711	0.830263	-0.793687	5.292382	1.940417	-0.453857	0.145752	-0.544922	0.171951	0.019541	0.078235	0.133622	-0.089116	0.093312	-0.982597	-12.097068	-8.638110	-163.594801
06959		15.511191	1.077100	6.929698	-13.250403	-6.588614	-1.402885	-0.709213	5.063564	1.745785	-0.431641	0.157227	-0.571777	0.156696	0.012371	0.065301	0.139504	-0.063956	0.100950	-0.982984	-12.553126	-5.599190	-163.228845
06960		14.123152	0.514779	6.053141	-12.541950	-5.718422	-3.006790	-0.490733	4.699851	1.425938	-0.395996	0.162109	-0.589600	0.142559	0.006304	0.057177	0.143921	-0.040431	0.107109	-0.982944	-12.853857	-2.788656	-163.025843
06961		13.750850	1.373003	5.606540	-12.252893	-6.461385	-4.291278	-0.373666	4.246722	1.082958	-0.366943	0.169189	-0.614258	0.138580	0.014580	0.053104	0.146895	-0.019327	0.112219	-0.982576	-13.073954	-0.287164	-162.961650
06962		14.493291	2.478397	4.761048	-12.888523	-7.606025	-5.956579	-0.523934	3.795693	0.821494	-0.337891	0.169678	-0.634277	0.145697	0.025501	0.044784	0.148724	-0.000602	0.117668	-0.981853	-13.378172	1.938047	-163.000806
06963		14.658565	2.070549	2.838160	-13.332664	-6.863923	-8.289769	-0.796852	3.358897	0.612210	-0.313477	0.180908	-0.636719	0.146969	0.021261	0.025831	0.149766	0.015568	0.124085	-0.980781	-13.844439	3.882228	-163.107465
06964		14.504884	1.435172	0.684472	-13.412274	-5.678311	-10.691264	-0.967711	2.859076	0.398815	-0.293457	0.187988	-0.648193	0.145097	0.014667	0.004700	0.150030	0.029075	0.130942	-0.979541	-14.415876	5.523275	-163.283122
06965		15.149449	0.875805	-1.030420	-14.139947	-4.827858	-12.654786	-0.982011	2.307103	0.203213	-0.282471	0.192627	-0.657227	0.151353	0.008855	-0.012094	0.149686	0.039682	0.137465	-0.978327	-15.006317	6.822667	-163.501828
06966		16.935581	1.432847	-2.038586	-15.590333	-5.461813	-14.298682	-0.906639	1.820021	0.051210	-0.266846	0.197266	-0.666260	0.169157	0.014275	-0.021991	0.148902	0.047870	0.143254	-0.977249	-15.559227	7.829322	-163.744400
06967		17.923741	1.493644	-3.615312	-16.381503	-5.205824	-16.223693	-0.802573	1.470411	-0.066901	-0.258301	0.208496	-0.666504	0.178970	0.014728	-0.037529	0.147750	0.054322	0.148303	-0.976332	-16.060995	8.620888	-164.007732
06968		16.564315	0.614220	-5.403366	-15.199377	-3.361610	-17.662900	-0.513070	0.980297	-0.202040	-0.258301	0.206299	-0.673096	0.165382	0.005835	-0.054860	0.146238	0.058468	0.151589	-0.975816	-16.398166	9.116581	-164.270168
06969		15.688359	-0.767943	-6.375194	-14.697423	-1.467241	-18.130737	-0.004917	0.243493	-0.401159	-0.258057	0.201660	-0.670654	0.156790	-0.007996	-0.063943	0.144140	0.059263	0.151929	-0.976027	-16.446130	9.176880	-164.527470
06970		15.678543	-0.892426	-5.306936	-14.828645	-1.639080	-17.037667	0.614706	-0.599999	-0.629593	-0.262207	0.188477	-0.663574	0.156915	-0.009256	-0.052627	0.141416	0.056153	0.148686	-0.977108	-16.135045	8.730627	-164.769481
06971		16.772253	-1.433937	-2.878666	-16.256401	-2.140104	-14.587214	1.145114	-1.309835	-0.891951	-0.281982	0.179199	-0.663330	0.167841	-0.014927	-0.027772	0.137746	0.049813	0.142431	-0.978907	-15.524169	7.860606	-165.053612
06972		15.548558	-0.767554	-0.300006	-15.112917	-3.134850	-11.862088	1.628782	-1.871726	-1.198968	-0.299316	0.161133	-0.660400	0.155455	-0.008591	-0.001613	0.132881	0.040733	0.133460	-0.981260	-14.642198	6.627202	-165.428406
06973		13.770941	3.118307	4.597259	-12.607642	-7.513731	-7.560496	1.484609	-2.250531	-1.352775	-0.321289	0.145508	-0.646729	0.137384	0.029903	0.047745	0.127469	0.029686	0.124965	-0.983491	-13.840077	5.177945	-165.859173
06974		-17.886149	1.133181	26.595770	17.263400	-3.535297	16.981558	-0.725164	-2.629379	-1.725215	-0.348145	0.145020	-0.635498	-0.182225	0.013853	0.263530	0.120822	0.014996	0.127091	-0.984391	-14.302427	3.453265	-166.438655
06975		-26.312283	-30.817810	16.465474	18.669653	30.985411	14.770478	1.249615	-2.541051	-2.165922	-0.381104	0.122314	-0.630371	-0.268494	-0.306296	0.159348	0.111703	0.001780	0.119574	-0.986520	-13.629002	1.732081	-167.286900
06976		-21.633313	-20.293010	-0.872769	16.833018	24.162053	-6.195711	4.260292	-4.607462	-2.380212	-0.417725	0.079590	-0.602295	-0.218382	-0.200021	-0.018025	0.102687	-0.020152	0.095966	-0.989869	-11.195980	-1.156710	-168.041490
06977		8.411136	-7.556054	9.674893	-8.805390	4.035063	1.480838	4.339473	-7.235479	-1.380050	-0.472900	0.052246	-0.576904	0.080046	-0.078240	0.098016	0.099708	-0.054454	0.070583	-0.991015	-8.709477	-5.385428	-168.098981
06978		22.939687	3.252846	18.602478	-18.821572	-9.938011	10.911385	3.457004	-6.417942	0.163625	-0.515137	0.038330	-0.541016	0.223236	0.029407	0.193782	0.103699	-0.084582	0.050310	-0.989728	-6.811308	-9.032315	-167.498667
06979		7.276171	19.875513	12.444881	-0.457147	-21.713770	1.633632	2.602539	-6.351874	-0.090717	-0.550293	0.015625	-0.498047	0.068797	0.197062	0.129248	0.105916	-0.114720	0.034103	-0.987146	-5.388953	-12.665954	-167.153242
06980		12.210150	20.760190	12.246764	-4.169571	-23.226095	3.343136	1.411793	-6.811946	-1.093454	-0.597168	0.012695	-0.453613	0.118933	0.206055	0.128013	0.102493	-0.147879	0.022898	-0.983414	-4.510228	-16.628084	-167.440660
06981		21.527562	-4.735463	13.417456	-16.470416	0.178477	10.045422	0.628408	-6.563562	-0.946867	-0.625977	-0.001221	-0.406738	0.210494	-0.048795	0.140984	0.099021	-0.179938	0.015764	-0.978554	-4.068539	-20.428360	-167.710354
06982		57.038305	-12.210634	23.454953	-45.490304	1.396213	33.555432	3.066941	-3.912343	-0.824283	-0.625488	-0.012451	-0.388428	0.565155	-0.128134	0.243706	0.098111	-0.197766	-0.001937	-0.975325	-2.176262	-22.715349	-168.074369
06983		10.013651	19.296658	14.079072	0.183382	-20.096127	6.525856	1.342735	-1.345860	-0.585443	-0.629883	-0.019043	-0.370605	0.099743	0.191720	0.142753	0.096586	-0.203743	-0.009690	-0.974200	-1.279501	-23.505987	-168.409785
06984		8.412436	-0.470736	11.385100	-3.081168	-0.359623	4.007061	0.557687	-1.074498	-0.462159	-0.620850	-0.019043	-0.361572	0.083499	-0.005219	0.114287	0.094964	-0.208931	-0.013434	-0.973216	-0.849904	-24.155902	-168.671899
06985		9.103702	0.910813	9.910617	-3.927147	-1.824726	2.961262	0.504715	-0.751593	-0.339429	-0.614258	-0.014648	-0.353027	0.090679	0.008703	0.099470	0.093806	-0.212411	-0.016567	-0.972526	-0.480623	-24.598583	-168.876234
06986		7.191692	0.077306	9.660689	-2.419882	-0.616817	1.969450	0.205454	-0.346559	-0.276951	-0.596436	-0.012207	-0.350830	0.071750	0.000574	0.096732	0.092767	-0.214232	-0.018063	-0.972200	-0.292054	-24.828511	-169.034445
06987		5.950907	-0.149745	9.810441	-1.270213	-0.129554	1.591266	0.127791	-0.162935	-0.284158	-0.589844	-0.005371	-0.353271	0.059427	-0.001645	0.098152	0.091526	-0.215026	-0.019030	-0.972124	-0.149251	-24.932339	-169.209908
06988		6.262984	-1.050526	9.387994	-1.877499	0.703458	1.342717	0.153852	-0.057978	-0.283178	-0.576172	-0.007324	-0.355469	0.062588	-0.010666	0.093890	0.090428	-0.215469	-0.020149	-0.972106	0.012983	-24.996397	-169.373824
06989		5.745976	0.177008	9.103647	-1.309826	-0.409291	0.866298	0.129812	0.032837	-0.288724	-0.572021	-0.000732	-0.357910	0.057477	0.001628	0.091028	0.089186	-0.215309	-0.021042	-0.972237	0.158720	-24.987200	-169.552756
06990		6.123172	0.624299	8.701448	-1.734253	-0.915097	0.663623	0.134073	0.020589	-0.281897	-0.561035	0.006104	-0.373535	0.061249	0.006098	0.087012	0.088081	-0.215379	-0.022028	-0.972300	0.309388	-25.005639	-169.715936
06991		5.663589	0.747588	8.808587	-1.265650	-0.928905	0.568138	0.114204	0.055283	-0.245749	-0.550293	0.017334	-0.380615	0.056669	0.007356	0.088074	0.087033	-0.215121	-0.022789	-0.972435	0.434653	-24.982934	-169.867559
06992		3.120707	-0.060148	9.829168	1.275395	0.373017	0.414198	0.075453	0.097330	-0.215993	-0.545898	0.024170	-0.394287	0.031254	-0.000672	0.098276	0.086197	-0.214852	-0.023388	-0.972554	0.534163	-24.957296	-169.988525
06993		3.559642	-0.430348	9.779617	0.791567	0.675921	0.551371	0.068990	0.010669	-0.176742	-0.539063	0.021973	-0.407471	0.035598	-0.004369	0.097793	0.085430	-0.214837	-0.023874	-0.972613	0.615099	-24.960063	-170.096687
06994		4.136587	0.485565	9.433607	0.300182	-0.332328	0.489715	0.038449	-0.046611	-0.128067	-0.541992	0.035400	-0.416748	0.041347	0.004811	0.094347	0.084962	-0.215291	-0.024258	-0.972545	0.670294	-25.016652	-170.163285
06995		5.243274	1.105972	9.013653	-0.747155	-1.142244	0.584335	0.008156	-0.068713	-0.085962	-0.544189	0.035400	-0.427734	0.052407	0.011034	0.090155	0.084562	-0.215698	-0.024385	-0.972486	0.692504	-25.065335	-170.214716
06996		4.691215	0.892720	9.378989	-0.127406	-0.812782	0.679835	-0.032484	-0.080943	-0.033031	-0.551514	0.050781	-0.439453	0.046876	0.008935	0.093807	0.084475	-0.216359	-0.024338	-0.972348	0.682057	-25.142120	-170.221592
06997		4.532714	0.714201	9.469529	0.032323	-0.607726	0.692415	-0.059974	-0.102208	0.006428	-0.558594	0.059814	-0.450928	0.045279	0.007172	0.094716	0.084447	-0.216970	-0.024048	-0.972221	0.640581	-25.210622	-170.214816
06998		5.006608	0.262389	8.835751	-0.713942	-0.291508	0.317009	-0.056555	-0.164999	0.019886	-0.561035	0.066406	-0.462158	0.049993	0.002654	0.088398	0.084581	-0.218055	-0.023864	-0.971972	0.602477	-25.335801	-170.188748
06999		4.693109	0.523265	8.587450	-0.474115	-0.525412	-0.038103	-0.069723	-0.164386	0.044491	-0.579102	0.072754	-0.473633	0.046859	0.005273	0.085911	0.084719	-0.218976	-0.023511	-0.971761	0.545159	-25.440136	-170.158100
07000		5.195331	0.138331	8.612380	-0.954753	-0.227445	0.198325	-0.090273	-0.166649	0.047229	-0.590820	0.081543	-0.476074	0.051881	0.001434	0.086166	0.084948	-0.220086	-0.023135	-0.971499	0.480144	-25.566401	-170.114439
07001		4.256974	0.234887	9.204267	0.165816	-0.137213	0.328771	-0.102160	-0.139033	0.057240	-0.599854	0.088135	-0.483154	0.042505	0.002408	0.092071	0.085115	-0.220898	-0.022600	-0.971313	0.400438	-25.656202	-170.075238
07002		3.825198	-0.931101	9.364150	0.433484	1.084884	0.277976	-0.058012	-0.142951	0.042617	-0.611572	0.099121	-0.487793	0.038187	-0.009276	0.093672	0.085360	-0.221878	-0.022375	-0.971073	0.354858	-25.768765	-170.034117
07003		4.089363	-0.244370	8.856872	0.120399	0.323314	-0.060368	-0.028799	-0.154366	0.017883	-0.620605	0.103516	-0.494629	0.040825	-0.002427	0.088601	0.085415	-0.222730	-0.022247	-0.970876	0.327889	-25.867157	-170.019783
07004		4.407184	-0.067623	9.369516	0.110054	0.141092	0.540265	-0.047247	-0.139960	-0.002259	-0.636719	0.114258	-0.488525	0.044006	-0.000655	0.093726	0.085451	-0.223683	-0.022121	-0.970657	0.300556	-25.977569	-170.007272
07005		4.866899	-0.260176	9.042725	-0.456308	0.230646	0.447129	-0.038272	-0.107787	-0.017943	-0.645752	0.109863	-0.490479	0.048620	-0.002589	0.090454	0.085327	-0.224308	-0.021967	-0.970527	0.278014	-26.049159	-170.015504
07006		5.020292	0.059909	8.915607	-0.574454	-0.117485	0.402554	-0.016921	-0.103678	-0.027177	-0.655029	0.118652	-0.495361	0.050157	0.000600	0.089182	0.085279	-0.225068	-0.021999	-0.970354	0.274874	-26.138592	-170.018811
07007		4.176150	0.081638	9.010575	0.228155	0.001014	0.116325	-0.016356	-0.085997	-0.028374	-0.661621	0.118408	-0.497559	0.041723	0.000818	0.090124	0.085131	-0.225577	-0.021954	-0.970250	0.267810	-26.197673	-170.033621
07008		5.431539	0.230233	8.667803	-0.991056	-0.364218	0.364276	0.023148	-0.076053	-0.037148	-0.668701	0.125000	-0.493408	0.054283	0.002282	0.086699	0.085082	-0.226184	-0.022180	-0.970108	0.290434	-26.271139	-170.043313
07009		4.921716	-0.233800	8.793109	-0.560584	0.185254	0.249526	-0.000591	-0.035168	-0.042380	-0.677490	0.122803	-0.488770	0.049201	-0.002348	0.087940	0.084889	-0.226437	-0.022205	-0.970065	0.296339	-26.301052	-170.066946
07010		4.305868	-0.311882	8.781498	-0.027948	0.360329	-0.034044	0.005859	-0.022222	-0.069329	-0.680176	0.131592	-0.482422	0.043048	-0.003136	0.087820	0.084671	-0.226787	-0.022361	-0.969999	0.318117	-26.343622	-170.097070
07011		3.997220	0.282774	9.280350	0.568831	-0.133252	0.278958	0.008351	-0.016509	-0.088080	-0.684570	0.133789	-0.487061	0.039966	0.002806	0.092807	0.084269	-0.226941	-0.022473	-0.969996	0.342127	-26.362681	-170.149888
07012		3.851846	-0.426647	9.431817	0.646758	0.603888	0.345804	-0.020074	-0.023523	-0.075392	-0.689209	0.133789	-0.482666	0.038506	-0.004272	0.094323	0.083990	-0.227306	-0.022510	-0.969934	0.350808	-26.405704	-170.184086
07013		4.297691	-0.032646	9.233179	0.239757	0.133245	0.368058	-0.013765	-0.043231	-0.087132	-0.691650	0.138184	-0.482666	0.042957	-0.000339	0.092341	0.083564	-0.227599	-0.022526	-0.969901	0.362001	-26.440056	-170.236444
07014		4.428526	0.392836	8.889900	0.056394	-0.330104	0.121312	-0.017638	-0.045165	-0.084364	-0.691406	0.131348	-0.478027	0.044267	0.003918	0.088909	0.083241	-0.228064	-0.022592	-0.969818	0.374667	-26.495127	-170.276708
07015		4.522413	0.083394	9.029019	-0.011458	-0.026373	0.285903	-0.034901	-0.069858	-0.082195	-0.691162	0.124756	-0.466797	0.045193	0.000831	0.090306	0.082812	-0.228495	-0.022511	-0.969755	0.372493	-26.544740	-170.326071
07016		4.407294	0.050496	9.337135	0.233008	0.050992	0.509714	-0.037721	-0.091005	-0.085420	-0.697998	0.131348	-0.467041	0.044031	0.000504	0.093391	0.082454	-0.229189	-0.022500	-0.969622	0.374218	-26.625905	-170.367356
07017		4.449732	-0.102667	9.052228	0.055361	0.174583	0.272942	-0.026346	-0.101115	-0.101108	-0.697998	0.129150	-0.464600	0.044451	-0.001037	0.090545	0.081940	-0.229765	-0.022495	-0.969530	0.382584	-26.693352	-170.429040
07018		4.672855	-0.013415	9.069412	-0.103009	0.059298	0.389070	-0.034975	-0.112155	-0.107321	-0.697998	0.129150	-0.460205	0.046678	-0.000143	0.090720	0.081476	-0.230556	-0.022531	-0.969380	0.392393	-26.786328	-170.484696
07019		4.515257	-0.107959	9.459617	0.206692	0.210513	0.665696	-0.041253	-0.126797	-0.117009	-0.700195	0.128906	-0.458008	0.045092	-0.001086	0.094625	0.080864	-0.231261	-0.022483	-0.969265	0.397089	-26.868412	-170.556815
07020		4.252577	-0.344000	9.612505	0.485952	0.498629	0.681034	-0.045091	-0.150748	-0.133429	-0.702148	0.117920	-0.446533	0.042451	-0.003447	0.096158	0.080256	-0.232238	-0.022515	-0.969081	0.409012	-26.983193	-170.629689
07021		3.901892	0.056497	9.931207	1.023304	0.183971	0.806908	-0.048542	-0.200252	-0.148482	-0.695557	0.122314	-0.448975	0.038920	0.000560	0.099351	0.079474	-0.233298	-0.022498	-0.968891	0.419216	-27.107211	-170.722565
07022		3.771713	0.013474	9.894953	1.146474	0.247454	0.711588	-0.077816	-0.318273	-0.176142	-0.699951	0.120117	-0.446533	0.037560	0.000140	0.099009	0.078600	-0.235091	-0.022487	-0.968529	0.425792	-27.317375	-170.824253
07023		4.640211	0.223355	9.733213	0.388746	-0.089628	0.964952	-0.082206	-0.464814	-0.193260	-0.706543	0.117920	-0.442139	0.046178	0.002229	0.097439	0.077532	-0.237438	-0.022463	-0.968043	0.431393	-27.592761	-170.947696
07024		5.119365	0.280390	9.504825	-0.061924	-0.219409	0.984342	-0.089197	-0.647004	-0.206989	-0.710938	0.117676	-0.435547	0.050889	0.002794	0.095212	0.076454	-0.240816	-0.022562	-0.967292	0.442906	-27.990721	-171.071900
07025		4.322708	0.161309	10.055627	0.948637	0.063377	1.092489	-0.109792	-0.813842	-0.202586	-0.717529	0.110840	-0.428467	0.042819	0.001625	0.100730	0.075267	-0.244856	-0.022550	-0.966371	0.438317	-28.466016	-171.204099
07026		4.039201	0.082636	10.312712	1.408791	0.213403	1.171059	-0.123998	-1.033744	-0.219346	-0.724121	0.108643	-0.419678	0.039859	0.000846	0.103334	0.074039	-0.250102	-0.022643	-0.965119	0.437475	-29.085211	-171.339814
07027		4.080700	-0.072216	10.207714	1.424475	0.365962	1.081813	-0.156934	-1.242089	-0.246555	-0.730713	0.101807	-0.408203	0.040171	-0.000692	0.102328	0.072527	-0.256208	-0.022618	-0.963632	0.424318	-29.805698	-171.504522
07028		4.572102	-0.011692	9.968030	1.046760	0.241189	1.101057	-0.176674	-1.471760	-0.264508	-0.741943	0.104004	-0.395020	0.044986	-0.000088	0.100013	0.070955	-0.263553	-0.022673	-0.961765	0.413737	-30.675122	-171.674655
07029		4.412315	0.168781	10.187534	1.497962	0.119251	1.188294	-0.197325	-1.758964	-0.280819	-0.757568	0.099121	-0.381592	0.043227	0.001727	0.102256	0.069158	-0.272125	-0.022680	-0.959505	0.396228	-31.691676	-171.867320
07030		4.262311	0.354856	10.217521	1.879573	-0.020531	1.103054	-0.183789	-2.068001	-0.283404	-0.764160	0.096924	-0.357178	0.041569	0.003583	0.102605	0.067403	-0.282284	-0.022933	-0.956685	0.397490	-32.902163	-172.057120
07031		3.917230	0.290682	10.151744	2.361268	0.102517	0.812538	-0.205705	-2.383921	-0.294262	-0.783936	0.087646	-0.332520	0.037963	0.002955	0.101972	0.065442	-0.293788	-0.023128	-0.953347	0.391519	-34.276761	-172.266966
07032		4.162299	0.633626	10.119372	2.463333	-0.236121	0.864245	-0.186269	-2.718566	-0.337297	-0.797119	0.078613	-0.307617	0.040253	0.006362	0.101741	0.063328	-0.306954	-0.023659	-0.949320	0.427136	-35.858957	-172.505262
07033		4.460338	0.227013	9.595439	2.169124	0.129099	0.545299	-0.169061	-3.106787	-0.375392	-0.815186	0.078125	-0.278809	0.043110	0.002270	0.096630	0.060925	-0.321756	-0.024375	-0.944546	0.495017	-37.647139	-172.787597
07034		3.833471	0.291456	9.782329	3.122229	0.190305	0.221174	-0.112345	-3.546491	-0.394965	-0.830566	0.069092	-0.247559	0.036598	0.002896	0.098481	0.058518	-0.338643	-0.025593	-0.938745	0.626812	-39.701990	-173.092260
07035		3.556479	0.613129	10.125780	3.970461	-0.018678	0.176062	-0.020810	-4.084747	-0.382687	-0.845703	0.053223	-0.204834	0.033499	0.006076	0.101955	0.056164	-0.357784	-0.027294	-0.931714	0.823386	-42.049347	-173.417220
07036		3.635408	0.192073	10.005020	4.209684	0.452930	-0.045073	0.116992	-4.675292	-0.405145	-0.865723	0.048340	-0.149170	0.034006	0.001791	0.100865	0.053905	-0.379567	-0.029906	-0.923108	1.153086	-44.747703	-173.790697
07037		4.492570	0.358063	10.123641	4.198763	0.324824	0.436027	0.228946	-5.251201	-0.420938	-0.874512	0.045898	-0.089355	0.042255	0.003373	0.102373	0.051602	-0.403626	-0.033126	-0.912867	1.604544	-47.759724	-174.239671
07038		5.282449	-0.959819	10.126724	4.084383	1.695740	0.759972	0.331060	-5.808354	-0.458588	-0.887451	0.030029	-0.028809	0.049833	-0.009884	0.102727	0.049255	-0.429976	-0.037083	-0.900733	2.231192	-51.099688	-174.806734
07039		5.732427	-1.550123	11.154512	5.183512	2.516118	1.431499	0.552478	-6.423761	-0.568320	-0.887207	0.025391	0.042236	0.053659	-0.015969	0.113264	0.046673	-0.458514	-0.042314	-0.886451	3.201739	-54.770771	-175.631033
07040		6.960794	-2.021509	12.170961	6.025539	3.242527	2.587643	0.648926	-6.991506	-0.645529	-0.891113	0.011719	0.111572	0.065233	-0.020830	0.123974	0.043840	-0.489081	-0.048305	-0.869796	4.551199	-58.763737	-176.792715
07041		8.515422	-3.298090	12.601707	6.345233	4.749580	3.576165	0.740506	-7.479530	-0.708961	-0.875244	0.007324	0.191650	0.080249	-0.033745	0.128956	0.040733	-0.520996	-0.054820	-0.850822	6.430187	-63.001219	-178.461272
07042		10.003584	-1.329163	13.821337	8.057659	3.219915	4.932499	0.716043	-7.862978	-0.831745	-0.861328	-0.006104	0.269775	0.094445	-0.014196	0.141951	0.036905	-0.553790	-0.061606	-0.829554	9.191903	-67.419944	178.954700
07043		12.848132	-0.548970	14.392648	8.836987	2.849959	7.101816	0.517625	-8.149743	-0.834124	-0.845215	-0.012695	0.347656	0.122453	-0.006390	0.148983	0.032336	-0.586838	-0.067470	-0.806241	13.195724	-71.920695	175.000122
07044		15.595273	-0.753960	14.502531	9.497813	3.473465	8.937674	0.485849	-8.147555	-0.881775	-0.813477	-0.016846	0.418701	0.149840	-0.008572	0.151194	0.027448	-0.618914	-0.073279	-0.781551	19.851783	-76.275702	168.375889
07045		17.526560	-0.659491	15.602308	11.653140	3.990122	10.163261	0.422453	-7.906724	-0.952622	-0.784180	-0.023438	0.485596	0.168883	-0.007749	0.162769	0.022108	-0.648973	-0.078859	-0.756391	31.957769	-80.143902	156.260831
07046		23.001263	0.069473	18.487570	15.383399	4.478822	14.961320	0.521187	-7.285136	-0.916725	-0.747803	-0.029785	0.539063	0.223076	-0.000835	0.193086	0.017444	-0.675745	-0.084542	-0.732063	54.135269	-82.897358	134.151622
07047		21.211346	-3.111843	20.945706	19.013739	8.248209	11.832343	0.766123	-5.828226	-1.007136	-0.718506	-0.036133	0.577148	0.205731	-0.032983	0.215391	0.013864	-0.696347	-0.091174	-0.711755	82.994453	-83.609205	105.537755
07048		1.557764	-3.360408	14.673037	13.975637	5.715661	-8.823408	1.236717	-4.885287	-1.176657	-0.696045	-0.033691	0.610352	0.011790	-0.034589	0.146837	0.011732	-0.712929	-0.099934	-0.693980	106.662730	-82.685084	82.413336
07049		14.009991	7.032666	12.626715	14.203649	-2.935025	4.141136	1.121202	-5.653922	-1.845757	-0.668457	-0.053467	0.644287	0.137086	0.068328	0.130558	0.006479	-0.731292	-0.110643	-0.673000	123.999740	-80.316488	65.535504
07050		24.907698	7.430111	28.033360	30.718516	1.064923	12.917927	-1.045158	-1.868061	-1.684082	-0.663574	-0.064453	0.644775	0.247069	0.073687	0.282261	-0.004079	-0.736641	-0.113274	-0.666718	125.237424	-78.913801	63.661018
07051		9.294271	-6.363291	19.314371	18.825900	10.534722	-3.937465	-1.467972	-0.535452	-1.751447	-0.660400	-0.088867	0.638916	0.091871	-0.063019	0.193855	-0.015645	-0.737414	-0.114767	-0.665436	122.937324	-77.907858	65.146022
07052		8.107225	-8.078443	15.483596	14.766306	11.423634	-5.102449	-0.673185	0.516570	-1.809578	-0.677979	-0.102295	0.628174	0.080740	-0.080995	0.154900	-0.023907	-0.734559	-0.119134	-0.667577	118.977799	-77.175037	68.792822
07053		4.795651	-5.568333	12.609219	11.997702	7.994028	-7.544060	-0.045418	1.187158	-1.455735	-0.675293	-0.113525	0.615234	0.048297	-0.056005	0.125819	-0.028243	-0.729752	-0.124418	-0.671703	114.745189	-76.736430	73.106383
07054		4.092750	-3.141659	10.425352	10.083184	5.277278	-7.407307	0.001865	1.712775	-0.805688	-0.700195	-0.106934	0.588379	0.041691	-0.031584	0.103898	-0.029941	-0.723440	-0.127459	-0.677858	110.131522	-76.692162	77.830193
07055		3.007198	-3.207291	8.144182	7.709312	4.838774	-8.137089	-0.197943	2.193258	-0.175948	-0.711182	-0.111572	0.568604	0.030935	-0.032019	0.081137	-0.029872	-0.715883	-0.127697	-0.685794	104.803135	-76.973642	83.181432
07056		1.676073	-3.706612	6.305356	5.745622	4.794514	-9.261686	-0.250154	2.548529	0.282882	-0.727295	-0.107178	0.539551	0.017615	-0.036963	0.062879	-0.028242	-0.707188	-0.126035	-0.695127	98.459322	-77.435910	89.519040
07057		1.072268	-3.385969	4.942798	4.414762	4.182928	-9.574601	-0.168289	2.759127	0.590987	-0.738525	-0.104980	0.517334	0.011503	-0.033785	0.049301	-0.025058	-0.697940	-0.123690	-0.704948	91.324122	-77.911423	96.719104
07058		1.098307	-3.041007	4.336324	3.833647	3.783678	-9.320056	-0.070163	2.904431	0.789747	-0.756592	-0.100830	0.486084	0.011731	-0.030350	0.043207	-0.020798	-0.688055	-0.120860	-0.715221	83.222950	-78.292224	104.934317
07059		1.089953	-2.835455	4.360209	3.848136	3.601499	-9.135812	0.037337	3.002724	0.878718	-0.768311	-0.087646	0.458984	0.011677	-0.028313	0.043425	-0.015725	-0.677833	-0.118220	-0.725478	74.596779	-78.460953	113.757921
07060		1.654024	-2.179695	4.953696	4.424370	3.169290	-8.262287	0.085250	3.107311	0.941238	-0.784424	-0.081055	0.427734	0.017409	-0.021737	0.049262	-0.010264	-0.666980	-0.115382	-0.736016	65.498200	-78.363526	123.071476
07061		3.016324	-1.781906	5.709817	4.980613	3.130741	-6.609107	0.033095	3.295218	1.001270	-0.793701	-0.069824	0.396240	0.031187	-0.017674	0.056587	-0.004580	-0.655401	-0.112270	-0.746876	56.336399	-77.953465	132.446627
07062		4.155544	-1.714328	6.265579	5.226030	3.304908	-5.205713	-0.049192	3.586616	1.063622	-0.805420	-0.061035	0.364990	0.042760	-0.016903	0.061900	0.001159	-0.642422	-0.108470	-0.758635	47.193764	-77.156031	141.754553
07063		5.071748	-1.520789	6.652245	5.265494	3.257429	-3.986753	-0.119853	3.913961	1.135825	-0.812256	-0.054443	0.326904	0.052091	-0.014875	0.065521	0.007193	-0.628130	-0.104277	-0.771056	38.741426	-75.964788	150.368589
07064		5.848590	-1.090554	6.839852	5.079419	2.880569	-2.879620	-0.223004	4.230914	1.231430	-0.822021	-0.034424	0.281738	0.059981	-0.010464	0.067152	0.013353	-0.612236	-0.099172	-0.784317	31.112731	-74.370364	158.100371
07065		6.581471	-0.691676	7.014424	4.798695	2.478321	-1.824601	-0.361742	4.519424	1.368574	-0.831055	-0.036621	0.246338	0.067422	-0.006334	0.068645	0.019840	-0.595118	-0.093190	-0.797970	24.518210	-72.453128	164.759030
07066		7.483520	-0.539607	7.238939	4.380271	2.276393	-0.630921	-0.495334	4.793530	1.509756	-0.833984	-0.014404	0.187988	0.076578	-0.004646	0.070580	0.026519	-0.576462	-0.086014	-0.812151	18.800191	-70.205118	170.466000
07067		8.201104	-0.641207	7.331955	3.757165	2.226562	0.302850	-0.593177	5.062238	1.628568	-0.839111	-0.000977	0.143066	0.083879	-0.005521	0.071229	0.033584	-0.556555	-0.078166	-0.826443	13.999440	-67.694437	175.239765
07068		8.717054	-0.591026	7.462463	3.166554	1.966606	1.054498	-0.633650	5.294035	1.720878	-0.839355	0.008057	0.098389	0.089150	-0.004917	0.072299	0.040884	-0.535133	-0.069637	-0.840900	9.964183	-64.915025	179.219947
07069		9.259251	-0.580558	7.624160	2.507016	1.705048	1.804786	-0.667370	5.499747	1.794741	-0.837646	0.023682	0.046875	0.094688	-0.004713	0.073674	0.048539	-0.512624	-0.060834	-0.855079	6.628335	-61.954360	-177.484075
07070		9.555855	-0.793537	7.653029	1.731362	1.600632	2.225091	-0.671379	5.673584	1.853163	-0.829590	0.043945	-0.004883	0.097745	-0.006786	0.073802	0.056338	-0.488743	-0.051612	-0.869075	3.833756	-58.795684	-174.742591
07071		9.419387	-0.871993	7.506937	1.016028	1.337774	2.144386	-0.652051	5.803988	1.900454	-0.821045	0.057617	-0.052002	0.096395	-0.007572	0.072319	0.064475	-0.464050	-0.042436	-0.882440	1.524456	-55.534205	-172.445006
07072		9.106005	-0.788566	7.536361	0.571901	0.948325	1.979973	-0.639271	5.834461	1.973362	-0.810547	0.080078	-0.110352	0.093277	-0.006737	0.072687	0.072795	-0.438581	-0.032946	-0.895133	-0.455250	-52.182943	-170.478520
07073		9.182822	-0.755902	7.863055	0.133851	0.606375	2.282406	-0.621508	5.792940	2.051578	-0.784180	0.091553	-0.161865	0.094124	-0.006362	0.075947	0.081539	-0.413094	-0.023503	-0.906726	-2.154942	-48.847393	-168.744047
07074		9.273428	-0.308212	8.405835	-0.111102	-0.149518	2.703962	-0.616930	5.725622	2.126490	-0.757813	0.107666	-0.208984	0.095113	-0.001825	0.081365	0.090430	-0.387307	-0.013790	-0.917401	-3.659563	-45.489869	-167.206218
07075		9.484605	0.443432	9.235785	-0.205163	-1.227615	3.372647	-0.698430	5.630491	2.192355	-0.731445	0.125977	-0.253906	0.097336	0.005809	0.089622	0.099490	-0.361855	-0.003754	-0.926903	-5.036094	-42.187290	-165.803463
07076		10.295438	0.910911	10.132537	-0.799382	-2.195193	4.469314	-0.864800	5.536504	2.252119	-0.700684	0.144043	-0.287842	0.105591	0.010718	0.098382	0.108313	-0.336362	0.007247	-0.935455	-6.374270	-38.883117	-164.538680
07077		11.462132	0.668457	11.004984	-1.907723	-2.641229	5.751601	-1.019177	5.496941	2.284588	-0.667236	0.151367	-0.323486	0.117496	0.008566	0.106806	0.117050	-0.311056	0.018863	-0.942967	-7.661353	-35.606553	-163.384656
07078		13.006055	-0.284447	11.861160	-3.616716	-2.599587	7.216476	-1.028689	5.562973	2.252174	-0.636230	0.162842	-0.352783	0.133308	-0.000758	0.114941	0.125388	-0.284930	0.030603	-0.949819	-8.813812	-32.248342	-162.406772
07079		13.616923	-1.270447	12.244162	-4.994195	-2.374566	7.687825	-0.820917	5.713818	2.112801	-0.602783	0.172363	-0.388428	0.139714	-0.010749	0.118530	0.133337	-0.257942	0.041110	-0.956032	-9.685932	-28.831721	-161.625065
07080		13.658873	-0.844357	12.300594	-5.821523	-3.337311	7.317652	-0.532510	5.828077	1.932607	-0.562744	0.179443	-0.410889	0.140166	-0.006780	0.118975	0.140536	-0.229784	0.050134	-0.961736	-10.261945	-25.333839	-161.060487
07081		13.391160	0.382624	12.000870	-6.314097	-4.898328	6.297306	-0.406095	5.813687	1.739944	-0.529053	0.182129	-0.437500	0.137282	0.005249	0.116041	0.146936	-0.201662	0.058176	-0.966622	-10.665231	-21.886285	-160.645429
07082		14.052625	1.621610	11.757412	-7.506703	-6.694700	5.584663	-0.518541	5.666910	1.534944	-0.504639	0.187012	-0.464355	0.143649	0.017608	0.113489	0.152040	-0.174001	0.066465	-0.970665	-11.062122	-18.516773	-160.386857
07083		15.256670	1.568879	10.888770	-9.671598	-7.354340	4.542500	-0.712054	5.521169	1.294494	-0.479736	0.185059	-0.484131	0.155386	0.017066	0.104565	0.155833	-0.147336	0.075243	-0.973831	-11.508891	-15.278443	-160.268370
07084		15.732757	1.595286	9.873682	-11.104448	-7.762880	2.989499	-0.799999	5.344902	0.980100	-0.450684	0.189941	-0.501953	0.159808	0.017115	0.094421	0.157888	-0.121415	0.084066	-0.976352	-11.954768	-12.154053	-160.350812
07085		15.984759	1.570157	8.450164	-12.308899	-7.881177	0.943109	-0.830604	5.089006	0.633482	-0.426270	0.192627	-0.526611	0.161876	0.016552	0.080332	0.158315	-0.097010	0.092520	-0.978246	-12.386892	-9.236247	-160.609965
07086		15.652100	1.005991	6.755711	-13.012754	-7.117287	-1.351175	-0.731434	4.707614	0.277931	-0.403564	0.190674	-0.539795	0.158038	0.010517	0.063811	0.157064	-0.074346	0.099978	-0.979698	-12.749959	-6.561383	-161.049907
07087		16.042894	0.241253	5.448934	-14.199961	-6.323623	-3.070736	-0.521667	4.207763	-0.084500	-0.387939	0.190918	-0.561768	0.161529	0.002481	0.051092	0.154352	-0.054259	0.105809	-0.980834	-12.998426	-4.230783	-161.631454
07088		17.092228	0.233593	3.884934	-15.688234	-6.261247	-5.129516	-0.346599	3.704891	-0.427661	-0.369873	0.188965	-0.586182	0.171607	0.002033	0.035671	0.150166	-0.036552	0.110263	-0.981813	-13.159591	-2.215586	-162.352639
07089		19.126982	0.113961	2.591138	-17.996656	-6.321580	-6.864400	-0.352881	3.243842	-0.707277	-0.351563	0.180420	-0.590332	0.191659	0.000504	0.022804	0.144857	-0.021366	0.114311	-0.982595	-13.346647	-0.508235	-163.167959
07090		21.116250	-0.317584	0.223607	-20.332673	-5.705600	-9.609809	-0.452096	2.891161	-0.952383	-0.338135	0.178467	-0.599121	0.211147	-0.004181	-0.000808	0.138479	-0.008059	0.118530	-0.983214	-13.612109	0.972972	-164.082150
07091		21.324399	-0.128704	-2.514380	-20.675055	-4.960408	-12.808885	-0.604224	2.432932	-1.106495	-0.329346	0.180664	-0.614746	0.212905	-0.002547	-0.027729	0.131598	0.002741	0.123154	-0.983620	-13.988393	2.166692	-165.025176
07092		21.644943	0.545053	-5.534108	-20.901082	-4.558696	-16.275666	-0.807078	1.739907	-1.147900	-0.322754	0.187500	-0.612793	0.215983	0.003982	-0.057239	0.124930	0.009975	0.128290	-0.983786	-14.493039	2.962387	-165.902390
07093		21.045036	0.000481	-8.016058	-20.489564	-2.908701	-18.692889	-0.816014	0.795910	-1.093269	-0.318115	0.180908	-0.610107	0.210124	-0.001474	-0.080993	0.119118	0.012593	0.132877	-0.983868	-15.003593	3.235210	-166.619644
07094		22.161976	-2.252679	-8.489661	-22.152431	-0.645733	-18.596078	-0.187870	-0.295708	-1.191627	-0.333496	0.176270	-0.610107	0.221605	-0.023927	-0.084547	0.113529	0.010092	0.133709	-0.984445	-15.147024	2.879177	-167.225950
07095		23.931109	0.086789	-6.759169	-23.429504	-3.478105	-17.384943	0.822505	-1.144577	-1.455668	-0.344482	0.165039	-0.603027	0.239692	-0.000602	-0.066221	0.107122	0.003866	0.129104	-0.985821	-14.706999	2.021971	-167.857817
07096		22.691286	3.512843	-2.846298	-21.566931	-7.258592	-13.994607	1.163086	-1.761207	-1.720507	-0.357422	0.151367	-0.591553	0.227442	0.033330	-0.026264	0.099833	-0.005504	0.122461	-0.987424	-14.061513	0.778201	-168.549535
07097		-0.978191	1.808891	8.841050	1.702708	-3.577721	-1.646304	1.624330	-2.504547	-2.208199	-0.379150	0.133301	-0.584229	-0.010694	0.017485	0.088424	0.090530	-0.018494	0.113138	-0.989273	-13.133864	-0.922872	-169.436395
07098		-9.980453	-7.033448	22.973238	10.200361	3.670666	13.836403	1.763793	-2.101393	-2.579632	-0.389648	0.108887	-0.567871	-0.103120	-0.071035	0.228036	0.079209	-0.029771	0.103203	-0.991054	-12.091101	-2.444954	-170.601882
07099		-16.349371	-12.213935	10.793333	15.345988	12.371127	2.202309	2.997032	-2.285632	-2.662571	-0.408691	0.077393	-0.562256	-0.166320	-0.121518	0.104219	0.067656	-0.041360	0.087055	-0.993043	-10.307950	-4.034937	-171.840819
07100		-13.268045	-2.391679	5.723657	13.464431	3.282192	-5.079281	3.689925	-4.731988	-2.374459	-0.443848	0.056885	-0.530518	-0.134257	-0.023341	0.053638	0.058732	-0.064799	0.066617	-0.993939	-8.110012	-6.949039	-172.743359
07101		17.973463	3.820678	16.491760	-14.517122	-7.779897	8.575695	2.621035	-5.879712	-0.986080	-0.479004	0.034180	-0.500977	0.174953	0.035125	0.170582	0.056640	-0.093624	0.051546	-0.992658	-6.593039	-10.371740	-172.869574
07102		16.269480	12.717858	17.124937	-10.793206	-15.945531	8.863293	1.546194	-5.212909	-0.545645	-0.496826	0.029541	-0.474121	0.158485	0.125392	0.176391	0.056053	-0.119343	0.042133	-0.990374	-5.712742	-13.395140	-172.849832
07103		13.637564	14.178363	16.210467	-7.372079	-16.722488	7.955253	0.433574	-5.259282	-0.740002	-0.521484	0.026855	-0.438477	0.132568	0.140931	0.165931	0.053763	-0.145461	0.038090	-0.987167	-5.435148	-16.444924	-172.979296
07104		17.558534	-1.508878	17.069447	-11.368190	-1.544630	11.871640	-0.326781	-4.725339	-0.444734	-0.528320	0.031006	-0.412109	0.171454	-0.015190	0.174803	0.052314	-0.169117	0.038064	-0.983470	-5.624539	-19.187496	-172.958807
07105		35.575143	-16.309701	18.718222	-28.140743	11.202056	21.243663	1.782305	-2.853628	-0.213056	-0.537109	0.028809	-0.409912	0.352871	-0.165163	0.190765	0.053334	-0.182784	0.028405	-0.981294	-4.617879	-20.836391	-172.928508
07106		4.045224	9.727421	10.302382	1.008580	-10.433632	0.543062	1.051406	-1.721368	0.055748	-0.541748	0.033203	-0.407715	0.039534	0.096741	0.103876	0.054916	-0.191177	0.022816	-0.979752	-4.059281	-21.845598	-172.800019
07107		12.257068	1.836530	11.509642	-6.655022	-3.471196	5.344349	0.539047	-1.497856	-0.207708	-0.541992	0.041992	-0.410400	0.121723	0.017927	0.116059	0.054606	-0.198470	0.019601	-0.978388	-3.731487	-22.719533	-172.861105
07108		8.775658	-1.603779	9.652376	-4.372840	0.459393	2.573546	0.461936	-0.784251	-0.151631	-0.541992	0.041992	-0.412598	0.087365	-0.016328	0.096829	0.054512	-0.202440	0.016938	-0.977630	-3.442394	-23.202087	-172.910159
07109		6.619785	0.073550	10.724736	-1.734021	-0.918238	2.637067	0.304336	-0.543483	-0.150637	-0.546875	0.051025	-0.428467	0.065907	0.000522	0.107428	0.054151	-0.205111	0.015187	-0.977122	-3.244516	-23.527646	-172.980079
07110		5.663959	-0.560117	10.070471	-1.131781	-0.131807	1.698609	0.270699	-0.401333	-0.159441	-0.547119	0.053223	-0.432861	0.056433	-0.005783	0.100810	0.053793	-0.207258	0.013554	-0.976712	-3.055562	-23.791149	-173.051375
07111		6.107172	0.771763	9.772705	-1.483509	-1.469942	1.546769	0.174929	-0.307178	-0.128604	-0.551758	0.062012	-0.439941	0.060926	0.007593	0.097827	0.053388	-0.208805	0.012521	-0.976419	-2.932706	-23.980445	-173.117689
07112		5.838048	0.122012	9.124451	-1.533690	-0.768463	0.883595	0.123614	-0.272384	-0.128864	-0.565430	0.066162	-0.448975	0.058257	0.001126	0.091325	0.053016	-0.210355	0.011672	-0.976117	-2.832950	-24.168645	-173.175588
07113		5.585045	0.714219	9.403237	-1.102101	-1.313302	1.012479	0.060658	-0.266685	-0.092777	-0.572510	0.072754	-0.455811	0.055728	0.007088	0.094109	0.052664	-0.211731	0.011245	-0.975843	-2.783550	-24.333565	-173.221524
07114		5.745098	0.146356	9.075040	-1.405916	-0.756316	0.809706	0.007260	-0.258716	-0.042903	-0.581787	0.083984	-0.460693	0.057334	0.001448	0.090825	0.052587	-0.213236	0.011058	-0.975522	-2.771915	-24.511167	-173.226497
07115		5.610445	-0.252638	9.406773	-1.158603	-0.341420	1.076267	0.004061	-0.200919	-0.009498	-0.588623	0.088135	-0.465332	0.056010	-0.002531	0.094124	0.052577	-0.214301	0.011013	-0.975289	-2.775572	-24.636117	-173.222256
07116		5.170015	0.175343	9.536482	-0.639720	-0.718607	0.993729	-0.038191	-0.160580	-0.003283	-0.609131	0.096924	-0.479004	0.051624	0.001771	0.095406	0.052637	-0.215335	0.011116	-0.975057	-2.799148	-24.756159	-173.205466
07117		5.497092	0.275074	9.199654	-1.047191	-0.857944	0.821908	-0.072339	-0.158754	0.017612	-0.614014	0.107910	-0.472656	0.054898	0.002789	0.092039	0.052675	-0.216212	0.011483	-0.974857	-2.853270	-24.856211	-173.185311
07118		4.690788	0.117871	9.401602	-0.228092	-0.622370	0.673880	-0.107249	-0.154774	0.034745	-0.621094	0.112305	-0.479492	0.046835	0.001237	0.094052	0.052844	-0.217230	0.011966	-0.974616	-2.926557	-24.971420	-173.144702
07119		4.528881	-0.575936	9.353715	-0.152134	0.073480	0.594324	-0.111650	-0.140218	0.049333	-0.639160	0.116455	-0.472900	0.045225	-0.005696	0.093572	0.052992	-0.218025	0.012564	-0.974422	-3.011612	-25.059879	-173.104815
07120		4.401729	-1.038777	8.775809	-0.310570	0.540414	0.040261	-0.058026	-0.122516	0.025489	-0.643799	0.120850	-0.481934	0.043965	-0.010357	0.087788	0.053165	-0.218867	0.012807	-0.974221	-3.054126	-25.156265	-173.071120
07121		4.993651	-1.385237	8.245669	-1.090076	0.820070	-0.169778	0.015098	-0.104533	-0.046172	-0.655029	0.123047	-0.477783	0.049890	-0.013870	0.082482	0.052984	-0.219461	0.012693	-0.974099	-3.040537	-25.227167	-173.092628
07122		5.695975	-0.685485	8.128287	-1.692002	0.058176	-0.008770	0.084861	-0.034900	-0.141627	-0.659912	0.131836	-0.473633	0.056941	-0.006930	0.081290	0.052491	-0.219845	0.012084	-0.974047	-2.955268	-25.277973	-173.167892
07123		4.978179	-1.158675	8.412050	-0.970456	0.622308	-0.037295	0.109858	0.037845	-0.209160	-0.668701	0.129395	-0.475830	0.049786	-0.011685	0.084105	0.051611	-0.219730	0.011366	-0.974128	-2.841279	-25.272075	-173.297318
07124		4.090256	-1.284623	8.660243	-0.079723	0.863327	-0.188316	0.151738	0.073931	-0.272905	-0.666748	0.131836	-0.475830	0.040917	-0.012968	0.086578	0.050543	-0.219571	0.010318	-0.974232	-2.680956	-25.263604	-173.459364
07125		2.223364	-2.079332	8.914232	1.630032	1.870377	-0.725601	0.206394	0.013463	-0.282625	-0.677734	0.129395	-0.473633	0.022210	-0.020917	0.089119	0.049413	-0.219553	0.009044	-0.974306	-2.492137	-25.272926	-173.634546
07126		3.022637	-0.811391	9.702169	1.374897	0.562269	0.272954	0.261232	-0.104011	-0.268781	-0.679932	0.129395	-0.468994	0.030165	-0.008281	0.097027	0.048489	-0.220225	0.007428	-0.974215	-2.272527	-25.364350	-173.789706
07127		3.508036	-0.369554	9.713466	0.995585	0.106006	0.472827	0.179931	-0.126863	-0.281428	-0.679688	0.122559	-0.462158	0.035013	-0.003832	0.097153	0.047341	-0.220895	0.006249	-0.974128	-2.100148	-25.452881	-173.961003
07128		4.011235	0.403000	9.512405	0.540526	-0.685363	0.481793	0.139469	-0.110106	-0.280238	-0.682129	0.126953	-0.458008	0.040066	0.003907	0.095149	0.046224	-0.221617	0.005214	-0.974024	-1.946544	-25.546213	-174.124556
07129		3.818339	-0.414887	9.283752	0.552158	0.165542	0.217646	0.093731	-0.069333	-0.237776	-0.684326	0.126953	-0.460205	0.038146	-0.004238	0.092849	0.045192	-0.222025	0.004517	-0.973983	-1.834232	-25.600176	-174.270086
07130		4.309136	0.927933	9.462344	0.314176	-1.196675	0.552393	0.080542	-0.063666	-0.176683	-0.686523	0.124756	-0.457764	0.043069	0.009203	0.094641	0.044510	-0.222525	0.003896	-0.973903	-1.741835	-25.663751	-174.369685
07131		5.144497	0.147577	9.192994	-0.611349	-0.484700	0.693980	0.027845	-0.065801	-0.129542	-0.688721	0.118164	-0.453125	0.051416	0.001430	0.091947	0.043931	-0.222927	0.003640	-0.973838	-1.696658	-25.713438	-174.446816
07132		5.237519	0.372507	9.140339	-0.689533	-0.710148	0.681902	-0.013720	-0.042120	-0.112878	-0.686523	0.120361	-0.450928	0.052358	0.003702	0.091414	0.043454	-0.223338	0.003553	-0.973765	-1.675329	-25.762969	-174.506656
07133		4.833786	0.013074	9.260236	-0.300211	-0.313095	0.624241	-0.031209	-0.027383	-0.097062	-0.688477	0.117920	-0.446533	0.048325	0.000122	0.092609	0.042966	-0.223565	0.003629	-0.973735	-1.672509	-25.790057	-174.563944
07134		4.893753	-0.049883	8.858988	-0.527111	-0.257790	0.291206	-0.026761	-0.027620	-0.107046	-0.692871	0.113525	-0.450684	0.048925	-0.000513	0.088597	0.042501	-0.223905	0.003616	-0.973677	-1.660045	-25.830805	-174.620574
07135		4.256452	-0.249344	8.757157	-0.012216	-0.003622	-0.072709	-0.027484	-0.026359	-0.150817	-0.690674	0.113525	-0.446289	0.042551	-0.002513	0.087578	0.041756	-0.224127	0.003614	-0.973658	-1.640088	-25.858172	-174.712133
07136		4.388422	-1.093772	8.815267	-0.161716	0.835720	0.058427	0.008891	-0.099973	-0.231641	-0.692871	0.111328	-0.446289	0.043827	-0.010992	0.088174	0.040723	-0.224810	0.003274	-0.973546	-1.573058	-25.941890	-174.847102
07137		4.441099	-0.122593	8.936232	-0.066612	-0.122181	0.166051	0.019948	-0.136503	-0.282048	-0.697021	0.102295	-0.443848	0.044348	-0.001297	0.089392	0.039395	-0.225560	0.002871	-0.973428	-1.489823	-26.034182	-175.020577
07138		3.746912	-0.491998	9.383128	0.741254	0.318176	0.270655	-0.025226	-0.146609	-0.281571	-0.699463	0.106689	-0.448242	0.037393	-0.004961	0.093859	0.038078	-0.226473	0.002634	-0.973269	-1.428213	-26.144564	-175.187341
07139		3.561193	-0.382672	9.520024	0.994477	0.234035	0.307372	-0.010808	-0.179959	-0.286835	-0.701416	0.100098	-0.447998	0.035521	-0.003873	0.095232	0.036692	-0.227439	0.002366	-0.973098	-1.360715	-26.261442	-175.363759
07140		3.521340	-0.736994	9.613015	1.072085	0.602441	0.377538	-0.021964	-0.235142	-0.323371	-0.699219	0.097900	-0.447998	0.035088	-0.007416	0.096172	0.035174	-0.228775	0.002051	-0.972841	-1.285094	-26.422065	-175.556939
07141		3.903161	-0.588534	9.781254	0.847422	0.442794	0.691582	0.002381	-0.312111	-0.350266	-0.709961	0.086670	-0.443115	0.038869	-0.005955	0.097873	0.033496	-0.230381	0.001623	-0.972522	-1.191480	-26.614997	-175.772973
07142		3.919338	-0.006352	9.963162	0.992336	-0.121826	0.846868	-0.031677	-0.374964	-0.366331	-0.714600	0.088867	-0.436523	0.039006	-0.000119	0.099705	0.031755	-0.232391	0.001284	-0.972103	-1.108221	-26.855018	-175.993482
07143		4.663119	0.593784	10.174438	0.511915	-0.753626	1.358086	-0.085604	-0.519793	-0.322474	-0.723389	0.084229	-0.432129	0.046376	0.005907	0.101863	0.030110	-0.235017	0.001282	-0.971524	-1.071952	-27.166118	-176.190601
07144		4.307545	0.490871	10.354569	0.971958	-0.623947	1.353268	-0.177225	-0.658788	-0.280070	-0.723389	0.084229	-0.436523	0.042741	0.004941	0.103682	0.028617	-0.238418	0.001707	-0.970739	-1.096212	-27.567005	-176.353890
07145		4.781705	1.000343	10.097739	0.546382	-1.167702	1.330334	-0.242047	-0.863585	-0.246679	-0.729980	0.079590	-0.425293	0.047393	0.010067	0.101170	0.027158	-0.242728	0.002504	-0.969711	-1.171521	-28.074320	-176.498689
07146		5.154579	0.950104	10.216088	0.384436	-1.148350	1.605413	-0.321069	-1.110359	-0.207515	-0.740967	0.072998	-0.418457	0.050988	0.009612	0.102430	0.025845	-0.248323	0.003649	-0.968326	-1.300574	-28.732857	-176.609137
07147		4.295942	0.473113	10.361183	1.323402	-0.648740	1.316499	-0.393076	-1.368022	-0.156142	-0.760742	0.061523	-0.397949	0.042253	0.004902	0.103893	0.024644	-0.255078	0.005222	-0.966592	-1.492752	-29.528425	-176.685645
07148		3.740524	0.193593	10.611088	2.089126	-0.370261	1.238086	-0.436124	-1.665273	-0.136745	-0.769775	0.063477	-0.386963	0.036521	0.002143	0.106413	0.023536	-0.263338	0.006940	-0.964392	-1.714731	-30.503772	-176.736378
07149		3.376114	0.066503	11.283044	2.949003	-0.261710	1.586421	-0.454000	-2.015232	-0.094999	-0.787109	0.050049	-0.359863	0.032622	0.000906	0.113161	0.022567	-0.273181	0.008807	-0.961657	-1.970808	-31.669342	-176.752370
07150		3.421222	0.371420	11.028902	3.043614	-0.605108	1.315787	-0.486189	-2.424875	-0.064349	-0.802979	0.049561	-0.340088	0.032873	0.003972	0.110684	0.021760	-0.285033	0.010774	-0.958210	-2.260621	-33.077614	-176.726768
07151		3.411170	0.307642	11.273150	3.487467	-0.582908	1.425734	-0.498924	-2.958480	-0.064514	-0.820801	0.044922	-0.304443	0.032440	0.003348	0.113212	0.020915	-0.299315	0.012791	-0.953839	-2.576459	-34.782485	-176.680639
07152		2.581677	-0.704116	11.677311	4.735310	0.426976	1.182733	-0.456237	-3.592623	-0.088846	-0.845215	0.040039	-0.257568	0.023711	-0.006785	0.117227	0.020091	-0.316599	0.014447	-0.948237	-2.874068	-36.858494	-176.614596
07153		2.106673	-1.990304	12.175259	5.820513	1.705944	1.133663	-0.284715	-4.400929	-0.161463	-0.853760	0.028809	-0.206299	0.018365	-0.019745	0.122205	0.019204	-0.337507	0.015137	-0.941005	-3.074569	-39.391146	-176.560927
07154		1.070952	-1.952794	13.421214	7.952241	1.709164	1.090781	-0.038333	-5.371259	-0.313398	-0.866943	0.023926	-0.148438	0.007070	-0.019515	0.134438	0.018111	-0.362814	0.014263	-0.931577	-3.087353	-42.489933	-176.571972
07155		1.143803	-3.078205	13.793109	8.773177	2.878327	0.944098	0.243677	-6.581995	-0.527523	-0.879883	0.005859	-0.072266	0.006811	-0.030972	0.138168	0.016570	-0.393363	0.011610	-0.919160	-2.851312	-46.281437	-176.715679
07156		2.333908	-4.404012	14.254578	9.059455	4.259670	1.487786	0.535920	-7.929755	-0.812695	-0.884033	-0.001221	0.014404	0.017489	-0.044502	0.143198	0.014369	-0.429598	0.006887	-0.902880	-2.249797	-50.855156	-177.106744
07157		5.367587	-4.918179	15.505206	9.156342	4.844078	3.822524	0.666074	-8.869685	-1.057505	-0.883301	-0.021484	0.099365	0.046476	-0.049961	0.157055	0.011328	-0.469260	0.001010	-0.882987	-1.271058	-55.963194	-177.854590
07158		9.961044	-2.565173	18.074622	10.215209	2.642386	8.099113	0.497910	-9.473054	-1.225260	-0.873779	-0.030518	0.197266	0.090748	-0.026683	0.185120	0.007140	-0.510599	-0.004581	-0.859777	0.070017	-61.410189	-179.089930
07159		14.468100	-0.188050	20.382067	12.022955	0.485663	12.085355	-0.056540	-9.554648	-1.256800	-0.853027	-0.048096	0.289063	0.134716	-0.002689	0.210418	0.001374	-0.551111	-0.007835	-0.834394	1.687469	-66.883505	179.074160
07160		16.384012	-0.735122	20.527244	13.487471	1.181854	12.693849	-0.595863	-9.200625	-1.278843	-0.828125	-0.052490	0.366699	0.154123	-0.007732	0.212536	-0.005961	-0.588906	-0.008899	-0.808131	3.998466	-72.123380	176.242548
07161		23.310291	-3.951469	20.994478	14.056051	4.654337	18.114034	-0.644611	-8.454723	-1.427279	-0.791504	-0.072266	0.434082	0.223666	-0.040436	0.219664	-0.013994	-0.622499	-0.010190	-0.782429	8.443640	-76.865011	171.246094
07162		24.108045	-5.116582	24.027597	19.032123	6.042649	18.213744	-0.312975	-6.814454	-1.706886	-0.768555	-0.081055	0.485352	0.232263	-0.052789	0.248373	-0.021994	-0.648702	-0.013750	-0.760600	17.380123	-80.470784	161.949510
07163		5.792806	-9.696274	16.626552	15.884454	9.895057	-2.486317	0.180427	-5.492289	-2.073049	-0.745361	-0.103027	0.521729	0.052326	-0.097675	0.167666	-0.029663	-0.669248	-0.020501	-0.742164	34.154938	-82.823917	145.101176
07164		9.978057	-6.387377	14.790749	14.065176	7.123417	0.696566	1.220253	-5.370303	-2.563220	-0.729492	-0.104980	0.550537	0.094932	-0.066023	0.150102	-0.035652	-0.688803	-0.032722	-0.723332	63.087485	-83.790313	116.674795
07165		18.540571	-0.052185	32.282050	31.531972	2.008457	9.872951	0.266230	-1.882512	-2.289369	-0.715332	-0.125000	0.553711	0.182331	-0.003052	0.324543	-0.043326	-0.695269	-0.041181	-0.716259	75.964056	-82.939970	103.861815
07166		4.061833	-12.567137	22.863419	22.829147	12.907822	-6.750541	-0.332460	-0.448562	-1.721353	-0.719482	-0.131592	0.551514	0.039024	-0.125631	0.228932	-0.050778	-0.696413	-0.045774	-0.714377	79.257331	-82.035872	100.336174
07167		3.259896	-14.463910	17.293933	17.275313	14.753620	-8.138546	0.669009	0.703353	-1.116836	-0.730713	-0.134033	0.536133	0.032395	-0.145398	0.172340	-0.052285	-0.693858	-0.052179	-0.716313	77.864028	-81.333832	102.127389
07168		-0.740134	-10.426139	13.603656	13.573350	10.340790	-11.583763	1.487454	1.486099	-0.415359	-0.740234	-0.120605	0.522461	-0.006612	-0.105255	0.135307	-0.048274	-0.688748	-0.059188	-0.720967	73.754071	-80.899994	107.133129
07169		-1.820663	-6.353320	11.097972	11.052653	6.320271	-11.987546	1.614006	1.897525	0.261290	-0.749512	-0.114014	0.500000	-0.017072	-0.064450	0.110628	-0.041218	-0.682383	-0.064510	-0.726975	68.079010	-80.691985	113.814594
07170		-1.696088	-4.367719	9.610884	9.555568	4.510932	-11.443136	1.298844	2.293221	0.788290	-0.765625	-0.098633	0.472656	-0.015686	-0.044364	0.096007	-0.033239	-0.674465	-0.066843	-0.734523	60.398762	-80.531589	122.333711
07171		-2.356298	-4.295242	8.533997	8.518038	4.448535	-11.928471	0.988143	2.697713	1.062809	-0.775146	-0.085449	0.441162	-0.022181	-0.043495	0.085431	-0.025108	-0.665063	-0.067280	-0.743327	51.446359	-80.176899	131.983866
07172		-3.212209	-4.135870	8.022615	8.121832	4.289457	-12.535636	0.837750	2.991689	1.112954	-0.789551	-0.063232	0.407227	-0.030687	-0.041869	0.080518	-0.017244	-0.654282	-0.066887	-0.753089	42.433368	-79.469923	141.607008
07173		-2.591067	-3.066267	8.146332	8.234359	3.440184	-11.495137	0.694601	3.218191	1.070045	-0.803223	-0.058838	0.380371	-0.024431	-0.031080	0.081757	-0.009872	-0.642552	-0.066222	-0.763312	34.511355	-78.414673	150.079213
07174		-0.908835	-2.027027	8.624585	8.468102	2.716994	-9.345211	0.414273	3.512766	1.018597	-0.810547	-0.041016	0.339844	-0.007468	-0.020490	0.086344	-0.003563	-0.629333	-0.064515	-0.774445	27.619699	-76.984184	157.352772
07175		1.198087	-1.808568	8.785903	8.118985	2.745947	-6.909397	0.078612	3.925857	1.003277	-0.824219	-0.038818	0.299805	0.013793	-0.018054	0.087593	0.001829	-0.614398	-0.061673	-0.786580	21.760768	-75.188448	163.429806
07176		2.479098	-2.087969	8.412112	7.256509	3.074332	-5.436959	-0.163381	4.392247	0.995233	-0.840332	-0.027832	0.254883	0.026734	-0.020681	0.083565	0.006515	-0.597204	-0.057739	-0.799982	16.809986	-72.990673	168.456115
07177		3.496926	-2.206767	8.055827	6.378761	3.176836	-4.227209	-0.284619	4.764465	1.041406	-0.845215	-0.016846	0.205811	0.036989	-0.021765	0.079724	0.011199	-0.578352	-0.053273	-0.813969	12.775690	-70.512535	172.526754
07178		4.767060	-1.781978	7.919045	5.546055	2.719258	-2.710682	-0.390694	5.070231	1.129756	-0.843506	-0.003174	0.156494	0.049757	-0.017389	0.077981	0.015928	-0.557761	-0.047934	-0.828463	9.380697	-67.773559	175.894694
07179		5.749267	-1.462109	7.946457	4.826522	2.314766	-1.466453	-0.522936	5.331448	1.312622	-0.845947	0.003418	0.107422	0.059677	-0.014029	0.077930	0.021177	-0.535898	-0.041620	-0.842990	6.416201	-64.860543	178.798920
07180		6.567066	-1.667379	7.844542	3.894613	2.354836	-0.501389	-0.606650	5.528200	1.543162	-0.837646	0.023682	0.053467	0.067931	-0.015921	0.076637	0.027107	-0.512667	-0.034149	-0.857480	3.729832	-61.769880	-178.610131
07181		7.455179	-1.940452	7.852562	2.917054	2.415263	0.513449	-0.588699	5.679121	1.764141	-0.838379	0.039551	-0.002441	0.076908	-0.018506	0.076419	0.034121	-0.488551	-0.026275	-0.871472	1.369032	-58.573578	-176.283574
07182		8.490309	-2.108002	8.011724	1.877136	2.312646	1.667746	-0.508072	5.813023	1.959298	-0.832275	0.059570	-0.058594	0.087384	-0.020033	0.077653	0.042072	-0.463235	-0.018100	-0.885051	-0.697206	-55.234891	-174.192128
07183		9.237169	-2.172771	8.267191	0.966062	2.067001	2.562068	-0.390106	5.908787	2.145104	-0.812744	0.077881	-0.116943	0.094985	-0.020560	0.079932	0.051180	-0.437217	-0.010113	-0.897842	-2.466091	-51.826136	-172.276682
07184		9.840110	-1.913857	8.778344	0.268918	1.467576	3.426022	-0.267615	5.968578	2.315783	-0.795654	0.100342	-0.168701	0.101174	-0.017863	0.084816	0.061172	-0.410280	-0.002155	-0.909903	-3.990542	-48.322020	-170.516896
07185		10.217217	-1.551785	9.360648	-0.297835	0.744302	4.105357	-0.172321	5.985744	2.447661	-0.766602	0.107666	-0.224365	0.105091	-0.014165	0.090503	0.071996	-0.382999	0.005521	-0.920922	-5.281619	-44.799589	-168.881464
07186		10.753755	-1.036510	10.163373	-0.874875	-0.192212	4.990529	-0.149803	5.959628	2.529664	-0.738525	0.136963	-0.276367	0.110620	-0.008904	0.098375	0.083062	-0.355234	0.013346	-0.930984	-6.403348	-41.240164	-167.391661
07187		11.736310	-0.729231	11.213834	-1.732903	-1.052893	6.306345	-0.199788	5.941721	2.556525	-0.707764	0.155273	-0.317139	0.120704	-0.005654	0.108591	0.094180	-0.327390	0.021314	-0.939942	-7.386839	-37.693793	-166.031877
07188		12.886488	-0.629836	12.186615	-2.946423	-1.837819	7.588672	-0.276637	5.961544	2.516029	-0.667725	0.164795	-0.361572	0.132484	-0.004482	0.117960	0.104777	-0.298957	0.029660	-0.948033	-8.254471	-34.099195	-164.851025
07189		13.895852	-0.066663	13.103243	-4.127161	-3.137106	8.566536	-0.368265	6.029854	2.458695	-0.630127	0.178711	-0.395508	0.142816	0.001310	0.126764	0.114948	-0.270135	0.038257	-0.955170	-9.025080	-30.481087	-163.812052
07190		14.212327	0.571186	13.532522	-5.073706	-4.406759	8.630528	-0.493768	6.098918	2.360791	-0.590088	0.190186	-0.431152	0.146077	0.007748	0.130893	0.124245	-0.240594	0.047400	-0.961473	-9.735252	-26.799559	-162.949160
07191		14.599156	0.871439	13.641820	-6.310160	-5.377415	8.384083	-0.657312	6.124366	2.176552	-0.545166	0.193115	-0.453369	0.149966	0.010771	0.131833	0.132421	-0.211008	0.056988	-0.966795	-10.404647	-23.135672	-162.266209
07192		15.539523	0.493353	13.232461	-8.404552	-5.819051	7.855871	-0.765434	6.115934	1.913434	-0.507324	0.198242	-0.478027	0.159283	0.006939	0.127469	0.138982	-0.181206	0.066815	-0.971280	-11.016729	-19.477157	-161.817069
07193		16.410205	0.457124	12.278977	-10.498924	-6.475128	6.557516	-0.761214	6.055852	1.622326	-0.468994	0.198730	-0.495605	0.167671	0.006376	0.117726	0.144104	-0.151785	0.076184	-0.974880	-11.533264	-15.901685	-161.566985
07194		17.461567	1.384405	10.980463	-12.489527	-7.959854	4.606599	-0.745284	5.858022	1.376542	-0.437744	0.203613	-0.520264	0.177627	0.015456	0.104575	0.147898	-0.123103	0.085114	-0.977613	-11.988333	-12.445864	-161.482600
07195		19.046911	2.544689	9.804203	-14.676441	-9.726973	2.647081	-0.855022	5.504560	1.163106	-0.408691	0.203857	-0.538086	0.192915	0.026968	0.092641	0.150685	-0.096375	0.094072	-0.979365	-12.480317	-9.231360	-161.494615
07196		20.446416	1.904297	7.690276	-17.192712	-9.474171	-0.047360	-0.971833	5.115179	0.900157	-0.381836	0.210938	-0.555908	0.206250	0.020325	0.071546	0.152136	-0.071558	0.103131	-0.980356	-13.021963	-6.253336	-161.643519
07197		20.150787	-0.364591	4.949467	-18.429016	-6.876214	-3.202553	-0.778795	4.668800	0.517623	-0.361572	0.206787	-0.573486	0.202598	-0.002942	0.044786	0.151978	-0.049067	0.110681	-0.980941	-13.445075	-3.590317	-161.962918
07198		19.881290	-0.252351	2.269036	-18.736229	-6.301537	-6.703576	-0.369668	4.089818	0.015330	-0.336914	0.205078	-0.582275	0.199222	-0.002471	0.018624	0.149662	-0.029262	0.115614	-0.981518	-13.637266	-1.308565	-162.504159
07199		20.389978	1.890908	-0.325659	-18.968711	-7.693384	-10.438195	-0.246384	3.405599	-0.433758	-0.322998	0.196289	-0.593018	0.203845	0.018460	-0.006751	0.145543	-0.013067	0.119315	-0.982044	-13.777863	0.519435	-163.202488
07200		22.911895	3.299195	-2.203012	-21.163074	-9.008077	-13.223915	-0.514171	2.624069	-0.818553	-0.320801	0.198486	-0.604248	0.228935	0.031993	-0.025118	0.139928	-0.001074	0.123707	-0.982403	-14.092562	1.863010	-164.017588
07201		25.270168	2.159371	-4.848589	-23.885132	-7.557683	-16.065955	-0.744322	1.966731	-1.179606	-0.309570	0.196533	-0.604004	0.252329	0.019918	-0.051045	0.132942	0.007250	0.128748	-0.982699	-14.560888	2.778836	-164.946441
07202		24.595708	1.677974	-6.991974	-23.445108	-5.924688	-18.289406	-0.574278	1.268831	-1.465404	-0.304932	0.194336	-0.610596	0.245620	0.014775	-0.071523	0.124981	0.012084	0.132474	-0.983201	-14.945155	3.260428	-165.939064
07203		24.724649	3.130385	-6.763671	-23.289331	-6.927455	-18.556618	-0.416430	0.459980	-1.578259	-0.311279	0.183105	-0.610352	0.247326	0.029211	-0.068268	0.116978	0.012953	0.134924	-0.983841	-15.241389	3.270737	-166.876593
07204		24.211562	3.011721	-5.335188	-22.944237	-6.697798	-17.052976	-0.426704	-0.199100	-1.583500	-0.318115	0.187500	-0.599365	0.242396	0.028085	-0.053172	0.109409	0.010535	0.137015	-0.984452	-15.533885	2.907535	-167.713339
07205		16.059054	-5.773781	-4.041310	-16.972071	3.218158	-12.836573	0.177021	-1.302365	-1.824029	-0.333496	0.176270	-0.596680	0.160314	-0.059166	-0.039420	0.101347	0.002887	0.135545	-0.985570	-15.470345	1.900497	-168.515905
07206		-3.254466	-4.409234	-7.531807	2.088813	6.730014	-15.903381	1.643554	-3.449201	-2.808977	-0.352783	0.151367	-0.580322	-0.031844	-0.043018	-0.076228	0.089866	-0.015336	0.125711	-0.987869	-14.544785	-0.441510	-169.547915
07207		4.808497	-8.903057	21.123907	-4.708488	2.838571	12.952440	2.508935	-3.549683	-3.139330	-0.383301	0.122314	-0.572754	0.042907	-0.092378	0.210886	0.076791	-0.033792	0.111469	-0.990220	-13.075089	-2.854734	-170.804036
07208		-9.475887	-10.314697	10.829267	9.036134	9.309934	2.231140	3.659498	-3.480757	-2.582768	-0.408936	0.088379	-0.547119	-0.097940	-0.103834	0.104711	0.066600	-0.051197	0.091555	-0.992250	-10.910073	-5.129458	-171.829998
07209		-2.032041	-5.729791	10.342272	2.779187	4.279153	1.042390	3.170606	-5.815392	-1.557979	-0.446533	0.065674	-0.521973	-0.023751	-0.058745	0.101842	0.062340	-0.079757	0.073472	-0.992146	-9.061490	-8.574766	-172.128524
07210		19.264202	4.144082	17.649327	-14.862133	-8.792017	10.221021	2.506400	-6.004384	-0.780661	-0.474854	0.047607	-0.490234	0.187373	0.038439	0.182666	0.061691	-0.109139	0.058851	-0.990363	-7.641137	-12.058654	-172.062923
07211		16.258236	16.938293	17.733286	-9.428656	-20.498802	9.066460	1.585292	-5.493392	-0.998961	-0.497070	0.040527	-0.454590	0.158445	0.167149	0.183054	0.059229	-0.136182	0.048772	-0.987708	-6.695324	-15.262312	-172.238554
07212		16.442895	9.444657	16.440714	-9.737643	-12.680616	9.529820	0.232075	-5.185819	-0.984045	-0.521729	0.037842	-0.432373	0.160553	0.093456	0.168713	0.055841	-0.162073	0.045408	-0.984151	-6.499878	-18.296642	-172.457188
07213		40.980511	-18.812211	19.152858	-33.648088	12.484010	23.532687	2.267784	-3.558842	-0.532360	-0.525879	0.026855	-0.427490	0.405830	-0.191416	0.196616	0.055880	-0.179120	0.032851	-0.981689	-5.172384	-20.365600	-172.554538
07214		11.706200	14.063735	11.725654	-5.175945	-15.778353	4.206738	1.577352	-1.932938	-0.282410	-0.532959	0.040039	-0.427979	0.116112	0.139536	0.119485	0.056300	-0.188392	0.024318	-0.980177	-4.245960	-21.504677	-172.618587
07215		11.381573	2.404866	11.035917	-6.038555	-3.960597	4.503616	0.844474	-1.685281	-0.432200	-0.535156	0.035400	-0.425537	0.112931	0.023335	0.111413	0.055203	-0.196543	0.019333	-0.978749	-3.695108	-22.494721	-172.808682
07216		9.002255	-0.537143	10.062841	-4.351094	-0.599506	2.966025	0.900431	-1.025094	-0.443251	-0.533203	0.042236	-0.432617	0.089492	-0.006025	0.101062	0.054106	-0.201548	0.014193	-0.977880	-3.089559	-23.119107	-173.034073
07217		6.789389	-0.589478	11.223064	-1.775012	-0.178171	3.195628	0.739239	-0.714278	-0.426050	-0.537598	0.037842	-0.441162	0.067479	-0.006454	0.112449	0.052839	-0.204953	0.009993	-0.977293	-2.575382	-23.549619	-173.273513
07218		5.297797	-0.797277	10.748732	-0.561696	0.293920	2.180427	0.625332	-0.410826	-0.394007	-0.542236	0.044434	-0.452637	0.052741	-0.008413	0.107570	0.051664	-0.207013	0.006411	-0.976952	-2.124706	-23.817310	-173.497570
07219		6.994258	0.437755	9.847673	-2.310776	-1.036245	2.005685	0.472652	-0.298337	-0.338274	-0.555664	0.044189	-0.461426	0.069803	0.004027	0.098591	0.050531	-0.208444	0.003713	-0.976721	-1.776401	-24.004498	-173.699178
07220		6.831273	1.729818	9.022845	-2.348230	-2.253695	1.163500	0.368743	-0.178533	-0.285959	-0.558105	0.050781	-0.468262	0.068257	0.017034	0.090321	0.049610	-0.209425	0.001556	-0.976564	-1.495530	-24.134516	-173.863939
07221		5.410655	0.197535	8.599891	-1.367046	-0.552703	0.242058	0.270227	-0.125318	-0.258231	-0.567383	0.057373	-0.477539	0.054055	0.001789	0.086035	0.048653	-0.210058	-0.000028	-0.976478	-1.280862	-24.219672	-174.020345
07222		4.245688	-0.072766	9.546425	0.065095	-0.118850	0.634654	0.212759	-0.109903	-0.232448	-0.574219	0.061768	-0.493164	0.042403	-0.000879	0.095487	0.047830	-0.210739	-0.001352	-0.976371	-1.101552	-24.308420	-174.153682
07223		3.580045	-0.485383	9.531868	0.635307	0.380080	0.353959	0.166897	-0.120506	-0.191486	-0.587891	0.063965	-0.500000	0.035738	-0.004968	0.095336	0.047090	-0.211372	-0.002359	-0.976268	-0.962616	-24.389242	-174.268962
07224		3.926399	0.279859	9.712284	0.481843	-0.387695	0.648711	0.115133	-0.122131	-0.147410	-0.596924	0.063721	-0.506592	0.039207	0.002714	0.097148	0.046576	-0.212131	-0.003118	-0.976126	-0.860887	-24.483051	-174.349591
07225		4.445930	0.460619	9.643145	0.013904	-0.602364	0.798893	0.056030	-0.146372	-0.089868	-0.608398	0.070313	-0.513428	0.044391	0.004559	0.096465	0.046214	-0.212917	-0.003483	-0.975971	-0.811613	-24.577484	-174.401109
07226		4.093982	1.121725	9.985389	0.555632	-1.215796	0.954858	-0.044989	-0.167835	-0.022007	-0.617432	0.074707	-0.513672	0.040857	0.011235	0.099886	0.046139	-0.213934	-0.003337	-0.975752	-0.834346	-24.695835	-174.402824
07227		4.021391	0.097737	10.136354	0.613319	-0.191191	1.073728	-0.101112	-0.210475	-0.020703	-0.633301	0.078857	-0.513916	0.040107	0.001024	0.101405	0.045946	-0.215070	-0.002876	-0.975513	-0.893431	-24.826418	-174.410141
07228		5.236696	0.133054	9.246687	-0.825841	-0.363704	0.776343	-0.125099	-0.230883	-0.040790	-0.640381	0.087646	-0.514160	0.052260	0.001378	0.092526	0.045690	-0.216407	-0.002374	-0.975231	-0.957345	-24.980553	-174.423149
07229		5.433829	0.413714	8.822254	-1.131063	-0.681675	0.472534	-0.177425	-0.223338	-0.016670	-0.651611	0.089844	-0.514160	0.054240	0.004211	0.088279	0.045434	-0.217622	-0.001540	-0.974974	-1.061408	-25.118480	-174.427422
07230		5.572793	0.228249	8.849765	-1.232875	-0.523687	0.561904	-0.203311	-0.225377	0.023710	-0.667725	0.096191	-0.512207	0.055628	0.002379	0.088558	0.045406	-0.218948	-0.000585	-0.974679	-1.187644	-25.268575	-174.399296
07231		5.327485	-0.133894	8.359946	-1.226321	-0.165750	0.023842	-0.129958	-0.247104	0.011051	-0.671875	0.091797	-0.509766	0.053172	-0.001282	0.083666	0.045337	-0.220268	0.000043	-0.974385	-1.272397	-25.419790	-174.385098
07232		4.080198	-1.047187	8.844550	0.050127	0.857365	-0.053945	-0.061249	-0.235765	-0.003435	-0.676758	0.102783	-0.508057	0.040698	-0.010445	0.088497	0.045331	-0.221610	0.000274	-0.974081	-1.310286	-25.575958	-174.373662
07233		3.781408	-1.326168	9.150833	0.452136	1.166673	0.098413	-0.012472	-0.250436	-0.044238	-0.685791	0.100342	-0.499023	0.037697	-0.013264	0.091556	0.045122	-0.222918	0.000268	-0.973792	-1.312723	-25.729788	-174.394272
07234		4.075785	-0.771568	9.363803	0.359642	0.597936	0.405004	0.030420	-0.279811	-0.060088	-0.690186	0.100342	-0.496826	0.040624	-0.007742	0.093694	0.044939	-0.224449	-0.000017	-0.973449	-1.283010	-25.911463	-174.418534
07235		4.435420	-0.334781	9.178985	0.025748	0.134378	0.386332	0.013631	-0.290102	-0.071559	-0.701416	0.097900	-0.485840	0.044220	-0.003370	0.091854	0.044625	-0.225944	-0.000190	-0.973118	-1.262914	-26.088350	-174.456169
07236		4.881435	-0.513189	9.337759	-0.286706	0.284094	0.728780	0.017876	-0.261850	-0.083221	-0.699219	0.102539	-0.485840	0.048690	-0.005161	0.093441	0.044313	-0.227386	-0.000434	-0.972796	-1.233643	-26.259582	-174.495967
07237		3.800721	0.014980	9.174887	0.676470	-0.145034	0.094158	0.035216	-0.194851	-0.090799	-0.703613	0.100098	-0.483643	0.037918	0.000116	0.091786	0.043930	-0.228411	-0.000713	-0.972573	-1.194831	-26.382107	-174.547494
07238		4.762665	-0.352475	8.897240	-0.312861	0.142394	0.279383	0.047215	-0.215928	-0.091280	-0.706055	0.102295	-0.474854	0.047529	-0.003567	0.089023	0.043610	-0.229619	-0.001097	-0.972302	-1.145918	-26.526673	-174.593637
07239		5.447567	-0.306534	8.581964	-1.037877	0.041774	0.303690	0.045779	-0.194101	-0.098157	-0.705811	0.097900	-0.474609	0.054391	-0.003112	0.085872	0.043203	-0.230638	-0.001436	-0.972079	-1.098573	-26.648776	-174.650226
07240		4.365471	-0.323084	8.753216	0.022061	0.161817	-0.027299	0.024291	-0.182352	-0.110747	-0.708252	0.100098	-0.470215	0.043573	-0.003266	0.087572	0.042761	-0.231685	-0.001723	-0.971849	-1.056737	-26.774015	-174.709770
07241		4.124019	-0.311967	9.294093	0.501535	0.190254	0.345918	0.011516	-0.197792	-0.108503	-0.712646	0.100098	-0.461426	0.041147	-0.003147	0.092981	0.042264	-0.232728	-0.001908	-0.971621	-1.025681	-26.898270	-174.773275
07242		3.611453	-0.304056	9.881398	1.247270	0.243440	0.635378	-0.015753	-0.209948	-0.106891	-0.710449	0.100098	-0.463623	0.036009	-0.003052	0.098852	0.041792	-0.233914	-0.002000	-0.971357	-1.007765	-27.038834	-174.830537
07243		3.918247	0.079915	9.662323	0.932585	-0.166580	0.571050	-0.043417	-0.244297	-0.107114	-0.712402	0.093262	-0.456787	0.039065	0.000799	0.096671	0.041237	-0.235193	-0.001927	-0.971072	-1.008447	-27.189684	-174.892857
07244		5.010355	0.412094	9.212202	-0.181408	-0.592771	0.663656	-0.079556	-0.313710	-0.130857	-0.712402	0.095459	-0.458984	0.049962	0.004125	0.092199	0.040570	-0.236891	-0.001758	-0.970687	-1.020202	-27.389425	-174.964848
07245		4.899221	0.571339	9.062757	-0.102609	-0.746338	0.477827	-0.114167	-0.368484	-0.142737	-0.723633	0.091064	-0.447754	0.048829	0.005730	0.090714	0.039757	-0.238786	-0.001408	-0.970257	-1.051031	-27.611813	-175.048860
07246		4.669485	0.342523	9.509718	0.335496	-0.493426	0.770314	-0.156653	-0.456479	-0.150765	-0.723633	0.095459	-0.450195	0.046480	0.003465	0.095201	0.038899	-0.241186	-0.000918	-0.969698	-1.101096	-27.893366	-175.132233
07247		4.121987	-0.446090	9.280225	0.702314	0.324505	0.322084	-0.157342	-0.497334	-0.174089	-0.728027	0.086426	-0.443115	0.040985	-0.004424	0.092908	0.037881	-0.243712	-0.000422	-0.969108	-1.147151	-28.190033	-175.234982
07248		4.753367	-0.124739	9.224674	0.202707	-0.046767	0.563300	-0.165277	-0.540717	-0.166333	-0.728027	0.086426	-0.434326	0.047283	-0.001210	0.092376	0.036934	-0.246515	0.000076	-0.968435	-1.197091	-28.519781	-175.327567
07249		5.234199	-0.211768	8.853490	-0.341274	-0.004024	0.468810	-0.180777	-0.582252	-0.205616	-0.732178	0.079590	-0.429688	0.052082	-0.002091	0.088689	0.035734	-0.249451	0.000630	-0.967728	-1.246202	-28.865631	-175.449777
07250		4.813640	-0.373220	9.398090	0.345121	0.193299	0.745611	-0.208936	-0.626652	-0.260799	-0.740967	0.077393	-0.429688	0.047837	-0.003696	0.094135	0.034273	-0.252671	0.001207	-0.966944	-1.290667	-29.245687	-175.603231
07251		4.479903	-0.475394	9.656514	0.830398	0.319017	0.805784	-0.203985	-0.728483	-0.309138	-0.750000	0.077148	-0.416260	0.044440	-0.004724	0.096732	0.032544	-0.256313	0.001717	-0.966044	-1.319058	-29.676807	-175.791692
07252		4.636598	-0.500077	9.662665	0.786702	0.334399	0.882346	-0.207621	-0.872953	-0.358313	-0.754395	0.072754	-0.407227	0.045935	-0.004983	0.096833	0.030612	-0.260711	0.002124	-0.964929	-1.329933	-30.199007	-176.007056
07253		4.674638	0.209686	9.741669	0.939605	-0.372645	0.947126	-0.195821	-1.034657	-0.373493	-0.765381	0.065918	-0.398193	0.046246	0.002106	0.097655	0.028583	-0.265817	0.002463	-0.963597	-1.330465	-30.806432	-176.235338
07254		4.744611	0.528910	9.829729	1.067464	-0.690431	1.040744	-0.204897	-1.253161	-0.348300	-0.776611	0.067871	-0.387207	0.046838	0.005308	0.098587	0.026703	-0.272026	0.002814	-0.961915	-1.340807	-31.545926	-176.441041
07255		4.091594	0.140354	10.289244	1.995722	-0.262722	1.076532	-0.213524	-1.521045	-0.331592	-0.794189	0.054199	-0.371094	0.040134	0.001447	0.103198	0.024855	-0.279450	0.003228	-0.959833	-1.363747	-32.431463	-176.636615
07256		3.431056	-0.897607	10.630773	2.873989	0.809537	0.988813	-0.197083	-1.825487	-0.339497	-0.798340	0.049805	-0.348877	0.033323	-0.008928	0.106624	0.023032	-0.288368	0.003478	-0.957236	-1.370280	-33.498277	-176.830978
07257		3.679033	-0.782490	10.387271	2.756733	0.687244	0.862810	-0.118018	-2.162286	-0.389408	-0.815918	0.036133	-0.321777	0.035649	-0.007834	0.104267	0.021051	-0.298803	0.003273	-0.954077	-1.312964	-34.751864	-177.061166
07258		4.069890	-0.355907	10.146306	2.567758	0.260225	0.816084	-0.055520	-2.502103	-0.413651	-0.829102	0.031494	-0.292725	0.039418	-0.003613	0.101963	0.019082	-0.310859	0.002665	-0.950261	-1.202132	-36.206179	-177.306227
07259		4.346001	-0.032024	9.712907	2.384873	-0.052866	0.557028	-0.008477	-2.887523	-0.402992	-0.844482	0.020020	-0.252441	0.042051	-0.000402	0.097743	0.017206	-0.324633	0.001845	-0.945682	-1.064267	-37.874669	-177.550114
07260		3.907914	0.412498	9.960409	3.217393	-0.450036	0.389618	0.064380	-3.325946	-0.399304	-0.857666	0.010986	-0.216553	0.037424	0.004017	0.100237	0.015494	-0.340438	0.000616	-0.940139	-0.873130	-39.799164	-177.795522
07261		4.174054	-0.248409	9.969180	3.368455	0.241351	0.456177	0.166523	-3.864384	-0.394663	-0.868408	-0.002686	-0.167480	0.039799	-0.002647	0.100471	0.013946	-0.358607	-0.001095	-0.933384	-0.613778	-42.025884	-178.052205
07262		3.613512	-0.844625	9.776670	4.053732	0.903002	-0.216458	0.340073	-4.449734	-0.477645	-0.879150	-0.011963	-0.113770	0.033928	-0.008696	0.098523	0.012337	-0.379373	-0.003838	-0.925154	-0.181713	-44.591824	-178.397529
07263		3.770470	-0.656415	9.809759	4.427932	0.786101	-0.292741	0.526176	-5.117518	-0.610134	-0.883301	-0.023193	-0.051270	0.035158	-0.006934	0.099001	0.010422	-0.402951	-0.007700	-0.915130	0.483146	-47.532928	-178.907737
07264		4.034924	-1.052956	9.939785	4.860818	1.280525	-0.279238	0.704682	-5.902676	-0.731616	-0.889893	-0.027832	0.010986	0.037354	-0.011023	0.100492	0.008293	-0.429818	-0.012688	-0.902788	1.434435	-50.921261	-179.630388
07265		4.582756	-1.064481	10.969792	5.935896	1.445887	0.438727	0.853979	-6.649887	-0.835001	-0.882568	-0.041260	0.086914	0.042103	-0.011298	0.111092	0.005942	-0.459574	-0.018560	-0.887926	2.729044	-54.721587	179.354391
07266		5.544373	-2.559586	11.918402	6.857089	3.140164	1.249784	0.993032	-7.316899	-0.921189	-0.873047	-0.052490	0.158203	0.050919	-0.026435	0.120972	0.003472	-0.491714	-0.025271	-0.870383	4.503544	-58.885351	177.914200
07267		7.157690	-3.725689	12.802555	7.641104	4.576304	2.416954	1.165969	-8.120685	-1.080777	-0.870605	-0.061523	0.245117	0.066104	-0.038380	0.130563	0.000612	-0.526542	-0.033073	-0.849506	7.141954	-63.462284	175.662646
07268		10.441256	-2.357313	14.249284	8.671902	3.664923	5.312737	1.177544	-8.715543	-1.242130	-0.834229	-0.068115	0.331787	0.097927	-0.025051	0.146711	-0.002996	-0.562904	-0.041308	-0.825484	11.157788	-68.293198	172.003537
07269		15.181974	-0.479945	15.765334	9.955813	2.448943	9.521607	0.883307	-9.073122	-1.244956	-0.809082	-0.079102	0.412109	0.144429	-0.006430	0.164293	-0.007518	-0.599570	-0.048229	-0.798832	17.297543	-73.173688	166.037554
07270		17.707999	1.921511	17.217733	12.581956	0.609711	11.509213	0.224382	-9.032898	-1.120846	-0.772705	-0.092041	0.494629	0.169171	0.018053	0.179959	-0.013494	-0.634821	-0.052056	-0.770786	27.310605	-77.746088	155.832338
07271		20.615077	0.190352	18.380210	15.049392	2.833380	13.162213	-0.224934	-8.774612	-1.094245	-0.727295	-0.100586	0.559326	0.197835	0.001019	0.192604	-0.020699	-0.667771	-0.053971	-0.742119	46.475617	-81.453906	136.228098
07272		24.490325	-2.794190	19.623458	17.784892	6.455839	15.369348	0.188181	-8.043910	-1.257749	-0.691406	-0.100342	0.619385	0.236569	-0.029638	0.205835	-0.026905	-0.696785	-0.057941	-0.714429	79.512323	-82.973579	103.007349
07273		22.761991	-6.858749	23.439478	23.213288	10.789548	11.608097	0.884739	-6.677948	-1.607985	-0.655273	-0.108887	0.657471	0.219068	-0.071430	0.241494	-0.031495	-0.719931	-0.065720	-0.690209	108.390806	-81.755796	74.389877
07274		2.300887	-7.907907	15.891735	15.506655	8.933859	-9.876272	1.622875	-5.742685	-1.924948	-0.614990	-0.104004	0.692627	0.017676	-0.080555	0.158826	-0.034196	-0.739044	-0.077234	-0.668341	124.147042	-79.291283	59.356103
07275		11.338600	-5.324167	8.455876	9.397092	7.678111	-0.809793	2.231405	-7.275050	-2.159959	-0.583252	-0.105957	0.732666	0.109636	-0.055408	0.087983	-0.035965	-0.762375	-0.091315	-0.639650	136.216874	-75.635790	48.304729
07276		33.438602	1.779359	30.243524	35.816918	6.562209	16.830137	0.700646	-3.368420	-1.210611	-0.565430	-0.101318	0.745850	0.329324	0.014717	0.308066	-0.038735	-0.772613	-0.097450	-0.626156	139.485132	-73.740592	45.322226
07277		13.922625	-9.223742	24.907564	26.146151	13.311021	-3.608937	-0.236954	-1.215475	-0.388398	-0.576416	-0.108154	0.746094	0.137530	-0.092210	0.250024	-0.041476	-0.776222	-0.097923	-0.621425	140.308739	-73.059079	44.316762
07278		11.203735	-13.130889	18.746923	19.205889	16.238063	-5.708034	0.576456	0.255513	0.057634	-0.588135	-0.097168	0.728027	0.112314	-0.131816	0.186946	-0.038985	-0.775568	-0.099409	-0.622167	140.419419	-73.199082	44.531297
07279		4.994847	-8.996885	14.959099	14.541990	10.870910	-9.908868	1.552799	1.311033	0.341977	-0.599854	-0.086182	0.709717	0.051080	-0.091038	0.148555	-0.031266	-0.771977	-0.103116	-0.626451	140.221266	-73.896807	45.661185
07280		2.140137	-3.473211	12.265747	11.904783	4.923727	-10.868914	1.720198	1.870846	0.672417	-0.620850	-0.064209	0.695801	0.022665	-0.035709	0.122145	-0.021610	-0.766652	-0.106029	-0.632879	139.796004	-74.975075	47.107784
07281		0.792548	-0.546309	10.198534	10.009172	1.791831	-11.052366	1.216156	2.228884	1.015027	-0.641602	-0.048828	0.666260	0.009091	-0.006039	0.101853	-0.012572	-0.760254	-0.106171	-0.640768	139.001031	-76.317894	48.643212
07282		0.501626	-0.510269	8.823266	8.630981	1.658715	-10.867337	0.583470	2.528272	1.225534	-0.655518	-0.033203	0.641357	0.006163	-0.005325	0.088144	-0.005147	-0.752740	-0.103362	-0.650133	137.403335	-77.876608	50.606107
07283		1.113170	-2.106447	8.049406	7.718506	3.283587	-10.138469	0.268266	2.926473	1.179684	-0.680420	-0.031250	0.614502	0.012432	-0.021101	0.080290	0.001192	-0.743809	-0.099811	-0.660897	134.167587	-79.545668	54.057745
07284		1.479965	-2.651275	7.799508	7.411926	3.877145	-9.537935	0.261131	3.456174	0.924170	-0.700928	-0.022705	0.585449	0.016267	-0.026541	0.077688	0.006874	-0.732697	-0.097030	-0.673567	127.485177	-81.255314	60.966206
07285		1.498933	-1.798038	7.880855	7.584050	3.094263	-9.115350	0.258569	3.954149	0.646973	-0.723633	-0.020508	0.538818	0.016601	-0.018030	0.078468	0.011901	-0.719601	-0.095330	-0.687710	115.276431	-82.757980	73.438090
07286		2.401361	-0.642823	8.071293	7.910081	2.124384	-7.755603	0.043389	4.384797	0.486161	-0.744141	-0.009521	0.498535	0.025791	-0.006384	0.080159	0.015743	-0.704539	-0.093271	-0.703333	95.319270	-83.714033	93.536087
07287		4.103777	-0.245909	8.282784	8.020661	1.942752	-5.643291	-0.352501	4.824281	0.459380	-0.771240	-0.007568	0.456055	0.043025	-0.002217	0.081810	0.018347	-0.687675	-0.089962	-0.720190	69.979984	-83.623757	118.818426
07288		5.737330	-0.688313	8.310479	7.635072	2.471215	-3.645941	-0.726523	5.323495	0.545278	-0.784668	-0.005371	0.407227	0.059576	-0.006425	0.081562	0.020121	-0.668519	-0.084775	-0.738573	46.967504	-82.269792	141.559300
07289		6.624514	-1.390084	7.848060	6.623289	3.047985	-2.449292	-0.933614	5.809560	0.705191	-0.805176	-0.003174	0.344971	0.068536	-0.013301	0.076575	0.022047	-0.647236	-0.078305	-0.757936	31.024333	-79.925306	157.145495
07290		7.188500	-1.514723	7.136669	5.369983	2.947314	-1.606394	-0.961964	6.197343	0.926417	-0.821289	0.005615	0.298096	0.074119	-0.014471	0.069163	0.024776	-0.623837	-0.070762	-0.777950	20.513682	-76.940113	167.284155
07291		7.174738	-1.192247	6.603656	4.393388	2.373187	-1.354671	-0.923592	6.430284	1.173827	-0.834961	0.014404	0.233398	0.073889	-0.011195	0.063736	0.028715	-0.599091	-0.062630	-0.797711	13.431740	-73.617371	174.051423
07292		7.346067	-0.694353	6.643789	3.899098	1.684963	-0.840081	-0.887728	6.501894	1.430145	-0.833252	0.023438	0.175537	0.075614	-0.006120	0.064031	0.033691	-0.573329	-0.053662	-0.816872	8.283490	-70.100016	178.907407
07293		8.335643	-0.485370	7.119505	3.426312	1.301751	0.527791	-0.859381	6.524931	1.667129	-0.837891	0.030273	0.104248	0.085654	-0.003848	0.068443	0.039764	-0.547020	-0.044202	-0.835005	4.359603	-66.497816	-177.406070
07294		9.519897	-0.425498	7.666354	2.756492	0.989038	2.059430	-0.752889	6.584164	1.849383	-0.831787	0.048340	0.043701	0.097686	-0.003079	0.073488	0.046766	-0.519691	-0.034497	-0.852375	1.277438	-62.769235	-174.498442
07295		10.511869	0.061349	8.434653	2.239454	0.206491	3.473239	-0.590190	6.684088	1.939839	-0.821289	0.064209	-0.023438	0.107844	0.001893	0.080768	0.054625	-0.491443	-0.025317	-0.868826	-1.077360	-58.950655	-172.195906
07296		11.932224	0.733697	9.148055	1.283882	-0.872751	5.157287	-0.497324	6.819750	1.937129	-0.808350	0.080078	-0.083740	0.122267	0.008732	0.087324	0.062554	-0.461807	-0.016361	-0.884621	-2.880661	-54.994282	-170.410736
07297		12.950799	1.552825	9.618086	0.173287	-2.158311	6.244794	-0.507614	6.990801	1.864445	-0.779541	0.091553	-0.148438	0.132608	0.016991	0.091539	0.070165	-0.430980	-0.007575	-0.899597	-4.263819	-50.939474	-169.048733
07298		13.169404	2.166760	10.165576	-0.551499	-3.195472	6.644246	-0.633839	7.092048	1.795876	-0.746338	0.105469	-0.202148	0.134982	0.023182	0.096836	0.077006	-0.398995	0.001781	-0.913712	-5.422853	-46.790866	-168.017565
07299		13.679049	2.481626	10.649336	-1.621859	-4.015681	7.151827	-0.798827	7.084137	1.748360	-0.708496	0.110596	-0.257813	0.140218	0.026444	0.101463	0.083295	-0.366744	0.011681	-0.926512	-6.460140	-42.659471	-167.200763
07300		13.959588	2.687135	11.046848	-2.671517	-4.737379	7.345577	-0.968375	6.997833	1.715349	-0.670410	0.115723	-0.291260	0.143102	0.028607	0.105366	0.088916	-0.334301	0.022341	-0.937997	-7.446675	-38.548209	-166.562542
07301		15.014389	2.567041	11.574551	-4.312385	-5.314191	8.047932	-1.130053	6.861415	1.692904	-0.636963	0.120605	-0.320068	0.153764	0.027596	0.110359	0.094159	-0.302311	0.033541	-0.947954	-8.412166	-34.530002	-166.036262
07302		16.331522	1.292615	11.703120	-6.674751	-4.864990	8.543849	-1.197043	6.795002	1.680496	-0.596680	0.123291	-0.360107	0.167042	0.014997	0.111312	0.099040	-0.270112	0.045033	-0.956662	-9.330862	-30.523468	-165.627684
07303		17.171357	-0.157539	11.748145	-8.773190	-4.166324	8.582792	-1.039704	6.746508	1.697160	-0.565430	0.132813	-0.389160	0.175547	0.000494	0.111603	0.104194	-0.237899	0.055644	-0.964081	-10.100243	-26.558527	-165.273742
07304		18.182856	-1.138456	11.616356	-11.056278	-3.945447	8.321717	-0.714591	6.681230	1.754967	-0.542725	0.124268	-0.413330	0.185661	-0.009366	0.110039	0.109818	-0.205360	0.064705	-0.970351	-10.653991	-22.602189	-164.951212
07305		18.908668	-0.736831	11.549196	-12.781696	-4.978558	7.597546	-0.363991	6.570340	1.851995	-0.515869	0.126953	-0.444336	0.192800	-0.005392	0.109209	0.116264	-0.173055	0.071974	-0.975374	-10.995198	-18.714435	-164.587617
07306		20.424091	0.604617	11.255390	-15.045734	-7.072871	6.545598	-0.193615	6.407593	1.960890	-0.489258	0.131836	-0.482178	0.207633	0.008176	0.105930	0.123239	-0.141061	0.078364	-0.979170	-11.231289	-14.888017	-164.180735
07307		21.768589	1.388791	10.077032	-17.373550	-8.475812	4.451470	-0.245419	6.217943	2.001651	-0.464355	0.129883	-0.519775	0.220523	0.016204	0.093924	0.130392	-0.110003	0.084795	-0.981686	-11.475337	-11.178360	-163.741281
07308		22.686868	2.502419	6.984955	-19.375310	-9.753049	0.139112	-0.453907	5.915107	1.972562	-0.433594	0.145996	-0.551514	0.228538	0.027421	0.063046	0.137225	-0.080347	0.091968	-0.982983	-11.809987	-7.626707	-163.315742
07309		22.964327	0.851788	2.916277	-21.164474	-7.929681	-4.750197	-0.604984	5.391923	1.857308	-0.400146	0.150879	-0.580322	0.230225	0.010730	0.022930	0.143606	-0.053465	0.099375	-0.983180	-12.203421	-4.392543	-162.910130
07310		23.348414	-0.420857	-0.468038	-22.438263	-6.421191	-8.957934	-0.464210	4.617194	1.506126	-0.368896	0.157959	-0.591797	0.233316	-0.002470	-0.010061	0.148547	-0.030340	0.105373	-0.982807	-12.487284	-1.623502	-162.632489
07311		25.384867	0.574742	-3.363973	-24.297490	-7.441894	-13.006696	-0.397888	3.846627	1.041849	-0.346436	0.158447	-0.618408	0.253105	0.006994	-0.038526	0.151585	-0.011267	0.110346	-0.982201	-12.720425	0.648677	-162.525549
07312		25.370898	2.690924	-6.459531	-23.661279	-8.671427	-17.398208	-0.633308	3.112387	0.599514	-0.328613	0.163086	-0.622803	0.252580	0.027454	-0.068618	0.152778	0.003828	0.115854	-0.981439	-13.087908	2.459540	-162.586012
07313		25.673096	5.370595	-9.990514	-23.044205	-10.243457	-22.131919	-1.256687	2.072115	0.310483	-0.313477	0.176514	-0.634521	0.255592	0.053463	-0.102894	0.153152	0.013129	0.123612	-0.980353	-13.817404	3.646737	-162.683891
07314		28.013463	3.279586	-13.088349	-25.836605	-7.968787	-25.167527	-1.763127	0.811245	0.033939	-0.306885	0.183350	-0.625732	0.279594	0.031681	-0.132301	0.152973	0.015693	0.132877	-0.979131	-14.836397	4.093486	-162.773758
07315		30.981450	-1.245123	-12.824011	-30.081014	-4.478166	-23.987494	-1.379884	-0.230347	-0.466970	-0.311523	0.189941	-0.621582	0.309930	-0.014057	-0.127790	0.150983	0.013113	0.139512	-0.978554	-15.646429	3.887147	-162.992014
07316		30.473143	-2.367999	-10.174193	-30.031369	-3.774902	-20.839141	-0.333574	-0.818898	-1.165827	-0.329346	0.185059	-0.612549	0.304999	-0.025626	-0.100452	0.145937	0.007912	0.140605	-0.979219	-15.872333	3.240852	-163.498628
07317		11.794690	1.516222	1.836300	-10.835165	-5.165124	-8.978300	-0.016740	-2.078743	-2.106974	-0.353516	0.171631	-0.601074	0.117899	0.013922	0.019587	0.137108	-0.003846	0.139262	-0.980710	-15.922327	1.756074	-164.328371
07318		-12.516527	-20.561213	5.910311	7.189220	20.790983	1.603670	0.525913	-3.278447	-2.657628	-0.386719	0.155518	-0.589355	-0.128824	-0.204067	0.056473	0.126421	-0.021572	0.134357	-0.982599	-15.634595	-0.482611	-165.270961
07319		-6.991745	-20.048272	18.119584	3.783602	16.211276	12.588595	3.187072	-3.504606	-2.855662	-0.414307	0.110840	-0.579102	-0.075920	-0.202267	0.176686	0.115081	-0.038769	0.116152	-0.985780	-13.781415	-2.848907	-166.338397
07320		-16.096125	-11.171188	2.294277	13.535618	13.932784	-6.398798	4.245638	-5.127824	-1.976511	-0.456055	0.083496	-0.555908	-0.162534	-0.110506	0.016434	0.109127	-0.062866	0.091860	-0.987776	-11.318436	-5.977991	-166.798429
07321		9.618783	-3.023536	12.390189	-7.679319	-1.091211	4.147733	3.187792	-7.531385	-0.447444	-0.509277	0.064941	-0.517578	0.091375	-0.032450	0.126898	0.111319	-0.098552	0.071823	-0.986274	-9.571785	-10.277094	-166.257980
07322		22.351101	12.749643	19.383837	-13.933610	-19.474015	11.728464	2.956674	-6.657508	-0.470273	-0.539795	0.037842	-0.472168	0.217149	0.124025	0.202989	0.112815	-0.129972	0.053305	-0.983635	-7.953084	-14.102824	-165.929078
07323		13.889309	23.280637	14.096862	-4.093481	-26.644657	4.566246	1.809578	-6.153708	-1.684423	-0.575195	0.023926	-0.434082	0.136373	0.230337	0.147283	0.107314	-0.159675	0.039843	-0.980510	-6.777310	-17.732614	-166.449623
07324		26.244178	-18.279078	17.699688	-21.478639	11.665078	17.361558	2.181030	-6.055074	-1.436648	-0.598877	-0.000977	-0.397705	0.255634	-0.186616	0.182785	0.103229	-0.188541	0.024739	-0.976312	-5.371830	-21.287108	-166.918452
07325		36.462209	0.732971	12.754529	-27.813167	-8.096981	15.748275	3.530807	-3.547713	-0.892710	-0.603271	-0.007813	-0.373047	0.362303	0.003380	0.134069	0.102628	-0.204172	0.004857	-0.973529	-3.207437	-23.361860	-167.301138
07326		19.081511	17.638226	17.375615	-6.480565	-20.293546	13.061671	1.574786	-2.173326	-0.974850	-0.607422	-0.016602	-0.361816	0.189754	0.174069	0.177199	0.099611	-0.214137	-0.004912	-0.971699	-2.088109	-24.653626	-167.837480
07327		8.361888	-1.840291	10.242075	-3.482171	0.827777	3.047851	0.920997	-1.072898	-0.746079	-0.602783	-0.018799	-0.352783	0.082998	-0.019186	0.102780	0.096962	-0.218953	-0.010686	-0.970847	-1.375943	-25.290758	-168.284417
