// General information: 
//  MT Manager version: 2019.2.0 
//  XDA version: 2019.2.0 build 3853 rev 94535 built on 2019-09-09
// Device information: 
//  DeviceId: 00B40AC7
//  ProductCode: MTW2-3A7G6
//  Firmware Version: 4.3.5
//  Hardware Version: 1.1.0
// Device settings: 
//  Filter Profile: human(46.1)
//  Option Flags: Orientation Smoother Disabled, AHS Disabled, ICC Disabled
// Coordinate system: ENU
PacketCounter	SampleTimeFine	Acc_X	Acc_Y	Acc_Z	FreeAcc_E	FreeAcc_N	FreeAcc_U	Gyr_X	Gyr_Y	Gyr_Z	Mag_X	Mag_Y	Mag_Z	VelInc_X	VelInc_Y	VelInc_Z	Quat_q0	Quat_q1	Quat_q2	Quat_q3	Roll	Pitch	Yaw
06788		9.852032	1.080351	-2.686050	-0.078501	0.136379	0.454709	-0.359724	0.330832	-0.449917	-0.735596	-0.459717	0.311768	0.098500	0.010533	-0.027043	-0.407896	-0.642699	0.458002	-0.459122	157.103681	-74.534038	-53.429762
06789		9.688999	0.673513	-2.491992	0.376405	0.139473	0.206234	-0.425664	0.363159	-0.516878	-0.726074	-0.475098	0.307617	0.096861	0.006431	-0.025110	-0.411256	-0.642226	0.456497	-0.458285	155.562021	-74.605127	-52.073573
06790		9.403594	-0.120512	-2.823245	1.077526	0.759592	-0.082617	-0.418738	0.384064	-0.616396	-0.730225	-0.481689	0.301270	0.093977	-0.001554	-0.028410	-0.414869	-0.641892	0.454693	-0.457289	153.826074	-74.652009	-50.521111
06791		9.195434	-0.679230	-3.215023	1.560592	1.361703	-0.269970	-0.374488	0.358501	-0.717909	-0.727783	-0.490723	0.292480	0.091871	-0.007183	-0.032302	-0.418508	-0.641963	0.452426	-0.456121	151.923961	-74.646855	-48.762620
06792		9.590329	-0.364717	-3.337837	1.374569	1.376914	0.160398	-0.391429	0.343235	-0.837199	-0.720703	-0.503906	0.288574	0.095829	-0.004114	-0.033535	-0.422428	-0.642253	0.449917	-0.454577	149.836631	-74.584248	-46.829395
06793		10.230300	-0.349437	-3.453411	1.544137	1.422189	0.784431	-0.433061	0.408470	-0.999894	-0.713623	-0.512695	0.284180	0.102213	-0.004081	-0.034735	-0.427008	-0.642668	0.446771	-0.452810	147.365914	-74.485608	-44.519265
06794		10.465372	-0.151409	-3.467395	1.504238	1.425837	1.016537	-0.492973	0.580227	-1.149655	-0.706787	-0.517090	0.275635	0.104541	-0.002201	-0.034972	-0.432465	-0.642861	0.442953	-0.451106	144.463224	-74.390956	-41.798418
06795		10.068403	-0.192096	-3.937761	1.492765	2.052865	0.697818	-0.471067	0.623725	-1.315617	-0.697021	-0.543457	0.262939	0.100545	-0.002676	-0.039686	-0.438316	-0.643352	0.438378	-0.449225	141.274493	-74.220354	-38.762290
06796		10.603463	0.209448	-2.926253	1.553850	1.004912	1.032268	-0.523217	0.673215	-1.466180	-0.694824	-0.547852	0.260986	0.105947	0.001240	-0.029623	-0.444735	-0.643889	0.433356	-0.447012	137.860599	-73.968457	-35.523337
06797		10.941675	0.426054	-2.152906	1.721660	0.281539	1.209554	-0.643231	0.826046	-1.566784	-0.680664	-0.572021	0.246094	0.109355	0.003333	-0.021993	-0.452093	-0.643985	0.427864	-0.444779	134.119667	-73.684578	-32.011063
06798		11.963850	1.041449	-2.146505	1.548394	0.131305	2.287152	-0.745944	0.913933	-1.649066	-0.671387	-0.583252	0.235352	0.119619	0.009347	-0.022048	-0.460077	-0.643767	0.422135	-0.442373	130.245599	-73.335588	-28.415721
06799		13.766403	1.391204	-1.026901	2.072241	-1.095124	3.862227	-0.861214	0.972304	-1.758245	-0.659424	-0.603027	0.224854	0.137727	0.012655	-0.010995	-0.468785	-0.643305	0.416101	-0.439613	126.245042	-72.888476	-24.751692
06800		13.759273	0.286202	-0.687071	3.397197	-0.992957	3.504112	-1.009985	1.020760	-1.870804	-0.647949	-0.616211	0.205322	0.137574	0.001538	-0.007583	-0.478221	-0.642548	0.409892	-0.436378	122.204489	-72.330856	-21.123219
06801		13.142856	-0.769820	-0.759204	4.434616	-0.445870	2.598249	-1.044933	1.068724	-2.017824	-0.634033	-0.629639	0.190186	0.131299	-0.009065	-0.008249	-0.488160	-0.641792	0.403091	-0.432806	118.179325	-71.638589	-17.522633
06802		13.112784	-2.452223	-1.015667	6.201533	0.326291	2.037011	-0.938013	1.110984	-2.236963	-0.613281	-0.653564	0.182129	0.130784	-0.026036	-0.010764	-0.498190	-0.641556	0.395206	-0.428981	114.305625	-70.770355	-13.997731
06803		13.675693	-2.627807	-1.332172	6.757266	0.822015	2.408435	-0.723910	1.164339	-2.494677	-0.601563	-0.669189	0.166992	0.136334	-0.028030	-0.014017	-0.508139	-0.642106	0.385812	-0.425023	110.645093	-69.703674	-10.551988
06804		14.514839	-2.356928	-1.518816	7.067745	1.128275	3.121720	-0.504478	1.230958	-2.830334	-0.576416	-0.686523	0.160889	0.144698	-0.025659	-0.016017	-0.518070	-0.643596	0.374634	-0.420757	107.244024	-68.398845	-7.219088
06805		15.278038	-3.404494	-1.939635	8.591794	1.956415	3.267870	-0.439374	1.281374	-3.118274	-0.555664	-0.708496	0.143799	0.152096	-0.036464	-0.020294	-0.528359	-0.645522	0.362118	-0.415943	104.097411	-66.876069	-4.084859
06806		16.571636	-2.644120	-1.961239	8.801768	2.094484	4.455031	-0.511245	1.354323	-3.334021	-0.524170	-0.723877	0.137695	0.165107	-0.029249	-0.020659	-0.539292	-0.647292	0.348795	-0.410511	101.166762	-65.182015	-1.197613
06807		18.845779	-5.188382	-2.041341	12.466645	2.931107	5.093516	-0.764693	1.490832	-3.484276	-0.501221	-0.739258	0.122559	0.187357	-0.055235	-0.021606	-0.551406	-0.648132	0.334980	-0.404555	98.279819	-63.358526	1.523951
06808		21.563092	-7.571759	-3.715098	16.008719	5.393343	6.019663	-0.896508	1.659445	-3.568491	-0.473877	-0.754639	0.109863	0.213916	-0.079716	-0.038579	-0.564181	-0.648156	0.320599	-0.398509	95.495533	-61.443236	4.086627
06809		21.472041	-8.871446	-5.457565	17.305025	7.726345	4.688793	-0.631002	1.680180	-3.787245	-0.442139	-0.778564	0.099365	0.212520	-0.092928	-0.056078	-0.576326	-0.648959	0.304767	-0.392196	93.155666	-59.353448	6.364138
06810		20.194305	-9.180604	-6.154184	17.254389	8.775708	2.643472	-0.388653	1.539661	-4.078116	-0.408203	-0.789551	0.095459	0.199533	-0.096013	-0.062900	-0.587778	-0.650886	0.287801	-0.384753	91.365924	-57.054324	8.208509
06811		20.730812	-6.747441	-6.226502	15.977805	8.898399	3.585217	-0.279398	1.348910	-4.358459	-0.383057	-0.806885	0.087158	0.205345	-0.072052	-0.063556	-0.598841	-0.653570	0.270136	-0.375850	90.025019	-54.570042	9.636742
06812		22.832927	-4.055452	-6.297666	15.569511	9.168883	6.026126	-0.176464	1.208084	-4.554698	-0.338135	-0.822021	0.083252	0.226940	-0.045790	-0.064311	-0.609428	-0.656749	0.251906	-0.365817	89.028519	-51.955855	10.754854
06813		23.073644	-2.915054	-6.124175	15.495850	9.250139	6.080845	-0.215782	1.176197	-4.591876	-0.306396	-0.834961	0.079346	0.229620	-0.034498	-0.062559	-0.619823	-0.659536	0.233615	-0.355324	88.165228	-49.314417	11.710963
06814		20.704009	-2.259111	-6.578698	13.994885	9.656618	3.893125	-0.143512	1.249834	-4.511655	-0.266113	-0.841309	0.079590	0.206043	-0.027295	-0.067058	-0.629589	-0.661968	0.215070	-0.345197	87.401771	-46.704850	12.628471
06815		17.145559	-2.081878	-6.261747	11.992737	9.090225	0.723124	-0.021242	1.238856	-4.352162	-0.236572	-0.861084	0.073486	0.170556	-0.024544	-0.063673	-0.638317	-0.664273	0.196822	-0.335490	86.801896	-44.185535	13.451555
06816		11.761876	-5.122645	-7.513284	10.327942	9.929473	-5.844407	0.303124	0.747407	-4.118574	-0.205322	-0.865234	0.075928	0.116250	-0.053515	-0.075649	-0.644802	-0.667902	0.180221	-0.325051	86.704041	-41.806573	13.851012
06817		9.273029	-3.678306	-4.401936	8.291501	6.371989	-6.724904	0.790217	0.299237	-3.763740	-0.182861	-0.867188	0.078369	0.091952	-0.038344	-0.044307	-0.648403	-0.673235	0.165468	-0.314563	87.115056	-39.652441	13.913009
06818		6.838546	8.957600	-2.990763	-0.998299	3.299166	1.325446	0.072778	0.382963	-3.138811	-0.160400	-0.871582	0.069580	0.069723	0.088500	-0.030008	-0.653319	-0.675389	0.153541	-0.305695	87.056538	-37.846479	14.074560
06819		11.496337	6.672870	-2.340265	4.380803	3.943126	2.328922	-1.236391	0.833174	-2.318989	-0.146973	-0.878174	0.065430	0.115626	0.065242	-0.024290	-0.661595	-0.671798	0.144982	-0.299933	86.052778	-36.500330	14.559144
06820		10.344480	-1.018865	-6.625466	7.284163	8.652528	-4.912085	-0.555645	0.235039	-1.097260	-0.142578	-0.875977	0.056396	0.103308	-0.010940	-0.066346	-0.665253	-0.670398	0.141364	-0.296682	85.671489	-35.864881	14.667267
06821		3.528336	-4.085280	-5.307454	4.051283	6.196567	-11.392922	-0.828323	0.235770	-0.078108	-0.151367	-0.878418	0.043213	0.035205	-0.041086	-0.052946	-0.668271	-0.667358	0.141660	-0.296613	85.109331	-35.819191	14.816578
06822		-0.846355	-5.084221	-3.015486	1.715945	3.091072	-14.625097	-0.769899	0.188372	0.742922	-0.157959	-0.874023	0.034180	-0.008303	-0.050989	-0.029951	-0.669851	-0.663979	0.144664	-0.299172	84.564289	-36.234756	14.994804
06823		-0.469549	-3.111418	-2.226160	1.046093	2.262013	-12.753102	-0.383598	0.131335	1.229790	-0.178223	-0.869873	0.031982	-0.004518	-0.031185	-0.022199	-0.669345	-0.661601	0.149022	-0.303403	84.244573	-36.938556	15.156525
06824		-0.339566	-1.764478	-2.232156	0.366029	2.213751	-11.594952	-0.254970	0.071154	1.617545	-0.191650	-0.865723	0.025146	-0.003261	-0.017700	-0.022298	-0.667755	-0.659420	0.154531	-0.308850	83.997061	-37.857655	15.324999
06825		-0.461408	-2.531149	-3.249967	0.581633	3.233626	-12.339939	-0.150387	-0.098477	2.006204	-0.211914	-0.859375	0.022705	-0.004344	-0.025380	-0.032483	-0.665019	-0.657494	0.161841	-0.315053	83.866342	-39.016634	15.391274
06826		-0.558726	-2.807286	-3.813315	0.629094	3.797748	-12.626076	0.171374	-0.380467	2.470801	-0.243164	-0.857178	0.029053	-0.005168	-0.028106	-0.038167	-0.660192	-0.656621	0.170961	-0.322130	84.022857	-40.448766	15.301456
06827		-0.477654	-2.337458	-3.824983	0.445167	3.821635	-12.161845	0.535848	-0.637837	2.948225	-0.268066	-0.846436	0.033203	-0.004310	-0.023338	-0.038327	-0.653037	-0.656826	0.182008	-0.330145	84.509629	-42.176094	15.023403
06828		0.178813	-1.661846	-3.256886	0.620937	3.366593	-11.109147	0.835143	-0.848579	3.399168	-0.297607	-0.831055	0.043701	0.002207	-0.016447	-0.032629	-0.643794	-0.657762	0.194547	-0.339161	85.282401	-44.160555	14.594727
06829		1.139958	-1.227188	-3.032939	1.048522	3.295648	-10.018816	1.115020	-1.065345	3.847812	-0.338135	-0.818115	0.052246	0.011792	-0.011878	-0.030334	-0.632394	-0.659281	0.208842	-0.349016	86.385277	-46.413895	13.937317
06830		1.999566	-1.348563	-2.747669	1.752251	3.172716	-9.335146	1.403409	-1.286209	4.293551	-0.367676	-0.800537	0.067139	0.020453	-0.012857	-0.027438	-0.618746	-0.661306	0.224568	-0.359718	87.864759	-48.909111	13.025241
06831		2.950932	-1.387508	-2.458383	2.399507	3.015242	-8.462172	1.717127	-1.482284	4.695666	-0.413330	-0.771973	0.083984	0.030003	-0.012964	-0.024477	-0.602715	-0.663788	0.241663	-0.371106	89.818208	-51.626320	11.759290
06832		4.016921	-0.859126	-2.308176	2.569056	2.864546	-7.094249	1.992084	-1.618448	5.027122	-0.447266	-0.752197	0.112061	0.040550	-0.007347	-0.022832	-0.584569	-0.666463	0.259443	-0.383140	92.266106	-54.490675	10.126615
06833		5.216184	-0.416847	-1.525343	2.894949	2.033598	-5.667310	2.107527	-1.671834	5.291170	-0.492920	-0.719238	0.131104	0.052370	-0.002627	-0.014849	-0.564949	-0.668661	0.277961	-0.395554	95.199382	-57.463660	8.038695
06834		6.711064	0.027490	-1.377431	3.109307	1.742584	-3.963108	2.182255	-1.758835	5.498561	-0.529541	-0.690674	0.158936	0.067184	0.002267	-0.013166	-0.544054	-0.670350	0.296874	-0.408045	98.753459	-60.470039	5.352649
06835		8.306411	0.747099	-1.689522	2.868021	1.705275	-1.986349	2.366174	-1.820759	5.655232	-0.564453	-0.648926	0.184326	0.082954	0.010011	-0.016031	-0.521570	-0.671747	0.315956	-0.420586	103.215989	-63.462377	1.826965
06836		9.447644	1.048936	-1.523232	2.716699	1.164560	-0.652457	2.527062	-1.823131	5.796182	-0.605713	-0.611572	0.205322	0.094249	0.013407	-0.014215	-0.497720	-0.672658	0.334702	-0.433337	108.771614	-66.369698	-2.705151
06837		11.045364	0.975522	-1.769172	2.830754	1.001771	1.004849	2.660107	-1.842262	5.958470	-0.634033	-0.561035	0.228271	0.110249	0.013267	-0.016515	-0.472459	-0.672883	0.353525	-0.446130	115.890080	-69.137520	-8.754840
06838		13.049723	1.537766	-2.211956	2.263832	0.663239	3.299091	2.829238	-1.831145	6.146604	-0.662598	-0.508057	0.262207	0.130130	0.019681	-0.020669	-0.445692	-0.672379	0.372009	-0.459211	125.079507	-71.646150	-16.784210
06839		14.775721	2.763001	-2.676217	0.742726	-0.050743	5.434186	2.871763	-1.776675	6.345982	-0.695313	-0.455566	0.276367	0.147001	0.032671	-0.025009	-0.417840	-0.670580	0.390621	-0.472385	136.907110	-73.735287	-27.453396
06840		16.236542	4.155046	-2.800838	-1.127677	-1.289155	7.089327	2.634372	-1.685721	6.504121	-0.714844	-0.404785	0.299316	0.161118	0.047156	-0.026050	-0.390070	-0.666932	0.409479	-0.485153	151.333951	-75.145417	-40.855359
06841		17.293822	5.574130	-2.944117	-3.290114	-2.585122	8.108331	2.331136	-1.586681	6.605822	-0.732422	-0.343262	0.315430	0.171187	0.061743	-0.027382	-0.362738	-0.661324	0.428828	-0.497171	167.586814	-75.623667	-56.274125
06842		17.825995	6.995731	-2.614518	-5.469587	-4.254929	8.225199	1.936125	-1.465581	6.657194	-0.749756	-0.286133	0.327148	0.175977	0.076081	-0.024133	-0.336405	-0.653797	0.448421	-0.508232	-176.455448	-75.074891	-71.614177
06843		18.854350	8.590695	-2.191243	-7.782722	-6.175743	8.495909	1.464604	-1.352729	6.619236	-0.758301	-0.233398	0.336914	0.185700	0.092236	-0.019990	-0.311529	-0.644412	0.468474	-0.517894	-162.738071	-73.609615	-84.991651
06844		20.394667	10.054605	-1.638095	-9.984738	-8.272424	8.932989	0.919459	-1.227396	6.491399	-0.766602	-0.176270	0.342041	0.200633	0.107165	-0.014660	-0.288695	-0.633466	0.488664	-0.525912	-152.115627	-71.521825	-95.567828
06845		21.919011	10.794173	-0.942424	-11.574212	-10.164169	9.170757	0.061171	-1.081031	6.302560	-0.767822	-0.138916	0.345459	0.215691	0.114779	-0.008218	-0.269106	-0.620623	0.509880	-0.531443	-144.389214	-69.079220	-103.741167
06846		22.331593	10.976884	-1.746723	-13.194603	-10.062680	8.807447	-0.644114	-0.992565	5.923417	-0.771484	-0.090820	0.342041	0.220021	0.116264	-0.016737	-0.252696	-0.607016	0.531079	-0.534445	-139.086276	-66.525385	-109.863997
06847		20.728150	10.851527	-2.118551	-13.986779	-9.339770	6.585849	-1.086319	-0.875941	5.389079	-0.770264	-0.062256	0.345703	0.204352	0.113934	-0.020895	-0.239137	-0.593397	0.551312	-0.535489	-135.508654	-64.052168	-114.490981
06848		18.789734	11.874241	-1.415779	-15.082581	-9.564677	3.491423	-1.045859	-0.864541	4.744167	-0.766602	-0.031494	0.344971	0.185073	0.123082	-0.013990	-0.227064	-0.581209	0.569058	-0.535548	-133.089397	-61.757757	-117.879837
06849		15.923836	13.411088	-0.414220	-16.018537	-9.624300	-0.629951	-0.651647	-0.823360	3.884636	-0.767090	-0.016113	0.346924	0.156610	0.137157	-0.003937	-0.216137	-0.571474	0.582959	-0.535594	-131.408853	-59.786322	-120.235609
06850		13.479734	16.027071	0.662678	-17.671336	-10.041229	-4.725992	-0.295686	-0.818221	2.941656	-0.763428	0.008301	0.352783	0.132393	0.162240	0.006933	-0.206675	-0.564709	0.592976	-0.535508	-130.332972	-58.202857	-121.687325
06851		13.466890	19.807659	3.033428	-20.341562	-12.813695	-7.596468	-0.210490	-0.659073	1.981388	-0.765869	0.016846	0.350342	0.132597	0.199429	0.030564	-0.199974	-0.560340	0.599803	-0.535038	-129.755636	-57.087026	-122.513596
06852		15.079529	22.913584	5.189968	-22.893117	-15.933703	-8.639528	-0.353879	-0.075343	0.921162	-0.761475	0.019043	0.350342	0.149718	0.229918	0.051550	-0.198254	-0.557422	0.603403	-0.534678	-129.493654	-56.650908	-123.067504
06853		14.114599	23.195789	4.922157	-23.042757	-15.180065	-9.516965	-0.598730	0.411910	-0.229469	-0.763672	0.014648	0.345947	0.141512	0.231941	0.048236	-0.201760	-0.556433	0.603935	-0.533795	-129.686667	-56.902505	-123.243187
06854		11.926989	20.325886	-1.242998	-22.050011	-8.155271	-7.758982	-0.832413	0.409490	-1.197323	-0.756836	0.008301	0.354980	0.120457	0.202485	-0.013520	-0.208483	-0.558104	0.602400	-0.531196	-130.571987	-57.576181	-122.756529
06855		12.376204	22.206495	-6.102961	-25.484520	-4.401090	-5.980699	-0.771508	0.290118	-2.197013	-0.762939	-0.011719	0.344482	0.126100	0.220450	-0.062064	-0.217321	-0.563151	0.597926	-0.527368	-132.151778	-58.634001	-121.410113
06856		14.634992	-6.287672	-6.970882	-0.372811	0.890301	7.546913	-1.598360	0.665463	-2.589023	-0.760010	-0.035645	0.349609	0.145283	-0.065319	-0.069678	-0.230592	-0.567335	0.594060	-0.521585	-134.311186	-59.973943	-119.963016
06857		11.830327	-24.635850	-6.351691	17.753602	5.061125	11.315473	-1.497173	0.582464	-1.188826	-0.759766	-0.042480	0.343018	0.116652	-0.247523	-0.062008	-0.239656	-0.567643	0.593835	-0.517404	-135.603394	-60.695824	-119.456791
06858		15.827517	-8.684350	-3.863942	3.146644	-1.731531	8.296806	-1.702787	0.708435	-0.941771	-0.768311	-0.049072	0.345459	0.157726	-0.087915	-0.038453	-0.248997	-0.566539	0.594692	-0.513201	-136.774571	-61.360164	-119.232273
06859		20.253598	-2.227041	-3.369104	-3.432644	-4.985475	9.932262	-2.087502	0.799162	-1.834908	-0.765137	-0.077637	0.333008	0.202182	-0.024482	-0.034252	-0.261962	-0.567327	0.593745	-0.506934	-138.855657	-62.408549	-118.222782
06860		23.266312	0.240752	2.507949	-4.406651	-11.663633	9.990793	-1.958438	0.777610	-2.761652	-0.768799	-0.104004	0.331299	0.232764	-0.000567	0.024170	-0.276767	-0.570908	0.589774	-0.499631	-141.816679	-63.759532	-116.159738
06861		17.489798	0.253869	-1.399002	-3.722342	-5.632502	6.383148	-1.672390	0.427186	-3.190515	-0.765869	-0.132568	0.329834	0.174877	-0.000370	-0.014369	-0.290720	-0.576889	0.584088	-0.491449	-145.550041	-65.044411	-113.074592
06862		17.065161	8.029557	0.627596	-10.125868	-8.365870	3.734606	-0.578770	0.140845	-3.540624	-0.760498	-0.156738	0.330566	0.172042	0.077275	0.005929	-0.301435	-0.585953	0.575006	-0.484938	-149.564103	-66.199322	-109.031238
06863		16.379226	1.820493	1.968790	-3.173482	-8.262349	4.226410	0.025613	0.363999	-3.947495	-0.766113	-0.189697	0.329102	0.164144	0.014965	0.019391	-0.311917	-0.596397	0.562631	-0.480067	-153.982373	-67.459716	-104.200264
06864		9.091429	4.121136	-0.881334	-4.893750	-3.286848	-1.710140	0.469753	0.119664	-3.708001	-0.760986	-0.213623	0.345215	0.091652	0.039537	-0.008774	-0.319680	-0.607173	0.550169	-0.475878	-158.437128	-68.378219	-99.102101
06865		7.751534	3.464139	-3.752253	-4.554847	-0.057882	-1.725023	0.283818	0.029009	-3.183214	-0.753662	-0.233398	0.341309	0.078049	0.033455	-0.037486	-0.326434	-0.616294	0.539611	-0.471638	-162.681287	-69.007911	-94.361609
06866		7.088771	5.057117	-3.355656	-5.793363	-0.509548	-2.514845	0.098017	0.144954	-2.682708	-0.755371	-0.255371	0.341797	0.071533	0.049631	-0.033584	-0.332802	-0.623299	0.530836	-0.467926	-166.476381	-69.494970	-90.242562
06867		6.719366	5.276086	-2.399168	-5.626126	-1.289670	-3.072985	-0.132307	0.329362	-2.165793	-0.748047	-0.277100	0.342285	0.067720	0.052013	-0.024137	-0.339141	-0.628077	0.523710	-0.465005	-169.748110	-69.941297	-86.825227
06868		8.021623	4.443801	-3.381468	-4.877733	-0.602945	-1.364636	-0.580673	0.572499	-1.710656	-0.749756	-0.292725	0.340576	0.080494	0.043651	-0.034172	-0.346408	-0.630217	0.518702	-0.462359	-172.625235	-70.413799	-84.119689
06869		9.440290	2.783458	-2.734678	-2.930480	-1.210442	-0.102393	-0.786920	0.588319	-1.390144	-0.751465	-0.305908	0.332031	0.094512	0.027069	-0.027732	-0.353623	-0.631136	0.514993	-0.459783	-175.246283	-70.838615	-81.809110
06870		11.549372	3.048418	-1.458816	-2.679776	-3.034950	1.519320	-0.679338	0.431883	-1.248074	-0.750977	-0.318848	0.341309	0.115649	0.029712	-0.014940	-0.359721	-0.632143	0.511847	-0.457175	-177.658032	-71.128043	-79.668934
06871		10.046796	0.909165	-2.243929	-0.712568	-1.296401	0.415216	-0.425831	0.235583	-1.207786	-0.755127	-0.334473	0.339355	0.100494	0.008437	-0.022576	-0.364434	-0.633976	0.508453	-0.454685	-179.948647	-71.282677	-77.496549
06872		9.375641	1.466488	-2.564698	-1.256176	-0.865312	-0.101708	-0.210127	0.187186	-1.116721	-0.752441	-0.347412	0.339844	0.093812	0.014114	-0.025750	-0.368091	-0.636000	0.505050	-0.452700	178.036753	-71.377494	-75.496209
06873		10.263483	2.490225	-2.526953	-2.076097	-1.352212	0.760210	-0.130042	0.311530	-0.963034	-0.751953	-0.358643	0.333496	0.102714	0.024391	-0.025445	-0.371526	-0.637498	0.501603	-0.451619	176.265374	-71.537117	-73.702677
06874		10.327238	1.334243	-3.136778	-0.982580	-0.491166	1.006916	-0.137802	0.501153	-0.820115	-0.751709	-0.367432	0.335693	0.103247	0.012897	-0.031636	-0.375052	-0.638164	0.498372	-0.451340	174.709938	-71.784744	-72.146265
06875		9.487906	0.849282	-3.681504	-0.631951	0.443574	0.370549	-0.215227	0.526036	-0.687623	-0.755859	-0.378418	0.329346	0.094810	0.008127	-0.037073	-0.378669	-0.638289	0.495577	-0.451221	173.259024	-72.052240	-70.747608
06876		9.965956	1.513548	-3.142885	-1.065907	-0.272580	0.688629	-0.269571	0.581541	-0.608956	-0.753418	-0.387207	0.325195	0.099613	0.014789	-0.031739	-0.382323	-0.637974	0.493145	-0.451249	171.898604	-72.335992	-69.480035
06877		10.156026	1.420902	-2.556911	-0.784697	-0.773947	0.698552	-0.320930	0.595816	-0.584122	-0.755371	-0.393799	0.323242	0.101524	0.013871	-0.025894	-0.386206	-0.637452	0.490772	-0.451267	170.467689	-72.630841	-68.171541
06878		10.081023	1.177291	-2.681422	-0.528978	-0.509617	0.659318	-0.351145	0.530199	-0.543380	-0.748535	-0.402588	0.319092	0.100770	0.011452	-0.027102	-0.389832	-0.636910	0.488814	-0.451040	169.111818	-72.873103	-66.961559
06879		9.753920	0.390088	-3.090074	0.170582	0.200577	0.423028	-0.369416	0.462281	-0.476528	-0.750244	-0.413574	0.319336	0.097476	0.003611	-0.031133	-0.393266	-0.636326	0.487126	-0.450709	167.820116	-73.084833	-65.828227
06880		9.930570	-0.007946	-2.980416	0.644689	0.192767	0.533615	-0.363563	0.413441	-0.430310	-0.748047	-0.415771	0.312744	0.099243	-0.000347	-0.030009	-0.396380	-0.635729	0.485769	-0.450289	166.649729	-73.259926	-64.822172
06881		9.920144	-0.354522	-3.317385	0.962581	0.639471	0.589435	-0.381428	0.372172	-0.415228	-0.748047	-0.418213	0.306152	0.099132	-0.003815	-0.033351	-0.399465	-0.635173	0.484463	-0.449754	165.456327	-73.414585	-63.798145
06882		10.223538	-0.068459	-3.370739	0.756615	0.599460	0.909025	-0.380390	0.348468	-0.407896	-0.743164	-0.428955	0.308594	0.102175	-0.000957	-0.033884	-0.402415	-0.634619	0.483334	-0.449120	164.308446	-73.544985	-62.827237
06883		10.478388	0.095587	-3.290306	0.692156	0.475557	1.138396	-0.382686	0.351119	-0.435821	-0.747314	-0.435791	0.304443	0.104728	0.000664	-0.033088	-0.405484	-0.634146	0.481996	-0.448466	163.051134	-73.672162	-61.738122
06884		10.245409	-0.255897	-3.051375	1.094465	0.430109	0.815648	-0.379786	0.386133	-0.452490	-0.742676	-0.442383	0.302246	0.102389	-0.002849	-0.030706	-0.408614	-0.633602	0.480636	-0.447853	161.763707	-73.803369	-60.622776
06885		10.098773	-0.023772	-2.473059	0.996963	-0.075242	0.536311	-0.320263	0.429871	-0.477339	-0.742188	-0.455566	0.293945	0.100933	-0.000518	-0.024947	-0.411746	-0.633172	0.478851	-0.447505	160.379107	-73.950769	-59.363694
06886		9.679573	0.387552	-1.944870	0.672947	-0.506347	0.031966	-0.278395	0.439156	-0.506446	-0.742432	-0.453369	0.300293	0.096762	0.003603	-0.019666	-0.414792	-0.632830	0.476973	-0.447181	158.971311	-74.084692	-58.064283
06887		9.870451	1.264947	-1.707750	-0.066010	-0.895677	0.243914	-0.275855	0.451537	-0.551045	-0.732910	-0.466553	0.282959	0.098700	0.012354	-0.017318	-0.417981	-0.632606	0.474795	-0.446847	157.413212	-74.210078	-56.599001
06888		9.676774	0.722631	-1.909440	0.448818	-0.494220	0.054529	-0.259562	0.455085	-0.567199	-0.732910	-0.473145	0.285400	0.096744	0.006927	-0.019324	-0.421129	-0.632394	0.472635	-0.446480	155.845818	-74.319374	-55.124159
06889		9.498285	1.241669	-2.145176	-0.072001	-0.274409	-0.000452	-0.287581	0.453988	-0.576469	-0.730469	-0.475342	0.278809	0.094969	0.012112	-0.021685	-0.424419	-0.632167	0.470392	-0.446056	154.186389	-74.418477	-53.564549
06890		9.360778	0.522734	-2.429964	0.610738	0.227541	-0.149518	-0.290230	0.490143	-0.604339	-0.730225	-0.486572	0.274658	0.093563	0.004909	-0.024536	-0.427816	-0.631879	0.468094	-0.445635	152.460965	-74.512923	-51.945371
06891		9.353086	0.978007	-2.794074	0.161125	0.549927	-0.019085	-0.239364	0.488024	-0.613467	-0.727783	-0.493164	0.270508	0.093492	0.009460	-0.028180	-0.431094	-0.631749	0.465535	-0.445341	150.692039	-74.593557	-50.243723
06892		9.721316	1.560146	-2.510610	-0.240921	0.150056	0.344086	-0.214716	0.482932	-0.650858	-0.727539	-0.499756	0.268555	0.097202	0.015258	-0.025357	-0.434325	-0.631726	0.462922	-0.444958	148.899232	-74.644157	-48.510981
06893		9.886054	1.352304	-2.632476	0.031463	0.340180	0.501154	-0.235849	0.507578	-0.680971	-0.722656	-0.510742	0.255371	0.098838	0.013155	-0.026591	-0.437768	-0.631696	0.460081	-0.444573	146.964391	-74.684736	-46.635676
06894		10.010657	1.148257	-2.373728	0.357315	0.174052	0.531761	-0.319913	0.514269	-0.706001	-0.720215	-0.512939	0.253418	0.100085	0.011091	-0.024013	-0.441509	-0.631476	0.457441	-0.443910	144.961792	-74.701695	-44.748533
06895		9.899846	0.738789	-2.158987	0.834856	0.137432	0.311409	-0.361999	0.543423	-0.722854	-0.717773	-0.523926	0.247070	0.098965	0.006991	-0.021872	-0.445526	-0.631138	0.454666	-0.443228	142.825797	-74.710650	-42.743865
06896		10.009761	0.426441	-2.357910	1.197798	0.443511	0.400271	-0.409228	0.608405	-0.776807	-0.708496	-0.530762	0.238281	0.100041	0.003827	-0.023892	-0.449899	-0.630640	0.451770	-0.442479	140.531717	-74.707503	-40.607743
06897		10.153253	0.917652	-2.332706	0.832320	0.387815	0.604980	-0.410090	0.669401	-0.849204	-0.706055	-0.543945	0.227539	0.101491	0.008697	-0.023685	-0.454604	-0.630165	0.448396	-0.441778	138.001931	-74.681390	-38.223268
06898		10.106824	0.154712	-2.826732	1.570186	1.109417	0.505472	-0.476353	0.789277	-0.926411	-0.703369	-0.557129	0.228027	0.100961	0.001011	-0.028669	-0.459895	-0.629408	0.444736	-0.441080	135.198138	-74.644782	-35.598037
06899		9.936931	0.558258	-3.296126	1.166921	1.624158	0.478927	-0.497504	0.838683	-1.002274	-0.696289	-0.568359	0.206055	0.099256	0.005002	-0.033391	-0.465558	-0.628641	0.440659	-0.440324	132.178416	-74.561517	-32.757739
06900		10.641577	1.070340	-2.834573	0.999321	1.094479	1.152022	-0.571497	0.836444	-1.080547	-0.687012	-0.579346	0.204102	0.106351	0.010047	-0.028820	-0.471547	-0.627839	0.436572	-0.439166	129.097164	-74.403534	-29.898858
06901		11.416372	1.259405	-2.443636	1.170550	0.703798	1.850189	-0.671041	0.895531	-1.141433	-0.675537	-0.588135	0.191162	0.114122	0.011859	-0.024988	-0.478147	-0.626759	0.432275	-0.437821	125.816555	-74.195888	-26.890295
06902		11.564984	1.382426	-2.093133	1.263177	0.457285	1.944583	-0.731193	0.898112	-1.188528	-0.675049	-0.599121	0.178223	0.115633	0.013059	-0.021499	-0.484949	-0.625598	0.428000	-0.436197	122.575630	-73.921746	-23.954568
06903		11.686242	0.865946	-1.559395	1.992944	0.143399	1.838676	-0.827300	0.908447	-1.241933	-0.665771	-0.612549	0.158691	0.116840	0.007868	-0.016158	-0.492214	-0.624241	0.423641	-0.434254	119.285910	-73.577470	-21.021439
06904		11.459391	-0.304447	-1.621386	3.182504	0.544794	1.305353	-0.899518	0.958441	-1.319855	-0.649902	-0.623535	0.152344	0.114491	-0.003875	-0.016747	-0.499880	-0.622721	0.419108	-0.432072	115.975119	-73.162267	-18.103134
06905		11.083010	-0.322146	-2.048777	3.188860	1.138163	0.942149	-0.887290	1.025722	-1.413545	-0.640381	-0.636719	0.137207	0.110696	-0.004097	-0.021039	-0.507878	-0.621200	0.413999	-0.429855	112.612331	-72.664065	-15.120159
06906		11.036435	-0.654801	-2.391409	3.608442	1.664210	0.777671	-0.721213	1.039039	-1.635268	-0.628906	-0.647949	0.124268	0.110179	-0.007537	-0.024461	-0.515741	-0.620493	0.407821	-0.427413	109.406541	-72.003112	-12.188541
06907		11.403919	-0.019291	-2.262205	3.310196	1.572467	1.220527	-0.552480	1.063159	-1.851778	-0.610596	-0.658936	0.111328	0.113908	-0.001312	-0.023225	-0.523597	-0.620516	0.400453	-0.424786	106.347069	-71.177952	-9.300711
06908		11.855339	-0.571307	-2.380532	4.161976	1.892942	1.395808	-0.514062	1.085075	-2.029215	-0.594482	-0.680908	0.105225	0.118355	-0.006977	-0.024431	-0.531623	-0.620892	0.392392	-0.421780	103.489189	-70.214964	-6.583873
06909		12.179224	-0.965449	-2.358992	4.862685	2.071444	1.451676	-0.521346	1.090405	-2.179246	-0.576172	-0.689697	0.094482	0.121546	-0.011042	-0.024225	-0.539933	-0.621457	0.383718	-0.418359	100.819916	-69.123055	-4.048167
06910		12.581283	-0.602987	-1.932479	4.956060	1.760439	1.794021	-0.542172	1.098787	-2.343625	-0.557861	-0.705078	0.081787	0.125622	-0.007556	-0.019996	-0.548565	-0.622144	0.374582	-0.414369	98.369281	-67.904610	-1.747558
06911		12.941080	-1.235268	-1.377239	5.997909	1.454923	1.710820	-0.553934	1.124266	-2.550969	-0.530762	-0.720459	0.068848	0.129159	-0.014041	-0.014462	-0.557620	-0.623029	0.364602	-0.409830	96.083036	-66.533150	0.394762
06912		13.310011	-1.763198	-1.378745	6.912466	1.698266	1.654052	-0.516812	1.178219	-2.754952	-0.505615	-0.733398	0.062744	0.132756	-0.019499	-0.014521	-0.566943	-0.624131	0.353764	-0.404829	93.989068	-65.020844	2.366965
06913		14.407453	-2.741223	-1.315173	8.575496	1.957838	1.995264	-0.535013	1.251776	-2.958445	-0.487549	-0.744385	0.052002	0.143562	-0.029575	-0.013974	-0.576734	-0.625244	0.341959	-0.399390	92.010818	-63.363789	4.229985
06914		15.689911	-3.334952	-1.894510	9.959794	2.856387	2.576933	-0.573468	1.341729	-3.115687	-0.460205	-0.761963	0.041504	0.156222	-0.035843	-0.019894	-0.586943	-0.626152	0.329457	-0.393560	90.146675	-61.594383	5.962250
06915		18.102677	-4.818476	-2.436087	12.724721	3.911549	3.588883	-0.585822	1.458951	-3.266916	-0.435059	-0.779297	0.033203	0.180023	-0.051205	-0.025530	-0.597503	-0.626847	0.316000	-0.387551	88.362561	-59.711138	7.629024
06916		20.374583	-6.089370	-4.054279	15.200367	6.087334	4.346321	-0.457721	1.594203	-3.446998	-0.399170	-0.792480	0.026855	0.202324	-0.064484	-0.042015	-0.608012	-0.627730	0.301277	-0.381455	86.741333	-57.700021	9.220141
06917		19.914876	-6.023380	-6.065493	15.108789	8.365292	3.277633	-0.312475	1.539639	-3.723191	-0.372070	-0.798828	0.018311	0.197506	-0.064017	-0.062082	-0.618276	-0.629324	0.285425	-0.374458	85.444851	-55.512869	10.561928
06918		18.684548	-4.795990	-6.710411	13.768773	9.072292	2.237098	-0.177744	1.309644	-4.052215	-0.335693	-0.818604	0.014648	0.185377	-0.051786	-0.068276	-0.628137	-0.631970	0.268908	-0.365713	84.585854	-53.135962	11.494909
06919		20.046374	-3.267200	-5.605714	13.968572	8.293525	3.602996	-0.132913	1.144309	-4.329803	-0.299805	-0.831543	0.010498	0.199368	-0.037034	-0.057176	-0.637838	-0.635120	0.251825	-0.355485	83.993181	-50.605849	12.152756
06920		22.061016	-2.087222	-4.736936	15.002312	7.902420	5.216454	-0.405186	1.203221	-4.448297	-0.266113	-0.840088	0.004395	0.219782	-0.025865	-0.048644	-0.648362	-0.637128	0.234530	-0.344514	83.295132	-47.997847	12.768262
06921		23.092754	-1.276260	-6.092907	15.512662	9.660966	5.613014	-0.655861	1.374433	-4.298984	-0.234375	-0.853271	-0.006348	0.230154	-0.017919	-0.062459	-0.659278	-0.637507	0.217500	-0.334113	82.416790	-45.461869	13.457756
06922		20.273157	-1.528892	-6.953187	14.206095	10.346856	2.546090	-0.804180	1.323933	-4.172775	-0.198486	-0.859619	-0.012695	0.201884	-0.019790	-0.070797	-0.670077	-0.637032	0.201140	-0.323620	81.551727	-42.990022	14.038481
06923		15.358880	-4.497434	-6.281440	13.235618	9.035187	-3.590025	-0.695211	0.894000	-3.957387	-0.173828	-0.864014	-0.025635	0.152374	-0.048217	-0.063333	-0.679425	-0.637103	0.186714	-0.312442	81.012082	-40.679776	14.248148
06924		13.687536	-2.746027	-2.772627	11.596498	5.323682	-3.509236	-0.263333	0.584217	-3.642004	-0.142578	-0.863770	-0.021240	0.136263	-0.029982	-0.028087	-0.686371	-0.638595	0.173522	-0.301631	80.861857	-38.567831	14.248533
06925		10.856244	8.085749	-2.362739	2.940545	4.511889	2.828434	-0.732936	0.639186	-3.260827	-0.120117	-0.868164	-0.038818	0.109784	0.078986	-0.024269	-0.694054	-0.637859	0.162119	-0.291792	80.403351	-36.675533	14.308919
06926		15.130511	1.871544	-2.419487	10.375296	5.480912	0.216569	-0.901815	1.001792	-2.507093	-0.099854	-0.876709	-0.036133	0.151399	0.016706	-0.025031	-0.701319	-0.635244	0.151961	-0.285525	79.659249	-35.162866	14.698019
06927		12.066574	0.233622	-5.905873	8.556571	8.303058	-3.617702	0.077924	0.432590	-1.424289	-0.102051	-0.876953	-0.042969	0.120550	0.001501	-0.059319	-0.703381	-0.635976	0.145945	-0.281939	79.642825	-34.327501	14.802380
06928		7.606208	-0.900327	-4.126204	5.969636	5.618402	-6.899415	-0.133693	0.412539	-0.679278	-0.095215	-0.879150	-0.044922	0.075946	-0.009289	-0.041413	-0.705049	-0.635423	0.142536	-0.280761	79.458516	-33.903372	14.996048
06929		3.480017	-2.917287	-2.321855	4.107815	2.915948	-10.609662	-0.067377	0.415357	-0.088514	-0.106445	-0.879150	-0.047363	0.034739	-0.029196	-0.023281	-0.705646	-0.634681	0.141049	-0.281691	79.277052	-33.823004	15.249255
06930		2.348998	-2.277243	-1.950740	2.883084	2.342019	-10.656331	0.333371	0.237412	0.554262	-0.113037	-0.879150	-0.045166	0.023530	-0.022675	-0.019573	-0.703960	-0.635136	0.141515	-0.284632	79.340256	-34.111315	15.479632
06931		1.742872	-0.936780	-2.155447	1.578971	2.461288	-9.912311	0.571997	0.106699	1.125070	-0.128906	-0.874756	-0.040771	0.017469	-0.009208	-0.021590	-0.700603	-0.636180	0.144118	-0.289241	79.551608	-34.747256	15.668910
06932		0.990590	-0.156396	-2.554373	0.442771	2.707246	-9.740419	0.731851	-0.043006	1.551845	-0.155518	-0.876953	-0.027588	0.009923	-0.001394	-0.025547	-0.695964	-0.637672	0.148156	-0.295055	79.878075	-35.627990	15.831625
06933		0.573869	0.012973	-2.979057	-0.072953	3.032306	-9.875534	0.893985	-0.278897	1.977821	-0.178223	-0.866211	-0.023438	0.005778	0.000320	-0.029781	-0.689923	-0.639697	0.154302	-0.301636	80.371335	-36.785794	15.854624
06934		0.831662	-0.016739	-2.835132	0.151267	2.947907	-9.683613	1.009838	-0.505511	2.478332	-0.200684	-0.864014	-0.012451	0.008388	0.000079	-0.028330	-0.682491	-0.641980	0.162450	-0.309318	80.994991	-38.235382	15.782164
06935		1.653867	-0.133802	-2.295544	0.916930	2.593680	-9.138704	1.117144	-0.705899	2.987476	-0.236572	-0.855225	-0.001953	0.016636	-0.000962	-0.022903	-0.673581	-0.644385	0.172886	-0.318069	81.762112	-40.002673	15.575366
06936		2.569405	-0.042819	-1.862802	1.565598	2.340592	-8.348747	1.222887	-0.883794	3.484208	-0.265869	-0.842285	0.013184	0.025777	0.000134	-0.018515	-0.663203	-0.646789	0.185127	-0.327953	82.666387	-42.050582	15.266716
06937		3.374840	0.123036	-1.647487	1.994840	2.244877	-7.554834	1.309991	-1.022723	3.961494	-0.304199	-0.831299	0.017334	0.033797	0.002007	-0.016291	-0.651330	-0.649001	0.199332	-0.338871	83.723234	-44.388277	14.812855
06938		4.076269	0.145802	-1.338815	2.409752	2.016388	-6.888058	1.393063	-1.125158	4.408185	-0.347168	-0.813965	0.034424	0.040790	0.002449	-0.013144	-0.638025	-0.650874	0.214897	-0.350865	84.925281	-46.966719	14.249913
06939		4.815604	0.418776	-0.945006	2.621149	1.650562	-5.984064	1.476571	-1.231351	4.776789	-0.387939	-0.794189	0.046875	0.048093	0.005405	-0.009117	-0.623263	-0.652394	0.231908	-0.363516	86.342954	-49.764078	13.477177
06940		5.727789	0.695234	-0.364139	2.890500	1.077309	-4.923928	1.479434	-1.307367	5.066525	-0.428711	-0.774658	0.068359	0.057099	0.008425	-0.003209	-0.607471	-0.653273	0.249746	-0.376618	87.945495	-52.702038	12.510726
06941		6.784571	1.293529	0.048024	2.856974	0.578008	-3.551900	1.516841	-1.388085	5.269762	-0.471924	-0.746094	0.080811	0.067468	0.014710	0.001056	-0.590573	-0.653638	0.268422	-0.389783	89.855921	-55.750943	11.218291
06942		7.943989	1.920512	0.065406	2.649870	0.390091	-2.092088	1.546972	-1.439047	5.409273	-0.508545	-0.715576	0.095459	0.078874	0.021335	0.001383	-0.572784	-0.653482	0.287232	-0.402961	92.113327	-58.837013	9.590863
06943		9.150901	2.335871	-0.105656	2.462097	0.335491	-0.701892	1.497744	-1.508943	5.537449	-0.552002	-0.684814	0.112305	0.090819	0.025883	-0.000182	-0.554270	-0.652545	0.306706	-0.415815	94.853549	-61.966250	7.416766
06944		10.214386	2.765519	-0.430725	2.023726	0.334962	0.576055	1.414294	-1.557119	5.668579	-0.586670	-0.645264	0.128906	0.101333	0.030561	-0.003307	-0.535217	-0.650718	0.326444	-0.428419	98.190773	-65.093590	4.596370
06945		11.023400	3.254905	-0.439226	1.357597	-0.076358	1.607147	1.310023	-1.576613	5.786846	-0.625732	-0.603760	0.140869	0.109259	0.035744	-0.003301	-0.515688	-0.647808	0.346733	-0.440666	102.407155	-68.209357	0.811800
06946		11.553902	3.537897	-0.675068	0.625397	-0.279111	2.268256	1.230486	-1.628786	5.863325	-0.658447	-0.559814	0.155273	0.114484	0.038783	-0.005584	-0.495699	-0.644100	0.367054	-0.452426	107.935958	-71.211040	-4.327743
06947		12.060514	3.519767	-0.911529	0.088414	-0.455411	2.773346	1.160679	-1.684441	5.944495	-0.679932	-0.518066	0.178467	0.119557	0.038810	-0.007887	-0.475131	-0.639506	0.387763	-0.463598	115.553648	-74.033637	-11.621627
06948		12.488443	3.691521	-1.140824	-0.702539	-0.716002	3.219068	1.084345	-1.739611	5.993829	-0.710449	-0.463135	0.190186	0.123794	0.040694	-0.010114	-0.454146	-0.634180	0.408359	-0.474141	126.143788	-76.480676	-21.924592
06949		12.943988	3.862979	-1.613199	-1.596981	-0.783419	3.672332	1.089672	-1.811619	5.981436	-0.731934	-0.419189	0.206787	0.128344	0.042562	-0.014741	-0.432536	-0.628352	0.428839	-0.483925	140.778565	-78.273062	-36.288753
06950		13.901651	3.963921	-1.844061	-2.341859	-1.168098	4.520815	1.109432	-1.850047	5.963472	-0.749268	-0.370850	0.220947	0.137912	0.043860	-0.016926	-0.410424	-0.622132	0.448682	-0.493142	158.912835	-79.081595	-54.127619
06951		15.087436	4.022378	-1.640922	-3.015289	-2.056865	5.454874	1.101603	-1.848570	5.932320	-0.763916	-0.329102	0.237549	0.149733	0.044761	-0.014783	-0.387971	-0.615257	0.468166	-0.501754	177.774732	-78.720808	-72.711666
06952		15.738591	4.119420	-1.335116	-3.815563	-3.006119	5.768510	1.086372	-1.833112	5.865030	-0.774170	-0.282959	0.245117	0.156199	0.045853	-0.011675	-0.365421	-0.607942	0.486817	-0.509788	-166.281586	-77.324611	-88.367438
06953		16.116169	3.985688	-1.066541	-4.437818	-3.819408	5.756024	1.097955	-1.801192	5.782990	-0.784912	-0.230225	0.259277	0.160005	0.044547	-0.008985	-0.342738	-0.600094	0.504818	-0.517278	-154.246334	-75.210891	-100.116183
06954		16.594547	4.240600	-0.759761	-5.426785	-4.792952	5.725244	1.167100	-1.749178	5.674143	-0.792969	-0.186279	0.269043	0.164709	0.047129	-0.005887	-0.319974	-0.592028	0.521595	-0.524460	-145.534943	-72.704391	-108.480518
06955		17.091087	4.705512	-0.520257	-6.633338	-5.759703	5.590347	1.218543	-1.675043	5.474857	-0.791992	-0.146484	0.277100	0.169571	0.051734	-0.003473	-0.297458	-0.583756	0.537201	-0.531190	-139.185831	-70.011372	-114.451891
06956		17.201401	5.027034	-0.475989	-7.671421	-6.375143	5.080595	1.270906	-1.584398	5.215814	-0.784424	-0.102539	0.284668	0.170654	0.054756	-0.003066	-0.275508	-0.575622	0.551200	-0.537526	-134.467858	-67.300713	-118.732895
06957		16.914564	5.266885	-0.144318	-8.402297	-7.055560	4.094559	1.249371	-1.448222	4.952649	-0.787842	-0.065186	0.288330	0.167775	0.056838	0.000122	-0.254467	-0.567307	0.564007	-0.543420	-130.798523	-64.637353	-121.973068
06958		16.389769	5.382996	-0.096595	-8.958551	-7.295368	2.996346	1.072643	-1.318980	4.700524	-0.782227	-0.027832	0.298340	0.162573	0.057662	0.000412	-0.234837	-0.558828	0.575932	-0.548512	-127.943014	-62.073358	-124.478423
06959		15.502147	5.342441	-0.638154	-9.385457	-6.759609	1.825061	0.875594	-1.205484	4.446611	-0.785400	0.000977	0.308838	0.153816	0.056878	-0.005208	-0.216615	-0.550141	0.587291	-0.552732	-125.688560	-59.608912	-126.489554
06960		14.644613	4.817088	-1.308569	-9.345119	-5.953779	0.983780	0.793900	-1.110911	4.201388	-0.777588	0.036133	0.307861	0.145460	0.051283	-0.012076	-0.199487	-0.541604	0.597718	-0.556421	-123.850205	-57.266302	-128.111749
06961		14.499112	4.886001	-1.617964	-9.865543	-5.852437	0.439197	0.763224	-1.040434	3.942530	-0.780762	0.062500	0.311523	0.144071	0.051766	-0.015235	-0.183257	-0.533312	0.607232	-0.559700	-122.313827	-55.039638	-129.436655
06962		14.575578	5.705746	-1.613847	-10.934204	-6.241468	-0.375279	0.769377	-0.949957	3.617062	-0.777100	0.088867	0.315430	0.144765	0.059741	-0.015223	-0.168147	-0.525601	0.615488	-0.562713	-121.013054	-52.987962	-130.498104
06963		13.913876	6.761652	-1.429109	-11.759898	-6.447986	-1.972795	0.714268	-0.824248	3.169860	-0.773193	0.110840	0.310303	0.138100	0.069860	-0.013474	-0.154752	-0.518660	0.622443	-0.565339	-119.939711	-51.176983	-131.339036
06964		13.028575	7.813825	-1.010643	-12.281019	-6.682247	-3.785234	0.512145	-0.676169	2.653388	-0.771484	0.128418	0.316650	0.129266	0.079883	-0.009465	-0.143785	-0.512663	0.628342	-0.567176	-119.147437	-49.661397	-131.985049
06965		12.121081	9.362953	-0.552673	-13.071813	-6.949605	-5.848733	0.212681	-0.512122	2.045787	-0.769775	0.141602	0.316406	0.120258	0.094868	-0.005118	-0.135786	-0.507803	0.633319	-0.567984	-118.664992	-48.489899	-132.458751
06966		11.367179	11.224203	0.332729	-13.925446	-7.631339	-8.038762	-0.154062	-0.297220	1.360692	-0.765625	0.152588	0.318115	0.112900	0.113014	0.003409	-0.131349	-0.504224	0.637401	-0.567649	-118.504365	-47.721919	-132.791941
06967		10.561541	12.355474	1.006114	-14.224419	-7.928369	-9.664699	-0.512535	-0.072169	0.603198	-0.769775	0.145996	0.316162	0.105239	0.123898	0.009782	-0.130668	-0.502182	0.640396	-0.566244	-118.654011	-47.398038	-132.980597
06968		10.121170	11.862003	0.887180	-13.720886	-7.459814	-9.671686	-0.735765	0.140474	-0.136261	-0.758789	0.145996	0.311768	0.101298	0.118582	0.008364	-0.133331	-0.501739	0.642043	-0.564146	-119.039997	-47.503343	-133.027703
06969		10.093441	10.588750	0.486921	-12.885336	-6.854318	-8.707951	-0.752502	0.329652	-0.832503	-0.767334	0.132813	0.312012	0.101381	0.105483	0.004305	-0.138599	-0.503014	0.641797	-0.562018	-119.544084	-48.014235	-132.919675
06970		10.447416	9.569426	0.434606	-12.249220	-6.792831	-7.640027	-0.487971	0.516446	-1.557069	-0.767090	0.124023	0.312256	0.105225	0.094887	0.003843	-0.145835	-0.506206	0.638874	-0.560650	-120.034392	-48.933564	-132.637057
06971		11.138818	9.103028	-0.506811	-12.482385	-6.225466	-6.260312	-0.104938	0.681535	-2.283019	-0.761963	0.104248	0.301758	0.112399	0.089748	-0.005497	-0.154649	-0.511540	0.632772	-0.560366	-120.470223	-50.265499	-132.131759
06972		11.625352	9.110856	-1.520187	-12.962930	-5.577294	-5.196608	0.230872	0.741360	-2.954725	-0.767822	0.084229	0.293457	0.117526	0.089396	-0.015532	-0.164645	-0.518933	0.623925	-0.560641	-120.957267	-51.936008	-131.334920
06973		11.171128	9.654588	-0.508597	-12.687373	-6.366150	-5.720608	0.345112	0.737211	-3.444828	-0.767090	0.057861	0.294189	0.113333	0.094612	-0.005337	-0.175670	-0.527899	0.613216	-0.560740	-121.636588	-53.849917	-130.221585
06974		11.472413	-4.365436	-11.136360	-4.684273	5.474906	5.112408	0.118635	0.415785	-3.525564	-0.761963	0.038330	0.296875	0.113700	-0.045599	-0.111627	-0.186468	-0.537567	0.603120	-0.559015	-122.808757	-55.684006	-128.702455
06975		6.219947	-47.707709	-17.438906	32.310472	22.422819	22.929020	0.035799	0.312738	-1.649888	-0.759521	0.031738	0.292480	0.057988	-0.477536	-0.174567	-0.191917	-0.541770	0.598168	-0.558433	-123.334365	-56.582806	-128.031846
06976		7.017965	-22.916148	-13.198183	12.366008	13.435406	10.562821	0.915427	-0.287345	-0.471704	-0.759521	0.029541	0.297119	0.069830	-0.228719	-0.132929	-0.189873	-0.544858	0.594606	-0.559930	-123.244740	-56.716383	-127.510185
06977		19.565765	-2.322440	-3.057596	-5.594683	-5.250198	8.590801	-0.158790	0.502353	-1.495624	-0.759277	0.018311	0.286133	0.195399	-0.024711	-0.031048	-0.195970	-0.547769	0.590442	-0.559396	-123.697703	-57.592435	-127.074151
06978		24.950032	1.017424	-0.158633	-8.745202	-10.619453	11.026541	-0.287469	0.619737	-2.687802	-0.762939	-0.001465	0.282227	0.249600	0.006817	-0.002371	-0.206067	-0.553640	0.583225	-0.557555	-124.791791	-59.063346	-125.981208
06979		25.161918	-2.339888	1.826467	-4.533246	-11.374267	12.367469	-0.587675	0.448081	-3.072180	-0.755615	-0.027832	0.280762	0.251261	-0.027208	0.017778	-0.217530	-0.560731	0.575757	-0.553865	-126.538512	-60.648189	-124.342413
06980		16.874175	-1.092029	6.323684	-1.165263	-12.056139	3.573641	-1.194228	0.464937	-3.109754	-0.759277	-0.047607	0.283447	0.168695	-0.013167	0.062919	-0.230778	-0.567021	0.569764	-0.548268	-128.836844	-62.219194	-122.503864
06981		12.006634	3.828197	2.670474	-5.365170	-7.960853	-1.223558	-1.178963	0.451399	-3.164447	-0.758545	-0.073975	0.281982	0.120713	0.036531	0.026214	-0.244037	-0.573427	0.563313	-0.542500	-131.417846	-63.780298	-120.352054
06982		10.504422	15.301564	-11.062961	-20.008657	2.052982	-1.921348	-0.221930	0.068168	-3.467558	-0.749023	-0.095703	0.286865	0.107637	0.151041	-0.110834	-0.254215	-0.582656	0.553811	-0.537755	-134.322116	-65.261385	-117.275172
06983		23.420617	9.184146	1.794538	-11.958149	-12.485540	8.547945	-0.397645	1.164039	-4.065760	-0.743408	-0.130859	0.279053	0.236107	0.087088	0.016398	-0.269469	-0.590228	0.541306	-0.534794	-137.305234	-67.373432	-114.253441
06984		12.738348	-3.833889	1.680740	2.348961	-4.784182	2.489980	0.386062	0.982579	-4.172093	-0.738281	-0.150635	0.281738	0.126627	-0.041017	0.016107	-0.282064	-0.599280	0.526519	-0.532992	-140.703395	-69.365446	-110.359701
06985		4.545976	5.710847	-3.348102	-6.970304	-0.148149	-5.827893	0.764240	0.459743	-3.285326	-0.740234	-0.161621	0.281982	0.046314	0.056480	-0.033370	-0.289698	-0.607784	0.513755	-0.531723	-143.938262	-70.736808	-106.436166
06986		7.868303	4.137529	-2.388041	-5.333325	-1.584863	-2.479799	0.538722	0.358145	-2.835349	-0.735107	-0.183350	0.289307	0.079217	0.040319	-0.023912	-0.296470	-0.614837	0.503140	-0.530029	-147.242422	-71.822580	-102.620889
06987		8.832352	3.794590	-3.359279	-5.233822	-0.839948	-1.118377	0.121195	0.443138	-2.537708	-0.739014	-0.198730	0.287354	0.088721	0.036842	-0.033767	-0.303917	-0.620266	0.494152	-0.527938	-150.690578	-72.801533	-98.912603
06988		8.699342	3.251310	-3.183431	-4.481323	-0.697049	-1.105680	-0.203915	0.474229	-2.186884	-0.740967	-0.209717	0.294189	0.087266	0.031527	-0.032073	-0.311457	-0.624074	0.487164	-0.525546	-154.068601	-73.621412	-95.505471
06989		9.683728	2.810708	-1.870975	-3.468988	-1.914065	-0.353603	-0.389854	0.427760	-1.892268	-0.738281	-0.227295	0.288086	0.097057	0.027153	-0.018971	-0.318681	-0.627013	0.481421	-0.523003	-157.410882	-74.301267	-92.244172
06990		9.520283	2.096326	-1.341408	-2.463612	-2.015550	-0.501655	-0.545134	0.388729	-1.677538	-0.749023	-0.236084	0.294922	0.095348	0.020127	-0.013655	-0.325681	-0.629146	0.476955	-0.520213	-160.685780	-74.851071	-89.170097
06991		9.712788	2.185048	-1.605794	-2.499823	-1.768753	-0.204800	-0.443095	0.319595	-1.504145	-0.742188	-0.244873	0.297363	0.097262	0.021083	-0.016261	-0.331750	-0.631252	0.472659	-0.517742	-163.849239	-75.298277	-86.142387
06992		9.574026	-0.995819	-2.423236	0.336854	0.141753	0.106513	-0.201601	0.209663	-1.377965	-0.752930	-0.258057	0.302002	0.095643	-0.010642	-0.024322	-0.336423	-0.633621	0.468480	-0.515626	-166.787830	-75.612668	-83.224962
06993		9.925346	-2.456442	-3.160253	1.582457	1.279014	0.694104	0.217374	0.093957	-1.168141	-0.750488	-0.266602	0.304443	0.099093	-0.025109	-0.031676	-0.338972	-0.636561	0.463867	-0.514505	-169.235858	-75.813610	-80.553714
06994		10.839763	0.436806	-1.932481	-0.582789	-0.993237	1.146265	0.332693	0.045309	-1.044812	-0.754639	-0.277588	0.309326	0.108414	0.003834	-0.019343	-0.340683	-0.639427	0.459610	-0.513640	-171.368676	-75.938123	-78.156940
06995		10.014299	2.173669	-1.446631	-1.988399	-1.805352	0.181809	0.267522	0.015606	-0.979127	-0.758789	-0.284180	0.313721	0.100247	0.021265	-0.014445	-0.342386	-0.642173	0.455576	-0.512675	-173.487264	-76.029026	-75.799111
06996		9.806386	1.213916	-1.348832	-0.981579	-1.485019	-0.000006	0.135895	-0.017267	-0.900884	-0.763184	-0.290771	0.324951	0.098118	0.011706	-0.013472	-0.344198	-0.644501	0.452368	-0.511379	-175.476391	-76.066948	-73.668370
06997		10.351071	2.027210	-1.502849	-1.677861	-1.733992	0.564708	-0.012749	-0.019907	-0.747834	-0.756104	-0.299316	0.327393	0.103587	0.019884	-0.015019	-0.346117	-0.646306	0.449832	-0.510042	-177.264721	-76.090187	-71.816872
06998		10.101900	1.776022	-1.963762	-1.554679	-1.146146	0.450253	-0.273023	0.006876	-0.603490	-0.762451	-0.308105	0.329834	0.101071	0.017428	-0.019665	-0.348534	-0.647176	0.448572	-0.508400	-178.811278	-76.104159	-70.383863
06999		9.933846	1.831982	-2.154415	-1.626375	-0.924868	0.344976	-0.460436	0.039173	-0.528318	-0.764404	-0.319092	0.327881	0.099382	0.018008	-0.021605	-0.351467	-0.647544	0.447767	-0.506619	179.644488	-76.135841	-69.048067
07000		9.348961	1.561238	-2.362754	-1.442898	-0.478953	-0.163257	-0.476886	0.063613	-0.472710	-0.761963	-0.327881	0.330322	0.093519	0.015335	-0.023694	-0.354332	-0.647605	0.447338	-0.504921	178.275990	-76.165627	-67.919076
07001		9.519844	0.326233	-2.280619	-0.194886	-0.130566	-0.020862	-0.457373	0.093043	-0.416504	-0.763916	-0.334473	0.326172	0.095194	0.003012	-0.022858	-0.357080	-0.647583	0.446777	-0.503509	176.977125	-76.215108	-66.833667
07002		9.344580	-1.162651	-3.228087	0.910132	1.312610	0.012893	-0.402728	0.143974	-0.324511	-0.766113	-0.336670	0.337158	0.093403	-0.011843	-0.032324	-0.359504	-0.647230	0.446490	-0.502491	175.973456	-76.284327	-66.037001
07003		9.404673	-0.441407	-2.706924	0.442909	0.602552	-0.044842	-0.274957	0.160514	-0.268273	-0.770264	-0.345459	0.330811	0.094019	-0.004577	-0.027138	-0.361409	-0.647040	0.445817	-0.501967	175.102518	-76.367947	-65.281829
07004		9.540102	-0.159027	-2.320411	0.340994	0.149853	-0.000231	-0.191005	0.199141	-0.270510	-0.770264	-0.350098	0.326416	0.095376	-0.001742	-0.023297	-0.363132	-0.646802	0.445068	-0.501693	174.317259	-76.465627	-64.585619
07005		9.390071	0.245113	-2.219919	0.001012	-0.019372	-0.160688	-0.088240	0.179058	-0.265683	-0.772217	-0.354248	0.333252	0.093884	0.002317	-0.022284	-0.364479	-0.646881	0.443908	-0.501644	173.534387	-76.555901	-63.813841
07006		9.581632	0.081664	-1.818193	0.325325	-0.347303	-0.071352	-0.066077	0.164720	-0.285474	-0.767578	-0.360840	0.333496	0.095802	0.000674	-0.018261	-0.365756	-0.646986	0.442858	-0.501506	172.774793	-76.628506	-63.070938
07007		9.332502	0.178180	-1.778501	0.244681	-0.338790	-0.319760	-0.026720	0.173486	-0.305265	-0.776367	-0.367432	0.331299	0.093312	0.001637	-0.017866	-0.366958	-0.647294	0.441411	-0.501507	171.920525	-76.706048	-62.185801
07008		9.033130	0.653654	-2.111431	-0.320598	-0.110987	-0.519267	0.045850	0.153246	-0.326380	-0.769531	-0.369629	0.333496	0.090326	0.006394	-0.021182	-0.367949	-0.647719	0.439966	-0.501502	171.114274	-76.763743	-61.329510
07009		9.511406	0.780652	-2.480831	-0.481734	0.113237	0.035449	0.089100	0.155269	-0.372990	-0.769287	-0.380615	0.336182	0.095109	0.007640	-0.024879	-0.368912	-0.648420	0.438045	-0.501570	170.152108	-76.819253	-60.267332
07010		9.572869	0.408567	-2.713700	-0.175124	0.467595	0.133241	0.066110	0.154797	-0.379442	-0.764893	-0.380615	0.336182	0.095715	0.003913	-0.027210	-0.369970	-0.648990	0.436370	-0.501513	169.214280	-76.866060	-59.264370
07011		9.914780	0.616487	-2.213318	-0.134695	-0.102026	0.363412	-0.089454	0.152154	-0.384378	-0.762207	-0.387207	0.331787	0.099143	0.005964	-0.022211	-0.371514	-0.649397	0.434856	-0.501159	168.112025	-76.909475	-58.161576
07012		10.164511	0.013650	-2.180433	0.504703	0.057308	0.570643	-0.265045	0.158324	-0.375958	-0.762207	-0.391602	0.332031	0.101628	-0.000084	-0.021885	-0.373643	-0.649330	0.434012	-0.500395	166.977390	-76.950135	-57.151708
07013		9.901649	-0.079611	-2.019947	0.649943	0.023614	0.272252	-0.373846	0.156783	-0.378288	-0.759766	-0.400391	0.330078	0.098999	-0.001021	-0.020275	-0.376110	-0.649165	0.433224	-0.499442	165.710581	-76.987515	-56.049281
07014		9.961410	0.288327	-1.763252	0.435148	-0.319371	0.293266	-0.456193	0.134507	-0.436909	-0.754883	-0.413574	0.330322	0.099608	0.002625	-0.017706	-0.378954	-0.648921	0.432698	-0.498064	164.324017	-76.995854	-54.893502
07015		9.851007	-0.279819	-2.322953	0.826022	0.443983	0.268829	-0.472785	0.147212	-0.519318	-0.754639	-0.417969	0.325928	0.098485	-0.003109	-0.023295	-0.382066	-0.648882	0.431710	-0.496592	162.664218	-76.993144	-53.446209
07016		9.759895	-0.858197	-2.493441	1.361080	0.846872	0.169252	-0.415958	0.159992	-0.618597	-0.749756	-0.428955	0.326416	0.097552	-0.008936	-0.024994	-0.385277	-0.649027	0.430436	-0.495026	160.854083	-76.967966	-51.831971
07017		9.790748	-0.559896	-2.246727	1.228818	0.555760	0.157295	-0.383320	0.193936	-0.748193	-0.751953	-0.435547	0.322021	0.097864	-0.006008	-0.022551	-0.388757	-0.649511	0.428388	-0.493444	158.685854	-76.924417	-49.810948
07018		9.957215	-0.720545	-2.284614	1.470182	0.663600	0.300775	-0.368046	0.226769	-0.908666	-0.740479	-0.446533	0.320068	0.099512	-0.007700	-0.022945	-0.392658	-0.650180	0.425908	-0.491617	156.205878	-76.843534	-47.480116
07019		10.122156	-0.951510	-2.456489	1.752742	0.932020	0.456481	-0.326427	0.278202	-1.057463	-0.739990	-0.455322	0.313721	0.101135	-0.010090	-0.024689	-0.396879	-0.651186	0.422539	-0.489800	153.349562	-76.729238	-44.718843
07020		10.185512	-0.580678	-2.746461	1.430995	1.137576	0.593156	-0.227953	0.297444	-1.209687	-0.730713	-0.468506	0.309570	0.101776	-0.006454	-0.027609	-0.401188	-0.652555	0.418569	-0.487874	150.315850	-76.551252	-41.734058
07021		10.752091	-0.584499	-2.671623	1.672608	1.060675	1.103454	-0.151232	0.336857	-1.309346	-0.725830	-0.481689	0.310059	0.107434	-0.006569	-0.026892	-0.405558	-0.654227	0.413818	-0.486070	147.112337	-76.325613	-38.511660
07022		10.985361	0.472455	-2.478562	0.911225	0.584530	1.406516	-0.155240	0.363518	-1.366699	-0.716553	-0.492676	0.303711	0.109837	0.003955	-0.024989	-0.410113	-0.655847	0.408986	-0.484152	143.926338	-76.053106	-35.321485
07023		11.583994	1.431274	-2.082189	0.392376	-0.089434	2.036720	-0.237594	0.381758	-1.413429	-0.707275	-0.505615	0.301758	0.115897	0.013469	-0.021059	-0.415071	-0.657375	0.403978	-0.482055	140.670154	-75.728863	-32.089070
07024		11.705638	2.034144	-2.056203	0.014945	-0.225715	2.242747	-0.386508	0.395273	-1.473768	-0.695557	-0.525635	0.293457	0.117161	0.019438	-0.020832	-0.420662	-0.658583	0.399242	-0.479498	137.409207	-75.345655	-28.949190
07025		11.594301	0.863735	-2.341126	1.154074	0.549221	1.977899	-0.514141	0.423826	-1.538987	-0.694824	-0.547607	0.282959	0.115955	0.007684	-0.023678	-0.426872	-0.659590	0.394357	-0.476658	134.063540	-74.901300	-25.778973
07026		11.769806	0.653397	-2.697055	1.451754	1.047665	2.146430	-0.571007	0.466674	-1.584143	-0.672363	-0.556152	0.278809	0.117681	0.005524	-0.027262	-0.433418	-0.660365	0.389492	-0.473670	130.793518	-74.411259	-22.726435
07027		11.976692	0.299331	-2.515539	2.059138	1.095632	2.204549	-0.619987	0.506365	-1.685241	-0.669678	-0.569580	0.270508	0.119722	0.001906	-0.025466	-0.440447	-0.661105	0.384170	-0.470489	127.469794	-73.842155	-19.633070
07028		11.977094	0.488813	-2.519590	2.070056	1.171574	2.202949	-0.606197	0.532800	-1.801708	-0.653320	-0.593750	0.262207	0.119740	0.003732	-0.025527	-0.447675	-0.661952	0.378458	-0.467093	124.250933	-73.184066	-16.637526
07029		12.476288	0.800362	-2.084629	2.247999	0.767140	2.637055	-0.613645	0.577099	-1.943280	-0.639404	-0.604736	0.253662	0.124771	0.006727	-0.021228	-0.455336	-0.662893	0.372048	-0.463489	121.031423	-72.421012	-13.629697
07030		12.446282	0.591542	-1.798734	2.728174	0.716672	2.456469	-0.630287	0.604785	-2.071041	-0.621094	-0.620117	0.245361	0.124460	0.004569	-0.018380	-0.463305	-0.663874	0.365254	-0.459575	117.952789	-71.558641	-10.771321
07031		12.527652	0.494949	-1.684772	3.102743	0.796357	2.424837	-0.672625	0.651106	-2.169458	-0.607422	-0.633057	0.239014	0.125264	0.003533	-0.017269	-0.471705	-0.664750	0.357980	-0.455469	114.954494	-70.607844	-8.005141
07032		12.736053	0.917750	-1.706104	3.024599	0.851793	2.680435	-0.714406	0.674373	-2.265083	-0.588867	-0.650879	0.224121	0.127395	0.007673	-0.017520	-0.480394	-0.665540	0.350471	-0.451053	112.141992	-69.572619	-5.448348
07033		12.914173	1.266879	-1.629651	3.052825	0.853821	2.875040	-0.769844	0.683055	-2.388811	-0.572754	-0.672607	0.215820	0.129223	0.011062	-0.016782	-0.489498	-0.666309	0.342485	-0.446238	109.466257	-68.427997	-3.045818
07034		13.112246	0.884284	-1.566755	3.759819	1.085822	2.830174	-0.831526	0.672756	-2.504297	-0.556396	-0.692383	0.207520	0.131165	0.007134	-0.016141	-0.498947	-0.667007	0.334329	-0.440883	106.997654	-67.186128	-0.893402
07035		13.646584	0.030967	-1.183805	5.109502	1.143095	2.844573	-0.925979	0.683261	-2.575589	-0.529297	-0.701172	0.190186	0.136413	-0.001504	-0.012300	-0.508802	-0.667453	0.325950	-0.435182	104.661258	-65.869341	1.083458
07036		14.245303	-0.666550	-1.396055	6.212708	1.735652	2.981764	-1.068070	0.771376	-2.644169	-0.513184	-0.720947	0.179688	0.142292	-0.008624	-0.014467	-0.519307	-0.667301	0.317463	-0.429239	102.359490	-64.500083	2.946023
07037		14.887628	-1.310569	-1.684981	7.292911	2.404323	3.118454	-1.085515	0.814992	-2.756888	-0.486084	-0.731934	0.168945	0.148606	-0.015249	-0.017377	-0.530073	-0.667047	0.308362	-0.423064	100.173220	-63.039126	4.697052
07038		15.973809	-2.326023	-2.374076	8.825212	3.586738	3.432642	-1.126098	0.964202	-2.852508	-0.467529	-0.749512	0.156250	0.159267	-0.025670	-0.024369	-0.541266	-0.666343	0.298646	-0.416927	98.003188	-61.513261	6.420481
07039		16.992634	-3.873365	-4.081294	10.573579	5.910204	3.364917	-0.993007	1.060524	-3.010613	-0.440430	-0.762695	0.141113	0.169097	-0.041488	-0.041510	-0.552351	-0.665857	0.287714	-0.410808	95.980063	-59.873283	8.093830
07040		17.406367	-4.428464	-5.140079	11.358973	7.350498	3.068405	-0.781546	1.061775	-3.192788	-0.417725	-0.778076	0.132813	0.173050	-0.047255	-0.052141	-0.562942	-0.666020	0.275727	-0.404338	94.256587	-58.106391	9.583121
07041		17.709606	-4.386424	-5.524501	11.763368	7.999079	2.875505	-0.830973	1.001347	-3.328407	-0.385986	-0.793213	0.126709	0.176052	-0.047031	-0.055937	-0.573717	-0.666143	0.263434	-0.397121	92.711126	-56.237878	10.859284
07042		17.821438	-4.479780	-5.157060	12.369296	7.908323	2.380936	-0.993499	0.910651	-3.465787	-0.367676	-0.806641	0.111572	0.177163	-0.048132	-0.052145	-0.584994	-0.665943	0.251218	-0.388834	91.293435	-54.272611	11.892789
07043		19.347503	-3.461089	-4.608742	12.980469	7.598767	3.650702	-1.061576	0.888417	-3.547637	-0.336182	-0.817383	0.103027	0.192611	-0.038280	-0.046748	-0.596420	-0.665447	0.238835	-0.380028	89.974153	-52.248123	12.781451
07044		18.618638	-2.719055	-4.196148	12.508460	7.206150	2.962968	-1.032194	0.870526	-3.670675	-0.309082	-0.821777	0.092285	0.185458	-0.030818	-0.042617	-0.607741	-0.664979	0.225955	-0.370672	88.793657	-50.140893	13.538415
07045		17.928640	-2.090277	-3.709689	12.145757	6.750731	2.288187	-1.135877	0.850336	-3.716846	-0.281738	-0.841553	0.079590	0.178695	-0.024441	-0.037725	-0.619227	-0.664020	0.213118	-0.360856	87.660142	-48.001963	14.176866
07046		17.557625	-0.475299	-3.625650	11.166574	6.600643	2.570396	-0.902507	0.894674	-3.642308	-0.256836	-0.852539	0.068848	0.175284	-0.008113	-0.037010	-0.629620	-0.663378	0.199858	-0.351519	86.707414	-45.893641	14.774157
07047		16.425350	-0.069397	-4.701880	10.281491	7.615501	1.508326	-0.771083	0.876594	-3.581813	-0.227783	-0.854492	0.060059	0.163996	-0.003816	-0.047727	-0.639214	-0.662872	0.186611	-0.342319	85.902713	-43.820085	15.286959
07048		13.750338	-2.500627	-4.414642	10.447732	7.261028	-2.538427	-0.574905	0.728896	-3.357945	-0.200928	-0.861084	0.053711	0.136894	-0.027436	-0.044570	-0.647438	-0.662829	0.174122	-0.333412	85.326001	-41.871113	15.651963
07049		11.503240	-1.002439	-0.722936	8.848215	3.163325	-3.064051	-0.377107	0.655200	-2.972378	-0.178467	-0.867432	0.047363	0.114842	-0.011746	-0.007585	-0.654110	-0.663032	0.162861	-0.325585	84.916213	-40.150941	15.944609
07050		9.089383	10.934990	-1.225885	-0.426421	2.230665	4.277015	-1.000181	0.658452	-2.857227	-0.162598	-0.869629	0.036377	0.092401	0.107973	-0.013104	-0.662523	-0.660945	0.152858	-0.317567	84.165363	-38.486734	16.226620
07051		11.936185	1.771083	-3.072282	7.284657	5.529207	-1.362737	-1.552381	0.681054	-2.051533	-0.144531	-0.876465	0.023438	0.119428	0.016245	-0.031259	-0.671346	-0.656240	0.146385	-0.311794	83.081408	-37.284489	16.540813
07052		9.849866	0.289707	-3.358478	6.665318	5.498973	-4.006161	-1.591854	0.261209	-1.098713	-0.146729	-0.876465	0.007813	0.098468	0.002088	-0.033732	-0.678430	-0.651271	0.144392	-0.307781	82.120802	-36.642331	16.623123
07053		6.490809	-0.077572	-0.709594	4.903215	2.187653	-6.096154	-1.753867	0.205475	-0.474953	-0.149170	-0.872559	-0.018799	0.064899	-0.000992	-0.007155	-0.684983	-0.645321	0.144999	-0.305506	81.064553	-36.366070	16.699697
07054		3.880585	-0.848441	0.052278	3.517005	0.860969	-8.178389	-1.613666	0.207274	0.054361	-0.157959	-0.876953	-0.020996	0.038809	-0.008469	0.000551	-0.690224	-0.639426	0.146939	-0.305179	80.052032	-36.378751	16.849636
07055		2.571558	-1.076631	0.031973	2.642261	0.568389	-9.128265	-1.324586	0.163680	0.537709	-0.164551	-0.875000	-0.038818	0.025745	-0.010695	0.000370	-0.693732	-0.634192	0.150269	-0.306523	79.188817	-36.675443	17.014803
07056		1.714532	-1.933108	-0.552833	2.410896	0.918670	-10.383399	-0.926295	0.031560	0.959952	-0.173584	-0.873047	-0.047607	0.017237	-0.019274	-0.005442	-0.695195	-0.630204	0.154635	-0.309248	78.567030	-37.213120	17.167890
07057		1.460553	-2.134677	-1.015492	2.275618	1.297042	-10.740281	-0.446142	-0.118981	1.295402	-0.187012	-0.864502	-0.054443	0.014749	-0.021274	-0.010099	-0.694477	-0.627820	0.159970	-0.312975	78.253348	-37.964623	17.254052
07058		1.476629	-1.498363	-0.899144	1.912978	1.197317	-10.187963	0.033080	-0.257718	1.562324	-0.213867	-0.862305	-0.045898	0.014894	-0.014866	-0.008975	-0.691690	-0.627077	0.165727	-0.317607	78.244493	-38.872582	17.300340
07059		1.587004	-1.139988	-0.993338	1.748341	1.322099	-9.822066	0.469054	-0.440520	1.813493	-0.229492	-0.862549	-0.050293	0.015994	-0.011232	-0.009925	-0.686924	-0.627867	0.172331	-0.322830	78.550577	-39.952041	17.233834
07060		1.974086	-0.880378	-0.982642	1.853549	1.402841	-9.329157	0.816610	-0.619473	2.103775	-0.252197	-0.853760	-0.035156	0.019862	-0.008555	-0.009800	-0.680373	-0.629825	0.179748	-0.328791	79.119037	-41.204815	17.080720
07061		2.545514	-0.339032	-1.049222	1.863848	1.581745	-8.501538	1.135904	-0.790840	2.398892	-0.267822	-0.851563	-0.026367	0.025534	-0.003025	-0.010409	-0.672059	-0.632769	0.188257	-0.335409	79.952169	-42.649554	16.799766
07062		3.080270	0.403421	-1.026006	1.683875	1.627820	-7.528530	1.402946	-0.953247	2.689729	-0.306152	-0.840576	-0.013428	0.030792	0.004520	-0.010083	-0.662116	-0.636479	0.197607	-0.342708	81.027595	-44.261154	16.406384
07063		3.666191	0.638036	-1.164604	1.821875	1.822943	-6.886869	1.626159	-1.081355	2.985966	-0.328857	-0.827393	0.008301	0.036622	0.007021	-0.011393	-0.650633	-0.640656	0.208021	-0.350663	82.334049	-46.054410	15.869473
07064		4.382984	0.661545	-1.036404	2.205767	1.764332	-6.243165	1.817291	-1.190964	3.286027	-0.358154	-0.818604	0.023438	0.043773	0.007427	-0.010038	-0.637673	-0.645122	0.219208	-0.359358	83.862446	-48.006896	15.205232
07065		5.254564	0.830255	-1.083331	2.502347	1.854708	-5.366627	2.019185	-1.287074	3.555262	-0.387695	-0.800781	0.047119	0.052454	0.009342	-0.010405	-0.623190	-0.649819	0.231246	-0.368638	85.660730	-50.113571	14.349212
07066		6.159796	1.246108	-1.062236	2.578763	1.802969	-4.270407	2.186348	-1.338782	3.806399	-0.421875	-0.781006	0.072998	0.061413	0.013743	-0.010065	-0.607347	-0.654535	0.243707	-0.378577	87.713116	-52.336468	13.325080
07067		6.907749	1.697107	-1.094760	2.445242	1.708387	-3.263756	2.261085	-1.377007	4.026977	-0.458008	-0.767822	0.090332	0.068788	0.018477	-0.010270	-0.590436	-0.658903	0.256857	-0.388918	90.025442	-54.669793	12.054928
07068		7.545411	2.015334	-1.061666	2.295944	1.496913	-2.423660	2.232568	-1.397013	4.230390	-0.487793	-0.739258	0.113770	0.075074	0.021857	-0.009854	-0.572865	-0.662580	0.270508	-0.399548	92.570330	-57.076152	10.527667
07069		8.174628	2.182332	-1.058235	2.192598	1.290888	-1.675233	2.110631	-1.391845	4.416513	-0.515625	-0.708496	0.135010	0.081306	0.023728	-0.009772	-0.554958	-0.665195	0.284971	-0.410278	95.366238	-59.555962	8.655120
07070		8.596959	2.278233	-1.109233	1.974298	1.098908	-1.140557	1.955810	-1.390164	4.558791	-0.552246	-0.677734	0.156250	0.085492	0.024838	-0.010261	-0.536924	-0.666765	0.299895	-0.420951	98.469958	-62.054368	6.385347
07071		8.939166	1.964038	-1.229738	2.008690	1.042711	-0.860727	1.799167	-1.403110	4.669082	-0.582031	-0.651367	0.175537	0.088982	0.021827	-0.011482	-0.518784	-0.667296	0.315484	-0.431335	102.040441	-64.554144	3.535654
07072		9.387487	1.653325	-1.475064	2.024940	1.094833	-0.447112	1.724694	-1.428108	4.772389	-0.607910	-0.611816	0.194336	0.093544	0.018891	-0.013926	-0.500291	-0.667097	0.331291	-0.441516	106.286385	-67.006991	-0.034264
07073		9.907045	1.613517	-1.828971	1.755440	1.144208	0.171425	1.712948	-1.466890	4.883716	-0.635498	-0.585449	0.211182	0.098765	0.018701	-0.017412	-0.481154	-0.666256	0.347491	-0.451491	111.551582	-69.391927	-4.654623
07074		10.484146	1.808154	-1.969737	1.292153	0.874500	0.892586	1.737069	-1.500980	5.003551	-0.663818	-0.539307	0.234375	0.104486	0.020864	-0.018739	-0.461269	-0.664885	0.363725	-0.461371	118.168489	-71.634782	-10.614865
07075		11.208489	1.861961	-1.916148	0.984197	0.401479	1.659207	1.721824	-1.495843	5.136282	-0.685059	-0.499756	0.241943	0.111693	0.021651	-0.018147	-0.440766	-0.662660	0.380276	-0.471167	126.559840	-73.672651	-18.378920
07076		11.995210	1.981608	-1.893555	0.545376	-0.119862	2.477335	1.695700	-1.463361	5.271039	-0.708740	-0.455811	0.262939	0.119505	0.023124	-0.017873	-0.419753	-0.659557	0.396822	-0.480961	137.081890	-75.370118	-28.284774
07077		12.764666	2.152197	-2.084303	-0.096919	-0.511953	3.286692	1.659751	-1.417702	5.370745	-0.725830	-0.411865	0.277344	0.127147	0.025108	-0.019742	-0.398339	-0.655473	0.413480	-0.490627	149.936988	-76.555698	-40.559262
07078		13.416135	2.528126	-2.403037	-1.073950	-0.886357	3.977366	1.614402	-1.363401	5.429142	-0.745117	-0.363281	0.293701	0.133565	0.029101	-0.022894	-0.376728	-0.650538	0.429860	-0.500097	164.421815	-77.044515	-54.482188
07079		14.153340	2.774097	-2.802111	-2.022133	-1.203929	4.687827	1.559822	-1.320597	5.461442	-0.757568	-0.319336	0.305908	0.140882	0.031807	-0.026852	-0.354963	-0.644715	0.446149	-0.509210	179.167508	-76.736090	-68.708109
07080		15.227720	2.975394	-3.076034	-2.939781	-1.738589	5.629557	1.444719	-1.269748	5.489451	-0.772705	-0.268799	0.315674	0.151570	0.034137	-0.029560	-0.333333	-0.638001	0.462236	-0.517863	-167.523256	-75.684947	-81.555221
07081		15.861788	3.366902	-3.180031	-4.082919	-2.431366	6.010942	1.283142	-1.196035	5.504612	-0.780762	-0.225098	0.321045	0.157793	0.038219	-0.030619	-0.312048	-0.630197	0.478382	-0.525955	-156.434801	-74.042681	-92.283884
07082		16.054987	3.969759	-2.816687	-5.279378	-3.493983	5.721130	1.098302	-1.096324	5.482964	-0.789063	-0.169922	0.333008	0.159529	0.044231	-0.027056	-0.291404	-0.621430	0.494291	-0.533465	-147.667931	-72.007898	-100.788333
07083		15.972211	4.994470	-2.629833	-6.890630	-4.417837	5.016377	0.883175	-1.040224	5.365820	-0.781250	-0.136963	0.334229	0.158437	0.054320	-0.025239	-0.271631	-0.611943	0.510024	-0.540017	-140.947770	-69.717594	-107.369470
07084		16.190608	5.973104	-2.156924	-8.318757	-5.608250	4.390912	0.536183	-0.959656	5.162589	-0.791504	-0.093018	0.339844	0.160392	0.063941	-0.020629	-0.253493	-0.601890	0.525502	-0.545268	-135.937881	-67.339645	-112.420248
07085		16.731851	6.569570	-1.797583	-9.452762	-6.617975	4.084309	0.143572	-0.862303	4.916874	-0.790527	-0.055664	0.341064	0.165711	0.069796	-0.017210	-0.237279	-0.591274	0.540905	-0.549104	-132.216416	-64.962725	-116.402096
07086		16.566738	7.019574	-1.725462	-10.402055	-6.993646	3.207970	-0.197894	-0.758192	4.604799	-0.784668	-0.024902	0.344727	0.164057	0.073969	-0.016703	-0.223088	-0.580512	0.555818	-0.551638	-129.487114	-62.680054	-119.567907
07087		16.142633	7.612976	-1.656919	-11.344237	-7.211530	2.042377	-0.451948	-0.660133	4.250295	-0.779053	0.005859	0.341797	0.159815	0.079501	-0.016217	-0.210759	-0.569852	0.570050	-0.553075	-127.485633	-60.531814	-122.138744
07088		15.426276	8.944518	-1.613699	-12.765719	-7.375800	0.344834	-0.679621	-0.614714	3.821427	-0.779541	0.023438	0.345703	0.152566	0.092317	-0.015977	-0.200317	-0.559839	0.583359	-0.553305	-126.123555	-58.565426	-124.169097
07089		14.220410	10.597707	-1.861650	-14.301675	-7.031594	-1.813356	-0.749219	-0.585799	3.290062	-0.782715	0.054199	0.349365	0.140491	0.108228	-0.018606	-0.191546	-0.551018	0.595160	-0.552696	-125.242345	-56.834393	-125.718769
07090		13.089294	12.571317	-2.192308	-16.017420	-6.606437	-3.985731	-0.755612	-0.578788	2.650700	-0.778320	0.058594	0.349365	0.129276	0.127351	-0.022026	-0.184543	-0.543955	0.605051	-0.551335	-124.782339	-55.398205	-126.793197
07091		12.478251	13.725558	-1.622761	-16.742276	-6.957448	-5.568690	-0.715447	-0.523144	1.900027	-0.771973	0.069580	0.346924	0.123514	0.138375	-0.016397	-0.179636	-0.538966	0.612636	-0.549476	-124.660307	-54.331070	-127.441131
07092		12.531953	14.766331	-0.499796	-17.331807	-8.052721	-6.634208	-0.652564	-0.386609	1.061127	-0.765625	0.073975	0.351074	0.124544	0.148309	-0.005240	-0.177271	-0.536184	0.617627	-0.547375	-124.807951	-53.703246	-127.719579
07093		12.860702	15.763175	0.797663	-17.884012	-9.421937	-7.383655	-0.630336	-0.166376	0.184083	-0.770020	0.073975	0.351074	0.128455	0.157774	0.007586	-0.177927	-0.535536	0.619964	-0.545150	-125.193223	-53.563095	-127.685119
07094		13.135141	16.832343	0.496155	-19.035104	-9.402718	-7.498208	-0.588826	0.096187	-0.685897	-0.767578	0.067383	0.351318	0.131930	0.167885	0.004403	-0.181650	-0.536874	0.619644	-0.542965	-125.780511	-53.913098	-127.374023
07095		12.572073	17.987875	0.799352	-19.721849	-9.544810	-8.331893	-0.734688	0.298939	-1.565883	-0.769531	0.056396	0.355957	0.127135	0.178914	0.007146	-0.188785	-0.540275	0.617088	-0.540061	-126.749698	-54.741561	-126.692219
07096		12.150812	17.221472	1.595414	-18.611422	-9.877318	-8.140463	-0.833317	0.452346	-2.367951	-0.768799	0.032227	0.354492	0.123571	0.170824	0.014963	-0.198791	-0.545533	0.612468	-0.536431	-128.123072	-55.974437	-125.602217
07097		11.096453	11.176572	-1.880101	-14.035691	-5.286246	-4.653524	-0.971770	0.474403	-2.877504	-0.772461	0.008057	0.352783	0.112510	0.110060	-0.019604	-0.210588	-0.552112	0.606603	-0.531844	-129.942435	-57.432869	-124.082644
07098		8.045655	-24.970551	-10.803535	16.543921	10.355432	10.778645	-0.797594	0.336414	-2.244302	-0.767578	-0.000488	0.353027	0.077464	-0.251015	-0.107168	-0.219744	-0.557148	0.602135	-0.527950	-131.507525	-58.531159	-122.774737
07099		6.435019	-34.227489	-10.381450	25.774219	12.467505	12.569288	-0.035421	0.056560	-0.538352	-0.770020	0.003906	0.364014	0.063399	-0.342465	-0.103772	-0.221433	-0.558642	0.600595	-0.527421	-131.828719	-58.788661	-122.414519
07100		16.719280	-9.982507	-3.703737	3.246559	-2.206763	9.616434	-0.059253	0.240694	-0.683963	-0.771973	-0.009277	0.359863	0.166805	-0.100407	-0.037209	-0.224104	-0.559995	0.598575	-0.527154	-132.127978	-59.170175	-122.103846
07101		24.282740	-2.089172	1.271557	-4.136451	-11.146623	11.500601	-0.833116	0.886690	-1.844564	-0.776123	-0.018311	0.355713	0.242675	-0.023080	0.011733	-0.233931	-0.562256	0.594525	-0.525057	-133.194705	-60.295047	-121.415028
07102		25.804234	4.362272	1.513654	-9.928522	-12.924664	10.718152	-1.277558	0.636805	-2.618423	-0.774902	-0.053467	0.349854	0.258631	0.040331	0.014049	-0.246245	-0.566815	0.589712	-0.519927	-135.342136	-61.622065	-119.795138
07103		22.000484	-0.042229	4.146409	-3.701884	-12.648885	8.284074	-2.300952	0.778208	-2.782792	-0.778564	-0.079834	0.343994	0.220134	-0.003014	0.040632	-0.262246	-0.570125	0.586669	-0.511863	-138.298389	-63.043981	-117.936237
07104		13.162118	1.387594	2.518022	-3.262966	-7.713887	0.739362	-2.104923	0.558418	-2.946280	-0.777832	-0.101807	0.342285	0.131878	0.012196	0.024678	-0.277361	-0.574487	0.582833	-0.503330	-141.705545	-64.372285	-115.480425
07105		9.475781	6.516911	-8.080299	-9.840649	2.553471	-0.108318	-1.299089	-0.118887	-3.213278	-0.774658	-0.134766	0.345459	0.095831	0.063109	-0.081161	-0.288786	-0.582326	0.576850	-0.494716	-145.705819	-65.414786	-111.872944
07106		15.901587	5.311120	-3.663139	-8.170712	-3.658804	4.826491	-0.661288	0.230034	-3.672279	-0.778320	-0.161133	0.345947	0.159911	0.050058	-0.036984	-0.300388	-0.591296	0.567367	-0.488088	-149.932392	-66.645620	-107.661693
07107		8.050282	-0.202950	-1.658997	-1.036261	-1.466712	-1.789623	0.073911	0.106851	-3.305161	-0.772949	-0.187256	0.351074	0.080446	-0.003353	-0.016634	-0.308499	-0.600505	0.557075	-0.483621	-153.787773	-67.600294	-103.420436
07108		8.235507	8.880676	-3.071752	-9.942394	-1.979937	-2.508993	0.332486	-0.072870	-2.935795	-0.767822	-0.208984	0.360596	0.083658	0.087636	-0.030541	-0.314344	-0.609310	0.547515	-0.479746	-157.416793	-68.255409	-99.298139
07109		9.320563	3.090220	-4.660329	-4.566265	0.222079	0.048160	-0.061547	0.235622	-2.391197	-0.769531	-0.229004	0.349854	0.093511	0.029771	-0.046723	-0.320894	-0.615214	0.539862	-0.476537	-160.599681	-68.879042	-95.906123
07110		8.815393	4.169997	-2.663858	-4.929670	-1.588323	-1.131193	-0.525054	0.319163	-1.910446	-0.770996	-0.250732	0.357178	0.088504	0.040785	-0.026888	-0.327888	-0.618741	0.534705	-0.473011	-163.482099	-69.388620	-93.142438
07111		9.841420	2.403082	-2.986684	-3.143627	-1.200222	0.198426	-0.880767	0.506176	-1.608318	-0.768311	-0.268555	0.348633	0.098526	0.023106	-0.030219	-0.335762	-0.620434	0.530853	-0.469597	-166.195867	-69.915563	-90.776155
07112		9.963063	0.814252	-2.714485	-1.376370	-1.064497	0.398277	-0.794016	0.499029	-1.503042	-0.767822	-0.283936	0.351318	0.099619	0.007285	-0.027423	-0.343047	-0.621899	0.527204	-0.466494	-168.805125	-70.379219	-88.484772
07113		10.529414	0.916762	-1.854708	-1.131913	-1.982920	0.672227	-0.588418	0.393396	-1.416307	-0.765137	-0.299072	0.349609	0.105318	0.008367	-0.018780	-0.349264	-0.623702	0.523399	-0.463750	-171.315547	-70.750584	-86.177386
07114		9.017725	1.176633	-2.463207	-1.415716	-0.918674	-0.543298	-0.266715	0.251475	-1.344329	-0.764893	-0.308105	0.347656	0.090222	0.011127	-0.024761	-0.353844	-0.626161	0.519381	-0.461476	-173.611984	-70.992601	-83.907531
07115		8.910205	1.806517	-2.765282	-1.987756	-0.693790	-0.546161	0.008833	0.248977	-1.193753	-0.768555	-0.327637	0.350342	0.089173	0.017534	-0.027763	-0.357247	-0.628723	0.515082	-0.460187	-175.576299	-71.206147	-81.820297
07116		10.075373	1.620409	-2.931150	-1.693585	-0.832163	0.635707	0.094417	0.279379	-0.981756	-0.766357	-0.327881	0.345947	0.100791	0.015723	-0.029445	-0.359906	-0.630774	0.511281	-0.459547	-177.146955	-71.399793	-80.104040
07117		10.848798	2.859457	-2.633847	-2.710758	-1.576016	1.276823	-0.023365	0.275090	-0.821023	-0.763672	-0.345215	0.348389	0.108568	0.028146	-0.026491	-0.362607	-0.632220	0.508158	-0.458900	-178.568450	-71.581717	-78.614541
07118		10.164817	1.852563	-2.916332	-1.756309	-0.835606	0.745581	-0.242873	0.301722	-0.689238	-0.756836	-0.351807	0.350830	0.101667	0.018140	-0.029339	-0.365702	-0.632838	0.505994	-0.457982	-179.888059	-71.758140	-77.370001
07119		9.557464	1.084751	-2.778062	-0.957858	-0.556176	0.137795	-0.347710	0.405669	-0.578007	-0.769775	-0.360840	0.344482	0.095549	0.010523	-0.027993	-0.369171	-0.632774	0.504120	-0.457355	178.873062	-71.992645	-76.268821
07120		9.033382	-0.099438	-2.731849	0.212531	-0.119777	-0.377919	-0.195887	0.648195	-0.478889	-0.760742	-0.367188	0.342529	0.090242	-0.001237	-0.027610	-0.372499	-0.632136	0.501861	-0.458022	177.879936	-72.354407	-75.342515
07121		8.263008	0.159841	-3.282471	-0.187969	0.638903	-0.945142	0.070401	0.870754	-0.407171	-0.764893	-0.376221	0.335938	0.082489	0.001442	-0.033184	-0.375412	-0.631326	0.498694	-0.460215	177.084174	-72.847399	-74.459728
07122		8.034202	2.007634	-3.509882	-2.045616	0.585753	-1.073685	0.196017	0.879534	-0.358080	-0.762695	-0.376221	0.329346	0.080223	0.019967	-0.035432	-0.377789	-0.630560	0.495464	-0.462801	176.434002	-73.337263	-73.661814
07123		8.255609	1.165805	-3.510646	-1.202088	0.787699	-0.881121	0.172528	0.817799	-0.319491	-0.764893	-0.378418	0.327148	0.082430	0.011557	-0.035434	-0.380024	-0.629818	0.492420	-0.465224	175.782770	-73.796320	-72.872990
07124		8.671375	0.484598	-3.615363	-0.523211	1.000952	-0.473397	0.092772	0.750393	-0.266003	-0.762451	-0.385010	0.329590	0.086584	0.004748	-0.036476	-0.382178	-0.628904	0.489945	-0.467304	175.193447	-74.211299	-72.203649
07125		9.277353	-2.559112	-3.448079	2.532885	1.449611	-0.015222	0.072561	0.575767	-0.293454	-0.764404	-0.387451	0.318604	0.092636	-0.025715	-0.034757	-0.384028	-0.628478	0.487648	-0.468761	174.509738	-74.526349	-71.438880
07126		9.993292	-2.652140	-3.452710	2.695356	1.352730	0.662323	0.162362	0.396382	-0.324691	-0.764160	-0.398193	0.321045	0.099821	-0.026655	-0.034747	-0.385227	-0.628656	0.485493	-0.469776	173.851580	-74.731812	-70.658843
07127		10.763844	-1.602217	-2.136498	2.051392	-0.269253	1.082775	0.254166	0.287961	-0.448158	-0.764160	-0.398193	0.321045	0.107571	-0.016236	-0.021540	-0.386172	-0.629605	0.482842	-0.470459	172.968146	-74.868068	-69.583280
07128		9.847870	-1.221171	-1.826349	1.701253	-0.385415	0.125336	0.361144	0.207899	-0.534738	-0.755127	-0.400391	0.325684	0.098427	-0.012442	-0.018388	-0.386775	-0.631106	0.479914	-0.470948	171.997133	-74.944505	-68.362271
07129		9.407102	-0.101926	-1.584349	0.668613	-0.743431	-0.325107	0.394084	0.149871	-0.573578	-0.754883	-0.406982	0.323486	0.094056	-0.001258	-0.015916	-0.387212	-0.632955	0.476784	-0.471289	170.948210	-74.981214	-67.029759
07130		9.274208	0.169300	-1.146902	0.535587	-1.165841	-0.554786	0.399352	0.116459	-0.575774	-0.759277	-0.413574	0.325928	0.092740	0.001449	-0.011520	-0.387562	-0.634827	0.473801	-0.471490	169.929122	-74.990691	-65.736766
07131		9.551361	1.520237	-2.100299	-0.916266	-0.656598	0.019913	0.301458	0.090761	-0.553868	-0.754639	-0.422363	0.326172	0.095546	0.014969	-0.021024	-0.388100	-0.636567	0.471058	-0.471449	168.885632	-74.984111	-64.465750
07132		10.178431	2.197387	-2.278860	-1.495237	-0.794571	0.711327	0.206304	0.081002	-0.543179	-0.747803	-0.426758	0.321777	0.101834	0.021721	-0.022807	-0.388896	-0.638059	0.468692	-0.471135	167.839868	-74.965317	-63.259591
07133		10.114355	1.739382	-2.561536	-1.078098	-0.378414	0.703080	0.027941	0.099779	-0.523283	-0.747559	-0.428955	0.324219	0.101176	0.017133	-0.025663	-0.390260	-0.639152	0.466674	-0.470528	166.701781	-74.956048	-62.054959
07134		9.965666	1.755628	-2.409116	-1.027612	-0.467421	0.527808	-0.214317	0.127480	-0.477641	-0.747314	-0.439941	0.320068	0.099683	0.017292	-0.024173	-0.392348	-0.639552	0.465410	-0.469500	165.531888	-74.959878	-60.969719
07135		10.024362	1.124632	-2.414656	-0.365395	-0.272938	0.549494	-0.433885	0.313111	-0.472191	-0.744873	-0.448730	0.315674	0.100232	0.010957	-0.024327	-0.395562	-0.639105	0.464219	-0.468589	164.113558	-75.063143	-59.750013
07136		9.511846	-0.127254	-2.983661	0.689782	0.752459	0.104527	-0.464879	0.489065	-0.499531	-0.742432	-0.453125	0.309326	0.095041	-0.001580	-0.030066	-0.399332	-0.638200	0.462749	-0.468079	162.516282	-75.248063	-58.372152
07137		9.761298	-0.181927	-2.588605	0.916606	0.403437	0.237855	-0.418111	0.481430	-0.590094	-0.739990	-0.461914	0.302734	0.097544	-0.002162	-0.026117	-0.403161	-0.637630	0.460808	-0.467487	160.699170	-75.404266	-56.735056
07138		10.283311	-0.907743	-2.640307	1.738253	0.590127	0.683556	-0.413591	0.490953	-0.717957	-0.739502	-0.470947	0.296387	0.102734	-0.009501	-0.026636	-0.407267	-0.637302	0.458500	-0.466645	158.604898	-75.523758	-54.815357
07139		10.234388	-1.899455	-3.096209	2.662183	1.346903	0.629284	-0.350829	0.447653	-0.848301	-0.734619	-0.484131	0.285645	0.102192	-0.019483	-0.031157	-0.411396	-0.637503	0.455638	-0.465550	156.260198	-75.575115	-52.597097
07140		10.408699	-1.115626	-3.287748	1.979274	1.371396	0.892236	-0.312805	0.450606	-0.988624	-0.720947	-0.499512	0.283936	0.103956	-0.011722	-0.033094	-0.415698	-0.638059	0.452290	-0.464232	153.669291	-75.568247	-50.105905
07141		10.441640	-1.037167	-3.430222	1.983731	1.559680	0.934427	-0.367971	0.469996	-1.161603	-0.724854	-0.514893	0.273193	0.104273	-0.011041	-0.034527	-0.420648	-0.638822	0.448413	-0.462481	150.669997	-75.496660	-47.225423
07142		11.051729	-0.030316	-3.090405	1.317433	0.964368	1.546198	-0.481313	0.482380	-1.292771	-0.713379	-0.525879	0.264648	0.110437	-0.001092	-0.031168	-0.426228	-0.639581	0.444379	-0.460209	147.412601	-75.351692	-44.143705
07143		12.002680	1.164410	-2.056703	0.707903	-0.374253	2.394106	-0.681737	0.561144	-1.388797	-0.708252	-0.541504	0.256348	0.120045	0.010740	-0.020941	-0.432879	-0.639888	0.440280	-0.457507	143.815674	-75.168438	-40.831808
07144		12.325274	0.733033	-1.948880	1.372036	-0.309783	2.607683	-0.888693	0.608720	-1.463217	-0.694580	-0.550293	0.243164	0.123241	0.006341	-0.019894	-0.440375	-0.639773	0.436305	-0.454311	140.037943	-74.925253	-37.447787
07145		12.426624	1.247464	-1.617790	1.144416	-0.633032	2.712474	-1.034746	0.621433	-1.545488	-0.682617	-0.576660	0.228516	0.124306	0.011429	-0.016625	-0.448580	-0.639401	0.432317	-0.450604	136.133254	-74.599087	-34.020656
07146		12.495715	0.549745	-1.329853	2.073676	-0.628905	2.577347	-1.143104	0.692503	-1.692895	-0.677979	-0.585693	0.217773	0.124950	0.004362	-0.013758	-0.457502	-0.638906	0.427912	-0.446523	132.050789	-74.177952	-30.460979
07147		12.365473	-0.720258	-1.574016	3.422272	0.036907	2.194895	-1.104891	0.735643	-1.885069	-0.657471	-0.598877	0.200439	0.123520	-0.008456	-0.016150	-0.466849	-0.638687	0.422662	-0.442141	127.875658	-73.620962	-26.783806
07148		12.250180	-1.552310	-1.875178	4.361113	0.652226	1.872399	-0.928005	0.755005	-2.088206	-0.641113	-0.620850	0.189941	0.122258	-0.016889	-0.019137	-0.475974	-0.639225	0.416262	-0.437683	123.854488	-72.904374	-23.139165
07149		12.882710	-2.041450	-2.013762	5.223146	0.958505	2.269444	-0.690392	0.786783	-2.316912	-0.618164	-0.642822	0.179443	0.128498	-0.021975	-0.020570	-0.484843	-0.640652	0.408410	-0.433237	120.017692	-72.014906	-19.524564
07150		13.569147	-1.353214	-2.064175	5.049846	0.965461	2.984536	-0.520563	0.804595	-2.559692	-0.604248	-0.653564	0.175293	0.135419	-0.015321	-0.021149	-0.493637	-0.642821	0.399360	-0.428504	116.442980	-70.940551	-16.068383
07151		14.484684	-0.790621	-2.014698	5.150316	0.914422	3.866211	-0.552664	0.860976	-2.815958	-0.574707	-0.675781	0.156250	0.144627	-0.010000	-0.020744	-0.503101	-0.645180	0.389278	-0.423195	112.982528	-69.679831	-12.724326
07152		15.642165	-1.220080	-2.814112	6.204012	1.910954	4.744816	-0.673906	0.983439	-3.057448	-0.553955	-0.693115	0.152344	0.156069	-0.014685	-0.028862	-0.513575	-0.647275	0.378326	-0.417307	109.583203	-68.251953	-9.495373
07153		16.854814	-2.163005	-3.719185	7.815673	3.160349	5.402153	-0.757832	1.090871	-3.296502	-0.528809	-0.715088	0.133057	0.167954	-0.024545	-0.038020	-0.524878	-0.649200	0.366339	-0.410899	106.311054	-66.646683	-6.418121
07154		19.388746	-3.901091	-4.942454	10.710692	4.871177	6.832798	-0.831138	1.229986	-3.516372	-0.499268	-0.734863	0.126953	0.192851	-0.042616	-0.050441	-0.536942	-0.650821	0.353350	-0.404065	103.186575	-64.877897	-3.513293
07155		22.033876	-4.803375	-5.767459	13.094704	6.145031	8.422490	-0.828536	1.359761	-3.704686	-0.465332	-0.750244	0.109863	0.218998	-0.052341	-0.058956	-0.549404	-0.652271	0.339223	-0.397021	100.270195	-62.957745	-0.791537
07156		23.526409	-7.012730	-6.499953	16.235089	7.639977	8.156062	-0.844749	1.401722	-3.909805	-0.442383	-0.765381	0.101318	0.233368	-0.074980	-0.066330	-0.562159	-0.653660	0.324235	-0.389330	97.649767	-60.870464	1.630575
07157		21.764540	-8.714908	-7.217639	17.338361	8.974832	5.035739	-0.893213	1.306563	-4.103708	-0.406006	-0.787354	0.091064	0.215316	-0.091909	-0.073185	-0.575033	-0.655104	0.308811	-0.380542	95.405392	-58.621007	3.638177
07158		20.994773	-8.638263	-6.700977	17.490081	8.744142	3.523167	-0.784351	1.177120	-4.288911	-0.374268	-0.806885	0.087158	0.207630	-0.091117	-0.067885	-0.587418	-0.657072	0.292806	-0.370757	93.605129	-56.225032	5.241929
07159		21.765254	-6.917681	-5.491703	17.232155	7.646400	4.195311	-0.826063	1.133720	-4.466920	-0.340820	-0.809082	0.071777	0.215717	-0.074239	-0.055844	-0.599891	-0.658903	0.276282	-0.360064	92.030022	-53.704208	6.587840
07160		22.031445	-4.000969	-5.218292	15.715654	7.337310	5.277224	-0.924941	1.192904	-4.509378	-0.304443	-0.824219	0.061279	0.219019	-0.045203	-0.053291	-0.612521	-0.660032	0.259449	-0.349088	90.539796	-51.137511	7.800300
07161		19.932460	-0.330815	-5.707527	12.137055	7.557572	5.203465	-0.983408	1.302050	-4.391491	-0.266357	-0.833008	0.050537	0.198807	-0.007962	-0.058339	-0.624928	-0.660262	0.242669	-0.338571	89.104327	-48.624475	8.939752
07162		16.358027	1.342068	-6.922227	8.946619	8.533573	3.008647	-0.979250	1.198857	-4.283713	-0.243652	-0.848145	0.053223	0.163394	0.009577	-0.070255	-0.636692	-0.660207	0.226391	-0.327868	87.869869	-46.153963	9.855682
07163		12.187522	-1.670760	-7.520258	8.569743	9.088069	-2.614047	-0.828333	0.874219	-4.012283	-0.209961	-0.856934	0.038086	0.121173	-0.019456	-0.075657	-0.646828	-0.660535	0.211749	-0.316969	87.002877	-43.841790	10.409157
07164		10.426464	-2.110850	-3.558745	8.431170	5.071813	-4.426673	-0.668316	0.759129	-3.590550	-0.182861	-0.863281	0.033936	0.103726	-0.023094	-0.035907	-0.655404	-0.660865	0.198473	-0.307101	86.331037	-41.764005	10.835653
07165		9.395997	4.982018	-2.115962	3.411441	3.173000	-0.021595	-0.976739	0.680289	-3.167301	-0.160400	-0.867920	0.014160	0.094659	0.048220	-0.021719	-0.664048	-0.659674	0.187344	-0.297946	85.552250	-39.934113	11.169026
07166		10.368885	-3.162765	-4.654439	9.206382	6.302755	-5.979638	-0.951440	0.585926	-2.033748	-0.153564	-0.874268	0.014404	0.103222	-0.032901	-0.046693	-0.670709	-0.657511	0.180110	-0.292214	84.815386	-38.746100	11.472945
07167		5.980715	-3.776310	-4.774001	6.273356	5.769482	-9.391170	-0.752149	0.422894	-0.941646	-0.151367	-0.870117	0.003174	0.059527	-0.038223	-0.047723	-0.674895	-0.655214	0.176798	-0.289747	84.240148	-38.194555	11.703220
07168		3.126229	-5.149842	-2.082038	5.321400	2.673524	-12.085105	-0.855340	0.451196	-0.202877	-0.160156	-0.872314	0.000977	0.031163	-0.051619	-0.020670	-0.678371	-0.651854	0.175863	-0.289780	83.560262	-38.052849	12.012231
07169		2.241397	-5.626343	-1.835272	4.981673	2.268469	-12.988337	-0.503432	0.355775	0.429591	-0.166992	-0.868164	-0.010254	0.022502	-0.056261	-0.018251	-0.679666	-0.649258	0.176901	-0.291932	83.097217	-38.282949	12.292777
07170		1.688465	-5.274837	-2.067065	4.326656	2.392658	-13.053463	-0.145227	0.183473	0.906128	-0.182617	-0.868164	-0.005859	0.017104	-0.052686	-0.020648	-0.678959	-0.647696	0.179444	-0.295474	82.882670	-38.786784	12.505133
07171		0.828154	-5.554996	-2.966893	3.757866	3.154220	-13.846931	0.335178	-0.038686	1.260212	-0.196045	-0.866211	-0.008057	0.008637	-0.055446	-0.029760	-0.675930	-0.647755	0.183280	-0.299900	83.027874	-39.515875	12.576860
07172		0.717653	-5.340856	-3.636158	3.481690	3.835688	-13.740234	0.866112	-0.272701	1.656872	-0.218750	-0.859619	0.007080	0.007668	-0.053188	-0.036582	-0.670349	-0.649552	0.188275	-0.305395	83.563639	-40.478303	12.516887
07173		1.120051	-4.235783	-3.499512	3.112008	3.793612	-12.526608	1.237490	-0.466451	2.133517	-0.245361	-0.857422	0.013672	0.011732	-0.042017	-0.035229	-0.662560	-0.652350	0.195008	-0.312131	84.400026	-41.731930	12.316192
07174		1.674241	-2.929091	-3.011018	2.732269	3.391539	-11.029052	1.453925	-0.644006	2.642914	-0.272461	-0.848633	0.033203	0.017223	-0.028846	-0.030266	-0.652975	-0.655525	0.203484	-0.320164	85.449644	-43.274223	11.997153
07175		2.372335	-1.813787	-2.595608	2.519505	3.041920	-9.584232	1.567179	-0.803142	3.125884	-0.303955	-0.839844	0.043945	0.024105	-0.017559	-0.025999	-0.641881	-0.658643	0.213949	-0.329249	86.683742	-45.102792	11.510182
07176		3.219614	-1.076872	-2.349601	2.579233	2.852942	-8.311944	1.637556	-0.944860	3.532425	-0.337891	-0.828857	0.067871	0.032488	-0.010005	-0.023427	-0.629522	-0.661551	0.225889	-0.339157	88.091405	-47.150548	10.860586
07177		3.938286	-0.976935	-1.732591	3.008580	2.296510	-7.546018	1.675087	-1.037234	3.881311	-0.376465	-0.806885	0.084961	0.039650	-0.008857	-0.017197	-0.616035	-0.664046	0.239231	-0.349731	89.681150	-49.395924	10.014074
07178		4.636459	-0.759670	-1.095659	3.290988	1.669523	-6.705866	1.728053	-1.124220	4.186870	-0.408203	-0.789307	0.099854	0.046570	-0.006530	-0.010755	-0.601452	-0.666154	0.253520	-0.360864	91.488351	-51.789337	8.958226
07179		5.508908	-0.376967	-1.019946	3.388446	1.540662	-5.609225	1.851460	-1.212854	4.444552	-0.447021	-0.762939	0.121094	0.055214	-0.002451	-0.009892	-0.585477	-0.668085	0.268671	-0.372418	93.640739	-54.312903	7.594234
07180		6.534440	0.042610	-0.988076	3.443209	1.398208	-4.348542	1.940632	-1.246316	4.705924	-0.483398	-0.739014	0.140381	0.065369	0.002057	-0.009459	-0.568344	-0.669543	0.284344	-0.384507	96.132696	-56.939795	5.924092
07181		7.393182	0.612602	-0.948314	3.174776	1.136101	-3.138067	1.974515	-1.252531	4.941747	-0.522461	-0.703857	0.161377	0.073806	0.008041	-0.008948	-0.550166	-0.670299	0.300661	-0.397014	99.043597	-59.662188	3.834924
07182		8.164369	0.970289	-1.045781	2.906780	0.981290	-2.114481	1.959029	-1.253649	5.118860	-0.561279	-0.677490	0.180664	0.081421	0.011887	-0.009838	-0.531325	-0.670223	0.317267	-0.409677	102.433821	-62.411306	1.245201
07183		9.102740	1.237953	-1.347138	2.647914	0.981113	-0.969039	1.968407	-1.266307	5.252934	-0.593750	-0.635742	0.201660	0.090740	0.014893	-0.012758	-0.511661	-0.669444	0.334188	-0.422334	106.547868	-65.153973	-2.080948
07184		10.227260	1.539998	-1.647100	2.319303	0.894421	0.359399	2.016175	-1.281572	5.382354	-0.625977	-0.604980	0.220459	0.101908	0.018307	-0.015642	-0.491171	-0.668032	0.351089	-0.434996	111.624258	-67.830462	-6.354206
07185		11.250411	1.882455	-2.028038	1.761058	0.790217	1.609342	2.060402	-1.291360	5.508401	-0.654297	-0.556641	0.237061	0.112052	0.022118	-0.019339	-0.469738	-0.665927	0.368137	-0.447619	118.083423	-70.393383	-12.001878
07186		12.051558	2.033563	-2.343157	1.195932	0.614098	2.557047	2.100561	-1.298056	5.635577	-0.687012	-0.510498	0.257813	0.120022	0.023962	-0.022412	-0.447507	-0.663084	0.385082	-0.460183	126.352286	-72.733438	-19.445510
07187		12.665575	2.388308	-2.589160	0.305053	0.261106	3.325334	2.095723	-1.295242	5.749080	-0.713135	-0.462158	0.269775	0.126057	0.027776	-0.024796	-0.424548	-0.659342	0.402154	-0.472544	137.020219	-74.710338	-29.307191
07188		13.542566	2.726430	-2.926162	-0.626196	-0.095929	4.291557	2.060613	-1.303139	5.830035	-0.737061	-0.411621	0.292725	0.134734	0.031492	-0.028072	-0.401136	-0.654751	0.419077	-0.484527	150.265148	-76.096553	-41.768482
07189		14.750022	3.347583	-3.524227	-1.961849	-0.438290	5.584312	2.039002	-1.309018	5.881315	-0.754150	-0.361084	0.306885	0.146649	0.038147	-0.033907	-0.377215	-0.649318	0.435933	-0.496042	165.588060	-76.670116	-56.333739
07190		15.531780	3.982294	-3.573914	-3.319359	-1.292795	6.221249	1.911128	-1.269244	5.942046	-0.771484	-0.306152	0.314209	0.154258	0.044750	-0.034346	-0.353302	-0.642796	0.452662	-0.507038	-178.828244	-76.335871	-71.228012
07191		15.913112	4.242895	-3.125383	-4.254594	-2.415238	6.217554	1.650871	-1.194357	5.991950	-0.777588	-0.251221	0.323975	0.157941	0.047424	-0.029930	-0.329897	-0.634798	0.469744	-0.517243	-164.815224	-75.155264	-84.714455
07192		16.314017	4.442823	-2.797952	-5.183655	-3.397406	6.162493	1.341894	-1.138297	5.988419	-0.788330	-0.198486	0.335938	0.161864	0.049470	-0.026735	-0.307302	-0.625588	0.486934	-0.526403	-153.489719	-73.314441	-95.678634
07193		17.081155	5.116620	-2.732945	-6.674688	-4.396469	6.356215	1.094878	-1.113325	5.897333	-0.796387	-0.152344	0.343506	0.169349	0.056320	-0.026085	-0.285469	-0.615494	0.504092	-0.534383	-144.830762	-71.018662	-104.119983
07194		18.281413	6.698771	-2.384255	-8.958116	-6.074929	6.542922	0.855609	-1.084285	5.689465	-0.793457	-0.104004	0.346680	0.180933	0.072251	-0.022557	-0.264763	-0.605016	0.520651	-0.541091	-138.448732	-68.502748	-110.396094
07195		19.093021	8.404141	-1.506599	-11.115702	-8.080479	5.950542	0.472248	-0.972276	5.409364	-0.799072	-0.064453	0.347900	0.188634	0.089198	-0.013939	-0.246035	-0.593905	0.536916	-0.546319	-133.766923	-65.940646	-115.185116
07196		18.769000	9.457212	-1.477929	-12.749287	-8.613128	4.577357	0.133062	-0.843532	5.028397	-0.793701	-0.022705	0.353516	0.185293	0.099261	-0.013929	-0.229543	-0.582686	0.552352	-0.550177	-130.364026	-63.474761	-118.862335
07197		17.211097	10.099639	-1.780773	-13.729076	-8.114916	2.311182	-0.098163	-0.724519	4.533427	-0.797119	0.012451	0.352539	0.169826	0.104855	-0.017241	-0.215264	-0.571849	0.566580	-0.552844	-127.902166	-61.189212	-121.709000
07198		16.291593	11.693047	-1.488564	-15.272920	-8.508712	0.119402	-0.277718	-0.725598	3.984414	-0.786621	0.036621	0.356445	0.160597	0.120125	-0.014465	-0.202927	-0.562156	0.579408	-0.554155	-126.241057	-59.114800	-123.806150
07199		15.500046	13.657863	-1.608858	-17.170663	-8.560140	-1.987730	-0.422916	-0.702928	3.381794	-0.776367	0.060791	0.360352	0.152718	0.139140	-0.015842	-0.192648	-0.553763	0.590752	-0.554298	-125.183402	-57.300243	-125.337286
07200		13.959036	15.016754	-1.157969	-17.935290	-8.527106	-4.588944	-0.407489	-0.556043	2.698549	-0.776611	0.073975	0.362305	0.137580	0.152009	-0.011504	-0.184617	-0.546891	0.599835	-0.554098	-124.475354	-55.847085	-126.464194
07201		13.078061	16.829029	-0.661476	-19.153295	-8.857882	-6.752298	-0.279314	-0.363654	1.846617	-0.774902	0.084961	0.357422	0.129231	0.169479	-0.006615	-0.179140	-0.542067	0.605984	-0.553946	-124.021664	-54.851549	-127.209841
07202		12.874044	18.083776	0.440471	-19.810943	-9.883272	-8.138678	-0.329682	-0.134395	0.843563	-0.770508	0.089355	0.357422	0.127973	0.181386	0.004192	-0.177269	-0.539586	0.609301	-0.553331	-123.920260	-54.405732	-127.564696
07203		13.225525	19.225338	1.712394	-20.477192	-11.280353	-8.865390	-0.548458	0.118683	-0.145878	-0.768066	0.087158	0.357422	0.132405	0.192203	0.016518	-0.179492	-0.539225	0.610309	-0.551853	-124.220786	-54.512026	-127.578745
07204		12.896643	19.553710	1.703323	-20.694799	-11.080942	-9.104525	-0.863743	0.362265	-1.044349	-0.770020	0.071777	0.357910	0.130015	0.194930	0.015956	-0.185784	-0.540627	0.609541	-0.549242	-124.955268	-55.120498	-127.284455
07205		12.333857	15.554488	-2.825015	-18.716264	-6.009241	-5.860143	-1.209300	0.366466	-1.684713	-0.771729	0.056396	0.358154	0.124589	0.154323	-0.029413	-0.194772	-0.543637	0.607896	-0.544963	-126.219043	-56.029613	-126.586656
07206		11.272352	8.690883	-6.633892	-13.618723	-0.812139	-2.036740	-1.168641	0.311122	-2.022617	-0.769043	0.043457	0.358643	0.113488	0.085373	-0.067017	-0.204373	-0.547765	0.605242	-0.540248	-127.728108	-57.060703	-125.579416
07207		12.727130	-15.018037	-9.591806	6.188234	5.603500	10.431014	-1.392800	0.564877	-1.911619	-0.777588	0.030029	0.354492	0.125554	-0.152051	-0.095220	-0.215038	-0.550607	0.603098	-0.535596	-129.202616	-58.123022	-124.772077
07208		12.016986	-26.391095	-9.132677	17.120333	7.602118	14.132964	-0.859754	0.474521	-0.871433	-0.775146	0.021240	0.352539	0.118802	-0.264821	-0.090473	-0.221146	-0.551032	0.602483	-0.533360	-129.871073	-58.679134	-124.564512
07209		20.467736	-9.688422	-3.671728	1.622463	-3.708262	12.767930	-0.551287	0.697340	-1.129456	-0.783691	0.012451	0.348145	0.203996	-0.098140	-0.037160	-0.227761	-0.551983	0.600025	-0.532363	-130.374912	-59.433024	-124.341077
07210		22.466397	-0.829522	-0.090203	-5.491153	-9.090425	10.001940	-0.925967	0.668870	-2.456098	-0.782715	-0.016113	0.351074	0.224535	-0.011060	-0.001606	-0.238821	-0.556470	0.594899	-0.528584	-132.015335	-60.742372	-123.059666
07211		22.134444	0.384112	2.126704	-5.326517	-10.926294	8.810188	-1.120008	0.557622	-3.053998	-0.784180	-0.040283	0.345215	0.221428	0.000577	0.020640	-0.251623	-0.562705	0.588570	-0.523100	-134.436454	-62.239009	-121.028804
07212		19.802367	2.383893	6.990670	-4.718592	-14.507449	4.813575	-1.653920	0.815702	-3.212082	-0.789795	-0.073242	0.343750	0.198661	0.021224	0.068915	-0.267016	-0.567851	0.582737	-0.516396	-137.343077	-63.853745	-118.830388
07213		11.658156	9.954852	-4.741332	-12.952910	-1.962295	-0.547906	-1.024898	0.022243	-3.425802	-0.789063	-0.101807	0.348877	0.118256	0.097288	-0.047929	-0.278782	-0.576367	0.575460	-0.508850	-141.029328	-65.151679	-115.387653
07214		18.643140	9.406838	-3.374106	-12.849721	-5.695763	5.993156	-0.576812	0.123532	-3.908348	-0.788086	-0.128174	0.340820	0.188200	0.090304	-0.034121	-0.290669	-0.586385	0.565386	-0.501998	-145.262200	-66.550228	-111.110656
07215		10.934337	-0.745769	0.146270	-0.625103	-3.977807	0.380905	0.156511	0.493106	-3.740526	-0.782715	-0.165527	0.341797	0.109182	-0.009502	0.001186	-0.300937	-0.595902	0.553122	-0.498392	-149.110242	-67.955801	-106.831351
07216		8.122352	6.025523	-2.198285	-7.118503	-2.177637	-2.623264	0.860603	0.481033	-3.458594	-0.781982	-0.185303	0.346680	0.082198	0.058934	-0.021924	-0.308254	-0.605471	0.539866	-0.496920	-152.684137	-69.159170	-102.461388
07217		6.947964	2.554213	-4.553448	-4.133013	1.186995	-2.260306	0.617310	0.943786	-2.937283	-0.788086	-0.205078	0.342773	0.069630	0.024661	-0.045786	-0.316190	-0.611990	0.527822	-0.496887	-155.817145	-70.383928	-98.735344
07218		7.222562	3.453627	-3.989741	-4.711640	0.436135	-2.221986	0.321304	0.851587	-2.362004	-0.780762	-0.224854	0.332031	0.072457	0.033746	-0.040151	-0.323279	-0.616571	0.518415	-0.496565	-158.685517	-71.355520	-95.503649
07219		8.955477	3.353463	-2.295185	-4.057619	-1.551239	-0.989972	-0.006899	0.885703	-1.949776	-0.780273	-0.242432	0.336914	0.089773	0.032659	-0.023350	-0.330417	-0.619438	0.510862	-0.496126	-161.368734	-72.219642	-92.673294
07220		10.178809	3.566627	-1.314641	-3.862087	-2.766968	-0.041212	-0.105602	0.897816	-1.768326	-0.781982	-0.257813	0.330811	0.102038	0.034758	-0.013623	-0.337390	-0.621527	0.504146	-0.495690	-164.027629	-73.010300	-89.949641
07221		9.732429	2.323387	-1.680898	-2.624601	-1.854677	-0.189152	-0.255647	0.785880	-1.663777	-0.785645	-0.279785	0.322510	0.097446	0.022402	-0.017221	-0.344300	-0.623355	0.498166	-0.494688	-166.902009	-73.692788	-87.095339
07222		9.722714	0.400339	-2.261164	-0.797496	-0.701832	0.120764	-0.191689	0.539668	-1.567408	-0.787598	-0.290771	0.324951	0.097193	0.003220	-0.022877	-0.350089	-0.625578	0.492816	-0.493175	-169.846441	-74.174835	-84.144613
07223		9.522849	-0.038237	-2.358436	-0.276063	-0.356249	-0.012510	-0.226899	0.354945	-1.411905	-0.787109	-0.306152	0.325195	0.095180	-0.001081	-0.023752	-0.355182	-0.627798	0.488231	-0.491270	-172.744016	-74.505932	-81.264778
07224		10.108167	0.506704	-2.567580	-0.712269	-0.401494	0.596651	-0.211164	0.219005	-1.211078	-0.780273	-0.314941	0.327637	0.101082	0.004428	-0.025791	-0.359330	-0.629835	0.484557	-0.489280	-175.319432	-74.701072	-78.718033
07225		10.573003	0.420926	-2.144644	-0.381235	-0.840477	0.944278	-0.122687	0.116373	-1.021426	-0.779785	-0.328125	0.328125	0.105737	0.003656	-0.021510	-0.362502	-0.631847	0.481320	-0.487537	-177.543449	-74.808837	-76.476508
07226		10.334765	1.131200	-1.336868	-0.765583	-1.689450	0.503952	-0.066514	0.026203	-0.922985	-0.779297	-0.341309	0.332764	0.103397	0.010830	-0.013386	-0.365004	-0.633883	0.478522	-0.485780	-179.523910	-74.835608	-74.462980
07227		9.673210	1.391766	-2.372328	-1.251543	-0.610143	0.147069	-0.137152	-0.022048	-0.808067	-0.779053	-0.347900	0.326416	0.096790	0.013510	-0.023722	-0.367342	-0.635675	0.476217	-0.483936	178.664366	-74.822995	-72.655974
07228		9.760726	2.561976	-2.376101	-2.295013	-0.934875	0.254080	-0.278095	-0.067472	-0.680621	-0.779053	-0.349854	0.335205	0.097702	0.025254	-0.023763	-0.369692	-0.636949	0.474856	-0.481805	177.081878	-74.768186	-71.180216
07229		10.178762	2.343736	-2.098438	-1.907309	-1.218516	0.597919	-0.464643	-0.064620	-0.566097	-0.769775	-0.365234	0.331299	0.101860	0.023100	-0.021005	-0.372379	-0.637646	0.474174	-0.479479	175.610552	-74.713847	-69.919999
07230		10.163499	1.879195	-2.093319	-1.399893	-1.073474	0.584317	-0.520261	-0.027570	-0.481712	-0.762695	-0.371826	0.333740	0.101683	0.018493	-0.020968	-0.375107	-0.637887	0.473942	-0.477256	174.318780	-74.672252	-68.888776
07231		9.736569	0.509638	-2.939473	-0.284717	0.214997	0.364418	-0.490160	0.160704	-0.381011	-0.760254	-0.378418	0.324951	0.097351	0.004839	-0.029485	-0.377945	-0.637555	0.473469	-0.475929	173.180966	-74.742296	-67.986912
07232		8.927570	0.064846	-3.617759	-0.066031	1.195486	-0.254437	-0.353522	0.247871	-0.316500	-0.767090	-0.378418	0.333740	0.089232	0.000443	-0.036289	-0.380393	-0.637050	0.472840	-0.475280	172.256115	-74.858609	-67.237437
07233		9.245384	-0.366997	-3.437837	0.456676	1.101949	-0.014345	-0.310812	0.324676	-0.265136	-0.766602	-0.393799	0.329834	0.092393	-0.003846	-0.034523	-0.382758	-0.636388	0.471990	-0.475113	171.394940	-75.022647	-66.515693
07234		9.643654	-0.704520	-3.114916	0.925570	0.836265	0.269121	-0.275137	0.403230	-0.262087	-0.764160	-0.395996	0.329834	0.096364	-0.007215	-0.031334	-0.385189	-0.635525	0.471044	-0.475242	170.548830	-75.225722	-65.802357
07235		9.825674	-0.409352	-2.626931	0.799846	0.310112	0.330095	-0.200971	0.445398	-0.288708	-0.766357	-0.400635	0.318848	0.098192	-0.004262	-0.026484	-0.387525	-0.634843	0.469614	-0.475669	169.618492	-75.449182	-64.943415
07236		9.403433	-0.171398	-2.314619	0.621151	0.101543	-0.147543	-0.111834	0.430999	-0.326555	-0.763916	-0.409424	0.319092	0.093981	-0.001880	-0.023348	-0.389650	-0.634371	0.468015	-0.476138	168.667367	-75.654980	-64.026403
07237		9.154651	-0.098266	-2.178230	0.578222	0.057544	-0.419918	-0.065452	0.403196	-0.332469	-0.763672	-0.413818	0.312500	0.091501	-0.001142	-0.021966	-0.391572	-0.634131	0.466209	-0.476654	167.682710	-75.843291	-63.035468
07238		9.079049	0.878898	-2.537209	-0.437081	0.202503	-0.357171	-0.095837	0.373103	-0.333327	-0.761475	-0.413818	0.317139	0.090757	0.008625	-0.025546	-0.393521	-0.633834	0.464657	-0.476958	166.703000	-76.007978	-62.081051
07239		9.594668	1.378694	-2.711754	-0.874997	0.172811	0.213095	-0.206881	0.361113	-0.374563	-0.763428	-0.424805	0.308350	0.095923	0.013579	-0.027305	-0.395881	-0.633509	0.463128	-0.476925	165.516917	-76.158007	-60.966467
07240		10.347189	0.740363	-2.715557	-0.136414	0.234523	0.907046	-0.397295	0.382776	-0.432856	-0.758789	-0.429199	0.306396	0.103435	0.007126	-0.027368	-0.399038	-0.632814	0.461952	-0.476356	164.085410	-76.303265	-59.725977
07241		10.055268	-0.029477	-2.697775	0.621387	0.528200	0.566222	-0.526312	0.367424	-0.444541	-0.764893	-0.442627	0.295654	0.100502	-0.000590	-0.027161	-0.402587	-0.631981	0.460943	-0.475453	162.500649	-76.432363	-58.391868
07242		10.286524	-0.397835	-2.467768	1.106460	0.406772	0.707322	-0.622822	0.354775	-0.440223	-0.756104	-0.444580	0.297852	0.102812	-0.004282	-0.024847	-0.406399	-0.630899	0.460323	-0.474247	160.889357	-76.544851	-57.100724
07243		10.497274	0.007620	-2.099866	0.874262	-0.032542	0.856730	-0.668122	0.342077	-0.440952	-0.755615	-0.458008	0.287109	0.104936	-0.000226	-0.021178	-0.410325	-0.629798	0.459707	-0.472925	159.200596	-76.643689	-55.746370
07244		10.652396	0.814766	-1.830901	0.224130	-0.461044	1.014422	-0.694476	0.314675	-0.489234	-0.748779	-0.460205	0.285156	0.106514	0.007823	-0.018504	-0.414370	-0.628753	0.459167	-0.471310	157.429896	-76.706470	-54.334599
07245		11.135047	0.681043	-1.379429	0.574229	-0.893516	1.377808	-0.745466	0.341291	-0.584686	-0.754883	-0.475830	0.270020	0.111346	0.006433	-0.014009	-0.418859	-0.627797	0.458262	-0.469493	155.340219	-76.752024	-52.614498
07246		10.336576	-0.586043	-1.796583	1.673404	-0.001438	0.561075	-0.765489	0.403546	-0.693637	-0.748047	-0.482178	0.270264	0.103308	-0.006288	-0.018151	-0.423791	-0.626832	0.457038	-0.467545	152.960240	-76.785770	-50.619182
07247		9.675769	-1.261824	-2.112908	2.248257	0.625719	-0.105470	-0.720730	0.410149	-0.810868	-0.740967	-0.497803	0.257324	0.096662	-0.013087	-0.021281	-0.428883	-0.626229	0.455209	-0.465491	150.300392	-76.772727	-48.302547
07248		10.021025	-0.867580	-1.919994	2.043585	0.355198	0.215098	-0.619528	0.473909	-0.958778	-0.733887	-0.506592	0.248779	0.100121	-0.009216	-0.019409	-0.434107	-0.625974	0.452633	-0.463498	147.361948	-76.719845	-45.647394
07249		10.071506	-0.551942	-2.621258	1.718860	1.029272	0.414498	-0.505334	0.528451	-1.161810	-0.729004	-0.519775	0.240234	0.100611	-0.006171	-0.026463	-0.439584	-0.626295	0.448926	-0.461504	144.002849	-76.595248	-42.486485
07250		10.476822	-0.374468	-2.632360	1.737749	1.024703	0.806224	-0.385804	0.578231	-1.364527	-0.719482	-0.535156	0.236084	0.104663	-0.004510	-0.026618	-0.445209	-0.627163	0.444268	-0.459435	140.375355	-76.376932	-38.982105
07251		10.971837	-0.349079	-2.937034	1.891868	1.339980	1.311682	-0.334794	0.617548	-1.490886	-0.703613	-0.548340	0.229980	0.109597	-0.004358	-0.029702	-0.451061	-0.628310	0.438898	-0.457316	136.587569	-76.075390	-35.275060
07252		11.484369	0.283398	-2.585160	1.606152	0.904420	1.817138	-0.356469	0.628811	-1.599414	-0.698730	-0.563721	0.228027	0.114779	0.001869	-0.026216	-0.457184	-0.629560	0.433263	-0.454884	132.812362	-75.676840	-31.591873
07253		11.759244	0.448835	-1.891101	1.806352	0.279592	1.964931	-0.422332	0.663682	-1.710042	-0.684814	-0.576904	0.208496	0.117561	0.003443	-0.019309	-0.463833	-0.630787	0.427228	-0.452155	128.971434	-75.183705	-27.867568
07254		11.905339	0.515642	-1.784835	1.985274	0.271287	2.068764	-0.451808	0.722359	-1.808300	-0.668701	-0.596680	0.204834	0.119028	0.004039	-0.018288	-0.470849	-0.631944	0.420859	-0.449250	125.183015	-74.606215	-24.210827
07255		12.314097	0.038203	-1.803291	2.743218	0.482111	2.316896	-0.452717	0.802457	-1.923479	-0.650391	-0.609863	0.191895	0.123063	-0.000843	-0.018526	-0.478290	-0.633093	0.413829	-0.446293	121.387582	-73.935400	-20.535453
07256		12.333626	-0.828996	-2.669838	3.642811	1.647556	2.184916	-0.446420	0.831240	-2.016590	-0.634277	-0.623047	0.187744	0.123132	-0.009593	-0.027190	-0.485877	-0.634311	0.406438	-0.443149	117.803912	-73.165752	-17.064689
07257		12.598542	-0.382734	-2.759897	3.507019	1.781960	2.475713	-0.405286	0.845727	-2.113243	-0.618164	-0.640625	0.175049	0.125817	-0.005214	-0.028122	-0.493527	-0.635735	0.398470	-0.439880	114.441932	-72.289366	-13.779117
07258		12.681510	-0.199547	-1.972676	3.733127	1.132861	2.415315	-0.417314	0.875791	-2.260366	-0.602051	-0.651611	0.168701	0.126693	-0.003470	-0.020276	-0.501517	-0.637241	0.390022	-0.436220	111.274776	-71.290948	-10.695858
07259		12.540636	-0.281817	-1.633506	4.078294	0.995339	2.119752	-0.395879	0.916144	-2.404184	-0.576904	-0.673584	0.156006	0.125284	-0.004358	-0.016902	-0.509761	-0.638910	0.380819	-0.432336	108.289374	-70.169653	-7.766176
07260		13.405279	-0.443677	-0.908915	4.915021	0.458172	2.691136	-0.346764	0.977425	-2.575463	-0.560791	-0.693115	0.152344	0.133934	-0.006179	-0.009734	-0.518232	-0.640763	0.370824	-0.428192	105.509939	-68.920803	-5.010943
07261		13.572259	-1.121723	-1.475745	5.803056	1.338470	2.522705	-0.291012	1.041236	-2.724705	-0.537842	-0.706299	0.135010	0.135474	-0.013086	-0.015445	-0.526867	-0.642784	0.359909	-0.423917	102.924848	-67.551421	-2.400067
07262		13.720006	-1.110559	-2.012439	6.069505	2.072728	2.531193	-0.264390	1.080354	-2.877148	-0.513184	-0.719238	0.142090	0.136910	-0.013104	-0.020848	-0.535681	-0.644906	0.348345	-0.419283	100.580354	-66.064053	-0.013451
07263		14.194447	-1.145225	-2.478201	6.542551	2.760526	2.776665	-0.374438	1.092670	-3.009090	-0.483398	-0.736816	0.129150	0.141612	-0.013632	-0.025532	-0.545023	-0.646785	0.336394	-0.414075	98.401592	-64.464728	2.155388
07264		15.775129	-1.746487	-3.090260	8.012517	3.739504	3.724123	-0.522363	1.166573	-3.142388	-0.465088	-0.754395	0.120850	0.157266	-0.020021	-0.031771	-0.555087	-0.648146	0.324097	-0.408346	96.305957	-62.765320	4.161430
07265		17.489236	-3.684112	-3.866903	10.748959	5.172773	4.046096	-0.688612	1.260907	-3.270955	-0.435791	-0.765381	0.103516	0.174009	-0.039827	-0.039634	-0.565942	-0.648868	0.311305	-0.402205	94.239684	-60.964245	6.062234
07266		19.020538	-5.300528	-5.596541	12.998008	7.518838	4.175450	-0.742590	1.336351	-3.394176	-0.406250	-0.780762	0.095215	0.188888	-0.056429	-0.057025	-0.577144	-0.649258	0.297963	-0.395710	92.300917	-59.067231	7.810171
07267		19.374910	-7.418986	-6.680860	15.192965	9.241309	2.787866	-0.738145	1.343989	-3.594633	-0.383545	-0.793945	0.082275	0.191918	-0.077899	-0.067819	-0.588532	-0.649706	0.283798	-0.388550	90.559875	-57.027842	9.366958
07268		19.384637	-7.004633	-6.835952	15.241912	9.608135	2.305929	-0.804056	1.251844	-3.828341	-0.349854	-0.804688	0.080566	0.192023	-0.074011	-0.069273	-0.600219	-0.650211	0.269194	-0.380128	89.052888	-54.833003	10.630926
07269		20.663688	-5.361065	-5.306221	15.364322	8.285925	3.569837	-0.825591	1.191357	-4.034842	-0.320313	-0.820068	0.061035	0.205176	-0.057982	-0.054054	-0.612021	-0.650752	0.254024	-0.370708	87.741501	-52.505654	11.672616
07270		22.034844	-4.147127	-3.836014	16.017992	7.151560	4.666294	-1.103323	1.248209	-4.192077	-0.284424	-0.828613	0.059326	0.219168	-0.046289	-0.039484	-0.624796	-0.650230	0.238559	-0.360445	86.374862	-50.071419	12.614808
07271		22.691215	-3.759467	-3.742903	16.718729	7.433342	4.615391	-1.333641	1.457651	-4.202347	-0.252686	-0.843994	0.041992	0.225773	-0.042603	-0.038804	-0.638255	-0.648274	0.222731	-0.350375	84.871390	-47.611919	13.596018
07272		21.600989	-2.369778	-5.469914	15.227411	9.187289	3.817089	-1.295168	1.622954	-4.094303	-0.223389	-0.850586	0.026855	0.215007	-0.028467	-0.056273	-0.651252	-0.645696	0.206505	-0.341034	83.411859	-45.184665	14.587736
07273		17.973982	-2.649438	-6.435537	13.231020	9.803315	0.201002	-1.214496	1.468954	-4.002370	-0.198730	-0.857178	0.011719	0.178678	-0.030473	-0.065493	-0.663329	-0.643212	0.190904	-0.331403	82.191532	-42.811585	15.340465
07274		13.874448	-4.970231	-5.471610	12.372530	8.322296	-4.835798	-0.962862	1.024411	-3.716342	-0.169189	-0.870117	0.005371	0.137504	-0.052530	-0.055174	-0.673419	-0.641751	0.177127	-0.321387	81.395192	-40.621694	15.709443
07275		12.182558	-3.100187	-1.515625	10.770761	4.111721	-4.579032	-0.398517	0.776809	-3.387465	-0.146973	-0.872314	0.003418	0.121217	-0.033089	-0.015563	-0.680698	-0.642070	0.164371	-0.312056	81.053761	-38.645317	15.883642
07276		7.945569	9.311421	-1.173836	0.020454	2.750783	2.171964	-0.567328	0.682983	-3.172160	-0.126709	-0.872314	-0.007568	0.080877	0.091805	-0.012275	-0.687926	-0.641603	0.152741	-0.302942	80.655457	-36.790132	16.004925
07277		12.777497	-0.034860	-3.432279	9.321101	6.218870	-2.778561	-0.377480	0.882311	-2.448418	-0.108887	-0.878906	-0.014160	0.127604	-0.001977	-0.034883	-0.693431	-0.640795	0.142538	-0.297016	80.251801	-35.333437	16.320248
07278		9.887437	-1.091442	-6.285392	7.251834	8.393591	-5.886296	0.613995	0.242394	-1.282921	-0.106689	-0.878662	-0.000732	0.098726	-0.011355	-0.063008	-0.693513	-0.643470	0.136687	-0.293773	80.595395	-34.586951	16.336286
07279		6.996201	-1.602812	-3.594424	5.785416	5.124008	-7.642640	0.343538	0.198572	-0.585067	-0.110840	-0.880859	-0.002930	0.069879	-0.016171	-0.036041	-0.693366	-0.644783	0.133763	-0.292585	80.760089	-34.249754	16.389854
07280		4.190075	-3.208565	-1.851415	4.818555	2.793673	-10.318899	0.364001	0.108750	-0.077090	-0.117676	-0.883057	0.001465	0.041878	-0.032068	-0.018595	-0.692366	-0.645945	0.132619	-0.292910	80.933604	-34.197658	16.453907
07281		2.784369	-2.382242	-1.444565	3.299526	2.077737	-10.370030	0.515648	-0.011804	0.472104	-0.131104	-0.878662	0.008057	0.027901	-0.023719	-0.014505	-0.689949	-0.647458	0.133577	-0.294832	81.214060	-34.479050	16.481396
07282		1.770509	-1.133372	-1.646615	1.728473	2.032206	-9.926822	0.541268	-0.101135	0.996685	-0.142578	-0.872070	0.010010	0.017769	-0.011201	-0.016488	-0.686638	-0.648807	0.136367	-0.298298	81.506456	-35.053743	16.514209
07283		0.863307	-0.565723	-2.344739	0.538908	2.493881	-10.043345	0.577993	-0.249961	1.442453	-0.162354	-0.876709	0.007813	0.008703	-0.005527	-0.023453	-0.682353	-0.650199	0.141171	-0.302832	81.864468	-35.906095	16.474245
07284		0.402718	-0.603046	-2.940649	0.083184	2.974045	-10.379511	0.612221	-0.477924	1.876224	-0.180420	-0.867920	0.016357	0.004153	-0.005902	-0.029415	-0.677138	-0.651662	0.147981	-0.308094	82.308429	-37.009946	16.319109
07285		0.776931	-0.814811	-2.709388	0.551516	2.847739	-10.253499	0.633364	-0.668164	2.353781	-0.209473	-0.865967	0.020508	0.007954	-0.007969	-0.027093	-0.670851	-0.653067	0.157090	-0.314302	82.840973	-38.410278	16.040719
07286		1.797078	-0.776171	-1.918005	1.451272	2.296043	-9.449119	0.743589	-0.844512	2.856176	-0.238770	-0.857178	0.024658	0.018159	-0.007432	-0.019132	-0.663181	-0.654577	0.168075	-0.321670	83.502932	-40.094033	15.669511
07287		2.576826	-0.333983	-1.325625	1.830882	1.834942	-8.475217	0.890024	-1.032984	3.330532	-0.265869	-0.843994	0.035400	0.025887	-0.002851	-0.013136	-0.653885	-0.656305	0.181115	-0.329994	84.362585	-42.067779	15.134935
07288		3.216656	0.106556	-1.014118	1.996952	1.582158	-7.600440	1.036506	-1.216379	3.767561	-0.304199	-0.833252	0.048340	0.032199	0.001724	-0.009938	-0.643018	-0.658160	0.195719	-0.339187	85.430226	-44.281210	14.444196
07289		3.982320	0.115760	-0.938135	2.443670	1.581904	-6.935960	1.170353	-1.360460	4.167226	-0.342773	-0.815918	0.056396	0.039849	0.002042	-0.009100	-0.630547	-0.659998	0.211945	-0.349131	86.741257	-46.730222	13.543718
07290		4.601981	-0.279335	-0.730466	3.060514	1.444707	-6.598410	1.329083	-1.442219	4.529941	-0.383301	-0.798340	0.073730	0.046118	-0.001702	-0.006986	-0.616522	-0.661712	0.229068	-0.359952	88.299329	-49.360328	12.474399
07291		5.278834	-0.685034	-0.254113	3.739413	1.033233	-6.159868	1.480646	-1.485181	4.825771	-0.417725	-0.769775	0.092773	0.052950	-0.005557	-0.002193	-0.600977	-0.663192	0.247056	-0.371439	90.160573	-52.150000	11.160014
07292		6.329491	-0.826199	0.102415	4.364739	0.715714	-5.210173	1.628736	-1.511487	5.079327	-0.467529	-0.748047	0.109619	0.063468	-0.006662	0.001445	-0.584034	-0.664372	0.265331	-0.383555	92.358600	-55.041837	9.590522
07293		7.574555	-0.297670	0.126842	4.395685	0.558071	-3.662016	1.762087	-1.549047	5.298705	-0.504150	-0.717285	0.130859	0.075776	-0.000984	0.001841	-0.565678	-0.665161	0.284160	-0.396009	95.024070	-58.027792	7.596916
07294		8.690324	0.738333	-0.220703	3.711542	0.553152	-1.937870	1.832717	-1.582586	5.489725	-0.541016	-0.684326	0.149902	0.086670	0.009780	-0.001438	-0.546198	-0.665386	0.303146	-0.408694	98.227766	-61.049110	5.100850
07295		9.769678	1.508654	-0.504758	3.078455	0.426011	-0.416446	1.758846	-1.567640	5.682095	-0.586670	-0.644775	0.168701	0.097250	0.017893	-0.004135	-0.526037	-0.664450	0.322777	-0.421433	102.076564	-64.109214	1.895329
07296		10.771070	1.968048	-0.448006	2.602781	-0.051998	0.830354	1.588368	-1.540773	5.877414	-0.612549	-0.601074	0.180664	0.107099	0.022864	-0.003480	-0.505618	-0.662069	0.342857	-0.434125	106.731091	-67.153785	-2.212227
07297		11.570078	2.305690	-0.354708	2.031555	-0.609032	1.796126	1.413589	-1.557115	6.006038	-0.651855	-0.559326	0.201660	0.114961	0.026537	-0.002471	-0.484934	-0.658346	0.363626	-0.446314	112.695091	-70.106528	-7.755469
07298		12.543228	2.409688	-0.483463	1.569979	-0.959454	2.833733	1.244282	-1.593659	6.100011	-0.680176	-0.510986	0.213623	0.124652	0.027932	-0.003673	-0.464065	-0.653496	0.384612	-0.457886	120.527707	-72.828208	-15.260101
07299		13.651085	2.630491	-0.691988	0.889192	-1.350334	4.010057	1.105849	-1.624094	6.209929	-0.706055	-0.464844	0.225586	0.135655	0.030560	-0.005655	-0.442822	-0.647434	0.406121	-0.468833	131.134227	-75.184660	-25.641620
07300		14.150631	2.626960	-0.788588	0.183484	-1.782340	4.486866	1.041798	-1.619533	6.329410	-0.729980	-0.412354	0.237549	0.140637	0.030767	-0.006592	-0.421068	-0.640338	0.427537	-0.479459	145.146956	-76.925402	-39.458174
07301		14.834116	2.207783	-0.361684	-0.039208	-2.653118	4.949846	1.006954	-1.560627	6.424062	-0.749512	-0.361816	0.247314	0.147551	0.026840	-0.002336	-0.398828	-0.632039	0.448912	-0.489838	162.326294	-77.760661	-56.478894
07302		15.674334	2.235331	-0.262047	-0.831455	-3.397864	5.628200	1.059533	-1.533612	6.422324	-0.758057	-0.304443	0.265625	0.155931	0.027379	-0.001286	-0.376072	-0.623147	0.469424	-0.499899	-179.832880	-77.446986	-74.116352
07303		16.523854	2.625122	-0.642261	-2.189763	-3.837777	6.334033	1.213216	-1.490343	6.340593	-0.775391	-0.251953	0.270996	0.164336	0.031505	-0.005015	-0.352693	-0.613851	0.488850	-0.509725	-164.239574	-76.076795	-89.425865
07304		17.309025	3.309575	-1.047602	-3.910374	-4.358069	6.838390	1.430399	-1.457346	6.255084	-0.776855	-0.199219	0.282715	0.172010	0.038555	-0.008957	-0.328595	-0.604474	0.506712	-0.519500	-152.122928	-73.956764	-101.114575
07305		18.191748	4.208514	-1.250279	-5.841995	-5.187093	7.189013	1.658964	-1.398162	6.151312	-0.782959	-0.146484	0.283691	0.180587	0.047748	-0.010857	-0.303840	-0.594843	0.523160	-0.529289	-142.982219	-71.370037	-109.700014
07306		19.119007	5.583884	-1.095351	-8.142541	-6.511315	7.189839	1.846127	-1.309888	5.983851	-0.780273	-0.095703	0.293457	0.189468	0.061615	-0.009158	-0.278917	-0.585164	0.537797	-0.539039	-136.100176	-68.568255	-115.895381
07307		20.397587	7.529607	-0.686582	-10.932052	-8.344934	7.037754	1.812144	-1.230484	5.712844	-0.776855	-0.056152	0.296875	0.201748	0.081131	-0.004902	-0.254734	-0.575294	0.551203	-0.548018	-130.914669	-65.694302	-120.401553
07308		21.514006	10.261336	-0.353590	-14.365435	-10.248908	6.209760	1.527817	-1.170213	5.306105	-0.775879	-0.016602	0.298096	0.212330	0.108288	-0.001475	-0.232457	-0.565599	0.563553	-0.555400	-127.142665	-62.907380	-123.613752
07309		19.586302	12.628912	-1.406553	-17.046148	-9.589441	2.932777	1.249710	-1.064856	4.774299	-0.774658	0.016357	0.303955	0.192842	0.130997	-0.012225	-0.212547	-0.556314	0.574716	-0.561285	-124.375438	-60.320510	-125.948062
07310		16.008119	14.606878	-2.200426	-18.472864	-8.205086	-1.699940	0.954654	-0.914194	4.188625	-0.769043	0.051514	0.302979	0.157070	0.149480	-0.020574	-0.195440	-0.547729	0.584524	-0.565799	-122.349985	-58.025871	-127.668195
07311		14.274899	17.265810	-2.237851	-20.446180	-8.210159	-5.188620	0.673270	-0.805668	3.457243	-0.767578	0.075684	0.304688	0.139822	0.175165	-0.021224	-0.181389	-0.540434	0.592817	-0.568856	-120.960636	-56.090420	-128.864031
07312		14.147086	19.744122	-1.915932	-22.479245	-9.049604	-7.283729	0.335489	-0.678736	2.562062	-0.759033	0.086670	0.306641	0.138989	0.199264	-0.018352	-0.171148	-0.535031	0.599352	-0.570287	-120.172893	-54.626765	-129.586635
07313		14.970638	21.465281	-0.932086	-23.883462	-10.630302	-8.293451	-0.023771	-0.419957	1.668169	-0.759277	0.093262	0.306396	0.147928	0.215891	-0.009035	-0.165157	-0.531180	0.604226	-0.570511	-119.810286	-53.675209	-130.047949
07314		14.264011	23.752770	-0.179442	-25.255228	-11.371519	-10.552415	-0.332937	-0.079637	0.653711	-0.754883	0.095459	0.302002	0.141864	0.237989	-0.002134	-0.163915	-0.529157	0.606976	-0.569828	-119.803242	-53.325640	-130.292827
07315		12.543477	25.227508	-0.600862	-26.044693	-10.409106	-12.541331	-0.717823	0.291452	-0.550977	-0.756836	0.084229	0.291260	0.126119	0.251904	-0.007097	-0.168243	-0.529431	0.607286	-0.567980	-120.230556	-53.683250	-130.266328
07316		12.401168	24.671589	-1.829164	-26.102764	-9.010347	-11.615879	-1.148917	0.566536	-1.751255	-0.754150	0.071289	0.300537	0.126110	0.245506	-0.020060	-0.177948	-0.532146	0.605404	-0.564484	-121.212948	-54.709752	-129.865560
07317		16.686261	17.790262	-7.091998	-23.858940	-4.718032	-2.487418	-1.628230	0.414807	-2.643454	-0.755615	0.047119	0.292236	0.169040	0.175091	-0.072702	-0.190962	-0.537521	0.602456	-0.558258	-123.022066	-56.123657	-128.792098
07318		9.734951	-12.460803	-10.229175	3.820203	7.331799	7.107632	-1.656506	0.795515	-2.632141	-0.757568	0.036133	0.294678	0.095286	-0.126715	-0.101630	-0.205113	-0.541582	0.599173	-0.552820	-124.678853	-57.628091	-127.946104
07319		8.607430	-33.031412	-12.939016	21.798912	14.363025	15.702953	-1.061341	0.417263	-1.610476	-0.754883	0.025146	0.290527	0.083139	-0.331673	-0.127808	-0.213673	-0.544199	0.597223	-0.549105	-125.831184	-58.524716	-127.296955
07320		14.265991	-20.726185	-5.905393	11.919849	3.437510	12.860195	-0.338358	0.454398	-1.103633	-0.754639	0.013916	0.284180	0.141379	-0.208144	-0.059024	-0.218957	-0.545879	0.594656	-0.548140	-126.292986	-59.187165	-126.982786
07321		21.611833	-7.012002	0.073386	-0.182805	-7.376320	11.676319	-0.053845	0.743767	-2.257835	-0.756348	-0.003662	0.282471	0.215309	-0.072554	-0.000049	-0.227477	-0.550490	0.587752	-0.547506	-127.067343	-60.481093	-126.118181
07322		20.420527	-2.305774	-3.049920	-4.584562	-4.817583	9.868559	0.644922	0.170971	-3.360100	-0.753418	-0.025391	0.289551	0.203754	-0.026385	-0.030755	-0.235350	-0.560553	0.576462	-0.545969	-128.714260	-62.058877	-123.817826
07323		22.590137	1.832534	4.623979	-5.631422	-13.225390	8.308463	-0.108591	0.336497	-3.540822	-0.750244	-0.053955	0.283691	0.226256	0.014347	0.045851	-0.246240	-0.569665	0.566297	-0.542361	-131.030943	-63.742885	-121.278869
