// General information: 
//  MT Manager version: 2019.2.0 
//  XDA version: 2019.2.0 build 3853 rev 94535 built on 2019-09-09
// Device information: 
//  DeviceId: 00B40ACF
//  ProductCode: MTW2-3A7G6
//  Firmware Version: 4.3.5
//  Hardware Version: 1.1.0
// Device settings: 
//  Filter Profile: human(46.1)
//  Option Flags: Orientation Smoother Disabled, AHS Disabled, ICC Disabled
// Coordinate system: ENU
PacketCounter	SampleTimeFine	Acc_X	Acc_Y	Acc_Z	FreeAcc_E	FreeAcc_N	FreeAcc_U	Gyr_X	Gyr_Y	Gyr_Z	Mag_X	Mag_Y	Mag_Z	VelInc_X	VelInc_Y	VelInc_Z	Quat_q0	Quat_q1	Quat_q2	Quat_q3	Roll	Pitch	Yaw
31723		9.687525	0.382672	-1.845202	0.004286	0.023608	0.056395	0.004491	-0.026552	-0.018131	-0.988281	-0.236328	-0.275879	0.096878	0.003818	-0.018439	0.629172	0.155916	-0.754081	0.105806	168.854862	-79.078176	-147.426513
31724		9.667805	0.376831	-1.782073	-0.051268	-0.003544	0.025076	0.000780	-0.030738	-0.019779	-0.992432	-0.240967	-0.269287	0.096681	0.003759	-0.017806	0.629043	0.155911	-0.754197	0.105747	168.869597	-79.058029	-147.446241
31725		9.760000	0.415219	-1.772169	-0.092701	0.017793	0.115136	0.000340	-0.034367	-0.016629	-0.983887	-0.231934	-0.267090	0.097603	0.004144	-0.017705	0.628896	0.155901	-0.754329	0.105699	168.896589	-79.035863	-147.477675
31726		9.760289	0.348910	-1.819060	-0.028735	-0.028561	0.121714	-0.003545	-0.029461	-0.019651	-0.990479	-0.234131	-0.269287	0.097606	0.003479	-0.018176	0.628776	0.155881	-0.754444	0.105624	168.908342	-79.016445	-147.496890
31727		9.738363	0.351701	-1.810355	-0.037904	-0.028567	0.098647	0.007559	-0.038532	-0.023377	-0.992676	-0.234131	-0.273682	0.097388	0.003506	-0.018085	0.628606	0.155911	-0.754587	0.105570	168.923926	-78.990280	-147.514010
31728		9.771169	0.380978	-1.855595	-0.016429	0.009287	0.140390	0.009369	-0.039575	-0.025066	-0.988037	-0.240723	-0.269287	0.097716	0.003798	-0.018536	0.628441	0.155957	-0.754722	0.105520	168.933034	-78.964576	-147.522996
31729		9.716856	0.421449	-1.906341	0.020161	0.068566	0.098112	0.016560	-0.033222	-0.024140	-0.990479	-0.236328	-0.273682	0.097172	0.004204	-0.019047	0.628290	0.156019	-0.754837	0.105504	168.945870	-78.942174	-147.531589
31730		9.706622	0.419539	-1.876755	-0.008139	0.055713	0.082440	0.025365	-0.034774	-0.023230	-0.988281	-0.234131	-0.275879	0.097070	0.004186	-0.018750	0.628129	0.156107	-0.754950	0.105523	168.966625	-78.919370	-147.543105
31731		9.708860	0.445167	-1.875943	-0.021695	0.077729	0.085433	0.021324	-0.020361	-0.019756	-0.990479	-0.236328	-0.273682	0.097091	0.004444	-0.018749	0.628028	0.156141	-0.755027	0.105524	168.982675	-78.904973	-147.555988
31732		9.716749	0.385863	-1.810228	-0.063633	-0.002233	0.078570	0.017109	-0.018073	-0.018442	-0.988525	-0.229736	-0.273682	0.097169	0.003851	-0.018093	0.627934	0.156175	-0.755095	0.105540	169.003002	-78.892083	-147.571891
31733		9.700770	0.435984	-1.793099	-0.097670	0.039048	0.061479	0.014514	-0.023692	-0.017141	-0.992920	-0.234375	-0.267090	0.097010	0.004353	-0.017919	0.627824	0.156172	-0.755192	0.105512	169.024452	-78.875761	-147.595602
31734		9.718624	0.412597	-1.811225	-0.078294	0.021208	0.081545	0.015509	-0.026131	-0.015379	-0.983887	-0.234131	-0.264893	0.097189	0.004120	-0.018099	0.627699	0.156194	-0.755289	0.105525	169.056975	-78.858670	-147.624875
31735		9.682271	0.394912	-1.826332	-0.055425	0.013307	0.048072	0.008814	-0.028450	-0.011582	-0.995117	-0.229980	-0.267090	0.096826	0.003944	-0.018249	0.627561	0.156180	-0.755407	0.105523	169.100348	-78.839650	-147.669285
31736		9.666182	0.444486	-1.809853	-0.089450	0.054737	0.030951	0.007015	-0.027411	-0.009894	-0.992920	-0.234375	-0.267090	0.096665	0.004441	-0.018085	0.627435	0.156155	-0.755517	0.105520	169.144120	-78.822423	-147.714989
31737		9.648168	0.401735	-1.840781	-0.046190	0.027477	0.017578	0.002620	-0.031990	-0.006902	-0.979492	-0.231689	-0.271484	0.096485	0.004014	-0.018392	0.627287	0.156087	-0.755659	0.105487	169.197909	-78.801546	-147.776765
31738		9.684639	0.385341	-1.926024	0.027681	0.038160	0.069016	0.004015	-0.041922	-0.009275	-0.986328	-0.229736	-0.269287	0.096851	0.003849	-0.019240	0.627108	0.156058	-0.755816	0.105464	169.249240	-78.776201	-147.831935
31739		9.739500	0.440214	-1.835575	-0.088644	0.050322	0.107524	-0.003117	-0.037168	-0.009210	-0.983887	-0.234131	-0.269287	0.097399	0.004397	-0.018338	0.626957	0.155980	-0.755969	0.105386	169.289022	-78.753212	-147.884205
31740		9.787691	0.419717	-1.900001	-0.034204	0.048197	0.166369	-0.009614	-0.037885	-0.010920	-0.986084	-0.231934	-0.264893	0.097881	0.004191	-0.018982	0.626805	0.155913	-0.756120	0.105310	169.325312	-78.729949	-147.932015
31741		9.724280	0.355050	-1.910929	0.006101	-0.002730	0.103929	-0.010722	-0.036461	-0.013863	-0.986084	-0.236328	-0.269287	0.097247	0.003543	-0.019092	0.626660	0.155844	-0.756268	0.105208	169.350148	-78.706757	-147.970530
31742		9.666523	0.338474	-1.914703	0.021345	-0.012133	0.047420	-0.002528	-0.037800	-0.015029	-0.986328	-0.229736	-0.262695	0.096669	0.003377	-0.019129	0.626504	0.155814	-0.756412	0.105145	169.378563	-78.683098	-148.006178
31743		9.659232	0.360226	-1.881722	-0.019559	-0.004310	0.034698	0.002747	-0.036670	-0.017446	-0.981689	-0.231934	-0.267090	0.096596	0.003594	-0.018799	0.626349	0.155802	-0.756551	0.105085	169.401480	-78.659334	-148.034654
31744		9.679569	0.361165	-1.897810	-0.012776	-0.001430	0.057774	0.006316	-0.044612	-0.017977	-0.986084	-0.231934	-0.264893	0.096800	0.003604	-0.018956	0.626163	0.155814	-0.756709	0.105041	169.430001	-78.631521	-148.065248
31745		9.639151	0.388140	-1.874283	-0.042024	0.017714	0.014557	0.006326	-0.044615	-0.017980	-0.983887	-0.231934	-0.260498	0.096396	0.003873	-0.018721	0.625977	0.155816	-0.756871	0.104982	169.455891	-78.603365	-148.095461
31746		9.643549	0.405493	-1.821480	-0.102294	0.012832	0.009208	0.007480	-0.051311	-0.018881	-0.986084	-0.231934	-0.262695	0.096441	0.004047	-0.018190	0.625765	0.155839	-0.757048	0.104934	169.485742	-78.571678	-148.126740
31747		9.654628	0.434887	-1.855978	-0.088737	0.049212	0.027807	-0.001617	-0.052391	-0.015437	-0.986328	-0.227539	-0.267090	0.096551	0.004341	-0.018535	0.625549	0.155818	-0.757241	0.104858	169.521191	-78.538960	-148.169607
31748		9.683946	0.439585	-1.906498	-0.054694	0.066356	0.066553	-0.010567	-0.057727	-0.014650	-0.983887	-0.231934	-0.260498	0.096845	0.004388	-0.019037	0.625324	0.155772	-0.757452	0.104750	169.555364	-78.504090	-148.215855
31749		9.746798	0.338975	-1.942191	-0.001644	-0.023722	0.131483	-0.016790	-0.061696	-0.017830	-0.983887	-0.231934	-0.264893	0.097474	0.003379	-0.019392	0.625091	0.155701	-0.757682	0.104581	169.576287	-78.466035	-148.255998
31750		9.718977	0.326127	-1.993071	0.048711	-0.017490	0.113769	-0.005094	-0.054998	-0.022597	-0.983887	-0.234131	-0.260498	0.097196	0.003250	-0.019904	0.624876	0.155700	-0.757874	0.104471	169.589874	-78.431871	-148.278049
31751		9.781019	0.261971	-1.934271	0.002760	-0.107276	0.160619	0.011327	-0.051803	-0.027819	-0.986084	-0.234131	-0.264893	0.097816	0.002607	-0.019317	0.624664	0.155765	-0.758045	0.104401	169.594471	-78.398870	-148.282449
31752		9.719622	0.322727	-1.948565	-0.000078	-0.041741	0.105496	0.026971	-0.033013	-0.031454	-0.981689	-0.231934	-0.262695	0.097200	0.003215	-0.019469	0.624512	0.155887	-0.758145	0.104402	169.590922	-78.376178	-148.268256
31753		9.682326	0.406784	-1.970334	-0.007491	0.045902	0.076345	0.027747	-0.026350	-0.031070	-0.983643	-0.236328	-0.262695	0.096826	0.004056	-0.019690	0.624390	0.155997	-0.758224	0.104396	169.581284	-78.357438	-148.249704
31754		9.687269	0.424934	-1.915427	-0.067763	0.041081	0.070952	0.031332	-0.023163	-0.030626	-0.983887	-0.234131	-0.262695	0.096876	0.004238	-0.019142	0.624271	0.156124	-0.758292	0.104424	169.577616	-78.340381	-148.232838
31755		9.716185	0.466321	-1.868933	-0.132625	0.058442	0.091534	0.023383	-0.019812	-0.027079	-0.981445	-0.236328	-0.262695	0.097164	0.004652	-0.018679	0.624174	0.156210	-0.758353	0.104428	169.573798	-78.325920	-148.221245
31756		9.767115	0.503216	-1.978495	-0.056583	0.124839	0.164557	0.008264	-0.011710	-0.023437	-0.983887	-0.231934	-0.253906	0.097673	0.005022	-0.019779	0.624113	0.156232	-0.758403	0.104400	169.570812	-78.316063	-148.218570
31757		9.728235	0.430061	-1.944797	-0.055184	0.048218	0.117085	0.006578	-0.009657	-0.020561	-0.990723	-0.231934	-0.262695	0.097284	0.004291	-0.019443	0.624058	0.156242	-0.758449	0.104378	169.573019	-78.307461	-148.221698
31758		9.739930	0.427257	-1.924935	-0.075692	0.036902	0.124469	0.013709	-0.009134	-0.016817	-0.983887	-0.234131	-0.258301	0.097401	0.004266	-0.019245	0.623999	0.156254	-0.758493	0.104393	169.589878	-78.299741	-148.236104
31759		9.712968	0.413532	-1.971186	-0.025307	0.042961	0.106780	0.012060	-0.012353	-0.017780	-0.990723	-0.231934	-0.262695	0.097131	0.004128	-0.019706	0.623931	0.156256	-0.758550	0.104381	169.602540	-78.289797	-148.249434
31760		9.686024	0.367523	-1.967285	-0.009147	0.001349	0.077927	0.022805	-0.013910	-0.017432	-0.981445	-0.236328	-0.260498	0.096862	0.003669	-0.019666	0.623847	0.156302	-0.758604	0.104425	169.625274	-78.279320	-148.264520
31761		9.693976	0.408635	-1.908054	-0.081848	0.017254	0.075378	0.031281	-0.018482	-0.020105	-0.981689	-0.231934	-0.264893	0.096942	0.004080	-0.019071	0.623745	0.156377	-0.758666	0.104474	169.644276	-78.266056	-148.272882
31762		9.675974	0.398432	-1.988190	-0.004185	0.037596	0.073398	0.029986	-0.018661	-0.017530	-0.986084	-0.231934	-0.260498	0.096762	0.003979	-0.019872	0.623638	0.156448	-0.758730	0.104542	169.673135	-78.252888	-148.290024
31763		9.669140	0.419778	-1.953641	-0.044856	0.045407	0.060565	0.026536	-0.020842	-0.016794	-0.984131	-0.229736	-0.256104	0.096694	0.004192	-0.019526	0.623531	0.156487	-0.758806	0.104568	169.697243	-78.238695	-148.308455
31764		9.681554	0.348028	-1.978409	-0.000644	-0.014020	0.075058	0.035091	-0.019124	-0.014454	-0.984131	-0.227539	-0.260498	0.096818	0.003477	-0.019774	0.623417	0.156563	-0.758871	0.104664	169.737469	-78.225578	-148.334225
31765		9.698589	0.392382	-1.952634	-0.046192	0.016098	0.088170	0.035099	-0.019126	-0.014456	-0.986084	-0.234131	-0.253906	0.096988	0.003920	-0.019516	0.623303	0.156614	-0.758945	0.104731	169.774726	-78.211771	-148.361344
31766		9.671609	0.345660	-1.949220	-0.030058	-0.025557	0.059364	0.039071	-0.018167	-0.014318	-0.983887	-0.236328	-0.251709	0.096718	0.003453	-0.019483	0.623188	0.156701	-0.759005	0.104843	169.816988	-78.199199	-148.386871
31767		9.643585	0.399307	-1.952746	-0.044486	0.028671	0.034576	0.041005	-0.018197	-0.014840	-0.986084	-0.234131	-0.262695	0.096438	0.003990	-0.019518	0.623066	0.156811	-0.759065	0.104976	169.861499	-78.186014	-148.411024
31768		9.690996	0.414776	-1.921817	-0.089207	0.026964	0.075292	0.037958	-0.016756	-0.017261	-0.986084	-0.236328	-0.253906	0.096912	0.004143	-0.019209	0.622959	0.156904	-0.759119	0.105076	169.894372	-78.173934	-148.427610
31769		9.719809	0.487107	-1.925882	-0.119842	0.092208	0.106895	0.021816	-0.023214	-0.013475	-0.983887	-0.231934	-0.256104	0.097201	0.004867	-0.019247	0.622841	0.156935	-0.759204	0.105114	169.928638	-78.158681	-148.455908
31770		9.708348	0.392074	-1.942174	-0.070990	0.010461	0.095523	0.012242	-0.028362	-0.014706	-0.983887	-0.236328	-0.256104	0.097087	0.003915	-0.019408	0.622709	0.156945	-0.759310	0.105115	169.959069	-78.140305	-148.485057
31771		9.710451	0.417421	-1.941571	-0.084487	0.032620	0.098347	0.003807	-0.029073	-0.015861	-0.988525	-0.227539	-0.258301	0.097108	0.004167	-0.019402	0.622583	0.156933	-0.759422	0.105075	169.979974	-78.121335	-148.509859
31772		9.692123	0.407286	-2.022415	-0.006799	0.052847	0.096422	-0.002983	-0.026562	-0.016061	-0.986328	-0.229736	-0.258301	0.096924	0.004065	-0.020211	0.622470	0.156900	-0.759529	0.105016	169.997040	-78.103835	-148.534268
31773		9.680644	0.312898	-2.038727	0.042022	-0.029130	0.085118	0.002683	-0.027660	-0.018804	-0.981689	-0.234131	-0.262695	0.096810	0.003120	-0.020374	0.622355	0.156863	-0.759644	0.104930	170.005997	-78.084908	-148.553036
31774		9.631586	0.336266	-1.980149	-0.014290	-0.024165	0.026049	0.015770	-0.025613	-0.022158	-0.984131	-0.229736	-0.251709	0.096319	0.003354	-0.019789	0.622234	0.156911	-0.759733	0.104923	170.016956	-78.067334	-148.560229
31775		9.628251	0.313900	-1.986338	-0.002792	-0.043692	0.023235	0.025518	-0.030586	-0.020726	-0.983887	-0.234131	-0.260498	0.096286	0.003132	-0.019848	0.622091	0.156974	-0.759836	0.104934	170.035299	-78.047145	-148.572050
31776		9.645089	0.358973	-1.961524	-0.048263	-0.013350	0.036255	0.033177	-0.025409	-0.018985	-0.983887	-0.234131	-0.253906	0.096454	0.003584	-0.019602	0.621956	0.157063	-0.759918	0.105004	170.064507	-78.030000	-148.587706
31777		9.640539	0.436626	-1.974782	-0.067025	0.063062	0.037284	0.029105	-0.027395	-0.020298	-0.986084	-0.234131	-0.253906	0.096409	0.004359	-0.019734	0.621823	0.157140	-0.760006	0.105038	170.084349	-78.011918	-148.598013
31778		9.679373	0.412690	-2.005388	-0.040099	0.046717	0.080662	0.018688	-0.022798	-0.017091	-0.981689	-0.231934	-0.251709	0.096796	0.004121	-0.020042	0.621709	0.157176	-0.760090	0.105060	170.108961	-77.996430	-148.617462
31779		9.684184	0.462040	-2.001114	-0.066042	0.089697	0.086250	0.017562	-0.027241	-0.017163	-0.981689	-0.234131	-0.253906	0.096845	0.004614	-0.019998	0.621578	0.157209	-0.760189	0.105069	170.133282	-77.978203	-148.637989
31780		9.717555	0.390176	-2.038810	-0.014241	0.031729	0.124045	0.007594	-0.030166	-0.018081	-0.984131	-0.229736	-0.253906	0.097179	0.003894	-0.020373	0.621444	0.157218	-0.760300	0.105040	170.152188	-77.958455	-148.658107
31781		9.702500	0.340241	-2.015538	-0.017628	-0.022796	0.102747	0.009185	-0.033249	-0.022139	-0.979492	-0.234131	-0.253906	0.097029	0.003393	-0.020139	0.621303	0.157240	-0.760418	0.104987	170.159333	-77.936489	-148.667451
31782		9.662348	0.367496	-1.990713	-0.046616	-0.003635	0.059332	0.022677	-0.033433	-0.025810	-0.986084	-0.234131	-0.256104	0.096627	0.003665	-0.019891	0.621149	0.157327	-0.760526	0.104989	170.167870	-77.914139	-148.668133
31783		9.646800	0.349722	-2.018231	-0.015556	-0.010504	0.049156	0.025127	-0.034678	-0.025457	-0.981689	-0.234131	-0.251709	0.096472	0.003487	-0.020165	0.620994	0.157416	-0.760634	0.104987	170.174725	-77.891492	-148.667323
31784		9.630308	0.400208	-2.002645	-0.049213	0.031010	0.031610	0.032058	-0.036171	-0.024096	-0.984131	-0.227539	-0.249512	0.096307	0.003994	-0.020008	0.620822	0.157527	-0.760746	0.105028	170.194346	-77.867765	-148.673844
31785		9.628953	0.433762	-2.056800	-0.015892	0.079978	0.042700	0.020507	-0.036020	-0.020947	-0.986084	-0.234131	-0.253906	0.096294	0.004330	-0.020550	0.620658	0.157580	-0.760870	0.105020	170.213478	-77.844042	-148.688766
31786		9.634873	0.383070	-2.046503	-0.011605	0.027079	0.044535	0.021319	-0.040493	-0.021543	-0.986084	-0.234131	-0.253906	0.096353	0.003823	-0.020445	0.620476	0.157650	-0.761003	0.105025	170.235476	-77.818121	-148.704016
31787		9.690789	0.403224	-2.051226	-0.029014	0.039651	0.100894	0.025812	-0.040743	-0.020540	-0.981689	-0.231934	-0.251709	0.096912	0.004025	-0.020492	0.620295	0.157720	-0.761135	0.105031	170.258133	-77.792405	-148.719881
31788		9.676794	0.477348	-2.033017	-0.075062	0.102016	0.086066	0.020959	-0.044120	-0.018379	-0.983887	-0.234131	-0.247314	0.096773	0.004767	-0.020308	0.620098	0.157779	-0.761282	0.105041	170.289620	-77.764739	-148.745058
31789		9.760577	0.444498	-2.036036	-0.079531	0.061906	0.167379	0.016801	-0.034963	-0.018726	-0.979248	-0.236328	-0.247314	0.097610	0.004438	-0.020343	0.619941	0.157818	-0.761403	0.105032	170.311130	-77.742142	-148.763628
31790		9.766807	0.393815	-2.024614	-0.075291	0.009028	0.169242	0.006944	-0.018855	-0.019184	-0.979736	-0.227539	-0.247314	0.097670	0.003929	-0.020237	0.619851	0.157823	-0.761479	0.105006	170.321111	-77.728664	-148.775020
31791		9.719195	0.348581	-2.007595	-0.066954	-0.034419	0.117520	0.002595	-0.005421	-0.016877	-0.981689	-0.231934	-0.249512	0.097193	0.003478	-0.020073	0.619816	0.157798	-0.761517	0.104975	170.326538	-77.722845	-148.785021
31792		9.664150	0.387694	-2.054656	-0.029491	0.024134	0.074995	0.007011	-0.006129	-0.023753	-0.979492	-0.229736	-0.247314	0.096643	0.003866	-0.020543	0.619777	0.157814	-0.761549	0.104945	170.319047	-77.716115	-148.778493
31793		9.603797	0.378667	-2.108431	0.032853	0.040863	0.026979	0.010826	-0.006736	-0.018108	-0.981689	-0.234131	-0.249512	0.096039	0.003779	-0.021081	0.619732	0.157811	-0.761588	0.104931	170.325564	-77.709426	-148.786267
31794		9.661188	0.367082	-2.058876	-0.019135	0.005985	0.072244	0.008581	0.002397	-0.018981	-0.983887	-0.234131	-0.247314	0.096612	0.003663	-0.020590	0.619722	0.157810	-0.761597	0.104929	170.327579	-77.707970	-148.788549
31795		9.615768	0.377674	-2.088013	0.011280	0.030964	0.034360	0.011837	-0.003313	-0.019221	-0.986084	-0.231934	-0.249512	0.096158	0.003769	-0.020878	0.619690	0.157823	-0.761621	0.104929	170.330856	-77.703345	-148.790688
31796		9.652163	0.366521	-2.026065	-0.048445	-0.005449	0.056515	0.018475	-0.001539	-0.016394	-0.981689	-0.229736	-0.253906	0.096522	0.003659	-0.020260	0.619656	0.157844	-0.761638	0.104969	170.346974	-77.699915	-148.801603
31797		9.621473	0.396446	-2.031513	-0.049925	0.027681	0.028740	0.019916	-0.006203	-0.014929	-0.981689	-0.234131	-0.247314	0.096216	0.003959	-0.020312	0.619609	0.157846	-0.761674	0.104986	170.364363	-77.694065	-148.817355
31798		9.642989	0.365136	-1.994139	-0.077703	-0.016963	0.040781	0.014428	-0.009387	-0.014818	-0.983887	-0.231934	-0.247314	0.096431	0.003646	-0.019937	0.619547	0.157853	-0.761719	0.105010	170.385662	-77.686351	-148.835951
31799		9.656761	0.417923	-2.021853	-0.076230	0.040250	0.061934	0.013425	-0.012812	-0.013705	-0.979492	-0.231934	-0.247314	0.096569	0.004174	-0.020212	0.619474	0.157852	-0.761777	0.105024	170.408753	-77.676712	-148.857715
31800		9.695819	0.393919	-2.051346	-0.049463	0.023943	0.105432	0.004974	-0.013544	-0.014827	-0.984131	-0.229736	-0.247314	0.096960	0.003933	-0.020507	0.619404	0.157832	-0.761841	0.105008	170.426371	-77.666646	-148.878090
31801		9.722731	0.374203	-2.101390	-0.003113	0.020123	0.141555	0.004162	-0.009074	-0.014235	-0.984131	-0.229736	-0.249512	0.097229	0.003736	-0.021009	0.619353	0.157795	-0.761894	0.104980	170.440438	-77.658956	-148.897407
31802		9.677922	0.352953	-2.080493	-0.007186	-0.002488	0.092622	0.005212	-0.005098	-0.022052	-0.979492	-0.231934	-0.245117	0.096780	0.003519	-0.020802	0.619319	0.157799	-0.761925	0.104949	170.435821	-77.652972	-148.894883
31803		9.651259	0.344114	-1.981745	-0.090053	-0.043650	0.045432	0.018748	-0.011119	-0.022878	-0.981689	-0.231934	-0.242920	0.096514	0.003432	-0.019812	0.619253	0.157841	-0.761969	0.104948	170.436627	-77.643348	-148.892118
31804		9.586363	0.411100	-2.046943	-0.045226	0.048196	-0.001828	0.017859	-0.013523	-0.020588	-0.981934	-0.229736	-0.245117	0.095865	0.004103	-0.020463	0.619176	0.157883	-0.762021	0.104964	170.446688	-77.632743	-148.897205
31805		9.579792	0.433099	-2.011866	-0.085980	0.056255	-0.014880	0.006805	-0.014595	-0.016533	-0.981689	-0.231934	-0.249512	0.095800	0.004324	-0.020112	0.619099	0.157873	-0.762089	0.104943	170.460884	-77.621436	-148.913721
31806		9.610019	0.405659	-2.008375	-0.086528	0.025800	0.012913	-0.005660	-0.016856	-0.011066	-0.983887	-0.231934	-0.242920	0.096102	0.004051	-0.020076	0.619023	0.157807	-0.762171	0.104896	170.483376	-77.609850	-148.945334
31807		9.627234	0.413864	-2.076244	-0.032972	0.055414	0.044368	-0.015085	-0.014694	-0.006066	-0.979492	-0.231934	-0.242920	0.096274	0.004134	-0.020756	0.618961	0.157686	-0.762256	0.104820	170.510087	-77.599828	-148.988161
31808		9.577249	0.343408	-2.062274	-0.012281	-0.009001	-0.009913	-0.016463	-0.009561	0.000348	-0.981689	-0.234131	-0.247314	0.095773	0.003433	-0.020618	0.618915	0.157540	-0.762330	0.104772	170.552489	-77.593432	-149.046500
31809		9.574542	0.319427	-2.066124	-0.000909	-0.028550	-0.012589	-0.014503	-0.003262	0.004822	-0.979492	-0.231934	-0.245117	0.095746	0.003195	-0.020660	0.618890	0.157384	-0.762386	0.104750	170.602872	-77.591049	-149.111629
31810		9.562432	0.322826	-2.086526	0.017649	-0.014616	-0.019966	-0.037063	0.008449	0.022065	-0.983887	-0.231934	-0.245117	0.095623	0.003235	-0.020870	0.618918	0.157081	-0.762432	0.104706	170.681587	-77.596835	-149.219236
31811		9.549496	0.393707	-2.063198	-0.028130	0.047762	-0.035081	-0.098377	0.006398	0.045406	-0.981689	-0.234131	-0.249512	0.095493	0.003949	-0.020637	0.618974	0.156503	-0.762534	0.104495	170.784421	-77.603537	-149.387640
31812		9.516623	0.395767	-2.070523	-0.017235	0.060092	-0.065591	-0.165602	0.002346	0.067951	-0.984131	-0.227539	-0.247314	0.095165	0.003973	-0.020710	0.619054	0.155631	-0.762702	0.104098	170.910346	-77.609969	-149.618983
31813		9.550176	0.387508	-2.061220	-0.030069	0.050445	-0.035100	-0.223749	0.003622	0.089586	-0.979492	-0.231934	-0.251709	0.095500	0.003895	-0.020618	0.619177	0.154493	-0.762910	0.103537	171.054675	-77.619235	-149.904438
31814		9.496880	0.511442	-2.202986	0.064427	0.224735	-0.053036	-0.504591	0.002529	0.110194	-0.988525	-0.231934	-0.258301	0.094966	0.005111	-0.022044	0.619495	0.152409	-0.763281	0.101976	171.095711	-77.629328	-150.247705
31815		9.646102	1.057729	-2.253061	-0.103083	0.732823	0.121832	-0.939357	0.053602	0.064148	-0.979248	-0.236328	-0.260498	0.096452	0.010502	-0.022606	0.620366	0.149129	-0.763660	0.098641	170.740641	-77.665638	-150.441363
31816		9.639398	0.529129	-1.948362	-0.177658	0.131368	0.033389	-0.790309	0.133486	0.045533	-0.988525	-0.229736	-0.267090	0.096380	0.005236	-0.019569	0.621415	0.146337	-0.763698	0.095886	170.395707	-77.744331	-150.557041
31817		9.764348	0.644493	-1.919109	-0.248376	0.218534	0.153825	-0.543679	0.156456	0.088384	-0.988525	-0.229736	-0.262695	0.097626	0.006436	-0.019285	0.622362	0.144155	-0.763549	0.094222	170.282469	-77.842609	-150.763693
31818		10.072708	0.800964	-1.723576	-0.522546	0.281647	0.420557	-0.392256	0.151935	0.147891	-0.988281	-0.234131	-0.269287	0.100708	0.008050	-0.017328	0.623131	0.142198	-0.763400	0.093316	170.427290	-77.941641	-151.146930
31819		10.131682	0.716987	-1.754903	-0.463070	0.225253	0.481948	-0.366126	0.154385	0.211890	-0.988281	-0.231934	-0.275879	0.101296	0.007245	-0.017640	0.623871	0.140115	-0.763252	0.092734	170.754217	-78.049805	-151.695988
31820		10.046847	0.584153	-1.742462	-0.405748	0.129982	0.391966	-0.323926	0.146842	0.289634	-0.986328	-0.229736	-0.275879	0.100447	0.005959	-0.017508	0.624500	0.137831	-0.763178	0.092527	171.333643	-78.157628	-152.483054
31821		9.897620	0.782816	-1.897338	-0.291954	0.412109	0.282876	-0.322641	0.146815	0.350024	-0.993164	-0.223145	-0.280273	0.098948	0.007971	-0.019059	0.625117	0.135370	-0.763112	0.092540	172.080231	-78.271878	-153.433640
31822		9.785879	0.858037	-1.842200	-0.341341	0.514149	0.162900	-0.330898	0.148419	0.427785	-0.995605	-0.218750	-0.273682	0.097826	0.008759	-0.018509	0.625685	0.132535	-0.763120	0.092738	173.064045	-78.386471	-154.637057
31823		9.796540	0.977032	-1.871326	-0.349324	0.680141	0.179502	-0.352973	0.151586	0.513940	-0.991211	-0.216309	-0.280273	0.097926	0.009989	-0.018805	0.626247	0.129347	-0.763156	0.093152	174.289627	-78.506083	-156.093404
31824		9.818609	0.847192	-1.825897	-0.352474	0.593941	0.186286	-0.370258	0.148762	0.589160	-1.000488	-0.209961	-0.282715	0.098147	0.008727	-0.018348	0.626753	0.125770	-0.763271	0.093703	175.753913	-78.618394	-157.809028
31825		9.802973	0.804390	-1.849485	-0.313691	0.620377	0.171417	-0.407787	0.145644	0.661879	-1.000732	-0.205566	-0.284912	0.097989	0.008330	-0.018583	0.627240	0.121860	-0.763421	0.094379	177.429200	-78.724836	-159.752490
31826		9.757191	0.609443	-1.869815	-0.228627	0.507330	0.125140	-0.444612	0.140463	0.711670	-1.000732	-0.200928	-0.291504	0.097536	0.006400	-0.018781	0.627683	0.117582	-0.763649	0.095022	179.266822	-78.814495	-161.890917
31827		9.711856	0.086800	-1.671438	-0.253918	0.020127	0.039019	-0.454962	0.142084	0.758656	-1.010010	-0.192383	-0.291504	0.097103	0.001198	-0.016786	0.628116	0.113161	-0.763861	0.095821	-178.741303	-78.894046	-164.182224
31828		9.747366	-0.141847	-1.638234	-0.232127	-0.139666	0.068673	-0.423637	0.142271	0.781014	-1.010254	-0.187744	-0.295898	0.097467	-0.001073	-0.016449	0.628495	0.108679	-0.764082	0.096759	-176.632033	-78.954123	-166.584063
31829		9.756659	-0.010052	-1.972587	0.033977	0.152738	0.140136	-0.386962	0.124648	0.789601	-1.008301	-0.181152	-0.295898	0.097554	0.000246	-0.019787	0.628776	0.104341	-0.764311	0.097890	-174.465119	-78.988398	-169.015290
31830		9.704959	-0.099955	-2.053635	0.136202	0.162387	0.105393	-0.365682	0.120352	0.788198	-1.015381	-0.170166	-0.298340	0.097040	-0.000655	-0.020593	0.629010	0.100020	-0.764546	0.099057	-172.277086	-79.000628	-171.462958
31831		9.607153	-0.500036	-2.184460	0.379197	-0.112441	0.044414	-0.314946	0.122594	0.783395	-1.017822	-0.165771	-0.302734	0.096077	-0.004658	-0.021896	0.629218	0.095903	-0.764724	0.100418	-170.075257	-78.997190	-173.891267
31832		9.533843	-0.856759	-1.970906	0.278876	-0.442425	-0.053653	-0.247382	0.136241	0.769085	-1.013672	-0.156738	-0.304932	0.095357	-0.008225	-0.019764	0.629442	0.092016	-0.764811	0.101980	-167.868820	-78.984571	-176.288663
31833		9.529931	-1.136907	-2.033284	0.404145	-0.625998	-0.030520	-0.197126	0.136648	0.736085	-1.027344	-0.152588	-0.304932	0.095326	-0.011038	-0.020387	0.629648	0.088433	-0.764841	0.103640	-165.739507	-78.959388	-178.575653
31834		9.396066	-0.912079	-1.940026	0.272935	-0.368626	-0.186112	-0.172407	0.124617	0.684260	-1.025391	-0.145996	-0.309570	0.093979	-0.008816	-0.019451	0.629817	0.085109	-0.764864	0.105214	-163.761332	-78.919458	179.302881
31835		9.354908	-0.916702	-1.805151	0.145487	-0.348615	-0.248680	-0.144175	0.093003	0.642228	-1.025635	-0.139160	-0.307373	0.093569	-0.008880	-0.018089	0.629868	0.082046	-0.764945	0.106738	-161.932490	-78.856009	177.348430
31836		9.410130	-0.945340	-1.646624	-0.017984	-0.360913	-0.219734	-0.122323	0.071182	0.598682	-1.028076	-0.135010	-0.307373	0.094123	-0.009182	-0.016494	0.629842	0.079233	-0.765057	0.108209	-160.251012	-78.777112	175.557757
31837		9.560437	-1.013831	-1.613153	-0.071693	-0.380177	-0.071939	-0.129793	0.063629	0.551122	-1.028320	-0.128174	-0.311768	0.095627	-0.009885	-0.016155	0.629812	0.076578	-0.765170	0.109488	-158.737110	-78.694276	173.931908
31838		9.699162	-1.152912	-1.688408	-0.001984	-0.442251	0.089732	-0.134228	0.059289	0.496451	-1.028320	-0.123779	-0.313965	0.097015	-0.011300	-0.016905	0.629790	0.074124	-0.765272	0.110585	-157.395015	-78.612719	172.479406
31839		9.705875	-0.962257	-1.806255	0.051311	-0.182825	0.104788	-0.147249	0.056096	0.447476	-1.037354	-0.126221	-0.313965	0.097075	-0.009419	-0.018083	0.629785	0.071814	-0.765369	0.111468	-156.213402	-78.534501	171.181594
31840		9.738103	-1.203632	-1.752072	0.045813	-0.388437	0.147034	-0.126669	0.047204	0.410542	-1.033203	-0.117188	-0.318359	0.097401	-0.011848	-0.017536	0.629754	0.069718	-0.765464	0.112317	-155.139462	-78.455067	170.006350
31841		9.739814	-1.216933	-1.743041	0.032470	-0.366062	0.149639	-0.095235	0.047263	0.375587	-1.035400	-0.117188	-0.322754	0.097417	-0.011995	-0.017448	0.629730	0.067852	-0.765525	0.113169	-154.152831	-78.380288	168.937383
31842		9.730207	-0.986862	-1.751473	-0.020634	-0.107077	0.122428	-0.059617	0.049937	0.343360	-1.033691	-0.104004	-0.312012	0.097314	-0.009707	-0.017536	0.629719	0.066222	-0.765544	0.114064	-153.233552	-78.311254	167.958655
31843		9.779920	-0.550970	-1.798713	-0.097832	0.360026	0.139524	-0.058197	0.034942	0.306874	-1.038086	-0.106201	-0.320801	0.097804	-0.005365	-0.018003	0.629670	0.064742	-0.765595	0.114837	-152.434695	-78.241418	167.102682
31844		9.849207	-0.961505	-1.892762	0.072447	0.020276	0.262441	-0.061313	0.033386	0.281484	-1.038330	-0.101807	-0.318604	0.098502	-0.009482	-0.018941	0.629628	0.063353	-0.765643	0.115524	-151.708948	-78.175045	166.320177
31845		9.762371	-0.977157	-1.842693	0.040966	0.015004	0.169912	-0.032812	0.030999	0.257047	-1.031738	-0.099365	-0.318604	0.097633	-0.009649	-0.018440	0.629582	0.062146	-0.765672	0.116235	-151.038577	-78.112505	165.609882
31846		9.712000	-0.466581	-1.840497	-0.079105	0.528098	0.068755	-0.033296	0.014820	0.208363	-1.036133	-0.101807	-0.314209	0.097123	-0.004568	-0.018411	0.629500	0.061135	-0.765736	0.116794	-150.510231	-78.053701	165.045171
31847		9.940146	-1.183419	-1.881882	0.082666	-0.122952	0.371933	-0.096026	0.015613	0.162092	-1.040771	-0.095215	-0.322998	0.099410	-0.011763	-0.018821	0.629468	0.060101	-0.765819	0.116958	-150.132114	-78.007782	164.596220
31848		9.958790	-1.570541	-1.863566	0.150876	-0.485812	0.427341	-0.102518	0.037145	0.136598	-1.045166	-0.097412	-0.316406	0.099595	-0.015647	-0.018646	0.629533	0.059134	-0.765829	0.117032	-149.788925	-77.978984	164.180072
31849		9.883800	-1.067960	-2.055529	0.228391	0.056470	0.336199	-0.096674	0.060442	0.113953	-1.036377	-0.092773	-0.316406	0.098838	-0.010633	-0.020580	0.629700	0.058256	-0.765756	0.117056	-149.466458	-77.968035	163.787657
31850		9.889787	-1.067970	-1.990919	0.168106	0.052411	0.330349	-0.086101	0.076865	0.110527	-1.040771	-0.097412	-0.322998	0.098896	-0.010634	-0.019943	0.629927	0.057417	-0.765623	0.117122	-149.122127	-77.965428	163.379917
31851		9.840451	-0.984015	-1.891614	0.067855	0.118461	0.255198	-0.086876	0.097522	0.123052	-1.033936	-0.094971	-0.322998	0.098401	-0.009788	-0.018960	0.630226	0.056514	-0.765428	0.117223	-148.722551	-77.968976	162.914378
31852		9.666768	-0.525520	-2.099278	0.199054	0.617611	0.072071	-0.114929	0.128199	0.146247	-1.038818	-0.088379	-0.320801	0.096658	-0.005197	-0.021052	0.630635	0.055417	-0.765159	0.117306	-148.240616	-77.979538	162.349070
31853		9.737580	-0.551286	-2.009948	0.114738	0.592036	0.127161	-0.134429	0.152527	0.175358	-1.038818	-0.090576	-0.320801	0.097365	-0.005441	-0.020170	0.631126	0.054131	-0.764831	0.117404	-147.669667	-77.992275	161.680375
31854		9.755096	-0.705882	-1.884465	0.037180	0.433577	0.138291	-0.147047	0.169515	0.217425	-1.043457	-0.086182	-0.322998	0.097543	-0.006967	-0.018922	0.631658	0.052636	-0.764466	0.117599	-146.982706	-77.998369	160.886687
31855		9.677118	-0.843889	-1.935094	0.141671	0.332378	0.085431	-0.140756	0.170314	0.263527	-1.041016	-0.086182	-0.329590	0.096766	-0.008325	-0.019427	0.632163	0.050981	-0.764106	0.117954	-146.189420	-77.988492	159.986828
31856		9.668527	-0.611016	-1.895621	0.061850	0.577278	0.041751	-0.113892	0.185404	0.312582	-1.041260	-0.079590	-0.329590	0.096677	-0.005970	-0.019042	0.632687	0.049218	-0.763691	0.118580	-145.248523	-77.966766	158.952878
31857		9.685310	-0.641116	-1.798962	-0.018000	0.560748	0.043156	-0.085469	0.182472	0.352703	-1.041504	-0.075195	-0.333984	0.096848	-0.006248	-0.018075	0.633167	0.047389	-0.763276	0.119429	-144.215110	-77.927049	157.839570
31858		9.705965	-0.582419	-1.665910	-0.154555	0.626485	0.031281	-0.062911	0.179066	0.398741	-1.041748	-0.070801	-0.329834	0.097056	-0.005636	-0.016744	0.633597	0.045462	-0.762865	0.120519	-143.080960	-77.865367	156.637534
31859		9.649344	-0.038077	-1.699785	-0.226710	1.197620	-0.090818	-0.078773	0.136583	0.404668	-1.050781	-0.068604	-0.332031	0.096482	-0.000192	-0.017064	0.633864	0.043483	-0.762596	0.121545	-142.027942	-77.777912	155.507382
31860		9.766801	-1.217098	-1.584737	-0.097481	0.080763	0.155611	-0.112752	0.117343	0.391659	-1.048584	-0.066406	-0.332031	0.097682	-0.011989	-0.015898	0.634067	0.041462	-0.762401	0.122408	-141.065686	-77.681858	154.451279
31861		9.757687	-1.768043	-1.239044	-0.306997	-0.495508	0.163974	-0.094223	0.106503	0.395655	-1.048584	-0.064209	-0.336426	0.097605	-0.017493	-0.012434	0.634222	0.039485	-0.762228	0.123337	-140.121983	-77.576313	153.422950
31862		9.656153	-1.546427	-1.480042	-0.105768	-0.194747	0.075388	-0.066305	0.111571	0.366167	-1.051514	-0.050781	-0.336426	0.096581	-0.015292	-0.014849	0.634404	0.037711	-0.762011	0.124294	-139.225100	-77.479905	152.460237
31863		9.529746	-1.648734	-1.469821	-0.068390	-0.271740	-0.034337	-0.046993	0.123419	0.355738	-1.049072	-0.055176	-0.336426	0.095318	-0.016321	-0.014753	0.634634	0.036026	-0.761740	0.125279	-138.334070	-77.389789	151.512967
31864		9.516313	-1.471027	-1.538061	-0.036953	-0.049127	-0.061488	-0.066605	0.120478	0.352066	-1.053711	-0.048584	-0.336426	0.095180	-0.014548	-0.015433	0.634853	0.034299	-0.761486	0.126191	-137.476707	-77.296215	150.589888
31865		9.575741	-1.351290	-1.664334	0.049378	0.138335	-0.001004	-0.090282	0.134162	0.353328	-1.055908	-0.051025	-0.343018	0.095770	-0.013351	-0.016702	0.635128	0.032479	-0.761201	0.127006	-136.622478	-77.205360	149.654309
31866		9.711125	-1.575805	-1.597393	0.009501	-0.042894	0.154195	-0.119878	0.142255	0.358414	-1.058350	-0.046631	-0.345215	0.097128	-0.015594	-0.016034	0.635430	0.030545	-0.760907	0.127737	-135.772215	-77.112287	148.706533
31867		9.802370	-1.632581	-1.610070	0.019061	-0.046850	0.254161	-0.094739	0.142753	0.369659	-1.051758	-0.041992	-0.347412	0.098042	-0.016152	-0.016163	0.635722	0.028642	-0.760594	0.128587	-134.902457	-77.012236	147.751698
31868		9.830434	-1.473432	-1.756657	0.125002	0.184740	0.279111	-0.011401	0.148120	0.396442	-1.058594	-0.039795	-0.341064	0.098320	-0.014540	-0.017639	0.636000	0.026904	-0.760210	0.129851	-133.941613	-76.899472	146.753438
31869		9.849401	-1.133575	-1.612899	-0.082423	0.527313	0.217871	0.070770	0.149897	0.443356	-1.054443	-0.033203	-0.341064	0.098507	-0.011112	-0.016207	0.636242	0.025243	-0.759769	0.131565	-132.872058	-76.764421	145.689903
31870		9.806436	-0.813646	-1.533162	-0.213713	0.863383	0.106357	0.120368	0.134970	0.504085	-1.059082	-0.024414	-0.343262	0.098074	-0.007880	-0.015403	0.636375	0.023524	-0.759346	0.133669	-131.723234	-76.592690	144.574919
31871		9.883883	-0.309192	-1.511215	-0.353319	1.411264	0.084471	0.106341	0.109460	0.560768	-1.059082	-0.026611	-0.345459	0.098839	-0.002807	-0.015168	0.636372	0.021556	-0.759014	0.135882	-130.572324	-76.382360	143.446940
31872		10.097484	-0.619560	-1.535259	-0.311309	1.209403	0.343107	0.034848	0.070477	0.607931	-1.062012	-0.008789	-0.345459	0.100988	-0.005886	-0.015389	0.636189	0.019213	-0.758852	0.137983	-129.494801	-76.131286	142.352939
31873		10.388057	-1.256267	-1.393971	-0.380890	0.673919	0.715058	0.010516	0.053302	0.669633	-1.062012	-0.006592	-0.347656	0.103918	-0.012214	-0.013968	0.635896	0.016563	-0.758759	0.140166	-128.416234	-75.842429	141.240099
31874		10.500731	-1.275808	-1.446316	-0.361113	0.759738	0.830467	0.046422	0.033483	0.737564	-1.062500	0.000000	-0.343506	0.105051	-0.012367	-0.014484	0.635465	0.013791	-0.758700	0.142716	-127.301946	-75.510019	140.112224
31875		10.658392	-1.832698	-1.410869	-0.327786	0.326498	1.083916	0.116174	0.037712	0.801078	-1.067139	0.008789	-0.341309	0.106654	-0.017892	-0.014139	0.634995	0.010988	-0.758571	0.145712	-126.113085	-75.145181	138.944461
31876		10.569057	-1.830587	-1.529204	-0.210555	0.433814	1.011416	0.199003	0.081564	0.851890	-1.062988	0.017822	-0.343506	0.105761	-0.017840	-0.015353	0.634633	0.008231	-0.758229	0.149201	-124.794072	-74.763967	137.691392
31877		10.474109	-1.346048	-2.191829	0.338338	1.136289	0.907220	0.268695	0.146752	0.899504	-1.070068	0.026367	-0.345703	0.104784	-0.012960	-0.022013	0.634471	0.005458	-0.757616	0.153086	-123.336069	-74.374210	136.330824
31878		10.635823	-2.030944	-2.269018	0.521898	0.642327	1.219439	0.378938	0.272898	0.949204	-1.063721	0.035400	-0.348145	0.106422	-0.019761	-0.022873	0.634725	0.002758	-0.756498	0.157565	-121.615332	-73.988426	134.762699
31879		10.623286	-1.663967	-1.810101	0.023224	0.998314	1.045535	0.470990	0.374090	1.004576	-1.073242	0.050781	-0.354736	0.106280	-0.016063	-0.018338	0.635301	0.000051	-0.754965	0.162542	-119.698763	-73.592568	133.039769
31880		10.771784	-1.564492	-1.892197	0.075893	1.273609	1.161371	0.501376	0.467970	1.071394	-1.073975	0.064209	-0.354736	0.107755	-0.015020	-0.019212	0.636149	-0.002878	-0.753079	0.167862	-117.632271	-73.171399	131.177661
31881		10.464826	-1.511441	-1.351334	-0.366507	1.261681	0.765365	0.485002	0.540380	1.193551	-1.074219	0.072998	-0.352783	0.104699	-0.014456	-0.013832	0.637143	-0.006390	-0.750942	0.173475	-115.457421	-72.687932	129.184863
31882		10.597620	-1.074596	-1.789748	-0.033341	1.963518	0.808464	0.455610	0.567527	1.301637	-1.076904	0.086182	-0.354980	0.105992	-0.010015	-0.018222	0.638106	-0.010415	-0.748699	0.179338	-113.290182	-72.131443	127.179824
31883		11.403337	-1.206899	-1.526707	-0.376994	2.136330	1.550179	0.475995	0.573186	1.402736	-1.075439	0.106445	-0.368408	0.114070	-0.011232	-0.015621	0.638967	-0.014769	-0.746372	0.185558	-111.169609	-71.501734	125.225913
31884		11.922765	-1.686946	-2.134701	0.244698	2.169615	2.219957	0.496921	0.581695	1.478577	-1.084961	0.121826	-0.375000	0.119285	-0.015934	-0.021734	0.639743	-0.019335	-0.743940	0.192116	-109.115072	-70.809665	123.350482
31885		13.036766	-2.261651	-2.147064	0.212917	2.161409	3.414579	0.584496	0.596399	1.558807	-1.081055	0.135254	-0.377197	0.130473	-0.021536	-0.021924	0.640465	-0.023945	-0.741316	0.199205	-107.091689	-70.057189	121.548851
31886		13.562487	-2.385745	-1.266712	-0.659200	2.207963	3.822646	0.723881	0.647567	1.630739	-1.075195	0.159668	-0.375244	0.135771	-0.022704	-0.013190	0.641259	-0.028410	-0.738315	0.207052	-105.022745	-69.250383	119.779172
31887		13.870134	-2.031966	-1.472223	-0.549588	2.939159	3.961561	0.813532	0.710560	1.707393	-1.073486	0.170898	-0.379639	0.138814	-0.019073	-0.015295	0.642167	-0.032949	-0.734939	0.215407	-102.935506	-68.390016	118.030233
31888		14.095557	-1.675279	-1.795359	-0.312177	3.699009	4.004956	0.843803	0.747026	1.798210	-1.074219	0.190918	-0.390869	0.141030	-0.015408	-0.018547	0.643037	-0.037745	-0.731316	0.224176	-100.901137	-67.458787	116.351169
31889		14.288702	-1.553210	-1.779562	-0.339894	4.161579	4.054675	0.852421	0.789595	1.914106	-1.072998	0.215332	-0.399658	0.142955	-0.014087	-0.018422	0.643870	-0.042998	-0.727441	0.233265	-98.931632	-66.447502	114.730107
31890		14.630150	-1.307713	-1.866002	-0.324389	4.840592	4.176127	0.903054	0.830641	2.052204	-1.075928	0.235107	-0.399902	0.146345	-0.011489	-0.019322	0.644602	-0.048615	-0.723243	0.242991	-97.004657	-65.337534	113.180323
31891		14.905606	-0.724123	-1.964888	-0.371516	5.819846	4.063265	0.970938	0.851491	2.199501	-1.063477	0.262207	-0.408691	0.149037	-0.005505	-0.020313	0.645165	-0.054585	-0.718752	0.253335	-95.149694	-64.127948	111.731268
31892		15.144529	-0.083596	-2.149684	-0.354955	6.876907	3.845776	1.015041	0.878383	2.350087	-1.064209	0.281982	-0.413330	0.151344	0.001054	-0.022160	0.645517	-0.060955	-0.713947	0.264331	-93.371608	-62.811214	110.388306
31893		16.048126	1.061415	-2.219343	-0.691334	8.630774	3.920830	0.991554	0.918049	2.505569	-1.060791	0.311035	-0.417725	0.160227	0.012735	-0.022870	0.645696	-0.068026	-0.708866	0.275606	-91.703808	-61.393330	109.128844
31894		16.900543	1.871137	-2.580766	-0.662272	10.198470	4.019217	0.846737	0.979239	2.662349	-1.055420	0.342285	-0.426758	0.168607	0.021069	-0.026548	0.645667	-0.076160	-0.703576	0.286870	-90.186991	-59.866184	107.939242
31895		17.316405	2.083858	-3.530488	0.154361	11.274049	3.953653	0.775466	1.022267	2.785415	-1.038086	0.364746	-0.431152	0.172667	0.023385	-0.036101	0.645471	-0.085038	-0.698049	0.298099	-88.802723	-58.259735	106.824966
31896		17.142341	2.567128	-4.798386	1.282189	12.384434	3.165324	0.884956	1.006806	2.908385	-1.037109	0.395996	-0.446777	0.170780	0.028372	-0.048723	0.644893	-0.093912	-0.692176	0.310140	-87.488227	-56.564531	105.860661
31897		17.289565	3.468949	-5.117573	1.322460	13.684883	2.356781	1.118054	0.950866	3.024811	-1.026855	0.422852	-0.451416	0.172097	0.037585	-0.051791	0.643922	-0.102370	-0.685889	0.323174	-86.204719	-54.800644	105.059674
31898		18.320406	4.502594	-4.596820	0.355500	15.305807	2.129232	1.307191	0.914153	3.160216	-1.017090	0.456299	-0.460205	0.182247	0.048214	-0.046495	0.642465	-0.110547	-0.679129	0.337346	-84.941994	-52.944118	104.417355
31899		19.020789	5.088655	-3.763396	-0.763740	16.304238	1.823161	1.456006	0.887110	3.325533	-1.006836	0.485352	-0.473633	0.189155	0.054314	-0.038087	0.640572	-0.118782	-0.671900	0.352290	-83.716635	-50.996743	103.893025
31900		19.466624	5.175426	-2.291112	-2.337103	16.581342	1.612465	1.629038	0.877035	3.482416	-0.992676	0.523438	-0.478271	0.193622	0.055321	-0.023321	0.638170	-0.126870	-0.664044	0.368360	-82.484771	-48.944919	103.496610
31901		19.932835	4.196510	-0.691734	-3.710258	16.098449	2.121820	1.730651	0.939409	3.640326	-0.971436	0.557129	-0.482666	0.198486	0.045646	-0.007467	0.635579	-0.135289	-0.655445	0.384875	-81.245490	-46.805549	103.128873
31902		21.165510	5.664650	0.362970	-5.439761	17.975648	1.475736	1.786599	1.128461	3.701030	-0.954834	0.593018	-0.498291	0.210577	0.060522	0.002969	0.633158	-0.143963	-0.645789	0.401674	-79.933330	-44.597409	102.718726
31903		20.307113	4.500834	0.056937	-4.693729	17.156309	0.967750	1.259654	1.279991	3.663852	-0.936035	0.628906	-0.515869	0.202201	0.048719	-0.000428	0.630766	-0.154505	-0.636475	0.416127	-78.908347	-42.403483	102.238019
31904		19.265199	2.583375	0.641450	-4.450655	15.473455	1.093731	0.420917	1.379150	3.657301	-0.907959	0.660645	-0.520508	0.192175	0.029339	0.005147	0.627685	-0.167734	-0.628321	0.427889	-78.359058	-40.183084	101.763305
31905		17.344594	2.664654	-1.740267	-1.923240	15.246546	-1.165664	-0.347666	1.265116	3.568603	-0.889160	0.694336	-0.524902	0.172819	0.029702	-0.018547	0.623704	-0.182878	-0.622025	0.436616	-78.331748	-38.040919	101.357540
31906		14.758859	2.603234	-1.749977	-1.464524	13.500982	-3.238578	-0.912692	0.998630	3.386833	-0.867676	0.723633	-0.520752	0.147030	0.028443	-0.018361	0.618411	-0.198484	-0.617720	0.443389	-78.731843	-36.015136	101.144758
31907		9.725427	4.944381	-1.323301	-1.733906	10.758010	-8.387589	-0.973441	0.888207	2.948631	-0.855225	0.748291	-0.525146	0.096451	0.050803	-0.013908	0.613679	-0.212717	-0.614154	0.448290	-79.180290	-34.268304	100.901953
31908		8.624897	-3.044872	2.873269	-3.221697	4.728978	-2.120704	-1.744313	0.743477	2.478536	-0.844727	0.768311	-0.510010	0.086722	-0.029126	0.028669	0.608408	-0.227396	-0.613086	0.449729	-80.080006	-32.784401	100.711770
31909		8.630908	-4.314534	-4.135567	3.713432	6.204128	-2.201668	-1.490766	0.603987	2.403634	-0.818848	0.791016	-0.503418	0.086697	-0.042413	-0.041299	0.603217	-0.240812	-0.611822	0.451455	-80.876925	-31.378678	100.547367
31910		3.996983	5.850236	-3.775605	1.597889	7.106496	-13.188860	-2.118254	0.383752	1.119742	-0.816895	0.802002	-0.499023	0.039570	0.058320	-0.038451	0.599198	-0.251550	-0.614066	0.447893	-82.025201	-30.701086	100.410197
31911		2.951516	6.714887	-4.169686	2.127260	6.697983	-14.481224	-2.605577	0.396231	-0.192912	-0.814697	0.797607	-0.479248	0.029496	0.066569	-0.042625	0.597645	-0.259816	-0.618910	0.438482	-83.389461	-30.792314	100.099193
31912		3.451238	5.881470	-4.568364	2.803652	6.804132	-13.447446	-2.721839	0.265796	-0.899997	-0.827637	0.788330	-0.463867	0.034713	0.058029	-0.046523	0.596772	-0.265796	-0.625199	0.427015	-84.833778	-31.278943	99.865385
31913		3.319932	3.836671	-4.556921	3.335411	5.665218	-11.625001	-2.630909	0.175514	-1.365136	-0.834229	0.781494	-0.446289	0.033417	0.037535	-0.046096	0.596802	-0.269923	-0.632036	0.414125	-86.255575	-32.062013	99.641543
31914		2.411697	1.680607	-4.733921	4.059862	3.801887	-10.147102	-2.307187	0.124951	-1.716247	-0.842529	0.763428	-0.437500	0.024227	0.016051	-0.047542	0.597507	-0.271693	-0.638700	0.401537	-87.505394	-33.029130	99.497451
31915		2.480627	0.633992	-4.634793	4.140211	3.222307	-9.098240	-1.932116	0.142140	-2.136292	-0.859863	0.747559	-0.430908	0.024836	0.005626	-0.046422	0.599688	-0.271108	-0.644982	0.388425	-88.544142	-34.261096	99.313222
31916		3.328719	0.206148	-4.394221	3.868718	3.557380	-8.136971	-1.579847	0.158427	-2.658936	-0.879395	0.724854	-0.422119	0.033273	0.001272	-0.043981	0.603083	-0.267626	-0.651110	0.375131	-89.374018	-35.771679	99.172454
31917		4.140603	0.024356	-4.315810	3.734292	3.987603	-7.379000	-1.076898	0.183188	-3.178824	-0.907471	0.695557	-0.415283	0.041361	-0.000647	-0.043194	0.608232	-0.261046	-0.656730	0.361406	-89.918902	-37.604100	98.991430
31918		4.582595	0.723751	-3.957789	3.285780	4.593391	-7.512826	-0.588910	0.193977	-3.689823	-0.924316	0.666260	-0.413086	0.045909	0.006274	-0.039642	0.614598	-0.251109	-0.661914	0.347970	-90.176666	-39.707295	98.855139
31919		4.924331	2.095603	-3.563995	2.755275	5.568936	-8.159322	-0.210092	0.147710	-4.213409	-0.949707	0.628174	-0.421631	0.049643	0.019875	-0.035698	0.622124	-0.238233	-0.666964	0.333714	-90.246725	-42.133936	98.718816
31920		5.778573	2.896560	-3.234216	2.274027	6.596678	-7.929294	0.072548	0.091167	-4.718737	-0.977051	0.581055	-0.416992	0.058433	0.027604	-0.032359	0.630155	-0.222445	-0.672005	0.319112	-90.173260	-44.826739	98.664509
31921		6.525647	2.724562	-2.883493	1.885565	6.832341	-6.971035	0.258885	0.017225	-5.145144	-0.990723	0.529785	-0.418945	0.065927	0.025593	-0.028807	0.638597	-0.204525	-0.677043	0.303276	-90.037161	-47.787690	98.622188
31922		6.864434	2.081417	-2.746143	1.802116	6.395576	-5.961614	0.372790	-0.091554	-5.474075	-1.019775	0.469238	-0.420898	0.069193	0.018976	-0.027393	0.646673	-0.184679	-0.682126	0.287075	-89.891330	-50.913149	98.704259
31923		7.275739	1.434161	-2.816581	1.932392	5.929285	-4.911509	0.497110	-0.210438	-5.729490	-1.039795	0.402344	-0.420410	0.073159	0.012319	-0.028057	0.654452	-0.163391	-0.687120	0.269930	-89.770836	-54.210042	98.851896
31924		7.924151	0.896206	-2.879666	2.026908	5.579204	-3.760067	0.556296	-0.342553	-5.956179	-1.057373	0.337646	-0.411377	0.079512	0.006676	-0.028640	0.661424	-0.140666	-0.692063	0.252546	-89.730159	-57.612546	99.180899
31925		8.613827	0.491592	-3.180410	2.348113	5.271258	-2.654985	0.594578	-0.522746	-6.158498	-1.063965	0.273193	-0.408936	0.086320	0.002354	-0.031569	0.667555	-0.116908	-0.697074	0.234073	-89.900220	-61.156480	99.714830
31926		9.412138	0.549085	-3.464428	2.571523	5.294840	-1.675396	0.616547	-0.737084	-6.360844	-1.069824	0.193115	-0.408447	0.094361	0.002598	-0.034286	0.672401	-0.091855	-0.702189	0.215338	-90.405450	-64.788971	100.671930
31927		10.171730	0.917868	-3.819365	2.809343	5.471237	-0.810978	0.568788	-0.992133	-6.562629	-1.064697	0.122314	-0.399170	0.102135	0.005939	-0.037668	0.675914	-0.066038	-0.707589	0.195182	-91.580967	-68.553677	102.246700
31928		11.110805	1.178841	-4.093614	2.945717	5.485404	0.325498	0.481809	-1.255374	-6.750054	-1.050293	0.038086	-0.380859	0.111677	0.008123	-0.040214	0.677780	-0.039366	-0.713194	0.174410	-93.860716	-72.372602	104.951218
31929		12.324111	1.335089	-4.390207	3.082413	5.311770	1.813144	0.339447	-1.512949	-6.938637	-1.024902	-0.039063	-0.371582	0.123934	0.009132	-0.042948	0.678093	-0.012394	-0.719011	0.151854	-98.288281	-76.251500	109.689154
31930		13.922413	0.929431	-4.257150	2.846372	4.378161	3.805815	0.145900	-1.739357	-7.101851	-0.996582	-0.129639	-0.353271	0.139801	0.004367	-0.041353	0.676757	0.014857	-0.724781	0.128342	-107.103465	-80.002322	118.771065
31931		15.779034	0.211613	-3.971032	2.483874	2.834145	6.013633	-0.128666	-1.913277	-7.219283	-0.964844	-0.197754	-0.348389	0.158099	-0.003613	-0.038198	0.673984	0.041524	-0.730384	0.102766	-126.777081	-83.250008	138.509452
31932		17.803214	-0.433598	-3.516670	1.899482	1.010169	8.207466	-0.460202	-2.072171	-7.278341	-0.923828	-0.270264	-0.343506	0.178067	-0.010895	-0.033302	0.669744	0.067481	-0.735595	0.076087	-166.721374	-84.616794	178.387488
31933		19.845550	-1.854585	-2.718593	1.093499	-1.990528	10.170300	-0.915084	-2.167949	-7.306070	-0.867188	-0.340088	-0.340576	0.197877	-0.025900	-0.024931	0.664325	0.091779	-0.740296	0.047019	155.137692	-82.850564	-143.850957
31934		21.536436	-3.511351	-2.028645	0.421192	-5.445516	11.405097	-1.242584	-2.237650	-7.271929	-0.806396	-0.396729	-0.346680	0.214103	-0.043030	-0.017635	0.657813	0.114918	-0.744163	0.017234	136.860833	-79.420585	-126.091078
31935		22.800640	-4.153808	-1.812164	-0.013876	-7.948766	12.026717	-1.556889	-2.278147	-7.173674	-0.748535	-0.442139	-0.350586	0.226502	-0.049807	-0.015169	0.650294	0.136316	-0.747223	-0.013907	127.837284	-75.474889	-117.825671
31936		23.709074	-5.055115	-1.593234	-0.413303	-10.691453	11.992266	-1.789997	-2.245195	-7.008827	-0.699707	-0.480957	-0.363281	0.235278	-0.058943	-0.012781	0.642164	0.156319	-0.749117	-0.044876	122.574209	-71.456368	-113.414819
31937		24.859052	-6.012201	0.385154	-2.581145	-13.765641	11.584441	-1.721743	-1.928140	-6.747131	-0.654053	-0.502197	-0.380371	0.246319	-0.068408	0.006799	0.634263	0.175253	-0.749261	-0.074864	118.841955	-67.550588	-110.541763
31938		25.633537	-6.026275	1.420868	-3.903855	-15.595561	11.084771	-1.622616	-1.622427	-6.314318	-0.608154	-0.525635	-0.384521	0.254137	-0.068181	0.016808	0.626885	0.192947	-0.747875	-0.102325	116.053211	-63.919307	-108.510363
31939		26.375594	-6.912237	1.790030	-4.420018	-18.004799	10.255440	-1.803431	-1.308266	-5.741045	-0.577881	-0.549561	-0.390869	0.261503	-0.076475	0.020284	0.620396	0.207745	-0.745255	-0.128628	113.680105	-60.605761	-107.048871
31940		25.760487	-10.097682	1.083245	-3.347551	-21.495240	7.313683	-1.988017	-1.018103	-5.025280	-0.552490	-0.566650	-0.392822	0.254899	-0.107281	0.013180	0.615206	0.219463	-0.741664	-0.152615	111.591856	-57.732592	-105.950926
31941		22.421339	-14.647714	-1.336796	-0.125948	-24.276125	1.570533	-2.241806	-0.888891	-4.257545	-0.529541	-0.577148	-0.412598	0.221078	-0.151336	-0.010702	0.610839	0.227381	-0.737876	-0.175249	109.725063	-55.260480	-105.297935
31942		16.646724	-20.477136	-7.123168	6.713794	-26.259696	-6.292620	-2.598562	-1.129708	-3.555782	-0.510986	-0.594727	-0.418945	0.163170	-0.208586	-0.067610	0.606362	0.231408	-0.734846	-0.196919	108.170645	-53.132760	-105.224591
31943		13.603565	-27.633259	-8.077355	8.340787	-30.489996	-13.633874	-1.737648	-1.107650	-2.628491	-0.501465	-0.607666	-0.423096	0.132818	-0.278776	-0.077617	0.601549	0.234472	-0.733416	-0.212751	107.360636	-51.499498	-105.496332
31944		14.135186	-34.351569	-3.452608	4.053973	-35.996055	-18.733865	-0.001976	-0.696218	-1.217011	-0.499268	-0.607666	-0.412109	0.139377	-0.344368	-0.034035	0.597702	0.238076	-0.734090	-0.217217	107.573534	-50.724090	-105.778886
31945		16.679634	-32.264124	0.050539	0.110864	-35.741798	-16.269182	1.248618	-0.448162	0.499277	-0.517578	-0.601563	-0.399170	0.167602	-0.322220	-0.001132	0.595050	0.239313	-0.737415	-0.211810	108.697067	-50.915785	-106.332141
31946		19.817256	-26.935250	0.619771	-1.284255	-33.417015	-10.283829	1.565504	-0.210004	1.963981	-0.535889	-0.590820	-0.385986	0.200800	-0.267428	0.004309	0.594448	0.236382	-0.742016	-0.200417	110.208561	-51.946016	-107.125621
31947		19.929339	-24.046154	1.697780	-2.500093	-31.115694	-7.876088	1.431937	0.116754	3.180002	-0.570557	-0.569336	-0.379883	0.203093	-0.237365	0.015153	0.596270	0.228786	-0.746789	-0.185540	111.809770	-53.675745	-108.121215
31948		18.015492	-22.125847	2.725650	-3.299295	-28.374045	-7.477657	1.098794	0.244608	4.059421	-0.600342	-0.550049	-0.371094	0.184630	-0.217686	0.025830	0.599568	0.216974	-0.751584	-0.169003	113.530270	-55.884932	-109.463475
31949		17.298317	-18.176521	1.544503	-2.560954	-24.456385	-4.596549	0.594084	0.147246	4.808123	-0.642090	-0.521973	-0.371582	0.177297	-0.177582	0.014784	0.603369	0.200644	-0.756667	-0.152130	115.530237	-58.435368	-111.444357
31950		31.080273	-0.623503	-3.626708	-2.510340	-14.935589	17.572099	0.255370	-0.462303	5.235039	-0.678955	-0.496094	-0.376221	0.310906	0.001948	-0.035549	0.605140	0.181082	-0.763270	-0.135770	118.418730	-60.997580	-114.625683
31951		-5.126458	78.694632	0.442449	-7.739212	73.304606	18.212814	-0.626537	-0.466899	2.809676	-0.683838	-0.485107	-0.376221	-0.062319	0.786131	0.001824	0.605781	0.168043	-0.766740	-0.130002	119.958731	-62.283713	-116.783569
31952		10.446770	31.835049	-0.804570	-3.959792	24.716299	12.470477	-3.872354	0.142696	0.952406	-0.704102	-0.480957	-0.400635	0.102942	0.318607	-0.014287	0.610080	0.152615	-0.764463	-0.141803	118.121652	-62.808490	-117.220305
31953		18.040249	-0.864103	1.776520	-5.433385	-7.885369	5.602830	-2.253950	0.489935	2.043637	-0.716064	-0.463135	-0.418213	0.180520	-0.006599	0.017405	0.615033	0.138123	-0.762867	-0.143844	117.429929	-63.979822	-117.905701
31954		17.964291	-3.442976	3.656593	-7.158872	-9.715867	4.409337	-1.932454	0.461779	2.713433	-0.739014	-0.450195	-0.433838	0.180169	-0.031635	0.036465	0.619992	0.122036	-0.761844	-0.142516	117.350861	-65.490239	-119.049125
31955		20.531870	-12.708638	4.624666	-8.661493	-18.710115	3.578188	-1.246394	0.043411	2.914623	-0.758057	-0.419678	-0.434082	0.207149	-0.123785	0.046980	0.622907	0.106960	-0.762525	-0.138210	118.368100	-66.984412	-120.952376
31956		18.009234	-1.250357	2.319026	-5.935428	-6.790911	5.995704	-1.216219	-0.279581	2.717351	-0.776611	-0.404297	-0.434326	0.180206	-0.009913	0.023508	0.624297	0.092499	-0.763941	-0.134501	119.865684	-68.274921	-123.331648
31957		12.187940	-3.063094	-0.631823	-1.995583	-6.587611	0.720086	-1.455437	-0.474520	2.601263	-0.791016	-0.384766	-0.440918	0.122279	-0.029086	-0.005813	0.624833	0.077578	-0.765575	-0.132137	121.618918	-69.424708	-126.113121
31958		10.134064	-7.830699	-2.945299	0.337259	-10.559403	-1.998030	-0.899455	-0.555380	2.635284	-0.800781	-0.364990	-0.436768	0.102442	-0.077093	-0.028821	0.624729	0.064198	-0.767677	-0.127531	124.102887	-70.528247	-129.311508
31959		11.250865	-6.751330	-2.293422	-0.567688	-9.529021	-0.523516	0.081810	-0.222991	2.462515	-0.812744	-0.345215	-0.432617	0.113354	-0.066112	-0.022835	0.625368	0.054750	-0.769170	-0.119559	126.861363	-71.611175	-132.182993
31960		13.672642	-4.421094	-1.953734	-1.265660	-7.538258	2.510717	0.907362	-0.074475	2.369289	-0.826904	-0.325684	-0.423828	0.137244	-0.042498	-0.019682	0.626192	0.048318	-0.770547	-0.108653	130.128949	-72.654013	-135.075967
31961		11.139329	-1.528099	-3.279564	0.758787	-4.043626	1.152781	1.262775	-0.165704	2.225754	-0.838867	-0.308105	-0.419678	0.111580	-0.013833	-0.032794	0.626406	0.043506	-0.772239	-0.096802	133.923838	-73.545784	-138.288345
31962		9.125537	-1.166673	-4.278933	2.186982	-3.150270	-0.419407	1.360920	-0.155016	2.033534	-0.851074	-0.283936	-0.415527	0.091399	-0.010447	-0.042792	0.626439	0.039730	-0.773782	-0.085187	137.849599	-74.298716	-141.568416
31963		8.835131	-0.278546	-4.312224	2.326711	-2.003433	-0.469194	1.297324	-0.075162	1.904151	-0.853760	-0.275146	-0.404541	0.088387	-0.001664	-0.043102	0.626656	0.036299	-0.774910	-0.074157	141.764993	-74.976638	-144.859547
31964		9.287703	-0.574561	-4.954482	2.849681	-2.192248	0.097308	0.823154	-0.078173	1.854381	-0.863525	-0.257568	-0.400391	0.092943	-0.004680	-0.049529	0.626847	0.031554	-0.775773	-0.065150	145.630596	-75.573835	-148.374760
31965		10.557861	1.776978	-2.099677	-0.121955	0.354652	1.091001	0.416986	0.102692	1.870946	-0.868408	-0.244385	-0.400391	0.105395	0.018800	-0.021012	0.627752	0.025545	-0.775859	-0.057590	149.386028	-76.204503	-152.001774
31966		9.081945	1.039908	-1.884410	-0.025915	-0.017397	-0.479348	-0.069766	0.138362	1.675713	-0.875977	-0.226807	-0.400635	0.090715	0.011153	-0.018911	0.628744	0.018756	-0.775607	-0.052562	152.719211	-76.741415	-155.477167
31967		10.348980	-1.417714	-1.745331	-0.495165	-2.412839	0.487220	-0.036854	0.194408	1.627123	-0.883057	-0.213623	-0.400635	0.103584	-0.013338	-0.017551	0.629898	0.012289	-0.775126	-0.047512	156.183391	-77.247487	-159.055540
31968		10.752692	-0.881278	-0.785935	-1.469115	-1.687856	0.770559	0.053700	0.240504	1.575867	-0.888184	-0.200439	-0.407471	0.107582	-0.007963	-0.007991	0.631165	0.006300	-0.774468	-0.042305	159.797028	-77.715107	-162.731637
31969		10.521329	-1.037634	-1.250174	-0.943885	-1.692910	0.655311	0.133212	0.254939	1.476028	-0.902100	-0.185059	-0.405273	0.105270	-0.009591	-0.012642	0.632431	0.000968	-0.773729	-0.037060	163.466549	-78.122128	-166.407149
31970		10.281567	-1.075914	-1.497456	-0.622489	-1.581826	0.493574	0.198949	0.284743	1.407040	-0.902588	-0.178467	-0.400879	0.102866	-0.010021	-0.015131	0.633758	-0.003901	-0.772867	-0.031819	167.197384	-78.484085	-170.106662
31971		9.739769	-0.182719	-1.508696	-0.429406	-0.531123	0.021162	0.298404	0.279428	1.337500	-0.905273	-0.160889	-0.405518	0.097386	-0.001153	-0.015225	0.635027	-0.008169	-0.771996	-0.026367	171.025623	-78.786175	-173.837756
31972		9.636733	0.102385	-1.424710	-0.446372	-0.108797	-0.081582	0.365622	0.267757	1.266011	-0.912598	-0.147705	-0.403320	0.096339	0.001660	-0.014373	0.636209	-0.011966	-0.771140	-0.020926	174.862072	-79.025965	-177.539751
31973		9.790240	0.038631	-1.214629	-0.654578	-0.036311	0.030811	0.407717	0.236014	1.236360	-0.910645	-0.143066	-0.407715	0.097883	0.001016	-0.012260	0.637244	-0.015501	-0.770353	-0.015370	178.799839	-79.198352	178.687389
31974		9.982932	0.848877	-1.248324	-0.597252	0.899785	0.225746	0.399210	0.183509	1.222408	-0.920166	-0.130127	-0.407959	0.099763	0.009124	-0.012557	0.638042	-0.019029	-0.769702	-0.009930	-177.225130	-79.290712	174.868139
31975		9.587161	1.308125	-1.445314	-0.292854	1.469342	-0.144812	0.332356	0.119773	1.206622	-0.918457	-0.116699	-0.407959	0.095782	0.013683	-0.014488	0.638564	-0.022697	-0.769219	-0.004751	-173.296014	-79.298274	171.062136
31976		9.683055	0.740385	-1.240452	-0.521472	1.033172	-0.091171	0.229665	0.075897	1.201149	-0.920898	-0.110107	-0.407959	0.096779	0.007999	-0.012432	0.638877	-0.026687	-0.768846	-0.000019	-169.491405	-79.233605	167.317739
31977		9.739526	0.540216	-1.518091	-0.255882	0.947181	0.010294	0.114835	0.056322	1.216085	-0.921387	-0.096680	-0.410400	0.097356	0.006003	-0.015205	0.639078	-0.031086	-0.768501	0.004358	-165.772099	-79.110454	163.596431
31978		9.987398	0.037208	-1.660004	-0.172497	0.575330	0.293901	-0.018029	0.044697	1.213401	-0.924072	-0.085693	-0.403809	0.099866	0.000976	-0.016622	0.639186	-0.035913	-0.768170	0.008181	-162.255674	-78.937591	159.997995
31979		10.075438	-0.905036	-1.375637	-0.501704	-0.225909	0.381524	-0.059616	0.041210	1.215229	-0.927002	-0.070313	-0.410645	0.100804	-0.008442	-0.013775	0.639250	-0.040864	-0.767820	0.011885	-158.872799	-78.721287	156.513058
31980		10.152824	-1.431628	-1.321145	-0.588958	-0.617509	0.489998	-0.044077	0.019658	1.227460	-0.936279	-0.061523	-0.404053	0.101612	-0.013696	-0.013218	0.639208	-0.045823	-0.767508	0.015657	-155.625240	-78.452560	153.168252
31981		10.165620	-1.475966	-1.573309	-0.340650	-0.541943	0.559513	0.034670	0.030394	1.217308	-0.934326	-0.052734	-0.404053	0.101741	-0.014138	-0.015751	0.639203	-0.050478	-0.767126	0.019729	-152.493637	-78.154993	149.988571
31982		10.426967	-1.241562	-2.037023	0.091330	-0.167727	0.881921	0.153944	0.088745	1.230116	-0.941650	-0.035156	-0.404297	0.104334	-0.011758	-0.020426	0.639423	-0.054817	-0.766515	0.024251	-149.358334	-77.848873	146.867437
31983		10.746381	-1.037211	-2.139782	0.163235	0.206797	1.190407	0.269209	0.095254	1.255484	-0.939697	-0.032715	-0.402100	0.107516	-0.009668	-0.021462	0.639672	-0.058871	-0.765829	0.029326	-146.246608	-77.502547	143.838169
31984		11.880114	-0.196149	-1.960459	-0.147667	1.340742	2.153829	0.340165	0.107155	1.269248	-0.949219	-0.015137	-0.404297	0.118800	-0.001174	-0.019671	0.639956	-0.062762	-0.765059	0.034679	-143.230397	-77.123949	140.940259
31985		12.015308	-0.018859	-2.614634	0.500811	1.677841	2.358431	0.387143	0.081856	1.269774	-0.949707	-0.004150	-0.400146	0.120140	0.000625	-0.026195	0.640130	-0.066487	-0.764325	0.040250	-140.393547	-76.700965	138.253127
31986		12.475067	-0.770999	-2.287951	0.077955	1.178736	2.838739	0.385194	0.027877	1.277037	-0.943359	0.007080	-0.402344	0.124793	-0.006869	-0.022911	0.640065	-0.070243	-0.763729	0.045823	-137.812060	-76.224459	135.818862
31987		12.632771	-1.111156	-2.354981	0.114096	1.041796	3.042917	0.457016	0.035704	1.302905	-0.950684	0.020264	-0.404541	0.126392	-0.010234	-0.023596	0.640021	-0.073856	-0.763046	0.051774	-135.301413	-75.715365	133.498077
31988		12.297118	-1.091144	-3.150993	0.971892	1.169919	2.837307	0.595942	0.050678	1.338791	-0.951172	0.031250	-0.402588	0.123032	-0.009994	-0.031572	0.640041	-0.077172	-0.762226	0.058335	-132.810277	-75.174244	131.271075
31989		12.132900	-0.756499	-3.484774	1.362488	1.655393	2.650184	0.830446	0.080149	1.402824	-0.951904	0.049072	-0.395996	0.121363	-0.006569	-0.034925	0.640207	-0.079976	-0.761172	0.066004	-130.217870	-74.591745	129.075382
31990		11.946246	-0.622503	-3.681861	1.616495	1.955990	2.443469	1.064342	0.110927	1.513728	-0.956787	0.062256	-0.398193	0.119484	-0.005124	-0.036914	0.640496	-0.082467	-0.759840	0.074877	-127.490583	-73.945702	126.869470
31991		12.178969	0.287722	-3.596896	1.545157	3.123900	2.401909	1.247754	0.162401	1.660678	-0.959717	0.079834	-0.394043	0.121730	0.004113	-0.036045	0.640939	-0.084932	-0.758138	0.084907	-124.608901	-73.219706	124.606846
31992		13.170659	0.431911	-3.325373	1.144812	3.751811	3.199514	1.369152	0.236133	1.819619	-0.953613	0.097656	-0.394043	0.131619	0.005745	-0.033373	0.641569	-0.087640	-0.755991	0.095847	-121.611278	-72.409391	122.284210
31993		13.219258	1.024180	-3.372253	1.220149	4.623556	3.005094	1.404069	0.307798	2.001059	-0.959229	0.124268	-0.394287	0.132028	0.011801	-0.033847	0.642306	-0.090938	-0.753409	0.107467	-118.569529	-71.494193	119.926541
31994		12.934503	1.867674	-3.571495	1.490541	5.668472	2.401318	1.463749	0.378023	2.225245	-0.962158	0.142090	-0.398926	0.129057	0.020376	-0.035814	0.643106	-0.094916	-0.750342	0.119970	-115.490739	-70.445625	117.550860
31995		12.731818	3.227526	-2.743367	0.709038	7.172067	1.504962	1.475358	0.435592	2.533622	-0.954102	0.166504	-0.392334	0.126834	0.034087	-0.027463	0.643814	-0.100028	-0.746784	0.133459	-112.420845	-69.208899	115.175122
31996		12.991942	3.800649	-0.532536	-1.511337	7.961089	1.042861	1.334644	0.482049	2.869530	-0.964600	0.201904	-0.396973	0.129343	0.039901	-0.005376	0.644246	-0.106856	-0.742825	0.147446	-109.512461	-67.760934	112.864834
31997		14.372295	4.517483	1.415442	-3.635282	9.295484	1.559869	1.013931	0.566411	3.153198	-0.963623	0.232910	-0.397217	0.143027	0.047362	0.013985	0.644425	-0.115742	-0.738487	0.161115	-106.885935	-66.135160	110.644315
31998		15.789247	4.843378	0.773240	-3.158007	10.585680	2.487767	0.622885	0.644578	3.373476	-0.964844	0.266113	-0.404053	0.157070	0.051064	0.007382	0.644308	-0.126791	-0.733857	0.173913	-104.625150	-64.363612	108.541680
31999		16.560403	4.431374	-0.754747	-1.657719	11.118856	3.150526	0.416165	0.619803	3.542336	-0.957031	0.297363	-0.406494	0.164760	0.047253	-0.007963	0.643624	-0.139073	-0.729144	0.186428	-102.745148	-62.465852	106.696481
32000		17.031500	5.194503	-2.082895	-0.351786	12.606982	2.926846	0.460259	0.599501	3.686223	-0.947266	0.337646	-0.410889	0.169255	0.055120	-0.021213	0.642535	-0.151662	-0.724106	0.199545	-101.069068	-60.458646	105.082382
32001		17.469037	5.225688	-3.417052	0.992370	13.451904	2.921905	0.617885	0.612012	3.771916	-0.946289	0.368652	-0.415527	0.173557	0.055644	-0.034534	0.641302	-0.164026	-0.718538	0.213377	-99.487442	-58.386279	103.644358
32002		17.300870	5.213588	-4.235211	1.893877	13.918256	2.315348	0.914788	0.642251	3.791921	-0.934082	0.404541	-0.422363	0.171840	0.055596	-0.042656	0.640140	-0.175464	-0.712264	0.228281	-97.891784	-56.282863	102.364828
32003		17.798645	4.839265	-5.375699	3.040974	14.474134	2.447443	1.343279	0.712264	3.734270	-0.922119	0.440186	-0.427002	0.176845	0.052064	-0.054047	0.639435	-0.185356	-0.705040	0.244304	-96.171040	-54.202367	101.192045
32004		18.180407	4.438651	-6.140652	3.816845	14.956692	2.418775	1.996860	0.767941	3.706203	-0.916504	0.469238	-0.429199	0.180696	0.048357	-0.061632	0.639267	-0.193025	-0.696561	0.262453	-94.194410	-52.116132	100.144785
32005		19.120097	5.560724	-6.078277	3.575423	16.919944	1.776457	2.547720	0.748990	3.751872	-0.906738	0.509277	-0.449219	0.189876	0.059952	-0.060750	0.639220	-0.199000	-0.687031	0.282462	-92.070164	-49.987823	99.272019
32006		19.880655	6.725702	-4.535879	1.790758	18.580466	0.795574	2.711665	0.650377	3.881512	-0.901123	0.538330	-0.462646	0.197297	0.071708	-0.045050	0.638432	-0.204619	-0.677077	0.303484	-90.051552	-47.760256	98.647334
32007		21.036970	6.657856	-0.892189	-2.014758	19.205547	0.896992	2.366282	0.719392	3.983425	-0.882324	0.576416	-0.467285	0.208955	0.070855	-0.008854	0.637057	-0.211709	-0.666944	0.323303	-88.306012	-45.468868	98.088703
32008		21.525861	5.843902	0.478520	-3.359652	19.186256	1.062892	1.631798	0.810992	3.980070	-0.865723	0.610107	-0.482666	0.214058	0.062670	0.004415	0.634842	-0.221130	-0.657363	0.340516	-87.017741	-43.160649	97.574773
32009		21.896020	1.710789	-0.616686	-1.730689	17.358416	3.542647	0.819158	0.666416	4.043465	-0.842285	0.644043	-0.485107	0.218532	0.021556	-0.006813	0.630917	-0.233032	-0.649253	0.355121	-86.337960	-40.824212	97.233491
32010		20.656327	2.002103	-3.867464	1.537409	17.667611	1.636362	0.845120	0.530356	3.921563	-0.830078	0.677490	-0.491699	0.206012	0.024229	-0.039125	0.626467	-0.244074	-0.641390	0.369575	-85.739976	-38.551055	97.046201
32011		17.488058	2.499121	-5.613628	3.441844	16.200591	-1.491365	1.060739	0.299335	3.608980	-0.819824	0.704346	-0.491943	0.174304	0.028438	-0.056253	0.621956	-0.252963	-0.633988	0.383719	-85.138977	-36.476347	97.026265
32012		10.704020	3.638069	-5.017386	3.273468	11.566796	-6.903256	1.735187	0.417248	2.910907	-0.804688	0.718018	-0.509521	0.106387	0.038367	-0.050069	0.619731	-0.257640	-0.625599	0.397720	-84.095118	-34.782923	96.930938
32013		17.116384	-17.281717	0.606550	0.735828	4.689267	14.049768	1.975499	-0.248300	2.935339	-0.790039	0.744873	-0.518311	0.173670	-0.170331	0.004589	0.615590	-0.260295	-0.618577	0.413107	-83.195798	-33.128610	97.312478
32014		11.381537	1.368044	-3.496760	1.892551	10.913090	-5.235608	2.500765	-0.066944	2.439993	-0.781006	0.749512	-0.524902	0.113645	0.015503	-0.034743	0.613434	-0.260046	-0.610361	0.428409	-81.910971	-31.737003	97.577460
32015		5.414571	6.920421	-0.460556	-1.647560	8.080567	-12.880335	1.159178	-0.342371	0.967033	-0.779053	0.756348	-0.524902	0.053817	0.069490	-0.004111	0.611838	-0.258828	-0.607674	0.435196	-81.427106	-31.219218	97.885434
32016		3.262944	8.997221	-0.262029	-2.092450	7.210836	-15.753300	0.010160	-0.091270	-0.259341	-0.781250	0.749512	-0.518311	0.032747	0.089930	-0.002601	0.612066	-0.257888	-0.608281	0.434584	-81.448063	-31.363643	97.925497
32017		2.801837	6.170678	-0.112513	-1.546633	5.437680	-13.551570	-0.716938	-0.149793	-1.019024	-0.794189	0.736084	-0.511719	0.028333	0.061558	-0.001325	0.612921	-0.256781	-0.611621	0.429315	-81.871474	-31.956229	97.911482
32018		1.735956	3.774305	-0.566354	-0.435166	3.483121	-12.105655	-1.147187	-0.260057	-1.469020	-0.804688	0.715820	-0.500732	0.017644	0.037581	-0.005857	0.613709	-0.255313	-0.616754	0.421653	-82.558940	-32.799983	97.956632
32019		0.969710	2.293560	-1.294515	0.695968	2.267546	-11.312694	-1.359008	-0.419309	-1.878725	-0.812988	0.697754	-0.489746	0.009939	0.022754	-0.013080	0.614629	-0.252920	-0.623283	0.412045	-83.420755	-33.900153	98.070408
32020		1.015279	1.452564	-1.713402	1.284016	1.961082	-10.575286	-1.522072	-0.546558	-2.321183	-0.825684	0.677490	-0.476318	0.010366	0.014275	-0.017215	0.615653	-0.249293	-0.630986	0.400851	-84.419303	-35.245290	98.282611
32021		1.279327	0.932946	-2.044622	1.687017	1.954567	-9.956511	-1.552628	-0.647281	-2.743055	-0.837891	0.648438	-0.467529	0.012984	0.008993	-0.020475	0.617119	-0.244224	-0.639447	0.388105	-85.490222	-36.845665	98.554451
32022		1.399227	1.033411	-2.035858	1.659724	2.100069	-9.882472	-1.473612	-0.710305	-3.175471	-0.852539	0.619141	-0.456299	0.014225	0.009959	-0.020383	0.619046	-0.237284	-0.648288	0.374433	-86.560408	-38.678278	98.913293
32023		1.382443	1.788984	-2.159227	1.679799	2.573160	-10.387059	-1.370162	-0.734560	-3.643840	-0.864502	0.578857	-0.438477	0.014225	0.017485	-0.021661	0.621759	-0.228432	-0.657343	0.359351	-87.620415	-40.786636	99.308420
32024		1.809289	2.823392	-2.196172	1.530492	3.583106	-10.753315	-1.258925	-0.741027	-4.150206	-0.883301	0.538574	-0.429688	0.018753	0.027711	-0.022069	0.625129	-0.217405	-0.666505	0.343103	-88.663403	-43.166294	99.780096
32025		2.639758	3.486554	-2.184227	1.345282	4.652783	-10.470383	-1.176656	-0.729692	-4.634549	-0.899658	0.498291	-0.425049	0.027274	0.034111	-0.021946	0.629200	-0.204469	-0.675669	0.325226	-89.726358	-45.829072	100.300882
32026		3.455365	3.400695	-1.902187	0.994501	5.106015	-9.575794	-1.065848	-0.719651	-5.056257	-0.908936	0.447021	-0.411621	0.035465	0.033016	-0.019073	0.633628	-0.189591	-0.684621	0.306375	-90.807601	-48.713297	100.932850
32027		4.686226	2.850564	-2.016613	1.035530	5.457341	-7.998956	-0.964418	-0.758358	-5.420675	-0.922607	0.393555	-0.409180	0.047686	0.027123	-0.020119	0.638184	-0.173008	-0.693400	0.286331	-91.990086	-51.809380	101.718823
32028		5.794220	2.240156	-1.772714	0.735464	5.462043	-6.444120	-0.834082	-0.778120	-5.724208	-0.922852	0.340332	-0.402100	0.058619	0.020657	-0.017589	0.642634	-0.154731	-0.701750	0.265757	-93.281583	-55.054258	102.723711
32029		6.775241	1.518571	-1.810448	0.737284	5.184444	-4.908593	-0.699429	-0.814614	-5.948825	-0.929688	0.289063	-0.397461	0.068236	0.013098	-0.017875	0.646847	-0.135111	-0.709608	0.244521	-94.775922	-58.423374	103.998757
32030		7.833695	1.051406	-1.656231	0.502449	4.956796	-3.458784	-0.523888	-0.848800	-6.165613	-0.931885	0.229004	-0.392822	0.078680	0.008049	-0.016252	0.650656	-0.113925	-0.716831	0.223207	-96.536410	-61.880117	105.674507
32031		8.953755	0.833361	-1.676367	0.399173	4.829897	-2.056507	-0.329299	-0.900419	-6.407402	-0.934082	0.171387	-0.385742	0.089817	0.005432	-0.016370	0.654044	-0.091130	-0.723438	0.201394	-98.768628	-65.452040	107.921891
32032		10.359765	0.794914	-1.779593	0.313076	4.807332	-0.438588	-0.197737	-0.981449	-6.664469	-0.927246	0.107178	-0.380859	0.103871	0.004473	-0.017292	0.656701	-0.066733	-0.729493	0.179248	-101.844328	-69.098414	111.125215
32033		11.714512	0.701917	-1.919897	0.273711	4.500547	1.188311	-0.156274	-1.096525	-6.904014	-0.917969	0.045166	-0.380615	0.117397	0.002954	-0.018559	0.658421	-0.041210	-0.735134	0.156078	-106.535855	-72.783422	115.960106
32034		13.242736	0.158856	-2.205749	0.413143	3.600095	3.112183	-0.194601	-1.218929	-7.117402	-0.904541	-0.014648	-0.377930	0.132503	-0.003148	-0.021248	0.658991	-0.014817	-0.740310	0.132110	-114.171259	-76.360714	123.754232
32035		15.027771	-0.463430	-2.295396	0.341887	2.345964	5.207031	-0.246917	-1.277967	-7.326235	-0.888428	-0.078613	-0.377441	0.150115	-0.010164	-0.021984	0.658602	0.012168	-0.744764	0.106870	-127.448320	-79.611506	137.145124
32036		16.945147	-1.290501	-2.567435	0.471330	0.616245	7.352728	-0.181479	-1.355745	-7.537315	-0.870361	-0.142578	-0.361572	0.168973	-0.019303	-0.024512	0.657082	0.040244	-0.748347	0.081241	-150.869471	-81.886301	160.750220
32037		18.925330	-1.261370	-2.793868	0.408612	-0.622279	9.340004	-0.043905	-1.481353	-7.722348	-0.847656	-0.202148	-0.361084	0.188778	-0.019916	-0.026535	0.654145	0.069389	-0.751157	0.055157	176.718824	-82.048732	-166.589540
32038		20.943644	-0.597610	-2.810847	0.008222	-1.613768	11.259869	0.006488	-1.651843	-7.887364	-0.818359	-0.268066	-0.347412	0.209206	-0.014230	-0.026380	0.649565	0.099320	-0.753241	0.028793	150.992231	-79.826403	-140.555952
32039		23.269381	-0.122332	-2.864099	-0.393042	-3.192788	13.404358	-0.193930	-1.813351	-7.959461	-0.788818	-0.332031	-0.331543	0.232646	-0.010511	-0.026524	0.643370	0.129436	-0.754532	0.001631	136.372341	-76.242022	-125.659572
32040		25.707177	-0.654171	-2.368725	-1.176051	-6.214724	15.217862	-0.669261	-1.923532	-7.827472	-0.748047	-0.400146	-0.320068	0.256763	-0.016670	-0.021172	0.636075	0.156611	-0.755074	-0.027295	128.216339	-72.179083	-117.594910
32041		28.143900	-3.182536	-0.962996	-2.461425	-11.523945	15.952891	-1.236533	-1.862702	-7.540761	-0.705322	-0.459229	-0.317383	0.280044	-0.042451	-0.006776	0.628444	0.180599	-0.754407	-0.057551	122.960376	-68.035751	-112.790613
32042		30.418459	-4.594258	1.441200	-4.923572	-15.905092	16.087928	-1.577922	-1.627933	-7.045559	-0.651367	-0.515869	-0.305664	0.302185	-0.056484	0.017295	0.621268	0.201514	-0.752223	-0.087052	119.173045	-64.102936	-109.645363
32043		31.310269	-7.920991	2.022988	-5.115218	-21.057604	14.212696	-2.169915	-1.520929	-6.225556	-0.595947	-0.552490	-0.305420	0.310270	-0.088655	0.023525	0.614623	0.217250	-0.749362	-0.116179	116.241449	-60.536676	-107.765656
32044		27.752327	-13.772368	0.482936	-2.321118	-25.623512	7.446707	-2.730460	-1.495160	-5.179078	-0.545166	-0.589355	-0.313721	0.273779	-0.144744	0.008830	0.608702	0.227189	-0.746435	-0.143880	113.881676	-57.494266	-106.845921
32045		21.505878	-20.655578	-2.793118	2.417212	-28.783067	-1.910985	-3.061414	-1.594203	-4.126270	-0.501709	-0.610596	-0.320068	0.210928	-0.211314	-0.023028	0.603007	0.231895	-0.744177	-0.169732	112.008320	-54.961545	-106.724410
32046		16.217422	-28.407685	-2.525997	3.419688	-32.571360	-11.717827	-2.544316	-1.441275	-3.141309	-0.469727	-0.623291	-0.326416	0.157842	-0.286860	-0.020474	0.597798	0.234529	-0.742579	-0.190290	110.709776	-52.993555	-106.929100
32047		16.038979	-36.806392	0.371384	1.029473	-39.234301	-18.275147	-1.370092	-0.992507	-2.059233	-0.447266	-0.622803	-0.319824	0.156560	-0.369648	0.007026	0.593689	0.236982	-0.741800	-0.202744	110.083406	-51.693312	-107.146251
32048		17.330839	-39.354555	2.071485	-0.764345	-41.897415	-19.684169	0.335684	-0.342636	-0.594735	-0.438232	-0.627197	-0.299805	0.172102	-0.394093	0.020349	0.591425	0.239728	-0.742475	-0.203660	110.361439	-51.314771	-107.263665
32049		19.429883	-32.538631	1.474207	-1.191962	-37.700339	-13.774127	1.042003	-0.072842	1.248433	-0.443115	-0.614014	-0.293457	0.196320	-0.324236	0.013122	0.591163	0.237979	-0.745253	-0.196189	111.331374	-51.976131	-107.749249
32050		20.384074	-24.686018	0.679864	-1.453323	-31.910946	-7.604019	0.764934	0.169893	2.852825	-0.459473	-0.598877	-0.291504	0.207339	-0.243942	0.005687	0.593630	0.229643	-0.748842	-0.184674	112.455559	-53.538000	-108.618520
32051		20.104696	-22.156684	0.097387	-1.250352	-29.537479	-5.232945	-0.047052	0.381341	4.116608	-0.487549	-0.570557	-0.289551	0.205551	-0.217366	0.000636	0.598804	0.214295	-0.752255	-0.172116	113.447099	-55.806014	-109.870816
32052		25.528986	2.528130	-7.600776	2.163718	-10.850272	14.546565	-0.219502	-0.178788	4.528152	-0.504150	-0.550781	-0.293945	0.254699	0.030969	-0.075812	0.602115	0.196290	-0.757285	-0.159522	115.111292	-58.137806	-112.012674
32053		3.912170	47.994354	-7.153016	1.440568	40.223481	17.569508	-0.742201	0.057886	2.589307	-0.510986	-0.546631	-0.298584	0.032885	0.480126	-0.073322	0.605095	0.184189	-0.759010	-0.154399	115.696575	-59.504388	-113.194479
32054		16.229007	14.722041	2.054586	-6.463181	5.672608	10.444873	-1.158998	0.703008	1.818572	-0.524658	-0.540039	-0.311768	0.161011	0.148802	0.019119	0.610198	0.174203	-0.757639	-0.152627	115.184911	-60.626770	-113.377491
32055		16.049846	0.403316	6.534760	-9.509166	-6.571298	3.104060	-0.228317	0.678994	2.430107	-0.541260	-0.518311	-0.309814	0.160654	0.006059	0.064796	0.614784	0.164704	-0.757470	-0.145439	115.509763	-62.061682	-113.901109
32056		18.437491	-4.612012	5.075414	-8.142329	-11.744156	3.704617	-0.493774	0.535113	3.036053	-0.557617	-0.500732	-0.314209	0.185180	-0.043188	0.050368	0.619352	0.151948	-0.757897	-0.137505	116.178695	-63.769329	-114.977042
32057		22.015743	-5.237629	1.593240	-5.387247	-13.287191	7.767025	-0.291305	0.118715	3.259838	-0.569824	-0.476563	-0.303467	0.220981	-0.048756	0.015874	0.622192	0.138656	-0.759721	-0.128357	117.678508	-65.476300	-116.824450
32058		20.761472	-6.448066	4.300941	-7.825946	-13.298091	6.092868	0.160896	-0.148264	3.343070	-0.586426	-0.452637	-0.299316	0.208622	-0.061034	0.043114	0.623573	0.126235	-0.762519	-0.117417	120.059030	-67.121030	-119.330003
32059		12.122290	-3.086863	-0.455078	-1.767502	-6.846775	0.515353	-0.147856	-0.454732	3.350363	-0.605225	-0.432861	-0.297363	0.121727	-0.028835	-0.004253	0.623822	0.112623	-0.765869	-0.107738	123.007807	-68.632705	-122.604999
32060		11.247097	-4.433280	-3.210345	1.049326	-7.608975	0.058884	-0.339409	-0.514707	3.107755	-0.624023	-0.411133	-0.293213	0.113224	-0.042631	-0.031739	0.623632	0.099263	-0.768966	-0.099606	126.145269	-69.939193	-126.173448
32061		10.978215	-6.259047	-2.776627	0.621859	-9.002325	-0.540917	-0.113441	-0.457346	2.970395	-0.633789	-0.395752	-0.288818	0.110759	-0.060966	-0.027479	0.623347	0.087160	-0.771736	-0.090920	129.649047	-71.132384	-129.957940
32062		10.902089	-4.200875	-2.943030	0.677589	-6.728854	0.158200	0.338622	-0.306217	2.721023	-0.648193	-0.369629	-0.278076	0.109623	-0.040470	-0.029332	0.623187	0.077459	-0.773975	-0.081243	133.380142	-72.190059	-133.690474
32063		9.291800	-3.066468	-4.292399	2.282732	-5.053543	-0.679757	0.832295	-0.183762	2.340773	-0.657715	-0.356445	-0.276123	0.093306	-0.029395	-0.042962	0.623060	0.070826	-0.775745	-0.070709	137.175008	-73.068822	-137.165491
32064		8.457202	-5.306234	-6.541611	4.713015	-6.897453	-1.287521	1.376041	-0.130067	2.044491	-0.667725	-0.330078	-0.265381	0.085148	-0.051742	-0.065720	0.622733	0.067022	-0.777321	-0.059029	141.133333	-73.783590	-140.479082
32065		11.003967	-5.316693	-5.486125	3.177744	-7.081352	1.105095	1.811481	-0.003445	2.041447	-0.677246	-0.317139	-0.254395	0.110572	-0.051540	-0.055331	0.622657	0.064635	-0.778490	-0.045539	145.520701	-74.488700	-143.959012
32066		9.833842	2.972174	-2.321001	-0.011250	1.525377	0.608146	1.768391	0.139823	1.872187	-0.680176	-0.299316	-0.252441	0.098037	0.030844	-0.023009	0.622990	0.062771	-0.779018	-0.032763	149.747473	-75.134029	-147.295130
32067		9.593815	-0.767453	-3.573019	1.459327	-1.895187	0.170907	1.240590	0.119379	1.569366	-0.694336	-0.284180	-0.241455	0.095972	-0.006699	-0.035831	0.623287	0.060454	-0.779316	-0.022913	153.417411	-75.628088	-150.351077
32068		10.649534	0.839467	-1.734543	-0.660368	-0.315109	0.984893	0.907257	0.197155	1.556822	-0.696777	-0.279785	-0.243896	0.106408	0.009302	-0.017410	0.623918	0.057127	-0.779265	-0.014450	157.003777	-76.106535	-153.519602
32069		9.821514	0.493437	-1.499974	-0.682830	-0.416559	0.102658	0.378608	0.143173	1.382878	-0.704102	-0.264404	-0.241699	0.098167	0.005642	-0.015060	0.624443	0.052844	-0.779234	-0.008531	160.179983	-76.476191	-156.563628
32070		10.122054	-0.525572	-1.549367	-0.622365	-1.316517	0.336732	0.143984	0.148436	1.281334	-0.715576	-0.255615	-0.248291	0.101240	-0.004596	-0.015572	0.625007	0.048199	-0.779120	-0.003914	163.123676	-76.788581	-159.510782
32071		10.444434	-0.281821	-1.179173	-1.063014	-0.987584	0.601216	0.057195	0.168741	1.212950	-0.720703	-0.240234	-0.239746	0.104449	-0.002181	-0.011881	0.625651	0.043569	-0.778885	0.000228	165.992966	-77.069200	-162.420910
32072		9.990988	0.005445	-1.609266	-0.558161	-0.524653	0.277988	0.082535	0.177574	1.117234	-0.723389	-0.233643	-0.244141	0.099893	0.000619	-0.016181	0.626295	0.039368	-0.778581	0.004099	168.732679	-77.307931	-165.188348
32073		9.555847	0.254846	-1.790524	-0.295016	-0.130119	-0.092592	0.123804	0.189270	1.055635	-0.725586	-0.229248	-0.248535	0.095526	0.003064	-0.017994	0.626963	0.035555	-0.778196	0.008011	171.453603	-77.519632	-167.901941
32074		9.564271	0.548827	-1.945644	-0.152171	0.275750	-0.042224	0.144768	0.211454	1.014743	-0.728271	-0.218262	-0.246582	0.095593	0.005987	-0.019553	0.627691	0.031944	-0.777717	0.011809	174.139018	-77.711068	-170.572679
32075		9.469734	1.009772	-2.072985	-0.025112	0.849334	-0.103417	0.130875	0.180090	1.016231	-0.741943	-0.214111	-0.242188	0.094626	0.010592	-0.020808	0.628287	0.028305	-0.777310	0.015621	176.924760	-77.858563	-173.344885
32076		9.567009	0.709179	-2.185393	0.092780	0.655438	0.004007	0.125133	0.137404	1.011788	-0.742188	-0.207520	-0.244385	0.095617	0.007589	-0.021915	0.628695	0.024648	-0.777021	0.019321	179.734936	-77.951396	-176.151790
32077		9.826148	0.724686	-1.918810	-0.216544	0.755567	0.194385	0.156401	0.108020	1.025464	-0.744873	-0.196289	-0.248779	0.098212	0.007766	-0.019235	0.628971	0.021056	-0.776796	0.023247	-177.345794	-77.998692	-179.043969
32078		9.722325	1.215488	-1.803271	-0.332138	1.344824	0.053061	0.097408	0.134301	1.057734	-0.745117	-0.189697	-0.244629	0.097145	0.012678	-0.018092	0.629328	0.017132	-0.776482	0.026983	-174.372811	-78.027816	177.967589
32079		9.456088	1.062902	-1.995885	-0.072367	1.309891	-0.178948	-0.011884	0.111490	1.103736	-0.750244	-0.174316	-0.246826	0.094489	0.011149	-0.020012	0.629584	0.012705	-0.776230	0.030497	-171.321900	-78.008528	174.842339
32080		9.759988	0.563450	-1.840430	-0.254327	0.916628	0.089641	-0.136914	0.054386	1.164239	-0.759521	-0.167725	-0.249023	0.097560	0.006190	-0.018435	0.629592	0.007641	-0.776159	0.033652	-168.254157	-77.915926	171.619178
32081		10.236848	0.405787	-1.846975	-0.338007	0.892719	0.553440	-0.226053	0.042396	1.226561	-0.760010	-0.156738	-0.247070	0.102337	0.004665	-0.018496	0.629526	0.002072	-0.776109	0.036712	-165.123542	-77.772226	168.284463
32082		10.421908	-0.175570	-2.077911	-0.124251	0.461379	0.804987	-0.232681	0.034092	1.284055	-0.758057	-0.147705	-0.244873	0.104224	-0.001111	-0.020795	0.629386	-0.003756	-0.776060	0.039868	-161.964544	-77.576425	164.908244
32083		11.043762	-0.211338	-1.957110	-0.370304	0.591980	1.383310	-0.164166	0.094335	1.322144	-0.767334	-0.139160	-0.247070	0.110439	-0.001399	-0.019622	0.629449	-0.009513	-0.775767	0.043462	-158.713323	-77.365386	161.481248
32084		11.328596	-0.459954	-2.129555	-0.244796	0.523666	1.708924	-0.098207	0.152369	1.367644	-0.772461	-0.125977	-0.249512	0.113298	-0.003835	-0.021380	0.629697	-0.015265	-0.775243	0.047395	-155.397190	-77.133119	158.017356
32085		12.537704	-0.489642	-1.844884	-0.759900	0.746397	2.824568	-0.007548	0.178008	1.394807	-0.775146	-0.117188	-0.247314	0.125391	-0.004023	-0.018560	0.630016	-0.020829	-0.774572	0.051813	-152.055982	-76.862314	154.583405
32086		11.984025	-1.271988	-3.272729	0.787558	0.168948	2.649024	0.170032	0.131959	1.397722	-0.784424	-0.108398	-0.247314	0.119903	-0.011854	-0.032817	0.630139	-0.025845	-0.773965	0.056878	-148.827749	-76.524855	151.359992
32087		12.309131	-0.887417	-2.747304	0.205941	0.737977	2.807143	0.459315	0.149708	1.362140	-0.787109	-0.093018	-0.243164	0.123127	-0.007972	-0.027584	0.630347	-0.029803	-0.773179	0.062995	-145.633204	-76.164808	148.342682
32088		12.017619	-0.700299	-2.727189	0.256339	1.069715	2.481144	0.709015	0.200235	1.362537	-0.792236	-0.077393	-0.245361	0.120192	-0.006087	-0.027415	0.630750	-0.033003	-0.772115	0.070018	-142.405544	-75.790001	145.428352
32089		11.737183	-0.531218	-3.055526	0.649592	1.411258	2.227372	0.867858	0.234742	1.433981	-0.797363	-0.059814	-0.250000	0.117369	-0.004338	-0.030713	0.631246	-0.035976	-0.770820	0.077916	-139.072437	-75.363380	142.499206
32090		11.720123	0.298592	-2.494621	0.090049	2.386686	1.933183	1.060935	0.276891	1.560525	-0.800293	-0.046631	-0.243408	0.117138	0.004033	-0.025089	0.631837	-0.038852	-0.769234	0.086896	-135.570860	-74.864123	139.498768
32091		11.510664	0.694483	-2.611143	0.245704	2.966008	1.629943	1.100402	0.315964	1.719518	-0.805664	-0.024414	-0.241455	0.114999	0.008078	-0.026251	0.632453	-0.042217	-0.767396	0.096557	-131.975048	-74.266208	136.421066
32092		12.280283	0.564356	-2.096996	-0.380389	3.170821	2.242057	1.034292	0.339548	1.902457	-0.812988	-0.006836	-0.243652	0.122705	0.006920	-0.021145	0.632985	-0.046511	-0.765393	0.106484	-128.418397	-73.548648	133.329915
32093		12.890973	0.515337	-1.855647	-0.705960	3.489889	2.725315	1.001842	0.407570	2.068616	-0.816162	0.015137	-0.246094	0.128808	0.006580	-0.018788	0.633599	-0.051564	-0.763051	0.116821	-124.877347	-72.724660	130.227586
32094		13.533096	0.991782	-3.224016	0.509882	4.554630	3.359555	1.111414	0.480272	2.246836	-0.828369	0.041748	-0.250732	0.135129	0.011617	-0.032503	0.634319	-0.056995	-0.760257	0.128066	-121.318651	-71.785380	127.153509
32095		13.777836	2.358692	-3.847383	0.999886	6.351590	3.181096	1.326528	0.538858	2.494526	-0.829590	0.072754	-0.246582	0.137364	0.025558	-0.038679	0.635045	-0.062703	-0.756923	0.140906	-117.688710	-70.680669	124.119863
32096		13.972108	3.485171	-3.200032	0.256512	7.767750	2.724673	1.408451	0.607650	2.814980	-0.841797	0.099121	-0.255615	0.139112	0.037039	-0.032168	0.635684	-0.069406	-0.753039	0.154986	-114.082908	-69.370111	121.135738
32097		14.190758	4.177596	-1.819167	-1.181605	8.681484	2.243628	1.277661	0.647734	3.144793	-0.836426	0.132568	-0.257813	0.141167	0.044117	-0.018373	0.635993	-0.077772	-0.748802	0.169588	-110.722048	-67.832889	118.308722
32098		15.440625	4.964421	0.116141	-3.353847	9.949506	2.548747	1.051415	0.692522	3.425099	-0.846924	0.172119	-0.260254	0.153529	0.052273	0.000899	0.635944	-0.087926	-0.744270	0.184140	-107.722932	-66.098829	115.698183
32099		17.354276	5.852888	0.686888	-4.297917	11.843614	3.495910	0.767056	0.761966	3.641282	-0.848389	0.209961	-0.267090	0.172464	0.061650	0.006443	0.635606	-0.099818	-0.739421	0.198238	-105.109438	-64.208731	113.297589
32100		18.206668	6.251656	-0.524828	-3.237395	13.269728	3.760401	0.600655	0.764339	3.813187	-0.847656	0.247803	-0.269531	0.180809	0.065989	-0.005746	0.634784	-0.112843	-0.734367	0.212180	-102.884752	-62.183149	111.184261
32101		18.749538	7.203977	-1.862230	-2.051872	15.114356	3.385851	0.660478	0.742665	3.936828	-0.849121	0.287598	-0.271973	0.185958	0.075773	-0.019069	0.633533	-0.126062	-0.728952	0.226658	-100.914823	-60.052551	109.360151
32102		18.344502	7.000995	-3.216359	-0.576532	15.508047	2.636859	0.789919	0.779790	4.003064	-0.846436	0.334229	-0.274658	0.181867	0.073789	-0.032588	0.632151	-0.139102	-0.722922	0.241700	-99.077512	-57.859932	107.737221
32103		17.458633	7.367685	-4.080028	0.414220	16.009034	1.105948	1.259910	0.800175	3.999481	-0.839111	0.374268	-0.279297	0.172899	0.077404	-0.041015	0.630899	-0.150608	-0.715939	0.258291	-97.177347	-55.646303	106.319740
32104		18.057752	7.203351	-4.821277	1.064696	16.800591	1.038992	1.886430	0.888678	3.954654	-0.840820	0.421143	-0.301514	0.178886	0.076037	-0.048306	0.630184	-0.160017	-0.707559	0.276809	-95.055181	-53.436406	105.034258
32105		19.173831	7.992264	-4.999890	0.925048	18.578580	0.695174	2.381996	0.912116	3.997616	-0.828857	0.461182	-0.301758	0.189854	0.084325	-0.049881	0.629565	-0.167969	-0.698009	0.297016	-92.821580	-51.178678	103.925539
32106		20.650064	8.507882	-4.306032	-0.145092	20.206708	0.624216	2.515326	0.876746	4.140706	-0.828369	0.505615	-0.317383	0.204485	0.089866	-0.042850	0.628341	-0.175844	-0.687841	0.318026	-90.704248	-48.811879	103.035323
32107		22.081901	8.166500	-1.532524	-3.118593	20.745011	0.979860	2.367114	0.919485	4.261873	-0.819092	0.559082	-0.333008	0.218939	0.086526	-0.015330	0.626576	-0.184569	-0.677251	0.338626	-88.793493	-46.360713	102.270829
32108		23.589106	8.663105	1.037795	-5.989019	21.985478	0.829332	1.817574	1.127379	4.202585	-0.812012	0.603760	-0.337646	0.234059	0.091471	0.009872	0.624721	-0.195051	-0.666592	0.356838	-87.197367	-43.920952	101.480035
32109		23.298584	5.135217	-0.834733	-3.454149	20.342363	2.189847	0.673955	1.043671	4.175296	-0.800293	0.650635	-0.348877	0.231799	0.056230	-0.009375	0.621227	-0.208772	-0.657922	0.370985	-86.394307	-41.493552	100.848845
32110		21.659897	4.531696	-3.097961	-0.862359	19.752878	0.593670	0.129820	0.882886	4.089935	-0.794922	0.686279	-0.353516	0.215472	0.049752	-0.031901	0.616480	-0.223499	-0.650541	0.383140	-86.032373	-39.111279	100.394943
32111		18.340994	3.664843	-5.729133	2.337519	17.653481	-1.720033	-0.015693	0.489945	3.900859	-0.782715	0.719727	-0.355713	0.182508	0.040210	-0.057742	0.610439	-0.237225	-0.644597	0.394439	-85.955278	-36.857984	100.235410
32112		10.445214	4.513655	-8.903127	6.394540	12.805884	-7.851331	0.173286	0.428710	3.261134	-0.781738	0.753174	-0.358154	0.103506	0.046907	-0.089214	0.605444	-0.248102	-0.639006	0.404418	-85.784928	-34.966071	100.103845
32113		14.223706	-16.867778	-3.680053	4.418523	3.317632	11.862479	0.718177	-0.301458	2.829393	-0.769531	0.782227	-0.360596	0.144659	-0.166510	-0.037184	0.599565	-0.254426	-0.634910	0.415547	-85.583834	-33.359275	100.455975
32114		13.956330	-1.221215	-4.594956	2.537031	11.975516	-1.595760	2.124590	-0.018661	2.496563	-0.768066	0.804443	-0.371582	0.139701	-0.009980	-0.046050	0.596870	-0.255990	-0.627305	0.429772	-84.461500	-31.924675	100.620783
32115		5.741935	9.841221	-2.447263	-0.460336	10.250643	-15.337107	0.884545	-0.147798	0.873106	-0.781738	0.810791	-0.371826	0.057007	0.098769	-0.023994	0.595631	-0.255859	-0.624740	0.435270	-84.048508	-31.432494	100.775134
32116		2.636051	11.400723	-2.525203	-0.221095	8.436723	-18.302311	-0.474319	0.150943	-0.800874	-0.806152	0.801514	-0.369629	0.026797	0.113840	-0.025542	0.597160	-0.255175	-0.626356	0.431235	-84.247116	-31.869695	100.624026
32117		3.083697	7.631296	-3.366560	1.335506	7.203790	-14.852401	-1.289948	0.081782	-1.575811	-0.823486	0.787842	-0.358643	0.031422	0.075848	-0.034169	0.599118	-0.254348	-0.630897	0.422295	-84.913850	-32.761540	100.464079
32118		1.753740	3.690711	-2.954843	1.947780	4.036834	-12.122854	-1.552867	0.060399	-2.062734	-0.849609	0.762695	-0.349609	0.017906	0.036493	-0.029838	0.601569	-0.252680	-0.636581	0.411136	-85.726223	-33.926087	100.312124
32119		1.000990	2.121316	-2.643075	2.074287	2.538253	-11.132451	-1.407691	0.001236	-2.517659	-0.886963	0.739746	-0.336670	0.010274	0.020898	-0.026579	0.604888	-0.248973	-0.642610	0.398968	-86.475817	-35.362645	100.188071
32120		1.232531	2.574866	-2.358171	1.718539	2.940974	-11.264018	-1.164094	-0.103858	-3.051610	-0.912354	0.699463	-0.332031	0.012727	0.025419	-0.023724	0.609044	-0.242531	-0.648974	0.386105	-87.123720	-37.101039	100.145313
32121		1.844396	3.555136	-2.625149	1.768404	4.092804	-11.559573	-0.970255	-0.201421	-3.620859	-0.944092	0.649902	-0.322998	0.019108	0.035082	-0.026403	0.614075	-0.233404	-0.655762	0.372036	-87.708394	-39.175985	100.169309
32122		2.283218	4.294665	-2.749311	1.739698	4.969883	-11.679687	-0.696559	-0.229627	-4.148815	-0.975586	0.591553	-0.320557	0.023747	0.042364	-0.027614	0.620025	-0.221547	-0.662474	0.357230	-88.155523	-41.545571	100.233863
32123		2.414089	4.433892	-2.522496	1.493552	5.183707	-11.469027	-0.582598	-0.281903	-4.681913	-1.000000	0.529053	-0.315918	0.025204	0.043683	-0.025318	0.626613	-0.207382	-0.669417	0.340926	-88.580709	-44.228849	100.346774
32124		3.547389	4.061509	-2.460629	1.353797	5.760538	-10.145603	-0.565707	-0.366771	-5.120395	-1.015137	0.457764	-0.308838	0.036542	0.039619	-0.024653	0.633257	-0.191412	-0.676633	0.323288	-89.068089	-47.155557	100.566125
32125		4.616320	3.506827	-2.289407	1.151919	6.017569	-8.671581	-0.633563	-0.436352	-5.505999	-1.032471	0.384033	-0.310547	0.047154	0.033707	-0.022900	0.639806	-0.174117	-0.684075	0.303929	-89.690561	-50.310045	100.890918
32126		5.880083	2.754156	-2.274120	1.118105	6.120178	-6.877931	-0.610026	-0.468515	-5.779823	-1.034180	0.308594	-0.308105	0.059616	0.025757	-0.022683	0.646128	-0.155608	-0.691260	0.283664	-90.396730	-53.610628	101.335611
32127		6.957063	2.072743	-2.037839	0.888561	5.938631	-5.254601	-0.548192	-0.521060	-5.976847	-1.017578	0.229248	-0.309570	0.070200	0.018580	-0.020249	0.652059	-0.136022	-0.698089	0.262659	-91.227542	-57.027851	101.944284
32128		7.940059	1.554114	-2.260877	1.099750	5.752635	-3.792140	-0.457425	-0.625192	-6.185566	-1.008057	0.160645	-0.306885	0.079900	0.013024	-0.022391	0.657322	-0.115133	-0.704615	0.241225	-92.270160	-60.548525	102.849156
32129		8.959623	1.615212	-2.640753	1.371636	5.944951	-2.559870	-0.348061	-0.773137	-6.427816	-0.982910	0.090088	-0.299805	0.090154	0.013215	-0.026084	0.661779	-0.092753	-0.710940	0.219110	-93.699043	-64.200785	104.217404
32130		10.031138	1.873482	-2.965902	1.547139	6.169866	-1.302228	-0.299249	-0.911501	-6.720089	-0.953369	0.023926	-0.294922	0.100998	0.015305	-0.029224	0.665338	-0.068905	-0.717013	0.196138	-95.773834	-67.984388	106.291359
32131		11.457723	1.772689	-3.460353	1.905474	6.036320	0.496006	-0.308263	-1.052973	-7.027978	-0.919434	-0.039795	-0.276855	0.115284	0.013631	-0.034021	0.667900	-0.043777	-0.722824	0.171808	-99.033133	-71.898276	109.552865
32132		13.340067	1.205310	-3.769892	2.109293	5.286513	2.881427	-0.235702	-1.187389	-7.363833	-0.890625	-0.092529	-0.265381	0.133943	0.007083	-0.036915	0.669382	-0.017006	-0.728125	0.146537	-104.462455	-75.883799	115.053348
32133		15.185431	0.468193	-3.916229	2.187210	3.976811	5.201897	0.066095	-1.322603	-7.676360	-0.846191	-0.134033	-0.247559	0.152140	-0.001142	-0.038156	0.669660	0.012021	-0.732646	0.121000	-114.607469	-79.787248	125.445058
32134		17.153417	-0.490681	-3.275446	1.529507	1.958864	7.475391	0.451382	-1.469350	-7.899252	-0.804199	-0.175293	-0.236084	0.171398	-0.011607	-0.031516	0.668459	0.043238	-0.736252	0.096049	-136.418435	-83.032465	147.743934
32135		19.130495	-2.237737	-2.973962	1.374252	-1.139351	9.589330	0.556300	-1.689758	-8.049364	-0.778564	-0.199219	-0.229248	0.190443	-0.029975	-0.028204	0.665386	0.075376	-0.739315	0.070660	-177.714765	-83.994742	-170.414608
32136		21.136723	-4.375044	-2.812121	1.468312	-4.932562	11.331254	0.683461	-1.901055	-8.098445	-0.768555	-0.228027	-0.233398	0.209624	-0.052172	-0.026291	0.660364	0.108080	-0.741733	0.045494	148.684789	-81.674766	-136.183240
32137		22.923572	-5.633270	-2.161963	0.956181	-8.223412	12.392181	0.769367	-2.091306	-7.977400	-0.761963	-0.276611	-0.239746	0.226960	-0.065340	-0.019478	0.653411	0.140461	-0.743568	0.020757	133.569082	-77.834413	-120.402976
32138		24.887214	-4.856452	-1.722154	0.136238	-9.753745	13.648540	0.512480	-2.329605	-7.736496	-0.754639	-0.351807	-0.241455	0.246926	-0.058104	-0.014478	0.644648	0.170912	-0.745118	-0.004242	126.677695	-73.582320	-113.000460
32139		27.384079	-3.720661	-1.435601	-0.779254	-11.315848	15.421117	-0.185823	-2.493308	-7.443166	-0.733398	-0.435791	-0.238525	0.272354	-0.047374	-0.010913	0.634835	0.197733	-0.746269	-0.031125	122.840753	-69.261530	-109.083589
32140		29.559288	-4.179313	1.515637	-3.866125	-15.007340	15.739920	-0.792241	-2.306478	-7.079937	-0.674316	-0.512451	-0.224609	0.293666	-0.052144	0.018744	0.625462	0.221028	-0.745981	-0.058792	120.048022	-65.117987	-106.555044
32141		30.605988	-5.237834	4.271488	-6.504700	-18.660733	14.508358	-1.443720	-2.104796	-6.416082	-0.623047	-0.560303	-0.221924	0.303702	-0.061822	0.046343	0.616925	0.239573	-0.744654	-0.086593	117.796273	-61.318439	-104.975160
32142		29.935400	-9.594975	4.263926	-5.569678	-23.529821	10.715535	-2.444352	-1.933701	-5.576983	-0.587402	-0.608154	-0.232422	0.296096	-0.103683	0.046749	0.609927	0.251731	-0.742537	-0.115154	115.638716	-57.974351	-104.105915
32143		23.999549	-17.334884	0.834202	-0.178425	-27.434691	1.333738	-3.345591	-1.804300	-4.578119	-0.554443	-0.645264	-0.247559	0.235841	-0.178583	0.013441	0.604519	0.257259	-0.740065	-0.143798	113.497112	-55.162978	-103.850312
32144		17.096882	-25.159260	-1.845909	4.176890	-30.176902	-9.190601	-3.800720	-1.652701	-3.406643	-0.523682	-0.682129	-0.271240	0.166766	-0.254729	-0.012248	0.600634	0.256990	-0.737713	-0.170220	111.499353	-53.006238	-104.080405
32145		13.630032	-33.617917	-0.386958	3.683307	-35.104895	-18.177751	-3.387870	-1.390823	-2.135566	-0.506592	-0.717285	-0.281982	0.132696	-0.337600	0.002773	0.597903	0.253340	-0.736131	-0.190898	109.963825	-51.586345	-104.604069
32146		14.993982	-39.327448	3.211767	-0.212391	-40.420429	-21.971825	-2.031854	-0.812046	-0.866498	-0.492432	-0.730225	-0.292969	0.148092	-0.393561	0.036719	0.596631	0.249555	-0.735500	-0.201973	109.141205	-50.971940	-105.049832
32147		18.582613	-38.259679	3.197044	-1.543620	-41.692183	-18.683922	-0.765402	-0.293754	0.712787	-0.503418	-0.741699	-0.297119	0.187139	-0.381805	0.033707	0.597229	0.244243	-0.736511	-0.203013	109.067922	-51.312090	-105.526650
32148		20.418584	-31.248872	1.501724	-1.336359	-37.255885	-12.224333	-0.172300	-0.000060	2.319491	-0.525879	-0.741943	-0.299561	0.207791	-0.310080	0.015285	0.599765	0.235063	-0.739146	-0.196698	109.532436	-52.575549	-106.249824
32149		20.481628	-25.998042	0.858012	-1.549699	-33.021401	-8.024696	-0.274786	0.271548	3.616444	-0.557129	-0.744873	-0.301758	0.209484	-0.256209	0.008652	0.604571	0.220999	-0.742214	-0.186472	110.133307	-54.589499	-107.196215
32150		29.835144	-10.878868	-5.306294	1.034617	-25.226392	10.163507	-0.477156	-0.277764	4.300625	-0.582520	-0.727539	-0.299805	0.300673	-0.102465	-0.052397	0.607943	0.203179	-0.747211	-0.175496	111.362655	-56.846649	-109.022091
32151		1.121708	32.608301	-7.536012	4.340791	27.490441	8.807057	-0.060711	0.246017	3.115367	-0.591309	-0.729980	-0.295410	0.006044	0.326181	-0.075469	0.611608	0.191446	-0.749505	-0.165912	112.175218	-58.570194	-110.025814
32152		19.387308	32.661025	-3.687466	-2.409848	19.202631	23.075203	-0.406592	0.807577	1.751713	-0.589355	-0.723145	-0.304199	0.190850	0.328214	-0.038316	0.616452	0.184190	-0.748363	-0.161286	111.859481	-59.682967	-109.936638
32153		22.780031	0.736203	4.046692	-7.849685	-9.912805	9.576594	0.306995	1.091706	2.031545	-0.589844	-0.709961	-0.300049	0.227927	0.009616	0.039237	0.621866	0.178298	-0.747089	-0.152810	111.782928	-61.007852	-109.649639
32154		23.890650	-8.661581	5.584630	-8.694550	-18.291651	6.519165	0.429263	0.597934	3.446547	-0.606445	-0.688232	-0.291260	0.240518	-0.082599	0.054949	0.626256	0.167080	-0.748539	-0.139921	112.849784	-62.973636	-110.586329
32155		25.950663	-3.799055	1.913010	-5.782586	-14.038220	11.656570	0.117116	0.068017	3.978715	-0.621338	-0.655273	-0.287109	0.260200	-0.032830	0.019021	0.629087	0.152467	-0.751602	-0.126879	114.743039	-65.087996	-112.619500
32156		21.108078	-7.229628	3.163511	-6.103004	-14.529180	6.293663	0.206337	-0.259576	4.085364	-0.640381	-0.624512	-0.281006	0.212458	-0.067998	0.031839	0.630412	0.137459	-0.755529	-0.113410	117.501039	-67.133115	-115.512845
32157		11.364656	-4.547949	0.242625	-1.904737	-8.054791	-0.792222	-0.044114	-0.494070	4.138512	-0.655273	-0.591553	-0.276855	0.114549	-0.043115	0.002718	0.630797	0.121275	-0.759757	-0.100774	120.991428	-69.077319	-119.302132
32158		11.758402	-3.203661	-0.850261	-1.104902	-6.510509	0.464464	-0.455161	-0.657579	3.864901	-0.679199	-0.556641	-0.274902	0.118201	-0.029775	-0.008045	0.630394	0.104695	-0.763819	-0.090678	124.906079	-70.739230	-123.754061
32159		8.893083	-4.387813	-1.494137	-0.027492	-6.544657	-2.214748	-0.684954	-0.679238	3.468697	-0.691162	-0.539063	-0.272949	0.089724	-0.042377	-0.014491	0.629636	0.088863	-0.767356	-0.082624	129.023697	-72.105764	-128.511882
32160		7.200840	-5.104759	-3.695797	2.361171	-6.664178	-3.364659	-0.483697	-0.566339	2.991001	-0.703125	-0.517090	-0.275146	0.072866	-0.050051	-0.036631	0.628829	0.075512	-0.770197	-0.075290	133.159611	-73.191005	-133.141436
32161		8.021674	-5.693850	-7.816430	6.143944	-7.350440	-1.683695	-0.445292	-0.525351	2.680091	-0.710938	-0.490723	-0.273193	0.081176	-0.056028	-0.077826	0.627925	0.063485	-0.772633	-0.068687	137.379463	-74.068405	-137.805077
32162		11.178616	-2.154916	-5.318153	2.944035	-4.183767	1.663790	-0.010612	-0.128014	2.551742	-0.722656	-0.475342	-0.271240	0.112083	-0.020123	-0.053109	0.628247	0.053436	-0.773797	-0.060736	141.590202	-74.967755	-142.186822
32163		9.007183	-3.378022	-3.239244	1.342435	-4.755331	-0.946250	0.171528	0.018632	2.241883	-0.732422	-0.459961	-0.269043	0.090440	-0.032740	-0.032429	0.628911	0.045203	-0.774354	-0.052936	145.674213	-75.746294	-146.305723
32164		9.893430	-2.571599	-4.847865	2.739784	-3.902400	0.446674	0.658374	0.196820	2.140892	-0.739990	-0.437988	-0.269287	0.099153	-0.024495	-0.048658	0.630038	0.038925	-0.774363	-0.043591	150.051273	-76.497886	-150.432016
32165		10.002007	-0.178062	-2.823549	0.750162	-1.268322	0.476559	0.974648	0.304038	1.975689	-0.751953	-0.420410	-0.260742	0.099987	-0.000655	-0.028393	0.631409	0.034309	-0.773968	-0.033446	154.614546	-77.183714	-154.544115
32166		10.826787	-0.664510	-0.820154	-1.344434	-1.601540	0.862409	0.860381	0.241082	1.783020	-0.759277	-0.407227	-0.256348	0.108311	-0.005644	-0.008358	0.632445	0.030056	-0.773636	-0.024427	159.128578	-77.713738	-158.669842
32167		11.713541	-0.435621	-0.141929	-2.160718	-1.244057	1.641454	0.499565	0.281124	1.640600	-0.761963	-0.391846	-0.263184	0.117164	-0.003391	-0.001593	0.633623	0.025222	-0.773040	-0.017178	163.411837	-78.171419	-162.756490
32168		10.651872	-0.920848	-0.536876	-1.528485	-1.486637	0.677791	0.318303	0.298750	1.433114	-0.773682	-0.381104	-0.256592	0.106573	-0.008436	-0.005542	0.634825	0.020609	-0.772298	-0.011352	167.288982	-78.544614	-166.535114
32169		10.151931	-1.688102	-0.893603	-1.037609	-2.083736	0.251597	0.413537	0.325882	1.216985	-0.774170	-0.365479	-0.252197	0.101605	-0.016244	-0.009136	0.636083	0.017140	-0.771409	-0.005772	170.853137	-78.861119	-169.927703
32170		9.857417	-0.917525	-0.701390	-1.153338	-1.188119	-0.027002	0.492894	0.313974	1.033998	-0.776855	-0.356689	-0.261230	0.098609	-0.008648	-0.007190	0.637250	0.014620	-0.770518	-0.000538	174.083981	-79.115531	-172.937716
32171		9.626172	0.569814	-0.448462	-1.364201	0.399110	-0.264496	0.355023	0.276061	0.897187	-0.777344	-0.345459	-0.267822	0.096229	0.006138	-0.004607	0.638268	0.012195	-0.769709	0.003794	176.993564	-79.312301	-175.692323
32172		9.624179	0.842207	-1.006082	-0.800123	0.767852	-0.163023	0.050982	0.241225	0.787693	-0.784424	-0.336670	-0.263428	0.096195	0.008804	-0.010175	0.639152	0.009214	-0.768998	0.006537	179.459567	-79.461674	-178.177806
32173		9.672771	0.241218	-1.955596	0.159696	0.261174	0.053971	-0.166383	0.231473	0.703721	-0.782227	-0.334473	-0.267822	0.096696	0.002736	-0.019670	0.640006	0.005868	-0.768304	0.008240	-178.367036	-79.588097	179.514960
32174		9.591757	-0.431312	-1.883057	0.136432	-0.348410	-0.035500	-0.137271	0.221141	0.651607	-0.795898	-0.328125	-0.268066	0.095910	-0.004014	-0.018934	0.640807	0.002810	-0.767634	0.009823	-176.321086	-79.693775	177.348878
32175		10.037801	-0.783734	-1.685647	-0.113596	-0.637491	0.375220	-0.032057	0.190385	0.612029	-0.791748	-0.316895	-0.268066	0.100385	-0.007533	-0.016951	0.641487	0.000247	-0.767044	0.011745	-174.279974	-79.770203	175.255599
32176		10.186833	-1.273587	-2.025993	0.218224	-1.055814	0.595749	0.060286	0.163338	0.585865	-0.796387	-0.314697	-0.274658	0.101888	-0.012431	-0.020347	0.642054	-0.001922	-0.766531	0.013875	-172.281185	-79.819523	173.253503
32177		10.173552	-1.467471	-2.420635	0.626874	-1.176709	0.662814	0.286773	0.132378	0.565599	-0.796875	-0.305908	-0.274658	0.101760	-0.014352	-0.024294	0.642503	-0.003280	-0.766090	0.016869	-170.187463	-79.840426	171.292868
32178		10.012592	-0.714490	-2.287807	0.525530	-0.362074	0.462956	0.542850	0.117816	0.574370	-0.792725	-0.296875	-0.270264	0.100132	-0.006795	-0.022956	0.642887	-0.003853	-0.765668	0.020811	-167.952097	-79.839202	169.331605
32179		10.000222	0.075570	-2.369259	0.601891	0.506656	0.434460	0.740189	0.103977	0.620959	-0.799805	-0.288330	-0.268311	0.099987	0.001154	-0.023741	0.643208	-0.003963	-0.765249	0.025718	-165.445933	-79.809479	167.215702
32180		10.541192	1.013297	-2.569505	0.682810	1.563447	0.949950	0.829942	0.071547	0.767211	-0.802246	-0.281738	-0.263916	0.105363	0.010644	-0.025689	0.643366	-0.004345	-0.764903	0.031378	-162.520727	-79.721601	164.720151
32181		10.781515	1.826163	-2.553691	0.591041	2.498562	1.119095	0.820749	0.044433	0.930842	-0.807373	-0.266357	-0.261719	0.107723	0.018868	-0.025484	0.643373	-0.005374	-0.764610	0.037587	-159.177571	-79.563404	161.798844
32182		10.641223	2.095298	-1.350953	-0.591034	2.823723	0.728981	0.724309	0.050985	1.134620	-0.812256	-0.257568	-0.259766	0.106287	0.021605	-0.013459	0.643335	-0.007497	-0.764281	0.044023	-155.440845	-79.332439	158.413743
32183		9.984629	2.093449	-0.756127	-1.069051	2.875462	-0.053879	0.447263	0.111555	1.316213	-0.810547	-0.241943	-0.259766	0.099701	0.021608	-0.007569	0.643449	-0.011214	-0.763770	0.050034	-151.442066	-79.043454	154.602438
32184		10.604219	1.062929	-2.098752	0.198413	2.128109	0.836905	0.122103	0.131194	1.428732	-0.813477	-0.226318	-0.266602	0.105949	0.011399	-0.021050	0.643556	-0.016415	-0.763236	0.055108	-147.561117	-78.684396	150.712105
32185		12.929494	-0.540991	-1.636031	-0.576344	0.905222	3.186785	0.118606	0.093382	1.494409	-0.822998	-0.213379	-0.262207	0.129323	-0.004434	-0.016424	0.643466	-0.021863	-0.762772	0.060430	-143.832485	-78.235522	146.974424
32186		14.243160	-1.395416	-1.098900	-1.289292	0.382409	4.477504	0.472849	0.078548	1.541851	-0.821289	-0.197754	-0.264404	0.142529	-0.012829	-0.011076	0.643303	-0.026350	-0.762201	0.067204	-140.138108	-77.717565	143.467968
32187		13.982588	-1.167650	-1.617507	-0.740509	0.845467	4.266540	0.964880	0.074936	1.575123	-0.824463	-0.171143	-0.262451	0.139906	-0.010496	-0.016280	0.643131	-0.029375	-0.761409	0.076002	-136.399962	-77.137164	140.202753
32188		13.285353	-0.236969	-2.233112	-0.061470	1.955636	3.518111	1.372890	0.103917	1.625279	-0.829834	-0.153564	-0.262695	0.132854	-0.001136	-0.022411	0.643044	-0.031290	-0.760290	0.086456	-132.626811	-76.504755	137.129198
32189		12.005503	1.401561	-2.132594	-0.052537	3.596452	1.921970	1.429113	0.150489	1.775465	-0.834961	-0.133545	-0.264893	0.119907	0.015233	-0.021310	0.642999	-0.033608	-0.758874	0.097634	-128.826551	-75.777409	134.056502
32190		11.465864	1.746454	-1.781160	-0.343150	4.041569	1.197813	1.288168	0.240327	2.018487	-0.835938	-0.109375	-0.262939	0.114452	0.018735	-0.017831	0.643064	-0.037344	-0.757098	0.108984	-125.000280	-74.924595	130.858337
32191		10.939131	2.296241	-2.252889	0.160197	4.780647	0.537473	1.072023	0.379373	2.311653	-0.839355	-0.075928	-0.271973	0.109072	0.024345	-0.022608	0.643353	-0.042952	-0.754813	0.120457	-121.124783	-73.919690	127.470500
32192		11.164467	2.240001	-3.411177	1.275478	5.201797	0.798830	0.884980	0.519139	2.610941	-0.856201	-0.049805	-0.274414	0.111249	0.024006	-0.034297	0.643832	-0.050369	-0.751994	0.132093	-117.308363	-72.747754	124.009890
32193		12.214851	1.922733	-3.129847	0.881590	5.445371	1.687455	0.876242	0.623996	2.899798	-0.853027	-0.018555	-0.283203	0.121753	0.021133	-0.031589	0.644368	-0.058957	-0.748600	0.144607	-113.595564	-71.387258	120.632570
32194		13.750680	1.901916	-1.054112	-1.368611	5.938657	2.703376	0.950434	0.662358	3.138922	-0.863281	0.016846	-0.290283	0.137150	0.021225	-0.010898	0.644730	-0.068216	-0.744768	0.158083	-110.147835	-69.847885	117.548859
32195		14.797881	2.772756	1.001196	-3.604628	7.199091	2.947688	0.949543	0.704060	3.318576	-0.864502	0.050049	-0.296875	0.147526	0.030132	0.009631	0.644911	-0.078157	-0.740514	0.172104	-107.028247	-68.160482	114.786957
32196		16.759941	4.758338	1.122006	-4.192681	10.150260	3.757867	0.744039	0.783144	3.460134	-0.861816	0.094727	-0.319092	0.166786	0.050433	0.010750	0.644977	-0.089329	-0.735894	0.185704	-104.299814	-66.361084	112.284554
32197		18.524454	5.324577	-0.452461	-2.902620	12.094079	4.917471	0.337355	0.825561	3.589852	-0.867676	0.134521	-0.325928	0.184229	0.056567	-0.005193	0.644677	-0.102298	-0.731202	0.198167	-102.078963	-64.453295	110.050685
32198		18.576691	4.985258	-1.898029	-1.359101	12.592863	4.784464	0.140656	0.809770	3.695226	-0.873779	0.172119	-0.341553	0.184725	0.053286	-0.019693	0.643888	-0.116236	-0.726449	0.210167	-100.273617	-62.454681	108.116132
32199		17.756553	5.618065	-3.544066	0.411350	13.580106	3.407948	0.225638	0.813353	3.771880	-0.868408	0.212402	-0.354980	0.176318	0.059554	-0.036093	0.642843	-0.130137	-0.721278	0.222654	-98.654634	-60.387422	106.414494
32200		17.857016	5.670930	-4.927095	1.843302	14.392083	3.022020	0.533009	0.830171	3.849721	-0.872559	0.261230	-0.370850	0.177227	0.060262	-0.049851	0.641723	-0.143302	-0.715386	0.236390	-97.055446	-58.256083	104.903336
32201		17.155979	5.565395	-4.775705	1.864880	14.414007	1.884267	1.111818	0.879423	3.844806	-0.876465	0.303223	-0.386475	0.170233	0.059202	-0.048185	0.640938	-0.154590	-0.708358	0.252049	-95.282621	-56.108978	103.545190
32202		18.348546	5.796618	-4.817550	1.759461	15.749529	2.115308	1.941649	0.999752	3.789898	-0.878174	0.347656	-0.408691	0.182095	0.061896	-0.048500	0.640999	-0.163107	-0.699625	0.270263	-93.134252	-53.974310	102.274154
32203		19.090777	7.581374	-4.491072	1.110354	18.038418	0.930580	2.709859	1.096660	3.807345	-0.875244	0.392334	-0.433105	0.189165	0.080034	-0.044886	0.641667	-0.169267	-0.689158	0.290987	-90.665375	-51.805060	101.117079
32204		19.466008	8.239635	-3.948983	0.347868	19.129383	-0.000397	2.855502	1.055694	3.952608	-0.881348	0.436768	-0.455322	0.192766	0.086781	-0.039293	0.641715	-0.175299	-0.678075	0.312549	-88.325331	-49.524359	100.199451
32205		20.845797	7.543123	-1.277203	-2.417171	19.407148	0.700080	2.339712	1.020131	4.237596	-0.878662	0.485840	-0.481934	0.206730	0.079974	-0.012912	0.640359	-0.183787	-0.667244	0.333089	-86.463745	-47.064057	99.491388
32206		24.126701	7.480507	1.417939	-5.439135	21.507177	2.345475	1.418273	1.218562	4.422820	-0.882568	0.528076	-0.508545	0.239618	0.080020	0.013271	0.638117	-0.196065	-0.656742	0.350794	-85.136422	-44.475050	98.764859
32207		24.626493	3.550581	-0.616183	-2.703567	20.241266	4.411217	0.224884	1.224340	4.517573	-0.884277	0.572266	-0.517578	0.245336	0.041063	-0.007622	0.634215	-0.212358	-0.647854	0.364638	-84.580442	-41.827462	98.127774
32208		22.901558	3.321234	-3.373164	0.298284	19.999925	2.299569	-0.201518	1.086528	4.544508	-0.879150	0.612549	-0.526611	0.227995	0.038366	-0.035009	0.628997	-0.229724	-0.639790	0.377172	-84.390075	-39.165382	97.647450
32209		17.698936	4.802360	-6.552227	3.730674	17.937014	-3.214366	-0.399199	0.667043	4.411511	-0.878418	0.650146	-0.529053	0.175655	0.051776	-0.066210	0.622156	-0.246371	-0.633239	0.388884	-84.522937	-36.607341	97.475993
32210		12.648784	6.816166	-6.656346	4.041600	15.253526	-8.497581	-0.128453	0.539202	3.677535	-0.872803	0.679199	-0.529297	0.125027	0.070427	-0.066947	0.616379	-0.259502	-0.627185	0.399216	-84.529540	-34.469929	97.350141
32211		13.857173	-10.597909	-4.933073	5.105224	6.683967	6.246832	0.411877	-0.043661	3.046779	-0.871338	0.701416	-0.533691	0.140174	-0.103750	-0.049515	0.610587	-0.267747	-0.622494	0.409874	-84.431749	-32.730511	97.581672
32212		14.138757	-4.632038	-3.150889	2.306977	10.135370	1.287788	1.480266	0.394469	2.900100	-0.876221	0.714600	-0.540527	0.141974	-0.044028	-0.032120	0.607700	-0.273107	-0.614303	0.422782	-83.560632	-31.043927	97.526608
32213		5.983646	7.217411	-4.563615	2.491296	9.478213	-13.373162	0.269752	-0.003835	1.361756	-0.878662	0.714600	-0.536133	0.059344	0.072641	-0.045537	0.605129	-0.276532	-0.611896	0.427705	-83.469823	-30.265267	97.631332
32214		4.151365	8.778507	-2.918393	0.833684	8.333573	-15.528384	-0.684141	0.027637	-0.151706	-0.889160	0.698730	-0.535889	0.041576	0.087653	-0.029490	0.604516	-0.278274	-0.613495	0.425144	-83.855672	-30.339497	97.606950
32215		3.372037	6.098675	-2.786217	1.326868	6.366247	-13.559247	-1.221943	-0.045823	-0.943116	-0.904053	0.676270	-0.518311	0.034013	0.060655	-0.028226	0.604630	-0.279045	-0.617552	0.418552	-84.549351	-30.876566	97.573136
32216		2.257420	2.611476	-1.972190	1.275254	3.569317	-11.012050	-1.352012	-0.083922	-1.445567	-0.912109	0.651611	-0.518311	0.022770	0.025817	-0.019888	0.605409	-0.278559	-0.622635	0.410136	-85.317300	-31.695315	97.548329
32217		1.407388	1.115680	-2.098759	1.745535	2.116136	-10.136831	-1.195407	-0.166193	-1.890973	-0.924561	0.624756	-0.509277	0.014195	0.010897	-0.021041	0.607034	-0.276012	-0.628210	0.400848	-86.021082	-32.779826	97.562805
32218		1.267359	1.018110	-2.269420	1.955679	1.973556	-10.083073	-0.971303	-0.244994	-2.380865	-0.934570	0.593506	-0.502686	0.012821	0.009919	-0.022727	0.609576	-0.271049	-0.634146	0.390907	-86.621041	-34.139555	97.630344
32219		1.422394	1.720475	-2.424448	2.009243	2.516965	-10.511539	-0.856120	-0.358040	-2.937929	-0.944336	0.555420	-0.495850	0.014517	0.016889	-0.024291	0.612918	-0.263692	-0.640843	0.379628	-87.202373	-35.828399	97.768660
32220		1.646843	2.303691	-2.646782	2.138968	3.089993	-10.761428	-0.673877	-0.441632	-3.495824	-0.958496	0.517578	-0.495605	0.016925	0.022654	-0.026508	0.617085	-0.253759	-0.647995	0.367308	-87.720266	-37.829930	97.978107
32221		1.561538	3.056204	-2.502634	1.917647	3.497027	-11.273294	-0.499195	-0.517013	-4.028509	-0.960938	0.462158	-0.497314	0.016291	0.030176	-0.025060	0.622013	-0.241329	-0.655510	0.353788	-88.190800	-40.144156	98.252249
32222		2.015897	3.987158	-2.193093	1.447221	4.448664	-11.510292	-0.455511	-0.578167	-4.552022	-0.977051	0.417480	-0.497314	0.021122	0.039348	-0.021961	0.627392	-0.226827	-0.663446	0.338774	-88.690823	-42.749601	98.603861
32223		3.104730	4.160443	-2.156271	1.268496	5.410093	-10.657356	-0.514450	-0.644311	-5.032034	-0.981689	0.361816	-0.492432	0.032149	0.040749	-0.021566	0.632959	-0.210672	-0.671859	0.321847	-89.308010	-45.635837	99.048106
32224		4.609469	3.565393	-2.365616	1.381704	6.060975	-8.863280	-0.540684	-0.671818	-5.442352	-0.988525	0.303955	-0.492188	0.047120	0.034317	-0.023593	0.638591	-0.193031	-0.680349	0.303425	-90.023495	-48.745497	99.592363
32225		5.923329	2.798789	-2.281059	1.247369	6.226414	-7.022502	-0.423341	-0.700920	-5.770289	-0.985840	0.239746	-0.493896	0.060086	0.026214	-0.022658	0.644249	-0.173701	-0.688541	0.284047	-90.793847	-52.046011	100.259699
32226		6.674706	2.021750	-2.320915	1.296923	5.877314	-5.595422	-0.338291	-0.775483	-5.998613	-0.992676	0.181885	-0.484863	0.067402	0.018163	-0.022981	0.649455	-0.153054	-0.696430	0.264135	-91.706263	-55.461660	101.142558
32227		7.538140	1.651663	-2.336643	1.256253	5.763503	-4.317692	-0.215207	-0.881266	-6.222183	-0.978760	0.115479	-0.484375	0.075948	0.014135	-0.023049	0.654086	-0.130943	-0.704028	0.243658	-92.849614	-59.001464	102.338229
32228		8.524380	1.703655	-2.367915	1.154500	5.926436	-3.127522	-0.061204	-0.984618	-6.473806	-0.980957	0.051270	-0.481689	0.085851	0.014257	-0.023262	0.658069	-0.107184	-0.711203	0.222816	-94.319934	-62.657508	103.973971
32229		9.577052	1.814535	-2.403641	1.034222	6.019311	-1.847075	0.075095	-1.076991	-6.738269	-0.973633	-0.019775	-0.472412	0.096437	0.014912	-0.023512	0.661371	-0.081814	-0.717899	0.201286	-96.341376	-66.442421	106.242616
32230		10.750457	2.072411	-2.377404	0.808519	6.110006	-0.459448	0.195838	-1.179509	-6.983398	-0.950439	-0.099121	-0.458740	0.108279	0.016975	-0.023119	0.663789	-0.054965	-0.724031	0.179283	-99.303373	-70.304796	109.540982
32231		12.011478	1.959755	-2.601312	0.868367	5.727544	1.199020	0.264297	-1.302900	-7.228061	-0.922607	-0.176514	-0.440674	0.120885	0.015271	-0.025205	0.665144	-0.026820	-0.729658	0.156410	-104.088801	-74.209874	114.704935
32232		13.542051	1.365139	-2.589890	0.747085	4.662097	3.209488	0.306974	-1.421025	-7.434533	-0.877197	-0.248779	-0.428955	0.135983	0.008641	-0.024918	0.665304	0.002347	-0.734642	0.132913	-112.452504	-77.999227	123.489865
32233		15.548789	0.094470	-2.386199	0.521376	2.668900	5.677732	0.327528	-1.507370	-7.606613	-0.830078	-0.308105	-0.404297	0.155549	-0.004934	-0.022694	0.664284	0.032270	-0.738843	0.108612	-128.589844	-81.345187	140.057062
32234		18.027854	-1.621231	-2.243600	0.419889	-0.093300	8.416733	0.379291	-1.626240	-7.766211	-0.769043	-0.375732	-0.388184	0.179644	-0.023157	-0.021013	0.661883	0.062967	-0.742231	0.083898	-159.427365	-83.268304	171.369832
32235		20.348333	-3.346169	-2.286519	0.557470	-3.259539	10.664548	0.476639	-1.801750	-7.905810	-0.692871	-0.425293	-0.363525	0.202146	-0.041420	-0.021132	0.657783	0.094478	-0.744943	0.058783	163.965127	-82.362567	-151.494366
32236		22.339888	-3.357818	-2.732746	0.772281	-5.012053	12.364205	0.645770	-2.034604	-8.022768	-0.624268	-0.461914	-0.343262	0.222079	-0.042422	-0.025191	0.651674	0.126888	-0.747046	0.033817	142.253861	-79.186223	-129.145439
32237		24.394473	-1.839162	-2.863230	0.280159	-5.704626	14.139432	0.592991	-2.268154	-8.110401	-0.544434	-0.493652	-0.327393	0.243238	-0.028187	-0.025944	0.643583	0.159271	-0.748578	0.008057	131.627554	-75.040886	-117.920198
32238		26.486357	-0.709288	-2.607943	-0.566050	-7.224754	15.797842	0.166604	-2.492212	-8.065986	-0.478760	-0.505859	-0.320557	0.264589	-0.017750	-0.022792	0.633866	0.189842	-0.749535	-0.019243	125.982128	-70.545086	-111.921884
32239		29.177524	-2.760290	-0.790082	-2.196232	-12.500175	16.607268	-0.431800	-2.473928	-7.787504	-0.422607	-0.507080	-0.318115	0.290473	-0.038944	-0.004226	0.623693	0.217149	-0.749369	-0.047949	122.389433	-66.054053	-108.339297
32240		30.958001	-4.471253	3.336182	-5.982484	-17.594189	15.558766	-0.738461	-2.249489	-7.213110	-0.381836	-0.512939	-0.309326	0.307300	-0.055692	0.037019	0.613888	0.241066	-0.747873	-0.075599	119.861878	-61.856818	-106.005788
32241		32.186968	-7.224886	5.180306	-7.286507	-22.620031	13.636897	-1.614782	-2.116755	-6.290103	-0.347900	-0.521240	-0.306885	0.318819	-0.081869	0.055824	0.605158	0.258581	-0.745791	-0.103514	117.773535	-58.114974	-104.677601
32242		29.760379	-13.365423	5.409132	-5.882150	-27.799468	7.095255	-2.672857	-1.877551	-5.176156	-0.334229	-0.527588	-0.319824	0.293489	-0.140522	0.058707	0.598655	0.268595	-0.743084	-0.131508	115.682216	-54.990600	-104.014782
32243		23.295045	-21.413422	0.905694	0.655283	-30.850430	-2.770988	-3.712910	-1.738979	-3.991856	-0.315430	-0.546875	-0.337402	0.228505	-0.218482	0.015086	0.594298	0.270953	-0.740223	-0.159575	113.494531	-52.499855	-103.952975
32244		15.513257	-32.877124	-1.162254	5.220991	-35.412082	-16.245662	-3.669569	-1.461578	-2.826125	-0.310547	-0.553467	-0.343750	0.150515	-0.331046	-0.004451	0.591440	0.269156	-0.737624	-0.183477	111.587133	-50.692164	-104.210108
32245		14.167225	-42.622312	0.990557	3.995541	-42.221209	-24.631674	-2.450490	-1.033048	-1.490544	-0.299072	-0.557617	-0.348145	0.138420	-0.427093	0.015856	0.589493	0.266321	-0.736373	-0.198306	110.479599	-49.689313	-104.606362
32246		16.967786	-42.935009	2.958395	0.961686	-44.161275	-23.557418	-0.708694	-0.385378	0.215608	-0.306152	-0.553467	-0.348145	0.170081	-0.429058	0.031432	0.589240	0.262947	-0.737117	-0.200783	110.370171	-49.737057	-105.003399
32247		21.579656	-35.392071	2.358294	-0.646890	-41.202763	-14.881076	0.079516	0.010000	2.165740	-0.333740	-0.538330	-0.343994	0.219613	-0.351566	0.023432	0.591328	0.255087	-0.740001	-0.194061	110.939552	-50.910517	-105.690579
32248		21.686588	-27.724586	2.319004	-1.963673	-35.212856	-9.184622	0.024360	0.315421	3.698092	-0.363037	-0.534424	-0.344238	0.221978	-0.273176	0.022809	0.595962	0.241631	-0.743709	-0.182594	111.725392	-52.958931	-106.678746
32249		34.991952	-21.926950	-0.675811	-2.530511	-37.688915	6.875603	-0.432717	0.019222	4.803877	-0.390869	-0.508545	-0.346680	0.355050	-0.210796	-0.006330	0.600792	0.222319	-0.748870	-0.169755	112.920758	-55.522765	-108.460084
32250		-2.165248	39.230057	-3.905146	-0.589136	34.656339	9.090473	-0.676459	-0.134468	3.867207	-0.409180	-0.502197	-0.355469	-0.029203	0.391649	-0.040395	0.604214	0.205543	-0.752880	-0.160778	113.978432	-57.533727	-110.199908
32251		18.010957	43.910788	-8.768583	0.695773	29.207479	28.602632	-2.134517	0.084297	1.982850	-0.422852	-0.493408	-0.362061	0.175713	0.439895	-0.092453	0.608274	0.191567	-0.752892	-0.162659	113.425092	-58.606463	-110.991777
32252		19.558613	7.674550	-2.793196	-1.486848	-2.645689	11.163760	-1.523513	0.701160	2.019140	-0.434326	-0.489258	-0.375488	0.194699	0.078495	-0.029209	0.613967	0.179778	-0.751415	-0.161556	112.698112	-59.836966	-111.168917
32253		21.603177	-5.747489	8.053722	-11.402356	-14.760500	4.906725	-1.095688	0.729170	2.849177	-0.454834	-0.478516	-0.382080	0.217110	-0.053948	0.080049	0.619931	0.166167	-0.750783	-0.156202	112.509038	-61.516614	-111.675981
32254		24.202614	-10.401319	2.853716	-6.560765	-19.624957	6.735039	-0.796344	0.222169	3.807309	-0.482666	-0.461182	-0.380127	0.243978	-0.099267	0.028668	0.624284	0.149441	-0.752515	-0.147164	113.475065	-63.583378	-113.285533
32255		23.870157	-7.155581	3.687887	-7.619218	-15.765632	8.295237	-0.342692	-0.304499	3.942062	-0.510498	-0.435059	-0.375977	0.239992	-0.066770	0.037361	0.626188	0.133176	-0.756029	-0.136281	115.598845	-65.579319	-115.856316
32256		13.327588	-3.605055	-0.510506	-1.865206	-8.101058	1.221339	-0.465794	-0.703438	3.957819	-0.524658	-0.419922	-0.371826	0.133971	-0.033415	-0.004555	0.626406	0.116141	-0.760415	-0.126077	118.543339	-67.424138	-119.364293
32257		10.963366	-4.395006	-2.322137	0.223951	-7.754451	-0.609107	-0.637754	-0.774424	3.667350	-0.552246	-0.405029	-0.367676	0.110504	-0.042002	-0.022659	0.626045	0.099581	-0.764445	-0.117365	121.802998	-69.031830	-123.268536
32258		8.355027	-7.946879	-1.331516	-0.354524	-10.047549	-4.012680	-0.326623	-0.529452	3.394037	-0.571045	-0.385254	-0.365479	0.084918	-0.078057	-0.012963	0.626077	0.085152	-0.767506	-0.108221	125.232541	-70.493676	-127.129344
32259		9.220453	-6.537086	-2.990524	1.021656	-8.807302	-2.192278	0.447315	-0.287546	2.999085	-0.584961	-0.372314	-0.359131	0.093213	-0.063911	-0.029916	0.626343	0.074767	-0.769849	-0.097142	128.936421	-71.778204	-130.772666
