// General information: 
//  MT Manager version: 2019.2.0 
//  XDA version: 2019.2.0 build 3853 rev 94535 built on 2019-09-09
// Device information: 
//  DeviceId: 00B40AC5
//  ProductCode: MTW2-3A7G6
//  Firmware Version: 4.3.5
//  Hardware Version: 1.1.0
// Device settings: 
//  Filter Profile: human(46.1)
//  Option Flags: Orientation Smoother Disabled, AHS Disabled, ICC Disabled
// Coordinate system: ENU
PacketCounter	SampleTimeFine	Acc_X	Acc_Y	Acc_Z	FreeAcc_E	FreeAcc_N	FreeAcc_U	Gyr_X	Gyr_Y	Gyr_Z	Mag_X	Mag_Y	Mag_Z	VelInc_X	VelInc_Y	VelInc_Z	Quat_q0	Quat_q1	Quat_q2	Quat_q3	Roll	Pitch	Yaw
10983		3.956522	6.643895	6.733130	2.925624	-1.733816	-0.139803	-0.421739	-0.512917	0.283236	-0.563477	-0.118164	-0.373535	0.039298	0.066637	0.067292	0.471825	-0.109117	-0.277683	-0.829679	23.523634	-26.301804	-126.317896
10984		8.996512	1.372459	9.298814	-4.345401	-1.796735	2.318996	-0.245518	-0.305896	0.247702	-0.563477	-0.115967	-0.380371	0.089806	0.013950	0.093109	0.472288	-0.111423	-0.277268	-0.829248	23.349672	-26.531819	-126.251739
10985		5.450159	4.363172	7.244167	0.259592	-1.580027	0.119862	-0.078951	-0.072911	0.238017	-0.572754	-0.109375	-0.387207	0.054423	0.043725	0.072444	0.473141	-0.112513	-0.277041	-0.828690	23.243347	-26.656239	-126.130400
10986		5.991296	5.503036	7.291724	0.965574	-2.391035	0.803281	-0.135152	-0.136256	0.236055	-0.574951	-0.111816	-0.385010	0.059798	0.055150	0.072921	0.473849	-0.113838	-0.276689	-0.828222	23.115528	-26.794009	-126.026944
10987		5.530346	5.230684	8.307746	0.945504	-1.364728	1.332123	-0.235820	-0.150329	0.307756	-0.579590	-0.107178	-0.391602	0.055160	0.052490	0.083057	0.474790	-0.115717	-0.275958	-0.827666	22.908981	-26.974507	-125.883125
10988		5.001839	3.418037	8.644734	-0.298888	-0.067988	0.739029	-0.181824	-0.119138	0.307593	-0.588379	-0.107422	-0.389404	0.049914	0.034336	0.086446	0.475788	-0.117179	-0.275328	-0.827097	22.732099	-27.118552	-125.731717
10989		4.656084	2.919195	8.967956	-0.535055	0.570705	0.676023	-0.012320	-0.060507	0.227040	-0.588623	-0.100830	-0.387451	0.046501	0.029250	0.089692	0.476645	-0.118042	-0.275354	-0.826472	22.664174	-27.232945	-125.612220
10990		4.757630	3.238914	8.857074	-0.293524	0.319224	0.741235	0.070523	-0.092031	0.170569	-0.602051	-0.103271	-0.385254	0.047508	0.032398	0.088604	0.477260	-0.118602	-0.275783	-0.825894	22.665250	-27.332039	-125.534832
10991		5.247781	3.011258	8.405599	-0.700813	-0.182642	0.518646	0.128985	-0.132445	0.116853	-0.599854	-0.103027	-0.378662	0.052405	0.030089	0.084110	0.477645	-0.119272	-0.276626	-0.825292	22.715967	-27.459873	-125.498478
10992		5.598211	2.551331	8.203473	-1.258152	-0.346952	0.357998	0.199940	-0.199040	0.090066	-0.600098	-0.094238	-0.381104	0.055889	0.025456	0.082116	0.477855	-0.119854	-0.277892	-0.824661	22.825449	-27.597775	-125.495844
10993		5.234004	2.367249	8.359692	-1.238048	0.114017	0.253952	0.276526	-0.291606	0.053004	-0.604736	-0.089844	-0.367920	0.052212	0.023571	0.083706	0.477843	-0.120739	-0.279759	-0.823907	22.996851	-27.795531	-125.537920
10994		5.390820	3.226555	8.484546	-0.598112	-0.213505	0.725604	0.327181	-0.353809	0.023436	-0.613770	-0.092285	-0.361328	0.053754	0.032133	0.084993	0.477635	-0.121561	-0.281957	-0.823158	23.216660	-28.000024	-125.615300
10995		4.613334	4.003465	8.615246	0.452190	0.176820	0.737055	0.330197	-0.384179	0.009102	-0.609375	-0.087891	-0.350342	0.045966	0.039894	0.086307	0.477340	-0.122636	-0.284288	-0.822367	23.443279	-28.236230	-125.708930
10996		4.567307	4.532779	8.324802	0.943984	-0.108164	0.666133	0.288379	-0.415956	0.017284	-0.609375	-0.090088	-0.343506	0.045496	0.045212	0.083408	0.476989	-0.123796	-0.286474	-0.821638	23.651825	-28.471425	-125.808263
10997		4.798060	4.103346	7.902214	0.490529	-0.303630	0.285373	0.244446	-0.400757	0.055177	-0.607178	-0.085693	-0.337158	0.047811	0.040950	0.079168	0.476800	-0.125205	-0.288460	-0.820838	23.820225	-28.726062	-125.880999
10998		4.492221	4.056515	8.160484	0.595862	0.132401	0.329113	0.183270	-0.398215	0.094156	-0.602783	-0.083252	-0.337158	0.044740	0.040511	0.081731	0.476719	-0.126651	-0.290121	-0.820078	23.945832	-28.969279	-125.931692
10999		4.653567	4.177515	8.243971	0.626002	0.070221	0.515594	0.133042	-0.392837	0.146486	-0.603027	-0.078857	-0.328369	0.046343	0.041754	0.082559	0.476840	-0.128422	-0.291571	-0.819217	24.024291	-29.240510	-125.949218
11000		4.968005	4.822527	7.874963	1.063194	-0.571819	0.603422	0.070673	-0.392217	0.216823	-0.603027	-0.076660	-0.321777	0.049473	0.048251	0.078864	0.477194	-0.130289	-0.292675	-0.818323	24.049368	-29.509097	-125.925655
11001		6.219362	4.416648	7.241079	0.152847	-1.644230	0.574488	-0.049950	-0.363705	0.290751	-0.596436	-0.069824	-0.324219	0.061998	0.044275	0.072513	0.477823	-0.132583	-0.293210	-0.817395	23.976663	-29.798450	-125.848826
11002		5.923325	3.817806	7.616376	-0.194183	-0.958385	0.517570	-0.111427	-0.274446	0.336279	-0.596680	-0.067627	-0.317627	0.059064	0.038320	0.076224	0.478712	-0.134577	-0.293206	-0.816550	23.845070	-30.033044	-125.720714
11003		5.294641	4.538688	7.743293	0.782769	-0.684408	0.556024	-0.148435	-0.206439	0.387101	-0.592529	-0.056641	-0.324707	0.052778	0.045547	0.077454	0.479894	-0.136604	-0.292897	-0.815631	23.664204	-30.261980	-125.541757
11004		5.095787	4.716473	7.971888	1.074738	-0.454545	0.694511	-0.210226	-0.233766	0.484842	-0.592529	-0.056641	-0.329346	0.050750	0.047372	0.079729	0.481375	-0.138884	-0.292287	-0.814591	23.422690	-30.508491	-125.310040
11005		4.033298	4.332721	8.489328	1.302767	0.769166	0.425454	-0.201492	-0.257821	0.518104	-0.590576	-0.049805	-0.331787	0.040111	0.043517	0.084901	0.482969	-0.141435	-0.291791	-0.813385	23.174868	-30.792708	-125.061708
11006		5.020132	3.436476	8.413728	0.100182	0.378645	0.562675	-0.174969	-0.362951	0.523926	-0.592773	-0.049805	-0.336182	0.049958	0.034569	0.084198	0.484436	-0.144210	-0.291603	-0.812092	22.954679	-31.114415	-124.836020
11007		4.550434	3.596354	8.446829	0.526932	0.705149	0.395835	-0.100751	-0.383045	0.517880	-0.595215	-0.045410	-0.340820	0.045249	0.036123	0.084537	0.485907	-0.147019	-0.291811	-0.810633	22.777069	-31.462638	-124.616374
11008		4.630642	3.690772	8.409392	0.627263	0.628643	0.433946	-0.093359	-0.425024	0.532137	-0.597656	-0.036621	-0.345459	0.046029	0.037070	0.084175	0.487363	-0.149857	-0.292092	-0.809137	22.604950	-31.817703	-124.397592
11009		5.592779	3.179936	8.044009	-0.207169	-0.049537	0.485443	-0.089506	-0.447021	0.538398	-0.600098	-0.032227	-0.345703	0.055662	0.031985	0.080550	0.488819	-0.152920	-0.292476	-0.807545	22.431146	-32.202712	-124.177530
11010		6.319702	2.763043	7.826692	-0.851128	-0.507882	0.572272	-0.089006	-0.457341	0.529988	-0.604492	-0.034424	-0.347900	0.062944	0.027832	0.078399	0.490210	-0.155871	-0.292847	-0.806002	22.261977	-32.573308	-123.964118
11011		6.445268	2.541771	7.464018	-1.034333	-0.701027	0.294339	-0.007105	-0.490676	0.485989	-0.606934	-0.027832	-0.343506	0.064207	0.025577	0.074797	0.491442	-0.158828	-0.293703	-0.804361	22.154387	-32.969079	-123.783989
11012		5.795644	2.276810	8.181106	-0.940278	0.341713	0.419741	0.030570	-0.532248	0.447839	-0.622803	-0.025879	-0.348145	0.057687	0.022885	0.081968	0.492473	-0.161663	-0.294796	-0.802764	22.088379	-33.360998	-123.638361
11013		5.103033	3.182382	8.391980	0.223677	0.705986	0.485124	0.064603	-0.593810	0.430295	-0.622803	-0.023438	-0.348145	0.050712	0.031906	0.084081	0.493373	-0.164773	-0.296228	-0.801051	22.052259	-33.799193	-123.517401
11014		5.251109	3.178542	8.357674	0.201473	0.648282	0.534608	0.037710	-0.710194	0.435719	-0.634033	-0.025879	-0.341553	0.052144	0.031884	0.083768	0.494083	-0.168280	-0.297789	-0.799303	22.017444	-34.282831	-123.423501
11015		5.060595	3.327888	8.286837	0.478146	0.761576	0.412124	0.055088	-0.811761	0.457684	-0.640869	-0.021484	-0.334961	0.050193	0.033371	0.083082	0.494743	-0.172317	-0.299684	-0.797324	21.995125	-34.842200	-123.339594
11016		4.223529	3.633882	8.653387	1.178567	1.557257	0.292230	0.036830	-0.944830	0.485148	-0.647461	-0.023926	-0.332764	0.041738	0.036425	0.086739	0.495275	-0.176829	-0.301766	-0.795218	21.974227	-35.461033	-123.273346
11017		4.726791	3.269336	8.830144	0.692742	1.552095	0.585016	0.048440	-1.121779	0.533398	-0.654297	-0.021729	-0.328369	0.046684	0.032797	0.088572	0.495733	-0.182215	-0.304315	-0.792741	21.964480	-36.200740	-123.219952
11018		5.409931	2.884324	8.482204	0.125903	1.106575	0.593662	0.092265	-1.363477	0.584828	-0.670166	-0.021973	-0.319580	0.053435	0.028961	0.085201	0.496035	-0.188387	-0.307538	-0.789861	22.000579	-37.063377	-123.198318
11019		5.274927	2.977498	8.885236	0.355253	1.589355	0.816637	0.110540	-1.635749	0.643286	-0.683594	-0.017822	-0.306396	0.051924	0.029894	0.089296	0.496140	-0.195794	-0.311466	-0.786447	22.064938	-38.099183	-123.210279
11020		5.731251	2.184034	8.847550	-0.455343	1.690907	0.809261	0.124770	-1.945411	0.717075	-0.688232	-0.015625	-0.286377	0.056370	0.021988	0.089041	0.496012	-0.204351	-0.316083	-0.782499	22.164580	-39.299277	-123.261472
11021		4.569256	2.011612	9.283423	-0.002349	3.009131	0.289114	0.212241	-2.296252	0.764811	-0.706543	-0.004883	-0.271240	0.044545	0.020189	0.093371	0.495549	-0.214237	-0.321851	-0.777783	22.357227	-40.711111	-123.381861
11022		4.629943	1.610733	9.393717	-0.272179	3.410629	0.215218	0.304946	-2.710415	0.824764	-0.722168	-0.007324	-0.251221	0.044954	0.016151	0.094577	0.494655	-0.225437	-0.328855	-0.772236	22.669020	-42.339437	-123.594400
11023		4.121429	1.376673	9.890367	-0.138032	4.438720	0.034602	0.450530	-3.163942	0.876956	-0.733887	0.005859	-0.214111	0.039582	0.013719	0.099569	0.493270	-0.238178	-0.337425	-0.765572	23.148519	-44.232209	-123.926708
11024		3.532551	2.245358	9.889761	1.026430	4.864149	-0.294283	0.610995	-3.706154	0.988974	-0.749512	0.005615	-0.183105	0.033374	0.022318	0.099596	0.491419	-0.252589	-0.347681	-0.757512	23.826445	-46.418349	-124.393028
11025		3.263589	2.955544	9.944852	1.935158	5.235120	-0.479144	0.725100	-4.281412	1.206959	-0.758789	0.009766	-0.143311	0.030318	0.029381	0.100221	0.489329	-0.269273	-0.359362	-0.747602	24.647772	-48.965173	-124.950545
11026		3.321255	2.347510	10.370223	1.542198	6.120566	-0.635758	0.783798	-4.884121	1.532930	-0.774902	0.024902	-0.097168	0.030487	0.023307	0.104561	0.487151	-0.288382	-0.372073	-0.735582	25.569622	-51.884577	-125.568573
11027		2.700003	2.429024	9.502954	1.971970	6.126263	-1.935674	0.870499	-5.464550	1.946323	-0.780029	0.040283	-0.044678	0.024154	0.024119	0.095821	0.485177	-0.310055	-0.385634	-0.720941	26.567158	-55.211481	-126.196213
11028		3.453877	1.846399	8.611651	1.301524	5.585146	-2.290724	0.911677	-6.078394	2.441377	-0.791748	0.057861	0.010254	0.031674	0.018466	0.087192	0.483377	-0.334392	-0.399683	-0.703407	27.615616	-58.961757	-126.826940
11029		1.355006	4.637054	11.892508	5.102742	9.237798	-2.510966	0.734038	-7.099542	2.712197	-0.794678	0.075195	0.084961	0.008689	0.046073	0.119461	0.479529	-0.362977	-0.414569	-0.682959	29.049081	-63.302586	-127.999452
11030		5.130077	7.105679	10.135465	6.597449	6.431133	-0.089781	0.206525	-8.571748	2.935508	-0.791260	0.108398	0.163574	0.045846	0.071650	0.103472	0.471635	-0.397554	-0.430081	-0.659198	31.449551	-68.406090	-130.501994
11031		11.615945	11.762794	8.139901	9.900497	2.885443	5.450977	0.338244	-9.312932	3.355774	-0.767334	0.135254	0.242432	0.110206	0.119367	0.086825	0.462744	-0.434320	-0.445950	-0.631160	35.582591	-73.939900	-134.664152
11032		17.657879	9.436579	9.650404	7.612327	5.087460	10.428808	0.136796	-9.737333	3.940286	-0.737061	0.168701	0.327881	0.169701	0.097685	0.104946	0.453087	-0.472997	-0.459743	-0.599685	43.404743	-79.706625	-142.610506
11033		21.453611	11.160917	7.561391	9.690355	4.243331	13.198679	0.606891	-9.596852	4.383243	-0.697754	0.202148	0.406494	0.208062	0.115967	0.086052	0.444941	-0.509921	-0.472289	-0.564758	66.986238	-85.033209	-166.025267
11034		25.411575	16.136303	9.304834	16.027637	7.145526	16.340303	0.043741	-9.064331	4.798620	-0.651855	0.238281	0.469727	0.245588	0.167303	0.104347	0.436566	-0.546153	-0.479727	-0.530084	150.830888	-86.267564	109.990286
11035		16.148166	12.745895	8.296198	14.083871	7.741575	5.463019	-0.182677	-9.346921	5.129322	-0.592285	0.271973	0.532959	0.154039	0.131555	0.090160	0.426577	-0.582927	-0.484957	-0.492997	-172.718907	-81.303960	73.262149
11036		18.810345	8.030167	13.065887	11.398115	14.812532	5.650218	0.261350	-9.754604	5.216641	-0.523926	0.308350	0.598145	0.179261	0.084877	0.139658	0.415840	-0.618233	-0.490463	-0.452008	-163.917929	-75.194940	64.435181
11037		23.159319	11.241563	17.894527	16.696127	21.262483	6.038015	1.908866	-8.790898	4.788221	-0.464844	0.353271	0.629883	0.220655	0.116009	0.189903	0.410414	-0.645117	-0.497617	-0.409587	-159.590331	-69.540771	61.042909
11038		17.052338	8.238268	14.641597	12.750237	17.951768	-0.435759	3.224603	-6.089421	3.856224	-0.423340	0.389404	0.637451	0.164336	0.083162	0.152820	0.413179	-0.660131	-0.503895	-0.373631	-155.992685	-65.462356	59.146574
11039		24.346109	9.108214	15.766784	15.253594	22.285154	4.143175	4.298040	-3.886985	3.179887	-0.393555	0.432129	0.620605	0.238859	0.091421	0.164303	0.423243	-0.666182	-0.509190	-0.343210	-152.171374	-62.660650	57.632208
11040		35.997453	29.952019	28.665986	38.417619	36.749716	3.904762	3.075633	0.661165	1.386812	-0.407471	0.445313	0.600098	0.358862	0.297568	0.290058	0.437423	-0.662040	-0.508385	-0.334528	-148.722382	-62.585709	55.728411
11041		12.388210	26.676705	18.221229	28.974178	18.788019	-11.953251	0.706698	3.948414	-0.023167	-0.434326	0.442627	0.571289	0.127490	0.266112	0.180660	0.449643	-0.653658	-0.500927	-0.345867	-145.897723	-64.506519	53.021640
11042		11.032183	21.322107	14.481361	23.682960	15.000452	-9.662001	-1.873858	4.946514	-0.399130	-0.465088	0.424561	0.549805	0.114252	0.214323	0.140015	0.454997	-0.648159	-0.487711	-0.367433	-143.778375	-66.944008	49.515466
11043		7.406709	11.943427	9.705838	13.942047	9.767798	-8.461259	-3.400871	5.524591	-0.380377	-0.493896	0.413330	0.525635	0.076901	0.120893	0.092912	0.456483	-0.644389	-0.469903	-0.394433	-141.347675	-69.609806	44.798639
11044		4.347223	3.235228	7.480490	4.944831	7.641200	-8.247000	-3.486363	5.722826	-0.497097	-0.522705	0.395264	0.501953	0.045660	0.033523	0.072941	0.457401	-0.639605	-0.451320	-0.421902	-137.834223	-72.282500	38.965675
11045		2.966618	-2.399691	6.301316	-0.718980	7.033933	-7.748664	-2.440065	5.903839	-0.965415	-0.555908	0.385986	0.462158	0.031400	-0.023382	0.062391	0.460633	-0.630108	-0.435546	-0.448421	-132.414206	-75.096551	31.862423
11046		3.122704	-4.857989	6.267728	-2.944243	7.407549	-6.798468	-0.792616	6.122798	-1.547564	-0.577881	0.368164	0.422852	0.032754	-0.048583	0.061883	0.467715	-0.614599	-0.424338	-0.472704	-123.635358	-77.955048	22.368106
11047		3.941336	-4.554407	6.769535	-2.450538	7.720051	-5.753104	0.930104	6.449541	-2.081533	-0.606689	0.358887	0.358887	0.041085	-0.046276	0.066174	0.479065	-0.592284	-0.417608	-0.495279	-108.138965	-80.684900	7.148682
11048		4.920903	-1.434749	7.258881	0.620235	7.341458	-4.848016	2.140198	6.858338	-2.463587	-0.631348	0.352051	0.305908	0.051467	-0.015736	0.070686	0.493228	-0.564694	-0.413491	-0.516596	-81.117326	-82.449112	-18.919452
11049		5.735019	1.530242	7.505436	3.353707	6.701864	-3.867012	2.554537	7.243867	-2.688552	-0.657471	0.332031	0.235596	0.060212	0.013564	0.073088	0.508068	-0.533526	-0.409468	-0.538102	-46.772322	-81.995458	-52.086862
11050		6.515673	3.016591	7.727754	4.556757	6.206992	-2.607288	2.414965	7.564998	-2.813712	-0.672852	0.318604	0.174072	0.068432	0.028303	0.075079	0.521933	-0.500904	-0.403912	-0.559944	-22.310796	-79.291508	-75.464197
11051		6.678354	3.213368	7.858150	4.388159	5.772990	-1.811175	2.029774	7.794515	-2.894784	-0.678955	0.296631	0.114990	0.070233	0.030352	0.076203	0.534175	-0.467327	-0.396123	-0.582537	-8.608882	-75.390704	-88.301967
11052		6.181525	2.185317	7.649436	2.961101	5.249125	-1.743156	1.654776	7.871133	-2.969374	-0.682861	0.281006	0.051025	0.065074	0.020283	0.074148	0.544453	-0.433776	-0.386521	-0.604988	-0.821873	-71.039679	-95.442730
11053		5.596009	0.595850	7.481588	1.021926	4.867460	-1.884466	1.468089	7.751886	-3.019951	-0.688477	0.250244	-0.012207	0.058879	0.004545	0.072608	0.552994	-0.399935	-0.376047	-0.626769	4.184421	-66.525287	-99.901991
11054		4.995623	-1.109817	7.756545	-0.955383	4.968493	-2.021061	1.536923	7.485985	-3.065615	-0.683350	0.232666	-0.062500	0.052625	-0.012477	0.075536	0.560035	-0.366232	-0.366005	-0.646742	7.761132	-62.087821	-102.895313
11055		4.783067	-2.442964	8.370641	-2.584518	5.189545	-1.734328	1.813858	7.123594	-3.138881	-0.687012	0.203857	-0.119141	0.050366	-0.025954	0.081711	0.565789	-0.331895	-0.357347	-0.664855	10.756567	-57.745934	-105.148158
11056		5.568304	-2.046049	9.222920	-2.696091	4.885300	-0.375175	2.161840	6.778547	-3.254576	-0.679199	0.172852	-0.168945	0.058406	-0.022378	0.090045	0.570211	-0.297289	-0.350515	-0.680895	13.466602	-53.569699	-106.932926
11057		6.827974	0.008376	10.693605	-1.417961	4.488686	1.966143	2.294373	6.461168	-3.349014	-0.675537	0.133057	-0.214111	0.071660	-0.002307	0.104640	0.573117	-0.262473	-0.344579	-0.695636	15.949492	-49.476568	-108.417957
11058		8.878210	2.551735	12.192700	-0.045304	3.340870	5.111292	2.113110	6.243853	-3.434047	-0.671875	0.095459	-0.263916	0.092941	0.022675	0.119318	0.574288	-0.228717	-0.338337	-0.709514	18.067837	-45.492734	-109.653081
11059		10.451905	5.233978	13.919265	1.314556	2.326867	8.162134	1.650058	6.142279	-3.558736	-0.648438	0.067139	-0.313721	0.109630	0.049286	0.136293	0.573541	-0.195820	-0.330336	-0.723591	19.770855	-41.476201	-110.747131
11060		12.360309	6.542485	15.774162	1.053238	0.994482	11.213840	1.073272	6.034310	-3.809359	-0.628906	0.022949	-0.352051	0.129497	0.062161	0.154233	0.570389	-0.164606	-0.320462	-0.738150	21.074126	-37.487199	-111.834683
11061		15.240669	5.699837	16.458505	-1.612752	-1.862440	13.194763	0.660732	5.951992	-4.283000	-0.600586	-0.018799	-0.395020	0.158382	0.053115	0.160110	0.564249	-0.133580	-0.309161	-0.753789	22.188723	-33.385570	-113.097138
11062		17.866217	4.762320	15.581318	-4.264935	-5.599730	13.313868	0.564736	5.904307	-4.859339	-0.576904	-0.053955	-0.422363	0.184238	0.042761	0.150554	0.555017	-0.102242	-0.297685	-0.769991	23.275948	-29.202067	-114.573410
11063		20.279364	4.489952	14.074496	-6.314004	-9.597641	12.485546	0.577516	5.734173	-5.322643	-0.539795	-0.086670	-0.452393	0.207810	0.039017	0.134952	0.542897	-0.070379	-0.286404	-0.786309	24.358557	-24.939121	-116.219785
11064		23.486871	4.668550	12.683832	-8.459925	-14.101096	11.717045	0.525570	5.419815	-5.656107	-0.518555	-0.119629	-0.470947	0.239380	0.039635	0.120501	0.528188	-0.039610	-0.275561	-0.802194	25.346354	-20.771728	-117.995936
11065		27.925763	4.466423	11.605012	-11.774877	-19.163098	10.878970	0.330397	5.014513	-5.905540	-0.494873	-0.152588	-0.489746	0.283202	0.036155	0.109046	0.511045	-0.010312	-0.264521	-0.817774	26.146441	-16.692174	-119.897976
11066		32.990863	3.160879	9.355435	-16.244014	-24.558614	8.029821	0.114976	4.707242	-6.005829	-0.478027	-0.183350	-0.512939	0.332737	0.021593	0.085758	0.492354	0.017060	-0.253111	-0.832606	26.703660	-12.757831	-121.844762
11067		36.227836	1.662446	4.822388	-19.326751	-28.735555	1.961305	-0.084150	4.466695	-5.799291	-0.459229	-0.207520	-0.534424	0.363514	0.006112	0.040109	0.473514	0.042860	-0.241030	-0.846081	26.999945	-8.959466	-123.687491
11068		36.843852	-0.086207	-1.967920	-20.130851	-30.779149	-6.938896	-0.328318	4.092702	-5.078785	-0.433594	-0.236084	-0.553223	0.367752	-0.010248	-0.027199	0.456788	0.065376	-0.228760	-0.857169	27.002919	-5.561439	-125.229777
11069		35.652151	-3.093072	-8.816918	-20.180998	-30.113099	-16.446804	-0.568347	3.373084	-3.827096	-0.412842	-0.251221	-0.572510	0.354286	-0.037987	-0.094056	0.444264	0.082897	-0.217255	-0.865192	26.752938	-2.842699	-126.316371
11070		34.753530	-8.128174	-13.587825	-21.985531	-27.594310	-24.426093	-0.424586	2.351908	-2.458883	-0.400879	-0.266602	-0.589844	0.344870	-0.085827	-0.139765	0.436303	0.094672	-0.209164	-0.870016	26.527940	-1.019158	-126.973728
11071		32.642390	-8.877660	-14.633201	-20.923371	-25.284590	-26.585601	0.038243	1.320133	-1.377157	-0.389648	-0.270996	-0.589600	0.324827	-0.090989	-0.148497	0.431657	0.101862	-0.205786	-0.872323	26.548979	0.003162	-127.343501
11072		32.388800	-11.555561	-12.689963	-23.393358	-22.821922	-26.411044	0.381070	0.057666	-0.864173	-0.389160	-0.281982	-0.582520	0.323349	-0.116711	-0.127215	0.427760	0.103709	-0.206901	-0.873761	26.762540	0.242152	-127.773160
11073		38.581892	-6.746266	-11.729144	-24.254400	-29.973435	-23.412729	0.780674	-0.627776	-0.391664	-0.400635	-0.277832	-0.578369	0.386053	-0.067763	-0.116344	0.425007	0.102894	-0.211473	-0.874106	27.204043	0.007143	-128.138460
11074		34.526293	0.131629	-17.595481	-14.951569	-32.362662	-25.002398	-0.321201	-1.903080	1.561706	-0.410156	-0.260254	-0.561279	0.346893	0.003742	-0.172664	0.429963	0.092120	-0.214920	-0.872041	27.012566	-1.383851	-127.840880
11075		-6.551782	7.469990	13.539066	4.909360	5.378091	5.318747	-1.497573	-3.277509	3.100517	-0.433838	-0.229492	-0.542480	-0.068876	0.074655	0.133721	0.440557	0.071029	-0.216873	-0.868234	26.115944	-3.884717	-127.093294
11076		-4.264671	9.215558	22.566338	2.611172	5.988555	14.053518	-1.249544	-3.005041	2.537855	-0.452393	-0.209717	-0.523193	-0.047201	0.092981	0.224398	0.448673	0.052351	-0.218942	-0.864879	25.347178	-6.079748	-126.530590
11077		-12.250276	7.158651	-0.044722	12.676943	6.224827	-8.463320	-0.622217	-4.742450	2.539840	-0.479980	-0.187988	-0.495117	-0.123338	0.070016	-0.003585	0.454484	0.027441	-0.227534	-0.860767	24.964679	-9.182581	-126.368875
11078		16.411172	2.098037	12.291359	-10.793738	-9.176913	5.151617	-1.110091	-6.072835	2.380790	-0.510010	-0.168457	-0.458252	0.160012	0.023602	0.127688	0.457729	-0.004051	-0.236777	-0.856974	24.366373	-12.926570	-126.586835
11079		21.140196	2.065210	17.665408	-14.087872	-9.804444	11.832016	-0.266008	-4.711240	1.248921	-0.519043	-0.168701	-0.431641	0.207028	0.022193	0.181537	0.457375	-0.026530	-0.246385	-0.854048	24.328111	-15.705698	-127.064272
11080		18.031259	-4.106822	13.566265	-15.999011	-5.621624	5.627444	0.018589	-3.990856	1.233950	-0.530518	-0.157715	-0.407471	0.177807	-0.039979	0.139224	0.457632	-0.045157	-0.255391	-0.850476	24.426448	-18.092990	-127.379116
11081		15.427629	-0.921851	13.920361	-11.689286	-4.342296	6.833743	0.471082	-3.319315	1.105262	-0.539795	-0.151123	-0.396729	0.151987	-0.008706	0.141718	0.458145	-0.059845	-0.264759	-0.846418	24.765757	-20.114939	-127.608759
11082		9.909941	0.442684	9.269592	-6.563915	-2.727870	1.753989	0.658920	-2.982342	0.806229	-0.546387	-0.155762	-0.381104	0.097684	0.004514	0.094174	0.457747	-0.072131	-0.274122	-0.842687	25.256680	-21.871485	-127.935905
11083		8.861081	2.035565	9.951972	-4.634561	-1.907850	2.700115	0.895916	-2.989848	0.572105	-0.548584	-0.157959	-0.374268	0.087051	0.020156	0.100919	0.456345	-0.083722	-0.284554	-0.838910	25.949799	-23.589360	-128.418979
11084		19.702219	10.739677	16.312367	-4.261083	-9.340533	15.958679	0.303425	-2.486341	0.943064	-0.559814	-0.158203	-0.365479	0.194464	0.108068	0.165715	0.456844	-0.094907	-0.291096	-0.835194	26.184288	-25.119149	-128.575343
11085		12.471231	11.540076	9.186380	1.483545	-8.297808	7.566564	-0.206908	-0.472837	0.535987	-0.562012	-0.156006	-0.367676	0.124185	0.115829	0.092038	0.458310	-0.098416	-0.291115	-0.833977	25.985265	-25.530767	-128.403061
11086		2.955967	7.475539	7.109198	3.794410	-1.054806	0.169866	-0.481449	-0.615492	0.338224	-0.571289	-0.149414	-0.372559	0.029214	0.074976	0.071002	0.458577	-0.102691	-0.290367	-0.833576	25.696440	-25.945320	-128.382069
11087		8.882856	4.500144	8.481112	-2.010225	-3.198633	2.709802	-0.497831	-0.353337	0.379211	-0.571045	-0.156006	-0.378906	0.088593	0.045381	0.084855	0.459398	-0.106137	-0.288977	-0.833175	25.353076	-26.255301	-128.262488
11088		5.814049	5.058678	6.634379	0.393559	-2.336931	0.076295	-0.385930	-0.064927	0.404072	-0.580322	-0.149414	-0.381348	0.058016	0.050832	0.066265	0.460775	-0.107991	-0.287320	-0.832749	25.033082	-26.400229	-128.048254
11089		6.289873	5.733863	7.195817	0.708748	-2.636763	0.993062	-0.464393	-0.026016	0.427464	-0.576172	-0.138428	-0.386230	0.062766	0.057640	0.071833	0.462275	-0.110067	-0.285290	-0.832344	24.654753	-26.550914	-127.808495
11090		5.819638	5.150100	7.691569	0.511935	-1.803384	0.959367	-0.509677	0.069689	0.521424	-0.585205	-0.134033	-0.381836	0.058088	0.051848	0.076764	0.464256	-0.111812	-0.282736	-0.831880	24.215129	-26.650882	-127.487481
11091		5.128194	5.078584	7.281482	0.935832	-1.548226	0.278746	-0.566373	0.141420	0.569796	-0.587646	-0.129639	-0.386475	0.051188	0.051138	0.072634	0.466514	-0.113628	-0.279812	-0.831360	23.719620	-26.743921	-127.118201
11092		5.525253	3.970606	8.006307	-0.182301	-1.004255	0.644492	-0.652822	0.149712	0.605259	-0.594727	-0.120850	-0.382324	0.055191	0.040134	0.079891	0.468858	-0.115488	-0.276420	-0.830919	23.164556	-26.815944	-126.724996
11093		5.087355	2.409893	9.026803	-1.254674	0.480790	0.740320	-0.570948	0.211836	0.574744	-0.599609	-0.109863	-0.385010	0.050899	0.024503	0.090145	0.471212	-0.117024	-0.273299	-0.830405	22.655507	-26.866835	-126.333320
11094		4.450651	2.921300	9.067030	-0.425616	0.706849	0.669303	-0.450647	0.254118	0.555088	-0.604248	-0.103271	-0.378662	0.044540	0.029541	0.090547	0.473593	-0.117902	-0.270521	-0.829836	22.216896	-26.866421	-125.942647
11095		5.248493	2.724667	8.666949	-0.935017	-0.052990	0.637630	-0.278008	0.294126	0.535764	-0.604736	-0.094238	-0.372314	0.052539	0.027508	0.086554	0.476054	-0.118348	-0.268433	-0.829041	21.876192	-26.859738	-125.553512
11096		4.371515	4.449828	8.361288	1.053032	-0.319041	0.560901	-0.318291	0.301444	0.533534	-0.606934	-0.094482	-0.372314	0.043722	0.044748	0.083476	0.478475	-0.118685	-0.266098	-0.828352	21.514352	-26.825057	-125.164588
11097		4.888273	3.986148	8.230514	0.450933	-0.615975	0.528629	-0.421968	0.237152	0.514564	-0.598389	-0.083252	-0.376953	0.048877	0.040161	0.082163	0.480676	-0.119679	-0.263554	-0.827748	21.103071	-26.839715	-124.801856
11098		3.988573	4.006058	8.578351	0.962851	0.188739	0.413858	-0.499027	0.226825	0.480123	-0.598633	-0.072021	-0.375244	0.039886	0.040370	0.085638	0.482656	-0.120685	-0.260674	-0.827362	20.660179	-26.829148	-124.462672
11099		4.367248	4.449023	8.394728	1.228933	-0.402919	0.563485	-0.604417	0.152532	0.500540	-0.601074	-0.065430	-0.371094	0.043624	0.044853	0.083779	0.484562	-0.122444	-0.257581	-0.826957	20.156613	-26.881074	-124.127399
11100		5.481857	2.313636	8.458389	-1.105443	-0.381330	0.462526	-0.636812	0.106690	0.495340	-0.592773	-0.052002	-0.364990	0.054806	0.023541	0.084480	0.486351	-0.124296	-0.254404	-0.826615	19.642137	-26.933010	-123.805329
11101		5.604095	1.328712	8.306568	-1.947259	-0.194115	0.103996	-0.480328	0.069418	0.375418	-0.588135	-0.049805	-0.356201	0.056044	0.013592	0.083014	0.487695	-0.125933	-0.252095	-0.826283	19.251013	-27.000815	-123.562753
11102		4.640122	1.597815	9.333980	-1.229146	0.949935	0.617729	-0.311052	-0.053054	0.250888	-0.584229	-0.038574	-0.363037	0.046356	0.016181	0.093327	0.488465	-0.127340	-0.250800	-0.826006	19.004836	-27.089458	-123.421780
11103		4.766894	1.796143	9.454840	-1.083054	0.844640	0.838928	-0.173547	-0.165090	0.180342	-0.577393	-0.036377	-0.358887	0.047575	0.018086	0.094572	0.488897	-0.128952	-0.250448	-0.825607	18.864351	-27.246107	-123.345860
11104		4.445063	1.441633	9.342292	-1.204990	1.179390	0.496158	-0.014758	-0.249552	0.125080	-0.573242	-0.029541	-0.363525	0.044325	0.014451	0.093477	0.489088	-0.130288	-0.250936	-0.825136	18.840985	-27.417399	-123.321787
11105		4.175089	2.416148	9.181312	-0.199648	0.939382	0.514133	0.100986	-0.321871	0.095478	-0.573242	-0.027344	-0.363525	0.041592	0.024135	0.091892	0.489149	-0.131768	-0.252149	-0.824494	18.895806	-27.642981	-123.329834
11106		4.734902	2.737212	8.785497	-0.168917	0.222109	0.532291	0.151409	-0.367289	0.092639	-0.573242	-0.031738	-0.365479	0.047175	0.027327	0.087962	0.489164	-0.133141	-0.253630	-0.823811	18.988362	-27.872077	-123.350581
11107		4.353284	3.029396	8.861322	0.281257	0.477371	0.499645	0.184385	-0.377010	0.094846	-0.572998	-0.033936	-0.361084	0.043351	0.030233	0.088723	0.489204	-0.134641	-0.255317	-0.823022	19.096923	-28.127069	-123.371346
11108		4.490195	3.467947	8.885041	0.607081	0.265249	0.708404	0.181671	-0.405747	0.119070	-0.573486	-0.025146	-0.370361	0.044701	0.034625	0.088973	0.489293	-0.136130	-0.256996	-0.822200	19.203666	-28.381880	-123.385099
11109		5.681993	3.098542	8.176828	-0.255798	-0.807478	0.581005	0.154528	-0.455035	0.173783	-0.577637	-0.029541	-0.370117	0.056607	0.030971	0.081921	0.489532	-0.138120	-0.258694	-0.821193	19.280671	-28.693558	-123.375069
11110		5.864088	2.919770	7.886310	-0.473859	-0.983312	0.381173	0.182874	-0.454894	0.193205	-0.579834	-0.031738	-0.374512	0.058433	0.029182	0.079023	0.489857	-0.139902	-0.260444	-0.820144	19.371754	-28.988960	-123.354673
11111		5.333835	3.419680	8.474915	0.227489	-0.400319	0.758780	0.148322	-0.480207	0.223496	-0.582031	-0.034180	-0.378906	0.053096	0.034193	0.084902	0.490254	-0.142073	-0.262140	-0.818992	19.433292	-29.323801	-123.320245
11112		4.632737	3.319268	8.704817	0.492610	0.334888	0.574735	0.171477	-0.489383	0.249289	-0.591309	-0.029785	-0.378906	0.046073	0.033176	0.087190	0.490749	-0.144096	-0.263884	-0.817782	19.504590	-29.648588	-123.273327
11113		4.454079	3.429568	8.664630	0.701525	0.461748	0.481528	0.199100	-0.541226	0.294730	-0.591064	-0.031982	-0.378906	0.044256	0.034275	0.086800	0.491384	-0.146480	-0.265881	-0.816329	19.579931	-30.029847	-123.208699
11114		4.510785	2.676570	8.818496	0.032229	0.855812	0.411952	0.224871	-0.567369	0.300012	-0.593262	-0.031982	-0.374512	0.044817	0.026734	0.088342	0.492011	-0.148754	-0.267991	-0.814849	19.674449	-30.406593	-123.148165
11115		4.805837	2.401273	8.501249	-0.318249	0.629854	0.219012	0.258247	-0.632825	0.274727	-0.604492	-0.032227	-0.374512	0.047756	0.023969	0.085195	0.492473	-0.151332	-0.270461	-0.813277	19.800224	-30.833146	-123.117516
11116		4.898642	2.285991	8.485553	-0.442371	0.669473	0.216404	0.280302	-0.696966	0.232500	-0.606689	-0.036621	-0.374268	0.048664	0.022797	0.085057	0.492678	-0.153902	-0.273159	-0.811768	19.963589	-31.266794	-123.130350
11117		5.173090	2.399392	8.352894	-0.444829	0.437212	0.281821	0.313188	-0.799780	0.217981	-0.620361	-0.027832	-0.370117	0.051370	0.023919	0.083772	0.492709	-0.156939	-0.276294	-0.810105	20.160352	-31.771895	-123.176279
11118		5.362261	2.514175	8.253741	-0.406860	0.295820	0.333506	0.344627	-0.927482	0.219151	-0.628906	-0.043457	-0.365234	0.053211	0.025058	0.082828	0.492572	-0.160260	-0.279819	-0.808326	20.395864	-32.326696	-123.255259
11119		5.431057	2.809066	8.112175	-0.145565	0.164513	0.343359	0.337198	-1.051484	0.239768	-0.637939	-0.041504	-0.365234	0.053849	0.028018	0.081453	0.492333	-0.164276	-0.283636	-0.806332	20.634708	-32.970702	-123.352342
11120		5.332389	2.790510	8.342970	-0.087062	0.502705	0.461785	0.360621	-1.181223	0.260493	-0.649170	-0.041748	-0.349854	0.052793	0.027823	0.083793	0.491986	-0.168629	-0.287798	-0.804168	20.903937	-33.669244	-123.473332
11121		4.355439	3.556316	8.846353	1.075533	1.365630	0.524222	0.379850	-1.313283	0.286166	-0.660400	-0.043945	-0.345215	0.042921	0.035456	0.088814	0.491555	-0.173645	-0.292367	-0.801712	21.193726	-34.461749	-123.614043
11122		4.522671	3.867585	9.000956	1.321464	1.393582	0.805184	0.366692	-1.503252	0.346047	-0.676025	-0.044189	-0.325439	0.044481	0.038588	0.090417	0.491038	-0.179382	-0.297241	-0.798969	21.490382	-35.348941	-123.772037
11123		4.559557	3.592926	9.063969	1.121631	1.675982	0.760117	0.350129	-1.694645	0.412117	-0.685059	-0.042236	-0.314453	0.044751	0.035863	0.091084	0.490458	-0.186153	-0.302477	-0.795806	21.784296	-36.369215	-123.942324
11124		4.639411	3.532069	8.936534	1.103899	1.747487	0.655602	0.355857	-1.938249	0.485313	-0.698486	-0.044678	-0.298828	0.045439	0.035272	0.089872	0.489752	-0.193828	-0.308197	-0.792205	22.103159	-37.515995	-124.140017
11125		4.924038	2.885615	9.066476	0.490505	2.077056	0.685598	0.311320	-2.230960	0.573911	-0.709717	-0.044922	-0.274414	0.048142	0.028854	0.091251	0.488851	-0.203022	-0.314370	-0.788022	22.416422	-38.853445	-124.368341
11126		4.492613	2.626856	9.487721	0.560458	2.970337	0.577544	0.329729	-2.556067	0.643987	-0.723389	-0.036133	-0.254639	0.043624	0.026253	0.095484	0.487648	-0.213392	-0.321253	-0.783237	22.786255	-40.360076	-124.658126
11127		4.762172	2.787035	9.167244	0.707395	2.799578	0.489587	0.399368	-3.003903	0.763910	-0.741699	-0.027588	-0.230713	0.046131	0.027864	0.092428	0.486174	-0.225623	-0.329334	-0.777347	23.245338	-42.144368	-125.016750
11128		4.469022	2.748579	9.275570	0.942687	3.385764	0.247053	0.505401	-3.492603	0.948425	-0.755127	-0.027832	-0.190674	0.042930	0.027456	0.093585	0.484581	-0.239602	-0.338680	-0.770109	23.814436	-44.208805	-125.430787
11129		3.896257	3.104481	9.660417	1.684663	4.265863	0.040678	0.589809	-4.043044	1.175238	-0.768799	-0.021484	-0.159912	0.036816	0.030979	0.097454	0.482846	-0.255906	-0.349301	-0.761157	24.484049	-46.626093	-125.904936
11130		3.392006	3.689917	9.839352	2.619940	4.921482	-0.282508	0.667973	-4.646646	1.492433	-0.789307	-0.010742	-0.115967	0.031345	0.036809	0.099265	0.481098	-0.274614	-0.361061	-0.750178	25.246740	-49.413927	-126.421009
11131		3.083727	3.434039	9.707382	2.712265	5.486388	-0.978242	0.687640	-5.280716	1.981936	-0.805908	0.008789	-0.059082	0.027918	0.034291	0.097955	0.479670	-0.296479	-0.373478	-0.736567	25.985921	-52.659576	-126.882279
11132		1.736565	2.812184	10.720689	2.931460	7.593743	-2.095416	0.747530	-5.903233	2.485422	-0.813232	0.028564	-0.004395	0.013842	0.027906	0.107755	0.478632	-0.321016	-0.386523	-0.720041	26.729626	-56.335183	-127.274065
11133		1.905572	3.086442	10.547386	3.351490	7.758570	-2.537875	0.762102	-6.650818	2.857750	-0.814209	0.055176	0.061279	0.015094	0.030695	0.106137	0.476955	-0.348636	-0.400356	-0.700488	27.621654	-60.497315	-127.814787
11134		2.414254	4.174829	11.148865	4.576004	8.368120	-2.296024	0.587112	-7.969930	2.999190	-0.808350	0.081543	0.142334	0.019048	0.041730	0.112438	0.472063	-0.380929	-0.415834	-0.677593	29.257902	-65.343993	-129.277463
11135		10.145890	7.926995	9.807136	6.443697	4.716131	4.258715	0.551030	-9.049454	3.049721	-0.800293	0.110352	0.227783	0.095659	0.080480	0.102709	0.464069	-0.416347	-0.432775	-0.651153	32.443439	-70.714892	-132.373886
11136		14.771744	10.965251	9.905071	9.160267	4.447160	8.422736	0.285452	-9.412770	3.517114	-0.774414	0.141602	0.313232	0.140881	0.112023	0.105949	0.455123	-0.453497	-0.447681	-0.621920	37.483319	-76.307054	-137.456920
11137		20.948095	7.755397	6.890998	5.571745	2.872121	12.697324	0.625876	-9.391892	3.826186	-0.737305	0.175049	0.387451	0.204402	0.081261	0.078841	0.446798	-0.489381	-0.461744	-0.589636	48.576823	-81.779702	-148.381493
11138		28.334256	18.659119	11.225417	17.572940	6.860615	20.521416	0.202687	-9.036844	4.406697	-0.698242	0.213135	0.466064	0.273686	0.192572	0.124963	0.438813	-0.525202	-0.471167	-0.556424	86.094126	-86.356073	174.054172
11139		19.278152	12.621861	6.949826	13.001813	5.576990	9.646608	0.034746	-9.005382	4.704861	-0.643311	0.249268	0.524658	0.186356	0.130641	0.078011	0.430165	-0.560677	-0.478063	-0.521589	169.219996	-84.988954	90.786110
11140		14.729971	11.011739	11.353795	13.260352	11.015571	3.208895	-0.118030	-9.082127	4.921570	-0.576904	0.278809	0.594727	0.139180	0.113679	0.119917	0.420336	-0.595700	-0.482858	-0.485084	-169.590950	-79.690365	69.360879
11141		14.450605	10.871382	18.225180	15.084447	18.485597	-0.360887	0.203525	-8.916242	4.924463	-0.508301	0.312744	0.635742	0.133464	0.111902	0.188480	0.410758	-0.628073	-0.486804	-0.447017	-162.925316	-74.036178	62.640377
11142		15.442739	8.182471	15.633330	12.715744	17.451793	-0.690496	1.375761	-7.589885	4.629315	-0.457764	0.342285	0.661377	0.146405	0.084172	0.162566	0.406478	-0.652911	-0.490440	-0.409819	-158.891012	-69.044201	59.218075
11143		18.057463	5.669642	12.965960	10.751603	16.956622	1.276892	2.607695	-6.145590	3.942908	-0.407471	0.382813	0.675537	0.175322	0.058443	0.135856	0.407643	-0.669412	-0.495039	-0.375034	-155.699442	-64.918207	57.371041
11144		40.084822	22.882736	25.232134	33.894702	33.916110	11.809722	2.396878	-2.930330	2.327503	-0.401123	0.394043	0.657471	0.394392	0.230350	0.260886	0.412613	-0.675687	-0.497600	-0.354390	-153.351220	-62.816159	56.281196
11145		22.730467	27.603990	23.917290	33.939300	25.936249	-4.704620	1.135845	1.976302	-0.215266	-0.428467	0.404785	0.634766	0.229959	0.274438	0.238471	0.420921	-0.669246	-0.496245	-0.358714	-151.894487	-63.882916	55.374389
11146		15.968376	25.205904	19.571461	29.663702	19.700027	-7.546928	-1.108610	4.256848	-1.685768	-0.465820	0.377930	0.606934	0.165903	0.251745	0.190831	0.424571	-0.659648	-0.490812	-0.379088	-151.896352	-66.476748	54.672423
11147		10.555973	16.085478	13.814250	19.334518	13.444448	-7.318081	-2.892627	5.653596	-2.243694	-0.507324	0.348633	0.581299	0.111173	0.161574	0.132719	0.424376	-0.649120	-0.480474	-0.409504	-152.654657	-69.957330	53.698401
11148		2.799869	5.201839	8.972307	6.886794	8.221195	-10.391050	-3.345394	6.006081	-2.233578	-0.549316	0.325928	0.551025	0.031247	0.053163	0.087934	0.423039	-0.638209	-0.467828	-0.441433	-153.295252	-73.591713	52.350759
11149		-1.764795	-2.098177	5.635085	-1.272573	5.489601	-12.552146	-2.474071	5.809188	-2.152867	-0.584473	0.303223	0.513916	-0.016216	-0.020099	0.057088	0.423718	-0.625127	-0.456704	-0.470214	-153.228657	-77.139280	50.812477
11150		-0.988770	-4.665150	5.466640	-3.502731	6.173162	-11.310589	-1.034290	5.445439	-2.109365	-0.617676	0.289551	0.479004	-0.008880	-0.046270	0.055157	0.427722	-0.609508	-0.449138	-0.493791	-152.009186	-80.453343	48.961873
11151		2.398639	-3.929724	6.452018	-2.186628	7.384865	-7.942082	0.368946	5.422051	-2.211637	-0.639648	0.276123	0.428467	0.025285	-0.039690	0.063773	0.435361	-0.589993	-0.444996	-0.514147	-148.673577	-83.801968	45.805994
11152		4.442140	-0.305669	7.764090	1.620692	7.863195	-5.859872	1.337163	5.808590	-2.467209	-0.661865	0.267090	0.368896	0.046604	-0.004136	0.076283	0.445611	-0.566444	-0.442847	-0.533346	-136.293729	-87.308567	34.159293
11153		5.053754	3.548080	8.543342	5.304941	7.631466	-4.843624	1.450771	6.279050	-2.683490	-0.690430	0.249268	0.313965	0.053655	0.034162	0.084032	0.456184	-0.540058	-0.440040	-0.553713	-10.442943	-88.286633	-90.895469
11154		4.999397	4.667097	8.719149	6.145382	7.341626	-4.237650	0.968570	6.655721	-2.786139	-0.709961	0.229248	0.254883	0.053502	0.045524	0.085672	0.465381	-0.513032	-0.434787	-0.575482	13.489459	-84.362873	-114.310041
11155		5.153009	3.264318	8.637379	4.460489	7.179753	-3.463083	0.429644	6.869520	-2.774366	-0.714111	0.213623	0.204346	0.054901	0.031714	0.084595	0.473100	-0.485737	-0.426832	-0.598373	17.364969	-80.120969	-117.972063
11156		5.805453	0.621385	8.615444	1.517130	7.131185	-2.389010	0.246290	7.025522	-2.771507	-0.722412	0.193848	0.145020	0.061110	0.005277	0.084050	0.480021	-0.457976	-0.417394	-0.620983	18.735027	-75.814287	-119.231598
11157		6.283563	-2.000675	8.762724	-1.427273	7.161645	-1.633744	0.545120	7.215583	-2.842317	-0.726074	0.171631	0.079346	0.065645	-0.021161	0.085236	0.487127	-0.427823	-0.407925	-0.642862	19.674822	-71.349213	-119.886103
11158		6.263381	-3.241055	9.148966	-2.992040	7.207700	-1.299237	1.189990	7.365846	-2.957922	-0.725098	0.142822	0.031738	0.065447	-0.033899	0.088915	0.494761	-0.394981	-0.399828	-0.662827	20.705404	-66.816113	-120.262933
11159		6.282298	-2.513412	9.953343	-2.700267	7.186861	-0.547622	1.823000	7.403515	-3.069737	-0.722412	0.127686	-0.027832	0.066038	-0.027023	0.096887	0.502557	-0.359293	-0.393224	-0.680970	21.959856	-62.198687	-120.495689
11160		7.214200	-0.959474	11.040223	-1.942173	6.811616	1.349172	2.166873	7.357506	-3.176982	-0.718994	0.094482	-0.082031	0.075956	-0.011957	0.107533	0.509635	-0.322356	-0.387504	-0.697280	23.300316	-57.620167	-120.613633
11161		8.695609	1.606082	12.066103	-0.581310	5.745725	3.982421	2.146295	7.317888	-3.268445	-0.711182	0.063721	-0.143066	0.091528	0.013317	0.117520	0.515422	-0.284585	-0.381200	-0.712768	24.550981	-53.000746	-120.639789
11162		9.868683	4.081165	13.012780	0.590128	4.548243	6.379534	1.713572	7.223830	-3.343314	-0.700928	0.026123	-0.183838	0.103958	0.038007	0.126769	0.519262	-0.247934	-0.373157	-0.727770	25.512310	-48.452810	-120.617677
11163		11.043391	5.342734	14.321179	0.463676	3.594653	8.688011	1.060007	7.027749	-3.457894	-0.690918	-0.004639	-0.235840	0.116272	0.050704	0.139467	0.520676	-0.212773	-0.362675	-0.743029	26.151505	-43.936863	-120.663400
11164		13.318921	4.223283	15.657289	-2.406093	2.178965	10.914716	0.542912	6.781097	-3.796584	-0.662598	-0.044189	-0.291992	0.139160	0.039212	0.152030	0.519032	-0.179240	-0.350830	-0.758549	26.657311	-39.502219	-120.961372
11165		17.190623	4.170218	15.026218	-4.957510	-2.206974	12.747611	0.367850	6.744234	-4.318940	-0.638672	-0.081543	-0.346191	0.177685	0.037637	0.144406	0.514364	-0.144795	-0.338208	-0.774648	27.213694	-34.907592	-121.536001
11166		20.494383	6.543219	13.413178	-5.196585	-7.651059	13.784781	0.160317	6.845398	-4.605180	-0.603760	-0.120850	-0.388916	0.210805	0.060519	0.127032	0.507771	-0.110080	-0.324299	-0.790494	27.645121	-30.223512	-122.173404
11167		22.325783	6.330152	12.153385	-7.221644	-11.212938	12.725028	-0.110034	6.755707	-4.710156	-0.560059	-0.151367	-0.432129	0.228599	0.058023	0.113838	0.499582	-0.075757	-0.308920	-0.805759	27.888644	-25.514839	-122.836214
11168		24.267699	5.181071	10.890453	-10.064189	-14.378284	10.825879	-0.202931	6.442780	-4.851205	-0.522949	-0.179688	-0.466553	0.247177	0.045956	0.100940	0.489503	-0.042875	-0.293624	-0.819960	28.079802	-20.963322	-123.624673
11169		27.855986	4.621924	9.874922	-13.317088	-18.610628	9.440423	-0.114345	6.015622	-4.978444	-0.488525	-0.205811	-0.485596	0.282396	0.039274	0.090269	0.477491	-0.011018	-0.279169	-0.833034	28.310903	-16.556311	-124.560898
11170		31.845420	4.414701	7.298684	-16.156938	-23.723016	6.390944	-0.004439	5.600698	-4.955260	-0.458252	-0.234375	-0.511230	0.321294	0.036210	0.064014	0.464338	0.019103	-0.265884	-0.844589	28.555332	-12.395113	-125.563667
11171		34.494584	3.352257	1.729509	-17.917496	-28.204713	-0.480557	-0.028038	5.055939	-4.662101	-0.426025	-0.253906	-0.530518	0.345892	0.025468	0.008554	0.451070	0.046647	-0.253336	-0.854506	28.710633	-8.558803	-126.537532
11172		36.014706	1.999365	-4.912075	-18.437908	-31.365433	-8.777087	-0.221028	4.250043	-3.911048	-0.405273	-0.269043	-0.549805	0.359293	0.012901	-0.056779	0.439614	0.069124	-0.241812	-0.862258	28.677644	-5.359375	-127.342281
11173		36.738741	-1.354962	-11.412242	-19.431863	-32.251278	-17.802700	-0.325096	3.290412	-2.769124	-0.391602	-0.277832	-0.560547	0.365208	-0.018808	-0.120115	0.431647	0.085926	-0.232114	-0.867422	28.521580	-2.941431	-127.836015
11174		36.168204	-5.619793	-15.328946	-20.696806	-30.460793	-24.590443	0.017215	2.285815	-1.520392	-0.377930	-0.279785	-0.569336	0.359458	-0.058923	-0.157411	0.427666	0.097518	-0.226601	-0.869623	28.532963	-1.387336	-127.978383
11175		35.017195	-5.977405	-16.167290	-19.700767	-29.398758	-26.271086	0.673722	1.371928	-0.531198	-0.368896	-0.284180	-0.566895	0.348892	-0.060151	-0.164271	0.426570	0.105442	-0.226326	-0.869308	28.912528	-0.559463	-127.869818
11176		32.775309	-5.578278	-13.787060	-18.683447	-27.129108	-24.316303	1.104932	0.486740	0.012981	-0.375244	-0.292969	-0.564453	0.327419	-0.054996	-0.138973	0.426596	0.109783	-0.230113	-0.867762	29.540660	-0.332287	-127.729693
11177		37.769086	1.814190	-15.873322	-15.740822	-35.772685	-22.233302	0.226616	-1.142848	0.782729	-0.382568	-0.281982	-0.555908	0.378514	0.019800	-0.156550	0.428560	0.104250	-0.233996	-0.866437	29.665704	-1.140816	-127.665949
11178		20.077979	-2.254423	-18.279507	-7.098051	-20.665242	-26.086904	-2.105915	-2.871398	2.741338	-0.403564	-0.255615	-0.536865	0.203675	-0.021668	-0.179653	0.438073	0.083952	-0.232415	-0.864308	28.432644	-3.354257	-127.093806
11179		-1.995840	6.731528	25.101118	-2.074322	6.778043	15.265920	-2.384448	-4.471053	3.474796	-0.429443	-0.222900	-0.520508	-0.026749	0.069872	0.249641	0.448709	0.055122	-0.233338	-0.860915	27.014917	-6.574300	-126.523832
11180		-6.956090	6.087041	15.521839	4.188678	8.282155	5.684927	-1.043222	-3.644721	2.534178	-0.452637	-0.205322	-0.496582	-0.073140	0.060763	0.153590	0.455541	0.034008	-0.237682	-0.857224	26.364028	-9.104903	-126.163152
11181		5.956940	4.943386	6.243376	-1.211923	-4.551872	-1.055652	-1.241356	-5.285881	2.695947	-0.475830	-0.179199	-0.462158	0.057221	0.050608	0.063655	0.460831	0.005109	-0.244818	-0.853038	25.638333	-12.528356	-126.103719
11182		20.638799	-3.208639	18.598819	-18.395272	-6.655758	10.169501	-0.763846	-5.292551	1.878082	-0.500732	-0.175049	-0.444580	0.201654	-0.029453	0.191483	0.462199	-0.021637	-0.253723	-0.849429	25.280763	-15.741566	-126.447786
11183		24.644620	-3.982519	15.951620	-20.183349	-9.719346	9.570364	-0.149479	-4.234127	1.476392	-0.510010	-0.164063	-0.418457	0.243280	-0.037900	0.164718	0.462979	-0.042059	-0.262716	-0.845495	25.274369	-18.323650	-126.733103
11184		20.463183	-6.144060	15.118958	-19.013087	-5.341746	7.362607	0.380377	-3.228412	1.411281	-0.530273	-0.164307	-0.407227	0.202585	-0.060298	0.154355	0.464710	-0.056787	-0.271478	-0.840904	25.511083	-20.354146	-126.801364
11185		11.828265	-0.350610	11.117573	-8.612548	-2.869699	3.648520	1.036451	-2.725188	0.891681	-0.541504	-0.162354	-0.398438	0.116769	-0.003565	0.112755	0.465023	-0.067317	-0.281940	-0.836500	26.183616	-22.014313	-127.039243
11186		9.972201	4.793010	9.725441	-3.070129	-3.941836	4.044541	1.113018	-2.627897	0.722584	-0.550293	-0.169189	-0.385010	0.098258	0.047740	0.098818	0.464661	-0.076845	-0.292450	-0.832261	26.945643	-23.558853	-127.370046
11187		19.363110	14.845992	14.325771	-0.515793	-11.785166	15.904577	0.024235	-1.846450	0.952529	-0.559326	-0.169189	-0.389404	0.191588	0.149358	0.145051	0.465931	-0.086152	-0.296515	-0.829195	26.948877	-24.783098	-127.363072
11188		5.905285	8.992601	7.624369	3.170833	-3.386716	2.530153	-0.259832	-0.550063	0.300983	-0.568604	-0.162598	-0.385254	0.058708	0.090114	0.076288	0.466243	-0.089597	-0.296607	-0.828622	26.791784	-25.154839	-127.352738
11189		4.009100	6.549965	9.044383	2.097777	-0.203856	1.863469	-0.400404	-0.803158	0.324544	-0.577637	-0.162842	-0.385254	0.039621	0.065745	0.090472	0.466228	-0.094633	-0.296745	-0.828021	26.576001	-25.684692	-127.399061
11190		6.605656	6.793969	7.025634	1.204137	-3.295478	1.449714	-0.388836	-0.305665	0.391844	-0.586426	-0.162842	-0.385254	0.065816	0.068205	0.070225	0.467204	-0.097500	-0.295679	-0.827519	26.290737	-25.954137	-127.264470
11191		4.889174	6.798327	6.206308	2.315474	-2.532923	0.029156	-0.532149	-0.322193	0.487079	-0.591309	-0.151855	-0.385742	0.048626	0.068267	0.061960	0.468494	-0.101087	-0.294068	-0.826933	25.897817	-26.277768	-127.077396
11192		6.444958	7.179641	7.020575	1.797573	-3.320742	1.506043	-0.634867	-0.241843	0.599195	-0.598145	-0.149658	-0.383545	0.064149	0.072211	0.070055	0.470284	-0.104568	-0.291722	-0.826315	25.407114	-26.564004	-126.800762
11193		6.355396	4.408656	8.136660	-0.482493	-1.544027	1.296535	-0.691916	-0.149393	0.600540	-0.600830	-0.136475	-0.377441	0.063360	0.044558	0.081260	0.472190	-0.107977	-0.288983	-0.825752	24.868189	-26.822875	-126.494593
11194		4.770544	3.239101	8.800478	-0.597886	0.411386	0.683552	-0.543772	-0.067878	0.557848	-0.607666	-0.134277	-0.375244	0.047585	0.032763	0.087932	0.474091	-0.110460	-0.286613	-0.825160	24.414302	-27.004219	-126.188682
11195		5.506020	2.753217	8.532879	-1.295221	-0.095153	0.628550	-0.437871	-0.116791	0.492244	-0.614746	-0.127686	-0.379883	0.054942	0.027854	0.085300	0.475719	-0.112974	-0.284895	-0.824477	24.041289	-27.216216	-125.932021
11196		5.508771	1.893912	9.147016	-2.018311	0.581754	0.826351	-0.279581	-0.108935	0.383699	-0.617188	-0.118896	-0.371338	0.055001	0.019173	0.091473	0.476981	-0.114748	-0.283803	-0.823880	23.787293	-27.375141	-125.735874
11197		5.175746	2.379478	8.880533	-1.368154	0.487686	0.637402	-0.081350	-0.129514	0.274679	-0.621826	-0.118896	-0.362549	0.051667	0.023902	0.088829	0.477891	-0.116157	-0.283700	-0.823190	23.676120	-27.541655	-125.608164
11198		4.885011	2.284983	8.829875	-1.273786	0.720007	0.429880	0.074784	-0.193271	0.159266	-0.622070	-0.112305	-0.353760	0.048747	0.022856	0.088354	0.478309	-0.117113	-0.284396	-0.822571	23.695351	-27.692477	-125.565538
11199		4.477259	2.631171	9.023264	-0.773666	1.029306	0.518336	0.217875	-0.321810	0.072262	-0.619873	-0.110107	-0.349609	0.044618	0.026229	0.090333	0.478285	-0.118309	-0.286097	-0.821824	23.833686	-27.913012	-125.607460
11200		5.538414	3.405617	8.294902	-0.598601	-0.403722	0.701879	0.254598	-0.420021	0.044584	-0.621826	-0.114502	-0.342773	0.055202	0.033963	0.083108	0.478011	-0.119603	-0.288140	-0.821083	24.015963	-28.156099	-125.693119
11201		4.997094	3.588701	8.184979	-0.150220	-0.092656	0.425097	0.250605	-0.453228	0.026940	-0.615234	-0.114502	-0.333740	0.049780	0.035791	0.082008	0.477627	-0.121193	-0.290310	-0.820308	24.203265	-28.434352	-125.798339
11202		5.219770	4.315327	7.986742	0.374825	-0.586672	0.635814	0.230586	-0.456935	0.036698	-0.617432	-0.110107	-0.333984	0.052007	0.043071	0.080036	0.477245	-0.122683	-0.292343	-0.819586	24.380512	-28.694368	-125.900793
11203		5.171964	4.733436	7.965331	0.769310	-0.666576	0.749735	0.151201	-0.430252	0.080756	-0.606445	-0.105469	-0.332031	0.051529	0.047295	0.079800	0.477048	-0.124492	-0.294014	-0.818830	24.494544	-28.972702	-125.970033
11204		4.981287	4.164418	8.056934	0.389386	-0.218159	0.525127	0.101016	-0.412599	0.130086	-0.599854	-0.105469	-0.327393	0.049619	0.041636	0.080693	0.477028	-0.126244	-0.295349	-0.818092	24.566289	-29.231447	-126.006475
11205		4.492125	4.593784	8.195620	1.020347	0.097200	0.550686	0.063944	-0.378617	0.185096	-0.599854	-0.101074	-0.327637	0.044723	0.045953	0.082056	0.477273	-0.128199	-0.296473	-0.817239	24.594203	-29.507379	-126.000424
11206		4.512432	5.052177	7.859792	1.455865	-0.252402	0.457631	-0.020071	-0.349709	0.285552	-0.602051	-0.103271	-0.325439	0.044915	0.050594	0.078672	0.477900	-0.130212	-0.297060	-0.816340	24.542442	-29.770367	-125.926811
11207		4.914558	5.763122	7.557228	1.929663	-0.949287	0.668397	-0.198219	-0.272328	0.423100	-0.595703	-0.094238	-0.325684	0.048920	0.057810	0.075582	0.479097	-0.132707	-0.296702	-0.815367	24.334113	-30.046842	-125.747836
11208		4.892004	5.884101	7.422192	2.119252	-1.049364	0.582043	-0.410591	-0.137518	0.565671	-0.595947	-0.083252	-0.330566	0.048702	0.059131	0.074134	0.480916	-0.135202	-0.295000	-0.814503	23.942712	-30.264030	-125.444675
11209		6.226759	5.565921	6.986945	1.293147	-2.146829	0.783889	-0.629518	-0.019162	0.696651	-0.596191	-0.076660	-0.343994	0.062066	0.056095	0.069699	0.483296	-0.138097	-0.292088	-0.813658	23.365875	-30.468046	-125.027239
11210		6.099349	5.747911	7.214335	1.604691	-2.011601	0.942056	-0.638170	0.116445	0.841708	-0.594238	-0.069824	-0.344238	0.060792	0.057965	0.071923	0.486435	-0.140506	-0.288644	-0.812603	22.719845	-30.608190	-124.483021
11211		5.098194	4.611998	7.919288	1.179757	-0.500544	0.595654	-0.817272	0.158644	0.917257	-0.590332	-0.056396	-0.351318	0.050831	0.046676	0.078963	0.489807	-0.143446	-0.284373	-0.811569	21.938323	-30.757644	-123.878640
11212		5.304413	4.576904	8.069870	1.164937	-0.592155	0.793837	-0.909840	0.155366	0.951823	-0.597412	-0.043213	-0.358643	0.052887	0.046387	0.080447	0.493219	-0.146506	-0.279632	-0.810603	21.091458	-30.887631	-123.250787
11213		4.902718	3.880125	8.163466	0.864851	-0.046340	0.433413	-0.933177	0.151749	0.990553	-0.597900	-0.029785	-0.361328	0.048895	0.039424	0.081415	0.496748	-0.149846	-0.274830	-0.809479	20.215121	-31.040051	-122.596260
11214		5.593936	1.668238	8.339132	-1.299257	0.296465	0.278842	-0.833012	0.090239	0.985662	-0.600586	-0.018799	-0.370605	0.055893	0.017305	0.083295	0.500220	-0.153014	-0.270510	-0.808202	19.402927	-31.195608	-121.955685
11215		5.240611	1.563149	8.640376	-1.129627	0.732685	0.323868	-0.628403	-0.006256	0.905722	-0.596191	-0.014160	-0.372803	0.052331	0.016140	0.086355	0.503379	-0.156105	-0.267374	-0.806692	18.739966	-31.401932	-121.382892
11216		4.319531	1.655600	8.981915	-0.550755	1.554753	0.154908	-0.484586	-0.157053	0.841026	-0.603027	-0.010010	-0.373047	0.043054	0.016955	0.089812	0.506171	-0.159192	-0.265177	-0.805065	18.195649	-31.652750	-120.880299
11217		5.036927	0.892126	8.983509	-1.462766	1.302701	0.337811	-0.398700	-0.361469	0.777267	-0.610107	-0.005615	-0.375488	0.050171	0.009296	0.089908	0.508493	-0.162955	-0.263945	-0.803252	17.737402	-32.020103	-120.455914
11218		5.158637	0.625064	8.975208	-1.672874	1.325231	0.336265	-0.293926	-0.555039	0.681970	-0.621338	-0.003418	-0.371094	0.051315	0.006558	0.089885	0.510248	-0.166942	-0.263639	-0.801419	17.390693	-32.454030	-120.128891
11219		5.305980	0.974851	8.926450	-1.335786	1.121701	0.470401	-0.222812	-0.776601	0.599510	-0.624023	0.009766	-0.371582	0.052683	0.010006	0.089459	0.511431	-0.171680	-0.264298	-0.799444	17.129521	-33.013506	-119.894189
11220		4.857161	1.528067	9.117419	-0.565083	1.448914	0.513715	-0.160108	-0.961854	0.544068	-0.635254	0.009521	-0.358154	0.048090	0.015485	0.091394	0.512182	-0.176761	-0.265668	-0.797399	16.943994	-33.644578	-119.730511
11221		4.587164	2.395637	9.318090	0.423013	1.573153	0.720722	-0.144218	-1.150168	0.514252	-0.644287	0.009521	-0.358398	0.045273	0.024141	0.093425	0.512562	-0.182663	-0.267647	-0.795159	16.791860	-34.392940	-119.618766
11222		5.028648	2.062154	9.151192	0.022683	1.379484	0.740924	-0.097596	-1.323971	0.520234	-0.660156	0.013672	-0.349609	0.049625	0.020796	0.091832	0.512749	-0.188980	-0.270192	-0.792699	16.685362	-35.218045	-119.536914
11223		4.342092	2.570310	9.528180	0.865669	2.072754	0.732371	-0.050792	-1.520595	0.539919	-0.671387	0.018066	-0.332031	0.042625	0.025843	0.095601	0.512764	-0.196123	-0.273435	-0.789837	16.614072	-36.172990	-119.476727
11224		4.592418	2.819769	9.645678	1.099921	2.050504	0.988353	-0.056959	-1.792283	0.606641	-0.687500	0.024414	-0.321289	0.044972	0.028363	0.096855	0.512621	-0.204278	-0.277219	-0.786536	16.547472	-37.269200	-119.426376
11225		4.517359	2.579864	9.898588	1.038593	2.535727	1.028467	-0.054219	-2.092487	0.691288	-0.696533	0.026367	-0.303467	0.044045	0.025979	0.099444	0.512345	-0.213846	-0.281706	-0.782569	16.477214	-38.561967	-119.374017
11226		4.558509	2.256437	9.591761	0.842820	2.626609	0.687673	-0.034789	-2.435858	0.774104	-0.710205	0.030762	-0.283691	0.044325	0.022754	0.096459	0.511852	-0.224649	-0.286980	-0.777935	16.428547	-40.038902	-119.334747
11227		5.297494	1.712195	9.443495	0.204193	2.459687	0.867864	-0.001409	-2.836238	0.864176	-0.723877	0.039307	-0.259766	0.051554	0.017347	0.095173	0.511075	-0.237146	-0.293285	-0.772365	16.404932	-41.767377	-119.310574
11228		4.785105	1.685339	9.550154	0.536571	3.170084	0.511772	0.077615	-3.275960	0.973862	-0.741943	0.041260	-0.224365	0.046196	0.017044	0.096274	0.510035	-0.251101	-0.300778	-0.765732	16.441061	-43.738359	-119.303963
11229		3.807642	2.369454	10.081543	1.739019	4.297597	0.199336	0.146345	-3.784689	1.157309	-0.751221	0.050049	-0.193604	0.036022	0.023833	0.101527	0.508844	-0.267146	-0.309524	-0.757566	16.493822	-46.034638	-119.269812
11230		3.180325	3.535470	10.654666	3.293778	5.146946	0.125691	0.192547	-4.403966	1.487139	-0.767578	0.069580	-0.152100	0.029183	0.035475	0.107243	0.507764	-0.285673	-0.319406	-0.747360	16.490572	-48.708823	-119.120710
11231		2.828927	3.909679	10.545034	3.979875	5.595262	-0.468907	0.148909	-5.100936	1.984977	-0.783691	0.082520	-0.097168	0.025198	0.039278	0.106149	0.507039	-0.307637	-0.329994	-0.734422	16.242744	-51.860541	-118.696531
11232		2.339755	3.726582	10.453395	4.195505	6.300092	-1.368859	0.162704	-5.813277	2.702261	-0.793701	0.113525	-0.047363	0.019841	0.037465	0.105176	0.507337	-0.332973	-0.341018	-0.717944	15.546485	-55.500917	-117.721945
11233		1.725667	1.682589	11.107616	2.753444	8.141388	-2.378361	0.130440	-6.715330	3.499106	-0.797119	0.144287	0.020508	0.013219	0.017008	0.111576	0.508215	-0.362699	-0.352444	-0.697101	14.102928	-59.758501	-115.943114
11234		-0.085593	0.565039	11.707344	2.367804	10.175780	-4.505637	0.240436	-7.670044	4.044546	-0.791504	0.179688	0.092285	-0.005454	0.005430	0.116930	0.508726	-0.395699	-0.365119	-0.671795	11.823061	-64.574990	-113.215990
11235		5.209222	0.845801	9.164234	1.597716	6.301006	-1.476178	0.389908	-8.959058	4.019171	-0.774658	0.210693	0.177734	0.047739	0.009265	0.093864	0.506002	-0.431818	-0.380828	-0.642234	8.798279	-70.061066	-109.706248
11236		13.755788	1.571269	7.415257	1.573405	2.878962	5.539138	1.309504	-10.092556	3.733918	-0.751221	0.246338	0.258545	0.133264	0.017712	0.081064	0.500825	-0.467468	-0.401951	-0.607523	4.802821	-76.074323	-104.755798
11237		25.952634	7.401194	8.804979	7.763636	2.523737	17.360187	2.428210	-10.298283	3.611557	-0.720703	0.277588	0.332764	0.253129	0.077440	0.102125	0.495962	-0.499332	-0.426035	-0.568492	-4.507523	-82.024313	-93.875476
11238		33.314649	22.908190	8.867075	24.508748	2.457641	23.431269	1.772888	-9.114547	4.342755	-0.672363	0.309082	0.405029	0.323523	0.235292	0.105633	0.492622	-0.529514	-0.442282	-0.530401	-47.575960	-85.919542	-49.595909
11239		30.480428	17.821052	9.875690	21.086592	7.272774	19.266433	1.006862	-8.622619	4.702959	-0.620117	0.356445	0.452148	0.295855	0.184696	0.112563	0.488038	-0.559758	-0.453212	-0.493041	-110.637757	-83.898908	14.234067
11240		16.585188	13.010805	14.650156	16.527516	14.107083	3.837166	0.496628	-7.882592	5.221511	-0.565186	0.394531	0.508545	0.156439	0.133900	0.153122	0.483839	-0.589254	-0.458561	-0.456509	-127.194539	-79.033908	31.242384
11241		17.049490	9.444652	19.323214	14.169748	20.221902	2.147096	0.534762	-7.425643	5.665583	-0.503662	0.433105	0.540527	0.160408	0.098559	0.199574	0.480725	-0.617315	-0.460577	-0.419158	-131.949187	-73.807019	36.439220
11242		11.378105	5.701316	13.842425	9.240057	15.031535	-3.325932	1.188947	-5.986074	5.610864	-0.455322	0.462402	0.559570	0.107923	0.059259	0.142061	0.481898	-0.639462	-0.459757	-0.384039	-132.430683	-69.110374	37.660890
11243		29.131332	11.592295	14.324055	20.368678	19.483468	10.018977	1.876439	-4.609704	4.515495	-0.411621	0.500732	0.560303	0.285198	0.121016	0.150981	0.485644	-0.653841	-0.459797	-0.353877	-131.901432	-65.416140	38.248831
11244		31.163798	21.818936	24.738047	31.224865	29.646377	4.514274	1.762408	-0.439808	2.224321	-0.405273	0.511963	0.544434	0.308654	0.219438	0.249991	0.494221	-0.655456	-0.456681	-0.342879	-129.545731	-64.274867	36.757778
11245		17.362370	22.231129	18.581638	26.879485	20.187693	-6.513688	0.738144	2.539166	0.385151	-0.434814	0.518311	0.510986	0.175543	0.221966	0.184415	0.503011	-0.650076	-0.450413	-0.348582	-126.431340	-65.003662	33.776423
11246		11.363941	19.673836	15.372284	22.559627	15.603067	-9.635141	-0.751474	4.081172	-0.780750	-0.459229	0.507080	0.493408	0.117502	0.196854	0.150612	0.508229	-0.643021	-0.441297	-0.365354	-123.168974	-66.696323	29.725707
11247		4.142941	13.745682	10.938997	14.746676	10.024221	-12.599138	-2.020106	4.463100	-1.185647	-0.483398	0.495605	0.473877	0.044654	0.138287	0.107023	0.509218	-0.637109	-0.429995	-0.387160	-119.894034	-68.630328	24.933195
11248		-0.712772	6.568888	7.780183	6.543661	6.746493	-13.792107	-2.510701	4.212655	-1.282634	-0.509766	0.477539	0.456787	-0.005073	0.066697	0.077090	0.507578	-0.632460	-0.418378	-0.409046	-116.596282	-70.412364	19.874055
11249		-2.163161	1.407807	6.240267	1.347913	5.735402	-13.111515	-2.139726	3.858738	-1.408140	-0.529785	0.468506	0.432617	-0.020321	0.014894	0.062647	0.505841	-0.626786	-0.408604	-0.429310	-112.896006	-72.091395	14.672766
11250		-0.362765	-0.829557	6.645799	0.012902	6.657951	-10.620625	-1.222629	3.701855	-1.684944	-0.551514	0.448486	0.408936	-0.002464	-0.007865	0.066560	0.505792	-0.618427	-0.401824	-0.447503	-108.275361	-73.734825	9.102700
11251		1.604225	-1.368791	7.673690	0.291310	7.834105	-8.445833	-0.125813	3.848043	-2.071884	-0.578369	0.443604	0.378174	0.017372	-0.013815	0.076420	0.508362	-0.605718	-0.398162	-0.464910	-101.697106	-75.472934	2.207712
11252		2.968833	-0.090235	8.589745	1.981918	8.462624	-7.157924	0.835186	4.244073	-2.509874	-0.602295	0.425781	0.336670	0.031484	-0.001647	0.085236	0.513301	-0.588627	-0.396812	-0.482266	-92.037784	-77.191804	-7.242252
11253		3.973814	2.092722	9.058031	4.264676	8.424408	-6.202500	1.307961	4.782129	-2.887928	-0.624512	0.412354	0.294922	0.042181	0.019741	0.089723	0.519454	-0.567646	-0.396056	-0.501083	-77.758761	-78.620664	-21.072246
11254		4.206710	3.078896	9.370218	5.149563	8.398244	-5.582876	1.298300	5.270416	-3.141872	-0.644043	0.394287	0.244385	0.044990	0.029493	0.092736	0.525405	-0.544659	-0.394364	-0.521318	-59.310365	-79.198799	-39.111669
11255		4.047911	2.368377	9.441738	4.258242	8.356814	-5.003019	1.107568	5.644939	-3.320560	-0.663574	0.374268	0.194092	0.043504	0.022459	0.093344	0.530599	-0.520046	-0.391265	-0.543072	-39.686700	-78.537753	-58.454066
11256		3.842271	0.545838	9.470201	2.249462	8.381711	-4.390869	1.012861	5.911318	-3.491931	-0.678467	0.347656	0.141846	0.041281	0.004278	0.093534	0.534957	-0.494260	-0.387200	-0.565336	-23.278058	-76.684378	-74.656424
11257		4.086612	-1.440038	9.826765	0.109074	8.594676	-3.376659	1.140726	6.112314	-3.656195	-0.684326	0.323242	0.089600	0.043562	-0.015736	0.096876	0.538920	-0.466371	-0.382863	-0.587775	-10.951347	-73.926550	-86.713448
11258		4.948609	-2.854303	10.236143	-1.553041	8.518275	-1.913493	1.481686	6.311381	-3.814400	-0.696533	0.287598	0.041992	0.052112	-0.030270	0.100524	0.542830	-0.436301	-0.378859	-0.609460	-2.047345	-70.583912	-95.169517
11259		5.519370	-3.074103	10.658768	-2.177723	8.249912	-0.831432	1.863910	6.526102	-3.915385	-0.691406	0.265625	-0.017090	0.057996	-0.032838	0.104426	0.546905	-0.403431	-0.375059	-0.630451	4.600617	-66.770321	-101.150653
11260		6.112160	-2.835618	11.326570	-2.452556	8.017967	0.351759	2.113427	6.652038	-3.924394	-0.692139	0.223633	-0.062256	0.064248	-0.030777	0.110846	0.550803	-0.369110	-0.371173	-0.650081	9.541406	-62.721390	-105.275402
11261		7.310023	-2.433326	12.115835	-2.773628	7.446588	2.141924	2.210008	6.738973	-3.852696	-0.691162	0.199219	-0.121094	0.076615	-0.027105	0.118326	0.554409	-0.333486	-0.366565	-0.668616	13.313154	-58.473944	-108.144582
11262		8.602972	-1.651705	13.010437	-2.892915	6.663794	4.083935	2.158656	6.830194	-3.728628	-0.683350	0.164063	-0.164307	0.090054	-0.019552	0.126874	0.557584	-0.297676	-0.360794	-0.685796	16.153182	-54.158229	-110.073729
11263		9.941483	-0.378570	13.957607	-2.697711	5.592748	6.158737	1.959360	6.911488	-3.553543	-0.675293	0.124268	-0.218262	0.104051	-0.006951	0.135975	0.560323	-0.261676	-0.353182	-0.702016	18.275683	-49.746521	-111.338556
11264		10.911062	1.579718	14.854259	-1.863591	4.378260	8.058520	1.591238	6.957440	-3.365612	-0.662598	0.084473	-0.263428	0.114422	0.012739	0.144733	0.562421	-0.226766	-0.343435	-0.717156	19.757710	-45.362199	-112.115470
11265		12.159124	4.067649	16.380619	-0.723884	3.109707	10.737440	1.066949	6.925193	-3.192182	-0.641113	0.049316	-0.315430	0.127787	0.037810	0.159659	0.563642	-0.193089	-0.331072	-0.731721	20.698744	-40.979333	-112.594008
11266		14.234452	4.702239	18.147332	-1.715334	1.360636	13.618104	0.489840	6.811588	-3.245481	-0.613281	0.020996	-0.363037	0.149148	0.044202	0.176581	0.563099	-0.161394	-0.316598	-0.746081	21.249509	-36.682342	-113.030421
11267		17.200446	3.591732	17.226953	-4.455605	-2.825393	14.216582	0.147555	6.705047	-3.632682	-0.578369	-0.009521	-0.406250	0.178261	0.032593	0.166387	0.559850	-0.129903	-0.300880	-0.761029	21.702411	-32.317757	-113.678017
11268		21.212478	6.097677	14.093645	-3.965830	-9.880518	14.105721	-0.041865	6.685923	-3.866289	-0.550293	-0.042480	-0.431641	0.217801	0.056831	0.133705	0.554745	-0.098784	-0.284327	-0.775666	22.040222	-27.950236	-114.405870
11269		25.076355	5.603196	12.267802	-6.496307	-15.415974	13.219461	-0.185087	6.493707	-3.871988	-0.513672	-0.063965	-0.459717	0.255591	0.051223	0.114381	0.548446	-0.068362	-0.267212	-0.789387	22.250962	-23.642670	-115.132687
11270		28.268485	5.075565	10.283437	-8.837045	-20.242589	11.219299	-0.049184	6.108788	-4.084679	-0.490234	-0.090332	-0.478760	0.286606	0.044952	0.094107	0.540099	-0.039001	-0.251516	-0.802192	22.547845	-19.527551	-116.026223
11271		32.084339	3.961857	7.598459	-11.905019	-25.368008	7.994931	0.234847	5.589070	-4.347369	-0.469482	-0.110107	-0.502441	0.323558	0.032522	0.067008	0.529371	-0.010327	-0.237976	-0.814265	23.016987	-15.591240	-117.135825
11272		37.058500	3.217730	2.703807	-14.675273	-31.935246	2.647235	0.697286	5.073406	-4.427148	-0.452881	-0.132080	-0.525879	0.371703	0.023884	0.017710	0.517123	0.017330	-0.227510	-0.824938	23.701227	-11.929543	-118.347768
11273		39.584552	2.432015	-4.161603	-15.665702	-36.414911	-5.543527	1.012503	4.507700	-4.267948	-0.431885	-0.156006	-0.547119	0.395177	0.016122	-0.050433	0.504282	0.043448	-0.219503	-0.834045	24.493662	-8.563561	-119.545970
11274		38.291915	1.460159	-10.435398	-14.689989	-36.675258	-13.825750	0.905110	3.588798	-3.894613	-0.421875	-0.187012	-0.568359	0.381159	0.007660	-0.111159	0.491610	0.064840	-0.213331	-0.841787	25.154884	-5.773122	-120.718563
11275		36.163407	-1.495892	-14.820339	-15.073407	-34.369187	-20.814231	0.528388	2.341843	-3.470527	-0.407715	-0.204590	-0.569824	0.359538	-0.020811	-0.152472	0.479210	0.079665	-0.208634	-0.848813	25.558894	-3.710655	-121.946783
11276		33.318780	-2.624267	-17.157133	-14.145584	-31.500132	-24.609379	0.187685	1.028594	-3.067042	-0.402588	-0.222412	-0.566895	0.331847	-0.031177	-0.173308	0.467139	0.087555	-0.205742	-0.855444	25.733989	-2.431438	-123.279501
11277		28.573175	-8.509632	-14.720490	-17.413841	-23.490581	-25.637566	-0.137913	-0.571861	-2.710915	-0.404541	-0.229004	-0.564453	0.284962	-0.089064	-0.146329	0.454976	0.087478	-0.205339	-0.862079	25.716512	-2.064381	-124.824183
11278		41.110466	-8.845771	-16.305166	-25.139811	-33.439703	-26.659057	0.117600	-2.209533	-2.483669	-0.422119	-0.240479	-0.552979	0.411733	-0.093474	-0.158559	0.441898	0.080645	-0.209779	-0.868456	25.854701	-2.598012	-126.659520
11279		34.023656	-3.416757	-23.285860	-15.865455	-32.286183	-30.238145	-1.561944	-3.451875	-0.654610	-0.443115	-0.220703	-0.531738	0.344066	-0.037076	-0.226660	0.436000	0.062709	-0.210413	-0.872753	25.031797	-4.244981	-127.852153
11280		-4.748145	-4.663299	23.011299	-6.695976	13.701185	8.656684	-2.556142	-5.282478	1.360674	-0.468750	-0.194336	-0.499268	-0.053241	-0.044048	0.229331	0.436992	0.032515	-0.211124	-0.873732	23.617558	-7.336737	-128.392577
11281		2.070814	-8.964012	27.495883	-14.200639	12.764385	12.004435	-1.566293	-3.966968	2.087506	-0.496338	-0.170410	-0.482422	0.016160	-0.087297	0.275999	0.442071	0.009347	-0.213326	-0.871193	22.689106	-9.922980	-128.186277
11282		9.794176	-11.697391	9.906547	-16.837403	2.081728	-3.253319	-0.834582	-4.354156	3.415129	-0.506348	-0.146240	-0.458984	0.097721	-0.114883	0.101677	0.452174	-0.015222	-0.219407	-0.864389	22.032738	-12.987387	-127.309443
11283		19.290502	-5.691145	18.634445	-18.739732	-4.553142	9.674061	-0.089232	-4.145839	2.959784	-0.520264	-0.130859	-0.437256	0.189801	-0.054003	0.190325	0.460282	-0.036812	-0.228157	-0.857164	21.800098	-15.851242	-126.601373
11284		18.360975	2.844071	12.183325	-9.824632	-10.094943	7.367469	0.492301	-3.376077	1.902395	-0.531738	-0.122070	-0.413330	0.181238	0.029867	0.124978	0.464589	-0.052425	-0.237661	-0.851426	21.990170	-18.065325	-126.299129
11285		13.649227	4.024168	11.896070	-5.808216	-6.633541	6.503985	0.462424	-3.423785	1.342159	-0.538574	-0.117920	-0.395752	0.134155	0.040868	0.121365	0.466297	-0.067779	-0.247246	-0.846666	22.257089	-20.203342	-126.327140
11286		9.856779	0.007583	10.119809	-6.559226	-2.372774	2.471201	0.576444	-3.398810	0.825102	-0.554443	-0.118164	-0.380127	0.096829	0.000183	0.102854	0.465710	-0.081946	-0.257310	-0.842728	22.703339	-22.196285	-126.658364
11287		11.692734	-1.111077	11.404501	-8.466465	-2.152508	4.032213	0.970884	-3.193222	0.745858	-0.556641	-0.118164	-0.369141	0.115129	-0.011239	0.115838	0.465094	-0.094372	-0.268550	-0.838249	23.390052	-24.080262	-127.009479
11288		23.669211	15.542279	17.574205	-1.493982	-14.086437	20.352454	0.289304	-2.029079	1.160697	-0.552246	-0.118164	-0.373535	0.233985	0.156529	0.178351	0.467335	-0.103869	-0.273932	-0.834128	23.484414	-25.424196	-126.848162
11289		6.246954	13.772827	6.207824	7.663212	-6.751239	2.952409	-0.287879	-0.310357	0.342153	-0.558838	-0.115967	-0.375732	0.062137	0.137924	0.061976	0.468204	-0.106606	-0.273346	-0.833488	23.259803	-25.700879	-126.726821
11290		5.781685	5.336478	10.095951	0.626740	-0.744965	2.949958	-0.562468	-0.752073	0.320271	-0.561279	-0.111572	-0.384766	0.057351	0.053741	0.101025	0.468201	-0.111607	-0.272606	-0.833077	22.934368	-26.181998	-126.728409
11291		8.043722	2.087974	7.120835	-3.027630	-2.668521	0.359807	-0.252126	-0.125510	0.364091	-0.563965	-0.104980	-0.387451	0.080354	0.021116	0.071232	0.469417	-0.113512	-0.271725	-0.832423	22.703143	-26.364797	-126.545633
11292		7.558484	6.759673	6.179443	1.286674	-4.772999	0.984166	-0.337411	-0.087489	0.349630	-0.570801	-0.098389	-0.394287	0.075439	0.067833	0.061713	0.470556	-0.115257	-0.270345	-0.831990	22.424091	-26.500732	-126.361712
11293		6.639259	4.522478	7.152614	-0.110935	-2.658783	0.608953	-0.497597	-0.006740	0.455521	-0.580078	-0.093994	-0.396729	0.066287	0.045554	0.071415	0.472163	-0.117371	-0.268112	-0.831506	22.013538	-26.639408	-126.093758
11294		7.194698	3.617536	8.166901	-1.161951	-2.153673	1.392651	-0.442769	0.132823	0.468935	-0.580322	-0.084961	-0.401367	0.071916	0.036525	0.081541	0.474024	-0.118606	-0.265699	-0.831046	21.617003	-26.681394	-125.784000
11295		4.173214	3.153731	8.486864	0.060689	0.372132	0.149551	-0.346720	0.223445	0.441936	-0.582764	-0.080566	-0.408203	0.041757	0.031777	0.084767	0.475959	-0.119389	-0.263554	-0.830511	21.270954	-26.691645	-125.468217
11296		3.447591	3.319676	9.204042	0.579624	1.199373	0.475456	-0.282154	0.164786	0.423708	-0.587402	-0.073975	-0.408447	0.034481	0.033400	0.091965	0.477762	-0.120047	-0.261755	-0.829950	20.974811	-26.703861	-125.177481
11297		3.954788	2.904639	9.447651	-0.010317	1.113335	0.774835	-0.240055	0.103602	0.374248	-0.594482	-0.067383	-0.399902	0.039542	0.029234	0.094421	0.479315	-0.120980	-0.260372	-0.829354	20.719927	-26.761045	-124.929539
11298		3.425488	2.811915	9.652768	0.202013	1.636664	0.680035	-0.168660	0.041916	0.307239	-0.590088	-0.058594	-0.397949	0.034232	0.028253	0.096497	0.480537	-0.121724	-0.259405	-0.828840	20.532305	-26.813387	-124.736210
11299		4.438704	2.824487	9.078390	-0.245171	0.572807	0.661505	-0.114928	-0.038686	0.269999	-0.597168	-0.054199	-0.391357	0.044331	0.028357	0.090776	0.481545	-0.122806	-0.258939	-0.828241	20.390744	-26.923984	-124.582211
11300		5.580078	2.297839	8.549802	-1.225475	-0.337477	0.574839	-0.057816	-0.135180	0.246409	-0.599609	-0.045410	-0.387207	0.055715	0.023072	0.085529	0.482351	-0.123937	-0.258893	-0.827618	20.300342	-27.058501	-124.464511
11301		6.204394	2.496613	8.268429	-1.329375	-1.014301	0.689617	-0.000276	-0.148351	0.212676	-0.599609	-0.043213	-0.385254	0.061956	0.025032	0.082730	0.483048	-0.125123	-0.259198	-0.826938	20.250163	-27.216062	-124.368755
11302		5.444386	3.407365	8.161515	-0.136098	-0.863280	0.536128	0.013418	-0.146659	0.198972	-0.595459	-0.034180	-0.376709	0.054350	0.034122	0.081657	0.483685	-0.126068	-0.259502	-0.826326	20.214092	-27.347143	-124.281703
11303		4.515433	3.804160	8.177596	0.694335	-0.313936	0.244805	-0.046002	-0.108888	0.217077	-0.591064	-0.031982	-0.363281	0.045068	0.038109	0.081792	0.484420	-0.127207	-0.259519	-0.825715	20.131711	-27.484303	-124.173935
11304		5.013266	3.934142	8.001385	0.593927	-0.821525	0.365953	-0.156262	-0.078296	0.285422	-0.586914	-0.023193	-0.359375	0.050045	0.039475	0.080003	0.485393	-0.128392	-0.258901	-0.825154	19.966495	-27.595322	-124.018587
11305		4.461336	4.277217	8.420922	1.189771	-0.320190	0.559959	-0.285179	-0.009267	0.329571	-0.584961	-0.016357	-0.366211	0.044539	0.042966	0.084150	0.486564	-0.129843	-0.257616	-0.824639	19.704498	-27.699883	-123.819588
11306		4.811007	4.686463	8.404454	1.423058	-0.762167	0.823914	-0.408172	0.035849	0.375405	-0.576172	-0.009521	-0.357422	0.048037	0.047126	0.083940	0.487888	-0.131284	-0.255621	-0.824250	19.356791	-27.765250	-123.583239
11307		4.219277	3.789603	8.692034	0.979938	0.165672	0.518179	-0.449747	0.071016	0.409417	-0.565430	0.001709	-0.362305	0.042146	0.038178	0.086820	0.489374	-0.132901	-0.253408	-0.823793	18.968929	-27.838980	-123.317081
11308		4.655884	3.846186	8.634004	0.879292	-0.236135	0.684318	-0.500115	0.048744	0.444418	-0.563232	0.006104	-0.364746	0.046494	0.038781	0.086232	0.490928	-0.134599	-0.250952	-0.823345	18.546372	-27.907238	-123.034409
11309		5.421811	2.933543	8.519719	-0.216488	-0.529982	0.687748	-0.516632	0.007808	0.481560	-0.561523	0.017334	-0.371826	0.054150	0.029686	0.085119	0.492573	-0.136725	-0.248564	-0.822736	18.104195	-28.024513	-122.735498
11310		5.520086	2.108332	8.391284	-0.920478	-0.371163	0.402238	-0.420747	-0.017485	0.458274	-0.559082	0.017334	-0.374023	0.055145	0.021386	0.083873	0.494144	-0.138515	-0.246582	-0.822091	17.727655	-28.127642	-122.455855
11311		5.199713	2.324176	8.720953	-0.522768	-0.048773	0.590096	-0.347564	-0.069437	0.450596	-0.555176	0.028564	-0.385498	0.051914	0.023510	0.087187	0.495671	-0.140501	-0.245094	-0.821279	17.396212	-28.278192	-122.189063
11312		4.380370	2.953704	8.779763	0.475218	0.344091	0.417256	-0.347299	-0.139901	0.481774	-0.559570	0.028320	-0.383301	0.043671	0.029795	0.087777	0.497229	-0.142638	-0.243696	-0.820384	17.063775	-28.449339	-121.916278
11313		4.680866	3.244506	9.097435	0.656699	0.187119	0.898709	-0.328022	-0.239711	0.521443	-0.555420	0.037354	-0.387939	0.046615	0.032716	0.090977	0.498842	-0.145356	-0.242654	-0.819236	16.734801	-28.702033	-121.634798
11314		4.595265	2.652776	9.117881	0.239406	0.504228	0.721897	-0.293545	-0.329274	0.573830	-0.557617	0.035156	-0.392334	0.045726	0.026793	0.091215	0.500573	-0.148245	-0.241875	-0.817891	16.418684	-28.989474	-121.336178
11315		4.584133	2.826691	9.046173	0.472524	0.435708	0.695600	-0.234416	-0.428680	0.623444	-0.564697	0.046143	-0.395020	0.045559	0.028515	0.090526	0.502428	-0.151619	-0.241605	-0.816214	16.124026	-29.359355	-121.020566
11316		4.179102	3.027321	9.267252	0.907779	0.821406	0.723543	-0.200781	-0.526924	0.668024	-0.576172	0.050537	-0.395264	0.041445	0.030505	0.092751	0.504358	-0.155191	-0.241622	-0.814345	15.843335	-29.767802	-120.692645
11317		4.398776	2.728462	9.094714	0.619645	0.726647	0.608199	-0.171105	-0.628262	0.719575	-0.578613	0.059326	-0.399902	0.043603	0.027520	0.091061	0.506389	-0.159326	-0.242026	-0.812163	15.564719	-30.259424	-120.344806
11318		5.451258	2.335982	8.661078	-0.115227	-0.093875	0.683228	-0.165692	-0.761707	0.756561	-0.581055	0.061523	-0.395508	0.054093	0.023637	0.086798	0.508397	-0.163863	-0.242697	-0.809802	15.287610	-30.808245	-119.993829
11319		5.331989	2.212465	8.709786	-0.082433	0.139442	0.635190	-0.150699	-0.858048	0.775395	-0.592529	0.070313	-0.391357	0.052859	0.022396	0.087308	0.510361	-0.168933	-0.243705	-0.807218	15.011991	-31.432011	-119.640638
11320		4.286088	2.125505	9.108601	0.380337	1.252026	0.392285	-0.148607	-0.984478	0.788425	-0.608154	0.065674	-0.384766	0.042327	0.021490	0.091279	0.512203	-0.174354	-0.244968	-0.804512	14.741890	-32.105957	-119.296677
11321		4.558076	2.619062	9.180607	0.817861	1.016535	0.685647	-0.148415	-1.174493	0.831235	-0.608643	0.078857	-0.385010	0.044931	0.026447	0.092052	0.513962	-0.180743	-0.246721	-0.801439	14.462839	-32.909886	-118.948546
11322		4.674403	2.327733	9.136217	0.610525	1.124508	0.632370	-0.119921	-1.377806	0.896081	-0.622314	0.085449	-0.372070	0.046008	0.023539	0.091667	0.515721	-0.187783	-0.248984	-0.797982	14.190837	-33.814608	-118.585905
11323		4.318043	2.362468	9.518467	0.919832	1.740477	0.720566	-0.118799	-1.611464	0.965485	-0.631348	0.089600	-0.361084	0.042297	0.023887	0.095514	0.517426	-0.195977	-0.251818	-0.794009	13.900336	-34.876584	-118.204082
11324		4.351086	2.013253	9.634605	0.724053	2.067485	0.723332	-0.194342	-1.894343	1.028698	-0.645020	0.096191	-0.348145	0.042491	0.020447	0.096732	0.518898	-0.205395	-0.254946	-0.789659	13.559982	-36.083636	-117.816209
11325		4.309115	1.934966	9.651555	0.820707	2.323128	0.646236	-0.239946	-2.180818	1.068980	-0.658691	0.100342	-0.337158	0.041931	0.019692	0.096954	0.520044	-0.216233	-0.258606	-0.784806	13.183604	-37.472083	-117.429130
11326		4.597319	1.670590	9.742227	0.641954	2.475967	0.783901	-0.270823	-2.459752	1.085557	-0.670410	0.113525	-0.315430	0.044679	0.017083	0.097954	0.520774	-0.228083	-0.262763	-0.779570	12.795777	-38.997942	-117.059484
11327		4.989226	1.244518	9.358809	0.257828	2.334287	0.603873	-0.305924	-2.784210	1.119166	-0.688477	0.117676	-0.295654	0.048512	0.012863	0.094250	0.521057	-0.241426	-0.267573	-0.773704	12.377842	-40.724750	-116.692249
11328		5.161791	1.165239	9.419044	0.327399	2.552426	0.679567	-0.304335	-3.144925	1.191634	-0.700195	0.133057	-0.262939	0.050057	0.012098	0.094968	0.521007	-0.256053	-0.273133	-0.767064	11.942101	-42.642816	-116.305104
11329		4.493223	2.133925	9.887958	1.721334	3.325976	0.602444	-0.268988	-3.512753	1.349389	-0.716309	0.141602	-0.229980	0.043041	0.021768	0.099618	0.520931	-0.272264	-0.279528	-0.759188	11.442335	-44.799634	-115.815773
11330		4.132069	2.807610	10.133086	2.729014	3.871979	0.442915	-0.251450	-3.919826	1.594617	-0.728027	0.159180	-0.204102	0.039099	0.028522	0.102076	0.521032	-0.290072	-0.286569	-0.749841	10.813365	-47.192406	-115.147180
11331		4.831405	2.758889	9.567106	2.663483	3.427680	0.366556	-0.262279	-4.384024	1.948413	-0.735107	0.169922	-0.162354	0.045930	0.028170	0.096659	0.521504	-0.310126	-0.294143	-0.738468	9.918394	-49.891897	-114.163457
11332		3.889524	3.499547	9.775023	3.929030	4.347943	-0.402376	-0.237364	-4.891952	2.458679	-0.749512	0.191895	-0.118896	0.036055	0.035567	0.098613	0.522805	-0.332410	-0.302117	-0.724502	8.599247	-52.897824	-112.654979
11333		3.837400	2.500651	10.640863	3.432504	5.790041	-0.386265	-0.255359	-5.556357	3.142824	-0.750244	0.218506	-0.066406	0.034999	0.025711	0.107380	0.525078	-0.357990	-0.310376	-0.706968	6.512891	-56.316898	-110.284916
11334		1.811941	3.689194	12.390736	5.589042	8.469043	-1.603596	-0.360194	-6.275900	3.841857	-0.753662	0.251465	-0.005615	0.013507	0.037405	0.124312	0.527894	-0.386935	-0.318509	-0.685683	3.251358	-60.101194	-106.697443
11335		2.853192	7.546695	10.423533	9.128592	5.923284	-2.381418	-0.833699	-7.040036	4.612740	-0.739258	0.291504	0.061768	0.023093	0.076478	0.104795	0.530377	-0.420446	-0.325049	-0.660506	-2.184409	-64.185881	-101.101988
11336		8.264029	3.378772	8.625318	4.759068	3.656215	1.048775	-0.949597	-8.049454	5.210545	-0.720459	0.327148	0.133789	0.078163	0.036283	0.089292	0.531862	-0.457611	-0.331943	-0.630499	-10.702461	-68.457021	-92.408385
11337		11.990897	1.954099	8.177213	3.984076	3.145841	3.917298	-0.284193	-8.862234	5.227930	-0.688232	0.374023	0.207520	0.115566	0.022722	0.086928	0.532236	-0.494516	-0.342232	-0.595866	-23.195010	-72.482874	-79.346939
11338		18.791478	-4.185026	9.941724	-0.226645	5.420205	11.155833	0.980959	-9.625683	4.865900	-0.651367	0.411865	0.274902	0.183802	-0.037860	0.108140	0.531871	-0.528258	-0.358247	-0.556521	-41.383897	-75.709366	-59.874748
11339		24.028045	8.045724	10.558873	13.531106	4.819939	13.565445	2.113150	-9.430212	4.528451	-0.605469	0.450195	0.322266	0.233039	0.084590	0.117574	0.532356	-0.556361	-0.376742	-0.514903	-64.599560	-76.922662	-34.763164
11340		29.931253	12.549994	10.677110	20.122978	6.222351	17.070251	2.387961	-9.086455	4.306943	-0.554932	0.483887	0.378906	0.291235	0.130438	0.121667	0.532216	-0.580840	-0.394602	-0.472927	-86.770065	-75.793448	-10.564903
11341		20.806378	9.799378	16.785153	16.805413	15.497034	7.139980	1.878877	-8.873968	4.787844	-0.502441	0.524414	0.415283	0.197924	0.101175	0.177727	0.530720	-0.605594	-0.408259	-0.430020	-102.906475	-72.587886	7.302978
11342		24.985336	9.682827	21.322803	18.615402	22.028507	8.631628	2.001350	-7.144277	4.795686	-0.449707	0.558350	0.440674	0.239624	0.100458	0.222905	0.531938	-0.624911	-0.416618	-0.391098	-110.713256	-68.753927	16.780287
11343		15.865033	13.724664	16.886242	19.133982	17.529275	-2.630725	1.088201	-4.630411	4.362893	-0.414551	0.581055	0.446533	0.151644	0.139671	0.173183	0.533886	-0.639881	-0.417249	-0.362521	-113.695160	-65.431816	20.688644
11344		32.749822	18.981463	23.780811	30.750435	27.001094	8.175479	0.511850	-2.142891	2.144201	-0.401611	0.592285	0.452881	0.322866	0.192677	0.241775	0.534823	-0.646866	-0.417010	-0.348758	-114.724148	-63.799134	22.147799
11345		20.596487	18.589401	22.880567	25.602043	24.277999	-2.855828	-0.373104	1.315057	0.003865	-0.417236	0.587646	0.433105	0.207458	0.186323	0.227098	0.536302	-0.645558	-0.412874	-0.353793	-113.544769	-64.110608	20.594672
11346		10.525320	15.992188	18.401751	19.360385	18.172128	-9.618697	-1.620535	2.676085	-1.366778	-0.441406	0.573975	0.431152	0.108787	0.160663	0.181278	0.534047	-0.642325	-0.407207	-0.369316	-112.144535	-65.419502	18.016163
11347		3.835997	8.456287	12.948093	10.004477	12.301741	-11.366043	-2.532146	3.020745	-2.151724	-0.469727	0.553711	0.423096	0.041217	0.085755	0.127792	0.527923	-0.638910	-0.401333	-0.389902	-110.962870	-67.215806	15.141596
11348		0.588897	1.845542	10.189958	2.857816	9.868694	-11.232209	-2.553573	2.851885	-2.484338	-0.493896	0.533447	0.414795	0.007578	0.019666	0.101554	0.520458	-0.635013	-0.396681	-0.410519	-109.872244	-69.112375	12.386606
11349		0.637615	-2.441916	8.994407	-0.972968	9.282762	-9.428182	-1.873544	2.674523	-2.500295	-0.517822	0.510986	0.397949	0.007281	-0.023663	0.090075	0.514552	-0.629229	-0.393776	-0.429241	-108.237138	-70.982334	9.506350
11350		2.096655	-3.545377	9.093662	-1.385116	9.631364	-7.581979	-0.844873	2.824271	-2.419445	-0.539795	0.497559	0.385010	0.021821	-0.035331	0.090782	0.512121	-0.620541	-0.392257	-0.445865	-105.241977	-72.769509	5.841927
11351		3.524356	-2.175464	9.795115	0.462240	10.074531	-6.439196	-0.006847	3.268307	-2.255373	-0.561768	0.483887	0.354492	0.036590	-0.022159	0.097361	0.513375	-0.608640	-0.390820	-0.461805	-99.962696	-74.454913	0.337706
11352		4.388248	-0.746498	10.230731	2.082471	10.142684	-5.658761	0.464016	3.852801	-2.048049	-0.586182	0.472656	0.323730	0.045761	-0.008163	0.101419	0.517418	-0.594486	-0.388160	-0.477699	-91.913671	-75.848639	-7.716815
11353		4.830956	-0.427613	10.202225	2.410059	9.863754	-4.864847	0.737077	4.487998	-1.922849	-0.603760	0.461426	0.279785	0.050536	-0.005128	0.100887	0.523575	-0.577843	-0.383920	-0.494542	-80.576091	-76.794638	-18.945468
11354		4.613674	-0.823521	9.723833	1.792145	9.236545	-4.524533	1.007994	5.090395	-1.930256	-0.614502	0.447998	0.235840	0.048505	-0.009182	0.095979	0.531242	-0.558778	-0.378538	-0.512111	-66.643814	-77.034027	-32.656680
11355		3.879309	-1.070331	9.100981	1.171129	8.487042	-4.753682	1.315762	5.592084	-2.074254	-0.627441	0.430176	0.185547	0.041198	-0.011716	0.089805	0.539957	-0.536658	-0.372673	-0.530622	-51.532548	-76.404558	-47.399980
11356		3.285772	-1.023173	8.816787	0.915406	8.034807	-4.897963	1.579287	5.927431	-2.285382	-0.642334	0.410156	0.130859	0.035324	-0.011316	0.087059	0.548848	-0.512216	-0.366817	-0.549406	-37.674725	-74.901972	-60.768708
11357		3.658714	-0.732843	8.784527	1.043950	7.576165	-4.105630	1.747637	6.163665	-2.528780	-0.655273	0.392334	0.087158	0.039166	-0.008573	0.086593	0.557374	-0.485410	-0.360951	-0.568706	-25.958352	-72.645932	-71.918217
11358		3.897918	-0.796817	8.621658	0.738985	7.005208	-3.448102	1.827200	6.359628	-2.754341	-0.665771	0.372559	0.032227	0.041570	-0.009308	0.084841	0.565061	-0.457051	-0.354902	-0.588094	-16.699814	-69.827904	-80.590042
11359		4.081076	-1.562952	8.552826	-0.298910	6.555807	-2.802281	1.906636	6.445305	-2.931364	-0.662842	0.350342	-0.022217	0.043292	-0.017058	0.084001	0.571874	-0.427053	-0.348734	-0.607429	-9.382980	-66.588246	-87.283920
11360		4.579109	-2.550681	8.980752	-1.549278	6.391229	-1.760347	2.072205	6.446195	-3.089075	-0.664307	0.323975	-0.072510	0.048236	-0.027158	0.088003	0.577731	-0.395973	-0.342979	-0.625938	-3.572389	-63.126618	-92.391882
11361		5.516155	-3.217240	9.767654	-2.565240	6.187552	-0.259271	2.308035	6.418873	-3.212823	-0.660889	0.295166	-0.128906	0.057711	-0.034196	0.095464	0.582857	-0.363266	-0.337736	-0.643622	1.272580	-59.464645	-96.399564
11362		6.475254	-3.069746	10.549420	-2.918173	5.729870	1.197676	2.532591	6.425717	-3.290771	-0.662109	0.259766	-0.169922	0.067556	-0.033108	0.102944	0.587267	-0.329494	-0.332920	-0.660088	5.345633	-55.691543	-99.507654
11363		7.511166	-1.632792	11.485777	-2.138873	5.068706	2.862212	2.597051	6.435903	-3.305841	-0.647461	0.229004	-0.224121	0.078450	-0.019075	0.112133	0.590924	-0.294716	-0.327733	-0.675679	8.792323	-51.775971	-101.930001
11364		8.483108	0.410492	12.583854	-0.882228	4.346811	4.702967	2.377190	6.422669	-3.256261	-0.645996	0.184814	-0.262451	0.088849	0.001206	0.123054	0.593506	-0.260558	-0.321384	-0.690342	11.553908	-47.836747	-103.765333
11365		9.607450	2.098955	13.969524	-0.129033	3.553348	6.893038	1.945516	6.394969	-3.190295	-0.622314	0.149658	-0.307861	0.100782	0.018067	0.136708	0.594900	-0.227236	-0.312982	-0.704627	13.689734	-43.837892	-105.183358
11366		10.894764	3.131709	15.814643	-0.188301	2.780410	9.440267	1.514522	6.329848	-3.186477	-0.607422	0.109863	-0.350830	0.114351	0.028343	0.154806	0.594895	-0.195408	-0.302941	-0.718431	15.323347	-39.882131	-106.335562
11367		13.443761	2.690537	16.549330	-2.025328	0.197190	11.576899	1.291233	6.281177	-3.404750	-0.576904	0.074951	-0.391602	0.139968	0.023503	0.161314	0.593043	-0.163545	-0.291936	-0.732343	16.753433	-35.859747	-107.455428
11368		16.906134	2.684976	15.541137	-3.662052	-4.428505	12.576736	1.329369	6.299094	-3.771571	-0.555176	0.030762	-0.418701	0.174299	0.022586	0.150135	0.589093	-0.131035	-0.281043	-0.746200	18.167367	-31.781225	-108.632860
11369		20.262317	3.306296	14.576751	-4.884051	-9.143865	13.126516	1.493655	6.250884	-4.029680	-0.527344	0.002441	-0.444336	0.207646	0.027854	0.139550	0.583383	-0.097396	-0.270547	-0.759593	19.610559	-27.621475	-109.815387
11370		24.128801	4.141822	13.688196	-6.279151	-14.310702	13.470678	1.641695	6.057551	-4.339344	-0.508057	-0.032959	-0.467529	0.246097	0.035028	0.129781	0.575470	-0.063778	-0.261066	-0.772406	21.086157	-23.515481	-111.062033
11371		28.929408	4.957776	12.739012	-8.258783	-20.315620	13.475451	1.638858	5.831922	-4.749281	-0.484375	-0.063721	-0.490723	0.293902	0.041635	0.119226	0.564816	-0.030166	-0.251848	-0.785268	22.530521	-19.382451	-112.444191
11372		33.298036	4.992870	9.991285	-10.618588	-26.410785	10.744984	1.490168	5.602730	-5.146409	-0.469971	-0.094482	-0.511719	0.336735	0.040595	0.090839	0.551470	0.002424	-0.242499	-0.798166	23.833044	-15.283317	-113.960879
11373		35.994125	4.438220	4.225947	-12.041142	-31.584277	3.969732	1.197178	5.248016	-5.341689	-0.448486	-0.131836	-0.537109	0.361898	0.034516	0.033005	0.536083	0.033213	-0.232503	-0.810836	24.882983	-11.269332	-115.552673
11374		36.875859	3.222052	-3.554257	-12.303658	-34.825351	-5.552438	0.647802	4.474398	-5.099040	-0.431885	-0.153809	-0.567383	0.368506	0.022955	-0.043705	0.520202	0.058881	-0.222188	-0.822530	25.510371	-7.718337	-117.127789
11375		35.960391	0.656146	-11.461585	-12.314879	-35.165021	-15.844553	-0.076772	3.259711	-4.340169	-0.424561	-0.173584	-0.582031	0.357701	-0.001261	-0.120457	0.505792	0.076887	-0.212015	-0.832654	25.624150	-4.958260	-118.575477
11376		34.442626	-5.891605	-16.570497	-15.784131	-31.963803	-24.799064	-0.381774	1.730489	-3.370592	-0.406006	-0.191162	-0.590332	0.341915	-0.065013	-0.168550	0.493659	0.086572	-0.204744	-0.840765	25.495896	-3.243196	-119.894952
11377		33.152685	-8.788040	-17.035725	-17.799804	-29.031429	-27.328847	0.027922	0.422368	-2.655303	-0.409912	-0.206787	-0.594238	0.329961	-0.092244	-0.171068	0.482873	0.091055	-0.202679	-0.847032	25.572881	-2.377562	-121.166759
11378		30.915893	-14.599391	-13.659403	-22.865723	-23.060657	-27.157221	0.664368	-1.227657	-2.428761	-0.420410	-0.224854	-0.578125	0.308192	-0.149290	-0.135193	0.471004	0.089798	-0.207357	-0.852698	26.015062	-2.418050	-122.728904
11379		46.994522	-3.508506	-17.686718	-22.525371	-42.419899	-24.865564	0.374918	-2.594475	-1.809683	-0.436279	-0.218262	-0.564941	0.471846	-0.039025	-0.170825	0.460387	0.081337	-0.214283	-0.857619	26.307026	-3.313168	-124.318933
11380		13.548665	-5.612374	-16.060692	-6.803327	-13.275340	-25.637493	-1.691712	-3.735281	0.557607	-0.463867	-0.200928	-0.536865	0.138607	-0.057082	-0.157557	0.459373	0.060698	-0.215831	-0.859482	25.383037	-5.391230	-124.968001
11381		3.669025	0.234792	34.472894	-11.570222	8.324391	21.785126	-2.032495	-5.079672	2.075528	-0.480713	-0.172363	-0.515625	0.027871	0.006176	0.345462	0.463251	0.031726	-0.219397	-0.858054	24.234681	-8.558927	-125.112864
11382		0.654749	-2.614868	13.052695	-5.615170	5.393824	1.003919	-0.827067	-3.740791	2.341335	-0.499268	-0.152588	-0.489746	0.004405	-0.025548	0.130729	0.469213	0.011072	-0.224850	-0.853908	23.695624	-11.075109	-124.753742
11383		12.008809	-4.647777	11.786645	-12.881625	-2.972999	1.584555	-0.985836	-4.744644	3.159080	-0.520264	-0.128662	-0.459717	0.117952	-0.044012	0.120903	0.477242	-0.015273	-0.231921	-0.847478	22.994740	-14.314935	-124.155845
11384		19.417026	-1.197359	18.256948	-14.842510	-7.230955	11.141537	0.057914	-4.038286	1.900181	-0.531738	-0.124268	-0.428711	0.190534	-0.010205	0.186438	0.480499	-0.034559	-0.241620	-0.842346	22.996944	-16.882932	-124.054997
11385		17.822899	0.679207	13.267299	-11.130963	-8.304649	7.543056	0.282170	-3.339035	1.460713	-0.536621	-0.115479	-0.413574	0.175926	0.007893	0.135634	0.482607	-0.049958	-0.250598	-0.837732	23.145272	-19.000961	-124.034016
11386		12.425234	0.259361	12.253917	-8.192508	-3.887148	5.099085	0.489928	-3.027066	1.163957	-0.543213	-0.115723	-0.406982	0.122362	0.003006	0.124408	0.483746	-0.063021	-0.259650	-0.833426	23.449226	-20.870452	-124.113423
11387		8.151256	-0.247899	9.571999	-5.824847	-1.302459	1.254850	0.790726	-3.031295	0.723231	-0.545410	-0.115723	-0.384766	0.080059	-0.002569	0.096931	0.483034	-0.074952	-0.270076	-0.829530	24.021968	-22.659939	-124.457537
11388		10.832413	2.502426	10.808494	-4.972642	-3.359325	4.483982	0.993891	-2.988495	0.707842	-0.561035	-0.118164	-0.375732	0.106604	0.024861	0.109810	0.482240	-0.086006	-0.281135	-0.825233	24.735162	-24.399691	-124.827080
11389		22.493979	16.232475	16.648349	0.050257	-13.586634	19.547271	0.010021	-1.716190	1.008110	-0.561035	-0.120361	-0.373535	0.222678	0.163443	0.168409	0.483990	-0.094769	-0.284924	-0.821943	24.679195	-25.568458	-124.701099
11390		4.428332	10.715954	5.812951	6.165682	-3.974922	0.883858	-0.385114	-0.409521	0.342896	-0.558838	-0.115967	-0.380371	0.043981	0.107347	0.058013	0.484626	-0.097985	-0.284188	-0.821446	24.416277	-25.876244	-124.612606
11391		7.945543	4.760703	8.935485	-0.971845	-2.593054	2.755897	-0.583993	-0.690120	0.356606	-0.559082	-0.111572	-0.387207	0.079061	0.048009	0.089488	0.484833	-0.103035	-0.283362	-0.820991	24.063558	-26.356086	-124.586268
11392		7.572954	3.369724	7.287676	-1.713382	-2.713830	0.747334	-0.324560	-0.129719	0.392343	-0.565918	-0.107178	-0.393799	0.075616	0.033964	0.072871	0.486085	-0.105024	-0.282161	-0.820412	23.787221	-26.527939	-124.391967
11393		6.336669	5.279041	6.617829	0.672098	-2.883054	0.338835	-0.294831	-0.043407	0.336942	-0.568359	-0.107178	-0.398438	0.063263	0.052995	0.066114	0.487265	-0.106693	-0.280960	-0.819909	23.528356	-26.664215	-124.205575
11394		5.244341	4.817339	7.977251	0.742708	-1.145309	0.793103	-0.375769	-0.060306	0.377608	-0.570801	-0.098389	-0.400879	0.052328	0.048422	0.079697	0.488521	-0.108499	-0.279385	-0.819463	23.216714	-26.794524	-123.999951
11395		5.612555	4.774207	7.999196	0.582015	-1.396565	0.957248	-0.390484	-0.015736	0.423744	-0.577637	-0.098389	-0.405273	0.056018	0.048017	0.079903	0.490034	-0.110407	-0.277677	-0.818885	22.875529	-26.934017	-123.753686
11396		4.731238	3.292890	8.683740	-0.266072	0.170159	0.605330	-0.367888	0.003390	0.406485	-0.580322	-0.084961	-0.405762	0.047247	0.033185	0.086776	0.491492	-0.111972	-0.275958	-0.818379	22.551672	-27.034929	-123.512990
11397		4.431817	2.208685	9.622504	-1.097089	1.304975	0.873998	-0.167391	0.068752	0.301714	-0.584961	-0.083008	-0.401367	0.044318	0.022234	0.096191	0.492739	-0.112816	-0.275020	-0.817829	22.360265	-27.100580	-123.316725
11398		4.236675	3.605863	9.127098	0.278498	0.658458	0.852416	-0.075757	0.005547	0.243672	-0.589355	-0.083008	-0.394775	0.042325	0.036145	0.091256	0.493695	-0.113428	-0.274580	-0.817316	22.246708	-27.163409	-123.171356
11399		4.545763	2.944581	8.992527	-0.413828	0.598037	0.659712	-0.027133	-0.046196	0.196389	-0.591797	-0.074219	-0.395020	0.045408	0.029503	0.089932	0.494430	-0.114248	-0.274553	-0.816766	22.176149	-27.266053	-123.065257
11400		5.577875	2.366705	8.332860	-1.346137	-0.322317	0.396844	0.045715	-0.132815	0.183617	-0.601074	-0.072021	-0.384033	0.055702	0.023699	0.083371	0.495018	-0.115043	-0.274984	-0.816153	22.163482	-27.389010	-122.989009
11401		6.057381	2.393282	8.066352	-1.517606	-0.815408	0.410699	0.112592	-0.205675	0.147812	-0.594482	-0.067627	-0.382080	0.060473	0.023932	0.080739	0.495415	-0.116101	-0.275947	-0.815437	22.203459	-27.565572	-122.950395
11402		5.386848	2.625188	8.448768	-1.017524	-0.154262	0.494213	0.179110	-0.246049	0.108167	-0.594238	-0.069824	-0.373047	0.053750	0.026205	0.084577	0.495615	-0.116923	-0.277245	-0.814758	22.300661	-27.732303	-122.947027
11403		4.325492	3.516122	8.377025	0.281824	0.315302	0.240600	0.204670	-0.286362	0.087358	-0.603760	-0.058838	-0.366943	0.043120	0.035094	0.083868	0.495705	-0.117999	-0.278815	-0.814012	22.419343	-27.938623	-122.964805
11404		4.531489	3.941273	8.309468	0.564346	0.011991	0.424331	0.156018	-0.312061	0.120959	-0.596924	-0.058838	-0.362305	0.045161	0.039375	0.083196	0.495847	-0.119164	-0.280173	-0.813289	22.507706	-28.143116	-122.970822
11405		4.502039	4.758040	8.089963	1.326857	-0.339933	0.506159	0.053446	-0.296414	0.187958	-0.592529	-0.054199	-0.355957	0.044856	0.047601	0.080979	0.496239	-0.120793	-0.281090	-0.812493	22.512836	-28.376435	-122.931295
11406		4.649380	4.720927	8.528434	1.214009	-0.154540	0.917655	-0.074449	-0.232304	0.266353	-0.585938	-0.052002	-0.349365	0.046332	0.047303	0.085321	0.496942	-0.122408	-0.281224	-0.811774	22.417984	-28.570532	-122.829902
11407		5.066439	4.873371	8.113248	1.222939	-0.735831	0.827151	-0.180085	-0.134278	0.336708	-0.582031	-0.036377	-0.347656	0.050528	0.048892	0.081122	0.498018	-0.124162	-0.280699	-0.811030	22.226580	-28.749791	-122.659516
11408		4.796108	5.460165	7.802072	1.939740	-0.918399	0.631549	-0.347349	-0.017029	0.429942	-0.582031	-0.031982	-0.352295	0.047837	0.054840	0.077930	0.499514	-0.125812	-0.279086	-0.810412	21.900699	-28.864155	-122.404241
11409		5.961398	5.497867	7.381775	1.529704	-2.051630	0.850594	-0.592448	0.105403	0.552652	-0.575684	-0.025146	-0.352539	0.059500	0.055361	0.073623	0.501531	-0.127920	-0.276154	-0.809841	21.380052	-28.959319	-122.042260
11410		5.994672	4.633338	7.414116	0.837730	-1.800249	0.600254	-0.775673	0.225642	0.638026	-0.566895	-0.016113	-0.354980	0.059881	0.046811	0.073893	0.503917	-0.129943	-0.272057	-0.809424	20.717569	-28.982761	-121.600043
11411		5.632292	4.232502	7.760537	0.730160	-1.244410	0.569018	-0.895582	0.233483	0.706784	-0.560791	-0.002686	-0.362061	0.056262	0.042871	0.077349	0.506509	-0.132497	-0.267466	-0.808922	19.961930	-29.032653	-121.112219
11412		4.644013	4.206038	8.255013	1.232033	-0.272958	0.473672	-0.920223	0.280193	0.744251	-0.570068	0.006104	-0.373535	0.046398	0.042612	0.082290	0.509269	-0.134800	-0.262559	-0.808416	19.178151	-29.037040	-120.591621
11413		4.383045	3.925104	8.644323	1.189851	0.184811	0.574355	-0.932373	0.220522	0.802038	-0.561523	0.021729	-0.376465	0.043767	0.039829	0.086210	0.512164	-0.137614	-0.257771	-0.807654	18.373095	-29.099671	-120.046419
11414		4.378085	2.673557	9.132580	0.157231	0.839050	0.627127	-0.827778	0.148336	0.816250	-0.557373	0.026123	-0.383057	0.043738	0.027292	0.091181	0.515069	-0.140296	-0.253504	-0.806695	17.632385	-29.176207	-119.507172
11415		4.184690	2.189520	9.107549	-0.092111	1.103041	0.386679	-0.675458	0.032853	0.824905	-0.560059	0.041748	-0.392578	0.041770	0.022375	0.090994	0.517957	-0.143225	-0.250199	-0.805362	16.982592	-29.332699	-118.982112
11416		3.997134	2.662297	9.429444	0.499182	1.245891	0.683847	-0.521929	-0.102341	0.837673	-0.560059	0.039551	-0.396973	0.039810	0.027036	0.094245	0.520818	-0.146146	-0.247783	-0.803737	16.429653	-29.539651	-118.473346
11417		4.578088	1.929338	9.388690	-0.313273	1.026912	0.754967	-0.476794	-0.251967	0.833613	-0.562988	0.059570	-0.402100	0.045581	0.019707	0.093898	0.523501	-0.149705	-0.245993	-0.801887	15.910252	-29.844571	-117.989539
11418		5.682943	1.321199	8.799069	-1.214087	0.071054	0.674696	-0.383273	-0.421677	0.823043	-0.569580	0.054932	-0.406494	0.056588	0.013614	0.088084	0.525985	-0.153521	-0.244965	-0.799852	15.461828	-30.217488	-117.540033
11419		5.994220	0.457460	8.737285	-2.035836	0.113804	0.595086	-0.282732	-0.574162	0.780864	-0.576416	0.061523	-0.404541	0.059672	0.004932	0.087538	0.528180	-0.157788	-0.244821	-0.797616	15.088689	-30.685646	-117.137273
11420		5.354587	1.108957	8.884175	-1.101958	0.524290	0.547812	-0.190035	-0.724475	0.728375	-0.581055	0.065918	-0.395752	0.053183	0.011368	0.089024	0.530037	-0.162180	-0.245422	-0.795316	14.797978	-31.207124	-116.791188
11421		4.866522	1.459832	9.133660	-0.506952	0.998786	0.578764	-0.148664	-0.897455	0.711453	-0.590332	0.072510	-0.395996	0.048202	0.014838	0.091543	0.531634	-0.167286	-0.246703	-0.792792	14.541525	-31.840587	-116.478035
11422		4.760278	2.048081	9.003604	0.160418	0.911927	0.534343	-0.107549	-1.072117	0.724204	-0.599609	0.081299	-0.385254	0.047045	0.020700	0.090278	0.533075	-0.172822	-0.248540	-0.790058	14.318932	-32.551692	-116.183168
11423		4.042575	2.508280	9.223855	0.944359	1.553377	0.405275	-0.067384	-1.252023	0.778245	-0.606445	0.081055	-0.380859	0.039749	0.025269	0.092480	0.534518	-0.179180	-0.251003	-0.786881	14.104341	-33.388863	-115.874052
11424		4.221532	2.680262	9.451032	1.134740	1.630340	0.693456	-0.062300	-1.406257	0.852781	-0.620117	0.092041	-0.376709	0.041435	0.027010	0.094795	0.536028	-0.186054	-0.253768	-0.783364	13.876902	-34.301612	-115.536717
11425		4.039792	3.064558	9.716860	1.672388	1.963924	0.839615	-0.129874	-1.611558	0.928942	-0.631836	0.100830	-0.368164	0.039470	0.030894	0.097469	0.537472	-0.194148	-0.256771	-0.779422	13.585051	-35.356402	-115.169600
11426		4.301087	2.435388	9.721784	1.116196	2.126824	0.825452	-0.214168	-1.848538	0.991188	-0.643066	0.104980	-0.357178	0.041988	0.024668	0.097583	0.538716	-0.203299	-0.259951	-0.775164	13.235321	-36.531159	-114.789447
11427		4.951440	1.789979	9.275768	0.417835	1.750017	0.700082	-0.281516	-2.121073	1.031014	-0.654541	0.107178	-0.335205	0.048434	0.018282	0.093250	0.539622	-0.213858	-0.263571	-0.770456	12.834556	-37.878877	-114.406189
11428		5.214553	1.167108	9.298263	-0.098369	1.962695	0.729747	-0.313434	-2.440587	1.046631	-0.670654	0.122314	-0.318115	0.050943	0.012086	0.093590	0.540045	-0.225574	-0.267830	-0.765333	12.426865	-39.387294	-114.047055
11429		4.773947	1.262575	9.631135	0.320640	2.711079	0.660244	-0.330317	-2.748855	1.072080	-0.684326	0.126465	-0.293701	0.046341	0.013036	0.096933	0.540022	-0.238644	-0.272807	-0.759606	11.999926	-41.086310	-113.691241
11430		4.589241	1.305151	9.741040	0.605238	3.176038	0.540484	-0.329510	-3.126111	1.142468	-0.698486	0.144043	-0.263428	0.044287	0.013469	0.098089	0.539616	-0.253039	-0.278618	-0.753099	11.557938	-42.986107	-113.318956
11431		4.741416	1.934463	9.860235	1.370106	3.309816	0.704004	-0.273327	-3.536409	1.321959	-0.711914	0.148193	-0.239258	0.045531	0.019785	0.099392	0.539210	-0.269128	-0.285459	-0.745209	11.053951	-45.150133	-112.830897
11432		3.957585	2.400204	9.863608	2.241154	4.056553	0.047216	-0.231123	-3.994083	1.598120	-0.726074	0.165771	-0.199951	0.037402	0.024421	0.099369	0.539012	-0.286957	-0.293171	-0.735644	10.419491	-47.581857	-112.142767
11433		4.165928	3.542941	10.460259	3.585405	4.491868	0.495787	-0.217148	-4.485288	1.958948	-0.739990	0.180908	-0.156006	0.038950	0.035934	0.105458	0.539150	-0.307050	-0.301604	-0.723929	9.521625	-50.334454	-111.127787
11434		3.569216	3.550088	10.202307	3.955518	5.095281	-0.443146	-0.234701	-4.999067	2.460697	-0.743164	0.203125	-0.114746	0.032687	0.036036	0.102823	0.539928	-0.329470	-0.310356	-0.709652	8.166855	-53.394327	-109.581872
11435		3.003875	1.765103	10.563430	2.647160	6.562088	-1.232644	-0.291679	-5.680345	3.108580	-0.750732	0.227295	-0.060059	0.026743	0.018239	0.106399	0.541353	-0.355266	-0.319406	-0.691883	6.021618	-56.869514	-107.181051
11436		1.858208	2.809025	12.222099	4.354727	8.806915	-1.804716	-0.380970	-6.533453	3.758179	-0.749268	0.253662	-0.001221	0.014044	0.028616	0.122675	0.542833	-0.384742	-0.328888	-0.670178	2.715245	-60.780275	-103.578781
11437		2.384621	5.787756	10.167945	7.172610	6.744726	-3.064216	-0.875909	-7.510117	4.513939	-0.732910	0.302734	0.072510	0.018694	0.058785	0.102190	0.543367	-0.419505	-0.337354	-0.644174	-2.894996	-65.105307	-97.855837
11438		9.489053	2.221032	8.315471	3.432872	3.517073	2.012483	-0.820130	-8.573354	4.941843	-0.718262	0.331543	0.149170	0.090623	0.024837	0.087003	0.542402	-0.457246	-0.347240	-0.613311	-11.624906	-69.645001	-88.921439
11439		12.823640	1.575096	8.644391	3.633093	3.888420	4.785826	-0.048557	-9.305476	4.890320	-0.686035	0.376221	0.216309	0.123597	0.018834	0.092264	0.540343	-0.493910	-0.360678	-0.577921	-24.887752	-73.875972	-75.008909
11440		21.663114	-1.638162	9.700978	2.255686	4.719679	13.387066	1.316623	-9.816887	4.420477	-0.646729	0.409668	0.294922	0.211831	-0.012347	0.107399	0.537833	-0.526039	-0.379568	-0.538467	-44.754790	-77.109422	-53.735126
11441		26.429620	11.701181	9.367712	16.974818	4.216163	15.014921	2.080348	-9.510302	4.255533	-0.605225	0.441162	0.340332	0.256856	0.121463	0.107261	0.535909	-0.553503	-0.399018	-0.497212	-70.690164	-77.984705	-25.984400
11442		27.989736	13.606495	9.887482	20.187958	7.172701	14.812651	2.279843	-8.939987	4.265844	-0.557129	0.479492	0.398926	0.272094	0.140693	0.112744	0.534250	-0.577487	-0.416332	-0.455801	-93.288185	-76.236942	-1.486305
11443		17.450735	10.601074	17.148916	15.858983	16.934331	3.306069	1.779585	-8.898932	4.688528	-0.500000	0.515625	0.433350	0.164102	0.108364	0.179905	0.530788	-0.602103	-0.430100	-0.413219	-108.516951	-72.589382	15.361353
11444		21.920291	12.957084	19.147811	19.600089	20.691020	4.401964	1.386786	-7.480880	4.891411	-0.440186	0.542969	0.465576	0.208586	0.133391	0.200331	0.528385	-0.623848	-0.437671	-0.374255	-115.961073	-68.353015	24.091548
11445		13.351095	25.256873	11.131023	28.331938	11.634398	-8.505006	-0.810759	-5.768883	4.077366	-0.399902	0.550049	0.494385	0.125057	0.255635	0.113967	0.520469	-0.645354	-0.438434	-0.346996	-120.608216	-64.722808	28.644100
11446		30.082048	23.374624	20.295203	32.971161	24.442765	3.543509	-2.239762	-4.336290	1.691301	-0.375244	0.550293	0.523193	0.294361	0.238555	0.206728	0.506440	-0.662264	-0.440249	-0.333325	-125.064773	-62.550549	32.180285
11447		22.132633	17.111570	21.323007	24.524588	24.091540	-2.367049	-3.129572	-0.921223	-0.559287	-0.388184	0.532227	0.532715	0.220833	0.173817	0.211542	0.492983	-0.670397	-0.439212	-0.338567	-128.060347	-62.498342	33.530792
11448		15.977498	11.158907	18.676386	17.022380	20.331635	-4.770302	-3.229648	1.102541	-2.344584	-0.416504	0.507568	0.535645	0.162111	0.112685	0.184061	0.480447	-0.671267	-0.438810	-0.354988	-130.648291	-63.926844	34.352440
11449		9.927665	6.076068	14.461326	10.169159	15.227725	-6.767513	-2.931680	2.297351	-3.405940	-0.449219	0.480469	0.530029	0.101961	0.061139	0.142558	0.469402	-0.666497	-0.439429	-0.377288	-133.036960	-66.271146	35.129623
11450		5.115117	1.735247	12.154020	4.507635	12.469944	-8.782686	-2.276396	2.745341	-3.725722	-0.481934	0.451172	0.517578	0.053139	0.017751	0.120619	0.460608	-0.658326	-0.440977	-0.399983	-135.226353	-68.887278	36.082442
11451		3.051976	0.331211	10.386703	2.513457	10.531338	-9.544699	-1.490275	2.971528	-3.580427	-0.516846	0.426270	0.502930	0.032120	0.003518	0.103372	0.454921	-0.647653	-0.442839	-0.421290	-136.919214	-71.552516	36.970204
11452		3.594777	0.759772	9.855790	3.064390	9.995768	-8.664135	-0.961526	3.248722	-3.277770	-0.549805	0.401611	0.472900	0.037665	0.007462	0.097919	0.451917	-0.635637	-0.443929	-0.441208	-137.889581	-74.182218	37.404881
11453		4.672552	0.029065	9.864944	2.599600	10.251303	-7.112792	-0.630398	3.697047	-2.988652	-0.569580	0.388184	0.439941	0.048539	-0.000117	0.097763	0.451371	-0.622002	-0.443571	-0.461109	-137.658488	-76.919388	36.790281
11454		5.951117	-0.854350	10.078324	1.939083	10.673763	-5.339702	-0.231984	4.339487	-2.831811	-0.597900	0.365723	0.409668	0.061551	-0.009290	0.099473	0.453542	-0.606114	-0.441913	-0.481288	-135.206724	-79.828360	34.148362
11455		6.725642	-0.933720	9.878690	1.777723	10.354216	-4.042764	0.168808	5.112628	-2.777730	-0.626709	0.352051	0.367920	0.069613	-0.010376	0.097019	0.458458	-0.586931	-0.438957	-0.502638	-127.497128	-82.985082	26.449732
11456		6.400903	-0.852806	9.236200	1.480950	9.405563	-3.786893	0.488333	5.843752	-2.750812	-0.652832	0.329590	0.317871	0.066543	-0.009654	0.090420	0.465515	-0.564870	-0.434645	-0.524692	-102.901475	-85.893632	2.026205
11457		6.142659	-1.073556	8.833512	0.911673	8.710483	-3.474681	0.737374	6.391726	-2.714681	-0.670410	0.316162	0.258301	0.064050	-0.011914	0.086273	0.474073	-0.540022	-0.429090	-0.547277	-41.123337	-86.307304	-59.447378
11458		5.941854	-1.372849	8.480901	0.257500	8.042566	-3.155124	0.953314	6.807735	-2.693189	-0.690186	0.300537	0.203369	0.062061	-0.014950	0.082657	0.483515	-0.513085	-0.422558	-0.569563	-7.258452	-83.262717	-92.889307
11459		5.729589	-1.679412	8.360336	-0.385124	7.568110	-2.879158	1.143501	7.100085	-2.714474	-0.702881	0.280518	0.146484	0.059973	-0.018066	0.081405	0.493357	-0.483853	-0.415272	-0.591637	4.270975	-79.199441	-103.885320
11460		5.878556	-1.781165	8.590505	-0.808455	7.300164	-2.227821	1.304751	7.254785	-2.748730	-0.704346	0.256348	0.093994	0.061589	-0.019196	0.083582	0.503024	-0.453196	-0.407584	-0.612745	9.619315	-74.891847	-108.606354
11461		6.211790	-1.803924	8.892874	-1.214856	6.964149	-1.392970	1.421091	7.323988	-2.768820	-0.708252	0.238525	0.034912	0.065051	-0.019547	0.086447	0.512284	-0.421035	-0.399424	-0.633052	12.830272	-70.443475	-111.115409
11462		7.055798	-1.980603	9.619276	-1.852980	6.784031	0.021501	1.509848	7.319563	-2.777109	-0.705322	0.216553	-0.024170	0.073719	-0.021527	0.093375	0.520849	-0.388228	-0.391007	-0.652004	15.029093	-66.002464	-112.554239
11463		7.956575	-2.482853	10.255205	-2.949066	6.368905	1.380902	1.656215	7.348759	-2.808159	-0.702148	0.192383	-0.078857	0.082888	-0.026809	0.099330	0.528850	-0.353997	-0.382343	-0.669939	16.787684	-61.487898	-113.456376
11464		9.044278	-2.377452	11.059955	-3.595947	5.749642	2.980978	1.841790	7.385955	-2.864067	-0.698730	0.156982	-0.130859	0.094075	-0.026101	0.106936	0.536170	-0.318732	-0.373761	-0.686466	18.323647	-56.971019	-114.019243
11465		10.140474	-0.860190	12.009605	-3.016523	4.824121	4.860175	1.910382	7.440765	-2.910271	-0.693115	0.126221	-0.191650	0.105624	-0.011241	0.116119	0.542670	-0.282202	-0.364615	-0.702088	19.689185	-52.372051	-114.351537
11466		10.701289	1.515883	12.973317	-1.605881	3.879972	6.537549	1.698171	7.467655	-2.936990	-0.674072	0.095459	-0.243896	0.111954	0.012460	0.125727	0.547891	-0.245904	-0.354181	-0.716870	20.778047	-47.788313	-114.506863
11467		11.457737	3.431841	14.006645	-0.792271	2.735259	8.379357	1.247184	7.401234	-2.933431	-0.663574	0.051270	-0.297607	0.120137	0.031727	0.135892	0.551558	-0.210398	-0.341604	-0.731316	21.532491	-43.201303	-114.564038
11468		13.231775	4.199041	15.187149	-1.466538	0.969519	10.682459	0.766043	7.253460	-3.020898	-0.626465	0.014160	-0.345215	0.138319	0.039361	0.147081	0.553260	-0.176557	-0.327345	-0.745370	22.025285	-38.712629	-114.651719
11469		16.336526	4.776009	15.331897	-2.776620	-2.733244	12.755176	0.426297	7.165254	-3.246476	-0.598633	-0.009766	-0.381836	0.169461	0.044723	0.147417	0.552816	-0.143056	-0.311624	-0.759487	22.395676	-34.183068	-114.866284
11470		20.155473	5.099102	14.796175	-4.619144	-7.611959	14.094413	0.241886	7.160397	-3.466051	-0.565918	-0.044922	-0.416016	0.207519	0.047255	0.140661	0.550537	-0.109802	-0.295017	-0.773187	22.693883	-29.645346	-115.175135
11471		23.076041	4.521809	13.639499	-6.993511	-12.088583	13.501516	0.252363	7.078917	-3.684334	-0.531738	-0.059814	-0.448730	0.236172	0.040735	0.128151	0.546411	-0.076067	-0.278192	-0.786294	23.028700	-25.064368	-115.593050
11472		26.651793	3.766475	12.067780	-9.775036	-17.133760	12.109168	0.450552	6.809017	-3.968901	-0.508545	-0.081787	-0.472412	0.271094	0.032056	0.111575	0.540023	-0.042607	-0.262688	-0.798470	23.514298	-20.594774	-116.188425
11473		30.750587	3.156005	9.829757	-12.592711	-22.705509	9.617505	0.720059	6.451798	-4.335596	-0.482666	-0.114746	-0.506592	0.311047	0.024511	0.088397	0.530903	-0.009067	-0.248774	-0.810044	24.183231	-16.190914	-117.009023
11474		33.399728	2.336610	5.605710	-14.481869	-27.311909	4.194462	0.888575	5.967791	-4.713688	-0.466064	-0.141113	-0.539063	0.335896	0.015243	0.046131	0.518892	0.023212	-0.236596	-0.821118	24.948777	-11.970937	-118.077126
11475		34.085877	2.466081	-0.362179	-13.991473	-30.458972	-3.174957	0.702192	5.142503	-4.966760	-0.444580	-0.176270	-0.557617	0.341089	0.016224	-0.012324	0.504147	0.052055	-0.225341	-0.832074	25.580254	-8.081529	-119.414827
11476		35.490996	4.133185	-6.522678	-12.306460	-34.166897	-9.874419	-0.149431	3.873669	-4.858470	-0.421387	-0.200195	-0.578857	0.354421	0.032665	-0.072122	0.488104	0.073127	-0.213611	-0.843076	25.667214	-4.889025	-120.976471
11477		37.257757	0.442762	-12.162370	-15.184796	-35.148262	-18.176148	-1.267145	2.441898	-4.305374	-0.407227	-0.215576	-0.598389	0.371025	-0.004361	-0.126151	0.472859	0.084883	-0.200643	-0.853781	25.043792	-2.568166	-122.611486
11478		36.170124	-5.816357	-16.104397	-19.005124	-31.414386	-25.724183	-1.460268	1.238339	-3.637040	-0.402588	-0.224365	-0.602295	0.359545	-0.065900	-0.162812	0.459107	0.090234	-0.189921	-0.863139	24.253926	-1.066858	-124.211839
11479		31.080638	-12.978871	-16.101979	-22.287767	-22.646892	-29.408789	-0.750762	0.001081	-2.862146	-0.397705	-0.233154	-0.602051	0.308900	-0.134822	-0.160522	0.447053	0.091129	-0.185389	-0.870327	23.840172	-0.408713	-125.710675
11480		37.189376	-19.047505	-18.700802	-30.085223	-24.331752	-34.274409	1.112217	-1.742017	-2.173294	-0.412598	-0.253418	-0.576904	0.371418	-0.193481	-0.184842	0.435438	0.087925	-0.193132	-0.874850	24.490221	-0.822369	-127.256849
11481		41.827403	-4.323000	-24.955019	-20.825407	-37.646948	-33.045700	1.225173	-3.338107	-0.266200	-0.435547	-0.242676	-0.561768	0.422307	-0.042289	-0.242785	0.430467	0.076057	-0.205653	-0.875569	25.214967	-2.514260	-128.200990
11482		-3.857961	6.048464	10.952751	3.601413	3.194245	2.361598	-0.787059	-4.964907	2.347060	-0.470215	-0.214355	-0.520752	-0.041988	0.060433	0.108275	0.435779	0.050073	-0.213724	-0.872875	24.758921	-5.673451	-128.185278
11483		3.450596	5.094141	27.085650	-5.277882	4.004264	17.158527	-0.613973	-4.347543	2.848263	-0.488770	-0.199219	-0.497070	0.027873	0.052202	0.271352	0.443593	0.026487	-0.221223	-0.868092	24.347151	-8.643108	-127.734081
11484		6.794609	8.948914	6.485840	1.331788	-7.300808	0.826907	-0.284620	-4.699804	3.069717	-0.514160	-0.175049	-0.466797	0.065015	0.090596	0.066281	0.451586	0.001939	-0.230747	-0.861871	24.090213	-11.833162	-127.228138
11485		15.932505	3.679738	14.792720	-9.359594	-7.982402	8.483986	-0.494046	-4.884036	2.432791	-0.530518	-0.159912	-0.438477	0.155186	0.039074	0.151656	0.456288	-0.023249	-0.239648	-0.856639	23.770246	-14.982756	-127.086664
11486		18.986116	2.827577	14.467385	-11.179783	-9.346643	9.300972	-0.036898	-4.204243	1.371989	-0.544434	-0.148926	-0.412354	0.186565	0.029590	0.148614	0.457013	-0.043092	-0.248881	-0.852843	23.819272	-17.516765	-127.351154
11487		19.736609	-1.374410	14.138398	-14.500735	-7.487613	8.212777	0.017402	-3.485615	1.355725	-0.546875	-0.142334	-0.388184	0.194950	-0.012430	0.144795	0.458398	-0.059844	-0.256655	-0.848774	23.857404	-19.687444	-127.454249
11488		11.052411	-2.825350	11.545747	-10.063538	-1.153318	2.868849	0.495130	-2.941746	1.098267	-0.546875	-0.142578	-0.377197	0.108965	-0.027941	0.116998	0.459373	-0.072710	-0.265155	-0.844620	24.179590	-21.495877	-127.574592
11489		7.733859	0.809493	8.991519	-4.754730	-1.264244	1.008540	0.862497	-2.915823	0.836164	-0.558105	-0.138184	-0.361816	0.075983	0.008023	0.091064	0.459317	-0.084420	-0.275221	-0.840330	24.772933	-23.247811	-127.852015
11490		13.121537	9.046964	11.898802	-1.191997	-6.685898	8.880881	0.651362	-2.898232	1.012714	-0.558105	-0.138184	-0.364014	0.129011	0.090734	0.121163	0.459798	-0.096599	-0.284169	-0.835764	25.221791	-25.010744	-128.046423
11491		18.864962	15.754429	13.060133	1.332733	-12.538009	14.999838	-0.552426	-1.257113	1.027164	-0.560547	-0.131592	-0.364258	0.187012	0.158870	0.131343	0.462039	-0.104864	-0.284311	-0.833481	24.790112	-25.946421	-127.793372
11492		4.141301	6.302871	7.105061	2.375470	-1.477059	0.163932	-0.721415	-0.489749	0.577851	-0.563232	-0.125000	-0.360107	0.041056	0.063404	0.070923	0.463361	-0.109506	-0.282146	-0.832886	24.282989	-26.351912	-127.589331
11493		6.793163	2.697123	10.017777	-2.200470	-0.199913	2.389541	-0.567885	-0.418561	0.518159	-0.565186	-0.129395	-0.375488	0.067651	0.027431	0.100242	0.464627	-0.113584	-0.280547	-0.832174	23.866597	-26.727171	-127.396682
11494		6.177546	4.523937	7.213101	-0.052784	-2.120539	0.490572	-0.325368	0.011307	0.477241	-0.563232	-0.122803	-0.373291	0.061671	0.045504	0.072054	0.466436	-0.115076	-0.278912	-0.831506	23.549279	-26.843938	-127.114783
11495		6.699007	6.366989	7.336248	1.277776	-3.184686	1.477145	-0.484038	-0.128231	0.456879	-0.565430	-0.120361	-0.380127	0.066797	0.064000	0.073251	0.467888	-0.117666	-0.277017	-0.830962	23.159739	-27.050595	-126.878534
11496		6.176044	3.030304	8.409267	-1.249330	-0.850262	0.946396	-0.462651	-0.070390	0.435127	-0.572510	-0.111572	-0.382568	0.061664	0.030632	0.084044	0.469319	-0.119756	-0.275019	-0.830519	22.781871	-27.197794	-126.639608
11497		5.983047	2.560320	9.077935	-1.526806	-0.149300	1.251102	-0.206334	-0.027976	0.327428	-0.575195	-0.104980	-0.389648	0.059776	0.025795	0.090761	0.470527	-0.121099	-0.274117	-0.829939	22.572941	-27.320579	-126.452433
11498		4.503945	3.601791	8.785663	0.188869	0.314548	0.690246	-0.135463	-0.066168	0.277305	-0.586182	-0.111816	-0.389404	0.044960	0.036140	0.087847	0.471500	-0.122186	-0.273561	-0.829411	22.423515	-27.429183	-126.304645
11499		5.123828	2.865038	8.845554	-0.734617	0.210935	0.776065	-0.081113	-0.086678	0.237871	-0.588623	-0.105225	-0.385254	0.051166	0.028747	0.088466	0.472329	-0.123353	-0.273367	-0.828831	22.316233	-27.562506	-126.184238
11500		6.040962	2.518097	8.456062	-1.466530	-0.519281	0.766473	-0.010540	-0.104529	0.181424	-0.595459	-0.103027	-0.378662	0.060343	0.025240	0.084591	0.472926	-0.124173	-0.273476	-0.828331	22.268429	-27.670136	-126.102460
11501		5.209277	2.515780	8.701615	-1.030828	0.234088	0.582811	0.071694	-0.145742	0.117607	-0.600098	-0.096436	-0.376709	0.052015	0.025157	0.087063	0.473270	-0.125060	-0.274126	-0.827787	22.287996	-27.808467	-126.067967
11502		4.971771	2.408709	8.654206	-0.989219	0.444821	0.397071	0.162448	-0.249764	0.068425	-0.606689	-0.101074	-0.367676	0.049601	0.024034	0.086624	0.473306	-0.125916	-0.275365	-0.827224	22.387343	-27.968516	-126.089618
11503		5.017810	3.014827	8.717352	-0.496693	0.248482	0.673075	0.276387	-0.347140	0.020018	-0.611084	-0.101074	-0.363037	0.050024	0.030033	0.087302	0.473096	-0.127017	-0.277396	-0.826498	22.574992	-28.192055	-126.163897
11504		4.918479	3.339012	8.470764	-0.160641	0.097189	0.534235	0.320554	-0.378312	-0.008258	-0.617920	-0.099121	-0.349854	0.049026	0.033252	0.084854	0.472734	-0.127924	-0.279638	-0.825809	22.802749	-28.402989	-126.265047
11505		4.700059	3.684255	8.246704	0.254937	0.042195	0.365985	0.348279	-0.429061	-0.016749	-0.615967	-0.092285	-0.341309	0.046827	0.036695	0.082632	0.472298	-0.129139	-0.282177	-0.825006	23.053590	-28.660817	-126.384297
11506		4.328771	3.893553	8.508852	0.606793	0.432832	0.470444	0.324269	-0.431623	-0.002075	-0.613770	-0.087891	-0.336914	0.043104	0.038797	0.085245	0.471882	-0.130263	-0.284553	-0.824251	23.290238	-28.900469	-126.497936
11507		4.650687	4.237663	8.198328	0.750103	-0.052573	0.494281	0.293901	-0.455027	0.037778	-0.613770	-0.092285	-0.332520	0.046312	0.042265	0.082151	0.471591	-0.131785	-0.286889	-0.823365	23.499747	-29.183137	-126.593991
11508		4.639142	3.995092	8.329362	0.547115	0.186042	0.508478	0.245849	-0.481499	0.080303	-0.614014	-0.085693	-0.323730	0.046175	0.039867	0.083454	0.471384	-0.133416	-0.289000	-0.822482	23.675802	-29.467135	-126.673726
11509		6.050665	3.863071	7.668000	-0.249175	-1.083874	0.632163	0.189683	-0.539500	0.112821	-0.611572	-0.085693	-0.321533	0.060278	0.038592	0.076879	0.471202	-0.135633	-0.291052	-0.821499	23.816607	-29.810547	-126.749429
11510		6.079602	3.251015	7.716982	-0.771345	-0.776190	0.477341	0.184278	-0.573624	0.113170	-0.602783	-0.083496	-0.306152	0.060556	0.032473	0.077374	0.470948	-0.137833	-0.293100	-0.820550	23.961698	-30.150063	-126.836207
11511		4.931102	3.406077	8.399138	-0.058271	0.444810	0.495610	0.255752	-0.612181	0.119487	-0.605225	-0.078857	-0.308594	0.049033	0.033983	0.084185	0.470723	-0.140200	-0.295583	-0.819387	24.150489	-30.532772	-126.930141
11512		4.156709	4.708303	8.562342	1.466525	0.656207	0.683892	0.261596	-0.706579	0.195793	-0.605225	-0.078857	-0.308594	0.041218	0.047011	0.085831	0.470653	-0.142880	-0.298196	-0.818016	24.335406	-30.960715	-127.006211
11513		4.439428	4.074008	8.531225	0.808278	0.769051	0.572036	0.260624	-0.754480	0.249074	-0.604980	-0.081299	-0.308350	0.044021	0.040684	0.085532	0.470736	-0.146002	-0.300932	-0.816413	24.509673	-31.447361	-127.064119
11514		4.765041	4.215985	8.426243	0.797728	0.515819	0.702944	0.271664	-0.813775	0.277743	-0.602783	-0.081055	-0.310547	0.047248	0.042111	0.084512	0.470829	-0.149214	-0.303768	-0.814727	24.692922	-31.950277	-127.123977
11515		4.917476	4.038089	8.295580	0.609719	0.490411	0.612826	0.245031	-0.846290	0.295538	-0.605225	-0.076660	-0.308594	0.048763	0.040351	0.083212	0.470931	-0.152806	-0.306609	-0.812936	24.860096	-32.495018	-127.183465
11516		5.339254	4.085578	7.937051	0.488639	0.051422	0.577410	0.229979	-0.863584	0.328337	-0.614014	-0.079102	-0.303955	0.052982	0.040852	0.079647	0.471102	-0.156389	-0.309340	-0.811119	25.013507	-33.035727	-127.230580
11517		5.546006	4.148787	7.559694	0.498064	-0.259633	0.424660	0.199536	-0.886614	0.367966	-0.614258	-0.072510	-0.302002	0.055048	0.041514	0.075883	0.471377	-0.160353	-0.312019	-0.809157	25.139662	-33.618336	-127.260884
11518		6.367879	4.382008	7.185850	0.349091	-1.041656	0.684001	0.147645	-0.896600	0.438530	-0.623535	-0.068115	-0.304443	0.063259	0.043906	0.072175	0.471854	-0.164427	-0.314391	-0.807140	25.215561	-34.202854	-127.252210
11519		6.180363	4.418601	7.071945	0.541106	-0.915130	0.512145	0.083016	-0.860406	0.520239	-0.625977	-0.059326	-0.306885	0.061383	0.044317	0.071003	0.472665	-0.168787	-0.316398	-0.804979	25.218254	-34.808843	-127.181181
11520		5.709587	4.819298	7.201103	1.187343	-0.579587	0.479750	0.025607	-0.823029	0.602997	-0.634766	-0.065918	-0.302246	0.056653	0.048355	0.072251	0.473793	-0.173103	-0.317950	-0.802785	25.151517	-35.395316	-127.046317
11521		5.577856	5.118243	7.436771	1.588203	-0.360320	0.673552	-0.089060	-0.769347	0.694383	-0.632813	-0.057129	-0.307129	0.055314	0.051408	0.074558	0.475272	-0.177769	-0.318884	-0.800517	24.972138	-35.995955	-126.833940
11522		5.641458	4.404423	7.319594	1.025131	-0.169427	0.371657	-0.206336	-0.723417	0.760653	-0.641846	-0.057129	-0.298096	0.055981	0.044333	0.073353	0.476960	-0.182478	-0.319114	-0.798359	24.688623	-36.567869	-126.561139
11523		5.815150	4.702672	7.161565	1.306649	-0.432837	0.450029	-0.294131	-0.683438	0.819167	-0.646729	-0.048340	-0.302979	0.057713	0.047369	0.071744	0.478859	-0.187473	-0.318892	-0.796150	24.318241	-37.151288	-126.231793
