// General information: 
//  MT Manager version: 2019.2.0 
//  XDA version: 2019.2.0 build 3853 rev 94535 built on 2019-09-09
// Device information: 
//  DeviceId: 00B40A40
//  ProductCode: MTW2-3A7G6
//  Firmware Version: 4.4.0
//  Hardware Version: 1.1.0
// Device settings: 
//  Filter Profile: human(46.1)
//  Option Flags: Orientation Smoother Disabled, AHS Disabled, ICC Disabled
// Coordinate system: ENU
PacketCounter	SampleTimeFine	Acc_X	Acc_Y	Acc_Z	FreeAcc_E	FreeAcc_N	FreeAcc_U	Gyr_X	Gyr_Y	Gyr_Z	Mag_X	Mag_Y	Mag_Z	VelInc_X	VelInc_Y	VelInc_Z	Quat_q0	Quat_q1	Quat_q2	Quat_q3	Roll	Pitch	Yaw
64849		9.897925	-0.242316	2.745073	1.611074	-0.659301	0.313149	0.073131	0.530918	-0.004093	-0.981445	0.202148	0.215820	0.099052	-0.002435	0.027187	-0.115731	0.658910	0.022368	0.742929	-42.389335	-79.809270	-126.358307
64850		10.117346	-0.307223	2.765726	1.544335	-0.632965	0.546775	0.062987	0.504328	-0.020585	-0.988037	0.199707	0.213623	0.101242	-0.003091	0.027401	-0.115954	0.657063	0.022348	0.744529	-41.306741	-79.605193	-127.422445
64851		10.853471	-0.420297	2.138573	0.780787	-0.753134	1.204159	0.094154	0.462984	-0.017289	-0.990234	0.197510	0.207031	0.108583	-0.004222	0.021132	-0.116288	0.655349	0.022456	0.745983	-40.338609	-79.414189	-128.352765
64852		11.945152	-0.719286	1.788393	0.204684	-0.693905	2.265339	0.129900	0.445472	0.003915	-0.990479	0.201904	0.193359	0.119491	-0.007202	0.017613	-0.116812	0.653677	0.022639	0.747361	-39.465235	-79.220647	-129.166485
64853		14.011777	-1.175291	1.237668	-0.714987	-0.666867	4.268751	0.147106	0.325999	0.060294	-0.990479	0.204102	0.190918	0.140141	-0.011720	0.012140	-0.117592	0.652446	0.022770	0.748310	-38.965118	-79.057677	-129.590497
64854		15.052533	-1.434570	2.393747	0.194556	-0.369228	5.490661	0.053091	0.199232	0.095804	-0.992920	0.206299	0.193115	0.150556	-0.014280	0.023784	-0.118184	0.651746	0.022511	0.748834	-38.843162	-78.938117	-129.684027
64855		13.422270	-1.871126	5.208187	3.004401	0.805478	4.368577	0.028771	0.310033	0.046181	-0.994873	0.199463	0.188965	0.134308	-0.018688	0.051871	-0.118524	0.650640	0.022254	0.749749	-38.426780	-78.786542	-130.092197
64856		13.091183	-2.695568	2.874362	0.580086	1.205140	3.793127	0.160043	0.159402	0.050716	-0.988037	0.201904	0.186523	0.130942	-0.026945	0.028618	-0.119288	0.650020	0.022566	0.750157	-38.221054	-78.700790	-130.208968
64857		11.871430	-2.741798	0.874859	-1.220766	1.046211	2.296352	0.002841	-0.047784	0.071638	-0.990479	0.206299	0.184082	0.118722	-0.027376	0.008777	-0.119598	0.650273	0.022342	0.749895	-38.523066	-78.700531	-129.899923
64858		11.929063	-3.166392	0.588526	-1.579340	1.389838	2.363065	0.152574	-0.188999	0.053016	-0.990723	0.208496	0.190674	0.119293	-0.031637	0.005974	-0.120309	0.650962	0.022826	0.749168	-38.951108	-78.769784	-129.374796
64859		11.857833	-3.778235	-0.822892	-3.045116	1.719319	2.159430	0.382749	-0.305201	0.062949	-0.990479	0.206299	0.193115	0.118603	-0.037729	-0.008120	-0.121793	0.651947	0.024208	0.748027	-39.491619	-78.886038	-128.600907
64860		11.313724	-4.106318	-1.604586	-3.789857	1.954080	1.556368	0.434110	-0.207000	0.091267	-0.997803	0.217285	0.190186	0.113173	-0.040977	-0.016018	-0.123561	0.652534	0.025631	0.747178	-39.893356	-78.947559	-127.938595
64861		10.701825	-4.204497	-1.080799	-3.230263	2.225243	1.049569	0.358215	-0.011785	0.151864	-0.997803	0.219482	0.187744	0.107051	-0.041944	-0.010877	-0.125332	0.652442	0.026450	0.746935	-40.109999	-78.900230	-127.509300
64862		10.928880	-4.201981	0.082526	-2.138688	2.397604	1.447033	0.270786	0.044410	0.226040	-0.989014	0.221924	0.189941	0.109336	-0.041897	0.000744	-0.127106	0.652203	0.026669	0.746836	-40.431699	-78.800526	-127.023420
64863		11.039855	-3.655217	0.917331	-1.228328	1.989983	1.615854	0.208041	0.054685	0.322473	-0.987061	0.226318	0.187256	0.110460	-0.036384	0.009105	-0.129033	0.651976	0.026329	0.746716	-40.971282	-78.659573	-126.352284
64864		11.350104	-3.006495	0.792260	-1.230692	1.249991	1.824078	0.147679	-0.126117	0.364107	-0.991943	0.235107	0.189209	0.113551	-0.029864	0.007972	-0.130897	0.652466	0.025747	0.745984	-41.959808	-78.578766	-125.257781
64865		11.833586	-2.252606	0.815408	-1.064282	0.412118	2.206887	0.154308	-0.229459	0.351713	-0.991699	0.232910	0.187012	0.118366	-0.022324	0.008273	-0.132720	0.653332	0.025295	0.744918	-43.102499	-78.542343	-124.002327
64866		11.797934	-1.732552	1.411375	-0.329519	0.011846	2.190483	0.205956	-0.258341	0.292997	-0.987793	0.244141	0.197510	0.117986	-0.017167	0.014248	-0.134492	0.654260	0.025249	0.743786	-44.146667	-78.536378	-122.816607
64867		11.600947	-1.686725	1.171345	-0.493586	-0.069498	1.958060	0.373873	-0.320138	0.196458	-0.983154	0.242188	0.199951	0.116007	-0.016775	0.011868	-0.136442	0.655289	0.026182	0.742492	-45.023735	-78.590505	-121.703818
64868		11.312942	-1.663516	0.536018	-1.043876	-0.190498	1.585175	0.555485	-0.219390	0.102615	-0.978760	0.242188	0.199951	0.113132	-0.016592	0.005438	-0.138655	0.655803	0.028031	0.741560	-45.414704	-78.639751	-120.980382
64869		10.714387	-1.897582	0.548956	-1.016614	0.135067	1.033903	0.644256	-0.116202	0.029923	-0.983398	0.250977	0.197021	0.107144	-0.018977	0.005491	-0.140899	0.655855	0.030372	0.740998	-45.401134	-78.676618	-120.618336
64870		10.096818	-2.065007	0.881352	-0.675927	0.480028	0.497475	0.665031	-0.118739	-0.033312	-0.978760	0.246582	0.197266	0.100960	-0.020696	0.008805	-0.142979	0.655887	0.033002	0.740460	-45.256183	-78.740426	-120.377627
64871		9.661448	-2.118782	0.897958	-0.630577	0.618975	0.079652	0.666983	-0.178013	-0.067090	-0.974365	0.246582	0.188232	0.096599	-0.021250	0.008995	-0.144924	0.656121	0.035790	0.739744	-45.162485	-78.841938	-120.084160
64872		9.364662	-2.023525	0.732571	-0.732587	0.549518	-0.247671	0.660824	-0.198563	-0.067131	-0.979004	0.251221	0.197021	0.093633	-0.020291	0.007352	-0.146848	0.656429	0.038572	0.738951	-45.118188	-78.951835	-119.743488
64873		9.069038	-1.908125	0.761244	-0.639974	0.507919	-0.549841	0.657848	-0.240052	-0.064351	-0.974609	0.251221	0.197021	0.090675	-0.019136	0.007658	-0.148757	0.656884	0.041361	0.738013	-45.170650	-79.077370	-119.306690
64874		8.839299	-1.732360	0.872200	-0.454512	0.418760	-0.784229	0.632296	-0.263266	-0.033447	-0.977051	0.257813	0.189941	0.088379	-0.017366	0.008783	-0.150697	0.657443	0.043973	0.736970	-45.360259	-79.199500	-118.744679
64875		8.603645	-1.643068	1.013177	-0.261915	0.420240	-1.009069	0.611798	-0.260247	-0.011624	-0.972656	0.257813	0.192139	0.086022	-0.016467	0.010193	-0.152642	0.658003	0.046433	0.735919	-45.607962	-79.311112	-118.136362
64876		8.334359	-1.553958	1.040549	-0.175806	0.395872	-1.282069	0.585679	-0.232290	0.009347	-0.977051	0.257813	0.198975	0.083332	-0.015566	0.010457	-0.154593	0.658477	0.048711	0.734939	-45.864310	-79.402201	-117.533569
64877		8.222544	-1.442358	1.033080	-0.130963	0.313135	-1.407768	0.567458	-0.214600	0.025841	-0.972900	0.264648	0.198486	0.082216	-0.014442	0.010378	-0.156538	0.658898	0.050848	0.734005	-46.132580	-79.479180	-116.930544
64878		7.969674	-1.355737	1.120566	0.008212	0.301788	-1.656816	0.546390	-0.193595	0.053137	-0.970703	0.269043	0.198242	0.079689	-0.013567	0.011246	-0.158526	0.659261	0.052805	0.733114	-46.432588	-79.535850	-116.306684
64879		7.646691	-1.284740	1.335046	0.267389	0.352200	-1.957164	0.531816	-0.171408	0.072675	-0.966553	0.273682	0.197998	0.076460	-0.012855	0.013382	-0.160534	0.659552	0.054623	0.732282	-46.734716	-79.575196	-115.690220
64880		7.390077	-1.292625	1.575780	0.518507	0.473862	-2.178959	0.494675	-0.111383	0.089048	-0.979980	0.275635	0.202393	0.073898	-0.012932	0.015767	-0.162507	0.659653	0.056207	0.731635	-46.961810	-79.583388	-115.170327
64881		7.013531	-1.268593	1.501916	0.486779	0.490617	-2.561685	0.441525	-0.061040	0.112215	-0.971191	0.275879	0.204590	0.070138	-0.012680	0.015013	-0.164390	0.659616	0.057474	0.731150	-47.150763	-79.562144	-114.721574
64882		6.720138	-1.174617	1.412827	0.455233	0.420807	-2.873541	0.392789	-0.045457	0.129002	-0.975586	0.277832	0.197754	0.067206	-0.011731	0.014121	-0.166187	0.659564	0.058499	0.730709	-47.368641	-79.527360	-114.270635
64883		6.615623	-1.148508	1.549670	0.601207	0.451301	-2.962731	0.356305	-0.029542	0.131421	-0.968994	0.280273	0.197510	0.066161	-0.011469	0.015486	-0.167867	0.659481	0.059365	0.730330	-47.571083	-79.485222	-113.857725
64884		6.536507	-1.140053	1.533669	0.595016	0.446975	-3.043349	0.309472	-0.016880	0.135594	-0.973877	0.289063	0.194824	0.065371	-0.011380	0.015325	-0.169420	0.659391	0.060040	0.729997	-47.779628	-79.436014	-113.464711
64885		6.379962	-1.020967	1.432412	0.551178	0.324907	-3.225675	0.222941	-0.022213	0.134963	-0.973877	0.286865	0.192627	0.063805	-0.010183	0.014320	-0.170674	0.659391	0.060400	0.729675	-48.043657	-79.388977	-113.066757
64886		6.517658	-0.903632	1.510847	0.656562	0.210281	-3.096752	0.142877	-0.021619	0.133772	-0.967041	0.287109	0.197021	0.065181	-0.009004	0.015109	-0.171671	0.659457	0.060478	0.729375	-48.348681	-79.341677	-112.672354
64887		6.593000	-0.715410	1.480371	0.687704	0.005356	-3.052659	0.090588	0.004618	0.119518	-0.969482	0.291504	0.196777	0.065935	-0.007121	0.014799	-0.172440	0.659466	0.060384	0.729193	-48.590387	-79.290362	-112.374161
64888		6.743401	-0.632122	1.224563	0.464563	-0.185712	-2.948121	0.075092	0.061117	0.087576	-0.971680	0.289063	0.194824	0.067441	-0.006296	0.012223	-0.173068	0.659274	0.060295	0.729226	-48.648748	-79.231141	-112.270392
64889		7.101045	-0.715792	1.082945	0.274471	-0.220898	-2.602568	0.047394	0.123202	0.053662	-0.967041	0.287109	0.187988	0.071019	-0.007141	0.010784	-0.173490	0.658868	0.060157	0.729504	-48.513536	-79.163065	-112.380995
64890		7.506650	-1.033193	0.971609	0.027352	-0.036707	-2.173368	-0.001672	0.161498	0.013957	-0.969482	0.291504	0.194580	0.075075	-0.010327	0.009656	-0.173626	0.658353	0.059944	0.729954	-48.245753	-79.097275	-112.654171
64891		7.971024	-1.410739	1.057523	-0.063141	0.256875	-1.653290	-0.036823	0.206226	-0.032309	-0.969482	0.291504	0.192383	0.079719	-0.014118	0.010496	-0.173482	0.657690	0.059710	0.730604	-47.809962	-79.033811	-113.120105
64892		8.188636	-1.761406	1.106824	-0.165975	0.558502	-1.384054	-0.066054	0.256463	-0.072868	-0.973633	0.282471	0.188477	0.081894	-0.017640	0.010969	-0.173117	0.656857	0.059465	0.731459	-47.208454	-78.967180	-113.770894
64893		8.401969	-2.043618	1.096939	-0.306511	0.779928	-1.136833	-0.111466	0.313647	-0.109690	-0.973877	0.286865	0.181396	0.084026	-0.020476	0.010849	-0.172476	0.655841	0.059119	0.732550	-46.443628	-78.892096	-114.615894
64894		8.972561	-2.254294	1.398035	-0.162861	0.970621	-0.508145	-0.191940	0.323366	-0.134440	-0.975586	0.277832	0.184082	0.089733	-0.022590	0.013857	-0.171491	0.654851	0.058556	0.733712	-45.666904	-78.821124	-115.519311
64895		9.441273	-2.345702	1.840407	0.159219	1.111290	0.024318	-0.302160	0.345510	-0.153348	-0.973389	0.280029	0.179688	0.094426	-0.023502	0.018276	-0.170073	0.653864	0.057627	0.734994	-44.878769	-78.746593	-116.499883
64896		10.150538	-2.190739	2.177207	0.437635	0.945419	0.746080	-0.366110	0.369026	-0.182265	-0.975342	0.273438	0.182129	0.101525	-0.021960	0.021625	-0.168352	0.652833	0.056540	0.736389	-44.034380	-78.671283	-117.574692
64897		11.257374	-2.089072	2.068891	0.235057	0.623938	1.803178	-0.447708	0.399883	-0.187060	-0.982178	0.273193	0.177734	0.112595	-0.020950	0.020511	-0.166349	0.651750	0.055138	0.737909	-43.178103	-78.581999	-118.710371
64898		13.434533	-2.383318	1.437555	-0.701625	0.336469	3.885041	-0.490620	0.412115	-0.211961	-0.986572	0.270996	0.180176	0.134349	-0.023941	0.014157	-0.164120	0.650646	0.053651	0.739491	-42.288647	-78.493800	-119.904741
64899		16.217007	-2.675342	0.783890	-1.729865	-0.046074	6.550946	-0.524915	0.295183	-0.250840	-0.988525	0.261963	0.174072	0.162148	-0.026937	0.007670	-0.161598	0.649983	0.052257	0.740728	-41.567703	-78.467048	-120.948039
64900		14.499317	-2.069901	2.748863	0.454592	0.259515	5.080157	-0.582180	0.311517	-0.256307	-0.986084	0.259766	0.171875	0.145009	-0.020805	0.027323	-0.158877	0.649299	0.050656	0.742027	-40.844182	-78.432701	-122.027121
64901		12.656980	-1.473940	4.614113	2.564943	0.545260	3.483377	-0.336357	0.252006	-0.298521	-0.985596	0.248535	0.170410	0.126606	-0.014851	0.046007	-0.156775	0.648622	0.050150	0.743099	-39.999882	-78.437031	-123.086227
64902		12.630974	-1.022924	3.013865	1.163308	-0.302510	3.157524	-0.227996	0.070679	-0.298094	-0.989990	0.246338	0.170410	0.126305	-0.010383	0.030106	-0.154984	0.648532	0.050187	0.743551	-39.417207	-78.518471	-123.814524
64903		12.033377	-1.099744	1.468560	-0.261415	-0.529969	2.345396	-0.316216	-0.085966	-0.244020	-0.987549	0.239746	0.168701	0.120314	-0.011121	0.014755	-0.153064	0.649102	0.049842	0.743474	-39.274836	-78.648766	-124.145201
64904		11.900693	-1.390109	0.358153	-1.376339	-0.512223	2.083970	-0.238278	-0.094444	-0.155929	-0.991943	0.239502	0.175293	0.118994	-0.013990	0.003654	-0.151724	0.649666	0.049506	0.743279	-39.295629	-78.750797	-124.263730
64905		11.735735	-0.622949	-0.586277	-2.039601	-1.456971	1.684115	-0.114946	0.204956	-0.094950	-0.989990	0.244141	0.172852	0.117348	-0.006289	-0.005979	-0.151084	0.649036	0.049204	0.743979	-38.836329	-78.697524	-124.799822
64906		11.222570	0.160985	-0.364948	-1.581358	-2.057947	1.112930	-0.138821	0.445330	-0.107569	-0.994141	0.237305	0.173340	0.112218	0.001547	-0.003900	-0.150380	0.647526	0.048673	0.745471	-37.947262	-78.539626	-125.788280
64907		10.852932	0.627017	0.701380	-0.436061	-2.155065	0.856737	-0.203086	0.363432	-0.169415	-0.991943	0.239502	0.170898	0.108547	0.006185	0.006810	-0.149214	0.646350	0.048163	0.746758	-37.118938	-78.437552	-126.752952
64908		10.879972	0.957742	1.226042	0.123227	-2.326341	0.928222	-0.235433	0.132522	-0.207791	-0.989502	0.232910	0.162354	0.108818	0.009479	0.012177	-0.147746	0.646051	0.047829	0.747330	-36.622370	-78.452487	-127.397969
64909		11.018826	0.934552	1.057738	-0.065793	-2.350636	1.044422	-0.236954	-0.150579	-0.247819	-0.991699	0.230713	0.173584	0.110192	0.009222	0.010649	-0.146054	0.646797	0.047827	0.747017	-36.505392	-78.610483	-127.656457
64910		11.368106	0.801923	0.940514	-0.235761	-2.276235	1.391081	-0.309609	-0.383774	-0.298121	-0.991455	0.224121	0.178467	0.113675	0.007865	0.009611	-0.143883	0.648453	0.047887	0.745998	-36.710972	-78.893183	-127.628155
64911		11.805366	0.258492	1.209672	-0.142109	-1.710664	1.932519	-0.293207	-0.466691	-0.341568	-0.993408	0.219482	0.189941	0.118029	0.002401	0.012369	-0.141582	0.650388	0.048208	0.744732	-36.956845	-79.228583	-127.549433
64912		11.915847	-0.854914	1.597399	-0.048112	-0.513010	2.229079	-0.201029	-0.381448	-0.383269	-0.991211	0.221924	0.187744	0.119111	-0.008761	0.016210	-0.139442	0.651927	0.048947	0.743741	-36.897887	-79.539665	-127.727314
64913		11.657192	-1.842651	1.508358	-0.342570	0.494828	2.069999	-0.182648	-0.234632	-0.345382	-0.988770	0.217529	0.192383	0.116522	-0.018614	0.015237	-0.137540	0.652909	0.049528	0.743195	-36.637263	-79.769881	-128.099218
64914		11.020274	-2.106073	1.493696	-0.342505	0.868821	1.467422	-0.176612	-0.076295	-0.265375	-0.988525	0.208496	0.188477	0.110169	-0.021194	0.014998	-0.135995	0.653319	0.049763	0.743104	-36.265928	-79.899829	-128.579608
64915		10.273530	-1.949630	1.528187	-0.183266	0.850887	0.719370	-0.198929	0.044089	-0.167665	-0.990479	0.206299	0.193115	0.102722	-0.019567	0.015279	-0.134768	0.653316	0.049512	0.743347	-35.923223	-79.940217	-129.044045
64916		9.525461	-1.581913	1.523001	-0.012605	0.604685	-0.056122	-0.228975	0.123092	-0.058623	-0.997559	0.210449	0.188477	0.095259	-0.015830	0.015190	-0.133867	0.653069	0.048741	0.743778	-35.733464	-79.907276	-129.370672
64917		9.070840	-1.249336	1.431754	0.031776	0.318406	-0.550479	-0.280454	0.148341	0.050090	-0.986084	0.208496	0.190674	0.090722	-0.012451	0.014268	-0.133208	0.652785	0.047405	0.744232	-35.809684	-79.825809	-129.457074
64918		8.733647	-0.867929	1.473629	0.206526	-0.005364	-0.915565	-0.290402	0.084097	0.117539	-0.988525	0.208496	0.190674	0.087348	-0.008607	0.014712	-0.132754	0.652763	0.045856	0.744429	-36.185431	-79.751733	-129.244801
64919		8.451282	-0.549770	1.629739	0.474111	-0.252548	-1.204908	-0.376733	0.017242	0.170647	-0.986084	0.208496	0.192871	0.084519	-0.005395	0.016300	-0.132198	0.653055	0.043855	0.744392	-36.864726	-79.689723	-128.774393
64920		8.083872	-0.436621	1.513638	0.440174	-0.359268	-1.596371	-0.440156	0.018593	0.203917	-0.988525	0.212891	0.192627	0.080845	-0.004250	0.015138	-0.131559	0.653390	0.041510	0.744346	-37.654626	-79.614784	-128.228380
64921		7.747145	-0.275703	1.484175	0.497835	-0.496987	-1.951253	-0.456203	0.004354	0.236468	-0.981934	0.215332	0.197021	0.077475	-0.002632	0.014846	-0.130985	0.653789	0.039006	0.744232	-38.549392	-79.533026	-127.584962
64922		7.512389	-0.233630	1.503926	0.564851	-0.523298	-2.186456	-0.476325	-0.077274	0.248394	-0.982178	0.217529	0.196777	0.075121	-0.002207	0.015074	-0.130374	0.654504	0.036444	0.743840	-39.633190	-79.481541	-126.760713
64923		7.274708	-0.329482	1.577613	0.653937	-0.402151	-2.401251	-0.446401	-0.102817	0.230227	-0.984619	0.221924	0.203369	0.072743	-0.003176	0.015821	-0.129787	0.655285	0.034067	0.743368	-40.697553	-79.444875	-125.938846
64924		7.023045	-0.385869	1.636423	0.738454	-0.317932	-2.636094	-0.401706	-0.061975	0.207915	-0.982178	0.217529	0.201416	0.070229	-0.003753	0.016394	-0.129271	0.655880	0.031904	0.743029	-41.597157	-79.396696	-125.258134
64925		6.951841	-0.446878	1.555606	0.664452	-0.284480	-2.711614	-0.350712	-0.034397	0.187550	-0.980225	0.228760	0.205078	0.069520	-0.004376	0.015576	-0.128849	0.656330	0.029978	0.742785	-42.356296	-79.342509	-124.690787
64926		6.787439	-0.595140	1.454286	0.558803	-0.153908	-2.869885	-0.309008	-0.036127	0.155892	-0.973389	0.226807	0.207520	0.067876	-0.005876	0.014564	-0.128447	0.656756	0.028314	0.742544	-43.019754	-79.300294	-124.196052
64927		6.612563	-0.707548	1.563467	0.666295	-0.008960	-3.013643	-0.268885	-0.049096	0.143784	-0.973633	0.231201	0.207275	0.066127	-0.007007	0.015660	-0.128128	0.657197	0.026845	0.742263	-43.654645	-79.266973	-123.707283
64928		6.486992	-0.770620	1.506841	0.619080	0.047384	-3.137362	-0.221122	-0.040510	0.142196	-0.978271	0.231201	0.211670	0.064872	-0.007643	0.015090	-0.127965	0.657577	0.025556	0.742000	-44.239205	-79.229966	-123.241234
64929		6.532183	-0.754796	1.491419	0.611786	0.010361	-3.097849	-0.183042	-0.061464	0.145528	-0.973633	0.229004	0.209473	0.065323	-0.007487	0.014941	-0.127932	0.658007	0.024407	0.741663	-44.847807	-79.199089	-122.729045
64930		6.638276	-0.734810	1.634006	0.754420	-0.007792	-2.978406	-0.162221	-0.102634	0.156703	-0.971191	0.224609	0.209961	0.066380	-0.007283	0.016380	-0.128008	0.658579	0.023328	0.741177	-45.554402	-79.179389	-122.104409
64931		6.745563	-0.748740	1.690004	0.807063	-0.011546	-2.865182	-0.115749	-0.106633	0.169154	-0.967041	0.233643	0.216064	0.067453	-0.007421	0.016940	-0.128278	0.659135	0.022379	0.740665	-46.264555	-79.154520	-121.449490
64932		6.859239	-0.602724	1.579606	0.732573	-0.205230	-2.789242	-0.073612	-0.096690	0.185600	-0.971680	0.235840	0.215820	0.068590	-0.005958	0.015831	-0.128752	0.659629	0.021529	0.740168	-46.960648	-79.117593	-120.783884
64933		7.321729	-0.528250	1.378918	0.521262	-0.405457	-2.372792	-0.024190	-0.108740	0.198582	-0.967285	0.240234	0.213379	0.073215	-0.005208	0.013830	-0.129432	0.660135	0.020824	0.739619	-47.674755	-79.078129	-120.071362
64934		7.695036	-0.465936	1.438139	0.571173	-0.528551	-2.009273	-0.002710	-0.140763	0.214013	-0.971680	0.235840	0.220459	0.076945	-0.004577	0.014436	-0.130242	0.660747	0.020172	0.738948	-48.474022	-79.042680	-119.258793
64935		7.974586	-0.429176	1.645000	0.769351	-0.583354	-1.716268	0.027840	-0.119526	0.224428	-0.971680	0.235840	0.213623	0.079741	-0.004205	0.016497	-0.131189	0.661259	0.019581	0.738338	-49.221599	-78.992548	-118.481618
64936		8.497881	-0.410565	1.630683	0.723529	-0.707983	-1.209379	0.066369	-0.042036	0.216004	-0.969727	0.242432	0.219971	0.084980	-0.004019	0.016323	-0.132240	0.661459	0.019111	0.737984	-49.751467	-78.915798	-117.903316
64937		9.200425	-0.349812	1.450177	0.504894	-0.940603	-0.553448	0.100068	0.012729	0.221846	-0.969727	0.242432	0.215576	0.092009	-0.003403	0.014494	-0.133428	0.661432	0.018708	0.737804	-50.142406	-78.815206	-117.447039
64938		9.837408	-0.322983	1.580935	0.582735	-1.069445	0.081500	0.125495	0.065697	0.213287	-0.969727	0.244629	0.213135	0.098383	-0.003135	0.015775	-0.134676	0.661193	0.018394	0.737799	-50.379063	-78.698681	-117.132611
64939		10.195656	-0.216766	1.842691	0.823930	-1.201675	0.447477	0.147692	0.140371	0.203847	-0.969971	0.249268	0.217285	0.101972	-0.002077	0.018354	-0.135966	0.660660	0.018141	0.738046	-50.416333	-78.558726	-117.008876
64940		10.099053	-0.241449	2.167364	1.128007	-1.115471	0.396616	0.164568	0.249109	0.186067	-0.965576	0.253662	0.212646	0.101020	-0.002338	0.021546	-0.137259	0.659712	0.017938	0.738660	-50.176840	-78.387045	-117.157222
64941		9.966585	-0.307723	2.413104	1.340057	-0.998247	0.309478	0.158184	0.316219	0.163360	-0.968018	0.255859	0.210205	0.099706	-0.003015	0.023971	-0.138449	0.658515	0.017736	0.739510	-49.765223	-78.200236	-117.485622
64942		9.953717	-0.443962	2.614898	1.477136	-0.842583	0.347002	0.140025	0.341699	0.130756	-0.963379	0.255859	0.203369	0.099585	-0.004393	0.025976	-0.139466	0.657233	0.017562	0.740463	-49.266263	-78.017799	-117.913452
64943		9.982559	-0.689748	2.778979	1.545730	-0.595356	0.439440	0.109221	0.349118	0.104346	-0.963623	0.260254	0.194092	0.099877	-0.006860	0.027612	-0.140279	0.655938	0.017350	0.741462	-48.737205	-77.843042	-118.391073
64944		10.760428	-0.887104	2.565672	1.183661	-0.611605	1.204626	0.123206	0.328390	0.093174	-0.965820	0.260254	0.198730	0.107650	-0.008837	0.025475	-0.141099	0.654708	0.017247	0.742395	-48.235220	-77.680141	-118.832234
64945		11.884410	-1.074419	2.148510	0.584078	-0.747986	2.274863	0.168209	0.372499	0.097702	-0.970215	0.255615	0.192139	0.118889	-0.010704	0.021255	-0.142082	0.653280	0.017260	0.743464	-47.643633	-77.497414	-119.339893
64946		13.933602	-1.537204	1.553938	-0.359123	-0.839357	4.261731	0.238478	0.341128	0.122395	-0.975098	0.266846	0.184814	0.139372	-0.015305	0.015283	-0.143386	0.651919	0.017480	0.744404	-47.128789	-77.315587	-119.727428
64947		15.254393	-1.928967	2.236992	0.031607	-0.596128	5.713584	0.075613	0.173057	0.130113	-0.968262	0.262451	0.189697	0.152576	-0.019199	0.022231	-0.144170	0.651298	0.017185	0.744802	-47.041663	-77.195464	-119.772937
64948		13.283557	-2.019979	4.508662	2.396023	0.328876	4.151983	-0.234839	0.287035	0.044122	-0.968018	0.258057	0.180908	0.132905	-0.020118	0.044920	-0.143636	0.650468	0.015936	0.745658	-46.777950	-77.066819	-120.181254
64949		12.396549	-2.331082	3.076340	1.006360	0.479094	3.122914	-0.034325	0.347065	-0.029408	-0.970459	0.260010	0.183105	0.124015	-0.023324	0.030552	-0.143480	0.649262	0.015626	0.746745	-46.174214	-76.944208	-120.821640
64950		12.334031	-2.392814	0.758469	-1.261730	0.064891	2.710610	-0.149035	0.088222	-0.110987	-0.972412	0.255615	0.183350	0.123330	-0.023991	0.007548	-0.142628	0.649097	0.015342	0.747057	-45.962622	-76.957308	-121.126615
64951		12.422873	-3.147698	0.818570	-1.387538	0.800797	2.928555	-0.269781	-0.048026	-0.187845	-0.979492	0.262207	0.180664	0.124197	-0.031583	0.008258	-0.141085	0.649521	0.014950	0.746990	-45.930190	-77.056016	-121.319135
64952		12.261224	-3.981020	0.617667	-1.747488	1.618459	2.871730	0.002010	-0.049493	-0.260324	-0.981201	0.250977	0.183594	0.122559	-0.039970	0.006207	-0.140156	0.649751	0.015813	0.746947	-45.614267	-77.185112	-121.642119
64953		11.663732	-4.152854	-0.302164	-2.614358	1.737672	2.167532	0.215368	0.054568	-0.276292	-0.979248	0.255371	0.178955	0.116579	-0.041686	-0.003098	-0.139866	0.649440	0.017448	0.747235	-44.953759	-77.277966	-122.193449
64954		11.040228	-4.087963	-0.894779	-3.122759	1.692078	1.447145	0.146557	0.208518	-0.235505	-0.974365	0.248779	0.174805	0.110345	-0.041003	-0.009093	-0.139519	0.648604	0.018589	0.747998	-44.124181	-77.290126	-122.958017
64955		10.489389	-4.055858	-0.821263	-3.010022	1.794981	0.905028	0.100533	0.272138	-0.209171	-0.981201	0.248779	0.174805	0.104840	-0.040664	-0.008376	-0.139126	0.647563	0.019424	0.748952	-43.258061	-77.262853	-123.787490
64956		10.325772	-4.006300	0.030756	-2.176569	1.969629	0.867014	0.052566	0.041524	-0.145899	-0.978516	0.242188	0.179688	0.103229	-0.040138	0.000276	-0.138794	0.647425	0.020038	0.749117	-42.937515	-77.305534	-124.085422
64957		10.706246	-3.862665	0.736720	-1.496014	1.923327	1.329543	-0.063774	-0.284055	-0.057897	-0.979004	0.248779	0.177002	0.107041	-0.038655	0.007532	-0.138380	0.648593	0.020155	0.748179	-43.415951	-77.449710	-123.633182
64958		11.283554	-3.488975	0.986650	-1.201555	1.522575	1.879316	-0.112785	-0.294428	-0.017302	-0.978760	0.244385	0.186279	0.112818	-0.034894	0.010052	-0.137959	0.649839	0.019966	0.747180	-44.028679	-77.581336	-123.072194
64959		11.753771	-3.055330	0.776025	-1.327535	0.984546	2.243707	-0.059354	-0.192416	-0.022847	-0.983154	0.244141	0.181885	0.117527	-0.030564	0.007882	-0.137699	0.650663	0.019922	0.746512	-44.424383	-77.672045	-122.702495
64960		11.882479	-2.479724	0.880819	-1.084617	0.438063	2.301348	0.042467	-0.179228	-0.045637	-0.983398	0.248779	0.183838	0.118811	-0.024826	0.008909	-0.137688	0.651366	0.020324	0.745889	-44.700591	-77.766235	-122.395402
64961		11.649717	-2.050110	1.112154	-0.718496	0.127202	2.045782	0.130793	-0.134225	-0.095421	-0.978760	0.246582	0.188232	0.116480	-0.020564	0.011186	-0.137782	0.651834	0.021186	0.745439	-44.751268	-77.861823	-122.267489
64962		11.208886	-1.870444	1.049510	-0.681524	0.036985	1.579121	0.239764	-0.058714	-0.162167	-0.981445	0.253174	0.183350	0.112071	-0.018808	0.010505	-0.137993	0.651938	0.022621	0.745267	-44.471717	-77.953621	-122.413098
64963		10.796510	-1.879586	0.884313	-0.800600	0.106232	1.152128	0.311033	-0.024758	-0.232569	-0.987549	0.239746	0.184326	0.107942	-0.018935	0.008827	-0.138175	0.651855	0.024526	0.745245	-43.946123	-78.059283	-122.768834
64964		10.350403	-2.073565	0.873042	-0.812929	0.395827	0.740753	0.341321	-0.078206	-0.269191	-0.980713	0.239746	0.186523	0.103473	-0.020890	0.008735	-0.138315	0.651945	0.026702	0.745066	-43.424212	-78.200967	-123.102437
64965		10.044768	-2.273082	0.996754	-0.707322	0.698274	0.486332	0.356405	-0.171567	-0.273236	-0.974121	0.239990	0.181885	0.100408	-0.022886	0.010013	-0.138473	0.652366	0.029010	0.744582	-43.051436	-78.382602	-123.275187
64966		9.672682	-2.358605	1.178725	-0.504905	0.915669	0.158257	0.356014	-0.232891	-0.253341	-0.980469	0.235352	0.184570	0.096683	-0.023730	0.011858	-0.138697	0.653017	0.031296	0.743877	-42.830891	-78.582103	-123.292325
64967		9.225167	-2.383121	1.307823	-0.326564	1.072700	-0.260935	0.357549	-0.281801	-0.218926	-0.974121	0.239990	0.184326	0.092207	-0.023956	0.013165	-0.139042	0.653848	0.033506	0.742985	-42.773099	-78.788663	-123.142938
64968		8.840960	-2.317135	1.342815	-0.223084	1.106578	-0.644236	0.375287	-0.264346	-0.183213	-0.980469	0.233154	0.184570	0.088370	-0.023278	0.013501	-0.139584	0.654605	0.035656	0.742117	-42.750072	-78.974017	-122.947381
64969		8.464318	-2.169939	1.310073	-0.168021	1.040375	-1.040062	0.377461	-0.228935	-0.149308	-0.980957	0.242188	0.190918	0.084612	-0.021787	0.013157	-0.140261	0.655230	0.037676	0.741337	-42.729936	-79.131292	-122.748208
64970		8.109754	-1.839901	1.206209	-0.137746	0.773197	-1.446598	0.357955	-0.217003	-0.108399	-0.985107	0.235352	0.186768	0.081074	-0.018465	0.012117	-0.141031	0.655830	0.039483	0.740566	-42.791184	-79.267568	-122.477106
64971		7.957022	-1.458093	1.059286	-0.154035	0.409916	-1.665876	0.345973	-0.212376	-0.079841	-0.980713	0.237549	0.191162	0.079553	-0.014631	0.010652	-0.141864	0.656423	0.041146	0.739791	-42.916547	-79.390742	-122.148416
64972		7.793351	-1.127280	1.067931	-0.032066	0.132514	-1.867314	0.333490	-0.185196	-0.057498	-0.980713	0.237793	0.193359	0.077920	-0.011313	0.010733	-0.142748	0.656926	0.042672	0.739087	-43.048487	-79.493576	-121.819927
64973		7.565538	-0.978534	1.164270	0.130528	0.059262	-2.097128	0.318981	-0.143703	-0.046254	-0.982910	0.237549	0.197998	0.075645	-0.009821	0.011681	-0.143629	0.657286	0.044076	0.738514	-43.129090	-79.574618	-121.552701
64974		7.234421	-0.938655	1.216829	0.229719	0.093698	-2.421000	0.299798	-0.128027	-0.038329	-0.983154	0.242188	0.199951	0.072335	-0.009419	0.012200	-0.144484	0.657603	0.045374	0.737986	-43.209515	-79.645914	-121.296442
64975		6.961929	-0.856340	1.244433	0.310227	0.071521	-2.695875	0.268473	-0.127168	-0.038031	-0.980957	0.246582	0.197266	0.069610	-0.008593	0.012477	-0.145232	0.657937	0.046552	0.737468	-43.307392	-79.716683	-121.041198
64976		6.788341	-0.738006	1.234824	0.356123	-0.010417	-2.882746	0.222281	-0.125438	-0.034553	-0.985596	0.248779	0.192627	0.067874	-0.007406	0.012383	-0.145849	0.658299	0.047550	0.736960	-43.440887	-79.785169	-120.775901
64977		6.617721	-0.686557	1.327521	0.480908	-0.002449	-3.045367	0.194285	-0.115876	-0.046376	-0.985596	0.244385	0.199707	0.066168	-0.006894	0.013307	-0.146325	0.658640	0.048474	0.736500	-43.542248	-79.854349	-120.560415
64978		6.499666	-0.764834	1.416677	0.560343	0.120171	-3.141168	0.151263	-0.097834	-0.049623	-0.983398	0.246582	0.201904	0.064988	-0.007675	0.014193	-0.146660	0.658946	0.049241	0.736109	-43.624698	-79.917056	-120.388237
64979		6.387128	-0.860419	1.536849	0.662598	0.266125	-3.225748	0.117531	-0.074636	-0.050964	-0.987793	0.246582	0.199707	0.063863	-0.008630	0.015387	-0.146876	0.659189	0.049868	0.735806	-43.671082	-79.970849	-120.273333
64980		6.311944	-0.947700	1.575925	0.684848	0.376024	-3.284908	0.080268	-0.045592	-0.049485	-0.985596	0.246582	0.206299	0.063113	-0.009499	0.015770	-0.146990	0.659354	0.050334	0.735603	-43.680039	-80.011854	-120.217232
64981		6.211412	-0.965599	1.540501	0.656590	0.402495	-3.386643	0.036075	-0.024596	-0.043969	-0.980957	0.244385	0.210938	0.062110	-0.009672	0.015411	-0.146976	0.659475	0.050601	0.735480	-43.678101	-80.042133	-120.198807
64982		6.316092	-1.120105	1.469860	0.537334	0.517564	-3.274221	-0.008943	0.003324	-0.042931	-0.985596	0.248779	0.206299	0.063159	-0.011214	0.014698	-0.146831	0.659528	0.050680	0.735455	-43.644257	-80.060390	-120.238270
64983		6.591670	-1.231687	1.351536	0.369928	0.552993	-3.004518	-0.057387	-0.005807	-0.044097	-0.987549	0.239746	0.206787	0.065914	-0.012328	0.013521	-0.146512	0.659649	0.050590	0.735417	-43.653104	-80.082931	-120.263262
64984		6.798906	-1.239407	1.405860	0.404426	0.546033	-2.793002	-0.112759	-0.020611	-0.047045	-0.987549	0.242188	0.208740	0.067985	-0.012402	0.014073	-0.146003	0.659864	0.050319	0.735344	-43.722578	-80.112682	-120.258237
64985		6.968786	-1.243077	1.428107	0.413840	0.532514	-2.622843	-0.151572	-0.020629	-0.059556	-0.980713	0.239990	0.208984	0.069683	-0.012441	0.014298	-0.145313	0.660103	0.049944	0.735291	-43.782461	-80.147490	-120.286197
64986		7.325149	-1.327406	1.366750	0.304933	0.547311	-2.269791	-0.159589	-0.021377	-0.081219	-0.987549	0.237549	0.209229	0.073245	-0.013293	0.013686	-0.144523	0.660347	0.049613	0.735251	-43.799263	-80.191138	-120.362003
64987		7.921169	-1.621099	1.217161	0.032528	0.705039	-1.666755	-0.182726	-0.003143	-0.090875	-0.985107	0.237549	0.206787	0.079204	-0.016236	0.012188	-0.143619	0.660535	0.049215	0.735286	-43.761590	-80.231131	-120.507067
64988		8.461269	-1.920185	1.136449	-0.172265	0.895437	-1.109802	-0.183611	0.046151	-0.094207	-0.987061	0.230957	0.202881	0.084606	-0.019231	0.011363	-0.142717	0.660542	0.048790	0.735483	-43.603985	-80.251882	-120.773868
64989		9.022536	-2.211161	1.344191	-0.105095	1.150412	-0.497768	-0.160672	0.112755	-0.100994	-0.984863	0.228760	0.205078	0.090222	-0.022146	0.013409	-0.141877	0.660285	0.048423	0.735901	-43.261507	-80.247488	-121.215366
64990		9.638342	-2.345109	1.782554	0.214234	1.305781	0.178494	-0.132676	0.179874	-0.096117	-0.984863	0.228760	0.205078	0.096388	-0.023486	0.017754	-0.141166	0.659762	0.048095	0.736528	-42.764668	-80.212418	-121.797073
64991		9.847650	-2.326869	1.969273	0.362604	1.307573	0.406280	-0.114122	0.235008	-0.096974	-0.984863	0.230957	0.200439	0.098488	-0.023305	0.019590	-0.140523	0.659021	0.047799	0.737333	-42.135632	-80.153504	-122.502408
64992		10.126023	-2.249633	2.124584	0.482449	1.232536	0.692505	-0.105821	0.316784	-0.091482	-0.991455	0.226318	0.200928	0.101283	-0.022531	0.021097	-0.139952	0.657973	0.047458	0.738399	-41.347923	-80.055898	-123.363854
64993		10.851700	-2.114251	2.180141	0.469383	1.008601	1.400909	-0.104560	0.391230	-0.080658	-0.993652	0.226318	0.196289	0.108551	-0.021175	0.021600	-0.139437	0.656649	0.047034	0.739700	-40.444605	-79.919960	-124.342568
64994		11.897707	-2.147396	2.109558	0.246550	0.864161	2.426970	-0.159582	0.442350	-0.078459	-0.991455	0.224121	0.191895	0.119015	-0.021504	0.020850	-0.138764	0.655173	0.046363	0.741177	-39.501373	-79.757911	-125.394237
64995		13.950019	-2.322779	1.643001	-0.508853	0.608776	4.402374	-0.206493	0.433490	-0.071108	-0.993652	0.226318	0.187500	0.139527	-0.023261	0.016152	-0.137960	0.653759	0.045500	0.742627	-38.649888	-79.594389	-126.380586
64996		15.581436	-2.265035	2.084178	-0.289870	0.417279	6.061728	-0.310864	0.293533	-0.067998	-0.998291	0.226074	0.187500	0.155837	-0.022671	0.020648	-0.136796	0.652935	0.044336	0.743637	-38.160262	-79.490365	-127.060032
64997		15.117068	-1.873642	4.240307	1.907048	0.627138	5.871264	-0.354073	0.159616	-0.055711	-0.995605	0.217285	0.190186	0.151199	-0.018704	0.042316	-0.135504	0.652639	0.043062	0.744209	-37.986386	-79.441870	-127.443830
64998		13.352855	-0.971191	3.273035	1.388310	-0.217170	3.897895	0.046264	0.190555	-0.118443	-0.995361	0.212891	0.188232	0.133554	-0.009799	0.032601	-0.135292	0.651941	0.043461	0.744835	-37.377698	-79.400728	-128.036722
64999		13.170159	-0.701728	0.983222	-0.732519	-0.990834	3.355224	0.014407	0.002774	-0.104703	-0.995361	0.215088	0.185791	0.131698	-0.007087	0.009830	-0.134985	0.651967	0.043824	0.744847	-37.169822	-79.439769	-128.240390
65000		12.946182	-1.011859	1.002792	-0.758097	-0.646306	3.173483	-0.141472	-0.149430	-0.035490	-1.002197	0.214844	0.188232	0.129452	-0.010134	0.010132	-0.134393	0.652680	0.043481	0.744350	-37.505877	-79.524129	-127.982052
65001		13.046691	-0.534655	0.789639	-0.837851	-1.162884	3.190052	0.097711	-0.038656	-0.047151	-0.999756	0.212646	0.188232	0.130464	-0.005381	0.007919	-0.134564	0.652816	0.043995	0.744170	-37.468699	-79.562077	-127.963523
65002		12.352991	0.052760	-0.154723	-1.525031	-1.852800	2.306078	0.249982	0.215115	-0.050084	-1.006836	0.219238	0.183350	0.123528	0.000499	-0.001679	-0.135274	0.651904	0.044912	0.744785	-36.861549	-79.485184	-128.436275
65003		11.270136	0.494993	0.057876	-1.108962	-2.073278	1.220716	0.147381	0.266817	-0.038514	-1.004395	0.214844	0.181396	0.112703	0.004928	0.000432	-0.135707	0.650870	0.045376	0.745582	-36.254913	-79.379644	-128.968072
65004		10.945980	1.086801	0.521368	-0.486268	-2.482445	0.904983	-0.089365	0.009341	-0.027929	-0.999756	0.208252	0.184082	0.109462	0.010855	0.005204	-0.135350	0.650958	0.045097	0.745587	-36.281668	-79.388942	-128.993616
65005		11.332095	1.369887	0.326417	-0.631900	-2.850405	1.227030	-0.169848	-0.244324	-0.059880	-1.004639	0.217041	0.185791	0.113321	0.013668	0.003391	-0.134554	0.652038	0.044795	0.744805	-36.739388	-79.525994	-128.627619
65006		11.755556	1.426665	0.148286	-0.804987	-2.993394	1.617182	-0.223204	-0.361091	-0.087144	-0.995361	0.215088	0.192627	0.117559	0.014217	0.001679	-0.133454	0.653581	0.044459	0.743670	-37.393662	-79.725343	-128.093364
65007		12.272234	1.289527	0.307608	-0.700386	-2.873864	2.171274	-0.281058	-0.464977	-0.125122	-0.997559	0.210693	0.201904	0.122723	0.012823	0.003343	-0.132002	0.655536	0.044104	0.742229	-38.214703	-79.983655	-127.423470
65008		12.566569	0.648265	0.574595	-0.586893	-2.204592	2.575375	-0.293484	-0.461866	-0.187373	-0.995117	0.208496	0.204102	0.125658	0.006374	0.006027	-0.130277	0.657470	0.043903	0.740833	-38.915540	-80.261484	-126.883417
65009		12.369384	-0.501891	0.600306	-0.785996	-1.029912	2.513512	-0.285796	-0.341717	-0.240041	-0.997314	0.206299	0.206543	0.123677	-0.005159	0.006222	-0.128409	0.658935	0.043826	0.739862	-39.245657	-80.503786	-126.715272
65010		11.810842	-1.205618	0.716035	-0.763458	-0.216302	2.054597	-0.226953	-0.209184	-0.248424	-0.999512	0.201660	0.204590	0.118086	-0.012195	0.007298	-0.126731	0.659868	0.043909	0.739314	-39.238440	-80.690520	-126.855001
65011		11.192188	-1.559098	0.893364	-0.602202	0.274094	1.503502	-0.218852	-0.098670	-0.210813	-0.996826	0.195068	0.216309	0.111901	-0.015699	0.009006	-0.125243	0.660392	0.043828	0.739105	-39.078643	-80.814230	-127.144539
65012		10.376643	-1.657262	0.893007	-0.537928	0.490326	0.708192	-0.291026	-0.037517	-0.126151	-0.997070	0.197266	0.211670	0.103754	-0.016625	0.008974	-0.123840	0.660754	0.043161	0.739056	-39.053232	-80.880423	-127.340017
65013		9.634503	-1.497711	0.841988	-0.467622	0.424879	-0.046596	-0.375980	-0.044574	-0.034087	-0.990234	0.197510	0.218262	0.096341	-0.014978	0.008470	-0.122497	0.661211	0.041881	0.738945	-39.346883	-80.916150	-127.261382
65014		9.120969	-1.286720	0.905029	-0.293543	0.298371	-0.566522	-0.451857	-0.084445	0.030154	-0.989990	0.190674	0.214111	0.091208	-0.012833	0.009118	-0.121132	0.661875	0.040132	0.738674	-39.956442	-80.946194	-126.906937
65015		8.711193	-1.040136	0.846166	-0.235737	0.092481	-1.002545	-0.498260	-0.139017	0.080206	-0.989990	0.188477	0.221191	0.087110	-0.010345	0.008548	-0.119786	0.662771	0.038079	0.738198	-40.859519	-80.980406	-126.282174
65016		8.295752	-0.636861	0.702781	-0.223156	-0.283967	-1.470714	-0.494579	-0.176547	0.092390	-0.985596	0.193115	0.227539	0.082954	-0.006313	0.007117	-0.118486	0.663804	0.036021	0.737583	-41.890512	-81.024868	-125.526304
65017		7.930257	-0.414397	0.704952	-0.117342	-0.459971	-1.854529	-0.450404	-0.192652	0.089910	-0.981201	0.195557	0.229492	0.079298	-0.004092	0.007135	-0.117323	0.664862	0.034143	0.736904	-42.937120	-81.074563	-124.728632
65018		7.623715	-0.251043	0.784067	0.041545	-0.569286	-2.165925	-0.406585	-0.179170	0.069100	-0.985596	0.190918	0.234375	0.076231	-0.002468	0.007914	-0.116230	0.665841	0.032489	0.736268	-43.881715	-81.125076	-124.009078
65019		7.376265	-0.212817	0.812078	0.114254	-0.573852	-2.411899	-0.355573	-0.146264	0.042084	-0.983398	0.195557	0.238525	0.073757	-0.002098	0.008178	-0.115213	0.666659	0.031093	0.735748	-44.647645	-81.170830	-123.440691
65020		7.113890	-0.276485	0.882822	0.204304	-0.467844	-2.657086	-0.290075	-0.106017	0.028195	-0.983643	0.197754	0.240723	0.071135	-0.002742	0.008870	-0.114368	0.667290	0.029960	0.735355	-45.243167	-81.205294	-123.007104
65021		6.824509	-0.404449	0.938112	0.265640	-0.297852	-2.923691	-0.226902	-0.097922	0.007831	-0.979004	0.197754	0.242920	0.068241	-0.004031	0.009419	-0.113661	0.667847	0.029123	0.734992	-45.729466	-81.243748	-122.647181
65022		6.585584	-0.584944	0.881722	0.202986	-0.103273	-3.146531	-0.179920	-0.118149	-0.008160	-0.981689	0.204346	0.244873	0.065850	-0.005844	0.008861	-0.113050	0.668452	0.028525	0.734560	-46.208889	-81.296747	-122.266929
65023		6.430960	-0.793641	0.871868	0.172903	0.117857	-3.277898	-0.160531	-0.100315	-0.006339	-0.985840	0.199951	0.242920	0.064305	-0.007931	0.008757	-0.112512	0.668976	0.027981	0.734186	-46.635005	-81.341126	-121.929510
65024		6.570869	-0.929951	0.783252	0.056987	0.215569	-3.133998	-0.116692	-0.106014	0.008022	-0.981445	0.199951	0.242920	0.065705	-0.009292	0.007873	-0.112177	0.669502	0.027555	0.733774	-47.096043	-81.381566	-121.530952
65025		6.748861	-0.867455	0.801277	0.083507	0.134285	-2.963116	-0.091382	-0.125215	0.040220	-0.988037	0.195557	0.249756	0.067485	-0.008657	0.008059	-0.112038	0.670084	0.027123	0.733280	-47.679375	-81.415107	-120.994530
65026		6.756496	-0.826789	0.950196	0.247009	0.118948	-2.945263	-0.088924	-0.100923	0.064087	-0.981445	0.199951	0.249512	0.067563	-0.008242	0.009540	-0.111998	0.670582	0.026607	0.732850	-48.259879	-81.428635	-120.459434
65027		6.709464	-0.777526	1.013968	0.331135	0.084197	-2.991189	-0.050490	-0.063093	0.085162	-0.981445	0.197754	0.251953	0.067095	-0.007744	0.010163	-0.112169	0.670918	0.026139	0.732532	-48.761921	-81.417728	-119.981561
65028		6.855345	-0.678140	0.965410	0.299179	-0.046910	-2.863159	-0.017612	-0.045464	0.102557	-0.979248	0.202393	0.249268	0.068555	-0.006745	0.009670	-0.112517	0.671177	0.025725	0.732256	-49.239269	-81.392351	-119.509455
65029		6.948387	-0.536557	0.874307	0.236895	-0.221342	-2.796473	0.022976	-0.031075	0.113111	-0.977051	0.202393	0.249268	0.069486	-0.005327	0.008753	-0.113041	0.671359	0.025414	0.732020	-49.671975	-81.356176	-119.059077
65030		7.182032	-0.301302	0.625855	0.028317	-0.535488	-2.617098	0.075397	-0.014853	0.107276	-0.977295	0.206787	0.246826	0.071821	-0.002977	0.006263	-0.113724	0.671453	0.025307	0.731832	-50.012971	-81.316306	-118.670727
65031		7.714638	-0.102352	0.351055	-0.235568	-0.859507	-2.140979	0.107547	-0.001611	0.104809	-0.974854	0.206787	0.244629	0.077147	-0.000985	0.003511	-0.114505	0.671476	0.025318	0.731688	-50.285627	-81.272150	-118.333147
65032		8.519763	0.002773	0.230697	-0.387739	-1.100985	-1.370112	0.123333	0.024484	0.103999	-0.979492	0.208984	0.253418	0.085198	0.000071	0.002297	-0.115343	0.671397	0.025376	0.731627	-50.471759	-81.218730	-118.073386
65033		9.232588	0.023041	0.332966	-0.336925	-1.206719	-0.659416	0.156637	0.094443	0.089410	-0.977051	0.204590	0.242432	0.092327	0.000269	0.003286	-0.116244	0.671038	0.025562	0.731807	-50.400825	-81.146067	-118.054941
65034		9.875282	-0.008423	0.680336	-0.062344	-1.207057	0.011935	0.179046	0.220066	0.080529	-0.977295	0.208984	0.246826	0.098760	-0.000050	0.006695	-0.117206	0.670207	0.025789	0.732407	-49.947797	-81.031492	-118.409986
65035		10.320733	-0.055401	1.243512	0.418441	-1.125178	0.513284	0.199861	0.360927	0.068214	-0.979736	0.211182	0.235352	0.103230	-0.000531	0.012248	-0.118208	0.668842	0.026048	0.733484	-49.080355	-80.868985	-119.172998
65036		10.337271	-0.113334	1.796865	0.903142	-0.975783	0.595612	0.216383	0.501910	0.047357	-0.986328	0.210938	0.235352	0.103418	-0.001128	0.017708	-0.119209	0.666946	0.026358	0.735036	-47.818699	-80.659887	-120.325824
65037		10.469410	-0.126790	2.259186	1.284975	-0.902808	0.782689	0.225721	0.594528	0.025381	-0.981934	0.211182	0.228760	0.104761	-0.001280	0.022279	-0.120169	0.664693	0.026716	0.736905	-46.323481	-80.419209	-121.711135
65038		10.438585	-0.161004	2.489005	1.443625	-0.831065	0.789674	0.190793	0.590275	-0.001298	-0.981934	0.213379	0.221680	0.104459	-0.001634	0.024580	-0.120915	0.662469	0.027040	0.738772	-44.867711	-80.185689	-123.077430
65039		10.322248	-0.196790	2.623831	1.520153	-0.761894	0.703034	0.162754	0.537544	-0.020834	-0.988770	0.215332	0.219482	0.103292	-0.002000	0.025959	-0.121486	0.660446	0.027354	0.740476	-43.564810	-79.975840	-124.306028
65040		10.372692	-0.122661	2.499969	1.358164	-0.871982	0.734939	0.186157	0.490866	-0.037353	-0.981934	0.210938	0.212891	0.103788	-0.001269	0.024744	-0.122068	0.658577	0.027840	0.742024	-42.363120	-79.787723	-125.418502
65041		10.462137	-0.258880	2.331478	1.104705	-0.790299	0.822816	0.246767	0.485671	-0.051542	-0.990723	0.210693	0.206299	0.104677	-0.002644	0.023057	-0.122794	0.656682	0.028598	0.743554	-41.145614	-79.602869	-126.512855
65042		11.143020	-0.518350	2.062978	0.661983	-0.694576	1.490876	0.297031	0.463567	-0.046099	-0.988525	0.210693	0.199463	0.111476	-0.005240	0.020364	-0.123700	0.654837	0.029541	0.744993	-39.996812	-79.421952	-127.508466
65043		13.443815	-0.854463	1.393862	-0.371655	-0.848371	3.698456	0.343409	0.401182	0.009941	-0.990723	0.210693	0.192871	0.134466	-0.008562	0.013654	-0.124958	0.653196	0.030508	0.746183	-39.107647	-79.244612	-128.213640
65044		15.965291	-1.741674	1.891735	-0.437148	-0.273269	6.350125	0.232375	0.364728	0.082868	-0.993164	0.212891	0.186035	0.159694	-0.017372	0.018606	-0.126118	0.651770	0.030849	0.747220	-38.543476	-79.055997	-128.652867
65045		14.143056	-2.042643	4.801251	2.456213	0.875099	5.034908	0.093308	0.538153	0.064458	-0.988770	0.215088	0.178955	0.141566	-0.020403	0.047622	-0.126782	0.649776	0.030618	0.748852	-37.724322	-78.794461	-129.433682
65046		10.084520	-2.351752	3.619490	1.679143	1.522121	0.920080	0.424838	0.458230	-0.027418	-0.995361	0.212891	0.181396	0.100924	-0.023608	0.035914	-0.128168	0.647851	0.031981	0.750226	-36.680185	-78.598936	-130.250414
65047		9.391181	-1.822873	0.396498	-1.251490	0.427207	-0.329777	0.256112	0.120235	-0.025727	-0.990967	0.212891	0.177002	0.093912	-0.018246	0.003885	-0.128957	0.647299	0.032918	0.750527	-36.328238	-78.556457	-130.460363
65048		10.064136	-2.284252	0.023192	-1.805472	0.691219	0.324750	0.043722	-0.164585	-0.007272	-0.990967	0.212891	0.177002	0.100640	-0.022846	0.000310	-0.129080	0.647956	0.033184	0.749927	-36.620216	-78.639172	-130.137445
65049		11.285464	-3.528813	-0.476401	-2.714097	1.603835	1.593561	0.202118	-0.301732	-0.017182	-0.991455	0.224121	0.185303	0.112859	-0.035293	-0.004629	-0.129657	0.649021	0.034163	0.748862	-37.041272	-78.787512	-129.590593
65050		11.585698	-4.329410	-1.028090	-3.449607	2.211760	1.902152	0.298681	-0.268315	0.010065	-0.998047	0.221680	0.185547	0.115873	-0.043273	-0.010190	-0.130657	0.649902	0.035395	0.747866	-37.423700	-78.910591	-129.026520
65051		11.406690	-4.804435	-0.350580	-2.885354	2.840287	1.888832	0.301842	0.002454	0.058399	-0.995850	0.226074	0.182861	0.114081	-0.048006	-0.003580	-0.131893	0.649773	0.036303	0.747717	-37.440129	-78.893080	-128.834135
65052		10.818977	-4.342622	1.347270	-1.086732	2.852959	1.518832	0.251999	0.190170	0.100208	-1.000488	0.228271	0.180664	0.108224	-0.043389	0.013315	-0.133162	0.648983	0.036767	0.748156	-37.251324	-78.775693	-128.879417
65053		10.650874	-3.691454	2.190392	-0.108930	2.425583	1.410967	0.113119	0.025398	0.194588	-0.993652	0.223877	0.185303	0.106547	-0.036823	0.021870	-0.134298	0.648916	0.036513	0.748024	-37.644000	-78.700289	-128.413543
65054		11.283939	-3.102905	1.711999	-0.490036	1.628420	1.891767	0.109870	-0.132169	0.285320	-0.991699	0.232910	0.184814	0.112872	-0.030877	0.017178	-0.135738	0.649457	0.036059	0.747315	-38.516313	-78.662996	-127.459922
65055		11.451434	-2.129209	1.800459	-0.159565	0.659061	1.953816	0.161117	-0.164919	0.302679	-0.989746	0.237549	0.184570	0.114532	-0.021133	0.018082	-0.137398	0.650086	0.035760	0.746479	-39.448947	-78.630985	-126.415117
65056		11.134553	-1.520851	2.117502	0.363221	0.175498	1.615884	0.209948	-0.239957	0.260969	-0.989990	0.244141	0.193115	0.111340	-0.015086	0.021293	-0.139055	0.650952	0.035833	0.745413	-40.398446	-78.643913	-125.323876
65057		10.680146	-1.234778	1.654930	0.073957	-0.146862	1.063980	0.349471	-0.277767	0.173247	-0.990234	0.248535	0.188232	0.106789	-0.012284	0.016676	-0.140824	0.651841	0.036736	0.744259	-41.150549	-78.702886	-124.353222
65058		10.324388	-0.954375	1.006195	-0.410628	-0.514894	0.583585	0.477080	-0.245451	0.074954	-0.992432	0.248535	0.190430	0.103235	-0.009529	0.010166	-0.142658	0.652500	0.038413	0.743247	-41.567874	-78.783154	-123.648640
65059		9.857927	-1.027729	0.917108	-0.448502	-0.386565	0.123381	0.562533	-0.156270	-0.000106	-0.990234	0.248535	0.190430	0.098572	-0.010303	0.009219	-0.144498	0.652745	0.040587	0.742561	-41.605110	-78.853277	-123.282735
65060		9.248471	-1.136010	1.179300	-0.155641	-0.109573	-0.422307	0.603060	-0.112236	-0.062877	-0.990234	0.248535	0.188232	0.092475	-0.011425	0.011811	-0.146254	0.652779	0.043086	0.742046	-41.401242	-78.928335	-123.138060
65061		8.634856	-1.085981	1.211698	-0.044462	-0.035452	-1.026047	0.589251	-0.130857	-0.108626	-0.988281	0.255371	0.192383	0.086335	-0.010942	0.012141	-0.147781	0.652875	0.045694	0.741503	-41.137274	-79.028918	-123.063623
65062		8.334502	-0.906925	1.124631	-0.042290	-0.162527	-1.355560	0.555143	-0.174919	-0.141734	-0.994629	0.250732	0.186035	0.083329	-0.009160	0.011294	-0.149073	0.653148	0.048319	0.740838	-40.906098	-79.160893	-122.974637
65063		8.048632	-0.880765	1.185269	0.058873	-0.105937	-1.630612	0.467252	-0.188993	-0.162688	-0.990234	0.253174	0.185791	0.080468	-0.008901	0.011908	-0.149985	0.653526	0.050693	0.740161	-40.700667	-79.307043	-122.911832
65064		7.874930	-0.927078	1.146160	0.033879	-0.025284	-1.801080	0.392392	-0.204364	-0.160623	-0.992676	0.252930	0.185791	0.078730	-0.009357	0.011524	-0.150667	0.654014	0.052799	0.739444	-40.574279	-79.458805	-122.811045
65065		7.665946	-1.036938	1.179196	0.062204	0.138968	-1.989052	0.338179	-0.185860	-0.149730	-0.988037	0.248779	0.197266	0.076641	-0.010447	0.011846	-0.151204	0.654474	0.054651	0.738793	-40.464890	-79.598824	-122.725838
65066		7.435778	-1.019462	1.290216	0.201786	0.205200	-2.202701	0.303432	-0.149923	-0.144036	-0.994629	0.248535	0.192871	0.074341	-0.010268	0.012942	-0.151669	0.654827	0.056332	0.738258	-40.318129	-79.720844	-122.697723
65067		7.256097	-0.916266	1.203217	0.172473	0.125162	-2.403721	0.261175	-0.140913	-0.133758	-0.997070	0.250732	0.197266	0.072546	-0.009227	0.012071	-0.152025	0.655179	0.057812	0.737758	-40.197840	-79.835365	-122.668492
65068		7.198379	-0.795534	1.125517	0.146276	0.011138	-2.485015	0.208887	-0.140269	-0.129218	-0.994873	0.252930	0.199219	0.071971	-0.008014	0.011297	-0.152236	0.655569	0.059088	0.737267	-40.119338	-79.947754	-122.626195
65069		7.157401	-0.738200	1.209614	0.253227	0.000019	-2.520749	0.155453	-0.125638	-0.127723	-0.994873	0.252930	0.199219	0.071562	-0.007437	0.012135	-0.152271	0.655944	0.060147	0.736840	-40.041309	-80.053367	-122.615580
65070		7.136761	-0.672703	1.195745	0.267884	-0.050749	-2.550364	0.107032	-0.121976	-0.125423	-0.992920	0.259766	0.209961	0.071356	-0.006778	0.011997	-0.152170	0.656344	0.061022	0.736433	-39.992397	-80.156312	-122.602230
65071		7.163025	-0.768046	1.227095	0.271261	0.056003	-2.510095	0.071143	-0.085753	-0.121462	-0.996826	0.248535	0.201660	0.071620	-0.007728	0.012299	-0.151963	0.656637	0.061720	0.736156	-39.892410	-80.242106	-122.662926
65072		7.232715	-0.933560	1.354611	0.338614	0.249261	-2.407157	0.022623	-0.051546	-0.108405	-0.997314	0.255127	0.201416	0.072319	-0.009376	0.013564	-0.151659	0.656846	0.062171	0.735994	-39.780825	-80.308165	-122.763233
65073		7.243883	-1.055821	1.518835	0.457387	0.418887	-2.362132	-0.018636	-0.010705	-0.104885	-0.999268	0.250732	0.199463	0.072432	-0.010595	0.015193	-0.151242	0.656936	0.062427	0.735978	-39.610966	-80.354762	-122.946964
65074		7.461842	-1.149942	1.443826	0.338480	0.462121	-2.147313	-0.066828	-0.010276	-0.098119	-0.996826	0.244141	0.208740	0.074612	-0.011531	0.014446	-0.150695	0.657064	0.062484	0.735972	-39.485575	-80.398733	-123.113231
65075		7.771968	-1.288314	1.407609	0.235185	0.545084	-1.831950	-0.125446	-0.000604	-0.092476	-0.996826	0.244141	0.210938	0.077714	-0.012910	0.014084	-0.149976	0.657200	0.062298	0.736013	-39.384754	-80.436202	-123.288963
65076		7.947453	-1.449050	1.603531	0.357289	0.734114	-1.617171	-0.161889	0.032931	-0.088719	-0.994629	0.246338	0.206299	0.079471	-0.014513	0.016034	-0.149164	0.657242	0.061942	0.736170	-39.243097	-80.457475	-123.526930
65077		8.266735	-1.631068	1.742994	0.405552	0.906351	-1.265678	-0.186792	0.044397	-0.094233	-0.994141	0.237549	0.207031	0.082664	-0.016333	0.017427	-0.148251	0.657257	0.061503	0.736377	-39.073849	-80.475445	-123.807664
65078		8.720237	-1.665760	1.699986	0.311898	0.867874	-0.820649	-0.214763	0.062494	-0.087147	-0.996582	0.241943	0.208984	0.087200	-0.016677	0.016991	-0.147280	0.657229	0.060924	0.736645	-38.901609	-80.482732	-124.107351
65079		9.165653	-1.731704	1.703714	0.251524	0.872713	-0.374163	-0.218615	0.104329	-0.084019	-1.001221	0.241699	0.208984	0.091658	-0.017337	0.017008	-0.146318	0.657049	0.060290	0.737051	-38.648600	-80.469955	-124.491495
65080		9.474858	-1.833455	1.717211	0.198006	0.931607	-0.056859	-0.221089	0.160234	-0.080134	-1.003174	0.237305	0.207031	0.094755	-0.018354	0.017116	-0.145381	0.656665	0.059593	0.737634	-38.292178	-80.430421	-124.981671
65081		9.692834	-1.832212	1.851334	0.291224	0.936155	0.176018	-0.214325	0.244558	-0.071322	-1.000732	0.235107	0.202637	0.096944	-0.018337	0.018414	-0.144521	0.655965	0.058830	0.738486	-37.782645	-80.349063	-125.623596
65082		9.843956	-1.661689	2.122980	0.560125	0.822332	0.345150	-0.180365	0.367924	-0.062349	-1.000488	0.228271	0.200684	0.098473	-0.016629	0.021064	-0.143844	0.654787	0.058074	0.739723	-37.041267	-80.207291	-126.480933
65083		9.965879	-1.458948	2.290243	0.728889	0.649030	0.470298	-0.140276	0.467386	-0.069367	-1.005127	0.232666	0.198242	0.099707	-0.014608	0.022680	-0.143298	0.653206	0.057417	0.741276	-36.088272	-80.019988	-127.530468
65084		9.854781	-1.311062	2.575864	1.008898	0.589829	0.390481	-0.152036	0.545754	-0.085022	-1.005127	0.232666	0.196045	0.098612	-0.013133	0.025500	-0.142684	0.651336	0.056714	0.743092	-34.997233	-79.798184	-128.726983
65085		9.622209	-1.201310	2.883979	1.308292	0.588040	0.201788	-0.192941	0.582039	-0.103434	-1.009766	0.232666	0.184814	0.096299	-0.012035	0.028571	-0.141870	0.649348	0.055890	0.745048	-33.865364	-79.561150	-129.990420
65086		9.427579	-1.090042	2.926364	1.350898	0.507503	0.013212	-0.258765	0.594816	-0.129347	-1.011719	0.228027	0.173828	0.094355	-0.010924	0.028997	-0.140756	0.647346	0.054898	0.747072	-32.739198	-79.321674	-131.286503
65087		10.105925	-1.106798	2.577617	0.879648	0.326238	0.633287	-0.346795	0.553943	-0.163412	-1.015869	0.221191	0.176514	0.101121	-0.011106	0.025515	-0.139209	0.645542	0.053712	0.749007	-31.691677	-79.108007	-132.555725
65088		11.525348	-1.330484	1.917805	-0.042313	0.164820	1.945400	-0.466329	0.482850	-0.181248	-1.016113	0.223389	0.174316	0.115287	-0.013365	0.018931	-0.137193	0.644075	0.052187	0.750748	-30.819052	-78.930422	-133.717010
65089		13.205368	-1.442691	1.499094	-0.739946	-0.066627	3.534907	-0.556419	0.367160	-0.194218	-1.013672	0.221191	0.167480	0.132067	-0.014514	0.014789	-0.134803	0.643093	0.050442	0.752140	-30.163093	-78.810889	-134.711050
65090		12.966508	-1.205294	2.704121	0.471070	0.042069	3.479099	-0.638087	0.280741	-0.209426	-1.020020	0.209961	0.170654	0.129690	-0.012103	0.026898	-0.132074	0.642480	0.048499	0.753275	-29.656634	-78.736635	-135.600192
65091		11.123834	-0.735664	4.522365	2.560465	0.282910	1.938763	-0.504418	0.276449	-0.253383	-1.019775	0.205566	0.168457	0.111291	-0.007384	0.045088	-0.129602	0.641777	0.047201	0.754386	-28.977368	-78.675113	-136.588184
65092		11.131688	-0.490355	3.153170	1.296499	-0.268376	1.691416	-0.261639	0.032220	-0.323766	-1.026123	0.196533	0.173584	0.111314	-0.005043	0.031520	-0.127585	0.641817	0.047201	0.754695	-28.321748	-78.753474	-137.410275
65093		11.142339	-0.494591	1.238091	-0.532775	-0.688195	1.375327	-0.350590	-0.186601	-0.268224	-1.019531	0.196533	0.173584	0.111405	-0.005073	0.012494	-0.125439	0.642749	0.046828	0.754285	-28.146716	-78.926074	-137.794021
65094		11.706301	-0.963968	0.381750	-1.524568	-0.480170	1.830226	-0.377791	-0.282736	-0.154838	-1.016846	0.189941	0.178467	0.117050	-0.009723	0.004001	-0.123610	0.644084	0.046046	0.753496	-28.411953	-79.116472	-137.745200
65095		12.054619	-0.549070	-0.370317	-2.169683	-1.078016	2.014518	-0.217990	-0.101977	-0.090116	-1.021484	0.192139	0.180664	0.120546	-0.005549	-0.003636	-0.122581	0.644651	0.045548	0.753209	-28.500945	-79.198105	-137.782354
65096		11.387012	0.095319	-0.590826	-2.132893	-1.658858	1.265269	-0.150526	0.141167	-0.045152	-1.017090	0.194580	0.180420	0.113866	0.000923	-0.005989	-0.121993	0.644271	0.045008	0.753662	-28.323960	-79.144991	-138.051171
65097		10.969823	0.707920	0.336774	-1.054920	-1.990322	0.951944	-0.193931	0.224559	-0.040492	-1.021240	0.187744	0.178711	0.109703	0.007060	0.003238	-0.121302	0.643603	0.044240	0.754390	-28.068631	-79.048267	-138.424946
65098		11.090267	1.058172	1.264284	-0.112599	-2.139278	1.192901	-0.295550	0.049893	-0.053123	-1.014404	0.185547	0.176514	0.110909	0.010571	0.012600	-0.120198	0.643652	0.043235	0.754583	-28.085837	-79.043216	-138.580589
65099		11.392132	0.861577	1.130669	-0.324987	-2.012785	1.485297	-0.299032	-0.176594	-0.073635	-1.016602	0.183350	0.183350	0.113914	0.008591	0.011394	-0.118956	0.644550	0.042419	0.754060	-28.367974	-79.158022	-138.468344
65100		11.547205	0.384229	1.211026	-0.355481	-1.541647	1.695963	-0.281649	-0.299841	-0.091156	-1.012207	0.185791	0.189941	0.115455	0.003807	0.012278	-0.117676	0.645897	0.041797	0.753141	-28.777616	-79.339686	-138.216479
65101		11.843313	-0.178529	1.550388	-0.161308	-0.945560	2.094427	-0.280896	-0.360585	-0.089229	-1.019043	0.185547	0.196777	0.118404	-0.001816	0.015720	-0.116393	0.647469	0.041209	0.752023	-29.294417	-79.550688	-137.855090
65102		12.233927	-0.620064	1.324314	-0.487463	-0.597692	2.484150	-0.254085	-0.371115	-0.077979	-1.014404	0.185791	0.198975	0.122312	-0.006231	0.013478	-0.115237	0.649065	0.040691	0.750853	-29.862166	-79.763334	-137.426661
65103		12.408619	-0.956790	1.201540	-0.663250	-0.303378	2.669336	-0.202044	-0.274510	-0.071311	-1.016602	0.183350	0.198975	0.124066	-0.009600	0.012195	-0.114293	0.650265	0.040290	0.749980	-30.280933	-79.925282	-137.119428
65104		12.162765	-1.180657	1.567501	-0.299690	0.029722	2.503689	-0.143914	-0.145269	-0.046278	-1.016602	0.181152	0.201416	0.121613	-0.011823	0.015772	-0.113659	0.650952	0.039953	0.749498	-30.534570	-80.015995	-136.946206
65105		11.566770	-1.186898	1.921112	0.133544	0.183416	1.970270	-0.121008	-0.085500	-0.009435	-1.014160	0.176758	0.201660	0.115659	-0.011863	0.019268	-0.113249	0.651408	0.039547	0.749186	-30.781625	-80.066143	-136.766357
65106		10.816762	-1.039493	1.993275	0.344740	0.141939	1.228916	-0.152954	-0.094133	0.028739	-1.016357	0.178955	0.199219	0.108160	-0.010364	0.019992	-0.112875	0.651922	0.038902	0.748828	-31.172101	-80.109315	-136.459741
65107		10.284760	-0.820491	1.721396	0.213789	-0.069255	0.644949	-0.191258	-0.143773	0.064618	-1.007568	0.181396	0.203613	0.102838	-0.008155	0.017296	-0.112501	0.652649	0.038025	0.748296	-31.773666	-80.165341	-135.960972
65108		9.857961	-0.611944	1.401174	0.024628	-0.293999	0.158775	-0.223776	-0.202502	0.093449	-1.005127	0.177002	0.212891	0.098568	-0.006058	0.014118	-0.112118	0.653619	0.036964	0.747560	-32.586740	-80.240179	-135.266676
65109		9.425787	-0.429424	1.376261	0.118073	-0.433486	-0.287875	-0.247789	-0.224493	0.106306	-1.000732	0.177246	0.217285	0.094245	-0.004227	0.013874	-0.111700	0.654683	0.035785	0.746748	-33.500940	-80.319587	-134.483794
65110		9.059648	-0.183485	1.361261	0.225488	-0.640419	-0.674696	-0.256399	-0.233214	0.101540	-1.003174	0.181641	0.214844	0.090581	-0.001771	0.013721	-0.111232	0.655784	0.034592	0.745908	-34.438127	-80.402759	-133.683160
65111		8.619577	-0.121703	1.407436	0.358800	-0.645953	-1.109426	-0.233340	-0.227897	0.086283	-0.996094	0.177246	0.217285	0.086180	-0.001163	0.014174	-0.110786	0.656845	0.033534	0.745088	-35.323025	-80.486050	-132.921979
65112		8.108997	-0.223047	1.401549	0.412722	-0.492918	-1.605582	-0.207801	-0.235214	0.081053	-0.996094	0.175049	0.224121	0.081074	-0.002183	0.014113	-0.110400	0.657919	0.032591	0.744240	-36.208602	-80.572743	-132.145679
65113		7.672652	-0.391202	1.190925	0.242966	-0.322014	-2.048785	-0.160654	-0.225292	0.074172	-0.994141	0.184082	0.221436	0.076714	-0.003874	0.011999	-0.110148	0.658924	0.031841	0.743419	-37.041571	-80.655090	-131.395296
65114		7.523950	-0.501601	1.069606	0.138907	-0.223723	-2.201110	-0.113749	-0.230197	0.076699	-0.998779	0.186279	0.230225	0.075229	-0.004981	0.010785	-0.110056	0.659923	0.031260	0.742571	-37.879703	-80.737212	-130.612862
65115		7.188837	-0.703536	1.111319	0.193818	0.018803	-2.507113	-0.082084	-0.244344	0.067237	-0.996582	0.188477	0.229980	0.071877	-0.007007	0.011204	-0.110033	0.660953	0.030835	0.741676	-38.718380	-80.826979	-129.811452
65116		7.087061	-0.854783	1.079267	0.161982	0.169953	-2.596958	-0.064599	-0.229625	0.069217	-0.994141	0.184082	0.241455	0.070861	-0.008520	0.010877	-0.110078	0.661919	0.030462	0.740823	-39.535814	-80.907817	-129.021552
65117		7.041852	-0.883643	0.888924	-0.007263	0.164152	-2.662046	-0.035020	-0.188572	0.080865	-0.994629	0.193115	0.238770	0.070414	-0.008806	0.008957	-0.110269	0.662715	0.030136	0.740095	-40.285731	-80.964417	-128.283063
65118		6.854921	-0.821105	0.917672	0.066715	0.127528	-2.849531	-0.005546	-0.169027	0.097774	-0.989990	0.188721	0.241211	0.068545	-0.008177	0.009235	-0.110623	0.663427	0.029853	0.739416	-41.028704	-81.004894	-127.534621
65119		6.830736	-0.740129	0.949719	0.130095	0.053029	-2.878067	0.029104	-0.152562	0.097773	-0.992432	0.193115	0.245605	0.068304	-0.007369	0.009548	-0.111095	0.664056	0.029688	0.738787	-41.717475	-81.036620	-126.821015
65120		6.782343	-0.637717	0.940251	0.157281	-0.047856	-2.937813	0.051982	-0.104319	0.111530	-0.983398	0.193359	0.238770	0.067822	-0.006342	0.009436	-0.111701	0.664497	0.029536	0.738305	-42.317609	-81.041466	-126.183895
65121		6.791491	-0.596949	1.006722	0.238853	-0.082484	-2.925720	0.060272	-0.099770	0.126642	-0.986084	0.202148	0.240479	0.067914	-0.005930	0.010099	-0.112390	0.664917	0.029361	0.737829	-42.941516	-81.037284	-125.517911
65122		6.745503	-0.557495	1.251850	0.499791	-0.074334	-2.947965	0.078772	-0.118834	0.122926	-0.981201	0.197754	0.238525	0.067451	-0.005538	0.012556	-0.113127	0.665396	0.029279	0.737287	-43.593044	-81.041491	-124.812897
65123		6.827447	-0.406846	1.440622	0.717002	-0.200818	-2.862829	0.089538	-0.094328	0.121277	-0.983643	0.199951	0.240479	0.068270	-0.004034	0.014437	-0.113894	0.665778	0.029227	0.736827	-44.171604	-81.034927	-124.175843
65124		6.829833	-0.293082	1.452966	0.760412	-0.315533	-2.872526	0.092843	-0.070717	0.122702	-0.985840	0.199951	0.245117	0.068295	-0.002896	0.014552	-0.114683	0.666071	0.029171	0.736442	-44.691383	-81.017302	-123.596088
65125		7.082883	-0.160125	1.134757	0.462862	-0.547130	-2.673574	0.100483	-0.046502	0.133759	-0.983887	0.206543	0.246826	0.070827	-0.001560	0.011363	-0.115540	0.666270	0.029090	0.736131	-45.169923	-80.984472	-123.053887
65126		7.067750	0.050890	0.881034	0.267407	-0.807601	-2.741042	0.124120	-0.049108	0.121431	-0.974854	0.204590	0.247070	0.070675	0.000546	0.008828	-0.116431	0.666464	0.029140	0.735813	-45.607629	-80.957187	-122.539019
65127		7.485606	0.184334	1.014303	0.397149	-0.972884	-2.329851	0.134357	-0.065387	0.114370	-0.975098	0.208984	0.246826	0.074852	0.001879	0.010169	-0.117326	0.666709	0.029260	0.735443	-46.060392	-80.938532	-122.003186
65128		8.248135	0.202568	0.833969	0.168819	-1.135142	-1.599818	0.149535	-0.032547	0.105064	-0.983887	0.204346	0.247070	0.082479	0.002063	0.008355	-0.118244	0.666824	0.029449	0.735185	-46.394728	-80.910288	-121.578087
65129		8.970345	0.183198	0.849715	0.125159	-1.218003	-0.883888	0.163569	-0.000410	0.102409	-0.984131	0.208740	0.242188	0.089702	0.001871	0.008499	-0.119202	0.666810	0.029677	0.735034	-46.628074	-80.869988	-121.247436
65130		9.530869	0.206896	1.182309	0.408928	-1.258248	-0.298082	0.161642	0.056350	0.099763	-0.979736	0.215576	0.246338	0.095311	0.002107	0.011798	-0.120153	0.666589	0.029875	0.735072	-46.707054	-80.808524	-121.074047
65131		9.870307	0.121920	1.347535	0.516167	-1.198607	0.064082	0.185340	0.168553	0.093375	-0.979736	0.213379	0.241943	0.098714	0.001253	0.013393	-0.121175	0.665938	0.030112	0.735484	-46.468809	-80.705384	-121.208430
65132		10.060097	0.125271	1.485059	0.616603	-1.211485	0.265938	0.191512	0.273182	0.086485	-0.979736	0.211182	0.239990	0.100621	0.001282	0.014714	-0.122210	0.664897	0.030335	0.736245	-45.954159	-80.563667	-121.618942
65133		10.262751	0.160219	1.733169	0.820494	-1.235241	0.490442	0.172825	0.343068	0.076135	-0.984131	0.213379	0.233154	0.102656	0.001626	0.017157	-0.123153	0.663605	0.030477	0.737247	-45.270187	-80.397286	-122.212653
65134		10.183892	0.089561	2.032607	1.067972	-1.106281	0.457980	0.160166	0.402642	0.053106	-0.981934	0.215576	0.226074	0.101879	0.000906	0.020122	-0.123978	0.662096	0.030615	0.738458	-44.421301	-80.214946	-122.981078
65135		10.082398	0.043567	2.250036	1.238003	-1.013543	0.393155	0.162896	0.442007	0.031356	-0.984131	0.213135	0.224121	0.100873	0.000433	0.022278	-0.124737	0.660433	0.030808	0.739810	-43.461055	-80.022755	-123.861636
65136		10.276201	0.022037	2.245778	1.166164	-1.032141	0.590142	0.199575	0.468735	0.023531	-0.986816	0.219727	0.217041	0.102814	0.000210	0.022217	-0.125592	0.658644	0.031148	0.741245	-42.438097	-79.820044	-124.784743
65137		11.500852	-0.112521	1.915161	0.643060	-1.160207	1.771364	0.269146	0.463875	0.017286	-0.986816	0.219727	0.208008	0.115053	-0.001141	0.018883	-0.126651	0.656823	0.031767	0.742653	-41.409961	-79.618717	-125.673521
65138		13.279381	-0.621992	1.332717	-0.281727	-1.065952	3.502303	0.338059	0.488121	0.031489	-0.991455	0.224121	0.200928	0.132827	-0.006221	0.012993	-0.127994	0.654866	0.032584	0.744114	-40.363293	-79.398907	-126.540992
65139		15.379029	-1.581862	1.159612	-0.966245	-0.507290	5.652439	0.345753	0.420081	0.072003	-0.989014	0.224121	0.203125	0.153820	-0.015783	0.011246	-0.129498	0.653159	0.033335	0.745320	-39.575870	-79.191382	-127.141343
65140		15.361082	-2.233156	2.857151	0.461550	0.470646	5.956850	0.147412	0.360943	0.086445	-0.991211	0.219727	0.194580	0.153672	-0.022286	0.028278	-0.130401	0.651799	0.033344	0.746352	-39.069102	-79.003778	-127.571298
65141		14.525216	-2.301164	4.897796	2.447728	1.086693	5.454692	0.084015	0.506871	0.045776	-0.995605	0.217285	0.183350	0.145381	-0.022999	0.048600	-0.130967	0.649927	0.033148	0.747893	-38.260344	-78.764325	-128.347054
65142		14.114755	-2.179776	2.845982	0.478968	0.562619	4.731416	0.202577	0.473959	0.004049	-0.995605	0.217285	0.181152	0.141215	-0.021823	0.028103	-0.131755	0.648088	0.033556	0.749331	-37.378882	-78.552413	-129.127975
65143		12.325941	-1.948347	1.570543	-0.523782	0.325611	2.749596	0.156657	0.322806	-0.062045	-0.995850	0.221680	0.187744	0.123278	-0.019534	0.015491	-0.132121	0.646832	0.034101	0.750327	-36.658841	-78.430166	-129.771787
65144		12.223289	-2.698590	0.567787	-1.684993	0.845642	2.575179	0.228460	0.068174	-0.109015	-0.993408	0.219482	0.185547	0.122220	-0.027059	0.005605	-0.132499	0.646474	0.035240	0.750516	-36.223353	-78.440181	-130.083056
65145		12.294042	-3.382086	-0.656800	-3.048716	1.228086	2.524674	0.362414	-0.045523	-0.117788	-0.995850	0.221680	0.183105	0.122922	-0.033881	-0.006601	-0.133257	0.646451	0.036981	0.750317	-35.879033	-78.505201	-130.223138
65146		11.959440	-3.800866	-1.130232	-3.570949	1.581873	2.166386	0.340481	-0.038564	-0.105069	-0.997803	0.219482	0.176514	0.119577	-0.038052	-0.011344	-0.133992	0.646417	0.038597	0.750134	-35.561816	-78.562801	-130.348083
65147		11.497019	-4.278343	-0.857284	-3.382610	2.176716	1.808002	0.253776	0.088749	-0.065145	-1.000244	0.221680	0.183105	0.114952	-0.042810	-0.008678	-0.134622	0.645970	0.039671	0.750351	-35.176441	-78.547290	-130.593519
65148		11.072365	-4.431976	0.062192	-2.503601	2.599405	1.554748	0.173375	0.124038	0.011137	-1.000488	0.226074	0.185303	0.110726	-0.044314	0.000515	-0.135285	0.645459	0.040175	0.750644	-34.957141	-78.490080	-130.716253
65149		11.175862	-3.995042	1.116591	-1.401404	2.399670	1.779752	0.022932	-0.012984	0.150972	-0.998291	0.226074	0.174072	0.111788	-0.039867	0.011169	-0.135960	0.645591	0.039754	0.750431	-35.366932	-78.450736	-130.285209
65150		11.405334	-3.226446	1.596344	-0.763079	1.716148	1.998848	-0.031256	-0.070963	0.267665	-0.996094	0.228271	0.180664	0.114091	-0.032109	0.016009	-0.136888	0.646001	0.038794	0.749960	-36.164393	-78.398549	-129.489661
65151		11.469870	-2.606889	1.626614	-0.566960	1.087200	1.998160	-0.053531	-0.042866	0.293469	-0.996338	0.235107	0.180176	0.114733	-0.025896	0.016298	-0.137843	0.646323	0.037646	0.749566	-36.976914	-78.322202	-128.691992
65152		11.175861	-2.118007	1.522269	-0.484701	0.609671	1.637046	-0.066861	-0.122198	0.268182	-0.996582	0.239502	0.186523	0.111778	-0.021025	0.015298	-0.138649	0.646946	0.036586	0.748931	-37.866563	-78.288524	-127.822761
65153		10.730966	-1.341745	1.543114	-0.187575	-0.082014	1.109453	-0.000639	-0.149359	0.217851	-0.994385	0.241699	0.181885	0.107313	-0.013301	0.015511	-0.139472	0.647614	0.035953	0.748232	-38.650595	-78.282212	-127.023023
65154		10.109428	-0.600968	1.361953	-0.080156	-0.747311	0.378079	0.208255	-0.056737	0.110007	-0.994629	0.246338	0.179443	0.101094	-0.005968	0.013642	-0.140589	0.647770	0.036390	0.747867	-38.923015	-78.271865	-126.622917
65155		9.440766	-0.398876	1.027716	-0.266179	-0.914644	-0.355630	0.393235	0.062157	0.014595	-0.991943	0.239502	0.182129	0.094411	-0.004002	0.010240	-0.141965	0.647330	0.037741	0.747921	-38.677179	-78.242543	-126.644482
65156		8.751307	-0.637034	0.881701	-0.393934	-0.606571	-1.023748	0.471851	0.115483	-0.059991	-0.989990	0.244141	0.184082	0.087516	-0.006417	0.008751	-0.143330	0.646620	0.039592	0.748179	-38.136518	-78.215908	-126.920527
65157		8.107017	-0.854954	0.943223	-0.327722	-0.269882	-1.617319	0.480815	0.101547	-0.135109	-0.992188	0.246338	0.181641	0.081069	-0.008627	0.009370	-0.144435	0.645935	0.041726	0.748442	-37.451759	-78.221244	-127.339203
65158		7.665840	-1.127143	1.103264	-0.206168	0.114830	-1.989835	0.448791	0.033788	-0.177390	-0.992432	0.248535	0.179199	0.076650	-0.011364	0.010994	-0.145269	0.645516	0.043929	0.748516	-36.805337	-78.271346	-127.736742
65159		7.305304	-1.288574	1.153828	-0.167403	0.355362	-2.315697	0.450214	0.009028	-0.184287	-0.989746	0.237305	0.179932	0.073042	-0.012979	0.011506	-0.146070	0.645181	0.046174	0.748514	-36.177454	-78.334111	-128.115113
65160		7.163798	-1.374041	1.159053	-0.177506	0.476905	-2.444349	0.450094	-0.013008	-0.188733	-0.989990	0.246338	0.172607	0.071624	-0.013834	0.011564	-0.146852	0.644927	0.048452	0.748436	-35.571500	-78.407953	-128.470435
65161		6.947154	-1.345418	1.218095	-0.093294	0.514935	-2.651475	0.442654	-0.043262	-0.161794	-0.996582	0.241699	0.184326	0.069458	-0.013537	0.012166	-0.147699	0.644791	0.050634	0.748241	-35.073182	-78.486134	-128.720787
65162		6.895392	-1.339690	1.239416	-0.067392	0.538317	-2.700514	0.426508	-0.132610	-0.139315	-0.989746	0.241943	0.175293	0.068936	-0.013471	0.012411	-0.148560	0.645006	0.052752	0.747739	-34.777790	-78.598713	-128.772671
65163		7.024897	-1.422596	1.342666	-0.007113	0.640091	-2.548672	0.419168	-0.176150	-0.113366	-0.994141	0.239502	0.184326	0.070229	-0.014294	0.013459	-0.149477	0.645391	0.054787	0.747078	-34.613823	-78.723146	-128.695551
65164		6.944854	-1.464713	1.457803	0.102844	0.736952	-2.605199	0.379349	-0.141405	-0.072159	-0.989990	0.244141	0.179688	0.069433	-0.014700	0.014599	-0.150432	0.645686	0.056518	0.746502	-34.514768	-78.817995	-128.574932
65165		6.829765	-1.493956	1.470125	0.121889	0.794539	-2.713905	0.353263	-0.107376	-0.020690	-0.994629	0.246338	0.179443	0.068288	-0.014973	0.014711	-0.151499	0.645883	0.057956	0.746005	-34.496518	-78.879925	-128.387829
65166		6.873682	-1.435812	1.569186	0.230283	0.766267	-2.662078	0.322857	-0.110795	0.017459	-0.997070	0.252930	0.181396	0.068729	-0.014377	0.015707	-0.152617	0.646127	0.059164	0.745472	-34.596425	-78.931111	-128.097220
65167		7.058064	-1.346570	1.626248	0.293270	0.673231	-2.482274	0.285448	-0.100759	0.051043	-0.994629	0.248535	0.186035	0.070576	-0.013471	0.016279	-0.153734	0.646368	0.060112	0.744957	-34.781732	-78.966417	-127.742367
65168		7.226495	-1.283756	1.555179	0.229634	0.567649	-2.335129	0.247733	-0.064396	0.083103	-0.994629	0.246338	0.183838	0.072265	-0.012827	0.015559	-0.154868	0.646513	0.060792	0.744541	-35.008712	-78.973929	-127.366114
65169		7.340375	-1.287409	1.754388	0.406432	0.608585	-2.191609	0.216391	-0.039082	0.105621	-0.997070	0.255127	0.181152	0.073407	-0.012854	0.017544	-0.155982	0.646592	0.061259	0.744202	-35.262457	-78.961808	-126.981869
65170		7.342545	-1.123566	1.941049	0.635895	0.503018	-2.178184	0.153845	-0.012623	0.119358	-1.001709	0.257324	0.181152	0.073431	-0.011207	0.019406	-0.156961	0.646626	0.061431	0.743952	-35.541040	-78.932457	-126.607976
65171		7.345937	-0.948396	2.055344	0.801047	0.364359	-2.176442	0.084072	-0.010168	0.114821	-0.997070	0.255127	0.178955	0.073464	-0.009450	0.020553	-0.157691	0.646702	0.061353	0.743738	-35.840745	-78.903093	-126.254087
65172		7.445961	-0.769649	2.136530	0.927403	0.198121	-2.086102	0.016117	-0.045882	0.090733	-0.997070	0.255127	0.183350	0.074458	-0.007664	0.021382	-0.158109	0.646958	0.061133	0.743445	-36.184336	-78.897943	-125.894152
65173		7.566456	-0.779278	2.290047	1.063265	0.229195	-1.943775	-0.032086	-0.073255	0.063341	-0.997559	0.261719	0.183105	0.075659	-0.007765	0.022929	-0.158253	0.647344	0.060839	0.743102	-36.536600	-78.914382	-125.554509
65174		7.751893	-0.848186	2.440873	1.172074	0.306591	-1.731761	-0.068627	-0.072964	0.034385	-0.997314	0.257324	0.183350	0.077511	-0.008460	0.024440	-0.158178	0.647750	0.060507	0.742791	-36.844397	-78.940172	-125.280601
65175		7.803807	-0.826282	2.382130	1.126182	0.259033	-1.693494	-0.083732	-0.063710	0.001494	-0.990723	0.261963	0.180664	0.078031	-0.008252	0.023850	-0.157928	0.648122	0.060214	0.742543	-37.066732	-78.972865	-125.103546
65176		7.857729	-0.877634	2.244856	0.981976	0.258836	-1.656570	-0.105029	-0.053855	-0.024927	-0.992920	0.259766	0.178711	0.078570	-0.008774	0.022474	-0.157522	0.648467	0.059925	0.742352	-37.224456	-79.009950	-125.003710
65177		7.967637	-1.005059	2.077502	0.779405	0.315282	-1.560263	-0.123873	-0.068734	-0.061579	-0.995117	0.257324	0.187744	0.079666	-0.010062	0.020809	-0.156905	0.648870	0.059691	0.742149	-37.332605	-79.066631	-124.966438
65178		8.355172	-1.262081	1.995805	0.588275	0.479109	-1.163447	-0.131765	-0.079392	-0.087353	-0.999512	0.255127	0.185791	0.083538	-0.012644	0.020000	-0.156172	0.649310	0.059525	0.741932	-37.405619	-79.136970	-124.968534
65179		8.938098	-1.536821	1.952673	0.407357	0.644083	-0.566956	-0.130917	-0.064509	-0.115000	-0.995117	0.257324	0.187744	0.089366	-0.015407	0.019566	-0.155335	0.649686	0.059435	0.741786	-37.384034	-79.210302	-125.067474
65180		9.447408	-1.791913	2.027451	0.351074	0.839221	-0.027623	-0.134140	-0.045808	-0.136527	-0.999512	0.255127	0.185791	0.094457	-0.017970	0.020308	-0.154422	0.649989	0.059393	0.741715	-37.278617	-79.282449	-125.252677
65181		9.966292	-2.012562	2.060433	0.261953	0.990873	0.510698	-0.134645	0.004167	-0.161280	-1.001221	0.243896	0.186279	0.099647	-0.020192	0.020616	-0.153421	0.650098	0.059387	0.741827	-37.018341	-79.340349	-125.596651
65182		10.395765	-2.077920	2.133604	0.261898	1.022402	0.949656	-0.136550	0.070068	-0.180197	-0.994385	0.244141	0.188477	0.103946	-0.020858	0.021314	-0.152370	0.649958	0.059387	0.742167	-36.590063	-79.373999	-126.111936
65183		10.603789	-2.105969	2.382665	0.457319	1.102196	1.193154	-0.160699	0.122286	-0.191952	-0.998779	0.241699	0.193115	0.106032	-0.021142	0.023779	-0.151205	0.649638	0.059294	0.742692	-36.048729	-79.386849	-126.756976
65184		10.841043	-2.005739	2.504313	0.561839	1.018013	1.433234	-0.168808	0.178076	-0.186392	-1.005615	0.239502	0.188965	0.108414	-0.020137	0.024964	-0.150056	0.649118	0.059111	0.743395	-35.426843	-79.370640	-127.488265
65185		11.376810	-1.969683	2.376406	0.370086	0.878460	1.936782	-0.176024	0.232185	-0.184028	-1.000977	0.239502	0.184326	0.113777	-0.019781	0.023649	-0.148903	0.648401	0.058852	0.744272	-34.722245	-79.326761	-128.308432
65186		11.957986	-1.895214	2.389451	0.308944	0.734231	2.502348	-0.187065	0.295764	-0.179685	-1.010010	0.237061	0.184570	0.119598	-0.019037	0.023735	-0.147754	0.647454	0.058491	0.745353	-33.934995	-79.249319	-129.218869
65187		12.983867	-1.983768	2.140687	-0.112010	0.606917	3.480831	-0.191147	0.344592	-0.184670	-1.010010	0.237061	0.182373	0.129857	-0.019937	0.021202	-0.146581	0.646325	0.058094	0.746594	-33.069199	-79.147793	-130.212369
65188		14.968729	-2.136894	1.808005	-0.759052	0.382647	5.391761	-0.218467	0.338724	-0.185648	-1.014160	0.232422	0.189453	0.149698	-0.021488	0.017850	-0.145320	0.645235	0.057603	0.747821	-32.244374	-79.046553	-131.179963
65189		14.269143	-1.573125	3.109889	0.692778	0.308307	4.856311	-0.370834	0.196906	-0.152713	-1.011963	0.232422	0.180420	0.142710	-0.015783	0.030988	-0.143643	0.644792	0.056538	0.748608	-31.822595	-79.002314	-131.826627
65190		12.633015	-0.957165	4.104120	2.005137	0.225458	3.350960	-0.300198	0.123839	-0.165610	-1.011475	0.219238	0.183350	0.126348	-0.009615	0.040977	-0.142129	0.644566	0.055831	0.749144	-31.445492	-78.996718	-132.386305
65191		13.038337	-0.784393	1.997052	-0.011522	-0.546013	3.389714	-0.100277	0.066101	-0.213665	-1.018311	0.223389	0.178711	0.130381	-0.007973	0.019931	-0.141059	0.644399	0.056069	0.749472	-30.918709	-79.032855	-132.982042
65192		13.300931	-1.061310	1.132987	-0.944864	-0.524792	3.534843	-0.197950	-0.108138	-0.181211	-1.011475	0.221436	0.185547	0.132993	-0.010722	0.011412	-0.139747	0.644962	0.055957	0.749242	-30.791862	-79.144476	-133.227349
65193		13.148229	-1.024650	1.710534	-0.355991	-0.366209	3.476064	-0.133342	-0.053004	-0.126473	-1.016113	0.223633	0.180908	0.131471	-0.010318	0.017147	-0.138863	0.645288	0.055874	0.749132	-30.680608	-79.212852	-133.418995
65194		11.950979	-0.476770	1.313311	-0.438232	-0.821336	2.183614	0.054642	0.252215	-0.113889	-1.011475	0.219238	0.181152	0.119523	-0.004839	0.012981	-0.138722	0.644343	0.056243	0.749944	-30.031163	-79.126376	-134.048623
65195		10.696961	-0.094991	0.598992	-0.884881	-1.203365	0.796812	0.040470	0.453526	-0.100053	-1.015869	0.218994	0.172119	0.106982	-0.001005	0.005747	-0.138639	0.642654	0.056373	0.751397	-29.144508	-78.934161	-134.928754
65196		9.928965	-0.017205	0.072006	-1.304600	-1.316593	-0.057983	-0.113352	0.453052	-0.068884	-1.024658	0.214355	0.170410	0.099291	-0.000206	0.000495	-0.138181	0.641079	0.055827	0.752866	-28.456003	-78.731254	-135.697025
65197		9.725597	0.062231	0.213568	-1.150717	-1.332358	-0.245172	-0.202567	0.223381	-0.038884	-1.015869	0.216797	0.174561	0.097258	0.000605	0.002026	-0.137483	0.640436	0.055006	0.753601	-28.223818	-78.634865	-136.052773
65198		9.886606	0.409047	0.669260	-0.645972	-1.568670	-0.041189	-0.299494	-0.160066	-0.004246	-1.010986	0.212402	0.174805	0.098861	0.004098	0.006766	-0.136501	0.641314	0.053973	0.753108	-28.657110	-78.722394	-135.786344
65199		10.220187	0.745355	0.850438	-0.399288	-1.886001	0.287534	-0.378283	-0.409341	0.014777	-1.010986	0.208008	0.181885	0.102184	0.007477	0.008699	-0.135268	0.643184	0.052751	0.751820	-29.543105	-78.928753	-135.104752
65200		10.427015	1.067476	0.726782	-0.414427	-2.247293	0.442463	-0.400533	-0.468084	0.002849	-1.013184	0.205811	0.190918	0.104253	0.010691	0.007490	-0.133902	0.645283	0.051523	0.750350	-30.530267	-79.165628	-134.333634
65201		10.756635	1.121487	0.626304	-0.492281	-2.358674	0.749003	-0.453329	-0.490715	-0.028655	-1.013184	0.205811	0.193115	0.107552	0.011214	0.006502	-0.132240	0.647486	0.050214	0.748835	-31.540001	-79.420190	-133.570947
65202		11.356637	0.444129	0.496915	-0.822565	-1.805796	1.389083	-0.461945	-0.443198	-0.070623	-1.008545	0.205811	0.197754	0.113557	0.004413	0.005211	-0.130402	0.649500	0.048976	0.747494	-32.407177	-79.662274	-132.959050
65203		11.807437	-0.506050	0.609395	-0.973633	-0.907242	1.946218	-0.416422	-0.304701	-0.099117	-1.001953	0.208252	0.199707	0.118062	-0.005106	0.006284	-0.128639	0.650952	0.047910	0.746604	-32.964090	-79.844745	-132.636164
65204		11.630626	-1.206066	0.996146	-0.729410	-0.103412	1.899511	-0.385990	-0.160929	-0.095989	-1.010498	0.194824	0.207275	0.116292	-0.012097	0.010078	-0.127022	0.651847	0.046857	0.746167	-33.272379	-79.957002	-132.548052
65205		11.126793	-1.449742	1.358582	-0.365607	0.288689	1.480497	-0.352935	-0.037771	-0.051219	-1.006104	0.197021	0.207275	0.111262	-0.014502	0.013632	-0.125707	0.652267	0.045700	0.746094	-33.466164	-79.995953	-132.557208
65206		10.459509	-1.340942	1.363536	-0.246749	0.268928	0.813953	-0.363104	0.017630	0.003811	-1.008301	0.199219	0.207031	0.104597	-0.013383	0.013650	-0.124574	0.652500	0.044291	0.746166	-33.716262	-79.991320	-132.515414
65207		9.954974	-1.183421	1.236867	-0.264482	0.144033	0.283903	-0.434919	0.030382	0.065153	-1.003906	0.203857	0.204590	0.099555	-0.011775	0.012379	-0.123440	0.652739	0.042407	0.746255	-34.148845	-79.960667	-132.329771
65208		9.539264	-0.987947	1.306541	-0.093479	0.010455	-0.134269	-0.471418	0.007501	0.110639	-1.001221	0.192871	0.216309	0.095399	-0.009796	0.013085	-0.122352	0.653093	0.040252	0.746243	-34.763885	-79.925979	-131.979911
65209		9.270034	-0.827819	1.393705	0.071451	-0.108161	-0.402885	-0.497596	-0.034242	0.155328	-1.003906	0.203857	0.211182	0.092704	-0.008171	0.013973	-0.121336	0.653622	0.037878	0.746070	-35.584611	-79.895134	-131.436465
65210		8.933955	-0.700325	1.512485	0.270047	-0.182496	-0.730434	-0.538718	-0.070438	0.175849	-1.001709	0.199463	0.216064	0.089340	-0.006884	0.015175	-0.120252	0.654313	0.035306	0.745767	-36.547271	-79.872938	-130.772875
65211		8.446452	-0.611607	1.609956	0.458081	-0.204570	-1.207060	-0.538940	-0.100041	0.181692	-0.997314	0.206299	0.217773	0.084462	-0.005996	0.016158	-0.119185	0.655107	0.032731	0.745358	-37.577902	-79.859953	-130.040188
65212		7.981418	-0.519548	1.539495	0.481555	-0.266223	-1.686176	-0.533026	-0.123564	0.181142	-0.999512	0.204102	0.222412	0.079809	-0.005082	0.015458	-0.118130	0.655981	0.030194	0.744864	-38.649174	-79.855639	-129.262684
65213		7.651606	-0.507116	1.455854	0.459603	-0.269095	-2.025515	-0.526453	-0.157853	0.179172	-0.992920	0.206299	0.222168	0.076509	-0.004964	0.014632	-0.117083	0.656972	0.027708	0.744253	-39.779790	-79.864401	-128.421143
65214		7.403625	-0.519967	1.423663	0.473600	-0.246372	-2.274399	-0.482150	-0.176891	0.182313	-0.990967	0.210938	0.230957	0.074028	-0.005098	0.014314	-0.116191	0.658004	0.025388	0.743563	-40.934990	-79.877570	-127.528740
65215		7.260973	-0.539220	1.348065	0.431556	-0.238141	-2.424402	-0.417301	-0.168746	0.165370	-0.992920	0.206299	0.235840	0.072603	-0.005304	0.013553	-0.115448	0.658960	0.023359	0.742898	-41.996310	-79.890418	-126.694126
65216		6.977943	-0.594973	1.312256	0.433545	-0.164634	-2.702653	-0.355575	-0.159057	0.153987	-0.995361	0.208496	0.233398	0.069773	-0.005873	0.013189	-0.114868	0.659841	0.021592	0.742259	-42.977826	-79.901214	-125.904502
65217		6.818499	-0.733816	1.346341	0.472487	-0.012577	-2.839910	-0.313100	-0.152448	0.131166	-0.989014	0.217773	0.237305	0.068179	-0.007272	0.013527	-0.114343	0.660667	0.020053	0.741649	-43.867420	-79.915738	-125.183734
65218		6.688700	-0.860806	1.129338	0.264783	0.079973	-2.980516	-0.281170	-0.137869	0.128500	-0.986572	0.213379	0.241943	0.066885	-0.008549	0.011352	-0.113917	0.661419	0.018635	0.741081	-44.702955	-79.923602	-124.498933
65219		6.648284	-1.117858	1.230864	0.332654	0.344124	-2.976372	-0.250129	-0.118505	0.131164	-0.990967	0.215332	0.244141	0.066483	-0.011120	0.012362	-0.113602	0.662078	0.017310	0.740572	-45.482025	-79.920711	-123.853806
65220		6.625935	-1.204287	1.342506	0.441082	0.440482	-2.974044	-0.229217	-0.108219	0.146083	-0.990967	0.215332	0.244141	0.066261	-0.011979	0.013475	-0.113415	0.662689	0.016009	0.740084	-46.259343	-79.906228	-123.197946
65221		6.808712	-1.018774	1.164725	0.297851	0.190404	-2.839306	-0.181572	-0.104446	0.165971	-0.991211	0.217529	0.239502	0.068089	-0.010121	0.011692	-0.113457	0.663257	0.014815	0.739593	-47.040544	-79.880237	-122.510698
65222		6.839640	-0.996680	1.091140	0.238618	0.139482	-2.820676	-0.126470	-0.081520	0.169674	-0.982178	0.219971	0.243896	0.068400	-0.009902	0.010946	-0.113699	0.663710	0.013801	0.739169	-47.740864	-79.842339	-121.873117
65223		6.981742	-0.948328	1.232156	0.382119	0.082780	-2.670603	-0.098856	-0.066615	0.175453	-0.982666	0.226807	0.245605	0.069822	-0.009416	0.012349	-0.114052	0.664090	0.012859	0.738790	-48.396244	-79.794844	-121.265392
65224		7.121012	-0.901005	1.119264	0.275320	-0.016327	-2.553398	-0.031838	-0.031125	0.170972	-0.977783	0.222412	0.250488	0.071216	-0.008947	0.011205	-0.114619	0.664301	0.012163	0.738525	-48.914496	-79.734796	-120.757250
65225		7.252063	-0.628584	1.062695	0.262648	-0.323242	-2.468072	0.019890	0.014677	0.152720	-0.980225	0.226807	0.245605	0.072526	-0.006232	0.010621	-0.115288	0.664310	0.011688	0.738420	-49.249467	-79.664744	-120.405802
65226		7.724245	-0.416333	1.058479	0.256607	-0.614901	-2.033631	0.055030	0.029109	0.140202	-0.980225	0.226807	0.247803	0.077247	-0.004112	0.010572	-0.116032	0.664246	0.011380	0.738366	-49.501177	-79.594531	-120.117950
65227		8.185848	-0.370456	0.961126	0.127946	-0.758709	-1.598243	0.113753	0.047223	0.116213	-0.980225	0.226807	0.245605	0.081863	-0.003662	0.009590	-0.116879	0.664078	0.011355	0.738384	-49.623798	-79.527781	-119.927588
65228		8.723426	-0.399175	1.100305	0.205590	-0.800803	-1.050005	0.141935	0.113906	0.090146	-0.982666	0.226807	0.243408	0.087242	-0.003960	0.010951	-0.117731	0.663646	0.011484	0.738635	-49.520631	-79.447735	-119.949949
65229		9.041992	-0.473888	1.333144	0.378438	-0.746577	-0.699025	0.174371	0.190049	0.061990	-0.982910	0.233398	0.236328	0.090434	-0.004722	0.013241	-0.118587	0.662910	0.011779	0.739154	-49.167093	-79.351369	-120.208577
65230		9.490067	-0.436543	1.522199	0.510462	-0.827938	-0.240700	0.195337	0.232875	0.034378	-0.982666	0.231201	0.238770	0.094919	-0.004364	0.015107	-0.119416	0.662001	0.012221	0.739827	-48.655129	-79.250538	-120.615756
65231		9.936345	-0.524779	1.839179	0.737294	-0.762540	0.250304	0.182632	0.264423	0.002932	-0.982422	0.226807	0.234375	0.099388	-0.005263	0.018256	-0.120086	0.660980	0.012697	0.740624	-48.025726	-79.150309	-121.150573
65232		10.231309	-0.662349	2.169108	0.976571	-0.621441	0.602852	0.140561	0.286131	-0.004926	-0.982666	0.229004	0.234375	0.102344	-0.006641	0.021540	-0.120590	0.659901	0.013034	0.741498	-47.367976	-79.044073	-121.738618
65233		10.452920	-0.732054	2.410604	1.146612	-0.549332	0.864104	0.120657	0.294127	-0.027672	-0.980469	0.231201	0.222900	0.104563	-0.007349	0.023948	-0.120943	0.658802	0.013364	0.742411	-46.670741	-78.942785	-122.379086
65234		10.465450	-0.658236	2.760376	1.470016	-0.561810	0.915869	0.099736	0.297987	-0.039694	-0.984863	0.226563	0.223145	0.104694	-0.006617	0.027444	-0.121184	0.657698	0.013657	0.743344	-45.965090	-78.843588	-123.040101
65235		10.663010	-0.486412	2.853903	1.542812	-0.743285	1.102820	0.130430	0.293612	-0.060936	-0.989258	0.224365	0.221191	0.106670	-0.004915	0.028379	-0.121445	0.656589	0.014133	0.744273	-45.220126	-78.753108	-123.723945
65236		11.554333	-0.485621	2.354198	0.925321	-0.975573	1.912183	0.206601	0.308543	-0.073718	-0.982666	0.230957	0.216309	0.115578	-0.004923	0.023359	-0.121908	0.655376	0.014928	0.745250	-44.386453	-78.660056	-124.453767
65237		13.258643	-0.891278	1.787419	0.064994	-0.958152	3.561109	0.221515	0.276389	-0.058530	-0.987061	0.226563	0.216553	0.132608	-0.008971	0.017681	-0.122475	0.654272	0.015746	0.746110	-43.651892	-78.572101	-125.074199
65238		14.931461	-1.509461	2.766124	0.664712	-0.448313	5.426588	0.139874	0.218999	-0.039857	-0.991699	0.228516	0.211914	0.149342	-0.015144	0.027487	-0.122841	0.653433	0.016237	0.746775	-43.122399	-78.499491	-125.532843
65239		14.079022	-1.978001	4.075473	1.905785	0.390994	4.848684	0.071946	0.235899	-0.107513	-0.984619	0.226563	0.207520	0.140827	-0.019870	0.040582	-0.122732	0.652565	0.016681	0.747541	-42.466985	-78.445029	-126.160275
65240		12.700361	-1.859691	2.574597	0.598072	0.235923	3.262964	0.223938	0.247220	-0.183808	-0.991211	0.221924	0.210205	0.127018	-0.018742	0.025568	-0.122835	0.651554	0.017939	0.748376	-41.549745	-78.413395	-126.965754
65241		12.065016	-1.822076	1.664141	-0.227513	0.151248	2.499065	0.047013	0.094735	-0.189034	-0.986816	0.224121	0.205566	0.120641	-0.018339	0.016580	-0.122328	0.651220	0.018642	0.748733	-41.007341	-78.447234	-127.492508
65242		11.952331	-2.298355	1.496708	-0.483632	0.621663	2.424974	0.021591	0.000130	-0.209694	-0.993408	0.219727	0.214844	0.119499	-0.023110	0.014965	-0.121651	0.651254	0.019378	0.748795	-40.604507	-78.529106	-127.891323
65243		12.011494	-2.663265	0.810516	-1.236405	0.864086	2.424570	0.115427	-0.010408	-0.241061	-0.995605	0.217285	0.208252	0.120082	-0.026782	0.008096	-0.121161	0.651266	0.020571	0.748832	-40.094019	-78.626438	-128.345250
65244		11.151279	-2.776068	0.668731	-1.300056	1.107743	1.570961	0.113965	0.043730	-0.257527	-0.995605	0.215088	0.203857	0.111478	-0.027908	0.006647	-0.120610	0.651073	0.021781	0.749054	-39.440078	-78.705230	-128.946106
65245		10.369968	-2.712588	0.620226	-1.251193	1.182474	0.785201	0.192071	0.079406	-0.268913	-0.997803	0.215088	0.199219	0.103666	-0.027271	0.006135	-0.120274	0.650697	0.023297	0.749389	-38.643123	-78.770570	-129.647095
65246		9.808865	-2.481097	0.510558	-1.254760	1.046675	0.185328	0.243462	0.063402	-0.277060	-0.995605	0.215088	0.206055	0.098056	-0.024953	0.005044	-0.120074	0.650347	0.025044	0.749669	-37.817082	-78.844122	-130.347294
65247		9.408758	-2.819945	0.750465	-1.057147	1.506507	-0.135249	0.236969	0.012484	-0.279325	-0.997559	0.208496	0.204102	0.094049	-0.028340	0.007465	-0.119836	0.650190	0.026802	0.749783	-37.070225	-78.939689	-130.970638
65248		9.168764	-3.191710	0.922059	-0.946630	1.960956	-0.306798	0.230316	-0.091683	-0.248946	-0.999512	0.206055	0.202148	0.091644	-0.032042	0.009226	-0.119677	0.650429	0.028501	0.749538	-36.571050	-79.071401	-131.345105
65249		9.186234	-3.082015	0.839381	-0.992951	1.859894	-0.318214	0.125421	-0.344179	-0.184805	-0.999756	0.210693	0.204102	0.091819	-0.030910	0.008532	-0.119381	0.651684	0.029747	0.748446	-36.730238	-79.296919	-131.110472
65250		9.926611	-2.678005	0.612129	-1.175840	1.342968	0.331158	0.085393	-0.583980	-0.129286	-0.992920	0.208496	0.213135	0.099230	-0.026847	0.006400	-0.119126	0.653864	0.030807	0.746540	-37.509939	-79.612467	-130.267983
65251		10.900455	-2.301844	0.534098	-1.222509	0.855069	1.240709	0.132138	-0.667379	-0.131821	-0.997314	0.206299	0.219971	0.108971	-0.023094	0.005689	-0.118999	0.656319	0.032097	0.744348	-38.474080	-79.964160	-129.211994
65252		11.675727	-2.380513	0.777810	-1.022076	0.908040	2.050061	0.195501	-0.639862	-0.162033	-0.999756	0.206299	0.219971	0.116712	-0.023908	0.008128	-0.118973	0.658622	0.033707	0.742244	-39.337754	-80.311472	-128.222021
65253		11.758625	-2.551854	0.538549	-1.242889	1.047369	2.121517	0.329651	-0.516491	-0.176770	-0.995361	0.213135	0.230957	0.117549	-0.025632	0.005647	-0.119351	0.660377	0.035789	0.740524	-39.875887	-80.607553	-127.485410
65254		11.599955	-2.148302	0.395710	-1.236572	0.677560	1.906631	0.527356	-0.372135	-0.179382	-1.000000	0.212891	0.226318	0.115973	-0.021598	0.004116	-0.120401	0.661472	0.038526	0.739239	-40.001069	-80.840406	-127.052497
65255		11.081636	-1.841051	0.584840	-0.915359	0.513268	1.386990	0.676059	-0.205698	-0.170069	-0.997559	0.210693	0.230957	0.110795	-0.018525	0.005900	-0.122004	0.661856	0.041680	0.738461	-39.690474	-80.996790	-126.975355
65256		10.325286	-1.494891	0.688545	-0.657983	0.319655	0.617325	0.763264	-0.154641	-0.170444	-0.995361	0.210693	0.226563	0.103235	-0.015063	0.006908	-0.123909	0.661988	0.045128	0.737823	-39.206161	-81.130658	-127.022802
65257		9.707585	-1.299722	0.695323	-0.543453	0.231584	-0.011619	0.789552	-0.193720	-0.166975	-1.000244	0.217285	0.223877	0.097058	-0.013106	0.006996	-0.125897	0.662237	0.048682	0.737036	-38.799169	-81.280756	-126.977464
65258		9.333601	-1.265305	0.741109	-0.448740	0.276867	-0.379328	0.780713	-0.253966	-0.147339	-0.995605	0.217529	0.235107	0.093317	-0.012751	0.007480	-0.127919	0.662707	0.052179	0.736025	-38.593863	-81.450518	-126.732336
65259		9.065849	-1.083004	0.932223	-0.180804	0.202766	-0.638937	0.761951	-0.305413	-0.126435	-0.995605	0.215332	0.235107	0.090637	-0.010923	0.009419	-0.129932	0.663373	0.055566	0.734824	-38.587841	-81.636195	-126.297650
65260		8.706578	-0.965915	0.996490	-0.038575	0.170806	-0.997941	0.725123	-0.357825	-0.101252	-0.997803	0.215332	0.235107	0.087043	-0.009740	0.010085	-0.131907	0.664251	0.058770	0.733428	-38.825114	-81.836003	-125.637776
65261		8.404385	-0.868198	1.178179	0.208848	0.181193	-1.286314	0.702706	-0.376336	-0.087123	-0.995850	0.224121	0.236816	0.084018	-0.008760	0.011909	-0.133843	0.665205	0.061854	0.731958	-39.187962	-82.038614	-124.865256
65262		8.158849	-0.744894	1.224747	0.327269	0.124124	-1.536268	0.691608	-0.317845	-0.071226	-0.991455	0.226563	0.236816	0.081566	-0.007521	0.012351	-0.135826	0.665946	0.064807	0.730662	-39.483632	-82.208598	-124.166273
65263		7.724782	-0.781115	0.927718	0.080536	0.141788	-1.994986	0.697292	-0.233807	-0.050747	-0.993652	0.221924	0.239258	0.077235	-0.007863	0.009340	-0.137919	0.666374	0.067652	0.729621	-39.632581	-82.333920	-123.613366
65264		7.591504	-0.535473	0.931679	0.176384	-0.064342	-2.147805	0.681839	-0.202432	-0.023971	-0.996094	0.228760	0.241211	0.075905	-0.005396	0.009375	-0.140078	0.666697	0.070332	0.728660	-39.806426	-82.434978	-123.043150
65265		7.480619	-0.474293	1.090434	0.364261	-0.053431	-2.247101	0.649746	-0.201820	-0.012637	-0.996338	0.235352	0.240723	0.074795	-0.004783	0.010964	-0.142159	0.667038	0.072853	0.727698	-40.042088	-82.531754	-122.430531
65266		7.291169	-0.385720	1.041203	0.368617	-0.121013	-2.447670	0.619075	-0.200464	-0.001681	-0.998535	0.230957	0.240967	0.072901	-0.003890	0.010473	-0.144190	0.667390	0.075228	0.726733	-40.343211	-82.623000	-121.768228
65267		7.216713	-0.303662	1.044397	0.413866	-0.180517	-2.528456	0.547087	-0.202087	0.009023	-0.996582	0.237549	0.240479	0.072157	-0.003062	0.010509	-0.146003	0.667799	0.077302	0.725777	-40.735174	-82.710961	-121.057578
65268		7.257160	-0.383801	1.098737	0.449719	-0.084642	-2.477057	0.482364	-0.198800	0.022515	-0.996582	0.239746	0.242676	0.072561	-0.003856	0.011050	-0.147662	0.668242	0.079097	0.724839	-41.216468	-82.791253	-120.292975
65269		7.414492	-0.499504	1.053824	0.371881	-0.000411	-2.316259	0.408784	-0.168511	0.030940	-0.994629	0.248779	0.244385	0.074137	-0.005005	0.010590	-0.149105	0.668630	0.080571	0.724024	-41.687821	-82.855025	-119.582422
65270		7.513489	-0.540611	1.042419	0.351542	0.027708	-2.216171	0.330954	-0.126040	0.042257	-0.996826	0.246582	0.251221	0.075129	-0.005408	0.010463	-0.150348	0.668925	0.081694	0.723368	-42.123177	-82.895646	-118.952657
65271		7.515106	-0.631543	1.187909	0.465583	0.160894	-2.194017	0.262757	-0.061402	0.047773	-0.992188	0.242188	0.242432	0.075149	-0.006313	0.011894	-0.151406	0.669037	0.082502	0.722952	-42.419103	-82.906243	-118.503322
65272		7.496873	-0.820693	1.019220	0.248310	0.285291	-2.211872	0.191663	-0.008664	0.051522	-1.001465	0.246338	0.246826	0.074970	-0.008197	0.010188	-0.152265	0.669013	0.083002	0.722736	-42.606329	-82.892863	-118.204065
65273		7.723628	-0.924579	0.864299	0.055556	0.304955	-1.992188	0.109419	0.015187	0.047073	-0.997070	0.248779	0.251221	0.077239	-0.009232	0.008632	-0.152838	0.668963	0.083200	0.722639	-42.748931	-82.871076	-117.997764
65274		8.071271	-1.010030	0.832440	-0.023368	0.332204	-1.642765	0.021999	0.047452	0.050185	-0.987793	0.242188	0.244873	0.080717	-0.010081	0.008304	-0.153148	0.668865	0.083048	0.722682	-42.852161	-82.834431	-117.881110
65275		8.455664	-1.051267	0.758686	-0.131002	0.298609	-1.264432	-0.023134	0.080342	0.046244	-0.994873	0.250977	0.244385	0.084562	-0.010492	0.007554	-0.153302	0.668680	0.082720	0.722858	-42.864051	-82.785521	-117.883073
65276		8.754166	-1.041517	0.790802	-0.120808	0.259428	-0.966013	-0.055060	0.143554	0.038427	-0.992432	0.246582	0.244629	0.087549	-0.010396	0.007848	-0.153351	0.668288	0.082256	0.723262	-42.677211	-82.713031	-118.103322
65277		8.850980	-1.066261	1.030370	0.078409	0.340389	-0.845169	-0.070767	0.235800	0.025119	-0.999023	0.246582	0.239990	0.088523	-0.010648	0.010203	-0.153333	0.667568	0.081706	0.723993	-42.183394	-82.606543	-118.642689
65278		9.045581	-1.164724	1.122172	0.101223	0.430114	-0.634284	-0.097707	0.294293	0.009049	-0.996826	0.244385	0.242432	0.090473	-0.011638	0.011094	-0.153195	0.666650	0.081070	0.724939	-41.500120	-82.480487	-119.388366
65279		9.462232	-1.217591	1.334096	0.232572	0.488826	-0.194837	-0.134164	0.336784	0.001012	-0.994629	0.244385	0.229004	0.094645	-0.012167	0.013190	-0.152919	0.665600	0.080293	0.726048	-40.715507	-82.337920	-120.258053
65280		9.656359	-1.260638	1.658600	0.482930	0.597892	0.035898	-0.169868	0.374322	-0.014563	-0.996826	0.244141	0.235596	0.096593	-0.012599	0.016416	-0.152486	0.664433	0.079412	0.727303	-39.832552	-82.183006	-121.247484
65281		9.864440	-1.181897	2.006160	0.789325	0.596048	0.274448	-0.204557	0.414214	-0.027849	-0.999023	0.244141	0.229004	0.098684	-0.011812	0.019869	-0.151901	0.663139	0.078416	0.728714	-38.859794	-82.013146	-122.348480
65282		10.209170	-1.131068	2.161684	0.890654	0.542084	0.632027	-0.257052	0.437586	-0.055897	-0.998779	0.239746	0.227051	0.102136	-0.011312	0.021408	-0.151051	0.661785	0.077305	0.730238	-37.815769	-81.840047	-123.551872
65283		10.820092	-1.220926	1.908230	0.533983	0.461292	1.219460	-0.333329	0.467683	-0.084896	-1.000977	0.237305	0.220459	0.108240	-0.012224	0.018850	-0.149850	0.660363	0.075987	0.731910	-36.699422	-81.660184	-124.873460
65284		12.428016	-1.492043	1.390119	-0.223812	0.353781	2.774555	-0.384651	0.499920	-0.113768	-1.000977	0.237305	0.218262	0.124306	-0.014965	0.013619	-0.148389	0.658845	0.074552	0.733721	-35.503934	-81.471272	-126.305002
65285		14.026911	-1.404372	1.124578	-0.643263	-0.009069	4.314485	-0.446969	0.464498	-0.136322	-1.014648	0.239258	0.213623	0.140285	-0.014115	0.010951	-0.146621	0.657487	0.072988	0.735449	-34.404850	-81.302311	-127.676225
65286		13.691842	-0.833863	2.603977	0.912835	-0.072567	4.119427	-0.546963	0.387379	-0.154281	-1.011963	0.230469	0.209717	0.136962	-0.008373	0.025797	-0.144454	0.656471	0.071187	0.736961	-33.513099	-81.171912	-128.892776
65287		12.436948	-0.319558	3.912339	2.386608	-0.032114	3.008744	-0.400485	0.348594	-0.209303	-1.011719	0.223633	0.207764	0.124434	-0.003248	0.038913	-0.142525	0.655468	0.070118	0.738331	-32.473038	-81.074496	-130.178276
65288		11.817757	-0.056864	2.337916	1.004052	-0.656432	2.174362	-0.169462	0.132442	-0.283493	-1.004639	0.219482	0.214844	0.118192	-0.000716	0.023301	-0.141006	0.655068	0.070299	0.738960	-31.506052	-81.101074	-131.255548
65289		11.204859	-0.185446	1.022868	-0.230081	-0.819268	1.408067	-0.308974	-0.036763	-0.245817	-1.013428	0.214844	0.210693	0.112044	-0.001976	0.010252	-0.139105	0.655403	0.069959	0.739055	-31.050434	-81.197338	-131.896409
65290		11.277605	-0.249333	0.502590	-0.746739	-0.893193	1.418684	-0.272025	-0.096328	-0.178100	-1.011230	0.212646	0.212891	0.112771	-0.002587	0.005084	-0.137557	0.655955	0.069576	0.738892	-30.894058	-81.302333	-132.212723
65291		11.114206	0.191723	-0.215428	-1.283097	-1.481558	1.131140	-0.156118	0.057884	-0.145387	-1.011230	0.214844	0.215088	0.111143	0.001835	-0.002188	-0.136561	0.655867	0.069406	0.739170	-30.475058	-81.321568	-132.727663
65292		10.633777	0.696336	-0.391019	-1.268670	-1.948777	0.594410	-0.209398	0.187995	-0.125577	-1.013428	0.214844	0.215088	0.106338	0.006892	-0.004017	-0.135513	0.655340	0.068889	0.739879	-29.906645	-81.269964	-133.424136
65293		10.127280	1.126969	0.436798	-0.323918	-2.067037	0.169550	-0.389339	0.141845	-0.116796	-1.013184	0.208008	0.208740	0.101282	0.011219	0.004274	-0.133887	0.655107	0.067705	0.740490	-29.560068	-81.238007	-134.001079
65294		10.226138	1.179819	0.768868	-0.011736	-2.030369	0.308304	-0.502352	-0.081801	-0.132449	-1.015137	0.201416	0.215820	0.102266	0.011750	0.007701	-0.131761	0.655768	0.066307	0.740412	-29.639643	-81.321723	-134.211667
65295		10.642937	1.069506	0.517887	-0.315828	-2.024349	0.698562	-0.520533	-0.255414	-0.151235	-1.010742	0.201660	0.227051	0.106431	0.010628	0.005287	-0.129442	0.657073	0.065014	0.739779	-29.993293	-81.497187	-134.156221
65296		11.191436	0.738178	0.458290	-0.493954	-1.760139	1.262553	-0.554697	-0.381585	-0.154204	-1.010742	0.201660	0.229248	0.111911	0.007309	0.004776	-0.126960	0.658859	0.063687	0.738735	-30.616058	-81.735996	-133.848300
65297		11.681780	-0.129347	0.791012	-0.419084	-0.866343	1.856931	-0.542392	-0.419432	-0.162192	-1.010498	0.197021	0.234131	0.116800	-0.001366	0.008159	-0.124473	0.660765	0.062453	0.737560	-31.310508	-81.995074	-133.461309
65298		11.982544	-0.937893	1.004522	-0.415019	-0.039061	2.241197	-0.496691	-0.319523	-0.164876	-1.010254	0.192627	0.238770	0.119801	-0.009452	0.010260	-0.122161	0.662268	0.061337	0.736692	-31.784656	-82.205771	-133.269960
65299		11.675020	-1.116623	0.797334	-0.600398	0.133957	1.926571	-0.377657	-0.184188	-0.158649	-1.005615	0.186035	0.239258	0.116734	-0.011244	0.008102	-0.120303	0.663195	0.060553	0.736229	-31.923228	-82.348408	-133.349069
65300		11.069110	-1.175095	0.797179	-0.543872	0.265026	1.330718	-0.306160	-0.055121	-0.110696	-1.003174	0.183838	0.237061	0.110682	-0.011800	0.008020	-0.118898	0.663617	0.059797	0.736138	-31.903278	-82.413950	-133.546445
65301		10.455966	-1.171382	0.890788	-0.389106	0.349098	0.733383	-0.311833	-0.009650	-0.028992	-1.005371	0.181641	0.246338	0.104558	-0.011715	0.008931	-0.117788	0.663897	0.058720	0.736151	-32.080547	-82.432440	-133.548443
65302		9.997641	-1.133543	0.960022	-0.262448	0.370129	0.284516	-0.332639	-0.035079	0.048527	-1.005371	0.183838	0.243896	0.099977	-0.011295	0.009637	-0.116886	0.664305	0.057325	0.736037	-32.612174	-82.439675	-133.204824
65303		9.635066	-0.883818	1.076459	-0.041209	0.181517	-0.079254	-0.381856	-0.090180	0.123887	-0.998779	0.184082	0.248291	0.096351	-0.008758	0.010825	-0.116082	0.664962	0.055529	0.735709	-33.575431	-82.448996	-132.454421
65304		9.286251	-0.624072	0.991783	-0.007778	-0.070349	-0.453067	-0.412193	-0.162020	0.171006	-0.996338	0.181885	0.250732	0.092860	-0.006141	0.010006	-0.115330	0.665912	0.053508	0.735117	-34.903509	-82.475376	-131.353316
65305		8.921239	-0.260841	0.932731	0.077255	-0.415739	-0.849001	-0.425545	-0.168443	0.181496	-0.991943	0.184326	0.255127	0.089207	-0.002507	0.009408	-0.114569	0.666891	0.051405	0.734498	-36.299814	-82.497616	-130.191438
65306		8.627098	-0.038646	0.899056	0.143729	-0.625096	-1.162534	-0.419770	-0.173072	0.175038	-0.991943	0.182129	0.257324	0.086263	-0.000292	0.009066	-0.113802	0.667879	0.049348	0.733861	-37.690576	-82.520736	-129.031726
65307		8.394174	0.041645	0.973897	0.273777	-0.678439	-1.393834	-0.407232	-0.152717	0.183359	-0.989746	0.184326	0.263916	0.083934	0.000513	0.009802	-0.113112	0.668782	0.047296	0.733280	-39.052873	-82.527879	-127.893666
65308		8.149455	-0.031796	0.978942	0.298434	-0.597316	-1.631791	-0.364293	-0.119043	0.183707	-0.989990	0.188721	0.263672	0.081489	-0.000225	0.009838	-0.112573	0.669536	0.045382	0.732796	-40.299363	-82.516955	-126.847543
65309		8.002491	-0.281567	0.894694	0.186972	-0.373807	-1.766266	-0.321189	-0.110585	0.183971	-0.989990	0.190918	0.268066	0.080022	-0.002728	0.008996	-0.112181	0.670229	0.043619	0.732329	-41.493015	-82.499092	-125.829814
65310		7.793183	-0.423623	0.890266	0.181714	-0.229682	-1.962851	-0.292262	-0.103557	0.177553	-0.989990	0.190918	0.265869	0.077931	-0.004154	0.008949	-0.111866	0.670879	0.041982	0.731878	-42.624530	-82.478255	-124.857671
65311		7.582987	-0.549434	1.000304	0.290053	-0.075790	-2.150163	-0.269807	-0.081323	0.165847	-0.988281	0.199951	0.269775	0.075830	-0.005418	0.010041	-0.111585	0.671428	0.040451	0.731503	-43.632844	-82.450100	-123.997095
65312		7.409875	-0.624053	1.074012	0.369772	0.017229	-2.308545	-0.229115	-0.063670	0.166822	-0.987793	0.191162	0.277100	0.074100	-0.006166	0.010771	-0.111452	0.671890	0.039059	0.731175	-44.561660	-82.412561	-123.192565
65313		7.374995	-0.600489	1.038348	0.351691	-0.022762	-2.349104	-0.190916	-0.027534	0.160273	-0.986084	0.202393	0.276367	0.073753	-0.005936	0.010399	-0.111426	0.672194	0.037805	0.730965	-45.329113	-82.361285	-122.529236
65314		7.300467	-0.593293	1.086423	0.411448	-0.025332	-2.419502	-0.170321	0.010717	0.165800	-0.985840	0.199951	0.271973	0.073010	-0.005863	0.010865	-0.111500	0.672349	0.036590	0.730873	-45.976399	-82.291578	-121.974746
65315		7.234015	-0.570641	1.165987	0.502703	-0.038189	-2.480434	-0.160167	0.021331	0.174993	-0.985840	0.199951	0.267578	0.072346	-0.005634	0.011657	-0.111640	0.672459	0.035372	0.730811	-46.599746	-82.212813	-121.438860
65316		7.263059	-0.482752	1.144557	0.501482	-0.146409	-2.462712	-0.142056	0.035128	0.177621	-0.976807	0.197998	0.276611	0.072637	-0.004755	0.011436	-0.111856	0.672508	0.034207	0.730788	-47.167258	-82.126923	-120.948176
65317		7.242740	-0.381024	1.332022	0.709470	-0.220690	-2.476158	-0.135228	0.037603	0.177627	-0.977051	0.202393	0.269531	0.072433	-0.003737	0.013309	-0.112093	0.672542	0.033062	0.730773	-47.711310	-82.039306	-120.477702
65318		7.193290	-0.340882	1.359544	0.750113	-0.263840	-2.527382	-0.121437	0.045514	0.182159	-0.981689	0.204590	0.271729	0.071939	-0.003335	0.013581	-0.112395	0.672541	0.031951	0.730777	-48.225468	-81.946298	-120.028898
65319		7.488437	-0.204997	1.340210	0.740344	-0.451033	-2.252045	-0.077613	0.038804	0.178017	-0.975098	0.209229	0.275879	0.074889	-0.001978	0.013388	-0.112827	0.672537	0.031014	0.730754	-48.712210	-81.856907	-119.582759
65320		7.753152	-0.070808	1.429937	0.840063	-0.611105	-1.997194	-0.056427	0.003222	0.168421	-0.974854	0.202637	0.276367	0.077532	-0.000639	0.014298	-0.113293	0.672650	0.030211	0.730612	-49.259228	-81.784606	-119.062739
65321		7.943495	0.030812	1.637325	1.054322	-0.706398	-1.802052	-0.020385	0.001046	0.153522	-0.975098	0.211426	0.273438	0.079435	0.000371	0.016373	-0.113821	0.672747	0.029587	0.730466	-49.744472	-81.718818	-118.584815
65322		8.259728	0.045283	1.614877	1.016551	-0.776918	-1.494275	0.029778	0.024119	0.134385	-0.970703	0.211426	0.271240	0.082599	0.000506	0.016139	-0.114454	0.672728	0.029201	0.730400	-50.076484	-81.652570	-118.232141
65323		8.538803	0.078300	1.676433	1.064825	-0.843606	-1.217213	0.062589	0.051959	0.121317	-0.977539	0.211426	0.266846	0.085392	0.000830	0.016742	-0.115151	0.672586	0.028960	0.730431	-50.268999	-81.581472	-118.001889
65324		8.908676	-0.012276	1.619668	0.962280	-0.824869	-0.847109	0.126068	0.096153	0.108771	-0.972900	0.213623	0.264404	0.089095	-0.000084	0.016154	-0.116025	0.672244	0.028971	0.730607	-50.259970	-81.499771	-117.937920
65325		9.222782	-0.095884	1.520571	0.818149	-0.815028	-0.536515	0.171018	0.160343	0.111182	-0.975342	0.213623	0.268799	0.092240	-0.000921	0.015131	-0.117066	0.671641	0.029097	0.730991	-50.044194	-81.393353	-118.057624
65326		9.355090	-0.190612	1.705976	0.955956	-0.715109	-0.376633	0.192595	0.206508	0.109461	-0.973145	0.215820	0.259766	0.093569	-0.001871	0.016961	-0.118181	0.670854	0.029285	0.731526	-49.683598	-81.270680	-118.310719
65327		9.529148	-0.234251	1.817509	1.024279	-0.686229	-0.187576	0.192603	0.254648	0.113579	-0.979980	0.218018	0.259766	0.095316	-0.002306	0.018052	-0.119316	0.669891	0.029426	0.732219	-49.207912	-81.127876	-118.680992
65328		9.708003	-0.311210	1.849395	1.002326	-0.643870	0.002766	0.195775	0.298657	0.124162	-0.977783	0.218018	0.250732	0.097109	-0.003070	0.018346	-0.120509	0.668764	0.029522	0.733049	-48.648584	-80.963553	-119.133591
65329		9.802518	-0.387333	2.089260	1.185148	-0.550141	0.132013	0.173183	0.324366	0.122741	-0.979980	0.220215	0.248291	0.098061	-0.003831	0.020730	-0.121622	0.667554	0.029519	0.733968	-48.050131	-80.789221	-119.639804
65330		9.819152	-0.425773	2.493974	1.539792	-0.448489	0.199541	0.152199	0.341147	0.118633	-0.978027	0.226807	0.252441	0.098236	-0.004218	0.024769	-0.122655	0.666291	0.029448	0.734946	-47.430212	-80.609433	-120.179551
65331		10.413326	-0.607395	2.317356	1.246244	-0.411113	0.791752	0.162774	0.380526	0.127353	-0.982422	0.224609	0.248047	0.104181	-0.006026	0.022970	-0.123757	0.664877	0.029357	0.736044	-46.750197	-80.409535	-120.775034
65332		11.221726	-0.865657	1.509234	0.294694	-0.466985	1.529673	0.217739	0.432099	0.142500	-0.982666	0.231201	0.240967	0.112256	-0.008593	0.014840	-0.125108	0.663237	0.029391	0.737293	-45.975518	-80.181858	-121.434256
65333		12.963309	-1.035681	0.879348	-0.559014	-0.717016	3.189862	0.308271	0.455744	0.171874	-0.982910	0.233398	0.236328	0.129661	-0.010259	0.008482	-0.126867	0.661453	0.029642	0.738584	-45.195773	-79.931068	-122.047162
65334		14.673161	-1.503111	0.768508	-0.983986	-0.579779	4.913033	0.386797	0.382693	0.204784	-0.982910	0.233398	0.229492	0.146761	-0.014895	0.007375	-0.128999	0.659888	0.030125	0.739594	-44.639598	-79.695495	-122.386775
65335		14.108322	-2.112528	2.738349	0.789394	0.479598	4.683955	0.277445	0.324237	0.191102	-0.987305	0.235352	0.224854	0.141147	-0.021028	0.027125	-0.130706	0.658604	0.030281	0.740432	-44.262259	-79.488734	-122.609395
65336		13.689150	-2.557713	4.051396	1.956602	1.229841	4.505398	0.241331	0.262705	0.158038	-0.987549	0.237793	0.220459	0.136965	-0.025518	0.040303	-0.132165	0.657563	0.030458	0.741091	-43.973065	-79.320356	-122.762808
65337		14.161762	-2.581204	2.190182	0.076802	0.745383	4.728751	0.222060	0.148774	0.179965	-0.985352	0.239990	0.222412	0.141657	-0.025709	0.021768	-0.133621	0.656959	0.030561	0.741361	-43.987129	-79.190044	-122.619585
65338		14.390477	-2.825243	1.259427	-0.912724	0.711857	4.860899	0.230292	0.005907	0.178703	-0.985840	0.249023	0.228760	0.143930	-0.028138	0.012558	-0.135080	0.656876	0.030799	0.741161	-44.286662	-79.118986	-122.180167
65339		12.851581	-3.002208	0.765677	-1.282654	0.996012	3.306968	0.379362	0.048675	0.122391	-0.985596	0.248779	0.219727	0.128536	-0.029958	0.007569	-0.136824	0.656524	0.031740	0.741113	-44.289951	-79.052621	-121.956048
65340		11.909578	-3.097238	-0.547101	-2.490394	0.921883	2.215540	0.594752	0.023360	0.103490	-0.983643	0.251221	0.215088	0.119111	-0.030894	-0.005577	-0.139204	0.656110	0.033564	0.740956	-44.180363	-79.004315	-121.720276
65341		11.352789	-3.262783	-1.414127	-3.326754	0.945370	1.570204	0.606905	0.048887	0.105362	-0.983643	0.250977	0.212891	0.113542	-0.032525	-0.014268	-0.141629	0.655589	0.035403	0.740872	-44.015737	-78.944794	-121.534322
65342		10.997717	-3.554578	-1.257298	-3.238313	1.292955	1.278167	0.536470	0.164585	0.102541	-0.986084	0.260010	0.209961	0.109985	-0.035455	-0.012759	-0.143837	0.654681	0.036914	0.741175	-43.651002	-78.838789	-121.592529
65343		10.922174	-4.018639	-0.064514	-2.235855	2.013045	1.429910	0.465493	0.152270	0.132475	-0.988525	0.262207	0.207764	0.109248	-0.040112	-0.000822	-0.145915	0.653872	0.038067	0.741425	-43.418199	-78.725979	-121.558557
65344		11.263170	-4.076065	1.036033	-1.244801	2.259286	1.930086	0.286125	-0.051078	0.209454	-0.981689	0.260010	0.205566	0.112672	-0.040657	0.010331	-0.147660	0.653959	0.038458	0.740983	-43.848867	-78.667049	-120.951723
65345		11.599944	-3.841299	1.161482	-1.085854	1.986423	2.251238	0.226755	-0.161259	0.243925	-0.981934	0.269043	0.205078	0.116037	-0.038285	0.011665	-0.149310	0.654503	0.038591	0.740165	-44.598076	-78.638363	-120.055660
65346		11.718666	-3.599380	0.586268	-1.561262	1.566223	2.259417	0.206735	-0.201173	0.246930	-0.984375	0.273438	0.211426	0.117225	-0.035855	0.005943	-0.150904	0.655206	0.038675	0.739214	-45.441575	-78.622130	-119.074057
65347		11.753002	-3.416035	0.862322	-1.221299	1.433385	2.311655	0.180937	-0.265483	0.244057	-0.982178	0.273438	0.213623	0.117560	-0.034025	0.008748	-0.152383	0.656164	0.038716	0.738058	-46.423831	-78.629678	-117.966973
65348		11.348301	-2.893603	1.244651	-0.644658	1.086083	1.896745	0.285326	-0.233275	0.225283	-0.982422	0.280029	0.213379	0.113501	-0.028826	0.012538	-0.154148	0.656917	0.039184	0.736996	-47.244325	-78.628954	-116.962871
65349		10.989124	-2.472183	1.048167	-0.664098	0.682453	1.459597	0.387878	-0.145654	0.170285	-0.982666	0.284668	0.215332	0.109905	-0.024649	0.010514	-0.156056	0.657254	0.040139	0.736242	-47.714826	-78.615356	-116.256839
65350		10.227874	-2.397686	0.755064	-0.852312	0.655786	0.664522	0.454418	-0.019011	0.132219	-0.976074	0.286865	0.215088	0.102294	-0.023926	0.007506	-0.158077	0.657062	0.041369	0.735914	-47.807060	-78.568316	-115.896517
65351		9.417991	-2.088771	0.864446	-0.594903	0.525920	-0.159798	0.461860	0.019826	0.099935	-0.971436	0.282471	0.215332	0.094191	-0.020861	0.008587	-0.160001	0.656710	0.042697	0.735737	-47.749831	-78.520127	-115.685498
65352		8.700393	-1.855399	0.974183	-0.366305	0.457602	-0.882693	0.442709	-0.019499	0.060884	-0.974121	0.291504	0.214844	0.087009	-0.018549	0.009709	-0.161717	0.656507	0.044119	0.735459	-47.712483	-78.503594	-115.464273
65353		8.103846	-1.617325	1.023544	-0.200566	0.353426	-1.495803	0.436559	-0.061101	0.009970	-0.974121	0.291504	0.210205	0.081036	-0.016192	0.010225	-0.163208	0.656447	0.045713	0.735085	-47.667550	-78.524800	-115.255477
65354		7.754205	-1.460269	1.051482	-0.098023	0.280546	-1.857979	0.433652	-0.083618	-0.031416	-0.976563	0.295898	0.214600	0.077535	-0.014638	0.010516	-0.164542	0.656460	0.047457	0.734666	-47.594474	-78.572104	-115.075820
65355		7.270725	-1.371859	1.035917	-0.045714	0.287776	-2.347190	0.440536	-0.095815	-0.078769	-0.974121	0.295898	0.212402	0.072697	-0.013770	0.010364	-0.165710	0.656497	0.049385	0.734243	-47.451091	-78.644363	-114.965197
65356		6.828652	-1.287036	1.012805	-0.006592	0.290771	-2.796412	0.434719	-0.067013	-0.116222	-0.971924	0.295898	0.209961	0.068276	-0.012932	0.010123	-0.166740	0.656420	0.051397	0.733940	-47.178947	-78.721105	-114.987917
65357		6.414232	-1.171650	0.964113	0.013511	0.253172	-3.226311	0.395113	-0.034858	-0.151284	-0.974121	0.293701	0.212402	0.064132	-0.011784	0.009629	-0.167506	0.656247	0.053346	0.733782	-46.788533	-78.800118	-115.155748
65358		6.023073	-1.060963	0.890068	0.006432	0.208419	-3.635975	0.377760	-0.052884	-0.175689	-0.980957	0.297852	0.207764	0.060219	-0.010679	0.008896	-0.168132	0.656144	0.055331	0.733584	-46.394988	-78.895976	-115.335490
65359		5.786890	-0.904361	0.760050	-0.050384	0.076721	-3.907165	0.389275	-0.059440	-0.198007	-0.978760	0.298096	0.209961	0.057858	-0.009116	0.007600	-0.168700	0.656047	0.057432	0.733379	-45.956453	-79.003587	-115.555650
65360		5.559486	-0.867517	0.683843	-0.094473	0.071742	-4.145764	0.397860	-0.079804	-0.210228	-0.974365	0.300293	0.209717	0.055583	-0.008747	0.006843	-0.169257	0.656010	0.059628	0.733108	-45.526072	-79.123796	-115.760846
65361		5.605675	-0.835233	0.743568	-0.033586	0.066993	-4.097055	0.420145	-0.102208	-0.228603	-0.980957	0.295654	0.209961	0.056043	-0.008432	0.007447	-0.169800	0.656027	0.061977	0.732772	-45.082996	-79.260449	-115.967444
65362		5.774311	-0.927609	0.916983	0.083375	0.196287	-3.896736	0.416979	-0.114668	-0.245693	-0.983154	0.293457	0.205811	0.057726	-0.009366	0.009183	-0.170277	0.656083	0.064388	0.732403	-44.624977	-79.408569	-116.189389
65363		5.916338	-0.997289	1.085270	0.203958	0.309532	-3.726801	0.394931	-0.092709	-0.245593	-0.978760	0.295898	0.212402	0.059146	-0.010067	0.010860	-0.170676	0.656074	0.066693	0.732112	-44.120811	-79.547491	-116.472620
65364		6.069242	-1.134061	1.276860	0.322211	0.492697	-3.535303	0.353813	-0.110488	-0.244604	-0.985596	0.297852	0.212158	0.060671	-0.011437	0.012782	-0.170949	0.656162	0.068865	0.731769	-43.672304	-79.692788	-116.721597
65365		6.327423	-1.355071	1.604594	0.531861	0.783601	-3.213424	0.299951	-0.142595	-0.225285	-0.987549	0.291260	0.210449	0.063247	-0.013646	0.016071	-0.171092	0.656418	0.070796	0.731322	-43.358779	-79.843636	-116.866143
65366		6.545514	-1.573690	1.726038	0.552807	1.012211	-2.959275	0.268589	-0.131062	-0.207754	-0.987305	0.288818	0.210449	0.065427	-0.015828	0.017282	-0.171211	0.656661	0.072553	0.730903	-43.073917	-79.982526	-116.998233
65367		6.750588	-1.807534	1.863660	0.583228	1.261170	-2.714792	0.209797	-0.083878	-0.181622	-0.985107	0.289063	0.212646	0.067482	-0.018156	0.018646	-0.171238	0.656790	0.073961	0.730639	-42.773122	-80.091429	-117.182179
65368		6.876202	-1.836997	2.053855	0.739386	1.348038	-2.566232	0.165456	-0.082026	-0.159691	-0.989502	0.284424	0.213135	0.068739	-0.018442	0.020552	-0.171210	0.656957	0.075140	0.730375	-42.543251	-80.190746	-117.318468
65369		7.142600	-1.712763	2.198956	0.898060	1.254440	-2.302325	0.102572	-0.090738	-0.132370	-0.987305	0.284424	0.208496	0.071405	-0.017186	0.022013	-0.171062	0.657220	0.076001	0.730085	-42.431663	-80.283241	-117.372654
65370		7.609351	-1.654467	2.089201	0.782336	1.106257	-1.864834	0.061510	-0.087851	-0.135143	-0.986816	0.277832	0.213379	0.076073	-0.016603	0.020920	-0.170779	0.657505	0.076724	0.729819	-42.329889	-80.375384	-117.439427
65371		7.953625	-1.449475	1.928752	0.683295	0.823871	-1.570386	-0.024156	-0.125450	-0.140346	-0.984863	0.280029	0.217773	0.079514	-0.014548	0.019339	-0.170171	0.657998	0.077178	0.729468	-42.347805	-80.485635	-117.435883
65372		8.449965	-1.345474	1.922111	0.686456	0.668087	-1.095514	-0.065314	-0.193530	-0.168225	-0.989014	0.275635	0.222656	0.084470	-0.013520	0.019307	-0.169309	0.658762	0.077636	0.728930	-42.478812	-80.635260	-117.340481
65373		9.344235	-1.319865	1.983653	0.699449	0.556328	-0.210976	-0.072826	-0.183644	-0.203361	-0.986816	0.275635	0.218018	0.093411	-0.013286	0.019927	-0.168288	0.659483	0.078169	0.728458	-42.501414	-80.794484	-117.360449
65374		10.000135	-1.508025	1.728758	0.356986	0.577499	0.424716	-0.049645	-0.117597	-0.246388	-0.984375	0.271240	0.225098	0.099972	-0.015199	0.017350	-0.167222	0.659924	0.078877	0.728228	-42.237626	-80.942132	-117.655921
65375		10.416938	-1.651503	1.633239	0.188143	0.647613	0.838728	-0.015872	-0.025450	-0.264223	-0.991455	0.275635	0.222656	0.104145	-0.016651	0.016347	-0.166229	0.659994	0.079685	0.728303	-41.671262	-81.057226	-118.239141
65376		10.568199	-1.578574	1.691106	0.246834	0.603359	0.986087	0.002217	0.075586	-0.267661	-0.993408	0.268799	0.220703	0.105667	-0.015927	0.016871	-0.165333	0.659678	0.080491	0.728705	-40.827875	-81.128713	-119.090917
65377		10.914981	-1.299104	1.901053	0.496095	0.387052	1.324749	-0.003624	0.143840	-0.229201	-0.997559	0.261963	0.221191	0.109148	-0.013116	0.018932	-0.164575	0.659134	0.081088	0.729303	-39.919905	-81.154353	-120.012539
65378		11.272725	-1.074798	2.286042	0.880403	0.273844	1.702750	0.002426	0.234246	-0.204093	-0.999756	0.261963	0.218994	0.112743	-0.010863	0.022728	-0.163974	0.658262	0.081553	0.730173	-38.867452	-81.128144	-121.075857
65379		11.615509	-1.173874	2.594815	1.067522	0.431947	2.091291	-0.004947	0.397330	-0.189010	-1.004150	0.257324	0.210205	0.116195	-0.011848	0.025718	-0.163461	0.656807	0.081804	0.731569	-37.505191	-81.019945	-122.458275
65380		12.274744	-1.336633	2.395924	0.716945	0.432375	2.737019	-0.070678	0.455839	-0.193303	-1.010986	0.259521	0.203369	0.122789	-0.013477	0.023684	-0.162747	0.655184	0.081784	0.733184	-36.079042	-80.880912	-123.943081
65381		13.303405	-1.661809	2.244119	0.314603	0.551034	3.765802	-0.186746	0.434942	-0.199483	-1.006104	0.255127	0.208252	0.133066	-0.016730	0.022167	-0.161613	0.653728	0.081371	0.734779	-34.786319	-80.748450	-125.361570
65382		15.238147	-2.104405	1.745010	-0.537965	0.551266	5.649562	-0.242237	0.343731	-0.212236	-1.010498	0.248291	0.199707	0.152389	-0.021185	0.017214	-0.160221	0.652641	0.080873	0.736104	-33.703376	-80.658345	-126.599189
65383		15.175123	-1.778067	2.514053	0.258357	0.514130	5.661005	-0.373200	0.231451	-0.173070	-1.008057	0.248291	0.199707	0.151765	-0.017865	0.024998	-0.158491	0.652086	0.079852	0.737081	-33.040350	-80.606879	-127.488482
65384		14.056240	-1.100904	3.692260	1.678323	0.411404	4.659237	-0.372705	0.142164	-0.176342	-1.010010	0.241699	0.204590	0.140579	-0.011064	0.036843	-0.156721	0.651854	0.078915	0.737765	-32.542112	-80.597693	-128.209779
65385		14.258681	-0.410624	2.494259	0.748424	-0.636295	4.634972	-0.239100	0.109821	-0.207489	-1.003174	0.239502	0.204590	0.142596	-0.004224	0.024869	-0.155252	0.651624	0.078596	0.738313	-31.935051	-80.612841	-128.964539
65386		14.077068	-0.339969	1.137651	-0.493006	-1.092366	4.263438	-0.229769	-0.003224	-0.186845	-1.010010	0.237061	0.207031	0.140767	-0.003518	0.011383	-0.153850	0.651809	0.078332	0.738471	-31.587881	-80.675570	-129.449853
65387		13.652149	-0.458652	1.225667	-0.403783	-0.882139	3.867684	-0.252374	-0.057607	-0.108021	-1.014404	0.237061	0.204834	0.136515	-0.004645	0.012302	-0.152638	0.652243	0.077769	0.738399	-31.582858	-80.741181	-129.602054
65388		12.282768	-0.153133	0.782344	-0.582022	-1.133334	2.429808	-0.186228	0.115751	-0.044046	-1.010010	0.237061	0.204834	0.122832	-0.001551	0.007754	-0.151951	0.652009	0.077110	0.738816	-31.413869	-80.702693	-129.881399
65389		10.819485	0.282486	0.035842	-1.014584	-1.602382	0.843071	-0.142839	0.374204	-0.005110	-1.011963	0.232666	0.205078	0.108195	0.002822	0.000154	-0.151643	0.650802	0.076287	0.740028	-30.875728	-80.525866	-130.510381
65390		10.145276	0.673628	-0.559819	-1.415108	-2.087387	0.053107	-0.235659	0.465580	0.051052	-1.009521	0.228271	0.198486	0.101438	0.006755	-0.005842	-0.151280	0.649344	0.074870	0.741526	-30.420523	-80.286544	-131.108977
65391		9.962565	1.071981	-0.858243	-1.580239	-2.547899	-0.213239	-0.273895	0.263103	0.073212	-1.011963	0.234863	0.193604	0.099610	0.010744	-0.008728	-0.150794	0.648672	0.073389	0.742361	-30.407673	-80.140604	-131.281855
65392		10.407973	1.272275	-0.709108	-1.431641	-2.757015	0.227068	-0.293952	-0.129016	0.070822	-1.007568	0.232666	0.198242	0.104080	0.012749	-0.007043	-0.150093	0.649467	0.072140	0.741930	-31.058735	-80.188560	-130.792103
