// General information: 
//  MT Manager version: 2019.2.0 
//  XDA version: 2019.2.0 build 3853 rev 94535 built on 2019-09-09
// Device information: 
//  DeviceId: 00B40A40
//  ProductCode: MTW2-3A7G6
//  Firmware Version: 4.4.0
//  Hardware Version: 1.1.0
// Device settings: 
//  Filter Profile: human(46.1)
//  Option Flags: Orientation Smoother Disabled, AHS Disabled, ICC Disabled
// Coordinate system: ENU
PacketCounter	SampleTimeFine	Acc_X	Acc_Y	Acc_Z	FreeAcc_E	FreeAcc_N	FreeAcc_U	Gyr_X	Gyr_Y	Gyr_Z	Mag_X	Mag_Y	Mag_Z	VelInc_X	VelInc_Y	VelInc_Z	Quat_q0	Quat_q1	Quat_q2	Quat_q3	Roll	Pitch	Yaw
43290		7.914858	0.372702	1.439222	0.196064	-0.183457	-1.763891	-0.265942	-0.231393	0.075580	-1.078613	0.156250	0.337891	0.079130	0.003776	0.014479	0.099674	-0.640700	-0.095816	-0.755240	6.042906	-80.703578	-170.098971
43291		8.123417	0.393892	1.546793	0.291464	-0.184601	-1.541136	-0.245239	-0.213728	0.051249	-1.083252	0.156006	0.342529	0.081217	0.003979	0.015550	0.099010	-0.641733	-0.094803	-0.754578	5.767644	-80.840189	-169.962880
43292		8.414565	0.317355	1.565959	0.262793	-0.117330	-1.252606	-0.236351	-0.191996	0.044260	-1.081055	0.156250	0.346924	0.084130	0.003211	0.015737	0.098361	-0.642673	-0.093836	-0.753984	5.507448	-80.963869	-169.836701
43293		8.657818	0.239746	1.636338	0.289106	-0.034871	-1.003143	-0.194486	-0.152830	0.064305	-1.083252	0.158203	0.342285	0.086565	0.002441	0.016427	0.097937	-0.643454	-0.092942	-0.753484	5.181457	-81.066216	-169.619904
43294		8.943188	0.378063	1.776203	0.430272	-0.145900	-0.698303	-0.121933	-0.095332	0.093411	-1.081055	0.160645	0.351074	0.089422	0.003833	0.017802	0.097888	-0.643992	-0.092200	-0.753121	4.764026	-81.136638	-169.268120
43295		9.417959	0.591981	1.982746	0.621991	-0.321357	-0.195540	-0.072123	-0.023581	0.120536	-1.083252	0.156006	0.346924	0.094174	0.005984	0.019836	0.098130	-0.644251	-0.091522	-0.752951	4.251483	-81.167187	-168.791650
43296		9.742354	0.641175	2.076623	0.680207	-0.368532	0.139117	-0.049687	0.045442	0.154995	-1.081055	0.156250	0.351318	0.097423	0.006492	0.020742	0.098608	-0.644253	-0.090785	-0.752976	3.603539	-81.158761	-168.164859
43297		9.740166	0.528564	2.199636	0.767874	-0.246164	0.154175	-0.008372	0.091239	0.180616	-1.083496	0.160645	0.346680	0.097407	0.005375	0.021952	0.099334	-0.644074	-0.090097	-0.753116	2.879492	-81.123947	-167.437351
43298		9.734422	0.441625	2.348155	0.883746	-0.143570	0.170608	0.050600	0.125708	0.197187	-1.081543	0.167236	0.348389	0.097355	0.004506	0.023421	0.100324	-0.643742	-0.089562	-0.753333	2.131670	-81.068221	-166.651557
43299		10.048842	0.504767	2.568886	1.055621	-0.178856	0.516244	0.108432	0.178639	0.197892	-1.079346	0.169434	0.339355	0.100506	0.005133	0.025602	0.101529	-0.643181	-0.089215	-0.753691	1.417473	-80.980803	-165.866036
43300		10.340636	0.569699	2.657986	1.098772	-0.250398	0.819722	0.170355	0.253490	0.178160	-1.081543	0.167236	0.339600	0.103435	0.005767	0.026454	0.102901	-0.642293	-0.089127	-0.754273	0.816693	-80.848400	-165.158575
43301		10.838536	0.602571	2.764679	1.108648	-0.295063	1.330209	0.224642	0.333944	0.164827	-1.086182	0.171631	0.339355	0.108426	0.006084	0.027473	0.104423	-0.641069	-0.089244	-0.755090	0.314303	-80.669249	-164.519603
43302		11.233882	0.500527	2.932676	1.143262	-0.190572	1.750515	0.310526	0.432484	0.156935	-1.081787	0.176025	0.327637	0.112398	0.005048	0.029092	0.106234	-0.639418	-0.089660	-0.756188	-0.088408	-80.432392	-163.931326
43303		12.611737	0.618934	3.281531	1.234937	-0.297556	3.171665	0.388967	0.549425	0.160757	-1.086182	0.176025	0.330078	0.126202	0.006227	0.032481	0.108363	-0.637282	-0.090296	-0.757612	-0.433001	-80.128329	-163.356035
43304		15.509956	0.686274	3.077781	0.512656	-0.597631	5.994958	0.402006	0.623219	0.211550	-1.086670	0.187012	0.315918	0.155187	0.006966	0.030308	0.110758	-0.634870	-0.090780	-0.759231	-0.900311	-79.780529	-162.647743
43305		15.506748	0.396043	2.858621	0.133694	-0.424363	5.954013	0.427320	0.702436	0.140367	-1.091309	0.191406	0.313477	0.155164	0.004009	0.028050	0.112996	-0.632105	-0.091540	-0.761115	-1.091169	-79.387794	-162.205179
43306		13.118495	0.117565	3.199696	0.701417	0.044611	3.672569	0.449950	0.668309	0.018048	-1.089111	0.189209	0.304443	0.131291	0.001116	0.031561	0.114835	-0.629388	-0.092789	-0.762938	-0.892280	-79.015372	-162.144748
43307		12.440936	0.108912	2.850726	0.418368	-0.021553	2.944252	0.457767	0.542840	0.040093	-1.095703	0.188965	0.293457	0.124486	0.001049	0.028172	0.116711	-0.627149	-0.094070	-0.764339	-0.757701	-78.715140	-162.015025
43308		12.209420	-0.190356	2.222314	-0.271380	0.080431	2.595556	0.464956	0.404767	0.099634	-1.091309	0.191406	0.293213	0.122140	-0.001894	0.021972	0.118775	-0.625451	-0.095273	-0.765262	-0.792586	-78.493046	-161.707681
43309		10.376362	-0.808723	1.883277	-0.463137	0.671688	0.732639	0.572504	0.243461	0.097430	-1.091553	0.193604	0.284180	0.103790	-0.008090	0.018683	0.121085	-0.624303	-0.096987	-0.765622	-0.760362	-78.363905	-161.406177
43310		9.072516	-1.238905	1.290190	-0.917643	0.980736	-0.663583	0.691606	0.053412	0.089622	-1.096191	0.197754	0.279297	0.090734	-0.012393	0.012835	0.123645	-0.623798	-0.099297	-0.765329	-0.643499	-78.343384	-161.121060
43311		9.136459	-1.854001	0.650774	-1.722248	1.360339	-0.728688	0.767740	-0.132655	0.101936	-1.093994	0.202393	0.285889	0.091370	-0.018518	0.006497	0.126394	-0.623957	-0.101973	-0.764398	-0.523676	-78.429908	-160.794741
43312		9.764604	-2.428798	0.071272	-2.558072	1.672528	-0.225690	0.863102	-0.255121	0.151007	-1.092041	0.209229	0.289795	0.097663	-0.024217	0.000733	0.129568	-0.624531	-0.104936	-0.762995	-0.494017	-78.585476	-160.320320
43313		10.304204	-2.483358	-0.137328	-2.858347	1.603930	0.267975	1.038602	-0.294755	0.211515	-1.090332	0.218018	0.289307	0.103070	-0.024718	-0.001350	0.133491	-0.625165	-0.108402	-0.761313	-0.544557	-78.764380	-159.662315
43314		10.364727	-1.967730	0.151457	-2.413799	1.188705	0.389418	1.168002	-0.280165	0.257189	-1.085938	0.220459	0.291504	0.103670	-0.019553	0.001545	0.138008	-0.625661	-0.112203	-0.759548	-0.670434	-78.934477	-158.851647
43315		10.381051	-1.075877	0.491562	-1.773801	0.448280	0.474100	1.180327	-0.227936	0.286323	-1.088623	0.229248	0.293213	0.103820	-0.010639	0.004971	0.142687	-0.625941	-0.115920	-0.757892	-0.881623	-79.073940	-157.948012
43316		10.616809	-0.404749	0.614804	-1.435963	-0.170835	0.730898	1.098426	-0.189398	0.330413	-1.086670	0.236084	0.292725	0.106169	-0.003906	0.006227	0.147302	-0.626140	-0.119156	-0.756341	-1.288918	-79.190274	-156.892370
43317		10.744157	-0.178163	0.696093	-1.272150	-0.383246	0.873184	0.994925	-0.154769	0.353948	-1.086914	0.242676	0.290039	0.107439	-0.001626	0.007036	0.151690	-0.626276	-0.121899	-0.754924	-1.833758	-79.284401	-155.757947
43318		11.015850	-0.341896	0.754998	-1.298797	-0.257107	1.154663	0.867232	-0.150630	0.391927	-1.080322	0.249512	0.287354	0.110159	-0.003236	0.007619	0.155830	-0.626501	-0.124033	-0.753545	-2.587653	-79.373085	-154.484986
43319		10.672488	-0.607429	0.777565	-1.297190	-0.008412	0.826517	0.806956	-0.130624	0.440330	-1.080566	0.253906	0.291504	0.106733	-0.005871	0.007821	0.159961	-0.626712	-0.125772	-0.752214	-3.531863	-79.445184	-153.054478
43320		9.914333	-0.769856	0.964549	-1.045207	0.242789	0.120364	0.775502	-0.113237	0.451184	-1.078613	0.258545	0.286865	0.099155	-0.007512	0.009672	0.164052	-0.626877	-0.127340	-0.750931	-4.543860	-79.502521	-151.573139
43321		9.346259	-1.013082	1.018973	-0.983457	0.504478	-0.421446	0.765716	-0.126638	0.452669	-1.074463	0.271973	0.285889	0.093479	-0.009958	0.010211	0.168097	-0.627087	-0.128877	-0.749597	-5.578444	-79.562495	-150.075329
43322		9.032081	-1.033683	0.969361	-0.967954	0.503819	-0.735474	0.824558	-0.156272	0.414141	-1.072510	0.276367	0.287842	0.090334	-0.010190	0.009722	0.172167	-0.627320	-0.130776	-0.748148	-6.488599	-79.636822	-148.669529
43323		8.749212	-0.678371	0.969705	-0.753948	0.186770	-1.018039	0.888498	-0.190289	0.381144	-1.075439	0.291992	0.287109	0.087496	-0.006660	0.009751	0.176280	-0.627589	-0.133045	-0.746563	-7.285051	-79.729218	-147.342980
43324		8.556609	-0.240478	1.008023	-0.479178	-0.188669	-1.208954	0.926226	-0.208747	0.339187	-1.068848	0.296631	0.291260	0.085559	-0.002307	0.010159	0.180354	-0.627852	-0.135596	-0.744908	-7.963871	-79.832153	-146.113476
43325		8.520186	-0.102897	1.066283	-0.337603	-0.292244	-1.237042	0.903025	-0.209880	0.288314	-1.068848	0.296631	0.286621	0.085192	-0.000955	0.010748	0.184145	-0.628089	-0.138222	-0.743297	-8.504356	-79.937663	-145.039321
43326		8.590883	-0.112491	1.191670	-0.218095	-0.239883	-1.144882	0.866404	-0.213701	0.240613	-1.064697	0.305664	0.286133	0.085897	-0.001073	0.012004	0.187651	-0.628331	-0.140858	-0.741719	-8.941371	-80.048192	-144.091123
43327		8.555928	-0.114975	1.310214	-0.089742	-0.180814	-1.158612	0.832776	-0.195310	0.187947	-1.067383	0.316650	0.285400	0.085548	-0.001124	0.013181	0.190850	-0.628481	-0.143518	-0.740264	-9.221455	-80.151731	-143.322875
43328		8.281763	-0.032140	1.417995	0.097605	-0.172808	-1.412692	0.810076	-0.183292	0.135382	-1.065186	0.316650	0.283203	0.082805	-0.000323	0.014255	0.193814	-0.628560	-0.146240	-0.738893	-9.360030	-80.252490	-142.710240
43329		8.090364	0.062767	1.557314	0.302981	-0.163312	-1.580758	0.757564	-0.167950	0.074523	-1.062988	0.319092	0.285400	0.080890	0.000599	0.015643	0.196370	-0.628577	-0.148947	-0.737661	-9.311835	-80.350514	-142.319215
43330		8.060799	0.243924	1.735079	0.558693	-0.223189	-1.585628	0.717148	-0.153829	0.035385	-1.063232	0.323486	0.285156	0.080594	0.002391	0.017421	0.198686	-0.628543	-0.151608	-0.736527	-9.163810	-80.443756	-142.051660
43331		7.894021	0.459431	1.965103	0.892667	-0.268652	-1.718293	0.677040	-0.142612	-0.007371	-1.063232	0.321289	0.287354	0.078926	0.004525	0.019723	0.200702	-0.628468	-0.154247	-0.735497	-8.876083	-80.535159	-141.950502
43332		7.759475	0.559210	2.287993	1.243488	-0.167073	-1.801267	0.575682	-0.116454	-0.058769	-1.063477	0.325684	0.284912	0.077583	0.005503	0.022941	0.202247	-0.628355	-0.156642	-0.734663	-8.467437	-80.616308	-142.029730
43333		7.755675	0.474963	2.451495	1.345470	0.007518	-1.776798	0.465436	-0.101943	-0.103692	-1.063232	0.321289	0.282959	0.077547	0.004652	0.024565	0.203271	-0.628256	-0.158762	-0.734009	-7.942721	-80.692753	-142.291669
43334		7.739667	0.279581	2.615531	1.390698	0.280846	-1.762305	0.395697	-0.089793	-0.144129	-1.056641	0.328125	0.289307	0.077387	0.002688	0.026195	0.203955	-0.628150	-0.160736	-0.733481	-7.315040	-80.764646	-142.697303
43335		7.912532	0.118413	2.436090	1.131689	0.338300	-1.617475	0.345003	-0.084329	-0.182676	-1.060791	0.319092	0.285400	0.079116	0.001070	0.024396	0.204323	-0.628040	-0.162643	-0.733052	-6.559889	-80.835580	-143.262471
43336		8.054255	-0.012240	2.317834	0.942457	0.403196	-1.494473	0.307610	-0.074539	-0.227470	-1.056641	0.325928	0.284912	0.080534	-0.000250	0.023208	0.204435	-0.627902	-0.164537	-0.732717	-5.666444	-80.902976	-143.988448
43337		8.138835	-0.098578	2.229510	0.806795	0.451710	-1.424241	0.272041	-0.083642	-0.256173	-1.065186	0.314453	0.292480	0.081378	-0.001120	0.022328	0.204304	-0.627799	-0.166406	-0.732419	-4.667746	-80.974487	-144.842354
43338		8.275002	-0.235659	2.132546	0.631625	0.536387	-1.304326	0.207825	-0.100212	-0.287600	-1.065186	0.316650	0.285400	0.082736	-0.002498	0.021364	0.203856	-0.627803	-0.168149	-0.732142	-3.593134	-81.055120	-145.809538
43339		8.302758	-0.282905	1.873494	0.378735	0.472891	-1.318061	0.134695	-0.109931	-0.299590	-1.062500	0.307861	0.292725	0.083013	-0.002966	0.018779	0.203111	-0.627897	-0.169677	-0.731916	-2.488111	-81.137954	-146.850346
43340		8.244924	-0.209454	1.839668	0.391573	0.424468	-1.382180	0.041146	-0.107950	-0.287230	-1.064941	0.312256	0.290283	0.082436	-0.002217	0.018441	0.202127	-0.628092	-0.170818	-0.731755	-1.469451	-81.216980	-147.857440
43341		8.489175	-0.098592	1.695314	0.291695	0.261041	-1.164183	-0.086805	-0.101302	-0.273474	-1.066895	0.305664	0.288330	0.084882	-0.001095	0.016997	0.200789	-0.628398	-0.171443	-0.731715	-0.550915	-81.288847	-148.837529
43342		8.889662	-0.149028	1.581840	0.115754	0.238189	-0.786041	-0.232538	-0.075783	-0.274335	-1.064697	0.301270	0.295410	0.088888	-0.001594	0.015854	0.199025	-0.628756	-0.171509	-0.731874	0.292991	-81.343862	-149.825684
43343		9.514795	-0.307287	1.600057	-0.033312	0.357322	-0.166076	-0.355179	-0.041391	-0.273599	-1.064697	0.301270	0.295410	0.095140	-0.003175	0.016026	0.196893	-0.629106	-0.171091	-0.732247	1.081341	-81.376957	-150.829345
43344		10.075052	-0.600022	1.620385	-0.241653	0.598237	0.389078	-0.459357	0.016884	-0.269917	-1.064209	0.294434	0.295898	0.100744	-0.006099	0.016209	0.194506	-0.629351	-0.170219	-0.732878	1.786628	-81.375507	-151.808878
43345		10.297278	-0.817820	1.659535	-0.354524	0.807158	0.612263	-0.519871	0.071848	-0.273754	-1.070557	0.285400	0.296387	0.102967	-0.008276	0.016580	0.191949	-0.629440	-0.169086	-0.733738	2.470197	-81.339957	-152.802007
43346		10.329805	-0.903780	1.849614	-0.250075	0.986093	0.671005	-0.550141	0.133162	-0.272914	-1.070557	0.285400	0.298584	0.103298	-0.009128	0.018452	0.189355	-0.629329	-0.167777	-0.734806	3.109055	-81.267894	-153.767363
43347		10.417098	-0.835752	2.083609	-0.043643	1.043145	0.792299	-0.614048	0.198444	-0.274194	-1.072510	0.274170	0.299316	0.104180	-0.008437	0.020759	0.186603	-0.629029	-0.166176	-0.736130	3.690620	-81.156617	-154.712262
43348		10.491792	-0.854301	2.338013	0.134318	1.179275	0.904823	-0.690652	0.294029	-0.281903	-1.074463	0.269775	0.292969	0.104940	-0.008610	0.023256	0.183660	-0.628438	-0.164223	-0.737811	4.208670	-80.989564	-155.637737
43349		10.401582	-0.822677	2.551375	0.317370	1.253789	0.850632	-0.780686	0.397022	-0.283241	-1.076172	0.258545	0.291260	0.104055	-0.008275	0.025339	0.180509	-0.627533	-0.161847	-0.739881	4.624941	-80.761902	-156.512799
43350		10.693852	-0.822929	2.797350	0.450373	1.337404	1.181365	-0.856082	0.493388	-0.279162	-1.080811	0.258545	0.286865	0.106996	-0.008260	0.027745	0.177204	-0.626325	-0.159090	-0.742298	4.927764	-80.477987	-157.317691
43351		11.995995	-0.946465	2.741663	0.098223	1.318491	2.457929	-0.932783	0.563859	-0.256572	-1.073730	0.249756	0.289551	0.120025	-0.009492	0.027123	0.173800	-0.624927	-0.155909	-0.744951	5.054747	-80.155049	-157.989104
43352		15.065781	-1.092872	2.751400	-0.511629	1.231559	5.483169	-0.951812	0.617029	-0.252227	-1.075684	0.245117	0.278564	0.150728	-0.010989	0.027101	0.170383	-0.623330	-0.152592	-0.747760	5.118282	-79.801681	-158.608297
43353		17.559328	-0.862139	1.723654	-1.810904	0.389793	7.754672	-0.881060	0.588916	-0.259245	-1.082275	0.242676	0.274414	0.175632	-0.008775	0.016758	0.167139	-0.621754	-0.149581	-0.750408	5.226063	-79.463951	-159.231481
43354		13.316427	-0.049363	2.526957	-0.106784	0.265538	3.738428	-0.627688	0.583949	-0.273174	-1.083984	0.231445	0.274902	0.133237	-0.000597	0.024882	0.164621	-0.619955	-0.147564	-0.752848	5.497797	-79.127203	-159.874619
43355		10.701132	0.618555	2.628613	0.674531	-0.136276	1.202425	-0.517847	0.374109	-0.237095	-1.086182	0.229248	0.268311	0.107068	0.006126	0.026070	0.162424	-0.618877	-0.146020	-0.754512	5.761890	-78.912317	-160.446301
43356		9.948686	0.563156	1.880715	0.091799	-0.353902	0.321258	-0.542252	0.158643	-0.264235	-1.088379	0.229248	0.270752	0.099509	0.005551	0.018713	0.159877	-0.618603	-0.144642	-0.755545	6.147335	-78.817663	-161.157052
43357		9.344126	0.647459	1.388892	-0.212172	-0.584933	-0.364210	-0.560085	-0.056972	-0.295420	-1.083496	0.220459	0.271240	0.093447	0.006375	0.013898	0.157012	-0.619132	-0.143463	-0.755937	6.670440	-78.843037	-162.017786
43358		9.048855	1.396505	1.279189	0.055622	-1.274064	-0.656162	-0.583931	-0.225118	-0.275697	-1.083496	0.218262	0.280273	0.090493	0.013878	0.012853	0.154019	-0.620321	-0.142264	-0.755805	7.191374	-78.963680	-162.890495
43359		9.751189	1.971378	0.986766	-0.089933	-1.935122	-0.004890	-0.777648	-0.355386	-0.246800	-1.085449	0.211426	0.285156	0.097518	0.019632	0.009965	0.150447	-0.622164	-0.140340	-0.755369	7.581026	-79.159351	-163.741590
43360		10.410455	2.009336	0.876197	-0.278226	-2.025960	0.627655	-0.965672	-0.408004	-0.226668	-1.085205	0.202637	0.288086	0.104109	0.020018	0.008878	0.146314	-0.624350	-0.137681	-0.754867	7.850624	-79.386131	-164.580288
43361		10.411299	1.785315	0.911437	-0.317749	-1.784533	0.633730	-1.019897	-0.385064	-0.221451	-1.087402	0.200439	0.297119	0.104115	0.017785	0.009224	0.142054	-0.626469	-0.134779	-0.754448	8.082384	-79.599010	-165.410752
43362		10.155238	1.525181	0.957108	-0.315166	-1.494690	0.387196	-0.971939	-0.346878	-0.224570	-1.082520	0.191650	0.304443	0.101553	0.015185	0.009673	0.137938	-0.628388	-0.132039	-0.754100	8.363617	-79.789030	-166.263927
43363		9.896015	1.292172	0.896247	-0.398533	-1.268772	0.118849	-0.888133	-0.313918	-0.260455	-1.084473	0.187012	0.304688	0.098963	0.012833	0.009061	0.133983	-0.630086	-0.129700	-0.753802	8.804668	-79.956622	-167.229301
43364		10.221786	1.156356	0.629653	-0.733736	-1.225649	0.394069	-0.808575	-0.311556	-0.271323	-1.077881	0.191650	0.306641	0.102224	0.011451	0.006409	0.130218	-0.631701	-0.127693	-0.753453	9.359395	-80.120202	-168.264367
43365		11.018709	0.991993	0.393510	-1.126563	-1.152991	1.139582	-0.722201	-0.322345	-0.260589	-1.082031	0.180420	0.320801	0.110193	0.009791	0.004077	0.126776	-0.633294	-0.125979	-0.752991	9.951503	-80.289339	-169.285572
43366		11.063875	0.745468	0.650566	-0.963773	-0.799698	1.224513	-0.605927	-0.303705	-0.268945	-1.081787	0.173828	0.318848	0.110639	0.007326	0.006651	0.123678	-0.634729	-0.124716	-0.752508	10.656602	-80.445131	-170.353407
43367		10.542041	0.663575	0.937790	-0.620943	-0.576357	0.757863	-0.488002	-0.293792	-0.275289	-1.083740	0.169434	0.328125	0.105416	0.006514	0.009517	0.120937	-0.636042	-0.123908	-0.751978	11.472152	-80.592274	-171.464153
43368		9.848242	0.873046	1.017136	-0.346379	-0.699898	0.095629	-0.426731	-0.262353	-0.254516	-1.079346	0.171631	0.332520	0.098480	0.008627	0.010282	0.118474	-0.637206	-0.123248	-0.751493	12.266319	-80.721299	-172.517913
43369		9.039460	1.024316	1.187804	0.006860	-0.745713	-0.668522	-0.461030	-0.241343	-0.208072	-1.081299	0.165039	0.333008	0.090391	0.010177	0.011964	0.116102	-0.638336	-0.122295	-0.751060	12.880730	-80.842622	-173.408395
43370		8.337522	0.767334	1.193942	0.053079	-0.473778	-1.368679	-0.574606	-0.248386	-0.162710	-1.076416	0.156250	0.335693	0.083367	0.007640	0.012021	0.113528	-0.639582	-0.120774	-0.750639	13.299284	-80.972752	-174.166285
43371		7.922970	0.305418	1.075650	-0.126033	-0.059993	-1.812422	-0.684441	-0.248786	-0.116478	-1.076416	0.156250	0.344727	0.079218	0.003045	0.010845	0.110779	-0.640910	-0.118691	-0.750250	13.504986	-81.108310	-174.771953
43372		7.682366	-0.146251	1.048997	-0.237947	0.368262	-2.070062	-0.725605	-0.244176	-0.066063	-1.071777	0.154053	0.346924	0.076810	-0.001450	0.010589	0.108075	-0.642267	-0.116290	-0.749860	13.521677	-81.248026	-175.210735
43373		7.597287	-0.333087	1.115565	-0.198493	0.568902	-2.150370	-0.715271	-0.231915	-0.009923	-1.067139	0.147461	0.349609	0.075960	-0.003295	0.011256	0.105633	-0.643593	-0.113737	-0.749463	13.325898	-81.388318	-175.427683
43374		7.583044	-0.306683	1.247743	-0.041006	0.580695	-2.143623	-0.695062	-0.208206	0.050597	-1.076172	0.149658	0.356201	0.075818	-0.003004	0.012567	0.103484	-0.644849	-0.111052	-0.749085	12.902061	-81.524028	-175.402907
43375		7.483400	-0.104665	1.276821	0.082478	0.389128	-2.230851	-0.671677	-0.176766	0.087995	-1.067139	0.145264	0.360840	0.074823	-0.000971	0.012838	0.101578	-0.645984	-0.108315	-0.748769	12.307876	-81.646180	-175.191712
43376		7.312481	0.094191	1.385895	0.287205	0.220732	-2.378260	-0.655437	-0.160112	0.122827	-1.069336	0.145264	0.354248	0.073113	0.001032	0.013914	0.099850	-0.647066	-0.105518	-0.748466	11.570578	-81.763778	-174.827341
43377		7.240260	0.263188	1.377917	0.355262	0.041276	-2.446459	-0.625319	-0.143897	0.172106	-1.069336	0.147461	0.360840	0.072390	0.002737	0.013823	0.098424	-0.648083	-0.102663	-0.748172	10.620362	-81.875869	-174.229747
43378		7.250898	0.367056	1.379329	0.399876	-0.077678	-2.433878	-0.590555	-0.125728	0.214594	-1.064941	0.147705	0.360840	0.072496	0.003789	0.013828	0.097270	-0.649028	-0.099792	-0.747892	9.491055	-81.980089	-173.431708
43379		7.398699	0.455595	1.250402	0.296232	-0.223016	-2.304407	-0.558700	-0.120989	0.255883	-1.060303	0.145508	0.367676	0.073973	0.004686	0.012536	0.096383	-0.649956	-0.096901	-0.747581	8.178706	-82.083144	-172.430223
43380		7.513330	0.545825	1.114439	0.190617	-0.372664	-2.209087	-0.521806	-0.121831	0.281070	-1.069336	0.147705	0.372070	0.075119	0.005593	0.011176	0.095700	-0.650878	-0.094068	-0.747229	6.758972	-82.185652	-171.299728
43381		7.683088	0.659587	0.982517	0.088326	-0.545511	-2.058670	-0.480760	-0.148574	0.297754	-1.067627	0.156494	0.373779	0.076814	0.006734	0.009866	0.095208	-0.651879	-0.091343	-0.746757	5.264904	-82.299978	-170.070287
43382		7.977625	0.764378	0.846599	-0.034588	-0.712851	-1.785603	-0.434299	-0.179293	0.288257	-1.065186	0.154297	0.371582	0.079757	0.007777	0.008521	0.094813	-0.652967	-0.088838	-0.746158	3.809522	-82.427880	-168.853620
43383		8.229591	0.848965	0.810183	-0.060391	-0.833104	-1.541924	-0.382220	-0.181984	0.275023	-1.065186	0.154297	0.378418	0.082277	0.008618	0.008160	0.094540	-0.654026	-0.086570	-0.745532	2.395454	-82.552045	-167.648634
43384		8.808261	0.970640	0.842434	-0.051596	-0.980933	-0.965522	-0.315068	-0.170507	0.263556	-1.062988	0.156738	0.380371	0.088062	0.009836	0.008484	0.094445	-0.655001	-0.084586	-0.744915	1.030046	-82.665716	-166.454438
43385		9.306998	0.933709	1.079437	0.123709	-0.923564	-0.443116	-0.266123	-0.125013	0.243723	-1.067871	0.163330	0.380127	0.093052	0.009465	0.010840	0.094459	-0.655772	-0.082825	-0.744433	-0.259752	-82.749511	-165.308268
43386		9.738202	0.616958	1.320805	0.238831	-0.593766	0.013201	-0.214809	-0.053608	0.217070	-1.067871	0.165527	0.382080	0.097372	0.006289	0.013227	0.094572	-0.656240	-0.081310	-0.744173	-1.418229	-82.789547	-164.264875
43387		10.450264	0.216238	1.450120	0.187069	-0.221253	0.735944	-0.137706	0.014751	0.203978	-1.065674	0.167725	0.382080	0.104501	0.002279	0.014492	0.094916	-0.656410	-0.080091	-0.744112	-2.472000	-82.788094	-163.282655
43388		11.189076	0.019051	1.641636	0.236525	-0.034640	1.493663	-0.027140	0.080484	0.201425	-1.065918	0.169922	0.377441	0.111897	0.000305	0.016371	0.095647	-0.656280	-0.079261	-0.744222	-3.435907	-82.746689	-162.326556
43389		10.940251	-0.071548	1.846536	0.437157	0.088848	1.273559	0.077424	0.133070	0.182471	-1.072754	0.172119	0.379639	0.109415	-0.000623	0.018392	0.096664	-0.655897	-0.078856	-0.744471	-4.223425	-82.674362	-161.488324
43390		10.574076	0.092971	2.072136	0.729084	-0.022762	0.938189	0.151686	0.181520	0.188850	-1.066162	0.176758	0.381592	0.105759	0.001014	0.020626	0.097975	-0.655293	-0.078685	-0.744850	-4.964185	-82.571728	-160.653507
43391		10.981997	0.302273	2.366468	0.999127	-0.196349	1.379224	0.197678	0.246747	0.252292	-1.068604	0.181152	0.378906	0.109845	0.003138	0.023532	0.099690	-0.654452	-0.078444	-0.745386	-5.899176	-82.427826	-159.596635
43392		11.174874	0.373800	2.515439	1.113841	-0.269872	1.590440	0.278076	0.337473	0.289262	-1.062012	0.185547	0.369629	0.111785	0.003865	0.024971	0.101852	-0.653248	-0.078335	-0.746162	-6.866722	-82.227970	-158.459323
43393		11.428402	0.339073	2.804750	1.318510	-0.211588	1.883744	0.302875	0.410464	0.279750	-1.066650	0.189941	0.367188	0.114336	0.003508	0.027818	0.104077	-0.651747	-0.078312	-0.747169	-7.681602	-81.984664	-157.461880
43394		11.914073	0.094270	2.974040	1.311379	0.003427	2.397097	0.341123	0.507971	0.293686	-1.069092	0.194336	0.357910	0.119214	0.001067	0.029439	0.106529	-0.649859	-0.078335	-0.748464	-8.425815	-81.682757	-156.512053
43395		12.316461	0.029750	2.991812	1.198787	0.003453	2.805131	0.439001	0.638364	0.311617	-1.073975	0.200928	0.353027	0.123259	0.000424	0.029526	0.109403	-0.647431	-0.078596	-0.750125	-9.037043	-81.304209	-155.640128
43396		13.361655	0.161546	3.205205	1.213170	-0.183248	3.874055	0.547665	0.777696	0.315292	-1.071533	0.200928	0.339600	0.133737	0.001739	0.031537	0.112708	-0.644404	-0.079174	-0.752178	-9.460242	-80.844491	-154.893477
43397		14.691536	0.224797	3.201694	0.933295	-0.390877	5.191225	0.620607	0.854208	0.301237	-1.074219	0.209717	0.334717	0.147047	0.002371	0.031396	0.116209	-0.641029	-0.080028	-0.754435	-9.690326	-80.343131	-154.300259
43398		13.663362	-0.121292	2.859015	0.557896	-0.126716	4.135348	0.658386	0.834659	0.195585	-1.078613	0.209717	0.323486	0.136753	-0.001172	0.028016	0.119430	-0.637642	-0.081371	-0.756656	-9.538003	-79.862143	-154.071674
43399		11.771483	-0.615308	2.743379	0.511448	0.429769	2.271417	0.696588	0.707442	0.101957	-1.076904	0.220703	0.309326	0.117814	-0.006188	0.026996	0.122355	-0.634662	-0.083232	-0.758490	-9.139309	-79.462699	-154.071672
43400		11.219532	-0.970817	2.181667	-0.106019	0.635466	1.640023	0.701672	0.556339	0.126177	-1.088135	0.220459	0.309326	0.112261	-0.009713	0.021470	0.125333	-0.632242	-0.085125	-0.759813	-8.896600	-79.145571	-153.909082
43401		10.912297	-1.299983	1.498247	-0.851182	0.756552	1.219800	0.714394	0.419483	0.154164	-1.079590	0.229492	0.299805	0.109164	-0.012969	0.014707	0.128386	-0.630340	-0.087062	-0.760664	-8.788732	-78.904570	-153.602445
43402		9.826292	-1.460062	1.015043	-1.206619	0.837800	0.064566	0.749932	0.295651	0.154851	-1.081787	0.229492	0.297607	0.098289	-0.014562	0.009950	0.131511	-0.628872	-0.089209	-0.761095	-8.718072	-78.733088	-153.235963
43403		8.701471	-1.770519	0.709361	-1.421238	1.121469	-1.090541	0.767335	0.172314	0.140175	-1.082031	0.233887	0.290527	0.087033	-0.017671	0.006951	0.134565	-0.627849	-0.091550	-0.761128	-8.641175	-78.633459	-152.866445
43404		8.876704	-2.243822	0.482553	-1.833939	1.466742	-0.949914	0.751273	0.056052	0.168502	-1.082275	0.240723	0.296875	0.088787	-0.022381	0.004717	0.137633	-0.627279	-0.093816	-0.760774	-8.704894	-78.596588	-152.361953
43405		10.019507	-2.815391	0.262307	-2.437974	1.810631	0.145404	0.756153	-0.033356	0.214133	-1.084717	0.244873	0.287598	0.100225	-0.028056	0.002534	0.140833	-0.627062	-0.096018	-0.760092	-8.927851	-78.606740	-151.692978
43406		10.341091	-2.734219	0.267551	-2.471446	1.678646	0.461539	0.880994	-0.037697	0.237445	-1.078125	0.249512	0.294189	0.103443	-0.027231	0.002575	0.144524	-0.626772	-0.098620	-0.759305	-9.154440	-78.616481	-150.946448
43407		10.128869	-1.899921	0.730742	-1.729980	1.043472	0.319240	1.004759	-0.021673	0.242105	-1.078369	0.256348	0.286865	0.101311	-0.018913	0.007223	0.148610	-0.626319	-0.101667	-0.758487	-9.309420	-78.616495	-150.201549
43408		10.082035	-1.074355	0.948219	-1.235095	0.329938	0.290106	0.977650	-0.016850	0.234811	-1.071777	0.258545	0.289063	0.100832	-0.010671	0.009438	0.152597	-0.625853	-0.104623	-0.757678	-9.465476	-78.614332	-149.470638
43409		10.079844	-0.860382	1.052100	-1.062582	0.151592	0.301578	0.879161	-0.006601	0.209517	-1.076416	0.262939	0.281982	0.100807	-0.008544	0.010487	0.156167	-0.625391	-0.107279	-0.756961	-9.593553	-78.608158	-148.826579
43410		10.242081	-1.035196	1.107484	-1.104956	0.303433	0.477374	0.799389	-0.000198	0.185880	-1.076660	0.269531	0.281738	0.102430	-0.010301	0.011034	0.159408	-0.624946	-0.109697	-0.756305	-9.703620	-78.600684	-148.247023
43411		10.542814	-1.186180	1.081161	-1.238287	0.389309	0.772299	0.761886	-0.007767	0.173585	-1.074707	0.276367	0.279053	0.105438	-0.011811	0.010771	0.162469	-0.624539	-0.112019	-0.755650	-9.798032	-78.598163	-147.705824
43412		10.286321	-1.058040	1.199986	-1.039588	0.330937	0.539971	0.763681	-0.011426	0.158235	-1.079590	0.282959	0.278564	0.102871	-0.010545	0.011965	0.165490	-0.624128	-0.114393	-0.754978	-9.858359	-78.598852	-147.197441
43413		9.626570	-0.841852	1.300399	-0.755271	0.233074	-0.094362	0.766065	-0.016044	0.148071	-1.079834	0.289551	0.275879	0.096271	-0.008397	0.012980	0.168458	-0.623715	-0.116814	-0.754292	-9.883027	-78.603285	-146.724951
43414		9.220548	-0.706709	1.199699	-0.725107	0.109162	-0.516477	0.758956	-0.024565	0.122264	-1.075195	0.287598	0.276123	0.092208	-0.007056	0.011982	0.171324	-0.623316	-0.119288	-0.753589	-9.855901	-78.614518	-146.308050
43415		9.111599	-0.482014	1.117373	-0.689480	-0.118167	-0.646840	0.777843	-0.026051	0.086477	-1.073242	0.291992	0.275879	0.091117	-0.004824	0.011167	0.174086	-0.622875	-0.121949	-0.752894	-9.706695	-78.630744	-146.006070
43416		8.960539	-0.124796	1.215200	-0.428324	-0.385206	-0.787628	0.787479	-0.023012	0.052403	-1.073242	0.291992	0.271240	0.089604	-0.001272	0.012157	0.176766	-0.622390	-0.124744	-0.752213	-9.465120	-78.648971	-145.791830
43417		8.865483	0.127175	1.262790	-0.262982	-0.576289	-0.879249	0.768871	-0.033241	0.002492	-1.068848	0.298828	0.268555	0.088653	0.001224	0.012647	0.179173	-0.621913	-0.127636	-0.751552	-9.087858	-78.677543	-145.727731
43418		8.754837	0.360450	1.345976	-0.069729	-0.728052	-0.977881	0.744372	-0.034390	-0.045396	-1.073242	0.296387	0.266602	0.087547	0.003534	0.013488	0.181342	-0.621426	-0.130579	-0.750929	-8.598922	-78.710930	-145.790764
43419		8.762303	0.367531	1.428252	0.004569	-0.684293	-0.953532	0.685770	-0.020474	-0.091134	-1.073730	0.305420	0.266113	0.087623	0.003586	0.014304	0.183143	-0.620899	-0.133435	-0.750426	-7.995609	-78.740216	-146.005728
43420		8.457926	0.286509	1.427124	0.014473	-0.561037	-1.248794	0.635457	-0.016971	-0.120855	-1.075684	0.300781	0.275391	0.084580	0.002769	0.014287	0.184700	-0.620379	-0.136185	-0.749980	-7.344181	-78.768987	-146.297801
43421		8.336417	0.415059	1.498105	0.150260	-0.613583	-1.356131	0.607484	-0.011942	-0.121582	-1.073242	0.294189	0.264404	0.083366	0.004054	0.014998	0.186146	-0.619858	-0.138831	-0.749567	-6.691083	-78.794607	-146.609206
43422		8.298997	0.622563	1.615114	0.349114	-0.724592	-1.373340	0.572072	-0.002274	-0.126845	-1.067139	0.307617	0.261475	0.082994	0.006127	0.016170	0.187476	-0.619335	-0.141347	-0.749198	-6.045408	-78.815560	-146.933401
43423		8.371131	0.647563	1.612956	0.341922	-0.735830	-1.301612	0.504154	0.009789	-0.161087	-1.075684	0.296387	0.264404	0.083717	0.006368	0.016142	0.188466	-0.618792	-0.143706	-0.748950	-5.327207	-78.829618	-147.371472
43424		8.413527	0.582949	1.785959	0.448410	-0.584700	-1.223513	0.446067	0.035059	-0.200441	-1.075684	0.296387	0.259766	0.084144	0.005705	0.017858	0.189167	-0.618182	-0.145938	-0.748845	-4.532688	-78.830482	-147.920158
43425		8.262935	0.446388	2.082726	0.656040	-0.292281	-1.309910	0.390645	0.065621	-0.226034	-1.073486	0.300781	0.259521	0.082641	0.004330	0.020809	0.189601	-0.617482	-0.148019	-0.748904	-3.678344	-78.812949	-148.563300
43426		8.260630	0.298730	2.315091	0.774289	-0.034430	-1.263645	0.319255	0.083602	-0.237486	-1.080078	0.296143	0.255371	0.082619	0.002852	0.023121	0.189800	-0.616775	-0.149845	-0.749073	-2.840256	-78.783988	-149.230727
43427		8.291794	0.260016	2.533288	0.922747	0.117002	-1.188663	0.262116	0.106677	-0.245841	-1.075684	0.296387	0.259766	0.082935	0.002465	0.025292	0.189793	-0.616024	-0.151465	-0.749368	-2.003795	-78.739776	-149.930850
43428		8.171143	0.272054	2.782831	1.146063	0.251092	-1.256452	0.192611	0.135163	-0.235934	-1.079834	0.291748	0.255615	0.081733	0.002597	0.027776	0.189645	-0.615242	-0.152763	-0.749784	-1.248403	-78.677704	-150.588187
43429		8.030056	0.351848	2.889936	1.281071	0.258005	-1.371741	0.091991	0.156892	-0.221827	-1.077637	0.289551	0.253418	0.080327	0.003416	0.028838	0.189241	-0.614479	-0.153622	-0.750336	-0.589201	-78.600940	-151.207230
43430		7.928996	0.348470	2.855266	1.247483	0.264692	-1.475024	0.008508	0.181625	-0.224950	-1.079834	0.289551	0.255859	0.079320	0.003394	0.028481	0.188599	-0.613704	-0.154152	-0.751023	0.015808	-78.509304	-151.819344
43431		7.773311	0.224619	2.738096	1.095523	0.341891	-1.648443	-0.096101	0.183394	-0.236127	-1.082031	0.289551	0.249023	0.077761	0.002168	0.027309	0.187583	-0.613006	-0.154324	-0.751811	0.589257	-78.414730	-152.461245
43432		7.613849	0.056570	2.625051	0.929254	0.458467	-1.825757	-0.184530	0.175242	-0.241278	-1.081787	0.282715	0.247314	0.076162	0.000498	0.026183	0.186288	-0.612423	-0.154182	-0.752637	1.107580	-78.324432	-153.097943
43433		7.568673	-0.107116	2.556354	0.785475	0.580408	-1.883162	-0.263583	0.158111	-0.242112	-1.079102	0.276123	0.240967	0.075706	-0.001129	0.025505	0.184716	-0.611969	-0.153765	-0.753479	1.584962	-78.241936	-153.740148
43434		7.635153	-0.227504	2.493877	0.649710	0.655787	-1.830548	-0.346566	0.151218	-0.232070	-1.079102	0.273926	0.247803	0.076368	-0.002320	0.024885	0.182935	-0.611620	-0.153008	-0.754350	1.974827	-78.162292	-154.340877
43435		7.936011	-0.436328	2.530980	0.517829	0.832828	-1.529285	-0.433010	0.156818	-0.222737	-1.090332	0.271484	0.243408	0.079375	-0.004397	0.025257	0.180916	-0.611335	-0.151893	-0.755293	2.288252	-78.079171	-154.915115
43436		8.392588	-0.549508	2.562802	0.397304	0.908293	-1.076407	-0.516784	0.160048	-0.232395	-1.089844	0.262451	0.246338	0.083940	-0.005526	0.025575	0.178615	-0.611103	-0.150485	-0.756310	2.568566	-77.993445	-155.504159
43437		8.755552	-0.742256	2.691431	0.342158	1.106014	-0.695995	-0.579165	0.180724	-0.240106	-1.089844	0.260254	0.241943	0.087571	-0.007450	0.026857	0.176097	-0.610836	-0.148847	-0.757439	2.829421	-77.895007	-156.110646
43438		9.006498	-0.874794	3.051013	0.537053	1.358946	-0.375751	-0.645488	0.214347	-0.241594	-1.087402	0.258057	0.246582	0.090087	-0.008758	0.030442	0.173397	-0.610489	-0.146931	-0.758714	3.043830	-77.776429	-156.708530
43439		9.387607	-0.942977	3.205720	0.554873	1.450065	0.030199	-0.698790	0.253581	-0.261143	-1.093994	0.251221	0.242432	0.093904	-0.009441	0.031971	0.170485	-0.610020	-0.144836	-0.760154	3.265353	-77.634642	-157.345457
43440		9.798403	-1.097235	3.205813	0.388789	1.548640	0.431354	-0.754924	0.312523	-0.288461	-1.091309	0.242432	0.249756	0.098018	-0.010993	0.031946	0.167341	-0.609344	-0.142557	-0.761823	3.503423	-77.457664	-158.032408
43441		9.632096	-1.223074	3.392850	0.509109	1.745523	0.310479	-0.773412	0.411805	-0.295365	-1.093506	0.239990	0.238525	0.096373	-0.012242	0.033777	0.164178	-0.608288	-0.140145	-0.763800	3.720307	-77.223086	-158.709298
43442		9.579207	-1.292899	3.578222	0.623819	1.876234	0.302990	-0.798833	0.493868	-0.307745	-1.097412	0.230957	0.234619	0.095860	-0.012934	0.035597	0.160941	-0.606921	-0.137602	-0.766035	3.923110	-76.941030	-159.387700
43443		9.622564	-1.318011	3.503509	0.501128	1.848407	0.333127	-0.825321	0.566842	-0.310147	-1.094971	0.222168	0.228516	0.096304	-0.013185	0.034817	0.157663	-0.605276	-0.134903	-0.768495	4.083959	-76.616238	-160.039107
43444		10.116759	-1.495274	3.430280	0.212879	1.923695	0.798878	-0.874700	0.625055	-0.321053	-1.094971	0.222168	0.228516	0.101250	-0.014966	0.034052	0.154221	-0.603415	-0.131999	-0.771157	4.216044	-76.256449	-160.691393
43445		11.233255	-1.639175	3.241988	-0.314453	1.877363	1.838909	-0.904019	0.658241	-0.345418	-1.101318	0.213135	0.222412	0.112410	-0.016440	0.032124	0.150621	-0.601419	-0.129024	-0.773926	4.357171	-75.877194	-161.370894
43446		13.255233	-1.412184	3.393331	-0.627321	1.551777	3.840446	-0.893603	0.700557	-0.346616	-1.103271	0.208496	0.215820	0.132646	-0.014201	0.033532	0.147065	-0.599230	-0.126057	-0.776792	4.478926	-75.473200	-162.025871
43447		17.748292	-0.783868	2.689508	-2.187522	0.350056	8.018206	-0.872254	0.666854	-0.366044	-1.105225	0.199463	0.211914	0.177557	-0.008048	0.026338	0.143477	-0.597124	-0.123251	-0.779530	4.638035	-75.087313	-162.707534
43448		15.544680	0.422944	3.275065	-0.790936	-0.403739	6.054011	-0.676159	0.756215	-0.282327	-1.114014	0.199463	0.203125	0.155575	0.004119	0.032149	0.140841	-0.594561	-0.120893	-0.782334	4.698924	-74.653572	-163.173013
43449		11.637341	0.947049	3.841245	0.804424	-0.416904	2.445306	-0.518001	0.571751	-0.173256	-1.104980	0.195068	0.196533	0.116491	0.009468	0.038055	0.138998	-0.592663	-0.118956	-0.784397	4.642430	-74.330655	-163.422825
43450		11.189717	-0.172917	2.965678	-0.320798	0.338327	1.755259	-0.534309	0.369680	-0.229749	-1.115723	0.185791	0.192627	0.111950	-0.001779	0.029455	0.136758	-0.591523	-0.117261	-0.785906	4.721332	-74.119623	-163.823695
43451		9.982901	-0.691779	2.361146	-0.760231	0.708246	0.416304	-0.450246	0.211992	-0.286448	-1.113525	0.186035	0.194824	0.099844	-0.007008	0.023521	0.134454	-0.590911	-0.116171	-0.786925	4.980462	-73.996401	-164.361916
43452		8.593288	0.195032	2.345724	-0.109247	-0.012509	-0.903538	-0.430414	0.015895	-0.302838	-1.113281	0.179199	0.197510	0.085938	0.001871	0.023446	0.132016	-0.591037	-0.115341	-0.787365	5.318950	-73.982427	-164.971824
43453		9.244352	0.812936	1.957016	-0.418689	-0.752824	-0.367756	-0.611790	-0.199951	-0.322763	-1.113037	0.177002	0.195313	0.092437	0.008040	0.019638	0.128852	-0.592121	-0.113995	-0.787270	5.631197	-74.090569	-165.661620
43454		9.904107	1.777226	1.499631	-0.670856	-1.833509	0.171645	-0.736149	-0.324467	-0.316663	-1.110840	0.174805	0.197754	0.099045	0.017671	0.015092	0.125258	-0.593766	-0.112221	-0.786867	5.897473	-74.268327	-166.377928
43455		10.209119	2.550313	1.223543	-0.733411	-2.647542	0.418629	-0.824899	-0.396114	-0.291594	-1.117188	0.163574	0.207520	0.102104	0.025405	0.012333	0.121469	-0.595754	-0.110064	-0.786263	6.084790	-74.488400	-167.063625
43456		10.871803	2.458526	0.683731	-1.413560	-2.743361	0.919677	-0.897291	-0.427157	-0.305231	-1.107666	0.152832	0.217041	0.108741	0.024450	0.006960	0.117380	-0.597875	-0.107682	-0.785603	6.282402	-74.723141	-167.802692
43457		10.591375	1.886293	0.543499	-1.634106	-2.192775	0.606142	-0.854480	-0.390919	-0.349935	-1.105225	0.150635	0.226074	0.105936	0.018701	0.005562	0.113271	-0.599799	-0.105575	-0.785026	6.601017	-74.935049	-168.640505
43458		10.136946	1.354730	0.618769	-1.595114	-1.602678	0.180447	-0.762241	-0.375526	-0.353786	-1.114258	0.148193	0.230713	0.101381	0.013392	0.006327	0.109402	-0.601595	-0.103836	-0.784431	7.002666	-75.136593	-169.510117
43459		10.514804	1.103009	0.755799	-1.618534	-1.302350	0.581206	-0.673258	-0.375958	-0.332022	-1.111572	0.141602	0.235596	0.105152	0.010881	0.007719	0.105910	-0.603343	-0.102373	-0.783760	7.416529	-75.338327	-170.337457
43460		11.403949	1.010571	0.940543	-1.672384	-1.159310	1.492837	-0.590764	-0.357813	-0.330622	-1.107178	0.139404	0.242432	0.114039	0.009945	0.009580	0.102661	-0.604968	-0.101222	-0.783089	7.893457	-75.528151	-171.181321
43461		11.710913	0.910984	1.198537	-1.514269	-0.962072	1.857492	-0.512590	-0.294823	-0.348627	-1.104492	0.128418	0.247559	0.117107	0.008937	0.012135	0.099627	-0.606287	-0.100394	-0.782567	8.444638	-75.678959	-172.054016
43462		11.235689	0.666468	1.508789	-1.160978	-0.585013	1.468762	-0.454345	-0.208842	-0.364791	-1.108887	0.130615	0.247559	0.112353	0.006494	0.015190	0.096728	-0.607233	-0.099803	-0.782273	9.056954	-75.778141	-172.955941
43463		10.543307	0.469899	1.780545	-0.782948	-0.265832	0.858241	-0.409446	-0.149099	-0.354658	-1.104004	0.121826	0.250244	0.105428	0.004549	0.017875	0.094055	-0.607917	-0.099323	-0.782129	9.652014	-75.841481	-173.812141
43464		9.811118	0.245428	1.815669	-0.625084	0.008727	0.148440	-0.416648	-0.131052	-0.332661	-1.108643	0.121582	0.250244	0.098103	0.002329	0.018216	0.091440	-0.608543	-0.098742	-0.782026	10.197992	-75.894863	-174.622450
43465		9.205067	-0.037512	1.754401	-0.601391	0.303520	-0.466097	-0.448840	-0.139333	-0.303356	-1.108154	0.110596	0.260010	0.092038	-0.000475	0.017609	0.088851	-0.609223	-0.097945	-0.781895	10.662782	-75.954068	-175.367185
43466		8.821074	-0.292008	1.849873	-0.472926	0.601174	-0.827502	-0.470244	-0.163324	-0.247741	-1.103760	0.112793	0.257568	0.088192	-0.002986	0.018578	0.086385	-0.610032	-0.096910	-0.781669	11.011951	-76.031853	-176.006017
43467		8.617136	-0.470776	1.920495	-0.387414	0.808993	-1.017213	-0.464507	-0.167856	-0.185960	-1.109863	0.099365	0.253906	0.086151	-0.004743	0.019288	0.084191	-0.610879	-0.095705	-0.781396	11.225217	-76.117885	-176.500375
43468		8.498386	-0.441924	1.840152	-0.410353	0.771845	-1.150132	-0.431002	-0.169899	-0.139174	-1.103516	0.108398	0.266846	0.084965	-0.004439	0.018483	0.082262	-0.611735	-0.094494	-0.781079	11.363629	-76.209294	-176.898630
43469		8.460300	-0.261203	1.763875	-0.411955	0.584754	-1.196162	-0.396356	-0.170530	-0.107835	-1.103271	0.104004	0.267090	0.084587	-0.002623	0.017716	0.080580	-0.612593	-0.093316	-0.780723	11.446138	-76.305084	-177.217792
43470		8.520526	-0.025362	1.677913	-0.433869	0.339225	-1.145966	-0.386659	-0.172142	-0.087193	-1.105469	0.101807	0.271729	0.085191	-0.000258	0.016853	0.078998	-0.613469	-0.092115	-0.780340	11.493603	-76.405160	-177.495624
43471		8.414445	0.159598	1.795349	-0.239240	0.191931	-1.212830	-0.366871	-0.153702	-0.069509	-1.103027	0.097412	0.269775	0.084131	0.001600	0.018015	0.077563	-0.614262	-0.090928	-0.779999	11.500978	-76.495756	-177.719861
43472		8.201213	0.185236	1.933198	-0.039304	0.202320	-1.387192	-0.341205	-0.142753	-0.042921	-1.098389	0.093018	0.267822	0.081999	0.001868	0.019387	0.076300	-0.615018	-0.089758	-0.779664	11.462716	-76.583870	-177.882819
43473		7.927394	0.082839	2.067782	0.140808	0.334668	-1.627681	-0.294575	-0.124137	-0.039384	-1.100830	0.095215	0.276611	0.079261	0.000843	0.020726	0.075217	-0.615677	-0.088748	-0.779364	11.428811	-76.661335	-178.021887
43474		7.618601	-0.184480	2.170490	0.260061	0.621182	-1.917459	-0.220037	-0.109400	-0.058322	-1.103271	0.099609	0.274170	0.076174	-0.001843	0.021749	0.074277	-0.616243	-0.088085	-0.779082	11.483820	-76.728446	-178.209451
43475		7.415895	-0.376081	2.139623	0.244093	0.804915	-2.131057	-0.117944	-0.098333	-0.077926	-1.109619	0.092773	0.279053	0.074147	-0.003777	0.021435	0.073600	-0.616717	-0.087872	-0.778795	11.632544	-76.786939	-178.432092
43476		7.366456	-0.355154	2.020088	0.154838	0.764101	-2.205866	-0.005280	-0.096147	-0.100355	-1.107422	0.092773	0.283447	0.073653	-0.003588	0.020236	0.073173	-0.617132	-0.088168	-0.778473	11.904216	-76.841493	-178.715279
43477		7.351005	-0.185908	2.092148	0.270442	0.625288	-2.197913	0.115984	-0.076778	-0.107043	-1.103027	0.097412	0.278809	0.073501	-0.001911	0.020949	0.073113	-0.617422	-0.088947	-0.778160	12.249854	-76.883954	-179.002397
43478		7.244817	0.091369	2.232494	0.493820	0.399066	-2.257780	0.213414	-0.056160	-0.088819	-1.100830	0.095215	0.281006	0.072442	0.000858	0.022346	0.073425	-0.617609	-0.090043	-0.777856	12.601819	-76.917337	-179.239250
43479		7.338739	0.227342	2.244248	0.518002	0.280675	-2.157734	0.256412	-0.057319	-0.074554	-1.107422	0.094971	0.278809	0.073382	0.002217	0.022466	0.073933	-0.617785	-0.091261	-0.777527	12.942864	-76.952245	-179.438973
43480		7.521805	0.173280	2.178094	0.405581	0.328921	-1.997384	0.291568	-0.055906	-0.062242	-1.100830	0.095215	0.281006	0.075212	0.001678	0.021804	0.074592	-0.617948	-0.092577	-0.777178	13.277065	-76.987782	-179.611400
43481		7.424040	0.065398	2.230638	0.456202	0.458470	-2.087529	0.358086	-0.061232	-0.063372	-1.105225	0.095215	0.283447	0.074234	0.000590	0.022330	0.075456	-0.618103	-0.094157	-0.776782	13.654558	-77.025814	-179.788685
43482		7.248933	-0.005738	2.355761	0.601029	0.571958	-2.235863	0.468633	-0.078202	-0.055267	-1.103271	0.099609	0.280762	0.072480	-0.000133	0.023586	0.076678	-0.618287	-0.096147	-0.776272	14.090126	-77.074462	-179.961049
43483		7.054815	-0.042675	2.328451	0.614327	0.617389	-2.434657	0.597040	-0.105902	-0.032149	-1.110107	0.104004	0.287354	0.070536	-0.000508	0.023320	0.078379	-0.618532	-0.098574	-0.775602	14.560342	-77.141115	179.907068
43484		6.992290	-0.042971	2.349160	0.653502	0.640256	-2.493159	0.702851	-0.129080	-0.003002	-1.107910	0.106201	0.287109	0.069908	-0.000513	0.023535	0.080511	-0.618836	-0.101327	-0.774786	15.036639	-77.225091	179.831156
43485		7.159619	0.031587	2.455057	0.741606	0.613828	-2.305248	0.812457	-0.129847	0.037383	-1.105469	0.099609	0.282959	0.071580	0.000229	0.024598	0.083135	-0.619107	-0.104381	-0.773886	15.482621	-77.314977	179.850738
43486		7.511748	0.198845	2.780096	1.019098	0.558006	-1.885212	0.898147	-0.082534	0.081954	-1.106201	0.115234	0.286621	0.075105	0.001894	0.027841	0.086215	-0.619172	-0.107605	-0.773055	15.839012	-77.385724	-179.987895
43487		8.019098	0.379547	2.968986	1.137531	0.455291	-1.341349	0.940463	-0.031404	0.114528	-1.101563	0.115234	0.282227	0.080184	0.003702	0.029720	0.089582	-0.619024	-0.110869	-0.772329	16.103369	-77.433593	-179.707074
43488		8.557129	0.571609	3.011811	1.114932	0.300626	-0.796662	0.984262	0.027557	0.142051	-1.101807	0.122070	0.288330	0.085571	0.005629	0.030134	0.093230	-0.618630	-0.114184	-0.771730	16.278270	-77.453894	-179.308662
43489		8.661967	0.721007	2.927142	1.054322	0.150286	-0.703161	1.060993	0.077803	0.140824	-1.106445	0.124023	0.288330	0.086626	0.007116	0.029276	0.097128	-0.617989	-0.117776	-0.771223	16.468116	-77.446403	-178.880802
43490		8.493218	0.909307	3.004897	1.214923	0.014371	-0.839688	1.104492	0.121203	0.122700	-1.099854	0.126465	0.274658	0.084945	0.008979	0.030047	0.101116	-0.617140	-0.121564	-0.770802	16.694526	-77.413931	-178.464958
43491		8.578179	1.095251	3.136625	1.369029	-0.099612	-0.716593	1.109840	0.148982	0.116516	-1.113525	0.130615	0.276855	0.085799	0.010828	0.031363	0.105108	-0.616148	-0.125377	-0.770451	16.921091	-77.364079	-178.045943
43492		8.814469	1.387279	3.470310	1.709783	-0.247306	-0.395794	1.084003	0.191415	0.142017	-1.111572	0.139648	0.273926	0.088168	0.013747	0.034693	0.109139	-0.614999	-0.128985	-0.770213	17.040217	-77.294862	-177.532098
43493		9.118588	1.894221	3.671133	1.984977	-0.640263	-0.021681	1.013408	0.228476	0.169940	-1.103027	0.146240	0.264648	0.091212	0.018834	0.036703	0.113084	-0.613750	-0.132212	-0.770093	17.026830	-77.210788	-176.923492
43494		9.651658	2.409005	3.737295	2.093305	-1.091632	0.548374	0.893800	0.259705	0.186644	-1.107666	0.150635	0.266602	0.096543	0.024013	0.037355	0.116753	-0.612441	-0.134902	-0.770121	16.881952	-77.111867	-176.249728
43495		10.335634	2.673802	3.933051	2.201046	-1.272314	1.276948	0.759738	0.302933	0.198610	-1.114502	0.155029	0.259521	0.103389	0.026691	0.039275	0.120075	-0.611042	-0.137016	-0.770348	16.612720	-76.991004	-175.527248
43496		10.745313	2.743250	4.117722	2.284568	-1.277192	1.723876	0.688418	0.372180	0.200760	-1.107910	0.159668	0.257080	0.107502	0.027399	0.041072	0.123243	-0.609409	-0.138801	-0.770822	16.255494	-76.831390	-174.755605
43497		10.437838	2.833587	4.406329	2.621412	-1.250845	1.499116	0.691062	0.469982	0.175216	-1.108154	0.161865	0.250244	0.104457	0.028275	0.043916	0.126376	-0.607371	-0.140615	-0.771594	15.913168	-76.612980	-173.997486
43498		10.307029	2.968719	4.703213	2.931580	-1.262888	1.455814	0.686382	0.557585	0.147924	-1.115234	0.172852	0.238281	0.103179	0.029602	0.046846	0.129458	-0.604968	-0.142432	-0.772637	15.589414	-76.341154	-173.260130
43499		11.932942	3.344651	5.232082	3.113733	-1.459630	3.192322	0.642350	0.647194	0.140331	-1.114990	0.163818	0.236572	0.119475	0.033363	0.052042	0.132429	-0.602230	-0.144045	-0.773972	15.228424	-76.017509	-172.509800
43500		15.319399	2.985183	4.510537	1.448840	-1.531598	6.296148	0.479929	0.682184	0.136266	-1.124268	0.172607	0.224854	0.153326	0.029849	0.044654	0.134929	-0.599443	-0.145013	-0.775522	14.785772	-75.671946	-171.769634
43501		15.507052	1.022806	4.150140	0.230947	0.096902	6.270673	0.381843	0.779972	-0.000016	-1.119629	0.170410	0.220459	0.155231	0.010150	0.040916	0.136664	-0.596240	-0.145943	-0.777510	14.554773	-75.252060	-171.305414
43502		12.706402	0.252242	4.922474	1.211006	1.200300	3.709099	0.386276	0.763302	-0.220326	-1.119873	0.177002	0.208984	0.127253	0.002288	0.048744	0.137546	-0.592922	-0.147555	-0.779584	14.803973	-74.808876	-171.334495
43503		13.442241	2.209604	3.721257	0.628598	-1.090472	4.252844	0.251730	0.502263	-0.247898	-1.123779	0.163574	0.205322	0.134543	0.021883	0.036902	0.137723	-0.590691	-0.148902	-0.780990	15.164676	-74.506621	-171.559403
43504		13.480950	2.879121	3.004898	0.185988	-1.971897	4.156261	0.089639	0.297622	-0.287590	-1.123779	0.163574	0.205322	0.134895	0.028584	0.029861	0.137118	-0.589335	-0.149872	-0.781934	15.609254	-74.310847	-171.967835
43505		11.599388	1.694237	3.188363	0.349605	-0.710136	2.309820	0.047180	0.084173	-0.399231	-1.121094	0.154541	0.203613	0.116041	0.016703	0.031839	0.135786	-0.588759	-0.151153	-0.782354	16.358186	-74.214009	-172.718286
43506		10.840339	0.634199	1.798952	-1.096459	-0.219092	1.137243	0.049331	-0.131278	-0.401668	-1.123291	0.152344	0.208252	0.108404	0.006120	0.018062	0.134280	-0.589023	-0.152596	-0.782135	17.235247	-74.232552	-173.601147
43507		11.453692	0.245927	0.701447	-2.371252	-0.271675	1.414188	0.136660	-0.290264	-0.290733	-1.123291	0.152344	0.208252	0.114530	0.002288	0.007182	0.133350	-0.589929	-0.154159	-0.781305	18.047192	-74.353158	-174.363686
43508		12.011692	-0.201922	0.311746	-3.012147	0.010919	1.821114	0.259675	-0.386022	-0.183775	-1.123291	0.150146	0.210449	0.120109	-0.002134	0.003347	0.133121	-0.591212	-0.155950	-0.780017	18.798657	-74.543134	-174.990029
43509		11.909978	-0.837638	0.120652	-3.367219	0.554987	1.629227	0.399847	-0.408914	-0.133532	-1.118896	0.152588	0.214844	0.119091	-0.008459	0.001433	0.133489	-0.592519	-0.158153	-0.778518	19.562255	-74.751951	-175.544745
43510		11.713261	-1.374923	0.029529	-3.571835	1.043506	1.378591	0.532132	-0.427869	-0.092879	-1.123535	0.154541	0.221436	0.117125	-0.013805	0.000509	0.134392	-0.593840	-0.160760	-0.776820	20.352408	-74.977224	-176.047819
43511		11.514752	-1.580304	-0.109326	-3.689816	1.203649	1.143370	0.680791	-0.437432	-0.090795	-1.121094	0.152588	0.230469	0.115142	-0.015852	-0.000895	0.135734	-0.595088	-0.163944	-0.774964	21.251472	-75.205773	-176.574983
43512		11.566725	-1.182041	-0.060854	-3.464723	0.887815	1.250647	0.749906	-0.440577	-0.114757	-1.116943	0.156982	0.228027	0.115661	-0.011885	-0.000398	0.137186	-0.596282	-0.167464	-0.773035	22.263500	-75.430126	-177.177467
43513		11.399583	-0.600613	0.110045	-2.999864	0.464422	1.192234	0.719953	-0.397533	-0.111453	-1.116455	0.150391	0.230713	0.113990	-0.006074	0.001305	0.138592	-0.597312	-0.170827	-0.771252	23.238974	-75.628269	-177.759316
43514		11.444344	-0.173280	0.166742	-2.746519	0.128824	1.299050	0.659390	-0.398857	-0.035040	-1.118896	0.154785	0.239502	0.114440	-0.001759	0.001890	0.140113	-0.598448	-0.173725	-0.769446	24.042363	-75.843156	-178.198771
43515		11.149091	-0.015949	-0.037475	-2.743127	-0.079501	0.993451	0.608765	-0.427688	0.042666	-1.116943	0.156982	0.239258	0.111491	-0.000135	-0.000137	0.141750	-0.599785	-0.176215	-0.767537	24.701345	-76.089284	-178.518931
43516		10.735725	0.100452	0.027343	-2.490407	-0.141102	0.629745	0.618016	-0.413076	0.130689	-1.114990	0.166016	0.245361	0.107356	0.001073	0.000498	0.143764	-0.601137	-0.178462	-0.765583	25.180631	-76.349511	-178.648326
43517		10.512132	0.212265	0.132081	-2.248969	-0.189467	0.457340	0.666144	-0.407425	0.217207	-1.108398	0.168457	0.247559	0.105116	0.002232	0.001542	0.146256	-0.602491	-0.180628	-0.763536	25.505487	-76.626600	-178.590323
43518		10.357464	0.421370	0.143310	-2.058536	-0.372403	0.341064	0.728555	-0.405861	0.279784	-1.103760	0.168457	0.247559	0.103565	0.004353	0.001659	0.149188	-0.603850	-0.182834	-0.761367	25.726454	-76.920322	-178.388425
43519		9.857947	0.608719	0.201653	-1.757208	-0.513614	-0.105035	0.796717	-0.397468	0.303868	-1.104248	0.175293	0.253906	0.098566	0.006228	0.002237	0.152407	-0.605125	-0.185222	-0.759137	25.928252	-77.214013	-178.127541
43520		9.328655	0.873803	0.292634	-1.386645	-0.706308	-0.568712	0.856932	-0.401323	0.326415	-1.100098	0.186523	0.255371	0.093266	0.008877	0.003151	0.155893	-0.606381	-0.187767	-0.756798	26.113761	-77.516645	-177.814765
43521		9.035387	1.034546	0.457754	-1.051961	-0.770628	-0.800622	0.865752	-0.404241	0.354090	-1.102539	0.188721	0.264160	0.090326	0.010485	0.004805	0.159497	-0.607645	-0.190260	-0.754406	26.240099	-77.826864	-177.436767
43522		8.819575	1.032518	0.472363	-0.940934	-0.764067	-1.003331	0.825552	-0.368941	0.371835	-1.104980	0.195313	0.266113	0.088167	0.010469	0.004929	0.163088	-0.608822	-0.192510	-0.752116	26.246481	-78.125662	-176.959685
43523		8.663490	0.788669	0.498888	-0.954625	-0.543503	-1.168610	0.768966	-0.316102	0.374440	-1.100830	0.199951	0.268066	0.086612	0.008029	0.005156	0.166552	-0.609822	-0.194497	-0.750032	26.141088	-78.395739	-176.402474
43524		8.709038	0.621870	0.409743	-1.078274	-0.452576	-1.150451	0.751175	-0.259907	0.351106	-1.098877	0.211182	0.267334	0.087074	0.006356	0.004234	0.169929	-0.610605	-0.196435	-0.748131	25.999367	-78.632749	-175.819092
43525		8.891583	0.704939	0.383188	-1.058951	-0.550252	-0.965102	0.778136	-0.195439	0.309138	-1.101563	0.217773	0.269287	0.088901	0.007172	0.003947	0.173288	-0.611057	-0.198546	-0.746432	25.887102	-78.823791	-175.250441
43526		8.867711	0.783136	0.603136	-0.799612	-0.514026	-0.940837	0.786338	-0.112476	0.258206	-1.099365	0.219971	0.271240	0.088664	0.007922	0.006112	0.176577	-0.611142	-0.200762	-0.744997	25.790787	-78.961245	-174.692908
43527		8.568272	0.842352	0.784373	-0.538531	-0.471633	-1.197143	0.782768	-0.059746	0.206359	-1.099609	0.229004	0.261719	0.085672	0.008481	0.007902	0.179696	-0.610960	-0.203079	-0.743772	25.762676	-79.056344	-174.207826
43528		8.137124	1.058715	0.969787	-0.174771	-0.552774	-1.570234	0.793584	-0.016565	0.156551	-1.102051	0.229004	0.261719	0.081362	0.010612	0.009747	0.182720	-0.610555	-0.205540	-0.742690	25.807240	-79.118435	-173.789804
43529		7.731013	1.281120	1.077933	0.118889	-0.673396	-1.932068	0.788208	0.015776	0.114942	-1.100098	0.235596	0.263672	0.077304	0.012813	0.010824	0.185587	-0.609974	-0.208081	-0.741749	25.924545	-79.151891	-173.449825
43530		7.461291	1.376006	1.056089	0.209709	-0.754329	-2.192544	0.724662	0.036693	0.069627	-1.095459	0.238037	0.259033	0.074610	0.013748	0.010597	0.188128	-0.609324	-0.210497	-0.740961	26.091846	-79.164539	-173.197010
43531		7.341993	1.353419	0.973046	0.156455	-0.771146	-2.325079	0.633495	0.044915	0.019576	-1.095703	0.242432	0.258789	0.073421	0.013510	0.009757	0.190195	-0.608664	-0.212723	-0.740340	26.338259	-79.159269	-173.078768
43532		7.243364	1.200438	0.951349	0.076758	-0.645533	-2.437741	0.529653	0.037553	-0.026593	-1.102539	0.242188	0.260986	0.072437	0.011970	0.009532	0.191790	-0.608083	-0.214703	-0.739834	26.647356	-79.147943	-173.083786
43533		6.988216	0.998484	1.193689	0.212146	-0.329857	-2.664037	0.428958	0.034320	-0.043224	-1.100098	0.235596	0.259033	0.069886	0.009944	0.011946	0.192989	-0.607582	-0.216369	-0.739448	26.958215	-79.132094	-173.150484
43534		6.718870	0.936725	1.410140	0.403888	-0.144837	-2.897121	0.330267	0.022835	-0.044517	-1.093506	0.240234	0.258789	0.067192	0.009329	0.014109	0.193879	-0.607226	-0.217683	-0.739123	27.227951	-79.123610	-173.232516
43535		6.771554	0.923682	1.636916	0.569449	-0.001150	-2.808235	0.231565	0.009172	-0.070198	-1.100098	0.239990	0.260986	0.067720	0.009194	0.016377	0.194350	-0.606975	-0.218725	-0.738897	27.530607	-79.113323	-173.406035
43536		7.166868	0.878524	1.653438	0.480917	0.044997	-2.421047	0.109719	0.016115	-0.112495	-1.102295	0.237793	0.256836	0.071675	0.008736	0.016533	0.194312	-0.606788	-0.219434	-0.738851	27.861679	-79.090753	-173.679292
43537		7.773040	0.705956	1.764700	0.355612	0.247051	-1.822369	0.008926	0.023897	-0.179159	-1.104492	0.233154	0.252441	0.077739	0.006989	0.017638	0.193721	-0.606579	-0.219970	-0.739018	28.299875	-79.043236	-174.120808
43538		8.071679	0.502586	1.989160	0.358722	0.546386	-1.510031	-0.063557	0.061945	-0.228244	-1.102051	0.231201	0.254883	0.080729	0.004940	0.019865	0.192776	-0.606248	-0.220349	-0.739424	28.763882	-78.963031	-174.630665
43539		8.156679	0.344884	2.307009	0.499289	0.864547	-1.387969	-0.112373	0.097066	-0.261692	-1.104004	0.226563	0.257324	0.081582	0.003355	0.023029	0.191592	-0.605793	-0.220615	-0.740024	29.229631	-78.854589	-175.171318
43540		8.459972	0.308212	2.608343	0.647630	1.069494	-1.043065	-0.170737	0.130426	-0.303022	-1.104004	0.222168	0.255371	0.084621	0.002976	0.026026	0.190114	-0.605231	-0.220758	-0.740822	29.709405	-78.717974	-175.760589
43541		8.738196	0.361684	2.916065	0.851392	1.203133	-0.712255	-0.238587	0.157194	-0.328508	-1.105957	0.219971	0.255615	0.087411	0.003508	0.029088	0.188366	-0.604597	-0.220701	-0.741803	30.160530	-78.558884	-176.360591
43542		8.931798	0.507140	3.241741	1.133848	1.269222	-0.450717	-0.305264	0.180764	-0.338618	-1.099121	0.215576	0.253662	0.089356	0.004970	0.032329	0.186401	-0.603933	-0.220404	-0.742928	30.552563	-78.385434	-176.939793
43543		9.165666	0.554162	3.404556	1.218320	1.322908	-0.186003	-0.371237	0.223818	-0.347899	-1.103516	0.215332	0.253662	0.091704	0.005445	0.033933	0.184252	-0.603147	-0.219847	-0.744266	30.851255	-78.186282	-177.462493
43544		9.336958	0.525088	3.547766	1.253738	1.427429	0.007273	-0.410122	0.269255	-0.380159	-1.107422	0.199707	0.245605	0.093427	0.005146	0.035341	0.181920	-0.602201	-0.219197	-0.745796	31.123786	-77.956874	-177.981506
43545		9.362336	0.435171	3.593235	1.201832	1.530585	0.034486	-0.433892	0.298966	-0.421575	-1.109619	0.199707	0.254639	0.093686	0.004232	0.035783	0.179386	-0.601101	-0.218556	-0.747483	31.421171	-77.697960	-178.540480
43546		9.218201	0.407877	3.642147	1.219655	1.585397	-0.096431	-0.450827	0.315709	-0.458050	-1.109375	0.190674	0.241699	0.092248	0.003949	0.036267	0.176672	-0.599916	-0.217946	-0.749258	31.753047	-77.420155	-179.145798
43547		9.297429	0.440044	3.564324	1.115589	1.522380	-0.026069	-0.478854	0.299062	-0.482973	-1.111572	0.188477	0.244141	0.093038	0.004261	0.035494	0.173770	-0.598774	-0.217317	-0.751031	32.119264	-77.141237	-179.802923
43548		9.675725	0.542703	3.614967	1.086008	1.469793	0.367798	-0.523088	0.298065	-0.488907	-1.115234	0.172852	0.236084	0.096824	0.005285	0.035991	0.170708	-0.597664	-0.216535	-0.752840	32.452971	-76.860664	179.546424
43549		10.210495	0.617956	3.594270	0.942430	1.402053	0.897156	-0.577211	0.323696	-0.481376	-1.119385	0.163818	0.241211	0.102178	0.006037	0.035760	0.167539	-0.596499	-0.215504	-0.754770	32.686044	-76.568763	178.966699
43550		10.586128	0.386926	3.776176	0.839816	1.698038	1.272730	-0.645203	0.387619	-0.468466	-1.119385	0.163818	0.234375	0.105943	0.003743	0.037544	0.164259	-0.595151	-0.214126	-0.756944	32.764653	-76.248624	178.504003
43551		10.607806	0.122682	3.977219	0.816717	2.023026	1.304819	-0.714992	0.467197	-0.446861	-1.118652	0.148193	0.230713	0.106173	0.001131	0.039520	0.160957	-0.593572	-0.212344	-0.759392	32.642803	-75.897913	178.207043
43552		10.668712	-0.008071	4.239957	0.899851	2.257966	1.407395	-0.773369	0.538456	-0.446949	-1.118408	0.143555	0.224365	0.106800	-0.000156	0.042113	0.157534	-0.591754	-0.210283	-0.762097	32.405058	-75.512173	177.993688
43553		10.924798	0.101570	4.419377	0.975812	2.236621	1.717155	-0.829621	0.627864	-0.451141	-1.127197	0.136719	0.218018	0.109388	0.000951	0.043846	0.154038	-0.589618	-0.207938	-0.765104	32.033830	-75.082892	177.885618
43554		12.048519	0.142623	4.530609	0.722302	2.240705	2.843155	-0.889542	0.708339	-0.453026	-1.124268	0.121094	0.214600	0.120648	0.001353	0.044873	0.150412	-0.587193	-0.205307	-0.768394	31.557771	-74.612306	177.849187
43555		14.415805	0.318043	3.944356	-0.416084	1.798706	5.021895	-0.882772	0.739390	-0.517952	-1.128662	0.121094	0.207764	0.144310	0.002979	0.038897	0.146607	-0.584560	-0.202856	-0.771781	31.170373	-74.108996	177.725803
43556		15.731832	0.879223	3.715643	-0.835605	1.198254	6.309777	-0.811235	0.747359	-0.553440	-1.128418	0.114258	0.201416	0.157479	0.008506	0.036533	0.142837	-0.581784	-0.200781	-0.775121	30.894500	-73.589719	177.526832
43557		13.734399	1.281736	4.059537	0.080561	0.973080	4.533114	-0.718616	0.647423	-0.487067	-1.132568	0.107422	0.199707	0.137505	0.012627	0.040105	0.139528	-0.579378	-0.198927	-0.777998	30.650404	-73.141106	177.351429
43558		12.515422	1.259385	3.810656	0.130007	0.853708	3.302071	-0.582282	0.366738	-0.409187	-1.132324	0.098633	0.193359	0.125249	0.012448	0.037841	0.136607	-0.578041	-0.197574	-0.779853	30.635404	-72.853679	177.016317
43559		12.118637	1.380852	2.828328	-0.579719	0.297117	2.691033	-0.425638	0.108009	-0.448861	-1.140869	0.089600	0.196289	0.121232	0.013597	0.028189	0.133755	-0.577553	-0.197115	-0.780825	31.001717	-72.681659	176.377014
43560		9.921084	2.253190	2.260118	-0.052445	-0.746598	0.582149	-0.307672	-0.115413	-0.468790	-1.134033	0.085205	0.198730	0.099250	0.022334	0.022624	0.130903	-0.577838	-0.197333	-0.781042	31.682666	-72.610525	175.476531
43561		9.044023	3.241435	1.371422	-0.125928	-2.013040	-0.319863	-0.309970	-0.345602	-0.457401	-1.133789	0.078613	0.203613	0.090490	0.032229	0.013821	0.127902	-0.579024	-0.197646	-0.780582	32.552558	-72.651782	174.378557
43562		8.995008	4.100585	0.971991	-0.079988	-2.916162	-0.317471	-0.392974	-0.500816	-0.456159	-1.131104	0.071777	0.201904	0.090019	0.040820	0.009865	0.124512	-0.580863	-0.197725	-0.779743	33.534082	-72.762907	173.114045
43563		9.160914	4.633662	1.108872	0.221678	-3.277929	-0.023478	-0.535429	-0.577830	-0.440869	-1.135498	0.065186	0.208984	0.091679	0.046165	0.011230	0.120688	-0.583095	-0.197253	-0.778798	34.507560	-72.908846	171.773676
43564		9.568444	4.581185	0.810643	-0.168204	-3.304242	0.299337	-0.711401	-0.617825	-0.418277	-1.126221	0.061035	0.229492	0.095755	0.045641	0.008240	0.116398	-0.585598	-0.196045	-0.777877	35.407385	-73.074727	170.405840
43565		9.829620	3.876521	0.580624	-0.724255	-2.718647	0.388794	-0.877776	-0.618018	-0.403375	-1.128174	0.052002	0.232178	0.098356	0.038593	0.005940	0.111673	-0.588195	-0.194145	-0.777087	36.212013	-73.239490	169.039245
43566		9.648952	2.756077	0.494139	-1.186503	-1.716499	0.015237	-1.003064	-0.614493	-0.351706	-1.125732	0.047607	0.239258	0.096522	0.027416	0.005100	0.106782	-0.590878	-0.191594	-0.776371	36.881808	-73.415389	167.739605
43567		9.333364	2.027766	0.553287	-1.311848	-1.014914	-0.390453	-1.019114	-0.605661	-0.296540	-1.134277	0.038574	0.250977	0.093346	0.020168	0.005713	0.102060	-0.593565	-0.188809	-0.775639	37.468669	-73.602015	166.518170
43568		9.230849	2.258266	0.815208	-0.940579	-1.089683	-0.383971	-0.908984	-0.576998	-0.287439	-1.129883	0.038818	0.255371	0.092317	0.022488	0.008316	0.097726	-0.596074	-0.186400	-0.774855	38.089988	-73.775465	165.327677
43569		9.518542	2.715158	0.778919	-0.859111	-1.467437	-0.030567	-0.858596	-0.559917	-0.337272	-1.127197	0.029785	0.262695	0.095209	0.027025	0.007940	0.093360	-0.598426	-0.184323	-0.774077	38.815671	-73.919274	164.059578
43570		9.732208	2.908064	0.810157	-0.802317	-1.576711	0.222211	-0.862065	-0.539242	-0.415466	-1.126953	0.025391	0.269775	0.097360	0.028914	0.008239	0.088699	-0.600611	-0.182451	-0.773376	39.650364	-74.021054	162.676788
43571		9.266742	2.883381	0.634190	-0.835781	-1.616176	-0.258743	-0.844326	-0.544983	-0.486494	-1.122070	0.012207	0.274902	0.092720	0.028635	0.006473	0.083806	-0.602726	-0.180858	-0.772650	40.624888	-74.092772	161.159732
43572		9.085877	2.602805	0.915504	-0.623735	-1.221193	-0.416658	-0.906093	-0.530079	-0.503188	-1.121826	0.010010	0.277344	0.090899	0.025841	0.009279	0.078676	-0.604776	-0.179064	-0.772006	41.579701	-74.145049	159.626908
43573		9.173046	1.866118	0.709397	-1.070714	-0.565473	-0.503335	-1.017559	-0.495839	-0.471141	-1.121338	-0.003418	0.291504	0.091756	0.018482	0.007227	0.073358	-0.606742	-0.176724	-0.771525	42.383519	-74.188271	158.184946
43574		8.932347	1.110351	0.604855	-1.336608	0.116146	-0.891624	-1.014931	-0.480584	-0.459208	-1.118652	-0.012207	0.294434	0.089334	0.010930	0.006207	0.068107	-0.608639	-0.174345	-0.771054	43.156018	-74.224627	156.777480
43575		8.775599	0.700173	0.786021	-1.241618	0.585945	-1.081474	-0.990181	-0.438652	-0.440208	-1.111572	-0.018799	0.294678	0.087754	0.006848	0.008019	0.063037	-0.610358	-0.171983	-0.770656	43.860009	-74.245789	155.456033
43576		8.581476	0.705423	0.846091	-1.116182	0.616262	-1.255267	-0.925338	-0.403020	-0.400778	-1.122559	-0.030029	0.304443	0.085811	0.006922	0.008602	0.058346	-0.611937	-0.169734	-0.770272	44.496032	-74.264222	154.244035
43577		8.314242	0.880486	0.907354	-0.923838	0.472167	-1.467110	-0.841121	-0.368381	-0.354875	-1.117920	-0.030029	0.306641	0.083141	0.008696	0.009190	0.054117	-0.613377	-0.167655	-0.769891	45.066086	-74.283263	153.150710
43578		8.109272	1.072324	0.945698	-0.767809	0.304635	-1.619878	-0.778821	-0.332734	-0.310881	-1.115479	-0.034424	0.313721	0.081093	0.010634	0.009550	0.050278	-0.614689	-0.165666	-0.769535	45.559519	-74.303517	152.174259
43579		7.884643	1.146272	0.922166	-0.702637	0.219769	-1.825830	-0.723843	-0.290780	-0.277746	-1.117432	-0.043213	0.312012	0.078849	0.011387	0.009295	0.046768	-0.615839	-0.163774	-0.769242	45.977218	-74.318098	151.309178
43580		7.827654	1.193448	0.955835	-0.634072	0.195439	-1.864742	-0.659236	-0.266738	-0.242861	-1.114990	-0.045410	0.316650	0.078278	0.011871	0.009624	0.043612	-0.616903	-0.162014	-0.768947	46.348890	-74.336373	150.530515
43581		7.949268	1.278423	0.937751	-0.646797	0.140439	-1.733918	-0.605899	-0.245457	-0.208117	-1.114746	-0.052002	0.316895	0.079494	0.012730	0.009436	0.040768	-0.617891	-0.160346	-0.768660	46.671598	-74.358996	149.834418
43582		7.854241	1.268041	1.052705	-0.510913	0.183295	-1.805779	-0.524330	-0.193962	-0.178930	-1.112549	-0.052002	0.321533	0.078543	0.012638	0.010570	0.038332	-0.618684	-0.158889	-0.768450	46.925022	-74.373114	149.258960
43583		7.662268	1.250381	1.244485	-0.284527	0.237646	-1.958701	-0.450683	-0.142057	-0.142153	-1.110107	-0.056396	0.323975	0.076623	0.012477	0.012471	0.036304	-0.619285	-0.157590	-0.768331	47.091543	-74.381350	148.817486
43584		7.377854	1.260749	1.212946	-0.241442	0.183944	-2.236322	-0.378066	-0.107258	-0.107062	-1.109863	-0.060791	0.326416	0.073779	0.012591	0.012145	0.034664	-0.619767	-0.156454	-0.768251	47.199305	-74.390940	148.480339
43585		7.210334	1.299840	1.371414	-0.040476	0.171121	-2.360952	-0.302144	-0.090601	-0.085959	-1.112305	-0.058838	0.319580	0.072103	0.012988	0.013727	0.033352	-0.620184	-0.155541	-0.768158	47.295826	-74.402308	148.199949
43586		7.122991	1.467426	1.466215	0.113632	0.028097	-2.394708	-0.258278	-0.093360	-0.071646	-1.109863	-0.060791	0.324219	0.071228	0.014668	0.014676	0.032230	-0.620616	-0.154752	-0.768016	47.402627	-74.421110	147.935092
43587		7.016237	1.615951	1.405410	0.120475	-0.143184	-2.479268	-0.218603	-0.093413	-0.072690	-1.112061	-0.061035	0.324219	0.070162	0.016149	0.014069	0.031226	-0.621037	-0.154118	-0.767845	47.533593	-74.438880	147.668679
43588		6.981203	1.638525	1.446268	0.176476	-0.155584	-2.501169	-0.170404	-0.088918	-0.078909	-1.112061	-0.065430	0.326660	0.069812	0.016370	0.014480	0.030353	-0.621430	-0.153688	-0.767648	47.694970	-74.452555	147.399477
43589		7.144811	1.763936	1.625316	0.342983	-0.198021	-2.286427	-0.102104	-0.090375	-0.084590	-1.114258	-0.063232	0.333252	0.071448	0.017617	0.016276	0.029667	-0.621811	-0.153538	-0.767396	47.905370	-74.463690	147.119934
43590		7.341803	2.061433	1.698465	0.444002	-0.426454	-2.024405	-0.008907	-0.094139	-0.081423	-1.109863	-0.065430	0.331299	0.073418	0.020585	0.017018	0.029282	-0.622197	-0.153735	-0.767058	48.171548	-74.477745	146.838033
43591		7.603372	2.402572	2.058819	0.813471	-0.606266	-1.639986	0.084792	-0.074544	-0.085330	-1.114258	-0.067627	0.333740	0.076036	0.023985	0.020627	0.029186	-0.622489	-0.154302	-0.766712	48.466400	-74.481853	146.582007
43592		8.047775	2.483855	2.452708	1.111995	-0.500102	-1.125608	0.123316	-0.040748	-0.088437	-1.114502	-0.056641	0.326172	0.080484	0.024788	0.024559	0.029190	-0.622652	-0.155011	-0.766436	48.742089	-74.471047	146.365255
43593		8.671162	2.491637	2.715895	1.226776	-0.330258	-0.476772	0.192321	0.016298	-0.104492	-1.111816	-0.069824	0.329346	0.086727	0.024845	0.027176	0.029426	-0.622564	-0.156036	-0.766290	48.983281	-74.431995	146.228842
43594		9.264821	2.453773	2.861975	1.222080	-0.149141	0.113695	0.292178	0.075977	-0.116012	-1.111816	-0.067627	0.333496	0.092673	0.024442	0.028620	0.029977	-0.622223	-0.157470	-0.766253	49.203258	-74.365600	146.173847
43595		9.566334	2.403581	3.235327	1.488800	0.066468	0.460496	0.402000	0.147923	-0.085008	-1.114258	-0.063232	0.328857	0.095697	0.023930	0.032331	0.031043	-0.621611	-0.159217	-0.766346	49.332871	-74.285539	146.278015
43596		9.566737	2.501604	3.578194	1.826250	0.090456	0.543013	0.517552	0.198457	-0.046703	-1.114258	-0.065430	0.324463	0.095709	0.024901	0.035752	0.032653	-0.620818	-0.161277	-0.766491	49.401218	-74.203623	146.514266
43597		9.367209	2.630178	3.734624	2.040574	0.006086	0.407186	0.595256	0.207186	-0.036095	-1.116699	-0.063232	0.324463	0.093715	0.026174	0.037327	0.034554	-0.619979	-0.163602	-0.766594	49.486591	-74.122863	146.779599
43598		9.049262	2.784880	3.682256	2.097156	-0.178302	0.125814	0.655236	0.170507	-0.019639	-1.112549	-0.054199	0.328369	0.090527	0.027719	0.036836	0.036671	-0.619278	-0.166108	-0.766523	49.641964	-74.063166	147.007592
43599		9.157035	3.035261	3.798600	2.246557	-0.336168	0.303309	0.677976	0.121778	-0.012775	-1.110352	-0.052002	0.323730	0.091595	0.030218	0.038033	0.038847	-0.618757	-0.168688	-0.766273	49.875651	-74.024618	147.168121
43600		9.573413	3.165827	3.804887	2.196821	-0.366137	0.731966	0.639043	0.054310	-0.020894	-1.116943	-0.052002	0.325928	0.095748	0.031527	0.038124	0.040814	-0.618491	-0.171155	-0.765839	50.200793	-74.007923	147.210291
43601		9.814796	2.962126	3.645975	1.947235	-0.160180	0.891522	0.604197	-0.003625	-0.022486	-1.119141	-0.054443	0.326172	0.098151	0.029500	0.036551	0.042617	-0.618444	-0.173505	-0.765250	50.596631	-74.011383	147.158197
43602		10.170442	2.810444	3.622053	1.812915	0.054609	1.194858	0.584001	-0.018044	-0.017132	-1.112549	-0.049805	0.330322	0.101704	0.027990	0.036312	0.044363	-0.618457	-0.175760	-0.764625	50.996895	-74.022463	147.089177
43603		10.848601	3.030382	3.689318	1.794609	-0.001554	1.903359	0.580501	-0.007118	-0.002690	-1.119629	-0.043213	0.334473	0.108485	0.030195	0.036985	0.046165	-0.618435	-0.177956	-0.764028	51.359983	-74.035819	147.057030
43604		11.122567	3.075325	3.721312	1.785435	0.030977	2.180165	0.568631	0.042057	0.030215	-1.115479	-0.036377	0.329590	0.111229	0.030664	0.037277	0.048098	-0.618254	-0.179990	-0.763578	51.598859	-74.046568	147.146772
43605		10.882453	3.068362	3.834072	1.948650	0.057069	1.966202	0.600775	0.129694	0.074254	-1.115479	-0.038574	0.331787	0.108838	0.030609	0.038362	0.050378	-0.617763	-0.181989	-0.763355	51.663258	-74.045762	147.437364
43606		10.797348	3.154005	3.937719	2.088082	0.012742	1.920847	0.626381	0.215975	0.117294	-1.120361	-0.029785	0.324707	0.107998	0.031480	0.039359	0.052980	-0.616970	-0.183929	-0.763355	51.553243	-74.033752	147.924566
43607		10.840380	3.228101	3.881499	2.039498	-0.062884	1.970223	0.636598	0.311942	0.161817	-1.115967	-0.025391	0.322021	0.108438	0.032245	0.038749	0.055870	-0.615841	-0.185743	-0.763622	51.244380	-74.006682	148.624810
43608		10.671327	3.024123	3.922127	2.034309	0.113688	1.774125	0.686204	0.427178	0.237394	-1.115967	-0.025391	0.317627	0.106761	0.030234	0.039097	0.059310	-0.614318	-0.187478	-0.764165	50.691475	-73.970305	149.608675
43609		10.487243	3.046690	4.179902	2.292772	0.152319	1.652740	0.771011	0.564114	0.275985	-1.125244	-0.016602	0.314941	0.104948	0.030451	0.041620	0.063283	-0.612270	-0.189376	-0.765021	49.934194	-73.897655	150.856005
43610		10.904188	3.199654	4.341031	2.348146	0.118578	2.122788	0.751963	0.646137	0.234489	-1.123291	-0.010010	0.305420	0.109144	0.031962	0.043178	0.067114	-0.609860	-0.191295	-0.766141	49.106782	-73.771582	152.165456
43611		11.029419	2.898997	4.414898	2.232159	0.427297	2.203059	0.673094	0.679694	0.225059	-1.132568	-0.005615	0.300781	0.110411	0.028966	0.043871	0.070700	-0.607324	-0.192927	-0.767423	48.215279	-73.623357	153.495673
43612		12.916649	2.895572	4.203724	1.499402	0.569896	3.983035	0.610327	0.714860	0.152006	-1.130615	0.000977	0.289063	0.129294	0.028926	0.041664	0.073848	-0.604590	-0.194521	-0.768882	47.353563	-73.424826	154.758445
43613		18.573061	2.272684	2.328540	-1.940705	1.082887	8.911797	0.340794	0.447344	-0.061909	-1.130371	-0.001221	0.287109	0.185789	0.022630	0.022909	0.075097	-0.602768	-0.195823	-0.769860	47.013879	-73.236903	155.316415
43614		14.079810	0.254923	2.779358	-1.129200	2.544795	4.268489	0.544156	0.398617	0.075931	-1.135010	-0.001465	0.282471	0.140852	0.002528	0.027520	0.077442	-0.601185	-0.197508	-0.770435	46.687007	-73.124694	155.983125
43615		7.933119	1.977363	2.976796	1.273859	0.324604	-1.211666	0.796901	0.046258	0.261102	-1.133057	0.009766	0.284180	0.079312	0.019758	0.029828	0.080910	-0.601038	-0.199744	-0.769617	46.752591	-73.227765	156.391175
43616		6.042757	2.522819	1.428887	0.622372	-1.008804	-3.216021	0.563275	-0.518594	0.326341	-1.124512	0.016602	0.292725	0.060349	0.025286	0.014517	0.083361	-0.603211	-0.201109	-0.767296	47.389501	-73.579285	156.062740
43617		6.302468	1.930445	0.730163	-0.228301	-0.720434	-3.224111	0.612743	-0.837522	0.322854	-1.122070	0.014648	0.301758	0.062962	0.019383	0.007625	0.085625	-0.606571	-0.202803	-0.763944	48.555456	-74.050214	155.213804
43618		7.332244	1.274363	0.445440	-0.914731	-0.111117	-2.414401	0.781840	-0.907505	0.191867	-1.120361	0.023682	0.310059	0.073289	0.012796	0.004837	0.087828	-0.609972	-0.205563	-0.760240	50.164399	-74.484480	154.007027
43619		9.349659	0.436128	0.770484	-1.355758	1.045892	-0.578652	0.867811	-0.865664	0.036077	-1.120361	0.023682	0.321289	0.093461	0.004343	0.008128	0.089740	-0.612993	-0.209099	-0.756614	52.037598	-74.824054	152.579753
43620		11.579294	-0.507603	1.229643	-1.758843	2.397871	1.456998	0.972109	-0.772657	0.007000	-1.114014	0.034912	0.329590	0.115745	-0.005133	0.012719	0.091956	-0.615560	-0.213068	-0.753148	53.919375	-75.105647	151.207357
43621		12.127731	-1.081906	1.283428	-1.991518	3.037209	1.879547	1.130397	-0.703920	0.162544	-1.116211	0.034912	0.334229	0.121240	-0.010794	0.013200	0.095314	-0.617936	-0.217115	-0.749621	55.635950	-75.426035	150.101681
43622		10.535760	-1.060114	0.987851	-1.829003	2.700830	0.309658	1.239785	-0.663056	0.371429	-1.112061	0.041748	0.335938	0.105344	-0.010468	0.010163	0.099835	-0.620302	-0.220894	-0.745965	57.141918	-75.825282	149.279814
43623		9.261847	-0.810364	0.605395	-1.726381	2.144445	-0.911811	1.220278	-0.709348	0.484690	-1.101074	0.048584	0.348877	0.092616	-0.007917	0.006334	0.104659	-0.622942	-0.224262	-0.742089	58.657462	-76.287886	148.438231
43624		8.867196	-0.314061	0.377267	-1.560116	1.548908	-1.208351	1.243092	-0.764455	0.475436	-1.104004	0.062012	0.357178	0.088664	-0.002955	0.004093	0.109451	-0.625726	-0.227757	-0.737980	60.392944	-76.755905	147.385206
43625		8.784828	0.749918	0.543361	-0.844429	0.694368	-1.047129	1.338560	-0.784814	0.389226	-1.097412	0.066650	0.365723	0.087811	0.007632	0.005829	0.114194	-0.628398	-0.231873	-0.733697	62.433482	-77.177887	146.077517
43626		8.528395	1.761120	0.666011	-0.137123	-0.133419	-1.081064	1.390603	-0.815333	0.331709	-1.088623	0.073730	0.376709	0.085226	0.017704	0.007131	0.118845	-0.631043	-0.236360	-0.729242	64.751298	-77.566710	144.517883
43627		8.416777	2.432458	0.575388	0.221075	-0.739277	-1.066622	1.392000	-0.859695	0.356827	-1.084961	0.091553	0.391113	0.084098	0.024432	0.006285	0.123534	-0.633835	-0.240785	-0.724579	67.275761	-77.964181	142.750437
43628		8.798847	2.847212	0.529124	0.431346	-1.034203	-0.617611	1.409562	-0.888469	0.384676	-1.080566	0.093994	0.386475	0.087908	0.028601	0.005883	0.128331	-0.636713	-0.245183	-0.719732	70.003175	-78.365357	140.787948
43629		9.132115	3.113358	0.549469	0.647470	-1.167090	-0.241489	1.448275	-0.833957	0.325594	-1.076416	0.100830	0.399658	0.091246	0.031239	0.006101	0.133100	-0.639245	-0.249859	-0.714997	72.814579	-78.704193	138.765592
43630		9.017296	3.142727	0.570522	0.807145	-1.147757	-0.349920	1.438859	-0.738376	0.170688	-1.072510	0.112061	0.410156	0.090124	0.031460	0.006264	0.137390	-0.641203	-0.254912	-0.710635	75.607916	-78.922341	136.757434
43631		8.691268	3.038776	0.422943	0.768521	-1.129565	-0.697657	1.393278	-0.678584	0.051119	-1.079102	0.111816	0.410156	0.086889	0.030378	0.004736	0.141182	-0.642787	-0.260132	-0.706558	78.366653	-79.047197	134.759773
43632		8.006054	3.125609	0.672109	1.191179	-1.100797	-1.345882	1.337580	-0.536116	-0.031913	-1.066162	0.121094	0.409424	0.080047	0.031196	0.007144	0.144670	-0.643764	-0.265305	-0.703031	80.766143	-79.092716	133.095243
43633		7.253297	3.028727	0.716435	1.331063	-1.048868	-2.103956	1.221620	-0.418605	-0.047527	-1.070557	0.121094	0.423096	0.072525	0.030225	0.007501	0.147888	-0.644359	-0.270025	-0.700012	82.771357	-79.108042	131.765559
43634		6.941199	2.578785	0.534484	1.016412	-0.789233	-2.501064	1.015683	-0.382646	-0.044209	-1.068115	0.118896	0.414063	0.069407	0.025744	0.005608	0.150488	-0.644961	-0.273976	-0.697363	84.553975	-79.113942	130.541588
43635		7.132196	2.257205	0.223184	0.592356	-0.649923	-2.380354	0.796231	-0.295793	-0.066393	-1.061523	0.121338	0.420654	0.071326	0.022539	0.002427	0.152427	-0.645381	-0.277163	-0.695292	85.958815	-79.097352	129.575116
43636		7.485133	2.257891	-0.193671	0.236633	-0.814339	-2.038141	0.628203	-0.230739	-0.138756	-1.063965	0.125732	0.427246	0.074869	0.022533	-0.001780	0.153643	-0.645586	-0.279947	-0.693717	87.078470	-79.031204	128.799548
43637		7.947148	2.180903	-0.463988	-0.064599	-0.815986	-1.599363	0.441413	-0.194332	-0.219200	-1.059326	0.119141	0.425293	0.079500	0.021732	-0.004515	0.154045	-0.645696	-0.282310	-0.692567	87.985577	-78.917399	128.132621
43638		8.362756	2.104703	-0.365850	-0.072616	-0.607742	-1.203121	0.251583	-0.100810	-0.260730	-1.061523	0.116943	0.434570	0.083657	0.020943	-0.003590	0.153801	-0.645565	-0.284078	-0.692019	88.501354	-78.774934	127.751941
43639		8.694887	1.928212	-0.382744	-0.234551	-0.404087	-0.910597	0.075744	0.019632	-0.281586	-1.068115	0.116699	0.423340	0.086976	0.019161	-0.003829	0.153108	-0.645122	-0.285210	-0.692120	88.563870	-78.620048	127.732016
43640		9.345141	1.605683	-0.118064	-0.305828	0.125940	-0.335644	-0.126430	0.125148	-0.275102	-1.067871	0.107666	0.419434	0.093473	0.015927	-0.001249	0.151915	-0.644476	-0.285541	-0.692848	88.213284	-78.465464	128.013878
43641		9.847354	1.176791	0.209359	-0.382351	0.746051	0.071448	-0.338543	0.259279	-0.260812	-1.063477	0.114502	0.421143	0.098491	0.011643	0.001946	0.150299	-0.643545	-0.284987	-0.694293	87.377464	-78.317251	128.668700
43642		9.948749	0.908608	0.250676	-0.559470	1.000136	0.114675	-0.457573	0.387802	-0.308019	-1.072021	0.103271	0.417480	0.099506	0.008938	0.002293	0.148307	-0.642179	-0.284072	-0.696357	86.146832	-78.134392	129.656551
43643		10.007059	1.044346	0.529656	-0.319700	1.064042	0.201187	-0.572585	0.473199	-0.392171	-1.071777	0.094238	0.415771	0.100103	0.010262	0.005030	0.145783	-0.640478	-0.282960	-0.698905	84.679971	-77.895999	130.820285
43644		9.781945	1.232272	0.644017	-0.154759	0.944526	0.021092	-0.732481	0.493191	-0.450596	-1.077881	0.083008	0.409668	0.097862	0.012125	0.006154	0.142557	-0.638726	-0.281455	-0.701776	83.137982	-77.615921	131.967213
43645		9.058884	1.435404	0.626953	-0.019687	0.656122	-0.642872	-0.864254	0.512703	-0.486426	-1.082031	0.076172	0.405518	0.090639	0.014160	0.005976	0.138819	-0.636934	-0.279582	-0.704896	81.546234	-77.308382	133.090130
43646		8.646602	1.382090	0.891103	0.160907	0.780902	-1.047309	-1.014349	0.534018	-0.496242	-1.083984	0.064941	0.404053	0.086523	0.013650	0.008611	0.134582	-0.635132	-0.277184	-0.708282	79.884646	-76.985655	134.196745
43647		8.696880	1.137581	1.164705	0.178492	1.133532	-1.039479	-1.183187	0.572436	-0.477833	-1.087891	0.053711	0.393555	0.087028	0.011236	0.011331	0.129933	-0.633309	-0.274095	-0.711976	78.096078	-76.662686	135.336983
43648		9.035480	1.137264	1.455231	0.293574	1.337312	-0.692607	-1.276778	0.622944	-0.502712	-1.085205	0.042480	0.391846	0.090428	0.011237	0.014199	0.124953	-0.631299	-0.270700	-0.715940	76.221021	-76.310741	136.511564
43649		10.528887	1.709965	1.639351	0.403473	1.198888	0.904959	-1.238559	0.635455	-0.611051	-1.086670	0.026855	0.383789	0.105392	0.016877	0.015954	0.119723	-0.629038	-0.267765	-0.719916	74.482503	-75.888950	137.571032
43650		14.286170	2.389227	-0.123790	-1.520319	0.340244	4.588339	-1.177522	0.281504	-0.856340	-1.088379	0.013428	0.377930	0.142960	0.023272	-0.001577	0.113315	-0.627653	-0.266013	-0.722806	73.760448	-75.381870	137.618395
43651		13.521803	3.056451	-0.977312	-1.881755	-0.716128	3.937975	-0.939705	0.136632	-0.889121	-1.090088	0.000000	0.381104	0.135345	0.029916	-0.010007	0.107344	-0.626582	-0.265297	-0.724907	73.512898	-74.880315	137.317020
43652		10.077572	4.243670	-1.384026	-1.075000	-2.447376	0.880093	-0.714946	-0.094905	-0.842501	-1.091797	-0.011230	0.381836	0.100960	0.041962	-0.013943	0.101930	-0.626270	-0.265359	-0.725935	73.819890	-74.441614	136.572476
43653		8.745727	5.558539	-2.280262	-1.011610	-4.171335	-0.109067	-0.627954	-0.414053	-0.924061	-1.086914	-0.024414	0.389160	0.087760	0.055109	-0.022795	0.096071	-0.626941	-0.266152	-0.725864	74.806782	-74.005185	135.172651
43654		10.255214	7.253930	-1.887147	-0.217375	-5.009726	1.857984	-0.554175	-0.470320	-0.789406	-1.083984	-0.035400	0.389893	0.102882	0.072081	-0.018830	0.090847	-0.627943	-0.266804	-0.725431	75.814589	-73.644977	133.791342
43655		13.418426	8.171857	-1.621162	-0.218871	-4.921497	5.193708	-0.745498	-0.471396	-0.471005	-1.083740	-0.042236	0.396973	0.134414	0.081342	-0.016199	0.086181	-0.629441	-0.265761	-0.725085	76.525399	-73.456378	132.604394
43656		14.438171	6.456566	-1.554206	-1.185611	-3.175058	5.713957	-1.140131	-0.347439	-0.188088	-1.081299	-0.046631	0.401855	0.144469	0.064341	-0.015658	0.081453	-0.631018	-0.262332	-0.725509	76.638505	-73.406405	131.803616
43657		13.439805	3.518200	-1.289937	-2.117520	-0.747127	3.957856	-1.393232	-0.203317	0.000827	-1.083496	-0.051025	0.408691	0.134411	0.035092	-0.013007	0.076804	-0.632394	-0.257321	-0.726611	76.251416	-73.443015	131.374175
43658		13.104669	1.711286	-1.366691	-2.923694	0.699357	3.129168	-1.270214	-0.184579	0.052927	-1.081055	-0.053223	0.408936	0.131055	0.017061	-0.013654	0.072748	-0.633695	-0.252571	-0.727561	75.876672	-73.506660	131.004757
43659		13.201373	1.475201	-1.248441	-2.929948	0.984665	3.166407	-0.926541	-0.197489	0.111036	-1.072021	-0.057373	0.406982	0.132018	0.014768	-0.012422	0.069980	-0.634969	-0.248887	-0.727992	75.695499	-73.605068	130.639707
43660		12.839111	2.310275	-0.560022	-1.885541	0.487720	3.098571	-0.636471	-0.160631	0.190843	-1.076660	-0.055420	0.415771	0.128373	0.023207	-0.005571	0.068461	-0.636098	-0.245985	-0.728137	75.574635	-73.742728	130.384500
43661		12.208744	3.220608	-0.234298	-1.087751	-0.315362	2.764988	-0.553492	-0.147444	0.254845	-1.074219	-0.055176	0.411377	0.122048	0.032355	-0.002342	0.067461	-0.637220	-0.243177	-0.728193	75.444972	-73.914234	130.188873
43662		11.801183	3.823463	-0.289886	-0.803029	-0.982501	2.530754	-0.507156	-0.130976	0.291824	-1.072266	-0.050781	0.413330	0.117958	0.038399	-0.002919	0.066757	-0.638308	-0.240409	-0.728224	75.293174	-74.103948	130.043336
43663		11.259720	4.264412	-0.219471	-0.453745	-1.488299	2.128569	-0.440923	-0.071154	0.340720	-1.069824	-0.052979	0.417725	0.112525	0.042831	-0.002249	0.066520	-0.639206	-0.237707	-0.728345	75.035162	-74.312149	130.048490
43664		10.590827	4.535041	0.031328	0.003785	-1.800980	1.566655	-0.491530	-0.018695	0.388204	-1.072021	-0.052979	0.415527	0.105820	0.045556	0.000211	0.066349	-0.639983	-0.234646	-0.728670	74.615307	-74.538659	130.190840
43665		10.043163	4.387172	0.010577	0.019693	-1.839766	0.991348	-0.636252	0.001447	0.371376	-1.074463	-0.050781	0.410889	0.100350	0.044058	-0.000035	0.065683	-0.640705	-0.231106	-0.729228	74.071236	-74.752506	130.376572
43666		9.950156	3.944697	-0.144614	-0.288993	-1.579094	0.770785	-0.781419	0.050969	0.320967	-1.076904	-0.048584	0.413086	0.099438	0.039600	-0.001626	0.064417	-0.641228	-0.227175	-0.730116	73.363765	-74.929967	130.644506
43667		10.106068	3.479581	-0.344647	-0.696316	-1.261689	0.783630	-0.872875	0.113941	0.283646	-1.076904	-0.044189	0.406006	0.101009	0.034923	-0.003656	0.062799	-0.641493	-0.223008	-0.731308	72.485044	-75.075555	131.036020
43668		10.063574	2.942745	-0.354275	-0.928568	-0.834571	0.603734	-0.890436	0.198112	0.224410	-1.076904	-0.048584	0.404053	0.100599	0.029524	-0.003774	0.060994	-0.641378	-0.218934	-0.732791	71.452419	-75.172108	131.575620
43669		9.633199	2.298556	-0.195665	-0.981583	-0.310718	0.039212	-0.860368	0.268017	0.163343	-1.078857	-0.053223	0.406738	0.096310	0.023055	-0.002185	0.059144	-0.640914	-0.215141	-0.734469	70.326141	-75.219975	132.230251
43670		8.916369	1.665091	-0.077623	-1.012588	0.140579	-0.799644	-0.732587	0.329697	0.147666	-1.079102	-0.046631	0.399414	0.089150	0.016713	-0.000984	0.057704	-0.640161	-0.211844	-0.736197	69.155847	-75.243676	133.005412
43671		8.215145	1.363177	0.355057	-0.630744	0.421278	-1.512237	-0.544533	0.380174	0.155608	-1.085938	-0.046631	0.392822	0.082147	0.013705	0.003357	0.056954	-0.639164	-0.209198	-0.737877	67.980181	-75.257123	133.898076
43672		7.925459	1.493819	0.636096	-0.302040	0.328220	-1.734945	-0.432163	0.370351	0.177294	-1.085938	-0.044434	0.390381	0.079253	0.015022	0.006182	0.056628	-0.638190	-0.206897	-0.739392	66.870267	-75.279652	134.788918
43673		7.756780	1.976867	0.641829	-0.123262	-0.167743	-1.784977	-0.383553	0.351447	0.186755	-1.083740	-0.044434	0.388184	0.077560	0.019853	0.006244	0.056477	-0.637274	-0.204750	-0.740790	65.813013	-75.307211	135.654341
43674		7.588652	2.305381	0.749103	0.095257	-0.485670	-1.861681	-0.374742	0.345847	0.199458	-1.088379	-0.040039	0.383545	0.075876	0.023143	0.007317	0.056391	-0.636388	-0.202595	-0.742150	64.758539	-75.338689	136.521703
43675		7.156189	2.217688	0.755287	0.126488	-0.507885	-2.300992	-0.422307	0.347347	0.185038	-1.088379	-0.040039	0.376709	0.071554	0.022259	0.007382	0.056105	-0.635487	-0.200307	-0.743563	63.682197	-75.358232	137.383688
43676		6.726654	1.862255	0.774168	0.080162	-0.276649	-2.796126	-0.475682	0.345628	0.164241	-1.088379	-0.040039	0.376709	0.067264	0.018696	0.007581	0.055567	-0.634583	-0.197886	-0.745022	62.598886	-75.363517	138.221069
43677		6.543164	1.447221	0.783899	-0.036937	0.050838	-3.065991	-0.479140	0.347962	0.170346	-1.090576	-0.040283	0.370117	0.065433	0.014546	0.007690	0.055045	-0.633670	-0.195431	-0.746485	61.500658	-75.367187	139.071953
43678		6.312463	1.039705	0.817073	-0.116488	0.374155	-3.375131	-0.425392	0.359567	0.192443	-1.093018	-0.038086	0.367676	0.063129	0.010475	0.008035	0.054784	-0.632717	-0.193101	-0.747917	60.388700	-75.374587	139.968653
43679		5.987941	0.745289	0.790644	-0.191516	0.558509	-3.755681	-0.355433	0.360165	0.232685	-1.093262	-0.033691	0.360596	0.059885	0.007536	0.007785	0.054898	-0.631774	-0.190904	-0.749269	59.268181	-75.397288	140.915743
43680		5.693873	0.455885	0.894162	-0.146574	0.790370	-4.087191	-0.294782	0.373461	0.287350	-1.095459	-0.033691	0.360596	0.056949	0.004654	0.008828	0.055419	-0.630814	-0.188756	-0.750582	58.092624	-75.438093	141.955411
43681		5.354461	0.259239	1.089553	0.024759	0.962467	-4.427749	-0.210250	0.400558	0.334212	-1.097900	-0.029297	0.355957	0.053562	0.002693	0.010785	0.056409	-0.629766	-0.186769	-0.751885	56.851522	-75.487552	143.112674
43682		5.022053	0.221667	1.469890	0.417726	1.055131	-4.699679	-0.117378	0.441106	0.363370	-1.102295	-0.027100	0.351318	0.050249	0.002317	0.014587	0.057836	-0.628564	-0.185026	-0.753212	55.546719	-75.531661	144.390346
43683		4.789273	0.242661	2.072354	1.013963	1.187490	-4.827476	-0.073837	0.496380	0.399714	-1.098389	-0.015869	0.348389	0.047939	0.002530	0.020604	0.059590	-0.627167	-0.183315	-0.754657	54.111077	-75.566726	145.828764
43684		4.520756	0.329274	2.342767	1.331247	1.138083	-5.020333	-0.050242	0.506706	0.450769	-1.105225	-0.011719	0.336914	0.045259	0.003401	0.023312	0.061619	-0.625766	-0.181527	-0.756087	52.596586	-75.612718	147.362242
43685		4.179613	0.493057	2.463262	1.552782	0.957890	-5.290389	0.032193	0.448209	0.475072	-1.107666	-0.007324	0.338867	0.041839	0.005026	0.024540	0.063944	-0.624574	-0.179992	-0.757246	51.187393	-75.680356	148.835440
43686		4.031402	0.643731	2.891926	2.017700	0.928547	-5.329779	0.097410	0.391993	0.489905	-1.108154	0.001709	0.327148	0.040355	0.006522	0.028843	0.066478	-0.623582	-0.178673	-0.758157	49.878726	-75.766580	150.242975
43687		4.235963	0.794965	3.087082	2.195012	0.861622	-5.064539	0.121020	0.332559	0.519765	-1.108154	0.003906	0.329346	0.042390	0.008041	0.030805	0.069145	-0.622827	-0.177368	-0.758845	48.623635	-75.879974	151.608567
43688		4.936278	0.814396	3.115696	2.072995	0.912101	-4.371332	0.175150	0.252277	0.565876	-1.108643	0.012695	0.324219	0.049379	0.008256	0.031102	0.072084	-0.622393	-0.176151	-0.759211	47.443212	-76.036802	152.928346
43689		6.033686	0.827072	3.277710	1.989962	1.051232	-3.272986	0.263848	0.198082	0.620174	-1.111084	0.021484	0.325928	0.060343	0.008415	0.032728	0.075457	-0.622173	-0.175120	-0.759303	46.289574	-76.230849	154.271884
43690		7.146397	0.889046	3.647855	2.114097	1.209752	-2.116244	0.358902	0.188963	0.636940	-1.109375	0.030518	0.318604	0.071470	0.009053	0.036427	0.079179	-0.621958	-0.174397	-0.759266	45.143018	-76.429077	155.662984
43691		7.980684	1.170171	3.961746	2.319990	1.109560	-1.202085	0.418566	0.223108	0.612472	-1.109863	0.043945	0.320068	0.079815	0.011863	0.039553	0.083023	-0.621559	-0.173962	-0.759282	43.979619	-76.596704	157.105560
43692		8.517130	1.644360	4.026858	2.429004	0.711292	-0.590164	0.486152	0.204224	0.539689	-1.107910	0.050537	0.317383	0.085168	0.016576	0.040222	0.086785	-0.621131	-0.174014	-0.759199	42.983335	-76.737258	158.415309
43693		9.343655	2.473161	4.174420	2.682209	0.044673	0.368173	0.507277	0.145380	0.467019	-1.110352	0.054932	0.314941	0.093409	0.024844	0.041739	0.090282	-0.620846	-0.174396	-0.758937	42.205237	-76.869611	159.512608
43694		10.839978	3.218253	4.067547	2.544215	-0.586954	1.917172	0.477923	0.094736	0.420484	-1.113037	0.063965	0.312256	0.108351	0.032313	0.040701	0.093468	-0.620718	-0.174831	-0.758556	41.560182	-77.002737	160.455487
43695		12.559584	3.683880	3.820759	2.142858	-1.003436	3.615400	0.501344	0.078616	0.362029	-1.110840	0.068359	0.309570	0.125544	0.036970	0.038251	0.096489	-0.620583	-0.175543	-0.758124	41.050598	-77.118448	161.272647
43696		13.584992	3.788324	3.708728	1.877919	-1.090477	4.607518	0.622646	0.199232	0.313237	-1.115723	0.074951	0.315918	0.135827	0.037981	0.037070	0.099808	-0.619881	-0.176805	-0.757975	40.494428	-77.161763	162.208720
43697		13.714526	3.682428	4.004133	2.073562	-0.888904	4.767838	0.765931	0.399175	0.300022	-1.111328	0.079590	0.309082	0.137170	0.036877	0.039909	0.103693	-0.618329	-0.178549	-0.758312	39.722041	-77.110260	163.450701
43698		15.676374	3.696901	4.336850	1.925764	-0.667615	6.742357	0.828166	0.553754	0.252435	-1.115967	0.083740	0.292969	0.156837	0.036988	0.043087	0.107727	-0.616101	-0.180592	-0.759079	38.845482	-76.968974	164.836673
43699		19.945223	3.069411	3.912823	0.313007	-0.054336	10.740701	0.771571	0.569276	0.227669	-1.116455	0.090332	0.288086	0.199528	0.030771	0.038679	0.111503	-0.613808	-0.182484	-0.759939	37.986514	-76.807198	166.172111
43700		19.041665	1.516604	4.078845	-0.032228	1.320353	9.675171	0.699001	0.633504	0.238237	-1.118652	0.092529	0.290283	0.190527	0.015252	0.040238	0.115155	-0.611302	-0.184027	-0.761041	36.998507	-76.614651	167.598506
43701		15.329819	1.843721	4.862956	1.566228	1.116465	6.260616	0.573602	0.465452	0.327258	-1.121338	0.101563	0.282959	0.153381	0.018549	0.048326	0.118603	-0.609582	-0.184914	-0.761676	36.037398	-76.524698	168.924092
43702		15.575716	3.829728	3.030730	0.687341	-1.494701	6.427640	0.278573	0.062882	0.391384	-1.116943	0.105957	0.282715	0.155691	0.038560	0.030312	0.121023	-0.609622	-0.184718	-0.761310	35.350125	-76.639048	169.794248
43703		14.269400	3.941515	1.825795	0.006923	-2.211397	4.938385	0.070406	-0.153377	0.418995	-1.113037	0.117188	0.284180	0.142597	0.039707	0.018381	0.122713	-0.610634	-0.183776	-0.760457	34.774943	-76.861727	170.426167
43704		11.916014	3.550827	1.141496	-0.177709	-2.275652	2.462993	0.094128	-0.245893	0.360673	-1.117432	0.117188	0.281982	0.119082	0.035718	0.011578	0.124170	-0.611925	-0.183158	-0.759330	34.442701	-77.107930	170.822255
43705		11.101338	2.752518	-0.038172	-1.318323	-2.110215	1.350928	0.163233	-0.310465	0.281944	-1.117920	0.128418	0.290283	0.110975	0.027682	-0.000187	0.125477	-0.613344	-0.183083	-0.757988	34.396031	-77.358827	170.965571
43706		11.410049	1.900957	-0.380046	-1.991944	-1.490138	1.490356	0.354134	-0.249616	0.223618	-1.117920	0.128418	0.288086	0.114084	0.019144	-0.003624	0.127208	-0.614353	-0.183871	-0.756690	34.490715	-77.562011	171.076376
43707		11.735421	0.848232	-0.024306	-2.150185	-0.387905	1.748730	0.480870	-0.128486	0.191236	-1.113525	0.130615	0.290283	0.117346	0.008595	-0.000147	0.129312	-0.614792	-0.185159	-0.755662	34.549252	-77.697603	171.298083
43708		11.280756	-0.144039	0.199858	-2.256936	0.572734	1.227889	0.559081	-0.009095	0.167347	-1.115967	0.135010	0.285400	0.112809	-0.001352	0.002000	0.131680	-0.614700	-0.186739	-0.754939	34.523456	-77.768991	171.652260
43709		10.473501	-0.726153	0.106536	-2.412948	1.009570	0.355463	0.610299	0.043769	0.180961	-1.109375	0.139648	0.289551	0.104742	-0.007170	0.001020	0.134300	-0.614383	-0.188433	-0.754314	34.416793	-77.819845	172.118721
43710		9.860807	-0.860786	-0.208387	-2.614453	0.948226	-0.310827	0.585405	0.003233	0.233000	-1.104980	0.139648	0.289551	0.098618	-0.008487	-0.002110	0.137006	-0.614277	-0.189899	-0.753546	34.237888	-77.906405	172.644787
43711		9.681496	-0.775796	-0.400614	-2.695967	0.753626	-0.503690	0.540668	-0.041207	0.318234	-1.110107	0.155273	0.286377	0.096828	-0.007593	-0.004007	0.139847	-0.614446	-0.190962	-0.752617	33.904890	-78.040965	173.301557
43712		9.705315	-0.544195	-0.527890	-2.690142	0.456546	-0.468036	0.527314	-0.034574	0.409590	-1.110352	0.159668	0.283936	0.097065	-0.005229	-0.005276	0.143000	-0.614680	-0.191688	-0.751648	33.332673	-78.200456	174.195031
43713		9.980856	-0.238649	-0.500573	-2.560948	0.164110	-0.151455	0.499488	-0.036928	0.473499	-1.108154	0.161865	0.286133	0.099815	-0.002138	-0.004993	0.146299	-0.614996	-0.192112	-0.750646	32.579163	-78.378668	175.256395
43714		10.471298	-0.106482	-0.476192	-2.547474	0.023100	0.355684	0.413889	-0.083870	0.505879	-1.099609	0.173340	0.289795	0.104717	-0.000790	-0.004720	0.149416	-0.615575	-0.192148	-0.749548	31.738146	-78.586669	176.356786
43715		10.460018	-0.119816	-0.259082	-2.327171	0.089820	0.388751	0.346861	-0.087767	0.579931	-1.102295	0.182129	0.287109	0.104604	-0.000890	-0.002547	0.152593	-0.616282	-0.191705	-0.748439	30.645786	-78.814673	177.672968
43716		10.155022	-0.266374	0.082555	-2.002037	0.325483	0.141597	0.349491	-0.078503	0.668160	-1.098145	0.188965	0.286621	0.101558	-0.002326	0.000861	0.156121	-0.617031	-0.190991	-0.747276	29.262498	-79.058179	179.286621
43717		9.940977	-0.196847	0.342762	-1.664815	0.331823	-0.009771	0.378973	-0.070331	0.699250	-1.096191	0.200195	0.290527	0.099415	-0.001627	0.003459	0.159856	-0.617745	-0.190281	-0.746077	27.736335	-79.297671	-178.938952
43718		9.769190	0.057338	0.570059	-1.278790	0.163861	-0.112025	0.357880	-0.044667	0.669910	-1.101318	0.211182	0.285400	0.097688	0.000890	0.005724	0.163444	-0.618344	-0.189560	-0.744986	26.168985	-79.507808	-177.135694
43719		9.620808	0.233650	0.701250	-1.021282	0.024075	-0.217770	0.317608	-0.010977	0.599851	-1.096924	0.215820	0.289551	0.096200	0.002614	0.007022	0.166669	-0.618774	-0.188875	-0.744088	24.670026	-79.673884	-175.427067
43720		9.365917	0.591470	0.915105	-0.590288	-0.223496	-0.404760	0.313517	-0.022457	0.523469	-1.086182	0.227051	0.291016	0.093642	0.006145	0.009171	0.169592	-0.619172	-0.188420	-0.743211	23.354363	-79.820882	-173.907359
43721		9.351015	0.360269	0.978389	-0.618616	-0.025468	-0.424127	0.243047	-0.045634	0.439952	-1.093018	0.229248	0.286377	0.093500	0.003796	0.009810	0.171957	-0.619632	-0.187978	-0.742396	22.238144	-79.955455	-172.632505
43722		9.028007	-0.638748	0.883677	-1.109188	0.774629	-0.820282	0.200000	-0.025630	0.387139	-1.093262	0.233643	0.288330	0.090291	-0.006222	0.008842	0.174015	-0.620003	-0.187523	-0.741721	21.201715	-80.064388	-171.463668
43723		8.231042	-1.013102	0.983367	-1.057848	1.144072	-1.608088	0.319641	0.017656	0.322164	-1.093506	0.240479	0.290283	0.082327	-0.010014	0.009810	0.176238	-0.620043	-0.187674	-0.741124	20.363612	-80.133158	-170.427413
43724		7.589588	-0.548945	1.103671	-0.610923	0.800136	-2.189840	0.441955	0.039652	0.264862	-1.093750	0.244873	0.287598	0.075905	-0.005413	0.011010	0.178650	-0.619839	-0.188436	-0.740524	19.736827	-80.176907	-169.534314
43725		7.274468	0.052343	1.280970	-0.103998	0.366094	-2.435923	0.492082	0.047703	0.199944	-1.093750	0.247070	0.283203	0.072747	0.000565	0.012794	0.180981	-0.619492	-0.189575	-0.739957	19.327851	-80.202132	-168.833571
43726		7.005099	0.632299	1.538487	0.453404	-0.000578	-2.627106	0.511658	0.056747	0.135784	-1.087158	0.251465	0.278320	0.070051	0.006331	0.015381	0.183145	-0.619030	-0.190977	-0.739451	19.118628	-80.210020	-168.323818
43727		6.719315	0.894112	1.655300	0.733160	-0.156695	-2.875355	0.502454	0.085727	0.091552	-1.091797	0.253662	0.278076	0.067196	0.008930	0.016547	0.185140	-0.618422	-0.192453	-0.739080	19.012230	-80.193395	-167.924127
43728		6.528632	0.959394	1.878008	0.984815	-0.090590	-3.023555	0.458435	0.104542	0.097880	-1.091797	0.255859	0.273682	0.065291	0.009583	0.018768	0.187044	-0.617788	-0.193729	-0.738797	18.840968	-80.167816	-167.483735
43729		6.494386	0.799682	1.934539	0.953875	0.075770	-3.056701	0.394120	0.106261	0.119181	-1.089600	0.253662	0.280518	0.064949	0.007997	0.019327	0.188824	-0.617225	-0.194698	-0.738561	18.566807	-80.144694	-166.976717
43730		6.577521	0.595010	1.871693	0.779381	0.211207	-2.995870	0.327174	0.103653	0.125300	-1.087646	0.260498	0.277832	0.065781	0.005961	0.018693	0.190419	-0.616739	-0.195404	-0.738370	18.239528	-80.123887	-166.454407
43731		6.539289	0.471132	1.835179	0.688869	0.294526	-3.045793	0.264084	0.096976	0.111000	-1.094238	0.260254	0.270996	0.065399	0.004723	0.018326	0.191757	-0.616321	-0.195926	-0.738235	17.929564	-80.103431	-165.986609
43732		6.388473	0.442357	1.747706	0.624744	0.274408	-3.209875	0.184789	0.082093	0.100151	-1.083252	0.265137	0.275146	0.063890	0.004439	0.017455	0.192799	-0.616023	-0.196203	-0.738138	17.624130	-80.088996	-165.569223
43733		6.184924	0.267331	1.715034	0.539724	0.408633	-3.424589	0.075410	0.058360	0.113470	-1.087646	0.262695	0.270996	0.061853	0.002702	0.017133	0.193527	-0.615930	-0.196057	-0.738064	17.238800	-80.089160	-165.134623
43734		6.308677	-0.013677	1.747845	0.401366	0.651087	-3.311185	-0.040306	0.032257	0.135304	-1.090088	0.264893	0.272949	0.063090	-0.000091	0.017468	0.193956	-0.616067	-0.195443	-0.738000	16.742875	-80.106930	-164.654806
43735		6.794897	-0.355661	1.794779	0.185228	0.934618	-2.840562	-0.125116	0.016053	0.128157	-1.090088	0.264893	0.275146	0.067953	-0.003502	0.017945	0.194079	-0.616338	-0.194553	-0.737977	16.234536	-80.131495	-164.212006
43736		7.329861	-0.637029	1.801929	-0.038806	1.143086	-2.324600	-0.179784	0.027004	0.090729	-1.085449	0.262695	0.277588	0.073304	-0.006321	0.018015	0.193907	-0.616585	-0.193566	-0.738075	15.801186	-80.143671	-163.876978
43737		7.454643	-0.759773	1.766217	-0.149133	1.215159	-2.212054	-0.191232	0.048414	0.036455	-1.087646	0.262695	0.275391	0.074552	-0.007567	0.017651	0.193519	-0.616711	-0.192683	-0.738303	15.514321	-80.135097	-163.697450
43738		7.364160	-0.836835	1.816321	-0.130403	1.305968	-2.295533	-0.212004	0.054500	-0.001478	-1.087646	0.262695	0.270996	0.073646	-0.008350	0.018152	0.192933	-0.616797	-0.191833	-0.738605	15.330747	-80.117450	-163.634830
43739		7.885352	-0.787825	1.996739	-0.037233	1.331434	-1.749667	-0.265035	0.004164	-0.068189	-1.085449	0.264893	0.275146	0.078851	-0.007879	0.019976	0.191888	-0.617055	-0.191042	-0.738867	15.372665	-80.117288	-163.831947
43740		8.952094	-0.640162	1.984743	-0.142886	1.153310	-0.694659	-0.297897	-0.047793	-0.142186	-1.091797	0.255859	0.275879	0.089512	-0.006436	0.019878	0.190420	-0.617465	-0.190407	-0.739069	15.675385	-80.134474	-164.312759
43741		9.762024	-0.376805	2.016314	-0.111599	0.918517	0.119506	-0.308903	-0.047060	-0.194250	-1.087402	0.256104	0.280273	0.097612	-0.003832	0.020192	0.188724	-0.617831	-0.189891	-0.739331	16.138429	-80.142414	-164.962817
43742		10.152216	-0.202966	2.197725	0.064201	0.860127	0.540800	-0.356424	-0.013667	-0.239197	-1.087158	0.249268	0.280762	0.101518	-0.002112	0.021988	0.186746	-0.618073	-0.189305	-0.739780	16.684494	-80.123875	-165.724836
43743		10.648332	-0.366971	2.512673	0.157358	1.154865	1.072011	-0.449591	0.044047	-0.261439	-1.084961	0.249512	0.280762	0.106484	-0.003752	0.025112	0.184451	-0.618164	-0.188390	-0.740513	17.188694	-80.068660	-166.498583
43744		11.067867	-0.501948	2.736594	0.195170	1.378128	1.514325	-0.532573	0.140374	-0.285849	-1.095703	0.242432	0.276611	0.110691	-0.005105	0.027302	0.181900	-0.617948	-0.187150	-0.741638	17.617222	-79.955667	-167.244026
43745		11.503273	-0.458527	3.010800	0.351494	1.466525	1.990962	-0.635413	0.262826	-0.322446	-1.093262	0.235840	0.281494	0.115065	-0.004675	0.029972	0.179006	-0.617329	-0.185530	-0.743263	17.964239	-79.768435	-167.966814
43746		11.793589	-0.423337	3.132665	0.384279	1.483349	2.300667	-0.758709	0.397934	-0.352657	-1.095215	0.231201	0.272949	0.117990	-0.004323	0.031108	0.175743	-0.616279	-0.183420	-0.745434	18.177265	-79.501674	-168.625827
43747		11.380689	-0.354008	3.066138	0.384861	1.394765	1.889997	-0.847165	0.517085	-0.362321	-1.103760	0.217773	0.273682	0.113879	-0.003617	0.030382	0.172275	-0.614839	-0.180902	-0.748043	18.233372	-79.168003	-169.177270
43748		11.277239	-0.311875	3.402534	0.653567	1.504702	1.856029	-0.942234	0.616127	-0.372519	-1.098877	0.211182	0.267334	0.112871	-0.003170	0.033693	0.168561	-0.613083	-0.177967	-0.751029	18.153878	-78.778574	-169.646958
43749		11.850594	-0.281720	3.324645	0.422412	1.396397	2.411890	-1.037316	0.676085	-0.398986	-1.098633	0.206543	0.263184	0.118612	-0.002883	0.032860	0.164504	-0.611134	-0.174700	-0.754276	18.025871	-78.351989	-170.123162
43750		12.878084	-0.010690	3.272245	0.214483	1.071758	3.429566	-1.087737	0.723333	-0.449121	-1.104980	0.195313	0.257080	0.128898	-0.000220	0.032257	0.160135	-0.608979	-0.171348	-0.757721	17.944352	-77.890913	-170.677531
43751		16.531739	0.713878	2.753790	-0.774817	0.057127	6.943993	-1.055923	0.635728	-0.553968	-1.102295	0.186523	0.250977	0.165423	0.006824	0.026976	0.155386	-0.607012	-0.168500	-0.760920	18.190970	-77.458799	-171.549668
43752		16.901836	0.712590	2.101819	-1.552420	-0.229153	7.161804	-0.877844	0.614081	-0.598073	-1.106689	0.181885	0.244385	0.169102	0.006711	0.020469	0.150981	-0.604926	-0.166471	-0.763908	18.621772	-77.029259	-172.507972
43753		12.408811	0.368688	3.032511	0.010289	0.630626	2.951026	-0.540212	0.517007	-0.394553	-1.110596	0.170654	0.240723	0.124173	0.003523	0.029995	0.148294	-0.603110	-0.165188	-0.766146	18.811186	-76.688807	-173.020753
43754		11.246365	0.349801	2.123669	-0.579658	0.294819	1.619286	-0.417587	0.201739	-0.328670	-1.117676	0.175049	0.240479	0.112491	0.003357	0.021116	0.145964	-0.602457	-0.164404	-0.767275	19.150959	-76.530756	-173.616787
43755		10.507048	0.153698	1.634333	-0.941561	0.300695	0.775783	-0.453167	0.013955	-0.330277	-1.114746	0.159424	0.248047	0.105074	0.001400	0.016333	0.143367	-0.602545	-0.163628	-0.767861	19.613804	-76.473087	-174.360234
43756		9.896130	0.917938	1.156111	-0.906846	-0.557269	0.136164	-0.572035	-0.113313	-0.284559	-1.112305	0.155029	0.246094	0.098968	0.009072	0.011591	0.140480	-0.603240	-0.162343	-0.768122	20.005520	-76.491716	-175.101116
43757		9.920496	2.121707	0.953858	-0.598282	-1.718524	0.213102	-0.783467	-0.161079	-0.210606	-1.107666	0.155029	0.248291	0.099220	0.021150	0.009536	0.137201	-0.604318	-0.160059	-0.768347	20.152152	-76.549676	-175.713944
43758		10.858706	3.231692	0.646181	-0.648813	-2.863939	1.148597	-1.024770	-0.194044	-0.175227	-1.109619	0.146240	0.253418	0.108609	0.032255	0.006402	0.133296	-0.605703	-0.156756	-0.768624	20.111618	-76.632289	-176.276854
43759		10.980821	3.339121	0.310697	-0.952550	-3.092823	1.203288	-1.200693	-0.165301	-0.188346	-1.116455	0.148193	0.250977	0.109837	0.033306	0.002998	0.128829	-0.607064	-0.152796	-0.769110	19.978677	-76.696977	-176.847672
43760		10.641882	2.645448	0.232086	-1.234627	-2.471795	0.801820	-1.235913	-0.146448	-0.219620	-1.109131	0.132813	0.258545	0.106446	0.026352	0.002236	0.124141	-0.608328	-0.148775	-0.769670	19.883602	-76.745609	-177.478358
43761		10.307772	1.660894	0.146077	-1.618313	-1.573326	0.382199	-1.132915	-0.150821	-0.266294	-1.113525	0.128174	0.261230	0.103099	0.016480	0.001445	0.119582	-0.609487	-0.145292	-0.770141	19.959869	-76.787563	-178.223958
43762		9.811302	0.923096	0.244470	-1.689518	-0.822526	-0.135785	-0.970781	-0.153259	-0.311993	-1.102295	0.133057	0.265381	0.098125	0.009090	0.002476	0.115329	-0.610507	-0.142569	-0.770490	20.240993	-76.821192	-179.085037
43763		9.886501	0.729101	0.420661	-1.615163	-0.549468	-0.038195	-0.802538	-0.174279	-0.313713	-1.106201	0.119629	0.266113	0.098873	0.007153	0.004264	0.111572	-0.611495	-0.140508	-0.770638	20.641511	-76.864703	-179.969000
43764		10.602963	0.968438	0.467373	-1.648766	-0.725558	0.691320	-0.690925	-0.213794	-0.312940	-1.115234	0.117188	0.268555	0.106040	0.009535	0.004754	0.108128	-0.612565	-0.138894	-0.770572	21.144258	-76.928164	179.107737
43765		10.634735	1.126822	0.726154	-1.360888	-0.750225	0.792955	-0.593862	-0.198004	-0.345137	-1.108398	0.114990	0.277588	0.106359	0.011106	0.007334	0.104868	-0.613489	-0.137742	-0.770494	21.768680	-76.974169	178.117055
43766		10.056408	1.466653	1.054911	-0.814809	-0.927937	0.329806	-0.491618	-0.169080	-0.368316	-1.107910	0.106201	0.275879	0.100582	0.014507	0.010598	0.101850	-0.614226	-0.137039	-0.770437	22.483277	-76.997416	177.093920
43767		9.319474	1.573941	1.147837	-0.529473	-0.974883	-0.356652	-0.471642	-0.161599	-0.369777	-1.109863	0.097168	0.285400	0.093214	0.015594	0.011517	0.098894	-0.614916	-0.136412	-0.770383	23.207728	-77.013281	176.072665
43768		8.703772	1.299594	1.152030	-0.475795	-0.696074	-0.977484	-0.486944	-0.160018	-0.360894	-1.118896	0.099365	0.283203	0.087052	0.012867	0.011559	0.095919	-0.615610	-0.135697	-0.770331	23.905564	-77.027820	175.069416
43769		8.451168	0.681141	1.113744	-0.645870	-0.102808	-1.286326	-0.521795	-0.198923	-0.347366	-1.114014	0.085938	0.290771	0.084512	0.006694	0.011204	0.092867	-0.616471	-0.134823	-0.770170	24.593135	-77.062827	174.056682
43770		8.240856	0.050629	0.973779	-0.913347	0.471065	-1.578227	-0.529112	-0.240880	-0.345695	-1.109375	0.086182	0.292969	0.082397	0.000390	0.009836	0.089766	-0.617494	-0.133934	-0.769874	25.324073	-77.117543	172.995043
43771		7.997132	-0.169621	1.122685	-0.773676	0.746845	-1.807258	-0.471361	-0.250725	-0.313286	-1.109131	0.081787	0.295410	0.079954	-0.001795	0.011331	0.086964	-0.618541	-0.133170	-0.769487	26.031594	-77.182090	171.991908
43772		7.797189	-0.012700	1.275575	-0.523682	0.662166	-1.957075	-0.411572	-0.278584	-0.259247	-1.106689	0.077393	0.300049	0.077954	-0.000202	0.012865	0.084533	-0.619704	-0.132479	-0.768941	26.693113	-77.272591	171.071152
43773		7.758737	0.285237	1.479440	-0.218653	0.459000	-1.925384	-0.380182	-0.301581	-0.209760	-1.108887	0.072754	0.302734	0.077568	0.002799	0.014906	0.082376	-0.620965	-0.131765	-0.768280	27.297239	-77.384881	170.228248
43774		7.656475	0.443433	1.479510	-0.130134	0.319539	-2.009604	-0.360124	-0.304577	-0.167661	-1.104248	0.072998	0.302734	0.076546	0.004397	0.014904	0.080438	-0.622259	-0.130998	-0.767570	27.834982	-77.508548	169.465232
43775		7.541244	0.360158	1.437907	-0.147482	0.394100	-2.138670	-0.330513	-0.302628	-0.139280	-1.104004	0.066406	0.314209	0.075393	0.003573	0.014487	0.078704	-0.623542	-0.130254	-0.766834	28.333378	-77.636843	168.760534
43776		7.352763	0.206888	1.546467	-0.029494	0.575085	-2.318299	-0.300893	-0.268211	-0.121739	-1.102051	0.072998	0.316162	0.073508	0.002047	0.015560	0.077150	-0.624695	-0.129554	-0.766172	28.778346	-77.751917	168.127962
43777		7.095798	0.086077	1.495996	-0.040060	0.673016	-2.591802	-0.261827	-0.217616	-0.118263	-1.099609	0.064209	0.316650	0.070942	0.000838	0.015036	0.075766	-0.625635	-0.128974	-0.765641	29.180474	-77.841050	167.562623
43778		6.825686	0.093273	1.422401	-0.037436	0.640216	-2.869301	-0.207961	-0.188966	-0.108665	-1.101563	0.061768	0.314453	0.068244	0.000910	0.014288	0.074606	-0.626454	-0.128557	-0.765155	29.561003	-77.918573	167.051026
43779		6.571116	0.237340	1.444196	0.085687	0.504232	-3.100013	-0.136601	-0.148769	-0.108126	-1.099121	0.057617	0.319336	0.065702	0.002348	0.014489	0.073696	-0.627086	-0.128398	-0.764752	29.932240	-77.974730	166.590958
43780		6.508305	0.513705	1.583585	0.313295	0.285371	-3.108206	-0.052219	-0.123107	-0.129580	-1.103516	0.055176	0.321777	0.065077	0.005099	0.015875	0.072982	-0.627577	-0.128619	-0.764380	30.372144	-78.011550	166.109827
43781		6.532821	0.774571	1.637941	0.437198	0.063003	-3.047672	0.019306	-0.114294	-0.147430	-1.101563	0.059814	0.328125	0.065325	0.007696	0.016417	0.072433	-0.627994	-0.129166	-0.763998	30.883661	-78.037753	165.597807
43782		6.738452	1.013903	1.799779	0.619353	-0.095683	-2.792633	0.120284	-0.100648	-0.161481	-1.105957	0.059570	0.325928	0.067384	0.010074	0.018038	0.072153	-0.628317	-0.130137	-0.763594	31.470489	-78.052631	165.067593
43783		7.235332	1.385324	2.004116	0.819262	-0.348800	-2.230291	0.233283	-0.078665	-0.163697	-1.097168	0.059814	0.325928	0.072357	0.013771	0.020086	0.072237	-0.628508	-0.131539	-0.763188	32.094875	-78.054425	164.565574
43784		7.942753	1.732843	2.184389	0.950165	-0.569637	-1.467972	0.318089	-0.085795	-0.147220	-1.105957	0.057373	0.325928	0.079431	0.017235	0.021905	0.072647	-0.628709	-0.133214	-0.762693	32.740995	-78.064206	164.090946
43785		8.366744	1.926296	2.298443	1.035306	-0.676232	-1.011172	0.381070	-0.063301	-0.099889	-1.105957	0.057373	0.332764	0.083670	0.019177	0.023048	0.073449	-0.628827	-0.134973	-0.762210	33.283029	-78.076307	163.759674
43786		8.446334	1.998962	2.362937	1.109128	-0.704424	-0.913615	0.424637	-0.023524	-0.031939	-1.106201	0.059570	0.330322	0.084464	0.019926	0.023682	0.074673	-0.628824	-0.136668	-0.761792	33.638289	-78.090843	163.644643
43787		8.673438	1.853677	2.658404	1.307843	-0.451466	-0.657499	0.439596	-0.007901	0.043376	-1.101563	0.059814	0.330322	0.086729	0.018497	0.026628	0.076241	-0.628800	-0.138178	-0.761384	33.807732	-78.121265	163.728447
43788		9.362383	1.699476	2.803795	1.272059	-0.212734	0.022977	0.453731	-0.012001	0.090473	-1.104004	0.066406	0.327637	0.093614	0.016973	0.028082	0.078029	-0.628820	-0.139593	-0.760928	33.885879	-78.169235	163.913631
43789		10.028339	1.660703	2.747265	1.086581	-0.151913	0.659621	0.474429	-0.002894	0.136000	-1.106689	0.072998	0.327393	0.100272	0.016610	0.027514	0.080063	-0.628821	-0.140941	-0.760467	33.856464	-78.226896	164.220949
43790		10.001952	1.635062	2.972314	1.304470	-0.058096	0.667871	0.504435	0.016382	0.176193	-1.106689	0.075195	0.331787	0.100008	0.016364	0.029756	0.082361	-0.628763	-0.142266	-0.760022	33.719303	-78.288561	164.655994
43791		9.890720	1.649484	3.072964	1.435398	-0.047302	0.576135	0.521773	0.003389	0.210404	-1.100098	0.079834	0.331299	0.098890	0.016519	0.030771	0.084829	-0.628765	-0.143556	-0.759507	33.530908	-78.366561	165.153204
43792		10.274433	1.689991	3.226572	1.528579	-0.019619	0.980545	0.540145	0.012554	0.239966	-1.109375	0.081787	0.329102	0.102726	0.016936	0.032305	0.087476	-0.628745	-0.144815	-0.758984	33.264615	-78.449915	165.740665
43793		10.914141	1.938721	3.408490	1.663983	-0.169744	1.663255	0.572323	0.051266	0.281791	-1.109619	0.090820	0.330811	0.109123	0.019443	0.034113	0.090408	-0.628583	-0.146049	-0.758538	32.852652	-78.526239	166.495304
43794		11.375244	2.341164	3.659065	1.947743	-0.455365	2.198345	0.601649	0.101700	0.336450	-1.105469	0.099854	0.327881	0.113732	0.023493	0.036603	0.093677	-0.628253	-0.147196	-0.758193	32.241242	-78.594212	167.470491
43795		11.365542	2.674424	3.801660	2.199220	-0.737782	2.245496	0.602085	0.173502	0.372588	-1.108154	0.108643	0.329590	0.113638	0.026842	0.037999	0.097134	-0.627665	-0.148197	-0.758049	31.426998	-78.635240	168.652542
43796		11.362360	3.035320	3.877049	2.393272	-1.071622	2.289863	0.588319	0.246472	0.376774	-1.110596	0.113037	0.318115	0.113614	0.030453	0.038720	0.100625	-0.626807	-0.149093	-0.758129	30.479475	-78.638991	169.962901
43797		11.640708	3.463108	3.786268	2.397827	-1.519144	2.588022	0.554367	0.322078	0.365840	-1.104004	0.117676	0.315674	0.116404	0.034739	0.037771	0.104014	-0.625658	-0.149857	-0.758469	29.436979	-78.596670	171.349880
43798		11.947240	3.777260	3.788494	2.436458	-1.832199	2.917730	0.544305	0.423190	0.359374	-1.111328	0.128662	0.310547	0.119484	0.037884	0.037735	0.107430	-0.624117	-0.150547	-0.759126	28.276137	-78.496831	172.852622
43799		11.916713	3.883809	3.877890	2.538214	-1.932004	2.913455	0.575730	0.531787	0.341758	-1.115967	0.132813	0.301270	0.119203	0.038931	0.038574	0.110948	-0.622124	-0.151352	-0.760095	27.067185	-78.330790	174.423016
43800		12.525484	3.560040	3.889757	2.274145	-1.649690	3.483866	0.565794	0.604962	0.316263	-1.115967	0.132813	0.301270	0.125316	0.035689	0.038619	0.114405	-0.619826	-0.152153	-0.761300	25.863689	-78.114211	175.983935
43801		13.696558	2.818219	3.605550	1.454936	-1.091482	4.513143	0.506648	0.626235	0.266010	-1.120605	0.137207	0.287598	0.137040	0.028274	0.035698	0.117488	-0.617432	-0.152872	-0.762630	24.779723	-77.867898	177.388501
43802		13.834390	1.854103	3.431783	0.850448	-0.305865	4.532618	0.458811	0.636371	0.193170	-1.116455	0.146240	0.280273	0.138434	0.018597	0.033920	0.120156	-0.614961	-0.153625	-0.764058	23.880783	-77.594011	178.577412
43803		11.856042	1.525781	3.631359	1.269021	0.030162	2.615861	0.409910	0.602398	0.126309	-1.114258	0.148438	0.275635	0.118660	0.015259	0.035988	0.122387	-0.612590	-0.154414	-0.765449	23.191213	-77.319279	179.524012
43804		11.443250	2.452328	3.156635	1.232064	-1.032222	2.201578	0.265402	0.446136	0.110187	-1.118896	0.150635	0.273438	0.114489	0.024545	0.031344	0.124000	-0.610885	-0.154794	-0.766474	22.637695	-77.121267	-179.752194
43805		12.108841	2.644175	2.282004	0.338759	-1.571651	2.686844	0.008345	0.290178	0.077952	-1.123291	0.150391	0.268799	0.121111	0.026488	0.022645	0.124575	-0.609912	-0.154382	-0.767239	22.179322	-76.997369	-179.277404
43806		11.145971	1.600509	1.923073	-0.185280	-0.763997	1.583559	-0.087858	0.203780	0.001549	-1.116455	0.148193	0.262207	0.111479	0.016014	0.019110	0.124502	-0.609269	-0.153890	-0.767859	21.926712	-76.902435	-179.069620
43807		9.396832	1.003280	1.644412	-0.280439	-0.322872	-0.229984	-0.059110	0.140533	-0.032094	-1.118652	0.145996	0.262451	0.093981	0.010023	0.016375	0.124333	-0.608826	-0.153648	-0.768287	21.829356	-76.833629	-179.004860
43808		8.205394	0.805788	0.849669	-0.804143	-0.446072	-1.575328	0.016472	0.056866	-0.021937	-1.123535	0.152588	0.264160	0.082057	0.008048	0.008474	0.124372	-0.608662	-0.153720	-0.768396	21.828134	-76.811207	-178.993881
43809		8.662022	0.435538	0.515731	-1.346982	-0.234252	-1.232649	0.095591	-0.048073	-0.022531	-1.116699	0.155029	0.266357	0.086619	0.004343	0.005180	0.124565	-0.608854	-0.154161	-0.768125	21.970001	-76.844716	-179.083766
43810		10.159019	-0.204833	0.268842	-2.143334	0.260701	0.119988	0.155854	-0.129620	-0.040623	-1.121094	0.150391	0.268799	0.101588	-0.002071	0.002753	0.124817	-0.609307	-0.154941	-0.767567	22.262014	-76.917756	-179.291587
43811		10.756901	-0.966918	0.203880	-2.615663	0.943729	0.625469	0.278894	-0.122898	-0.033199	-1.116699	0.155029	0.264160	0.107566	-0.009690	0.002091	0.125470	-0.609662	-0.156164	-0.766931	22.606104	-76.988367	-179.481199
43812		10.170537	-1.448600	0.346293	-2.532521	1.449357	0.043472	0.422378	-0.104077	-0.007686	-1.119141	0.155029	0.266357	0.101703	-0.014497	0.003485	0.126678	-0.609872	-0.157849	-0.766219	22.957325	-77.054593	-179.593068
43813		9.792066	-1.558209	0.272807	-2.549469	1.523948	-0.348820	0.494200	-0.134646	0.019469	-1.114746	0.157227	0.270752	0.097920	-0.015579	0.002755	0.128178	-0.610172	-0.159743	-0.765338	23.321117	-77.142719	-179.676225
43814		9.752968	-1.225248	0.231407	-2.436582	1.202462	-0.363226	0.507306	-0.180707	0.072958	-1.107910	0.157471	0.275146	0.097532	-0.012223	0.002371	0.129892	-0.610680	-0.161554	-0.764264	23.616302	-77.267441	-179.680666
43815		9.868252	-0.528353	0.399792	-2.017327	0.630868	-0.150713	0.475776	-0.204554	0.145752	-1.110107	0.155273	0.277588	0.098682	-0.005221	0.004086	0.131761	-0.611352	-0.163035	-0.763091	23.751459	-77.421132	-179.540233
43816		10.146237	0.127135	0.626782	-1.585392	0.118826	0.228601	0.372167	-0.238016	0.227938	-1.105957	0.166504	0.272217	0.101453	0.001375	0.006391	0.133600	-0.612286	-0.163891	-0.761837	23.665835	-77.611926	-179.234317
43817		10.403200	0.216626	0.556976	-1.629276	-0.003762	0.479495	0.238974	-0.285882	0.290727	-1.104004	0.168701	0.278809	0.104021	0.002311	0.005721	0.135229	-0.613536	-0.164078	-0.760503	23.394447	-77.841420	-178.816888
43818		10.104062	-0.218274	0.667838	-1.602086	0.423298	0.179294	0.166797	-0.310921	0.341590	-1.108643	0.173096	0.276367	0.101034	-0.002016	0.006834	0.136814	-0.614969	-0.163851	-0.759110	22.966177	-78.095436	-178.281166
43819		9.669617	-0.621714	0.690689	-1.612674	0.783079	-0.265387	0.156336	-0.337275	0.393465	-1.108887	0.179688	0.284912	0.096696	-0.006032	0.007065	0.138536	-0.616546	-0.163441	-0.757605	22.406895	-78.373473	-177.618817
43820		9.550006	-0.517155	0.523682	-1.646297	0.596661	-0.395800	0.224314	-0.369798	0.457435	-1.100098	0.184570	0.291504	0.095502	-0.004959	0.005408	0.140687	-0.618246	-0.163113	-0.755892	21.720471	-78.681332	-176.787161
43821		9.707182	0.192926	0.544484	-1.311621	-0.065740	-0.177435	0.325473	-0.383636	0.493687	-1.100586	0.195557	0.295166	0.097056	0.002160	0.005634	0.143269	-0.619949	-0.163063	-0.754021	20.966844	-79.001775	-175.829370
43822		9.561247	0.796973	0.650910	-0.880961	-0.590149	-0.254882	0.346038	-0.374088	0.473820	-1.098389	0.195801	0.302002	0.095581	0.008185	0.006702	0.145852	-0.621581	-0.163143	-0.752163	20.219352	-79.311283	-174.866347
43823		9.189620	0.801313	0.774355	-0.647892	-0.555709	-0.595202	0.309074	-0.359290	0.428743	-1.096680	0.209229	0.298828	0.091865	0.008198	0.007921	0.148155	-0.623136	-0.163210	-0.750409	19.518754	-79.601083	-173.974020
43824		9.007640	0.464064	0.814758	-0.675293	-0.247067	-0.784979	0.294515	-0.339920	0.379124	-1.092041	0.207031	0.312500	0.090053	0.004799	0.008308	0.150246	-0.624586	-0.163363	-0.748753	18.893829	-79.869727	-173.167375
43825		8.985011	0.253076	0.963843	-0.587942	-0.005896	-0.791733	0.320033	-0.296406	0.341057	-1.094727	0.218018	0.307373	0.089831	0.002668	0.009776	0.152303	-0.625814	-0.163695	-0.747238	18.320559	-80.105680	-172.399467
43826		8.784623	0.202939	1.239345	-0.295946	0.151348	-0.944983	0.327531	-0.240903	0.314291	-1.090332	0.218262	0.307373	0.087828	0.002147	0.012503	0.154332	-0.626806	-0.164097	-0.745901	17.747427	-80.305984	-171.627458
43827		8.655615	0.160887	1.279197	-0.227833	0.198430	-1.066800	0.298165	-0.199241	0.284761	-1.088135	0.222656	0.306885	0.086541	0.001713	0.012881	0.156188	-0.627633	-0.164447	-0.744741	17.184672	-80.476444	-170.883858
43828		8.512695	0.140190	1.358743	-0.117979	0.245373	-1.195400	0.264383	-0.167038	0.255822	-1.093018	0.229248	0.313232	0.085114	0.001493	0.013660	0.157860	-0.628342	-0.164738	-0.743726	16.642225	-80.623562	-170.180337
43829		8.306610	0.239814	1.458760	0.068372	0.197013	-1.378131	0.247228	-0.126225	0.222837	-1.088623	0.229492	0.317871	0.083054	0.002473	0.014643	0.159384	-0.628881	-0.165034	-0.742879	16.143102	-80.741518	-169.531422
43830		8.140230	0.389005	1.603116	0.305180	0.124784	-1.513535	0.203994	-0.091264	0.191937	-1.086670	0.238281	0.314941	0.081391	0.003952	0.016072	0.160690	-0.629300	-0.165240	-0.742197	15.675905	-80.834992	-168.939756
43831		7.968130	0.503373	1.666525	0.452857	0.048861	-1.669328	0.139837	-0.069823	0.170280	-1.081787	0.231934	0.319824	0.079671	0.005090	0.016697	0.161727	-0.629670	-0.165256	-0.741654	15.216680	-80.912026	-168.393922
43832		7.941195	0.512941	1.840982	0.626311	0.111611	-1.669582	0.058865	-0.037747	0.152958	-1.088867	0.238281	0.314941	0.079405	0.005185	0.018426	0.162475	-0.629973	-0.165003	-0.741289	14.732549	-80.968550	-167.869575
43833		8.092508	0.496349	1.830225	0.594926	0.107771	-1.522982	-0.021638	-0.012747	0.127439	-1.084229	0.236328	0.317383	0.080921	0.005017	0.018307	0.162891	-0.630225	-0.164509	-0.741093	14.264129	-81.006335	-167.408279
43834		8.129897	0.381099	1.781216	0.501151	0.179274	-1.498248	-0.067516	-0.008511	0.083266	-1.082275	0.242920	0.314697	0.081297	0.003851	0.017814	0.163006	-0.630464	-0.163983	-0.740982	13.917136	-81.035442	-167.096240
