// General information: 
//  MT Manager version: 2019.2.0 
//  XDA version: 2019.2.0 build 3853 rev 94535 built on 2019-09-09
// Device information: 
//  DeviceId: 00B40AC7
//  ProductCode: MTW2-3A7G6
//  Firmware Version: 4.3.5
//  Hardware Version: 1.1.0
// Device settings: 
//  Filter Profile: human(46.1)
//  Option Flags: Orientation Smoother Disabled, AHS Disabled, ICC Disabled
// Coordinate system: ENU
PacketCounter	SampleTimeFine	Acc_X	Acc_Y	Acc_Z	FreeAcc_E	FreeAcc_N	FreeAcc_U	Gyr_X	Gyr_Y	Gyr_Z	Mag_X	Mag_Y	Mag_Z	VelInc_X	VelInc_Y	VelInc_Z	Quat_q0	Quat_q1	Quat_q2	Quat_q3	Roll	Pitch	Yaw
43290		15.891911	4.093956	-1.362474	-2.520442	-3.640453	6.044474	3.011908	-2.194736	6.339290	-0.824707	-0.242920	0.319092	0.157643	0.046132	-0.011221	-0.289667	-0.676442	0.379002	-0.561139	-170.614477	-78.160055	-66.150487
43291		21.383732	7.183917	-1.277846	-5.300125	-7.516074	10.820096	3.551376	-2.336849	6.060942	-0.826904	-0.176758	0.348389	0.211646	0.078458	-0.008942	-0.256005	-0.676208	0.392662	-0.568350	-155.811281	-75.857628	-79.245989
43292		28.897760	12.188413	-0.984139	-9.657705	-13.793477	16.658276	3.522909	-2.153339	5.675654	-0.833008	-0.119385	0.366943	0.285430	0.130130	-0.004511	-0.223454	-0.675250	0.404436	-0.574923	-145.669333	-73.172384	-87.666201
43293		30.214059	17.764315	-0.908119	-14.811961	-18.911738	15.719042	2.890725	-1.461310	5.292124	-0.834717	-0.066650	0.378906	0.297341	0.185639	-0.004252	-0.195397	-0.671668	0.415432	-0.581463	-138.278217	-70.638839	-93.694854
43294		26.369182	22.856209	-3.423039	-21.014192	-19.789574	10.085357	1.618626	-0.476316	5.172224	-0.834229	-0.013916	0.368652	0.257738	0.235543	-0.031724	-0.173757	-0.663617	0.428464	-0.588081	-132.211635	-68.344389	-99.174954
43295		17.149257	22.797600	-5.039023	-22.123891	-15.608126	0.481035	-0.046679	0.199065	5.104287	-0.837646	0.025391	0.367676	0.165551	0.232240	-0.050611	-0.159247	-0.651855	0.445223	-0.592876	-127.555283	-66.168785	-104.249297
43296		15.774344	23.119971	-7.840712	-24.497833	-13.167024	-1.373178	-0.287775	-0.238464	4.014710	-0.833984	0.054199	0.373535	0.153156	0.234192	-0.078558	-0.147647	-0.643252	0.459291	-0.594541	-125.004002	-64.224525	-107.237024
43297		18.150643	22.740988	-9.921288	-26.089304	-12.500642	0.583057	0.521169	-0.591466	2.313587	-0.827881	0.069580	0.377686	0.179149	0.229748	-0.098084	-0.137696	-0.640046	0.465584	-0.595493	-123.762933	-62.936710	-108.287056
43298		15.014864	25.136484	-7.311506	-25.847173	-14.569814	-4.301704	1.008055	-0.654507	1.157186	-0.823730	0.080566	0.388428	0.148925	0.252591	-0.071355	-0.129452	-0.639982	0.466732	-0.596512	-123.085387	-62.171908	-108.397306
43299		13.314932	29.436295	-3.978725	-26.536643	-18.814002	-8.613675	1.076415	-0.805568	0.179926	-0.828369	0.082764	0.388428	0.133039	0.294689	-0.037666	-0.123560	-0.642659	0.464606	-0.596543	-123.091448	-61.831180	-107.689669
43300		14.936535	30.338132	-2.138581	-26.037749	-21.603383	-7.970198	0.367113	-0.526218	-0.869329	-0.827881	0.072021	0.393066	0.150737	0.302766	-0.020434	-0.123739	-0.646496	0.461026	-0.595136	-123.877038	-62.079649	-106.560525
43301		16.246805	28.574527	-0.956266	-24.029761	-22.122330	-6.002651	-0.822992	-0.104291	-1.792767	-0.829590	0.054443	0.400146	0.165026	0.284231	-0.010649	-0.131459	-0.650411	0.457720	-0.591757	-125.567324	-62.887506	-105.184119
43302		16.721988	14.641116	-3.815294	-15.415114	-12.428822	0.975900	-2.322592	0.343778	-2.658476	-0.830566	0.014893	0.401123	0.169074	0.143714	-0.040122	-0.147672	-0.653898	0.455612	-0.585686	-128.441200	-64.226514	-103.461585
43303		11.572469	-33.531863	-5.952383	21.257818	17.544763	13.294242	-2.574576	1.004545	-1.821416	-0.834961	0.006104	0.392578	0.112374	-0.337086	-0.055762	-0.163663	-0.653128	0.456392	-0.581674	-130.380790	-65.395644	-102.946170
43304		10.128192	-55.208164	-6.812690	38.275653	30.065025	18.961911	-0.114420	0.167972	1.005747	-0.839355	0.010254	0.392334	0.104000	-0.551602	-0.067898	-0.161516	-0.650287	0.459832	-0.582746	-129.501421	-65.018689	-103.987332
43305		14.200744	-15.636221	5.036114	13.900122	-1.278208	6.820559	0.516998	0.566240	-0.418908	-0.843506	0.001465	0.388184	0.141820	-0.156788	0.049555	-0.162328	-0.650025	0.456502	-0.585426	-128.991200	-65.407270	-104.220830
43306		22.184055	7.197899	1.954462	-6.358852	-14.111790	7.740743	2.450674	0.109240	-3.425027	-0.845215	-0.018066	0.397461	0.223038	0.067921	0.020272	-0.164592	-0.659391	0.437996	-0.588450	-130.322035	-66.957905	-101.230131
43307		24.481557	17.749626	-0.877032	-15.659858	-18.730588	8.047215	2.004378	-0.039930	-3.875814	-0.842285	-0.042236	0.393799	0.248196	0.172784	-0.006974	-0.169232	-0.669501	0.419250	-0.589371	-132.825172	-68.602314	-97.283948
43308		17.667258	12.480562	3.014270	-8.169644	-15.833902	2.816134	-0.272808	0.045923	-3.207695	-0.834473	-0.077393	0.396729	0.178651	0.121992	0.029934	-0.179685	-0.675802	0.409192	-0.586145	-136.353972	-69.932331	-93.677496
43309		13.736727	7.173541	1.727837	-4.495159	-10.172439	1.116065	-0.538917	-0.398115	-3.249618	-0.829346	-0.103516	0.408447	0.138475	0.069538	0.017364	-0.190163	-0.683054	0.400093	-0.580690	-141.030328	-70.988099	-89.041385
43310		13.324591	0.529640	2.106402	1.218096	-6.083491	2.176956	0.396357	-0.744693	-3.339264	-0.828613	-0.127686	0.413574	0.133229	0.003029	0.021568	-0.197358	-0.691994	0.388421	-0.575606	-146.150661	-71.795775	-83.454217
43311		10.203483	-0.891154	0.300887	1.378992	-2.750592	-0.039272	0.865194	-0.707233	-3.069160	-0.821289	-0.147217	0.429688	0.101871	-0.010490	0.003326	-0.201771	-0.700766	0.375959	-0.571726	-150.950047	-72.365325	-77.887474
43312		6.688975	1.414346	-3.174031	-2.638218	-0.590333	-2.776605	0.540254	-0.515063	-2.407366	-0.811768	-0.168945	0.432373	0.067136	0.013422	-0.031531	-0.206131	-0.707093	0.366693	-0.568389	-155.007584	-72.742539	-73.362529
43313		7.333483	5.825786	-3.116964	-5.725773	-3.629657	-2.638201	0.262635	-0.393343	-1.982256	-0.802490	-0.182129	0.432617	0.073969	0.057568	-0.030949	-0.210078	-0.712093	0.359326	-0.565399	-158.529026	-72.980612	-69.518003
43314		9.475222	6.261603	-4.040397	-6.299593	-3.766776	-0.250559	-0.782831	-0.102390	-1.768132	-0.799561	-0.203857	0.435547	0.095321	0.061616	-0.040598	-0.218050	-0.714535	0.355582	-0.561653	-162.229064	-73.278021	-66.177682
43315		10.729077	4.059797	-4.795617	-4.846309	-1.958092	1.468545	-1.768176	0.117768	-1.514969	-0.796631	-0.225830	0.433838	0.107564	0.039357	-0.048371	-0.228790	-0.714936	0.354984	-0.557232	-165.982974	-73.577763	-63.316057
43316		10.797112	1.213494	-4.655524	-2.432978	-0.051836	1.754411	-1.942277	0.140849	-1.223779	-0.793701	-0.243408	0.429932	0.108008	0.011021	-0.046742	-0.239827	-0.714238	0.356142	-0.552729	-169.431245	-73.818820	-60.952446
43317		11.495501	0.641179	-4.616966	-1.728448	0.268258	2.467829	-1.730489	0.161069	-1.054707	-0.795410	-0.261230	0.421387	0.114948	0.005405	-0.046312	-0.249170	-0.713574	0.356949	-0.548920	-172.437383	-74.002291	-58.853611
43318		10.895508	-1.603579	-2.909365	1.103459	0.651356	1.505630	-1.225851	0.199464	-0.995680	-0.785889	-0.280762	0.422119	0.108844	-0.016756	-0.029101	-0.257078	-0.713038	0.356816	-0.546050	-175.143537	-74.189294	-56.841476
43319		9.421413	-1.915496	-2.282178	1.599081	0.783135	-0.093161	-0.717318	0.083216	-0.921214	-0.785889	-0.283203	0.419922	0.094115	-0.019670	-0.022791	-0.262268	-0.713535	0.355380	-0.543864	-177.403576	-74.268345	-54.918026
43320		10.127366	-0.195446	-2.580663	0.251165	-0.127414	0.636301	-0.388867	0.059380	-0.917340	-0.780762	-0.302979	0.416016	0.101255	-0.002469	-0.025832	-0.266653	-0.714296	0.353360	-0.542046	-179.546863	-74.325351	-52.986419
43321		10.488165	0.345066	-2.378023	0.073193	-0.621159	0.928992	-0.335162	0.115018	-0.847178	-0.778320	-0.309326	0.420654	0.104881	0.002966	-0.023846	-0.270320	-0.715042	0.351089	-0.540720	178.531539	-74.384182	-51.188232
43322		10.118286	0.602614	-2.267902	-0.064499	-0.715240	0.549256	-0.398493	0.123912	-0.762569	-0.775635	-0.320313	0.414307	0.101191	0.005595	-0.022753	-0.274434	-0.715303	0.349564	-0.539288	176.670367	-74.445131	-49.559222
43323		9.963398	-0.356694	-2.249582	0.739130	-0.052483	0.380814	-0.425056	0.226763	-0.731028	-0.773193	-0.333496	0.412354	0.099594	-0.003979	-0.022601	-0.278293	-0.715395	0.347785	-0.538340	174.893217	-74.541207	-47.965599
43324		9.267364	-1.433539	-3.194193	0.979980	1.531275	-0.074296	-0.403721	0.263622	-0.655419	-0.770508	-0.346680	0.412598	0.092584	-0.014703	-0.032035	-0.282383	-0.715050	0.346469	-0.537515	173.189489	-74.660230	-46.507443
43325		8.991469	-1.272651	-4.115599	0.313717	2.264496	-0.108178	-0.291884	0.302515	-0.606797	-0.768066	-0.349121	0.406006	0.089813	-0.013059	-0.041273	-0.285553	-0.714887	0.344658	-0.537222	171.684044	-74.783676	-45.118132
43326		9.466699	-1.051489	-3.624163	0.543563	1.726484	0.216366	-0.179573	0.314696	-0.634779	-0.761230	-0.359863	0.401855	0.094576	-0.010848	-0.036381	-0.288843	-0.714680	0.342720	-0.536978	170.092042	-74.910301	-43.641401
43327		9.738987	-0.911075	-3.527546	0.571550	1.582655	0.448383	-0.065588	0.300124	-0.661557	-0.762939	-0.371094	0.399902	0.097306	-0.009444	-0.035418	-0.291341	-0.714923	0.340101	-0.536970	168.557433	-75.006532	-42.089185
43328		9.905593	-0.769076	-3.437455	0.578955	1.465303	0.581810	-0.072185	0.282069	-0.662571	-0.753906	-0.379639	0.400391	0.098981	-0.008031	-0.034511	-0.294258	-0.714988	0.337822	-0.536732	166.941081	-75.089108	-40.525796
43329		9.984012	-0.689750	-2.863481	0.894634	1.019426	0.507956	-0.203523	0.282530	-0.646221	-0.753662	-0.388428	0.398193	0.099776	-0.007249	-0.028769	-0.297169	-0.715032	0.335644	-0.536435	165.333580	-75.155108	-38.981117
43330		9.664963	-0.067644	-2.687842	0.478068	0.626642	0.188254	-0.425049	0.223568	-0.659000	-0.741943	-0.403809	0.389893	0.096616	-0.001052	-0.026984	-0.301214	-0.714714	0.334395	-0.535381	163.531489	-75.181024	-37.433450
43331		9.851613	-0.188098	-2.832114	0.584619	0.848892	0.387676	-0.563056	0.207135	-0.757888	-0.741455	-0.421387	0.388184	0.098478	-0.002334	-0.028417	-0.305573	-0.714586	0.332882	-0.534024	161.518549	-75.161480	-35.682814
43332		9.765550	-1.888198	-3.319449	1.726661	2.324378	0.265260	-0.574091	0.213962	-0.832627	-0.736572	-0.430420	0.377197	0.097540	-0.019384	-0.033244	-0.310634	-0.714294	0.331471	-0.532369	159.282793	-75.120733	-33.785075
43333		9.611706	-2.527764	-3.996419	1.905866	3.328792	0.188899	-0.490253	0.147344	-0.867435	-0.729492	-0.443604	0.375488	0.095976	-0.025792	-0.039972	-0.314909	-0.714585	0.329450	-0.530720	157.163289	-75.012525	-31.880134
43334		9.688218	-1.994683	-3.966125	1.588392	3.049050	0.274424	-0.400034	0.106559	-0.929195	-0.720215	-0.452148	0.373535	0.096767	-0.020476	-0.039672	-0.318991	-0.715222	0.326979	-0.528950	155.017450	-74.848681	-29.893847
43335		9.908202	-0.383922	-3.665322	0.587519	1.911731	0.567749	-0.330991	0.126913	-1.031529	-0.704346	-0.465332	0.364990	0.099037	-0.004411	-0.036709	-0.323080	-0.716049	0.323963	-0.527200	152.773432	-74.651841	-27.762436
43336		10.108888	0.723509	-3.028559	0.177116	0.816887	0.731752	-0.385475	0.237562	-1.127018	-0.699219	-0.482910	0.363281	0.101091	0.006607	-0.030419	-0.327822	-0.716640	0.320518	-0.525573	150.249843	-74.459230	-25.372022
43337		10.262587	0.778143	-2.577523	0.503518	0.505086	0.773129	-0.571362	0.326709	-1.187555	-0.687744	-0.496094	0.352539	0.102627	0.007098	-0.025964	-0.333481	-0.716748	0.317227	-0.523861	147.505904	-74.265895	-22.860517
43338		10.320506	-0.385254	-2.548109	1.561163	1.257874	0.633977	-0.750589	0.388678	-1.210498	-0.671631	-0.509277	0.348633	0.103129	-0.004573	-0.025665	-0.339959	-0.716406	0.314163	-0.522008	144.598285	-74.058802	-20.283749
43339		10.276813	-0.161928	-2.478160	1.500232	1.194416	0.584478	-0.830399	0.433553	-1.242158	-0.666748	-0.524658	0.340088	0.102701	-0.002361	-0.024996	-0.346822	-0.715808	0.311140	-0.520121	141.636958	-73.828681	-17.695267
43340		10.666693	0.369109	-2.121133	1.460028	0.701734	0.947753	-0.951057	0.572304	-1.349051	-0.652832	-0.540283	0.327148	0.106627	0.002870	-0.021531	-0.354620	-0.714767	0.307748	-0.518308	138.337941	-73.578285	-14.824385
43341		10.655905	-0.708443	-2.316467	2.325700	1.616150	0.741569	-1.100290	0.678858	-1.445282	-0.638916	-0.557861	0.318848	0.106424	-0.007982	-0.023484	-0.363301	-0.713264	0.304222	-0.516446	134.797549	-73.290020	-11.786383
43342		10.813041	-0.905972	-2.717404	2.432938	2.209866	0.879392	-1.200901	0.730158	-1.505210	-0.622803	-0.573242	0.306152	0.107957	-0.010037	-0.027510	-0.372567	-0.711473	0.300583	-0.514441	131.159234	-72.939774	-8.701661
43343		11.577234	-1.400944	-2.505042	3.283157	2.440900	1.391261	-1.225898	0.834434	-1.622658	-0.613281	-0.590820	0.299805	0.115547	-0.015103	-0.025442	-0.382309	-0.709455	0.296398	-0.512505	127.383804	-72.521536	-5.481559
43344		12.100231	-1.828569	-2.881074	3.733153	3.168929	1.766393	-1.149915	0.898818	-1.805234	-0.596924	-0.610596	0.282715	0.120699	-0.019543	-0.029244	-0.392323	-0.707604	0.291177	-0.510486	123.538826	-71.973648	-2.134530
43345		12.913202	-2.190190	-2.677066	4.531830	3.398010	2.296074	-1.006502	0.976601	-2.038678	-0.578613	-0.625977	0.272217	0.128767	-0.023352	-0.027285	-0.402455	-0.706067	0.284603	-0.508429	119.694807	-71.271389	1.310318
43346		13.162466	-3.575370	-3.143850	5.673519	4.756356	2.065680	-0.889105	1.029087	-2.187896	-0.562500	-0.641357	0.257080	0.131059	-0.037331	-0.031950	-0.412584	-0.704737	0.277026	-0.506337	115.998981	-70.434853	4.684962
43347		13.910123	-2.517885	-3.079923	5.279595	4.452580	2.899712	-0.725924	1.054352	-2.379594	-0.546387	-0.658936	0.253174	0.138623	-0.026943	-0.031435	-0.422565	-0.703819	0.268286	-0.504083	112.549992	-69.439749	7.915861
43348		15.105270	-2.553078	-1.962074	6.468785	3.869882	3.666903	-0.755453	1.174497	-2.602751	-0.523682	-0.669922	0.240234	0.150584	-0.027569	-0.020404	-0.433303	-0.702696	0.258510	-0.501636	109.123005	-68.282936	11.127682
43349		15.786197	-3.185551	-1.802905	7.523158	4.438240	3.835969	-1.037946	1.324206	-2.734738	-0.505371	-0.689697	0.225342	0.157283	-0.034105	-0.018899	-0.445441	-0.700588	0.248611	-0.498950	105.637686	-67.013924	14.254941
43350		16.985036	-3.939289	-1.895127	8.777130	5.374111	4.387847	-1.455002	1.470527	-2.859372	-0.480469	-0.700684	0.210205	0.169119	-0.041957	-0.019898	-0.459414	-0.697140	0.238911	-0.495839	102.050372	-65.623967	17.263388
43351		18.321224	-7.474090	-2.071109	12.280152	7.711764	3.807508	-1.951680	1.646945	-2.952125	-0.463867	-0.727295	0.188721	0.181906	-0.077640	-0.021464	-0.475393	-0.691986	0.229640	-0.492364	98.321562	-64.126148	20.148528
43352		19.993046	-10.881560	-3.263033	15.393955	10.870179	3.362697	-2.352239	1.821053	-3.023643	-0.447754	-0.740479	0.166992	0.197951	-0.112206	-0.033132	-0.492933	-0.685240	0.220605	-0.488667	94.530058	-62.523016	22.884804
43353		21.085551	-15.685712	-6.754099	18.399236	16.447124	1.462614	-2.548012	1.883173	-3.088985	-0.425049	-0.753906	0.136475	0.207755	-0.160942	-0.067474	-0.511145	-0.677618	0.211562	-0.484568	90.922149	-60.807052	25.326942
43354		19.216758	-18.427050	-9.715884	18.779769	19.925056	-2.502684	-2.249794	1.782927	-3.353384	-0.406738	-0.769287	0.121582	0.188166	-0.188538	-0.096743	-0.528612	-0.670942	0.201088	-0.479552	87.915086	-58.881268	27.315184
43355		18.298098	-14.717795	-9.561828	15.861066	18.358875	-2.454786	-1.681044	1.712054	-3.732185	-0.375000	-0.782471	0.102051	0.179362	-0.151353	-0.095904	-0.544769	-0.666001	0.188035	-0.473616	85.595606	-56.691799	28.920153
43356		18.428922	-11.037523	-10.815599	12.853223	18.489787	-1.370608	-1.306890	1.512936	-3.637064	-0.361328	-0.795898	0.086914	0.181412	-0.114401	-0.108797	-0.558979	-0.662149	0.174937	-0.467437	83.872696	-54.547648	30.102052
43357		17.293442	-6.636807	-11.005085	9.160878	17.181336	-0.590498	-0.849582	1.192834	-3.495262	-0.336426	-0.806641	0.080566	0.171075	-0.069838	-0.110783	-0.570884	-0.659945	0.161997	-0.460783	82.788035	-52.480490	30.847993
43358		14.872747	-4.826496	-11.197237	6.697157	16.259924	-2.027421	0.534370	0.547576	-3.597234	-0.311523	-0.815186	0.092041	0.147523	-0.050626	-0.112511	-0.577681	-0.663036	0.147412	-0.452701	83.032496	-50.410388	30.929587
43359		15.814364	-3.193821	-10.381904	6.577437	15.499190	-0.616107	1.986250	-0.157746	-3.787477	-0.284668	-0.821289	0.116699	0.157596	-0.033894	-0.104025	-0.579401	-0.671789	0.130796	-0.442591	84.553548	-48.264150	30.427579
43360		17.010613	-4.734967	-3.635742	11.514087	10.501320	-0.750955	2.222653	0.328815	-3.838864	-0.260010	-0.825439	0.130127	0.169100	-0.050192	-0.037183	-0.580415	-0.679880	0.112124	-0.433948	85.835215	-46.072778	30.420953
43361		14.484624	2.279689	-1.789557	6.533208	6.097616	1.948099	1.015371	0.408911	-3.783260	-0.244141	-0.836182	0.125977	0.145207	0.020144	-0.018085	-0.585270	-0.683948	0.095866	-0.424835	86.336034	-43.895410	30.538379
43362		10.149527	6.217245	-4.630744	0.377839	6.035990	1.435726	0.093506	0.227824	-2.691127	-0.232910	-0.838379	0.123779	0.102267	0.060821	-0.046395	-0.591907	-0.684590	0.087542	-0.416317	86.326887	-42.349096	30.309629
43363		7.591630	4.021057	-9.225141	-1.881180	9.873402	-2.204751	-0.400232	0.141278	-1.119428	-0.237305	-0.844971	0.121826	0.076074	0.039600	-0.092385	-0.595640	-0.683609	0.084137	-0.413295	86.067560	-41.704959	30.357448
43364		8.152914	-5.237555	-9.501755	4.080428	12.904941	-8.813930	-0.460104	0.235264	-0.227459	-0.237305	-0.840820	0.108398	0.081358	-0.052687	-0.094992	-0.598742	-0.681541	0.085072	-0.412035	85.666759	-41.568082	30.297714
43365		6.035574	-10.635251	-3.686194	8.700300	8.403313	-13.913092	-0.299016	0.288190	0.773478	-0.266357	-0.838867	0.105957	0.060714	-0.106173	-0.036790	-0.598267	-0.679736	0.087473	-0.415192	85.321642	-41.998150	30.561547
43366		4.321659	-9.365623	0.615923	8.858678	3.573429	-13.752691	-0.420487	0.156512	1.361081	-0.284180	-0.839111	0.097168	0.043857	-0.093346	0.006322	-0.597746	-0.677265	0.093773	-0.418590	84.916926	-42.773177	30.576682
43367		3.080505	-5.707812	2.219801	6.551405	0.713401	-11.700924	-0.075807	-0.114313	1.588440	-0.297607	-0.832520	0.099121	0.031244	-0.056823	0.022237	-0.594588	-0.676531	0.099662	-0.422892	84.863135	-43.686769	30.594724
43368		0.371171	-3.170472	1.120683	2.775873	0.015011	-11.746488	0.568830	-0.407906	1.975194	-0.333496	-0.826172	0.101074	0.004002	-0.031698	0.011125	-0.588956	-0.677804	0.107455	-0.426809	85.302347	-44.842384	30.238358
43369		-0.661524	-2.182933	-0.646276	0.735828	0.979190	-11.842433	0.775276	-0.656669	2.604674	-0.363037	-0.810791	0.113770	-0.006309	-0.021888	-0.006569	-0.580341	-0.680042	0.116564	-0.432619	86.019158	-46.360176	29.859684
43370		0.372471	-1.218658	-1.734103	0.254220	2.043399	-10.437649	0.660431	-0.846922	3.237319	-0.392334	-0.802246	0.113525	0.003994	-0.012066	-0.017364	-0.571010	-0.681598	0.129419	-0.438887	86.784396	-48.252678	29.195617
43371		1.975555	-1.505144	-1.905271	1.305325	2.807512	-9.353101	0.532639	-1.010188	3.838190	-0.428467	-0.782715	0.119629	0.020135	-0.014617	-0.018991	-0.559986	-0.682734	0.144200	-0.446650	87.643995	-50.478525	28.467872
43372		2.816956	-2.227178	-1.545297	2.431925	2.952910	-9.008382	0.445767	-1.094651	4.494443	-0.476074	-0.758789	0.125488	0.028744	-0.021596	-0.015345	-0.547996	-0.682755	0.162396	-0.455163	88.574116	-53.083751	27.473541
43373		3.226958	-3.169116	-0.600302	3.726054	2.512268	-9.027076	0.370992	-1.168418	5.107694	-0.512695	-0.730469	0.131104	0.033099	-0.030842	-0.005869	-0.533949	-0.682067	0.182143	-0.465303	89.670091	-56.021340	26.392011
43374		3.851441	-4.343122	0.319502	5.295150	2.212331	-8.887023	0.304529	-1.216850	5.535867	-0.562500	-0.702148	0.139160	0.039677	-0.042349	0.003369	-0.519136	-0.680146	0.204192	-0.475611	90.960725	-59.201796	24.958609
43375		5.145210	-5.385228	0.434695	6.695498	2.708905	-7.947309	0.467172	-1.326716	5.805336	-0.601807	-0.662598	0.155762	0.052956	-0.052340	0.004571	-0.502137	-0.678302	0.226183	-0.486422	92.793722	-62.502623	23.169473
43376		6.946301	-5.295599	-0.189036	6.992697	3.421534	-5.850144	0.874763	-1.502593	6.039317	-0.641113	-0.618896	0.165527	0.071032	-0.050819	-0.001586	-0.482877	-0.676745	0.248799	-0.496936	95.590474	-65.905951	20.530434
43377		8.827539	-4.325606	0.403501	6.921915	2.532119	-3.297948	1.190162	-1.648318	6.380899	-0.689209	-0.574951	0.190918	0.089560	-0.040438	0.004523	-0.460656	-0.675415	0.271278	-0.507956	99.747557	-69.405614	16.777525
43378		9.837648	-2.035437	-0.928814	4.382954	2.493734	-1.076845	1.370551	-1.787933	6.673563	-0.722168	-0.524658	0.204834	0.099060	-0.016996	-0.008529	-0.436608	-0.673421	0.294779	-0.518637	105.969692	-72.926017	10.967964
43379		11.184536	-0.615330	-0.646670	3.185953	1.214718	0.874318	1.586372	-1.891115	6.772284	-0.755127	-0.469727	0.227783	0.112022	-0.002316	-0.005436	-0.410615	-0.671386	0.317407	-0.529045	115.546980	-76.180032	1.982117
43380		12.632946	0.123832	-0.637396	2.303072	0.291999	2.619324	1.777838	-2.027674	6.797825	-0.783691	-0.410156	0.252686	0.126245	0.005580	-0.005057	-0.383413	-0.668911	0.339952	-0.538503	130.642434	-78.844255	-12.494244
43381		13.824666	1.394932	-0.343864	0.909730	-1.310600	3.991554	2.336841	-2.243578	6.699215	-0.810303	-0.344238	0.273193	0.137701	0.018595	-0.001692	-0.353462	-0.667598	0.360132	-0.547432	152.751123	-80.236319	-33.603046
43382		15.693473	2.900820	-0.367713	-0.821023	-3.022668	5.837175	3.083671	-2.354415	6.405721	-0.816895	-0.278076	0.304688	0.155923	0.034046	-0.001338	-0.321030	-0.667440	0.377169	-0.556064	177.038649	-79.880578	-56.461630
43383		19.447564	6.277933	-1.206956	-4.469444	-5.610865	9.356103	3.883026	-2.448546	6.016373	-0.832520	-0.211914	0.335938	0.192584	0.068779	-0.008407	-0.286479	-0.668672	0.390112	-0.564465	-163.910808	-78.070089	-73.594131
43384		27.374836	11.778725	-1.100215	-9.319316	-11.616982	16.016973	4.278145	-2.363589	5.640387	-0.827637	-0.150146	0.358887	0.270363	0.125597	-0.005162	-0.251331	-0.669940	0.400180	-0.572598	-150.853169	-75.550680	-84.486350
43385		31.366019	16.379381	-0.838086	-13.562170	-17.050777	18.074790	4.114212	-1.874133	5.368269	-0.833740	-0.097412	0.377441	0.309151	0.172218	-0.001984	-0.218256	-0.669336	0.408492	-0.580937	-141.547669	-72.939590	-91.700494
43386		26.682959	20.798502	-2.322370	-18.521394	-18.584123	11.662404	3.567656	-1.204957	5.134275	-0.828857	-0.042480	0.382568	0.261486	0.215095	-0.017842	-0.188726	-0.665841	0.416556	-0.589507	-134.265005	-70.435734	-97.218241
43387		21.620687	23.498512	-4.167965	-22.014452	-18.134068	5.129340	2.240504	-0.478739	5.025587	-0.832764	0.008057	0.383545	0.210300	0.240763	-0.038496	-0.165361	-0.658660	0.426975	-0.597089	-128.496831	-68.089341	-102.009585
43388		18.085234	25.804335	-5.541090	-24.754512	-17.697983	0.060629	0.966139	-0.303782	4.179553	-0.833740	0.041016	0.385010	0.175487	0.262011	-0.053882	-0.148927	-0.651243	0.438106	-0.601471	-124.873866	-66.049748	-105.342522
43389		19.453937	26.902181	-7.659059	-27.364956	-17.564194	0.357636	0.444832	-0.362291	2.642795	-0.829834	0.060791	0.388916	0.191098	0.271731	-0.075640	-0.138696	-0.646828	0.445602	-0.603172	-123.149006	-64.675936	-106.957385
43390		17.278697	28.833810	-7.187008	-28.381426	-18.187130	-3.082308	-0.001565	-0.187051	1.489840	-0.827881	0.069580	0.388672	0.170700	0.289614	-0.071712	-0.133723	-0.644030	0.450606	-0.603571	-122.372730	-63.889677	-107.820541
43391		12.977071	30.744618	-5.648309	-28.318845	-18.478397	-8.354883	-0.515307	-0.229656	0.768490	-0.827881	0.069580	0.390869	0.128654	0.307795	-0.057128	-0.132517	-0.642653	0.454783	-0.602171	-122.417481	-63.445035	-108.097816
43392		12.530216	30.303487	-4.767887	-27.480309	-18.491166	-8.841823	-1.024672	-0.189772	-0.059599	-0.832275	0.063232	0.393311	0.125439	0.302748	-0.049111	-0.135519	-0.642678	0.457826	-0.599162	-123.227559	-63.408945	-107.848899
43393		14.526801	28.246678	-2.907715	-25.199756	-19.260648	-6.448008	-1.884935	0.142653	-1.050774	-0.829346	0.045654	0.391602	0.146726	0.281407	-0.031837	-0.145014	-0.643354	0.459972	-0.594552	-124.853441	-63.951172	-107.237660
43394		16.208563	21.775723	-1.764664	-19.953919	-16.896132	-2.308451	-2.634661	0.415555	-2.036758	-0.837402	0.014893	0.396729	0.164249	0.215831	-0.020838	-0.160580	-0.644760	0.460958	-0.588231	-127.410133	-65.036574	-106.094243
43395		14.163826	2.200742	-5.465768	-6.559096	-2.602645	3.807537	-3.090663	0.692871	-2.555006	-0.836426	-0.013916	0.384033	0.141706	0.019344	-0.055461	-0.179593	-0.646009	0.461159	-0.581163	-130.540091	-66.421852	-104.601375
43396		11.630122	-46.127717	-4.270791	33.800228	22.106144	15.683347	-2.141890	1.155685	-0.873007	-0.840576	-0.024902	0.384277	0.114055	-0.462205	-0.038425	-0.191846	-0.642631	0.463566	-0.579075	-131.377394	-67.239316	-105.047258
43397		11.179041	-40.307342	-3.627706	29.726839	18.603210	13.274920	-0.012041	0.293073	0.892701	-0.849609	-0.020508	0.386475	0.113535	-0.402571	-0.036418	-0.189949	-0.639708	0.466183	-0.580832	-130.293185	-66.959524	-106.229548
43398		17.989872	-8.602808	1.417560	5.940382	-3.443752	8.962084	2.010048	0.205045	-1.614005	-0.851563	-0.031494	0.388916	0.179210	-0.087612	0.013116	-0.188713	-0.644697	0.455016	-0.584563	-130.364326	-67.738768	-104.915289
43399		24.706332	13.199729	0.649908	-12.214012	-16.313318	9.413343	2.556118	-0.061572	-3.878964	-0.843994	-0.057861	0.389648	0.249558	0.127075	0.008221	-0.191592	-0.655952	0.434979	-0.586356	-132.722378	-69.377147	-100.806761
43400		22.594907	18.595731	0.385489	-15.651609	-18.290534	6.826345	1.545174	0.009993	-3.708168	-0.834229	-0.083984	0.392578	0.229345	0.181689	0.005258	-0.197434	-0.665306	0.418248	-0.586051	-135.941871	-70.901912	-96.453628
43401		15.114483	7.718142	2.971680	-4.627026	-11.459932	2.190786	-0.089139	0.079617	-3.258358	-0.835693	-0.110352	0.390869	0.152387	0.074719	0.029623	-0.207392	-0.671724	0.407538	-0.582828	-140.060781	-72.183096	-92.163559
43402		9.862977	2.194627	1.151465	-0.998342	-5.097038	-1.069965	0.470969	-0.453843	-3.147853	-0.825928	-0.136475	0.402832	0.098932	0.020363	0.011788	-0.214112	-0.679838	0.396054	-0.578893	-144.884141	-73.079088	-86.839123
43403		7.939626	1.239243	1.553008	0.233673	-4.166220	-2.772266	1.149887	-0.799315	-2.905195	-0.820801	-0.158203	0.418701	0.079501	0.011147	0.015914	-0.216975	-0.689061	0.383656	-0.575260	-149.733898	-73.590426	-81.087325
43404		8.168101	2.398164	-1.651038	-2.442493	-2.489037	-1.873570	0.905829	-0.430750	-2.735950	-0.807129	-0.173584	0.416992	0.082035	0.022935	-0.016228	-0.220947	-0.696443	0.372081	-0.572455	-154.414247	-74.109201	-75.684460
43405		8.016675	2.076092	-2.479737	-2.556275	-1.572107	-1.706030	0.406553	-0.229081	-2.113758	-0.811035	-0.188965	0.421875	0.080409	0.019962	-0.024664	-0.225116	-0.701454	0.363790	-0.570037	-158.312712	-74.471814	-71.390836
43406		8.863529	5.866405	-3.439642	-5.863206	-3.417662	-0.938716	-0.269125	-0.223844	-1.675396	-0.805908	-0.210693	0.428955	0.089161	0.057872	-0.034375	-0.230495	-0.704798	0.358948	-0.566822	-161.916642	-74.679399	-67.822276
43407		11.075270	4.847531	-3.830892	-4.969779	-2.901895	1.488238	-1.225630	0.055629	-1.654194	-0.801025	-0.223877	0.422852	0.111137	0.047321	-0.038632	-0.239564	-0.706174	0.356511	-0.562874	-165.941860	-74.969565	-64.377259
43408		11.286544	1.298367	-3.138383	-1.623021	-1.050275	1.813993	-1.619309	0.208917	-1.521125	-0.800293	-0.250244	0.418945	0.112926	0.011870	-0.031601	-0.250010	-0.706300	0.355456	-0.558826	-170.009418	-75.269549	-61.140441
43409		11.319787	-1.047417	-3.929313	-0.119544	1.149152	2.159604	-1.339439	0.206970	-1.344691	-0.799561	-0.267822	0.412842	0.113082	-0.011498	-0.039335	-0.258828	-0.706419	0.354178	-0.555462	-173.632011	-75.493712	-58.187770
43410		10.903434	-2.144059	-4.402623	0.547818	2.402964	1.882947	-0.805085	0.228941	-1.301085	-0.783691	-0.281006	0.419922	0.108841	-0.022326	-0.044062	-0.265786	-0.707001	0.351555	-0.553096	-176.970704	-75.686362	-55.231215
43411		9.126375	-2.118650	-4.019152	0.618338	2.562223	0.035363	-0.315250	0.151565	-1.310724	-0.781006	-0.294189	0.413574	0.091092	-0.021847	-0.040227	-0.270760	-0.708466	0.347587	-0.551315	179.909347	-75.789658	-52.196408
43412		8.661492	-1.122206	-2.761048	0.596843	1.163637	-0.746663	0.010612	0.067038	-1.320301	-0.782959	-0.302734	0.420410	0.086529	-0.011792	-0.027640	-0.274548	-0.710566	0.342811	-0.549727	176.899141	-75.805929	-49.095313
43413		9.704370	-0.266317	-1.437983	0.964080	-0.490642	-0.058612	0.105051	0.042568	-1.327303	-0.775879	-0.313721	0.416260	0.097020	-0.003300	-0.014402	-0.277864	-0.712868	0.337744	-0.548215	173.965287	-75.766971	-46.004706
43414		10.064341	-0.463001	-1.597486	1.183058	-0.229909	0.316652	0.001085	0.003152	-1.237203	-0.770996	-0.331299	0.416748	0.100612	-0.005252	-0.015976	-0.281319	-0.714932	0.333344	-0.546456	171.181087	-75.675277	-43.140209
43415		11.101522	0.322976	-1.189936	1.094588	-1.125193	1.246177	-0.129253	0.021339	-1.151845	-0.763916	-0.344482	0.412598	0.111030	0.002583	-0.011913	-0.284933	-0.716615	0.329548	-0.544678	168.571862	-75.568725	-40.521039
43416		11.273064	1.035477	-1.532887	0.467515	-1.251861	1.532658	-0.326550	-0.026659	-1.079136	-0.759033	-0.353271	0.417236	0.112786	0.009721	-0.015330	-0.289083	-0.717970	0.326649	-0.542448	166.044158	-75.416289	-38.116458
43417		10.936991	1.178275	-2.112558	0.046869	-0.768402	1.362067	-0.510654	-0.067850	-1.004780	-0.756348	-0.370850	0.408936	0.109434	0.011179	-0.021118	-0.293501	-0.719061	0.324524	-0.539901	163.677300	-75.225960	-35.970157
43418		10.781083	0.693682	-2.396318	0.325705	-0.157772	1.247294	-0.670614	-0.093696	-0.918321	-0.747070	-0.384033	0.409180	0.107852	0.006361	-0.023935	-0.298332	-0.719784	0.323218	-0.537065	161.442097	-75.015231	-34.069729
43419		10.648917	0.378697	-2.992229	0.291898	0.580060	1.236006	-0.759852	-0.078531	-0.809264	-0.744385	-0.395020	0.407227	0.106515	0.003242	-0.029893	-0.303083	-0.720173	0.322463	-0.534330	159.450520	-74.815347	-32.455925
43420		10.576851	0.669556	-3.177769	0.026439	0.621809	1.233945	-0.812471	-0.018293	-0.727806	-0.739502	-0.410400	0.405518	0.105795	0.006181	-0.031794	-0.308032	-0.720119	0.322107	-0.531782	157.555681	-74.650936	-30.992102
43421		10.497139	0.734856	-3.357131	-0.066371	0.800507	1.203399	-0.937948	0.032152	-0.681682	-0.730225	-0.419189	0.399170	0.104990	0.006833	-0.033621	-0.313243	-0.719690	0.322096	-0.529319	155.701225	-74.510752	-29.623816
43422		11.358202	0.374983	-3.169896	0.602591	0.830799	1.940745	-1.133126	0.158051	-0.674405	-0.725098	-0.441162	0.393066	0.113568	0.003187	-0.031808	-0.319476	-0.718525	0.322499	-0.526927	153.634863	-74.425237	-28.172984
43423		11.932672	0.345576	-2.080620	1.432886	-0.008499	2.219885	-1.335402	0.258307	-0.643369	-0.722656	-0.445557	0.375488	0.119310	0.002932	-0.020981	-0.326351	-0.716744	0.323289	-0.524650	151.463116	-74.384641	-26.710542
43424		11.502087	-0.127620	-1.398397	2.137340	-0.146206	1.574999	-1.519298	0.367822	-0.596445	-0.719727	-0.467773	0.364990	0.114990	-0.001726	-0.014183	-0.334091	-0.714178	0.324640	-0.522439	149.134507	-74.396624	-25.221883
43425		10.406972	-0.470461	-1.853105	1.958436	0.628763	0.566559	-1.621979	0.462325	-0.573136	-0.710449	-0.478760	0.356445	0.104012	-0.005154	-0.018731	-0.342092	-0.711179	0.326051	-0.520470	146.713041	-74.444883	-23.670771
43426		10.077739	-0.328730	-2.218668	1.623771	0.977450	0.336123	-1.554710	0.531463	-0.617226	-0.705566	-0.492188	0.341309	0.100707	-0.003772	-0.022426	-0.350246	-0.708037	0.327119	-0.518656	144.130559	-74.493471	-21.944505
43427		10.076941	-1.169256	-2.298208	2.333294	1.592350	0.197943	-1.384237	0.594809	-0.715466	-0.698486	-0.505371	0.323975	0.100658	-0.012213	-0.023198	-0.357938	-0.705232	0.327129	-0.517218	141.427379	-74.515297	-19.960339
43428		9.415602	-1.929199	-2.914880	2.556750	2.666356	-0.473292	-1.183011	0.593423	-0.786211	-0.689209	-0.514160	0.313232	0.093992	-0.019835	-0.029312	-0.365095	-0.702871	0.326315	-0.515942	138.714278	-74.483525	-17.845188
43429		9.021878	-0.931635	-3.585216	1.363397	2.840967	-0.583128	-0.923061	0.560663	-0.893574	-0.679688	-0.533936	0.311523	0.090075	-0.009885	-0.036060	-0.371525	-0.701196	0.324531	-0.514754	136.064258	-74.371955	-15.641171
43430		9.166007	-0.171303	-3.168405	1.032850	2.186131	-0.419264	-0.717104	0.597239	-1.052236	-0.663818	-0.540527	0.307373	0.091554	-0.002309	-0.031950	-0.377698	-0.700042	0.321547	-0.513705	133.283881	-74.180600	-13.176690
43431		9.220310	0.510863	-3.322733	0.474036	2.081117	-0.233637	-0.642367	0.615104	-1.162198	-0.654297	-0.560547	0.285645	0.092127	0.004466	-0.033526	-0.383885	-0.699115	0.317965	-0.512609	130.453972	-73.918794	-10.614226
43432		9.373180	0.065155	-3.418961	0.921808	2.500990	-0.197937	-0.638073	0.660815	-1.236037	-0.647461	-0.564697	0.285889	0.093619	-0.000037	-0.034500	-0.390311	-0.698165	0.313983	-0.511504	127.550900	-73.603573	-7.968598
43433		9.134714	-0.242271	-4.036580	0.903070	3.320908	-0.434537	-0.666692	0.674326	-1.232176	-0.635742	-0.580078	0.279541	0.091193	-0.003120	-0.040664	-0.396812	-0.697070	0.310069	-0.510383	124.731951	-73.260420	-5.424047
43434		9.248091	0.497046	-3.996566	0.418532	3.045680	-0.205752	-0.737861	0.698719	-1.280021	-0.624512	-0.586670	0.270996	0.092369	0.004231	-0.040305	-0.403707	-0.695808	0.306080	-0.509104	121.893851	-72.864464	-2.896676
43435		9.469674	0.626106	-4.166073	0.388710	3.266641	0.015743	-0.838990	0.749435	-1.375081	-0.605957	-0.604492	0.256104	0.094579	0.005435	-0.042039	-0.411233	-0.694301	0.301915	-0.507623	118.964463	-72.401966	-0.329016
43436		9.704372	0.295603	-4.813096	0.543824	4.142538	0.185731	-0.807184	0.761395	-1.489076	-0.601074	-0.622070	0.251953	0.096877	0.002039	-0.048509	-0.418930	-0.692952	0.297208	-0.505947	116.088473	-71.844279	2.209231
43437		10.858670	-0.111326	-4.747846	1.391120	4.453204	1.082013	-0.699265	0.764156	-1.644078	-0.587402	-0.630859	0.243408	0.108389	-0.002172	-0.047886	-0.426604	-0.691981	0.291674	-0.504080	113.331767	-71.171188	4.695570
43438		11.671913	-0.566875	-4.378339	2.333679	4.535272	1.576113	-0.659976	0.749943	-1.745116	-0.562500	-0.643799	0.237305	0.116498	-0.006831	-0.044199	-0.434340	-0.691219	0.285686	-0.501945	110.745073	-70.403380	7.036428
43439		12.225879	-0.154903	-3.437458	2.745704	3.719413	2.016655	-0.652864	0.733790	-1.867089	-0.546387	-0.659180	0.226563	0.122109	-0.002803	-0.034815	-0.442282	-0.690606	0.279270	-0.499458	108.313186	-69.535589	9.228757
43440		12.788421	-0.270580	-1.854176	3.903360	2.592859	2.232596	-0.733326	0.774588	-2.009620	-0.532471	-0.676758	0.218262	0.127775	-0.004059	-0.019024	-0.450864	-0.689837	0.272441	-0.496611	105.912722	-68.564406	11.351048
43441		12.940909	-0.895753	-0.427830	5.275344	1.817676	1.905329	-0.866386	0.844737	-2.134614	-0.511963	-0.685547	0.207520	0.129284	-0.010358	-0.004782	-0.460246	-0.688660	0.265313	-0.493487	103.495039	-67.504391	13.424719
43442		13.363279	-1.825559	0.381741	6.724570	1.749619	1.753058	-1.020247	0.951188	-2.205360	-0.495850	-0.705322	0.192627	0.133437	-0.019710	0.003281	-0.470399	-0.686855	0.258042	-0.490274	101.040512	-66.385398	15.458707
43443		13.855301	-2.792303	0.452328	7.912719	2.368500	1.665150	-1.162247	1.029261	-2.268003	-0.482178	-0.714355	0.181885	0.138246	-0.029468	0.003980	-0.481211	-0.684478	0.250667	-0.486921	98.597188	-65.205912	17.409439
43444		15.031976	-3.069673	0.405867	8.783015	2.907475	2.432342	-1.278730	1.115339	-2.412888	-0.452637	-0.729492	0.168945	0.149955	-0.032484	0.003426	-0.492778	-0.681656	0.242837	-0.483266	96.169473	-63.918700	19.287971
43445		15.968405	-5.041226	-0.216337	10.716778	4.636739	2.190887	-1.493958	1.217823	-2.515391	-0.438721	-0.742676	0.158203	0.159018	-0.052434	-0.002746	-0.505342	-0.678019	0.234853	-0.479336	93.697200	-62.543467	21.100288
43446		17.538829	-6.747465	-0.861649	12.728845	6.376352	2.482747	-1.749032	1.345771	-2.574551	-0.416016	-0.758301	0.136719	0.174439	-0.069803	-0.009189	-0.518916	-0.673316	0.226924	-0.475266	91.149912	-61.106248	22.854214
43447		19.629516	-11.007303	-3.005010	16.454912	10.473784	1.806658	-2.069323	1.491655	-2.534284	-0.397949	-0.764893	0.119141	0.194651	-0.112860	-0.030348	-0.533491	-0.667188	0.219413	-0.471281	88.476094	-59.652341	24.568141
43448		19.946422	-13.935774	-7.067796	17.604429	15.415006	-0.095274	-1.847249	1.473232	-2.583269	-0.379395	-0.782471	0.102051	0.197115	-0.142568	-0.070829	-0.547232	-0.661532	0.211252	-0.467209	86.144042	-58.141703	26.055824
43449		17.555841	-13.383347	-9.288005	15.425087	16.871413	-2.674555	-1.172572	1.328584	-3.022159	-0.356934	-0.791260	0.093506	0.172885	-0.137005	-0.093237	-0.559469	-0.658330	0.200339	-0.462017	84.517892	-56.355097	27.192679
43450		15.989292	-8.498950	-9.711473	10.895075	15.592234	-2.045138	-0.620226	1.175009	-3.473028	-0.329834	-0.797852	0.084961	0.157808	-0.088045	-0.097776	-0.570558	-0.657259	0.187128	-0.455474	83.504298	-54.317680	27.991999
43451		18.514939	-5.542117	-7.710692	10.964089	13.855444	1.175354	-0.571139	1.205329	-3.554999	-0.304932	-0.813232	0.076416	0.183654	-0.058917	-0.078052	-0.581536	-0.656112	0.173286	-0.448670	82.594207	-52.213533	28.721590
43452		18.010793	-3.806408	-11.750617	8.132277	17.214240	0.885362	-0.485499	0.906982	-3.326371	-0.289063	-0.819580	0.074463	0.178904	-0.041333	-0.118222	-0.591224	-0.655469	0.160942	-0.441488	82.003582	-50.270372	29.120830
43453		17.111764	-6.162051	-11.997041	9.513684	17.932643	-1.901253	0.135692	0.549368	-3.282896	-0.266602	-0.823975	0.074707	0.169746	-0.064333	-0.120481	-0.598367	-0.657228	0.148250	-0.433624	82.027681	-48.365326	29.194201
43454		15.511859	-5.877310	-8.226319	10.026500	14.025001	-3.061214	1.415929	0.140501	-3.432781	-0.250732	-0.834717	0.086182	0.154028	-0.060838	-0.082798	-0.601082	-0.663624	0.133632	-0.424789	83.043321	-46.422933	28.915490
43455		15.078078	-1.163329	-6.751969	7.289230	11.513913	-0.401266	1.738251	0.068411	-3.367164	-0.226318	-0.836426	0.104004	0.150540	-0.013581	-0.067684	-0.602385	-0.670853	0.118551	-0.415974	84.221917	-44.502594	28.662207
43456		13.825258	2.285338	-5.052397	5.179162	8.809416	1.024553	0.754373	0.275039	-2.981249	-0.208496	-0.838379	0.104004	0.138505	0.020981	-0.050633	-0.606063	-0.674284	0.106345	-0.408314	84.676612	-42.807874	28.629296
43457		10.345906	5.143142	-3.239807	2.118354	5.393786	0.694398	-0.290941	0.407156	-2.405733	-0.196777	-0.849609	0.095459	0.104001	0.050135	-0.032683	-0.612108	-0.673819	0.097600	-0.402202	84.422738	-41.414850	28.762250
43458		12.515906	8.582144	-4.757823	0.986608	6.901551	4.481547	-0.517854	-0.005738	-1.888663	-0.196777	-0.854004	0.088867	0.125963	0.084511	-0.047795	-0.617531	-0.673187	0.092508	-0.396128	84.236315	-40.360159	28.594331
43459		12.335552	-2.270543	-7.360869	6.573601	11.679199	-4.165884	0.410468	0.223599	-1.137707	-0.198975	-0.849609	0.091064	0.123142	-0.023255	-0.073794	-0.618477	-0.674544	0.087188	-0.393541	84.422746	-39.700129	28.673226
43460		6.557181	-5.298820	-3.802037	6.012946	7.024954	-9.966290	1.049431	0.236277	-0.270850	-0.203613	-0.851563	0.102051	0.065455	-0.052876	-0.038375	-0.616165	-0.677256	0.084626	-0.393070	84.916542	-39.546555	28.654262
43461		4.486768	-3.736286	-1.301365	4.702239	3.696589	-9.904448	1.302583	-0.064001	0.166941	-0.223633	-0.849365	0.113037	0.044903	-0.037240	-0.013242	-0.611368	-0.681329	0.082841	-0.393900	85.690835	-39.646138	28.613507
43462		4.203713	-2.631805	0.191204	4.485766	2.009621	-9.124699	1.395995	-0.164036	0.657474	-0.226074	-0.842773	0.121826	0.042122	-0.026192	0.001763	-0.605646	-0.685511	0.083738	-0.395292	86.545705	-40.044738	28.391202
43463		3.625116	-1.193215	0.840352	3.512184	0.871267	-8.337302	1.339350	-0.092418	1.182064	-0.250732	-0.842773	0.130615	0.036317	-0.011774	0.008341	-0.598639	-0.689246	0.085433	-0.399090	87.331623	-40.725041	28.365694
43464		2.396628	0.843396	0.567480	1.337545	0.113312	-7.582176	1.217730	-0.109457	1.693675	-0.270996	-0.838623	0.136963	0.023891	0.008602	0.005740	-0.591354	-0.692237	0.090003	-0.403742	88.048892	-41.714406	28.213659
43465		1.430996	2.269010	-0.888506	-0.848309	0.626459	-7.191017	0.988588	-0.219978	2.136828	-0.300293	-0.827637	0.149902	0.014076	0.022885	-0.008757	-0.583461	-0.694613	0.096061	-0.409705	88.702982	-42.942900	28.086457
43466		1.575506	2.480034	-1.861489	-1.378528	1.426837	-6.955914	0.678648	-0.329858	2.610635	-0.327148	-0.821045	0.151855	0.015460	0.025066	-0.018504	-0.575851	-0.695845	0.105427	-0.416029	89.247802	-44.459433	27.758091
43467		2.389846	1.736554	-1.850448	-0.461340	1.867186	-6.905594	0.201904	-0.391720	3.178573	-0.361084	-0.808350	0.144775	0.023654	0.017761	-0.018440	-0.568238	-0.695495	0.117193	-0.423861	89.576742	-46.283889	27.461282
43468		2.842442	0.530889	-1.645464	0.617964	2.171811	-7.369463	-0.284763	-0.412081	3.746563	-0.401611	-0.793213	0.144287	0.028352	0.005817	-0.016404	-0.561250	-0.693111	0.132678	-0.432425	89.655636	-48.449215	27.034138
43469		2.693061	-1.060040	-1.005130	1.829718	2.044908	-8.450398	-0.611460	-0.451107	4.236385	-0.435547	-0.775879	0.134766	0.027170	-0.010057	-0.009959	-0.553762	-0.689419	0.149927	-0.442234	89.596261	-50.879175	26.655049
43470		2.671760	-2.823415	-0.355033	3.320873	2.014797	-9.431169	-0.706014	-0.628009	4.673875	-0.480713	-0.756592	0.132080	0.027379	-0.027612	-0.003367	-0.545534	-0.684995	0.169963	-0.451982	89.634256	-53.576626	26.001563
43471		3.224530	-3.926072	-0.460540	4.375615	2.592234	-9.422381	-0.546803	-0.838758	5.034156	-0.517334	-0.723877	0.133301	0.033239	-0.038444	-0.004362	-0.535118	-0.680914	0.190681	-0.462218	90.000709	-56.463602	25.174557
43472		4.354823	-3.706185	-1.028199	4.515552	3.218453	-8.080435	-0.207750	-1.104439	5.274687	-0.560303	-0.702148	0.136963	0.044561	-0.035906	-0.010000	-0.522656	-0.677456	0.212618	-0.471887	90.937594	-59.498708	23.845544
43473		5.556694	-2.459838	-1.079917	3.979629	2.940208	-6.124662	0.116341	-1.374016	5.472206	-0.601807	-0.658447	0.142334	0.056284	-0.023059	-0.010428	-0.507663	-0.674933	0.234393	-0.481460	92.610025	-62.609488	22.013539
43474		6.828897	-0.987698	-0.938938	3.200996	2.281872	-4.066059	0.313932	-1.590918	5.648381	-0.636475	-0.621094	0.156738	0.068603	-0.007928	-0.008858	-0.491158	-0.672452	0.257203	-0.490325	95.134650	-65.796464	19.334826
43475		7.836738	-0.429936	-0.737887	2.931807	1.753863	-2.709646	0.337305	-1.769968	5.793053	-0.673340	-0.583984	0.164551	0.078509	-0.002015	-0.006689	-0.473299	-0.669879	0.280088	-0.498799	98.715651	-68.971379	15.668684
43476		9.263072	-0.622004	-0.965612	3.149366	1.829376	-1.220227	0.395032	-2.007740	5.898324	-0.703613	-0.544434	0.178955	0.092851	-0.003466	-0.008733	-0.454424	-0.667023	0.303998	-0.506127	104.044044	-72.079522	10.192005
43477		11.159101	-1.715535	-0.549277	4.414144	1.556064	0.474207	0.536717	-2.212951	6.047809	-0.736328	-0.496094	0.199707	0.112093	-0.013758	-0.004294	-0.433708	-0.664319	0.327683	-0.513031	112.085819	-74.987784	2.132807
43478		13.290206	-3.275012	0.167569	6.107808	1.003133	2.394095	0.778622	-2.389613	6.169748	-0.766846	-0.445557	0.222656	0.133796	-0.028642	0.003154	-0.411366	-0.661394	0.351713	-0.519263	124.356736	-77.485277	-10.107351
43479		14.911719	-4.158598	0.375738	6.724683	0.467775	4.125434	1.318508	-2.574377	6.137310	-0.791016	-0.386230	0.247559	0.150237	-0.037019	0.005433	-0.386287	-0.659633	0.373681	-0.525385	141.962830	-79.057645	-27.308085
43480		16.161056	-3.838911	0.370173	5.980065	-0.503442	5.677578	2.116442	-2.703260	5.978028	-0.801758	-0.335449	0.279541	0.162596	-0.033590	0.005523	-0.358210	-0.659190	0.393104	-0.531623	163.049353	-79.268076	-47.547064
43481		17.607725	-2.488811	0.462047	4.283049	-2.160492	7.314102	2.902207	-2.691593	5.832881	-0.816895	-0.278076	0.306885	0.176624	-0.019829	0.006683	-0.327607	-0.659683	0.409193	-0.538565	-177.622961	-78.146009	-65.551560
43482		20.259470	0.901136	0.087422	0.569576	-4.773654	9.885546	3.642206	-2.597356	5.608498	-0.823242	-0.218506	0.338379	0.202201	0.014635	0.003735	-0.294849	-0.660650	0.422132	-0.546269	-162.656892	-76.099826	-78.768723
43483		24.099152	5.234162	0.725977	-3.528509	-9.328189	12.749177	3.849718	-2.160676	5.463210	-0.822998	-0.161133	0.361328	0.239341	0.058708	0.010941	-0.262448	-0.660303	0.432590	-0.554966	-151.528386	-73.730744	-88.003903
43484		24.561953	8.405617	-0.094191	-7.468438	-11.440986	12.257118	3.537918	-1.502088	5.423073	-0.824707	-0.101807	0.366455	0.243211	0.090650	0.002456	-0.232209	-0.656912	0.442641	-0.564459	-142.640356	-71.292991	-95.203979
43485		20.815448	9.484754	-2.025374	-10.054306	-10.169712	8.150483	2.988134	-0.905765	5.444569	-0.826660	-0.044678	0.378418	0.205550	0.100746	-0.017843	-0.204886	-0.650579	0.452924	-0.574133	-135.370313	-68.849122	-101.111458
43486		17.645323	8.465349	-4.339800	-10.966495	-7.450113	5.219436	2.599002	-0.799963	5.403846	-0.825928	0.008301	0.387939	0.174239	0.089930	-0.041552	-0.178907	-0.642894	0.463850	-0.582686	-129.605810	-66.231635	-105.743778
43487		17.643290	8.165971	-5.802775	-12.170940	-6.828147	4.910606	2.512695	-0.868296	5.023219	-0.820801	0.054199	0.382568	0.174543	0.086774	-0.056198	-0.154084	-0.635776	0.473264	-0.589973	-125.269915	-63.640576	-108.937576
43488		19.785749	11.196896	-7.178541	-16.200076	-8.863570	5.262437	2.196990	-0.864119	4.280042	-0.812988	0.093994	0.392578	0.195694	0.116946	-0.069670	-0.132286	-0.629595	0.481084	-0.595541	-122.171234	-61.304047	-111.018880
43489		18.132160	15.655519	-8.127330	-20.279268	-10.176060	1.369390	1.436031	-0.601924	3.694569	-0.809570	0.129150	0.389404	0.178623	0.160447	-0.079590	-0.115263	-0.623336	0.488738	-0.599418	-119.952128	-59.310319	-112.623597
43490		13.426825	17.482589	-6.511625	-19.911870	-10.283777	-4.710127	0.486168	-0.573853	3.367186	-0.799316	0.155518	0.386719	0.131483	0.177212	-0.064307	-0.102153	-0.616927	0.498175	-0.600656	-118.598336	-57.447804	-113.892759
43491		13.833099	19.450059	-3.975329	-19.961737	-13.295882	-6.622255	-0.240641	-0.698548	2.722355	-0.795166	0.164307	0.393066	0.135805	0.196313	-0.039511	-0.092941	-0.612072	0.507600	-0.599227	-118.145693	-55.882924	-114.597135
43492		15.517213	21.269803	-1.444468	-20.228199	-16.728624	-7.316987	-0.871649	-0.393361	1.821286	-0.793457	0.177490	0.395020	0.153256	0.214035	-0.015073	-0.089082	-0.608127	0.516052	-0.596604	-118.216233	-54.841607	-115.124350
43493		14.534595	21.718645	0.228847	-19.471140	-17.416796	-9.089191	-1.407913	-0.006592	0.938819	-0.791260	0.177734	0.399414	0.144324	0.217874	0.000761	-0.090513	-0.605087	0.523088	-0.593343	-118.667825	-54.364599	-115.557519
43494		13.007948	21.431349	0.386697	-19.029024	-16.320581	-10.235891	-1.784734	0.284812	-0.116911	-0.795410	0.168701	0.399658	0.130208	0.214259	0.001769	-0.096952	-0.603683	0.527952	-0.589435	-119.536987	-54.492170	-115.750252
43495		12.765059	20.045468	-0.270876	-18.537725	-14.861811	-9.265435	-1.606158	0.478107	-1.339383	-0.799316	0.149170	0.406738	0.128980	0.199562	-0.004621	-0.106975	-0.605008	0.528378	-0.585951	-120.668355	-55.291177	-115.489796
43496		13.729143	18.424607	-1.036908	-18.067423	-13.939223	-6.938060	-1.040559	0.485110	-2.508910	-0.796387	0.129395	0.398438	0.139560	0.182446	-0.011658	-0.118713	-0.609598	0.523567	-0.583246	-122.024172	-56.657439	-114.575813
43497		14.861809	16.857731	-1.650430	-17.362927	-13.297721	-4.388000	-0.459976	0.458635	-3.475055	-0.808594	0.096436	0.403564	0.151478	0.165923	-0.017233	-0.131402	-0.617001	0.513961	-0.581281	-123.639964	-58.470710	-112.971524
43498		14.231412	4.388017	-7.823195	-10.702310	-2.677257	2.885590	-0.705619	0.489642	-4.116141	-0.816650	0.065430	0.402100	0.142981	0.040665	-0.078729	-0.146854	-0.625504	0.502952	-0.578115	-125.943814	-60.569023	-110.783353
43499		8.036135	-56.950606	-15.393174	35.403981	34.107873	23.772706	0.023118	0.342028	-2.107768	-0.814453	0.065674	0.404297	0.074090	-0.570291	-0.154128	-0.153698	-0.629809	0.496013	-0.577658	-126.946098	-61.654484	-109.621290
43500		6.159321	-62.882195	-12.908070	41.864442	36.031546	23.470572	0.492886	-0.445484	0.992486	-0.810059	0.067871	0.406494	0.065001	-0.628185	-0.130487	-0.148144	-0.629006	0.498091	-0.578196	-126.422108	-61.039652	-109.899625
43501		7.935386	1.803298	3.329467	-0.722593	-6.953876	-4.481166	3.051522	0.158192	-1.379209	-0.814697	0.072266	0.406494	0.079500	0.016975	0.033496	-0.142879	-0.634167	0.484744	-0.585184	-125.389617	-61.730400	-109.081842
43502		28.323284	14.658054	1.060657	-14.549556	-20.647518	9.679683	3.932828	0.093661	-4.796243	-0.811279	0.037109	0.407227	0.286641	0.139490	0.013263	-0.144554	-0.648000	0.457809	-0.591279	-126.185760	-63.981719	-105.659242
43503		33.429787	17.266304	-4.611790	-19.431980	-19.917654	15.923630	1.935054	0.116907	-4.951020	-0.812500	0.004150	0.408203	0.338416	0.164756	-0.044695	-0.153110	-0.660168	0.435802	-0.592293	-128.684281	-66.273671	-101.681873
43504		20.238843	5.071307	2.657891	-3.520114	-12.587078	6.665141	-0.282218	0.331086	-3.669643	-0.809570	-0.022217	0.410889	0.203317	0.047025	0.026175	-0.165633	-0.666826	0.424269	-0.589834	-131.723917	-67.999321	-98.568763
43505		10.873848	3.789534	0.890951	-2.768581	-6.818267	-0.911628	0.213311	-0.289558	-3.303805	-0.808838	-0.048340	0.420410	0.109331	0.036083	0.009107	-0.174001	-0.674786	0.412807	-0.586496	-135.240202	-69.256692	-94.659873
43506		3.478924	4.854060	-4.522936	-6.671243	-0.941430	-6.537812	1.532971	-1.006920	-3.540304	-0.796875	-0.072266	0.425537	0.035871	0.048256	-0.044680	-0.177114	-0.686236	0.397202	-0.583045	-139.465735	-70.205470	-89.225284
43507		6.464583	3.979705	-3.984211	-5.496571	-1.867281	-3.504054	1.953141	-0.486601	-3.502335	-0.800781	-0.087646	0.428223	0.065430	0.039041	-0.039300	-0.179594	-0.696213	0.379842	-0.582025	-143.330129	-71.237798	-83.944175
43508		8.581730	6.249414	-1.343377	-5.110321	-5.847536	-2.451324	1.826533	0.178464	-2.802843	-0.793701	-0.105225	0.437500	0.086671	0.061403	-0.012947	-0.181728	-0.702557	0.364595	-0.583489	-146.085105	-72.247434	-79.947271
43509		10.454615	8.974047	-2.001080	-7.209358	-7.744607	-0.764231	0.917931	0.227683	-2.397845	-0.792969	-0.127197	0.431396	0.105590	0.088570	-0.019722	-0.185872	-0.707054	0.353258	-0.583725	-149.051718	-73.091847	-76.286737
43510		13.135586	6.151059	-1.918110	-4.757500	-6.485990	2.408064	-0.600258	0.511060	-2.191317	-0.794678	-0.146729	0.438477	0.131969	0.060008	-0.019699	-0.195311	-0.708831	0.346790	-0.582365	-152.632558	-73.958143	-72.917028
43511		13.119363	2.892338	-2.280131	-2.525384	-3.758814	3.039090	-1.549161	0.548316	-1.872752	-0.793701	-0.171143	0.430176	0.131392	0.027514	-0.023378	-0.207164	-0.708929	0.344102	-0.579738	-156.492550	-74.700033	-69.827977
43512		12.503713	1.480255	-1.266546	-0.743420	-3.127236	2.426658	-1.579097	0.358707	-1.565648	-0.791016	-0.186523	0.426270	0.125124	0.013721	-0.013001	-0.217939	-0.708909	0.342754	-0.576602	-160.233971	-75.220781	-66.896128
43513		10.553594	-0.597714	-1.395830	0.623162	-1.031707	0.781122	-1.208961	0.159050	-1.438876	-0.790527	-0.206299	0.422363	0.105478	-0.006821	-0.014003	-0.226609	-0.709583	0.340952	-0.573491	-163.825097	-75.558964	-63.898852
43514		9.522755	-2.578455	-1.475010	2.045910	0.678206	-0.073104	-0.792463	0.056019	-1.350215	-0.787842	-0.219238	0.427002	0.095046	-0.026485	-0.014673	-0.233415	-0.710811	0.338374	-0.570761	-167.195495	-75.782310	-60.893731
43515		9.596359	-1.449456	-0.766949	1.777679	-0.510510	-0.254592	-0.384093	-0.065423	-1.254707	-0.782959	-0.232422	0.425293	0.095873	-0.015111	-0.007609	-0.238220	-0.712672	0.335082	-0.568393	-170.233954	-75.883335	-57.984928
43516		10.243782	0.620841	-0.580211	0.535972	-2.075741	0.240164	-0.242461	-0.173823	-1.221013	-0.780273	-0.245605	0.434326	0.102478	0.005576	-0.005720	-0.242284	-0.714917	0.331631	-0.565873	-173.195649	-75.883766	-55.078134
43517		11.049933	0.688244	-0.548192	0.728443	-2.236782	1.019670	-0.276312	-0.226409	-1.148727	-0.775391	-0.258789	0.432617	0.110543	0.006240	-0.005366	-0.246117	-0.717130	0.328577	-0.563194	-175.996475	-75.813718	-52.350912
43518		11.571427	0.666050	-2.071447	-0.045291	-1.152674	1.904828	-0.469361	-0.219725	-1.085840	-0.772949	-0.269775	0.435059	0.115771	0.005984	-0.020602	-0.250518	-0.718950	0.326278	-0.560263	-178.749846	-75.714632	-49.791339
43519		10.491305	-0.294898	-3.311190	-0.183117	0.653255	1.171709	-0.566607	-0.166598	-0.947996	-0.766113	-0.276123	0.435303	0.104925	-0.003540	-0.033015	-0.254909	-0.720257	0.324664	-0.557534	178.805622	-75.616642	-47.601305
43520		9.349165	-0.705004	-3.250730	0.064073	1.143103	0.044273	-0.428450	-0.181300	-0.812069	-0.760986	-0.291504	0.433350	0.093491	-0.007499	-0.032407	-0.258444	-0.721534	0.323170	-0.555118	176.760135	-75.492779	-45.746083
43521		9.533988	-0.714955	-3.867583	-0.212845	1.614669	0.371281	-0.318091	-0.060689	-0.757088	-0.760986	-0.295898	0.435791	0.095323	-0.007572	-0.038635	-0.261568	-0.722524	0.321401	-0.553392	174.926371	-75.423947	-44.037876
43522		8.830990	-0.659178	-4.686182	-0.840034	2.352362	-0.110032	-0.198151	0.071724	-0.690356	-0.758301	-0.306885	0.436035	0.088270	-0.006943	-0.046887	-0.264336	-0.723175	0.319376	-0.552397	173.274356	-75.421872	-42.452792
43523		8.642663	-0.257953	-5.352831	-1.555410	2.659704	-0.121386	-0.044422	0.119443	-0.645417	-0.760254	-0.317871	0.431885	0.086386	-0.002870	-0.053579	-0.266443	-0.723829	0.317009	-0.551892	171.811251	-75.439110	-40.965330
43524		8.371325	-0.246321	-5.422252	-1.627084	2.793606	-0.374006	-0.043080	0.161035	-0.567096	-0.753418	-0.324463	0.434326	0.083662	-0.002712	-0.054289	-0.268453	-0.724224	0.314888	-0.551614	170.486006	-75.477574	-39.627877
43525		8.500507	0.484910	-4.362478	-1.457998	1.557623	-0.486768	-0.154900	0.205843	-0.527523	-0.755371	-0.328857	0.434326	0.084972	0.004591	-0.043716	-0.270767	-0.724291	0.313131	-0.551395	169.173490	-75.537737	-38.361850
43526		9.220145	1.155396	-2.436758	-0.582694	-0.362818	-0.230813	-0.335053	0.230896	-0.529321	-0.752930	-0.337646	0.432373	0.092203	0.011269	-0.024493	-0.273836	-0.724027	0.311859	-0.550948	167.717021	-75.603410	-37.063009
43527		9.192851	0.007570	-1.694213	0.770490	-0.102338	-0.497405	-0.452959	0.218150	-0.529636	-0.750488	-0.348633	0.426025	0.091910	-0.000206	-0.017042	-0.277248	-0.723642	0.310892	-0.550293	166.201922	-75.654229	-35.764836
43528		9.270909	-0.277899	-1.983578	0.852167	0.338077	-0.372306	-0.364169	0.176337	-0.523044	-0.750244	-0.353027	0.428467	0.092684	-0.003058	-0.019912	-0.280320	-0.723458	0.309797	-0.549595	164.752528	-75.673807	-34.492174
43529		9.612014	-0.644695	-1.951157	1.252969	0.551237	-0.079272	-0.213591	0.119812	-0.548030	-0.750000	-0.361816	0.424072	0.096090	-0.006731	-0.019562	-0.282758	-0.723691	0.308236	-0.548917	163.383931	-75.651233	-33.203850
43530		9.820851	-0.484133	-2.219199	1.046347	0.663895	0.190934	-0.094779	0.086083	-0.580587	-0.749512	-0.377197	0.424561	0.098184	-0.005137	-0.022232	-0.284868	-0.724208	0.306316	-0.548218	162.028328	-75.596430	-31.868629
43531		9.901294	-0.628786	-2.522072	1.024924	1.018499	0.321597	-0.019212	0.065449	-0.607648	-0.742676	-0.381592	0.420166	0.098985	-0.006591	-0.025252	-0.286677	-0.724944	0.304078	-0.547548	160.699058	-75.518394	-30.505306
43532		9.692893	-0.422366	-2.553181	0.847286	0.976686	0.136041	0.060382	0.023472	-0.629869	-0.733643	-0.388184	0.418213	0.096912	-0.004521	-0.025545	-0.288275	-0.725906	0.301658	-0.546772	159.403105	-75.405195	-29.142011
43533		9.550004	-0.538339	-2.424717	1.026571	1.013885	-0.051052	0.097377	-0.000819	-0.661427	-0.730713	-0.405762	0.418701	0.095482	-0.005687	-0.024250	-0.289702	-0.727058	0.298995	-0.545950	158.119207	-75.265243	-27.755165
43534		9.767848	-0.021116	-2.191299	0.881253	0.517866	0.145621	0.065665	-0.011357	-0.724665	-0.728271	-0.412354	0.418945	0.097678	-0.000558	-0.021908	-0.291492	-0.728241	0.296276	-0.544902	156.713233	-75.097246	-26.275662
43535		10.465500	0.413204	-2.065894	0.854309	0.111888	0.827910	-0.058421	0.015013	-0.841256	-0.716797	-0.427490	0.416992	0.104670	0.003686	-0.020668	-0.293992	-0.729370	0.293351	-0.543629	155.034400	-74.905939	-24.570231
43536		10.655104	-0.056096	-2.189871	1.244884	0.559331	0.979270	-0.294155	0.073087	-0.958111	-0.707275	-0.440674	0.415283	0.106539	-0.001104	-0.021936	-0.297857	-0.730105	0.290645	-0.541990	152.977859	-74.700681	-22.630703
43537		9.795270	-0.957524	-2.424842	1.641602	1.489921	0.078126	-0.494517	0.101582	-1.048091	-0.700195	-0.456055	0.408936	0.097888	-0.010148	-0.024274	-0.302621	-0.730620	0.288007	-0.540062	150.685017	-74.466503	-20.544165
43538		9.439953	-1.360668	-2.601531	1.829390	2.000971	-0.305837	-0.593939	0.122866	-1.162095	-0.688721	-0.469238	0.402832	0.094302	-0.014232	-0.026032	-0.308199	-0.731007	0.285295	-0.537818	148.170998	-74.186383	-18.306789
43539		9.647643	-1.236825	-2.822664	1.748195	2.162094	-0.074022	-0.587838	0.133816	-1.314779	-0.679199	-0.484619	0.398682	0.096373	-0.013085	-0.028253	-0.314041	-0.731614	0.281862	-0.535418	145.497117	-73.836610	-15.873654
43540		10.641636	-0.326279	-2.921047	1.383732	1.685382	1.009768	-0.583238	0.133206	-1.497917	-0.667725	-0.497803	0.390381	0.106368	-0.004145	-0.029270	-0.320341	-0.732450	0.277730	-0.532696	142.656964	-73.391961	-13.259855
43541		11.201675	-1.469330	-2.799051	2.598335	2.417666	1.272041	-0.654277	0.168753	-1.645628	-0.645020	-0.513184	0.386230	0.111867	-0.015706	-0.028035	-0.327317	-0.733225	0.273170	-0.529738	139.669835	-72.874333	-10.528182
43542		10.812290	-1.066123	-3.319257	2.013234	2.722564	1.031228	-0.621645	0.177317	-1.747423	-0.635254	-0.535156	0.375732	0.107994	-0.011708	-0.033253	-0.334430	-0.734113	0.268117	-0.526638	136.730946	-72.280307	-7.819726
43543		11.004526	-0.049718	-3.158541	1.555914	2.098042	1.334130	-0.600607	0.196189	-1.872875	-0.617188	-0.545898	0.371826	0.110003	-0.001622	-0.031690	-0.341788	-0.735083	0.262489	-0.523386	133.815800	-71.603584	-5.113523
43544		10.699879	0.627529	-2.987678	1.212851	1.707636	1.115075	-0.580701	0.191717	-1.975692	-0.598389	-0.572266	0.365723	0.107025	0.005131	-0.029995	-0.349302	-0.736162	0.256420	-0.519906	131.011528	-70.840043	-2.501645
43545		10.462659	1.437860	-3.111874	0.622656	1.466100	1.081194	-0.616129	0.190912	-2.045143	-0.589111	-0.587646	0.364014	0.104736	0.013212	-0.031261	-0.357087	-0.737186	0.250152	-0.516207	128.327957	-70.006738	-0.026124
43546		10.418519	1.294785	-3.237806	0.803834	1.821266	0.991823	-0.716313	0.193777	-2.051422	-0.557373	-0.603027	0.351318	0.104278	0.011762	-0.032523	-0.365218	-0.737949	0.244096	-0.512313	125.790730	-69.134315	2.244744
43547		10.598884	1.894475	-3.466792	0.461653	1.808332	1.343289	-0.815724	0.186356	-2.010381	-0.548096	-0.613770	0.347168	0.106139	0.017736	-0.034841	-0.373560	-0.738408	0.238420	-0.508293	123.430049	-68.246077	4.279018
43548		11.212703	2.410701	-3.370694	0.538568	1.618310	2.018755	-1.010212	0.183376	-1.977946	-0.527588	-0.624756	0.340820	0.112326	0.022826	-0.033927	-0.382486	-0.738387	0.233349	-0.504021	121.163006	-67.343399	6.103749
43549		11.722692	2.100905	-3.592077	1.015625	2.198035	2.388502	-1.186236	0.205357	-1.957548	-0.504639	-0.648926	0.326172	0.117387	0.019647	-0.036160	-0.391990	-0.737853	0.228710	-0.499608	118.937496	-66.430894	7.786563
43550		12.425310	1.767972	-3.692211	1.669764	2.718195	2.874414	-1.300749	0.221678	-1.938055	-0.493164	-0.659912	0.315430	0.124374	0.016234	-0.037169	-0.401831	-0.736936	0.224384	-0.495085	116.788976	-65.508208	9.324188
43551		12.935789	0.600844	-3.314115	3.132524	3.322434	2.749964	-1.443129	0.224553	-1.933695	-0.472168	-0.684326	0.296143	0.129369	0.004518	-0.033323	-0.412134	-0.735613	0.220371	-0.490362	114.687884	-64.565737	10.731830
43552		13.843012	-0.028937	-2.662980	4.529053	3.414008	3.092551	-1.522044	0.241324	-1.977222	-0.447510	-0.688477	0.294189	0.138385	-0.001861	-0.026787	-0.422786	-0.734026	0.216347	-0.485439	112.632610	-63.583973	12.048517
43553		14.508135	-0.308367	-2.828881	5.155403	3.974348	3.461332	-1.579280	0.243913	-2.118343	-0.431396	-0.704102	0.272461	0.145002	-0.004844	-0.028432	-0.433928	-0.732340	0.211879	-0.480095	110.600729	-62.506980	13.315010
43554		15.350302	-1.711062	-2.953244	6.738086	5.130864	3.436460	-1.711099	0.274131	-2.289007	-0.410889	-0.721680	0.261963	0.153251	-0.019119	-0.029585	-0.445904	-0.730339	0.207027	-0.474252	108.532142	-61.325279	14.549316
43555		17.515537	-4.857646	-3.509839	10.026662	7.702216	3.708794	-1.849159	0.380568	-2.406125	-0.390381	-0.732666	0.242188	0.174485	-0.051002	-0.034967	-0.458681	-0.727736	0.201763	-0.468298	106.372339	-60.075624	15.813163
43556		20.737688	-7.639629	-5.167512	13.098369	11.161962	4.983454	-1.923801	0.459012	-2.519265	-0.365479	-0.745850	0.229492	0.206270	-0.079495	-0.051395	-0.471950	-0.724716	0.196075	-0.462174	104.209081	-58.755797	17.046098
43557		22.686759	-9.778942	-6.143018	15.534982	13.543114	5.128800	-2.166664	0.488706	-2.680886	-0.349121	-0.765869	0.203369	0.225375	-0.101479	-0.060896	-0.486382	-0.721010	0.190195	-0.455415	101.979353	-57.323472	18.213146
43558		21.814378	-11.527814	-6.332058	16.704804	14.512799	2.801401	-2.712303	0.523922	-2.818888	-0.328613	-0.776855	0.186035	0.216318	-0.119185	-0.062290	-0.502940	-0.715779	0.184977	-0.447766	99.535165	-55.798731	19.279509
43559		21.645736	-13.173953	-5.786742	18.513942	14.750105	0.919106	-3.199566	0.633725	-2.844932	-0.312500	-0.788086	0.151123	0.214365	-0.135709	-0.056399	-0.521207	-0.708797	0.180333	-0.439807	96.862111	-54.237778	20.306688
43560		20.573206	-12.321863	-3.929390	18.584386	12.485698	-0.368703	-3.808335	0.829409	-2.834518	-0.287842	-0.794922	0.111572	0.203793	-0.126845	-0.037749	-0.541482	-0.699418	0.176560	-0.431785	93.850501	-52.674509	21.338001
43561		19.667723	-7.562950	-3.379186	15.316955	10.100490	1.085156	-4.686977	1.174466	-2.644962	-0.278320	-0.808594	0.074219	0.195451	-0.079001	-0.033117	-0.564392	-0.686283	0.174195	-0.424421	90.242789	-51.185055	22.511668
43562		18.698649	-5.872079	-4.747222	13.405911	10.683950	0.805745	-5.087213	1.308516	-2.278789	-0.262451	-0.811279	0.027832	0.185983	-0.062046	-0.047141	-0.587535	-0.670876	0.173543	-0.417863	86.476060	-49.870981	23.613318
43563		16.857325	-8.016032	-7.095831	13.422904	12.935785	-2.655458	-4.290628	0.982864	-2.039804	-0.255371	-0.824707	-0.004883	0.167388	-0.083381	-0.070017	-0.606848	-0.657811	0.172741	-0.411315	83.490003	-48.658834	24.312181
43564		16.420270	-8.658526	-5.727457	14.405960	11.577401	-3.828842	-2.520363	0.643240	-2.088856	-0.246338	-0.827148	-0.022461	0.163099	-0.089009	-0.056689	-0.619846	-0.650579	0.169238	-0.404842	81.822092	-47.439676	24.610781
43565		14.249040	-4.316454	-5.401426	10.264358	9.884488	-2.901197	-1.158856	0.456580	-2.247379	-0.230469	-0.831543	-0.026855	0.141868	-0.045074	-0.054081	-0.628481	-0.647930	0.162858	-0.398341	81.091091	-46.128888	24.705423
43566		10.571748	-0.042068	-7.014089	4.599695	9.720517	-3.081583	-1.353008	0.228923	-1.959331	-0.232666	-0.833740	-0.040039	0.105623	-0.001931	-0.070252	-0.636844	-0.644801	0.158654	-0.391777	80.380993	-45.016727	24.611776
43567		7.864082	5.241585	-3.642871	0.342804	5.108203	-1.073550	-1.702404	0.181238	-1.728601	-0.225830	-0.836182	-0.053223	0.079055	0.051421	-0.036941	-0.645797	-0.640368	0.155842	-0.385471	79.479813	-44.024925	24.508711
43568		11.713469	8.120170	-2.886211	1.272038	5.331252	3.656768	-1.284538	-0.432482	-1.606712	-0.225586	-0.842773	-0.061768	0.117844	0.080070	-0.029124	-0.652568	-0.638307	0.154749	-0.377851	79.151812	-43.183587	23.915327
43569		11.325131	-1.505378	-3.909297	7.539483	7.194490	-3.713377	-0.732528	-0.350377	-0.748876	-0.228027	-0.840820	-0.068604	0.113262	-0.015620	-0.038838	-0.656022	-0.637168	0.154898	-0.373710	78.996033	-42.801880	23.531186
43570		6.976112	-5.780338	-2.028063	8.125215	4.480920	-9.506852	-0.359649	-0.330719	0.166871	-0.245605	-0.843018	-0.066406	0.069843	-0.057781	-0.020061	-0.656530	-0.636513	0.157381	-0.372896	78.959960	-42.949785	23.279898
43571		4.241976	-7.955598	-0.461124	8.222738	2.391333	-12.670331	0.691880	-0.605571	0.753606	-0.254883	-0.838623	-0.051025	0.042733	-0.079379	-0.004757	-0.652416	-0.639328	0.160490	-0.373974	79.605445	-43.440092	22.918925
43572		2.401710	-7.770199	-0.481242	6.869942	1.955472	-13.731102	1.697247	-1.068691	1.199437	-0.279541	-0.836182	-0.029053	0.024510	-0.077512	-0.005341	-0.643774	-0.645890	0.164827	-0.375783	81.061447	-44.238901	22.219036
43573		0.850765	-5.274065	-1.401564	3.860727	2.244472	-13.062181	2.149622	-1.485714	1.529196	-0.299561	-0.833984	-0.013672	0.009016	-0.052519	-0.014515	-0.632642	-0.654285	0.170504	-0.377629	83.012683	-45.225964	21.199525
43574		-0.004343	-2.665492	-1.688586	1.398007	2.029436	-11.783001	2.472227	-1.703969	1.866924	-0.324463	-0.824951	0.021484	0.000350	-0.026441	-0.017212	-0.619402	-0.663655	0.177509	-0.379991	85.332837	-46.407761	19.937601
43575		0.080436	-0.460561	-1.587432	-0.078068	1.621900	-10.131411	2.567627	-1.806251	2.286604	-0.347168	-0.813721	0.049805	0.000999	-0.004391	-0.015923	-0.604799	-0.672902	0.185793	-0.383278	87.836521	-47.778460	18.530892
43576		1.343909	1.501660	-1.125354	-0.561503	1.029590	-7.824843	2.229678	-1.758890	2.742655	-0.378662	-0.809326	0.076172	0.013328	0.015323	-0.010966	-0.590782	-0.680015	0.196928	-0.387008	90.211445	-49.378351	16.916733
43577		2.623017	2.080373	-0.687694	-0.117925	0.633671	-6.456486	1.752400	-1.594610	3.243335	-0.408203	-0.793945	0.095459	0.025940	0.021284	-0.006484	-0.576839	-0.684964	0.209248	-0.392806	92.371655	-51.216661	15.416946
43578		3.598458	0.860998	-0.179450	1.431964	0.504402	-6.434011	1.352874	-1.474442	3.785322	-0.446533	-0.774170	0.110352	0.035825	0.009300	-0.001469	-0.563539	-0.687329	0.224566	-0.399465	94.390439	-53.343683	13.712931
43579		4.279010	-0.619467	-0.147872	2.853392	0.859678	-6.677182	1.015555	-1.486284	4.328108	-0.482910	-0.752197	0.127441	0.042920	-0.005260	-0.001188	-0.549561	-0.688128	0.241549	-0.407574	96.499226	-55.732550	11.841285
43580		5.085239	-1.489069	-0.480162	3.757743	1.391024	-6.313274	0.792164	-1.554997	4.818324	-0.526367	-0.721680	0.142090	0.051227	-0.013641	-0.004460	-0.535363	-0.687106	0.261429	-0.415845	98.873920	-58.361841	9.436033
43581		6.226998	-1.890548	-0.772488	4.426128	1.731100	-5.301779	0.612731	-1.704237	5.209281	-0.565186	-0.690918	0.156494	0.062797	-0.017252	-0.007246	-0.519975	-0.685236	0.282523	-0.424569	101.797640	-61.124279	6.461076
43582		7.187662	-2.905672	-0.772746	5.524499	1.876821	-4.651028	0.437127	-1.772487	5.575586	-0.606445	-0.656006	0.168945	0.072714	-0.027021	-0.007146	-0.504244	-0.681659	0.305788	-0.433097	105.391590	-64.005002	2.600672
43583		8.044818	-2.661730	-1.052035	5.350128	1.837074	-3.418204	0.563455	-1.847612	5.790517	-0.643555	-0.614258	0.183105	0.081266	-0.024244	-0.009843	-0.486704	-0.677926	0.328827	-0.442050	110.143674	-66.843977	-2.265488
43584		9.371855	-1.499575	-0.939428	4.531233	1.039988	-1.486800	0.696998	-1.865687	5.855640	-0.680420	-0.574707	0.201904	0.094186	-0.012212	-0.008563	-0.468406	-0.673472	0.352068	-0.450642	116.306135	-69.522954	-8.556425
43585		11.456977	-0.328835	-0.810663	3.769197	0.071300	1.039750	0.835740	-1.844088	5.723861	-0.706299	-0.530762	0.225098	0.114669	0.000024	-0.007054	-0.449211	-0.669215	0.373622	-0.459094	124.112419	-71.830053	-16.316181
43586		13.604122	0.713487	-0.938683	2.839754	-0.780078	3.519058	1.318803	-1.876312	5.504744	-0.734619	-0.480225	0.248047	0.135855	0.010932	-0.008048	-0.428707	-0.665600	0.393538	-0.467242	133.972656	-73.620993	-25.918831
43587		15.416221	2.229360	-1.314741	1.127403	-1.681571	5.685387	2.015160	-2.002443	5.254232	-0.756104	-0.442871	0.269043	0.153623	0.026455	-0.011355	-0.405572	-0.663977	0.410438	-0.475590	145.874277	-74.684685	-37.084963
43588		16.157973	4.595839	-1.548291	-1.690293	-3.005938	6.698680	2.516679	-2.092969	5.035957	-0.775391	-0.392090	0.296631	0.160497	0.050185	-0.013186	-0.380961	-0.663148	0.425638	-0.483669	158.858176	-74.970303	-49.098502
43589		16.534133	7.191036	-2.707292	-5.093482	-3.634713	7.309480	2.800645	-2.176086	4.749130	-0.785889	-0.343506	0.328369	0.163840	0.076166	-0.024238	-0.355369	-0.663360	0.438575	-0.491241	171.286326	-74.461736	-60.313830
43590		18.406517	8.961212	-3.118315	-7.308631	-5.123856	8.870020	2.884442	-2.030403	4.509489	-0.789795	-0.297119	0.353760	0.182271	0.094155	-0.027990	-0.330309	-0.663046	0.450242	-0.498547	-177.804604	-73.446895	-69.994923
43591		20.861926	11.043359	-2.153568	-9.315370	-8.251410	10.357124	2.761680	-1.788991	4.299359	-0.806641	-0.257568	0.372559	0.206350	0.115152	-0.018115	-0.306263	-0.662158	0.460405	-0.505744	-168.702052	-72.133734	-77.863657
43592		20.854999	15.571133	-1.416258	-13.849966	-11.416421	9.084405	2.259482	-1.408296	4.276589	-0.816895	-0.213379	0.389160	0.205240	0.160259	-0.010916	-0.284816	-0.658858	0.471200	-0.512599	-160.958655	-70.711825	-84.714808
43593		18.158645	18.997490	-1.708000	-17.784305	-12.160634	5.329238	1.054861	-0.869394	4.307722	-0.820313	-0.173828	0.390381	0.177507	0.193911	-0.015287	-0.268153	-0.652284	0.483808	-0.518217	-154.585849	-69.312156	-90.849613
43594		13.298615	17.984742	-2.952359	-17.883491	-9.131586	0.470940	-0.169502	-0.498748	3.933374	-0.823486	-0.143311	0.391846	0.129489	0.182392	-0.029352	-0.257525	-0.643380	0.498002	-0.521283	-149.890034	-68.012112	-96.053638
43595		12.263873	14.314735	-3.189042	-14.986693	-7.165963	-0.352171	-0.299441	-0.547505	3.328069	-0.828613	-0.119141	0.388916	0.120322	0.145115	-0.031775	-0.248386	-0.636055	0.510125	-0.522982	-146.566815	-66.737833	-99.837240
43596		14.004509	13.229118	-1.077607	-13.577820	-9.245151	0.308712	0.002175	-0.375897	2.807308	-0.825195	-0.092529	0.397217	0.138190	0.134240	-0.010514	-0.240409	-0.629429	0.519840	-0.525156	-143.826894	-65.650191	-102.899804
43597		14.671486	15.392659	1.457846	-14.845805	-12.418282	-0.886353	-0.055248	-0.140971	2.331278	-0.825684	-0.077393	0.396729	0.144897	0.155627	0.014638	-0.234050	-0.623642	0.527459	-0.527331	-141.661910	-64.774268	-105.317058
43598		13.891016	16.823208	1.776465	-16.189394	-12.754979	-2.441403	-0.716044	-0.017804	1.808058	-0.830566	-0.064209	0.396484	0.137380	0.169541	0.017171	-0.231606	-0.617855	0.535184	-0.527439	-140.388184	-64.114048	-107.217505
43599		12.603366	16.156070	0.189238	-16.290172	-10.466869	-3.107164	-1.324390	0.182206	1.242939	-0.834961	-0.062012	0.389893	0.125027	0.162347	0.000705	-0.232869	-0.612501	0.542286	-0.525872	-139.893223	-63.734940	-108.611157
43600		11.191197	15.132272	-0.927245	-15.775242	-8.370174	-3.799029	-1.340460	0.300444	0.740207	-0.830566	-0.062012	0.387695	0.111336	0.151668	-0.010456	-0.235897	-0.608020	0.547828	-0.523974	-139.775876	-63.590213	-109.616983
43601		10.520863	13.463721	-1.232665	-14.378866	-7.133245	-3.825952	-1.222111	0.422417	0.302422	-0.837158	-0.064453	0.380859	0.104977	0.134716	-0.013372	-0.239944	-0.604642	0.551441	-0.522253	-139.894280	-63.660613	-110.264193
43602		9.482374	10.616928	-1.663336	-11.827183	-5.355624	-3.743649	-1.203128	0.633829	-0.186546	-0.836914	-0.073242	0.376709	0.094868	0.105977	-0.017572	-0.245851	-0.601977	0.553326	-0.520587	-140.274104	-64.005279	-110.621614
43603		8.388649	8.768918	-2.005492	-10.081442	-3.997790	-4.010400	-0.474142	0.452146	-0.625426	-0.838623	-0.082031	0.370361	0.084114	0.087378	-0.020452	-0.250126	-0.601953	0.552119	-0.519860	-140.777501	-64.430254	-110.362075
43604		9.403836	9.109211	0.430000	-9.638249	-6.619457	-3.906777	0.630305	0.161651	-1.097541	-0.838379	-0.090820	0.377197	0.094540	0.090560	0.004510	-0.251563	-0.605287	0.547032	-0.520672	-141.326799	-64.895903	-109.366102
43605		12.067959	11.614615	2.006519	-11.592746	-9.848897	-2.521757	1.408904	0.155158	-1.833777	-0.833740	-0.099609	0.377441	0.121753	0.114888	0.020783	-0.252452	-0.611642	0.537585	-0.522651	-142.190648	-65.613322	-107.523919
43606		13.500231	15.117086	2.797766	-14.387482	-12.305817	-2.057172	1.671362	0.404024	-2.556592	-0.831055	-0.119141	0.382324	0.136976	0.149189	0.028955	-0.255114	-0.619465	0.524873	-0.525061	-143.562068	-66.681412	-104.986243
43607		12.995691	15.752097	2.252689	-14.744334	-12.016011	-2.048860	1.211124	0.632618	-2.954405	-0.830078	-0.143311	0.378662	0.132336	0.155439	0.023056	-0.260717	-0.627033	0.511669	-0.526357	-145.668307	-67.954682	-101.949460
43608		10.208015	20.624044	0.243277	-19.433580	-11.108867	-4.474574	1.189983	0.829254	-3.192747	-0.822754	-0.169678	0.379150	0.105367	0.204558	0.003221	-0.267513	-0.634459	0.497395	-0.527728	-148.256017	-69.351707	-98.446823
43609		15.318820	4.780458	-8.934880	-8.518002	0.776290	6.440343	-0.318935	0.521269	-3.664205	-0.826172	-0.200439	0.371094	0.153794	0.044848	-0.089822	-0.279415	-0.641673	0.485834	-0.523592	-153.064891	-70.638961	-93.522233
43610		12.353450	-12.166832	1.740765	11.645443	-0.813376	3.124384	2.351481	0.862288	-1.996149	-0.817139	-0.204590	0.384521	0.122380	-0.123083	0.015437	-0.279217	-0.647453	0.472034	-0.529175	-154.083258	-71.591965	-91.031416
43611		13.619993	-18.986397	0.631051	17.381453	2.987067	5.527597	2.145233	0.406195	-1.129376	-0.812744	-0.206787	0.391357	0.135134	-0.190680	0.003993	-0.276171	-0.652003	0.462103	-0.533931	-154.320033	-72.080193	-89.486566
43612		27.878899	-38.020213	-31.255877	19.823849	34.293231	30.567396	3.284565	-1.048683	-0.620894	-0.815186	-0.197754	0.404297	0.279273	-0.375884	-0.317292	-0.264671	-0.660683	0.452692	-0.537139	-154.224834	-71.692636	-87.609040
43613		43.940066	-22.944524	2.858492	22.385872	-5.041820	34.216491	2.476260	1.300551	-2.400435	-0.809814	-0.226563	0.391846	0.436763	-0.235005	0.022852	-0.265809	-0.665801	0.436318	-0.543766	-155.725954	-72.947071	-84.542463
43614		22.078943	23.665181	15.040527	-11.833701	-30.222918	5.018837	2.457285	0.640975	-4.697415	-0.800293	-0.248291	0.394531	0.226723	0.229507	0.152534	-0.271719	-0.677322	0.413036	-0.544798	-162.422790	-74.252512	-76.101115
43615		0.659690	9.778146	2.346168	-7.117103	-7.105494	-10.448496	-0.440543	0.513151	-2.667224	-0.792725	-0.270264	0.386230	0.007960	0.097733	0.023227	-0.281484	-0.680784	0.404470	-0.541944	-167.757422	-74.927575	-70.827696
43616		-3.801752	8.247743	-4.142012	-9.520574	0.094651	-12.809761	-0.950495	0.449687	-1.954546	-0.789795	-0.296631	0.384766	-0.037304	0.082646	-0.041728	-0.290929	-0.682137	0.399747	-0.538751	-172.302164	-75.375018	-66.692945
43617		-0.209044	5.986158	2.671957	-3.828623	-5.227065	-10.830291	-0.508342	0.537271	-1.564502	-0.787109	-0.307617	0.382813	-0.001550	0.059943	0.026572	-0.297914	-0.683066	0.394988	-0.537264	-175.932456	-75.770404	-63.243242
43618		5.061948	1.526290	-1.341766	-1.398308	-0.752048	-4.594258	-0.039150	0.360394	-1.207970	-0.786865	-0.320801	0.383301	0.050686	0.014954	-0.013512	-0.302021	-0.684415	0.390429	-0.536587	-178.676929	-76.008306	-60.439608
43619		10.887692	-1.187879	-2.301673	1.203356	0.278218	1.310449	0.292591	0.307227	-0.981260	-0.781982	-0.331787	0.376953	0.108781	-0.012379	-0.023202	-0.304221	-0.685953	0.385821	-0.536712	179.228898	-76.184287	-58.107513
43620		16.065655	-1.548825	-2.784316	1.998865	-0.102532	6.443065	0.672658	0.046424	-0.810061	-0.781982	-0.329590	0.385742	0.160586	-0.016045	-0.027934	-0.304196	-0.688408	0.381169	-0.536908	177.713927	-76.197269	-56.153783
43621		16.910865	2.061659	-4.509329	-1.739114	-0.667979	7.711289	0.489319	0.026840	-0.885463	-0.781738	-0.338379	0.385742	0.169192	0.019978	-0.045067	-0.304910	-0.690773	0.376766	-0.536572	175.936807	-76.181803	-54.033035
43622		11.983092	2.898589	-4.813627	-3.187281	0.150206	3.031954	-0.144331	-0.027722	-0.908345	-0.770020	-0.355957	0.379639	0.119967	0.028406	-0.048140	-0.307809	-0.692337	0.374060	-0.534793	173.748647	-76.117688	-51.867092
43623		7.227730	1.264339	-3.525574	-1.768776	0.898542	-1.917632	-0.491277	-0.018684	-0.768027	-0.771973	-0.371338	0.380127	0.072328	0.012279	-0.035279	-0.311499	-0.693075	0.372744	-0.532614	171.718433	-76.048772	-50.063453
43624		6.443341	-1.598998	-1.962648	1.387915	1.292924	-3.154823	-0.687465	0.020858	-0.711938	-0.766846	-0.388916	0.376221	0.064374	-0.016287	-0.019578	-0.315849	-0.693261	0.372094	-0.530259	169.689827	-75.993202	-48.385002
43625		8.460600	-2.596384	-1.762992	2.719797	1.306697	-1.308223	-0.720657	-0.020256	-0.644649	-0.762207	-0.393311	0.369629	0.084523	-0.026300	-0.017527	-0.319990	-0.693382	0.371803	-0.527816	167.846426	-75.907339	-46.908368
43626		11.478383	-0.428987	-2.986919	0.839747	0.702359	2.005088	-0.660792	-0.001770	-0.618766	-0.766357	-0.402100	0.367676	0.114770	-0.004744	-0.029853	-0.323952	-0.693458	0.371439	-0.525551	166.088768	-75.825042	-45.494461
43627		13.043532	-1.070701	-4.503172	1.006773	2.089390	3.832028	-0.591230	0.098537	-0.742773	-0.759277	-0.417480	0.359131	0.130372	-0.011324	-0.045063	-0.328108	-0.693628	0.370258	-0.523579	164.076537	-75.767613	-43.766184
43628		11.200185	-0.550183	-4.871532	0.146605	2.517203	2.150586	-0.472694	0.159537	-0.731163	-0.751953	-0.435059	0.355225	0.111942	-0.006026	-0.048791	-0.332006	-0.693760	0.368743	-0.522013	162.115458	-75.731947	-42.032152
43629		9.365316	-0.583648	-4.375678	0.139591	2.475733	0.239538	-0.271948	0.203852	-0.556734	-0.747314	-0.439453	0.348633	0.093592	-0.006157	-0.043844	-0.334751	-0.693814	0.367187	-0.521284	160.633275	-75.738444	-40.661556
43630		8.692552	-0.594290	-3.659378	0.402307	2.029185	-0.591787	-0.045310	0.254746	-0.535930	-0.740234	-0.452637	0.346924	0.086862	-0.006184	-0.036703	-0.336839	-0.694023	0.365088	-0.521136	159.267612	-75.768947	-39.292701
43631		8.744128	-0.369135	-3.247322	0.447086	1.605490	-0.627737	0.023437	0.286049	-0.655093	-0.730957	-0.461670	0.335938	0.087382	-0.003974	-0.032599	-0.338959	-0.694523	0.362275	-0.521057	157.676186	-75.781465	-37.635058
43632		9.213956	-1.094739	-2.639721	1.489261	1.441732	-0.391083	0.090698	0.249146	-0.751939	-0.723877	-0.474609	0.336426	0.092065	-0.011282	-0.026517	-0.341033	-0.695408	0.358995	-0.520795	155.949130	-75.739915	-35.797235
43633		9.877029	-1.281329	-2.570790	1.860073	1.438429	0.201155	0.159586	0.181318	-0.769523	-0.712646	-0.479004	0.336670	0.098697	-0.013173	-0.025808	-0.342779	-0.696599	0.355597	-0.520388	154.310852	-75.646640	-34.010134
43634		10.490462	-1.559735	-2.824483	2.152109	1.763951	0.804125	0.208902	0.100388	-0.749739	-0.701172	-0.489990	0.334717	0.104831	-0.015961	-0.028314	-0.344158	-0.698046	0.352262	-0.519806	152.840406	-75.503945	-32.365957
43635		11.370568	0.067619	-2.838661	1.007365	0.874050	1.830895	0.144418	0.137422	-0.794845	-0.691895	-0.503174	0.330566	0.113688	0.000245	-0.028464	-0.345934	-0.699347	0.348879	-0.519160	151.243824	-75.357995	-30.628810
43636		11.391888	-0.068333	-3.045537	1.098212	1.184139	1.868315	-0.132854	0.222751	-0.907849	-0.682617	-0.511719	0.330811	0.113880	-0.001221	-0.030582	-0.349119	-0.700136	0.345657	-0.518118	149.214068	-75.207603	-28.606746
43637		10.956732	-0.318683	-4.058584	0.804526	2.310562	1.616933	-0.359154	0.304356	-1.023401	-0.671387	-0.518555	0.317871	0.109487	-0.003820	-0.040746	-0.353523	-0.700494	0.342474	-0.516760	146.798781	-75.042984	-26.318616
43638		11.316423	-0.405038	-4.682511	0.762533	2.952519	2.055339	-0.674461	0.391540	-1.202902	-0.657227	-0.538330	0.311768	0.113045	-0.004889	-0.047031	-0.359634	-0.700353	0.339304	-0.514823	143.840189	-74.832532	-23.652979
43639		11.493032	-2.030590	-4.891600	2.214517	4.073109	1.961968	-1.005207	0.428404	-1.414835	-0.647949	-0.551514	0.298828	0.114677	-0.021364	-0.049056	-0.367483	-0.699831	0.336159	-0.512045	140.389445	-74.526796	-20.670277
43640		11.742312	-1.986930	-4.827553	2.438997	4.121398	2.111853	-1.157999	0.490474	-1.686187	-0.620361	-0.573486	0.283936	0.117130	-0.021138	-0.048443	-0.376634	-0.699263	0.332310	-0.508673	136.499050	-74.093608	-17.316902
43641		11.264446	-3.406768	-4.702532	3.771001	4.920016	1.240500	-1.260938	0.588573	-2.017071	-0.608887	-0.588867	0.273193	0.112153	-0.035497	-0.047135	-0.387098	-0.698706	0.327339	-0.504791	132.177437	-73.501199	-13.567015
43642		11.410314	-3.566602	-5.592373	3.768323	5.944740	1.351518	-1.192889	0.629538	-2.390797	-0.590332	-0.610840	0.256348	0.113487	-0.037359	-0.056062	-0.398270	-0.698675	0.320762	-0.500346	127.703920	-72.680246	-9.604656
43643		13.051644	-3.977972	-5.756511	4.799329	6.424957	2.636226	-1.237613	0.680854	-2.809799	-0.565430	-0.624023	0.247803	0.129741	-0.041963	-0.057752	-0.410640	-0.698944	0.312655	-0.495075	123.123571	-71.592826	-5.535646
43644		15.162296	-3.534785	-5.868199	5.393818	6.533191	4.505866	-1.358299	0.704656	-3.200902	-0.541992	-0.652588	0.226563	0.150820	-0.038166	-0.058961	-0.424322	-0.699323	0.303360	-0.488745	118.638484	-70.224478	-1.612695
43645		17.680670	-3.645185	-5.225425	7.071886	6.335827	6.404522	-1.639500	0.698171	-3.610614	-0.519043	-0.676758	0.216064	0.175922	-0.040063	-0.052551	-0.439826	-0.699490	0.293207	-0.480933	114.304335	-68.549851	2.015742
43646		19.208900	-4.775558	-3.827500	9.708638	5.982996	6.810255	-1.952523	0.683807	-3.935073	-0.482666	-0.696533	0.196777	0.190964	-0.051895	-0.038436	-0.456982	-0.699165	0.282600	-0.471670	110.249256	-66.611845	5.191985
43647		20.507718	-6.489167	-3.393621	12.436329	6.742494	6.739858	-2.168102	0.686270	-4.259284	-0.452881	-0.725098	0.177734	0.203512	-0.069605	-0.033899	-0.475418	-0.698425	0.271183	-0.461129	106.505871	-64.419437	7.941642
43648		22.739599	-9.840235	-2.898877	17.001654	8.121234	6.533378	-2.210405	0.687702	-4.538351	-0.414307	-0.740479	0.156250	0.224982	-0.103844	-0.028637	-0.494346	-0.697528	0.258758	-0.449579	103.178459	-62.008744	10.249797
43649		27.697656	-14.347110	-3.132358	23.589032	10.794497	7.784085	-2.273723	0.835585	-4.733812	-0.375732	-0.764648	0.134766	0.273343	-0.150322	-0.030788	-0.513799	-0.695925	0.245214	-0.437685	100.070643	-59.448691	12.320485
43650		34.320779	-19.522140	-4.934850	31.153288	15.407672	9.555672	-2.337045	1.306728	-4.671027	-0.350586	-0.780029	0.117432	0.338194	-0.203735	-0.049222	-0.533530	-0.692551	0.230700	-0.427196	96.912756	-56.916967	14.459973
43651		29.206016	-18.191218	-7.457762	27.297436	17.031283	4.471753	-2.813034	1.761218	-4.513403	-0.318848	-0.797852	0.080566	0.287184	-0.189479	-0.074491	-0.554710	-0.686238	0.216304	-0.417836	93.491263	-54.433575	16.652736
43652		20.518243	-9.576506	-8.687382	16.095397	14.522175	1.053839	-3.325361	1.763396	-4.311757	-0.291748	-0.808838	0.058838	0.202267	-0.101593	-0.087009	-0.576762	-0.677727	0.203581	-0.408151	90.141290	-52.005058	18.454496
43653		16.035201	-4.046643	-7.743332	10.161579	11.609419	-0.047968	-3.657692	1.516724	-3.910208	-0.271240	-0.820068	0.023682	0.158912	-0.045004	-0.077847	-0.598434	-0.667821	0.193357	-0.398127	87.049985	-49.745154	19.739738
43654		11.930309	-1.799077	-9.346454	5.986619	11.962811	-2.468911	-3.363854	0.861037	-3.441422	-0.252930	-0.831299	0.004150	0.118549	-0.021609	-0.093633	-0.617122	-0.659189	0.186051	-0.387319	84.733489	-47.753972	20.255494
43655		11.365822	-2.749920	-7.243847	7.271196	10.072427	-3.907654	-2.458358	0.548506	-3.010128	-0.239502	-0.833496	-0.015625	0.113020	-0.030094	-0.072390	-0.631425	-0.653233	0.179177	-0.377471	83.189648	-46.007169	20.443391
43656		10.979460	-2.681447	-5.359653	7.721935	8.192368	-4.362046	-1.864752	0.461731	-2.434910	-0.232666	-0.838135	-0.026611	0.109330	-0.028647	-0.053588	-0.642400	-0.648602	0.173401	-0.369553	82.048538	-44.601482	20.544229
43657		9.395653	-3.864624	-4.469940	7.874585	7.084454	-6.497582	-1.623125	0.566732	-1.768817	-0.225586	-0.844727	-0.044189	0.093481	-0.039837	-0.044645	-0.651356	-0.643844	0.168846	-0.364267	80.957050	-43.552614	20.779187
43658		8.822380	-6.598381	-4.462023	9.456776	7.159133	-9.040356	-0.936775	0.293329	-1.116639	-0.223633	-0.838135	-0.046387	0.087788	-0.066683	-0.044438	-0.656585	-0.641212	0.166143	-0.360749	80.373402	-42.906758	20.846477
43659		6.246460	-8.873946	-2.345813	9.787281	4.624878	-12.279953	0.128379	0.216683	-0.418923	-0.234619	-0.840576	-0.041992	0.062253	-0.088855	-0.023583	-0.657089	-0.641607	0.163873	-0.360167	80.375184	-42.650839	20.955057
43660		2.554673	-7.447871	-2.209507	6.292054	3.440252	-13.743707	1.298417	-0.063288	0.142754	-0.245850	-0.844727	-0.021973	0.025607	-0.074315	-0.022570	-0.653119	-0.645560	0.163114	-0.360669	81.125701	-42.744643	20.777777
43661		0.335280	-5.848085	-3.613548	3.273242	4.175501	-14.196623	2.378367	-0.341901	0.626695	-0.261475	-0.842285	0.002197	0.003598	-0.058035	-0.036821	-0.643964	-0.653401	0.161967	-0.363516	82.626034	-43.129203	20.578637
43662		-0.581970	-4.753393	-4.168773	1.696618	4.484065	-13.974764	3.184164	-0.557830	1.231069	-0.275146	-0.837646	0.032959	-0.005412	-0.046896	-0.042453	-0.631133	-0.663370	0.162660	-0.367633	84.669851	-43.873854	20.143170
43663		-0.813249	-3.360621	-4.885920	0.315750	5.039483	-13.026237	3.598305	-0.801457	1.874263	-0.306396	-0.835205	0.072510	-0.007625	-0.032793	-0.049485	-0.614948	-0.674549	0.164771	-0.373729	87.109707	-44.979062	19.605851
43664		-1.014300	-2.471514	-5.550684	-0.694697	5.560574	-12.370019	3.709687	-1.025483	2.436749	-0.329346	-0.819580	0.109863	-0.009563	-0.023798	-0.056004	-0.597136	-0.685540	0.169715	-0.380342	89.795441	-46.399483	18.738172
43665		-0.683966	-1.695015	-5.580023	-1.093191	5.549363	-11.388455	3.452571	-1.209304	2.985811	-0.363037	-0.810547	0.135986	-0.006257	-0.016079	-0.056122	-0.578413	-0.695440	0.176961	-0.387926	92.566307	-48.096541	17.661701
43666		0.695257	-0.735291	-4.990824	-0.744098	5.030317	-9.545404	2.909535	-1.351740	3.543051	-0.395020	-0.788574	0.166260	0.007410	-0.006498	-0.049958	-0.560251	-0.703025	0.187946	-0.395665	95.287184	-50.078029	16.203834
43667		2.423833	0.411328	-4.207901	-0.299983	4.203071	-7.364975	2.277759	-1.474293	4.077859	-0.431396	-0.770996	0.187744	0.024450	0.005088	-0.041845	-0.542605	-0.708296	0.201859	-0.403918	97.976926	-52.302168	14.430024
43668		4.460701	0.906752	-3.287910	0.749616	3.362258	-5.378998	1.555124	-1.534035	4.626040	-0.476807	-0.740234	0.204590	0.044627	0.010353	-0.032460	-0.526206	-0.710586	0.219619	-0.412240	100.625741	-54.785018	12.186913
43669		6.476446	0.693862	-2.484247	2.137704	2.743633	-3.772089	0.855062	-1.489979	5.095936	-0.509033	-0.709717	0.214844	0.064740	0.008693	-0.024325	-0.510819	-0.710071	0.239812	-0.421134	103.267127	-57.465867	9.598944
43670		8.184667	0.501956	-1.477866	3.275252	1.781012	-2.362362	0.405352	-1.432385	5.445691	-0.556885	-0.678955	0.231445	0.081772	0.007276	-0.014180	-0.496153	-0.707173	0.262236	-0.430082	106.131717	-60.285189	6.472911
43671		8.992578	0.516854	-0.231310	3.743642	0.371885	-1.626694	0.177267	-1.369146	5.724176	-0.593750	-0.641846	0.232666	0.089742	0.007741	-0.001692	-0.481186	-0.702762	0.285385	-0.439478	109.496368	-63.169190	2.771544
43672		9.337090	0.597767	0.297692	3.603768	-0.460500	-1.187043	0.109914	-1.362654	5.841216	-0.635010	-0.604736	0.240479	0.093120	0.008698	0.003616	-0.465932	-0.697235	0.309146	-0.448553	113.693148	-66.004204	-1.846576
43673		9.637934	-0.189419	0.385609	3.990394	-0.579728	-1.049862	0.293948	-1.375203	5.858267	-0.669434	-0.569824	0.254883	0.096350	0.000922	0.004519	-0.449410	-0.691649	0.331979	-0.457648	119.139496	-68.662558	-7.561852
43674		10.642955	-1.152515	0.548826	4.786756	-0.776306	-0.254863	0.700164	-1.476930	5.873783	-0.697998	-0.519287	0.269043	0.106663	-0.008416	0.006242	-0.431034	-0.686365	0.354177	-0.466553	126.470424	-71.045345	-14.985131
43675		12.186448	-1.038178	0.461347	4.619590	-1.280155	1.446748	1.225221	-1.611550	5.930040	-0.726074	-0.473145	0.287598	0.122059	-0.006796	0.005548	-0.409909	-0.681942	0.374974	-0.475735	136.247860	-72.990889	-24.520865
43676		13.467274	0.401198	-0.053702	2.878163	-2.002471	3.194225	1.673776	-1.717496	5.918614	-0.752197	-0.424805	0.306396	0.134473	0.007992	0.000674	-0.386799	-0.677863	0.394772	-0.484812	148.455458	-74.294952	-36.274859
43677		13.800545	2.533676	0.048890	0.393386	-3.515333	3.763108	2.011089	-1.726062	5.819040	-0.769531	-0.367432	0.329102	0.137178	0.029322	0.001957	-0.362251	-0.674119	0.412760	-0.493930	162.094383	-74.792169	-49.223626
43678		14.258350	4.193073	0.251635	-1.635777	-5.000650	4.086761	2.122842	-1.626149	5.746526	-0.784424	-0.319092	0.347656	0.141272	0.045965	0.004142	-0.337465	-0.669624	0.429872	-0.502922	175.799023	-74.508733	-62.202082
43679		15.199717	5.465915	-0.412851	-3.617796	-5.710814	4.860287	2.072926	-1.429789	5.675623	-0.801758	-0.266357	0.361816	0.150386	0.058974	-0.002453	-0.312994	-0.664210	0.445870	-0.511917	-171.726390	-73.566880	-73.935718
43680		16.735548	6.900711	-1.232460	-5.875542	-6.550868	6.051911	1.697682	-1.138605	5.601559	-0.805664	-0.211426	0.373779	0.165398	0.073754	-0.010766	-0.290464	-0.656818	0.461952	-0.520405	-161.085739	-72.172674	-84.083230
43681		17.086079	6.378455	-2.081294	-6.524237	-6.226007	6.172575	1.054782	-0.897693	5.590487	-0.827393	-0.158691	0.376709	0.169077	0.068634	-0.019698	-0.270235	-0.647515	0.478681	-0.527790	-152.377642	-70.427167	-92.633757
43682		16.571927	4.403731	-2.938291	-5.882780	-4.997910	5.775341	0.912721	-0.790920	5.591225	-0.824463	-0.110352	0.384277	0.164514	0.048780	-0.028515	-0.250464	-0.637144	0.495351	-0.534736	-145.167699	-68.363731	-99.779763
43683		16.727747	3.592798	-2.952022	-5.928393	-5.178664	5.659781	1.396860	-0.836554	5.353827	-0.821533	-0.062012	0.396484	0.166353	0.040591	-0.028550	-0.229505	-0.627634	0.509526	-0.542020	-139.286742	-66.100612	-105.285660
43684		18.771444	6.009539	-2.537787	-8.824762	-7.707633	6.235592	1.958357	-0.913954	4.878499	-0.827637	-0.015869	0.404053	0.186282	0.064890	-0.023905	-0.207673	-0.619661	0.520486	-0.549533	-134.550057	-63.796269	-109.278216
43685		20.061080	10.349147	-2.412898	-13.364757	-10.437928	5.277366	2.055404	-0.738820	4.342996	-0.826660	0.025879	0.405273	0.198382	0.108051	-0.022298	-0.187361	-0.612352	0.528908	-0.556935	-130.706536	-61.675462	-112.274176
43686		16.681255	14.084072	-3.458311	-16.923217	-9.811791	0.475663	1.445702	-0.373981	3.831908	-0.818848	0.063232	0.399902	0.164133	0.144246	-0.033240	-0.171451	-0.604240	0.537067	-0.563079	-127.679317	-59.840639	-114.832982
43687		12.378844	15.868808	-4.684657	-18.405008	-7.605122	-4.300814	0.227346	-0.241663	3.344958	-0.815186	0.089600	0.403809	0.121167	0.160782	-0.046517	-0.160646	-0.596059	0.546663	-0.565744	-125.823627	-58.219477	-116.842731
43688		11.296505	15.888628	-5.299120	-18.665281	-6.471928	-5.589110	-0.831169	-0.240320	2.823086	-0.813477	0.104980	0.405518	0.110774	0.160239	-0.053521	-0.154728	-0.588014	0.557774	-0.564966	-124.987465	-56.827036	-118.441802
43689		11.454267	15.110166	-3.948132	-17.569901	-7.154733	-5.914376	-1.488781	-0.143539	2.282099	-0.811523	0.113770	0.403076	0.112840	0.152097	-0.040530	-0.152215	-0.580860	0.568747	-0.562102	-124.821601	-55.705159	-119.664570
43690		11.645011	14.725550	-2.040339	-16.571035	-8.404265	-6.441007	-1.728942	-0.037163	1.632511	-0.809570	0.125000	0.405029	0.115248	0.148016	-0.021659	-0.152689	-0.574783	0.578481	-0.558275	-125.054597	-54.927806	-120.614255
43691		12.558680	13.047666	-0.886375	-15.058653	-9.085777	-5.404978	-1.633361	0.035999	0.788429	-0.809570	0.125000	0.405029	0.125070	0.130892	-0.009954	-0.155251	-0.571142	0.585254	-0.554231	-125.597466	-54.568718	-121.093076
43692		13.282969	10.633040	-0.050401	-12.967214	-9.328542	-3.953554	-1.155104	0.101159	-0.105287	-0.807129	0.118408	0.409668	0.132885	0.106255	-0.001185	-0.159212	-0.570163	0.588152	-0.551038	-126.239377	-54.651138	-121.133395
43693		13.277825	9.266230	1.045005	-11.323727	-9.812516	-3.588445	-0.348378	0.159038	-0.970812	-0.811035	0.100586	0.403564	0.133234	0.092034	0.010184	-0.163316	-0.572306	0.586209	-0.549684	-126.806163	-55.149882	-120.682211
43694		13.022257	9.592834	2.175033	-10.926450	-10.712984	-4.140813	0.460000	0.166551	-1.715184	-0.808594	0.092041	0.403564	0.131057	0.094757	0.021860	-0.167244	-0.577168	0.579935	-0.550074	-127.294150	-55.991239	-119.781732
43695		12.523610	9.657849	2.206737	-10.623712	-10.581691	-4.323119	1.124620	0.184720	-2.369907	-0.810303	0.072266	0.408691	0.126388	0.094960	0.022488	-0.171009	-0.584433	0.569798	-0.551836	-127.775901	-57.130020	-118.429935
43696		13.349969	9.904146	1.221476	-11.185171	-10.346249	-3.057884	1.739369	0.145899	-3.088261	-0.816406	0.056885	0.408936	0.135016	0.096854	0.012965	-0.174871	-0.594193	0.555796	-0.554478	-128.412421	-58.574514	-116.508236
43697		9.407304	-1.056624	-9.348834	-5.566883	3.690648	1.693903	1.946496	-0.090374	-3.481808	-0.818115	0.041504	0.416016	0.093923	-0.011292	-0.093553	-0.178426	-0.605714	0.540025	-0.556461	-129.480612	-60.091247	-113.967685
43698		5.070849	-46.791624	-18.487210	29.639921	29.777369	18.322960	2.219070	-0.658090	-1.342959	-0.813965	0.050537	0.422363	0.048194	-0.466157	-0.189890	-0.173677	-0.613082	0.530346	-0.559195	-129.578784	-60.445055	-112.395898
43699		15.323106	-45.220167	-12.614160	28.562863	20.486242	24.873922	2.388840	-0.788103	0.392461	-0.812012	0.059326	0.428711	0.154626	-0.450354	-0.130921	-0.163125	-0.616281	0.525512	-0.563405	-128.575512	-59.983300	-111.972569
43700		26.923883	9.572553	11.918913	-6.418649	-25.614702	6.349008	2.388092	0.783929	-2.322000	-0.813721	0.039551	0.429199	0.270782	0.091164	0.119236	-0.164371	-0.621987	0.510980	-0.570100	-128.046656	-61.302844	-111.018912
43701		41.879885	27.477034	-1.254923	-29.761042	-29.395852	17.759425	0.844946	-0.057903	-4.522492	-0.817139	0.006592	0.421387	0.424872	0.265258	-0.011293	-0.174414	-0.634247	0.494421	-0.568206	-130.744545	-63.282550	-107.423261
43702		26.429266	12.853649	0.820024	-13.554590	-17.344191	9.673124	-2.565167	1.691729	-3.767892	-0.822510	-0.033203	0.411133	0.266700	0.123599	0.004344	-0.197389	-0.636328	0.488152	-0.563765	-133.749267	-65.531841	-105.724240
43703		15.829939	3.240201	2.373860	-3.154465	-9.451481	3.126049	-3.099833	1.396043	-3.455134	-0.821045	-0.079346	0.399170	0.158990	0.030011	0.022153	-0.220311	-0.637593	0.484378	-0.557061	-137.494973	-67.485616	-103.575048
43704		7.131485	3.102349	0.767457	-2.868231	-4.559155	-4.151158	-1.557853	0.719015	-3.338686	-0.818115	-0.105713	0.395264	0.071846	0.029884	0.007181	-0.236285	-0.641855	0.477189	-0.551798	-141.364948	-69.043962	-100.370558
43705		5.616679	0.818195	-1.680994	-1.807812	-0.893570	-4.247390	-0.427948	0.123515	-3.259516	-0.819336	-0.134277	0.395996	0.056279	0.007229	-0.016861	-0.246887	-0.648712	0.467701	-0.547243	-145.538193	-70.210847	-96.178783
43706		3.703316	-2.512625	-4.491742	-0.051965	3.631537	-4.615383	0.538000	-0.041160	-2.682512	-0.809814	-0.156250	0.398926	0.036702	-0.025499	-0.044978	-0.252362	-0.655716	0.457521	-0.544999	-148.946477	-71.023457	-92.238056
43707		3.663636	-1.775840	-5.834989	-1.326421	4.466977	-4.435927	1.548383	-0.168725	-2.105226	-0.811768	-0.166992	0.405762	0.036499	-0.017691	-0.058456	-0.252587	-0.662903	0.446576	-0.545279	-151.287774	-71.537887	-88.827314
43708		5.738505	2.144581	-6.556568	-5.077376	2.515333	-2.854894	2.194173	-0.283315	-2.107318	-0.806885	-0.175781	0.414795	0.057704	0.021556	-0.065248	-0.250396	-0.671090	0.433905	-0.546504	-153.509654	-71.953031	-85.163273
43709		10.118609	5.059522	-4.410691	-6.248962	-2.070388	0.390206	1.486915	0.069202	-2.389203	-0.801758	-0.201904	0.419922	0.101768	0.049708	-0.043770	-0.252034	-0.677893	0.421698	-0.546910	-156.482709	-72.564972	-81.145400
43710		14.076052	5.470723	-3.331534	-5.605903	-4.238139	3.962789	-0.002651	0.208602	-2.462909	-0.798828	-0.221680	0.418213	0.141385	0.052968	-0.033463	-0.259200	-0.682479	0.413053	-0.544450	-160.615721	-73.191579	-76.822315
43711		12.938990	3.314258	-3.494174	-3.691656	-2.484138	3.256531	-0.953569	0.189831	-1.942651	-0.791748	-0.237061	0.418701	0.129669	0.031716	-0.035218	-0.268092	-0.684712	0.408753	-0.540571	-164.616190	-73.625171	-73.216230
43712		12.010579	2.188268	-2.673402	-2.198550	-2.158835	2.298961	-1.098474	0.099131	-1.388489	-0.786621	-0.259033	0.412598	0.120240	0.020901	-0.026910	-0.275801	-0.685803	0.406806	-0.536766	-167.860555	-73.868379	-70.492032
43713		9.910602	1.159333	-1.560292	-0.816040	-1.870700	0.078279	-1.514104	0.222791	-1.239696	-0.779541	-0.272217	0.404053	0.099157	0.010860	-0.015797	-0.284733	-0.685619	0.406295	-0.532708	-171.077679	-74.120823	-68.045676
43714		7.524370	0.152058	-2.068301	-0.347798	-0.244606	-2.019411	-1.666693	0.248039	-1.101139	-0.783447	-0.287598	0.402344	0.075224	0.000933	-0.020786	-0.293876	-0.684807	0.406571	-0.528561	-174.195139	-74.341344	-65.798392
43715		8.601745	-0.336508	-1.030859	0.784146	-1.060295	-1.243795	-1.440021	0.232285	-1.013610	-0.785156	-0.305420	0.395996	0.085987	-0.003875	-0.010382	-0.301919	-0.684125	0.406553	-0.524911	-177.056945	-74.515511	-63.682042
43716		10.920908	-1.019359	-0.727992	1.887286	-1.469818	0.916334	-0.916380	0.194673	-1.018990	-0.775879	-0.311768	0.396240	0.109148	-0.010783	-0.007338	-0.308122	-0.684305	0.405153	-0.522148	-179.696972	-74.642037	-61.487583
43717		13.138971	-0.199445	-3.141125	0.431070	-0.249679	3.688745	-0.464099	0.363811	-1.059399	-0.775391	-0.329590	0.385742	0.131319	-0.002763	-0.031644	-0.313181	-0.684788	0.402177	-0.520804	177.805714	-74.837712	-59.172619
43718		11.600272	-0.839473	-4.469499	0.268389	1.649164	2.534534	-0.216458	0.564447	-1.012476	-0.777344	-0.338379	0.385986	0.115831	-0.009030	-0.045013	-0.317691	-0.685023	0.398365	-0.520693	175.442250	-75.124753	-56.853091
43719		8.355436	-0.679422	-4.360309	-0.219320	2.276508	-0.644483	0.078104	0.522464	-0.897284	-0.772705	-0.347168	0.386230	0.083409	-0.007152	-0.043824	-0.320770	-0.685580	0.394258	-0.521198	173.440481	-75.370267	-54.734798
43720		6.328538	0.170443	-5.251192	-1.644896	3.103959	-2.375349	0.340240	0.488832	-0.800529	-0.772461	-0.353760	0.381836	0.063163	0.001541	-0.052664	-0.322652	-0.686440	0.389824	-0.522238	171.730768	-75.586708	-52.766665
43721		6.485630	0.499278	-5.115742	-1.836734	2.839480	-2.259734	0.561495	0.459549	-0.820583	-0.770020	-0.360352	0.377686	0.064759	0.004871	-0.051293	-0.323732	-0.687750	0.384800	-0.523571	170.078607	-75.769821	-50.727466
43722		7.717168	0.344649	-4.324656	-1.128441	2.051477	-1.274889	0.713278	0.400901	-0.829492	-0.765381	-0.366943	0.377686	0.077099	0.003281	-0.043389	-0.324223	-0.689457	0.379417	-0.524949	168.458765	-75.904368	-48.635724
43723		8.838489	0.216629	-3.299592	-0.329741	1.086672	-0.444479	0.831629	0.292512	-0.780633	-0.765137	-0.371338	0.380127	0.088344	0.001959	-0.033117	-0.323928	-0.691521	0.374068	-0.526253	167.056648	-75.970821	-46.697065
43724		10.070769	0.547500	-1.956994	0.273401	-0.386662	0.450131	0.949070	0.236454	-0.719259	-0.764893	-0.377930	0.382568	0.100704	0.005206	-0.019664	-0.322985	-0.693785	0.368692	-0.527646	165.860098	-76.003055	-44.904441
43725		10.274692	1.869093	-1.222996	-0.414452	-1.687326	0.557435	0.976659	0.200575	-0.632171	-0.762695	-0.382080	0.391357	0.102793	0.018426	-0.012243	-0.321603	-0.696001	0.363597	-0.529104	164.905093	-76.020418	-43.341544
43726		9.935046	4.322776	0.348847	-1.711646	-4.213897	0.027347	0.626614	0.195445	-0.506555	-0.760254	-0.384277	0.384766	0.099463	0.042965	0.003526	-0.321125	-0.697423	0.359856	-0.530079	164.011443	-76.047495	-42.051830
43727		10.118001	2.960381	0.574145	-0.381513	-3.672430	0.078468	-0.117662	0.256694	-0.366093	-0.757568	-0.397461	0.380859	0.101241	0.029422	0.005594	-0.322941	-0.697226	0.358484	-0.530165	162.972625	-76.126535	-41.049045
43728		10.306948	-0.335621	-0.615480	1.841387	-0.913329	0.311522	-0.574018	0.254518	-0.270912	-0.750488	-0.410889	0.370117	0.103057	-0.003514	-0.006276	-0.326134	-0.696117	0.358647	-0.529557	161.853563	-76.215988	-40.237514
43729		11.117806	-2.690365	-1.659803	3.475241	1.112647	1.154681	-0.573975	0.175250	-0.295065	-0.750244	-0.417480	0.368164	0.111124	-0.027115	-0.016618	-0.329200	-0.695257	0.358857	-0.528646	160.749209	-76.254596	-39.437074
43730		11.331511	-2.211497	-2.487899	2.735152	1.552633	1.571138	-0.355438	0.092271	-0.431232	-0.750244	-0.424072	0.365967	0.113256	-0.022403	-0.024892	-0.331772	-0.695199	0.358159	-0.527586	159.513482	-76.218107	-38.379384
43731		11.279925	-0.903584	-3.008795	1.409845	1.350186	1.732654	-0.188472	0.044129	-0.588035	-0.742920	-0.437256	0.359619	0.112765	-0.009396	-0.030104	-0.334031	-0.695835	0.356542	-0.526416	158.102482	-76.117659	-37.035437
43732		10.576478	-1.170428	-2.987947	1.572361	1.615478	1.007527	-0.204724	0.038561	-0.659023	-0.735840	-0.450439	0.355713	0.105720	-0.012083	-0.029888	-0.336582	-0.696557	0.354746	-0.525048	156.539173	-75.990271	-35.551787
43733		9.748761	-0.935045	-3.136814	1.198999	1.776216	0.245106	-0.293423	0.041424	-0.698175	-0.717773	-0.458984	0.355957	0.097448	-0.009737	-0.031374	-0.339483	-0.697203	0.353018	-0.523485	154.888852	-75.845255	-34.021645
43734		9.422923	-0.955269	-3.077023	1.247345	1.828535	-0.103311	-0.437173	0.106493	-0.811154	-0.715088	-0.472412	0.345215	0.094173	-0.010002	-0.030799	-0.343363	-0.697593	0.351191	-0.521661	152.879612	-75.693271	-32.216022
43735		9.157778	-0.856750	-3.583902	0.939390	2.299606	-0.259069	-0.540710	0.149507	-0.967374	-0.705811	-0.487549	0.343506	0.091508	-0.009107	-0.035883	-0.348004	-0.697978	0.348971	-0.519557	150.521671	-75.503939	-30.099432
43736		9.211764	-0.250639	-3.528502	0.555079	2.007531	-0.167478	-0.630610	0.210409	-1.143211	-0.696289	-0.503174	0.334961	0.092064	-0.003144	-0.035373	-0.353593	-0.698291	0.346305	-0.517140	147.760697	-75.269207	-27.631090
43737		9.490823	-0.662279	-3.007818	1.320687	1.828677	-0.093060	-0.765590	0.273832	-1.313162	-0.687012	-0.516357	0.322021	0.094820	-0.007361	-0.030181	-0.360100	-0.698498	0.343211	-0.514426	144.650355	-74.979285	-24.864771
43738		9.203605	-1.017168	-3.084019	1.634255	2.200633	-0.445914	-0.863879	0.309468	-1.415689	-0.664063	-0.533691	0.322510	0.091913	-0.010956	-0.030936	-0.367260	-0.698577	0.339906	-0.511443	141.380784	-74.629579	-21.986933
43739		9.717976	-1.080248	-3.258466	1.859529	2.435304	0.027652	-0.873348	0.333848	-1.541786	-0.652344	-0.551514	0.307617	0.097037	-0.011694	-0.032697	-0.374781	-0.698728	0.336134	-0.508265	138.031905	-74.202601	-19.027773
43740		11.372595	-0.527582	-3.296579	1.947603	2.176467	1.674142	-0.809583	0.385673	-1.715639	-0.634033	-0.564697	0.292480	0.113611	-0.006385	-0.033161	-0.382582	-0.699106	0.331450	-0.504998	134.574666	-73.680043	-15.910424
43741		12.802633	-0.941554	-3.055950	2.974434	2.217331	2.850757	-0.815041	0.441236	-1.875730	-0.620117	-0.582275	0.284180	0.127862	-0.010740	-0.030800	-0.390852	-0.699519	0.326096	-0.501566	131.051904	-73.062113	-12.719350
43742		13.028896	-1.390594	-3.241653	3.538518	2.759690	2.917197	-0.836108	0.477242	-1.996720	-0.601807	-0.599854	0.271484	0.130063	-0.015341	-0.032665	-0.399520	-0.699925	0.320253	-0.497923	127.573458	-72.347313	-9.575751
43743		13.064336	-1.223077	-2.784223	3.822785	2.465479	2.805726	-0.760039	0.505067	-2.159440	-0.581299	-0.612793	0.265137	0.130430	-0.013746	-0.028121	-0.408313	-0.700575	0.313565	-0.494118	124.206582	-71.513511	-6.490376
43744		13.006195	-0.457381	-2.662064	3.438968	2.204541	2.826977	-0.744828	0.574156	-2.344098	-0.562744	-0.634766	0.254639	0.129919	-0.006197	-0.026973	-0.417560	-0.701277	0.305998	-0.490121	120.879673	-70.555953	-3.421871
43745		13.043565	-0.399528	-3.053719	3.476571	2.746751	2.835525	-0.748236	0.617508	-2.531747	-0.540039	-0.650146	0.248535	0.130275	-0.005760	-0.030920	-0.427271	-0.702027	0.297646	-0.485803	117.662515	-69.462770	-0.452790
43746		13.862429	0.106786	-3.242849	3.530366	2.929157	3.664582	-0.774016	0.674458	-2.712793	-0.514893	-0.667725	0.238037	0.138510	-0.000938	-0.032895	-0.437514	-0.702720	0.288539	-0.481156	114.563669	-68.235532	2.396004
43747		14.777173	-0.116873	-3.588754	4.211544	3.633723	4.339986	-0.974620	0.713973	-2.861765	-0.491943	-0.691895	0.225342	0.147604	-0.003458	-0.036402	-0.448777	-0.702931	0.279241	-0.475933	111.547610	-66.886559	5.056792
43748		16.406944	0.053772	-4.046472	4.869343	4.347448	5.773449	-1.272115	0.763419	-3.011171	-0.469238	-0.705078	0.214844	0.163894	-0.002191	-0.041082	-0.461394	-0.702385	0.269948	-0.470000	108.561087	-65.415080	7.526520
43749		18.360202	-1.615665	-3.937266	7.485237	5.435890	6.606663	-1.727101	0.853073	-3.145715	-0.443848	-0.724854	0.195557	0.183144	-0.019383	-0.039996	-0.475901	-0.700539	0.260955	-0.463320	105.481641	-63.834641	9.841369
43750		20.025411	-4.921202	-4.128332	11.251121	7.459927	6.311558	-2.181743	0.956931	-3.222416	-0.414307	-0.746826	0.178467	0.199223	-0.052881	-0.041675	-0.492136	-0.697214	0.252419	-0.456047	102.326125	-62.174618	11.980666
43751		22.796002	-9.601352	-4.718349	16.527350	10.413386	6.075691	-2.388909	1.082150	-3.308783	-0.391602	-0.753662	0.149902	0.226068	-0.100328	-0.047229	-0.509242	-0.692907	0.243624	-0.448554	99.204872	-60.428301	13.980406
43752		24.516336	-12.517239	-5.923986	19.739517	13.077769	5.420431	-2.342912	1.195977	-3.435875	-0.359863	-0.771240	0.130615	0.242603	-0.130049	-0.059191	-0.526373	-0.688299	0.233919	-0.440974	96.270240	-58.572561	15.828310
43753		23.067975	-13.203403	-5.437227	20.233274	12.895359	2.846105	-2.398936	1.314772	-3.645878	-0.341553	-0.784424	0.102295	0.227857	-0.136856	-0.054254	-0.544046	-0.683191	0.223153	-0.432976	93.442458	-56.555540	17.552056
43754		24.066445	-13.288663	-4.573132	21.598297	12.483940	2.607206	-2.937786	1.672835	-3.558477	-0.316650	-0.797852	0.082764	0.237859	-0.137807	-0.045728	-0.563451	-0.675358	0.212817	-0.425585	90.276687	-54.554642	19.348418
43755		23.100599	-12.789371	-6.068632	20.648130	13.715131	1.118266	-4.011476	2.004720	-3.076441	-0.304932	-0.809326	0.036621	0.228384	-0.132633	-0.060356	-0.585446	-0.662835	0.205252	-0.419255	86.490568	-52.761303	21.197210
43756		18.379489	-10.827368	-8.077414	16.307740	14.149094	-2.460116	-4.530673	1.942423	-2.768063	-0.284668	-0.811768	0.001221	0.181476	-0.112615	-0.080026	-0.607982	-0.648095	0.199917	-0.412753	82.681799	-51.086680	22.735334
43757		15.576503	-8.457790	-9.226589	12.958742	14.082801	-4.069916	-3.590599	1.418022	-2.678973	-0.277588	-0.822998	-0.029297	0.153947	-0.088299	-0.091799	-0.626374	-0.636772	0.194294	-0.405495	79.942126	-49.448119	23.624943
43758		13.714323	-7.911157	-11.349156	11.169670	15.504029	-6.030737	-1.619616	0.757028	-2.682821	-0.257568	-0.825195	-0.038086	0.135628	-0.081856	-0.113351	-0.637581	-0.632709	0.186778	-0.397848	78.861906	-47.869302	23.824392
43759		11.387717	-6.594629	-10.990947	9.002792	14.375051	-7.309286	0.490321	0.253656	-2.910997	-0.239258	-0.835938	-0.024414	0.112764	-0.067323	-0.110217	-0.641969	-0.636436	0.175779	-0.389779	79.333053	-46.205583	23.567202
43760		9.384032	-3.861157	-5.386992	7.311651	8.209608	-6.477321	1.577242	0.286263	-3.102327	-0.223633	-0.842285	-0.008789	0.093153	-0.039633	-0.054313	-0.643102	-0.643598	0.162053	-0.382021	80.402308	-44.440615	23.330866
43761		5.589987	2.333179	-4.615551	0.789607	5.690463	-4.813819	0.739676	-0.380892	-2.437771	-0.214355	-0.848633	-0.006348	0.056268	0.022818	-0.045964	-0.644997	-0.648645	0.154022	-0.373518	81.250286	-43.097989	22.720594
43762		8.261985	7.338128	-3.881736	-0.419586	5.160962	0.692557	-0.185222	-0.523085	-1.947788	-0.212158	-0.848633	-0.010742	0.083430	0.072536	-0.038667	-0.649242	-0.650271	0.150591	-0.364630	81.564008	-42.048286	21.953494
43763		10.446684	2.493369	-3.204927	4.676755	5.701390	-1.372161	-0.040928	0.228462	-1.135404	-0.212158	-0.848633	-0.008545	0.104569	0.024334	-0.032174	-0.651588	-0.650584	0.146245	-0.361643	81.514740	-41.387004	21.995239
43764		6.934771	-5.261990	-1.561873	7.859813	4.022010	-9.297558	0.603379	0.534981	0.227556	-0.225586	-0.850830	0.000244	0.069365	-0.052493	-0.015963	-0.649980	-0.651221	0.144904	-0.363923	81.570365	-41.479990	22.305931
43765		3.650039	-9.041129	-0.043049	8.504013	2.168136	-14.060698	1.267305	0.082082	1.044748	-0.250244	-0.850830	0.015625	0.036972	-0.090214	-0.001018	-0.643972	-0.654430	0.145744	-0.368484	82.183632	-42.067354	22.478270
43766		3.253756	-8.667055	-0.139741	7.967831	2.236276	-13.964044	1.783705	-0.408782	1.489790	-0.266113	-0.839844	0.032959	0.033186	-0.086408	-0.002101	-0.635308	-0.659662	0.149219	-0.372777	83.318297	-42.954264	22.220965
43767		1.087852	-5.001038	-0.441391	3.962286	1.520754	-12.706572	2.190225	-0.575856	1.778560	-0.288574	-0.839600	0.059570	0.011336	-0.049859	-0.004928	-0.624256	-0.666316	0.152832	-0.378115	84.788804	-44.003305	21.910546
43768		-0.457727	-2.245658	-0.663527	1.011592	0.929351	-11.763387	2.444746	-0.826498	2.091457	-0.313232	-0.832764	0.083496	-0.004314	-0.022419	-0.006928	-0.611613	-0.673724	0.158204	-0.383403	86.568988	-45.245862	21.305531
43769		0.417811	-0.379132	-1.522772	0.032427	1.623508	-9.821641	2.318080	-1.022158	2.546336	-0.342773	-0.819580	0.103027	0.004302	-0.003560	-0.015248	-0.597997	-0.680667	0.165452	-0.389510	88.441954	-46.730065	20.550920
43770		1.540576	1.169139	-2.149720	-0.561177	2.098546	-7.904304	1.974460	-1.028958	3.069047	-0.369873	-0.804199	0.122559	0.015332	0.012138	-0.021300	-0.584465	-0.685835	0.175498	-0.396524	90.202242	-48.507719	19.649551
43771		2.095057	1.250482	-2.113719	-0.330482	2.098583	-7.382416	1.734241	-0.998266	3.698534	-0.408447	-0.784424	0.139648	0.020817	0.013073	-0.020921	-0.570162	-0.689503	0.187634	-0.405334	91.918403	-50.616899	18.703166
43772		2.877826	0.246706	-1.515712	0.983435	1.901951	-7.352265	1.425079	-1.012088	4.354312	-0.451660	-0.760498	0.152100	0.028790	0.003201	-0.014990	-0.555418	-0.691264	0.202952	-0.415301	93.634888	-53.093081	17.516497
43773		3.841947	-0.535257	-1.333928	2.073984	2.060841	-6.936172	0.990451	-1.042151	4.894480	-0.490234	-0.738770	0.160156	0.038603	-0.004344	-0.013162	-0.540574	-0.691005	0.220651	-0.426152	95.349845	-55.843018	16.109449
43774		4.733534	-1.020618	-1.202042	2.840306	2.124744	-6.304860	0.601936	-1.129547	5.331498	-0.531250	-0.708008	0.172607	0.047651	-0.008903	-0.011780	-0.525783	-0.688804	0.241101	-0.437003	97.230648	-58.820788	14.245104
43775		5.788271	-1.674049	-0.935329	3.808320	2.083748	-5.531876	0.262481	-1.277014	5.739893	-0.574951	-0.670898	0.182617	0.058389	-0.015057	-0.009002	-0.510550	-0.685084	0.263556	-0.447812	99.505228	-61.969290	11.805283
43776		6.776535	-2.309846	-0.758143	4.627125	2.033148	-4.687169	-0.032727	-1.411800	6.057578	-0.618408	-0.635986	0.194824	0.068475	-0.021033	-0.007096	-0.495064	-0.679752	0.288164	-0.458050	102.435619	-65.235948	8.479697
43777		7.673919	-2.106249	-1.307654	4.365579	2.287828	-3.431407	-0.008043	-1.583956	6.215841	-0.664063	-0.594482	0.197998	0.077444	-0.018663	-0.012464	-0.478299	-0.674072	0.313087	-0.467797	106.583455	-68.459077	3.967800
43778		8.933040	-1.580993	-1.333123	4.003382	1.852843	-1.776144	0.195801	-1.730690	6.303225	-0.696777	-0.546387	0.207764	0.089880	-0.012970	-0.012569	-0.459979	-0.668260	0.338125	-0.476990	112.627615	-71.544111	-2.371507
43779		10.791478	-1.350021	-1.298968	3.932539	1.335334	0.320169	0.359235	-1.827747	6.299982	-0.729736	-0.497803	0.237305	0.108381	-0.010069	-0.012021	-0.440395	-0.662451	0.362344	-0.485714	121.213384	-74.295920	-11.131979
43780		13.103324	-1.376558	-1.233972	4.006708	0.686130	2.778119	0.916319	-1.947046	6.165582	-0.753418	-0.451904	0.249512	0.131486	-0.009664	-0.011112	-0.418644	-0.657572	0.384889	-0.494163	133.426135	-76.448104	-23.230919
43781		15.256617	-1.067028	-1.209287	3.500242	-0.222257	5.119924	1.940157	-2.159239	5.968797	-0.777588	-0.392334	0.278809	0.152911	-0.006003	-0.010516	-0.393111	-0.655135	0.404031	-0.503012	149.566689	-77.617876	-38.645266
43782		17.019200	0.496174	-0.926357	1.674503	-1.986398	7.036887	2.962265	-2.341257	5.787109	-0.792725	-0.337158	0.308350	0.170043	0.010000	-0.007149	-0.363882	-0.654665	0.420128	-0.512343	167.670647	-77.575638	-55.458012
43783		18.739508	3.855518	-0.039333	-1.671855	-5.203717	8.518667	3.510633	-2.375462	5.584768	-0.805664	-0.279785	0.335693	0.186203	0.043739	0.002561	-0.332850	-0.655018	0.433483	-0.521781	-176.008912	-76.439032	-70.135556
43784		21.728201	7.447805	0.199231	-5.398141	-8.492289	10.831763	3.704920	-2.223727	5.334535	-0.812012	-0.226807	0.363037	0.215144	0.080152	0.005843	-0.301757	-0.654941	0.444937	-0.531060	-163.060833	-74.612410	-81.327351
43785		24.874394	10.361613	-0.192247	-8.853514	-11.284202	12.995217	3.538691	-1.810691	5.147113	-0.820313	-0.174072	0.385986	0.245961	0.109956	0.002221	-0.272292	-0.653305	0.454895	-0.540481	-153.058027	-72.540028	-89.636812
43786		24.329484	14.373074	-1.127875	-13.661318	-13.085441	11.204019	2.761337	-1.115117	5.151874	-0.824219	-0.119141	0.391357	0.239534	0.150058	-0.007893	-0.246695	-0.647956	0.465769	-0.549866	-144.864548	-70.456048	-96.623786
43787		20.610926	16.285852	-2.053411	-16.418196	-12.622379	6.472244	1.467788	-0.497246	5.297297	-0.830322	-0.066406	0.392090	0.201746	0.168383	-0.018807	-0.226099	-0.638565	0.479332	-0.557992	-138.171479	-68.338537	-102.871596
43788		16.450542	15.193864	-2.232666	-15.908468	-10.833561	1.844683	0.611081	-0.280459	5.273219	-0.833984	-0.024658	0.399902	0.160454	0.156272	-0.021627	-0.208748	-0.627028	0.494791	-0.564307	-132.931476	-66.098863	-108.196211
43789		16.791452	14.207527	-2.287999	-15.673826	-10.714739	1.522256	0.790259	-0.446546	4.512724	-0.830566	0.014893	0.394531	0.164701	0.145904	-0.021938	-0.192352	-0.617796	0.507044	-0.569417	-129.242484	-63.978341	-111.762790
43790		18.334530	13.772844	-3.927985	-16.815871	-10.071804	2.717308	1.148351	-0.430401	3.427905	-0.822754	0.047852	0.400391	0.181029	0.141066	-0.038085	-0.178020	-0.611175	0.514857	-0.574192	-126.573030	-62.272865	-114.041729
43791		16.356558	16.412640	-5.195819	-19.582623	-9.504170	-0.322446	1.054674	-0.128234	2.525044	-0.825684	0.067627	0.397705	0.161507	0.166445	-0.050981	-0.167173	-0.605937	0.519611	-0.578704	-124.520993	-61.050447	-115.684226
43792		13.748374	19.360885	-6.002826	-22.035573	-9.032416	-4.092109	0.729472	-0.122136	1.836677	-0.828369	0.085205	0.403809	0.135733	0.195078	-0.059235	-0.159401	-0.601975	0.523269	-0.581728	-123.157969	-60.133676	-116.788222
43793		13.151656	20.562066	-5.829917	-22.846516	-9.460825	-5.537804	0.350249	-0.230167	1.144140	-0.822021	0.093994	0.403564	0.130404	0.206470	-0.057788	-0.154385	-0.599931	0.525867	-0.582848	-122.537442	-59.509023	-117.271625
43794		13.079003	20.410601	-3.681815	-21.587001	-11.092357	-6.324330	-0.179096	-0.245338	0.522885	-0.819824	0.096191	0.405762	0.130301	0.204414	-0.036841	-0.152771	-0.599072	0.528224	-0.582025	-122.566579	-59.175948	-117.367089
43795		13.327598	18.848795	-1.777259	-19.395946	-12.048168	-5.978880	-0.771742	-0.159866	-0.153296	-0.823975	0.089600	0.403809	0.133435	0.188316	-0.018393	-0.155077	-0.599360	0.530128	-0.579382	-123.218698	-59.197571	-117.120362
43796		13.966949	16.373787	-0.443201	-16.857679	-12.323229	-4.585526	-1.125309	0.053813	-0.926883	-0.825928	0.074219	0.404053	0.140425	0.163060	-0.005388	-0.161283	-0.600747	0.530602	-0.575806	-124.321571	-59.652971	-116.594722
43797		14.348120	13.950966	0.102758	-14.661876	-11.854974	-3.105594	-1.201633	0.317264	-1.614893	-0.825195	0.050049	0.406982	0.144602	0.138347	-0.000035	-0.170346	-0.603129	0.528927	-0.572235	-125.674527	-60.512745	-115.825881
43798		14.165604	11.990436	-0.582436	-13.270005	-10.301937	-1.904850	-1.106642	0.498659	-2.179075	-0.829102	0.034668	0.407227	0.142935	0.118316	-0.006837	-0.181237	-0.606469	0.525081	-0.568892	-127.240021	-61.685730	-114.766376
43799		11.673976	2.302943	-7.321054	-7.781345	0.172562	1.788672	-1.141255	0.442572	-2.522175	-0.841553	0.006104	0.407959	0.116852	0.021137	-0.073593	-0.192987	-0.610750	0.520227	-0.564893	-129.220665	-62.975372	-113.266251
43800		7.678762	-31.084818	-12.478220	19.237001	19.048746	11.353157	-0.851296	0.341842	-1.319183	-0.843506	-0.002686	0.408203	0.074521	-0.311872	-0.123585	-0.200208	-0.612382	0.518267	-0.562409	-130.378177	-63.681221	-112.519840
43801		7.894996	-38.836817	-8.186070	28.045457	18.390962	12.833741	0.313621	-0.244251	0.511845	-0.834717	-0.000488	0.408203	0.080044	-0.388035	-0.082372	-0.197146	-0.612065	0.519195	-0.562979	-130.033947	-63.364313	-112.701472
43802		14.082207	-14.771388	3.144756	11.773166	-2.591405	6.952128	1.378720	0.497975	-0.946182	-0.836914	-0.002441	0.412598	0.140197	-0.148589	0.030076	-0.196879	-0.614437	0.511958	-0.567102	-129.504560	-63.959573	-112.416872
43803		19.406347	4.995801	2.873309	-5.800798	-12.143143	5.309316	2.531838	0.421234	-3.086970	-0.838623	-0.017822	0.410889	0.194861	0.046589	0.028927	-0.198865	-0.623525	0.494780	-0.571719	-130.058367	-65.470879	-110.197999
43804		24.266348	12.071629	-4.774288	-15.743466	-10.782807	10.015673	2.371667	0.114124	-3.962552	-0.831055	-0.044189	0.411377	0.244972	0.116434	-0.046485	-0.203018	-0.635187	0.475435	-0.573832	-131.991989	-67.223820	-106.606795
43805		21.471100	7.321662	-0.379778	-8.420704	-10.938245	8.191676	0.951793	0.377215	-3.381146	-0.836914	-0.074951	0.407715	0.215901	0.069592	-0.003867	-0.210533	-0.643022	0.461511	-0.573765	-134.338984	-68.782553	-103.485615
43806		12.469705	1.628598	1.662283	-1.359859	-6.414683	1.045462	0.450905	0.273907	-2.982603	-0.831787	-0.094727	0.412842	0.124944	0.014387	0.016486	-0.218241	-0.649529	0.450296	-0.572465	-137.053396	-70.087119	-100.311634
43807		4.900512	0.044836	-3.120468	-1.997693	0.842281	-4.422576	1.327010	-0.430911	-2.813577	-0.824463	-0.112061	0.424316	0.049074	-0.000035	-0.031098	-0.220960	-0.658478	0.437777	-0.570907	-140.177177	-70.965394	-96.190047
43808		4.045896	1.295888	-4.563616	-3.739538	1.586801	-5.082776	2.078367	-1.098784	-2.698849	-0.819824	-0.122803	0.442139	0.040883	0.012881	-0.045278	-0.219368	-0.669729	0.424103	-0.568751	-143.708024	-71.421264	-91.201604
43809		6.610975	3.325468	-1.527708	-3.560358	-2.741484	-3.737919	1.598986	-0.592960	-2.428930	-0.814697	-0.142578	0.442871	0.066552	0.032568	-0.014818	-0.219612	-0.678259	0.412028	-0.567422	-146.831196	-71.932364	-86.944668
43810		9.952031	7.926632	0.029340	-6.129659	-7.547185	-1.606823	0.086248	-0.110237	-2.164633	-0.805420	-0.159912	0.447754	0.100370	0.078183	0.000382	-0.225206	-0.683108	0.404536	-0.564798	-150.191438	-72.524108	-83.363124
43811		13.485909	8.389005	-0.892673	-6.761059	-8.024420	2.142613	-1.587701	0.088610	-1.854070	-0.800049	-0.188721	0.435059	0.135624	0.082560	-0.009646	-0.236000	-0.684783	0.402559	-0.559752	-154.056472	-73.062915	-80.267392
43812		13.661736	5.372287	-1.295802	-4.414796	-5.826342	2.983382	-2.596388	0.353785	-1.392365	-0.803711	-0.210693	0.433350	0.136962	0.052594	-0.013888	-0.249465	-0.683482	0.404579	-0.554018	-157.706975	-73.572515	-78.007755
43813		12.442838	1.097252	-2.616986	-1.556490	-1.889329	2.712481	-2.908340	0.303480	-1.218875	-0.800781	-0.230469	0.425049	0.124451	0.009830	-0.026507	-0.263336	-0.681408	0.408044	-0.547575	-161.411463	-73.976424	-75.883092
43814		10.821616	-2.430332	-2.437685	1.577331	0.390422	1.426194	-2.403081	0.168774	-1.238749	-0.802246	-0.254639	0.421387	0.108041	-0.025264	-0.024168	-0.275228	-0.680274	0.410118	-0.541553	-165.091185	-74.272420	-73.486616
43815		9.179022	-2.456384	-4.024098	0.835306	2.201793	0.233869	-1.576551	0.064193	-1.205736	-0.792969	-0.270020	0.415039	0.091626	-0.025433	-0.040072	-0.283947	-0.680384	0.410181	-0.536846	-168.364251	-74.463911	-71.023842
43816		8.601173	-2.380960	-3.718599	1.013581	2.122963	-0.434987	-0.752454	0.034937	-1.212889	-0.790283	-0.283203	0.415527	0.085858	-0.024470	-0.037110	-0.289820	-0.681718	0.407992	-0.533673	-171.264573	-74.604867	-68.459679
43817		8.777491	-1.022588	-2.763597	0.433404	0.667236	-0.588082	-0.262050	-0.008251	-1.228337	-0.782959	-0.300537	0.420410	0.087711	-0.010801	-0.027618	-0.293942	-0.683867	0.404513	-0.531313	-173.954645	-74.687833	-65.823753
43818		10.049919	0.406273	-2.545865	-0.453694	-0.474285	0.541790	-0.116303	0.006184	-1.239512	-0.784912	-0.311768	0.416260	0.100521	0.003425	-0.025464	-0.297629	-0.686200	0.400546	-0.529253	-176.619013	-74.747497	-63.128433
43819		10.765469	-0.192116	-3.024922	0.025686	0.123685	1.370558	-0.194901	0.048866	-1.165690	-0.771240	-0.322510	0.412109	0.107634	-0.002578	-0.030273	-0.301449	-0.688118	0.396987	-0.527280	-179.173633	-74.797184	-60.594592
43820		10.928868	0.376467	-3.566976	-0.600830	0.325558	1.669336	-0.319761	0.121484	-1.061028	-0.773193	-0.331543	0.410156	0.109285	0.003128	-0.035741	-0.305577	-0.689435	0.393973	-0.525441	178.391378	-74.860346	-58.259811
43821		10.308696	0.668352	-2.757623	-0.450783	-0.287095	0.865969	-0.384018	0.140997	-0.984688	-0.770508	-0.344482	0.412598	0.103099	0.006123	-0.027661	-0.309735	-0.690422	0.391371	-0.523651	176.076628	-74.911089	-56.088023
43822		9.464915	0.530924	-3.207501	-0.584390	0.405970	0.169665	-0.414044	0.101246	-0.933296	-0.763428	-0.360107	0.401855	0.094656	0.004801	-0.032133	-0.313797	-0.691356	0.389055	-0.521722	173.836680	-74.919349	-54.012247
43823		9.369822	-0.156467	-3.368525	-0.001413	0.962865	0.098778	-0.343383	0.106240	-0.884165	-0.758545	-0.370850	0.400146	0.093672	-0.002037	-0.033732	-0.317467	-0.692267	0.386728	-0.520021	171.753786	-74.913573	-52.056783
43824		9.401049	-1.064108	-3.727508	0.691168	1.767311	0.177539	-0.280489	0.149522	-0.803646	-0.760254	-0.388672	0.393799	0.093939	-0.011071	-0.037330	-0.320818	-0.692998	0.384427	-0.518696	169.848170	-74.922009	-50.249739
