// General information: 
//  MT Manager version: 2019.2.0 
//  XDA version: 2019.2.0 build 3853 rev 94535 built on 2019-09-09
// Device information: 
//  DeviceId: 00B40A40
//  ProductCode: MTW2-3A7G6
//  Firmware Version: 4.4.0
//  Hardware Version: 1.1.0
// Device settings: 
//  Filter Profile: human(46.1)
//  Option Flags: Orientation Smoother Disabled, AHS Disabled, ICC Disabled
// Coordinate system: ENU
PacketCounter	SampleTimeFine	Acc_X	Acc_Y	Acc_Z	FreeAcc_E	FreeAcc_N	FreeAcc_U	Gyr_X	Gyr_Y	Gyr_Z	Mag_X	Mag_Y	Mag_Z	VelInc_X	VelInc_Y	VelInc_Z	Quat_q0	Quat_q1	Quat_q2	Quat_q3	Roll	Pitch	Yaw
18279		9.584095	4.281906	-2.505905	0.862691	-2.769622	0.582169	-0.661778	-1.320660	-0.230255	-0.902100	0.071533	0.564453	0.096053	0.042627	-0.024567	0.108968	-0.733447	-0.243083	-0.625373	143.388142	-76.008901	65.662095
18280		10.066466	3.568072	-2.920044	0.268088	-2.158679	1.043596	-1.383521	-1.352221	0.034414	-0.890869	0.071777	0.568848	0.100854	0.035498	-0.028765	0.102366	-0.738491	-0.239343	-0.621987	144.481533	-75.389801	63.716889
18281		9.994305	2.252293	-3.476902	-0.808798	-1.218832	0.906815	-1.901885	-0.949763	0.324750	-0.885498	0.049805	0.579102	0.100071	0.022356	-0.034507	0.095216	-0.742806	-0.232664	-0.620517	145.182703	-75.050512	61.863033
18282		9.624832	0.859929	-3.667457	-1.642032	-0.123500	0.391013	-1.694802	-0.407367	0.420971	-0.885742	0.056396	0.585449	0.096305	0.008492	-0.036551	0.089763	-0.745390	-0.226012	-0.620689	145.481510	-74.991192	60.549683
18283		9.212928	-0.102181	-3.296058	-1.794196	0.802618	-0.226805	-0.978493	0.089610	0.279793	-0.885498	0.049805	0.583740	0.092116	-0.001054	-0.032997	0.087094	-0.745897	-0.221851	-0.621960	145.332295	-75.123124	60.122329
18284		8.688290	-0.375802	-2.295842	-1.110494	1.326277	-0.986239	-0.284310	0.405713	0.107179	-0.885498	0.049805	0.576904	0.086838	-0.003744	-0.023129	0.086830	-0.744929	-0.220375	-0.623679	144.888791	-75.344408	60.413691
18285		8.139623	0.306579	-1.411946	-0.128038	0.940930	-1.600553	-0.027564	0.513924	-0.066855	-0.887451	0.042969	0.577393	0.081361	0.003037	-0.014329	0.087097	-0.743303	-0.220276	-0.625614	144.121888	-75.560844	61.188422
18286		8.223247	1.248179	-0.946117	0.674862	0.302180	-1.474339	-0.000638	0.350303	-0.082134	-0.892334	0.051758	0.579102	0.082221	0.012448	-0.009605	0.087238	-0.742169	-0.220411	-0.626892	143.545126	-75.690777	61.784614
18287		8.325348	1.912502	-0.671360	1.205497	-0.156762	-1.330824	-0.242168	0.003846	-0.019887	-0.889648	0.042969	0.579590	0.083255	0.019109	-0.006738	0.086292	-0.742281	-0.219685	-0.627145	143.393817	-75.684773	61.796135
18288		8.211085	2.179076	-0.860892	1.147704	-0.490778	-1.365599	-0.599294	-0.431821	0.086784	-0.878418	0.043213	0.583984	0.082120	0.021801	-0.008497	0.083880	-0.744038	-0.217653	-0.626098	143.812035	-75.510827	61.011007
18289		8.037581	2.026631	-1.224635	0.768285	-0.527360	-1.485555	-0.837547	-0.755190	0.197834	-0.878418	0.041016	0.588623	0.080401	0.020295	-0.012028	0.080570	-0.746997	-0.214568	-0.624071	144.680464	-75.224783	59.615915
18290		8.197469	1.593684	-1.633568	0.291859	-0.246479	-1.312064	-0.951817	-0.942262	0.263905	-0.873535	0.034424	0.600342	0.082030	0.015968	-0.016025	0.076840	-0.750639	-0.210971	-0.621392	145.784932	-74.862941	57.909432
18291		8.650539	1.183863	-2.013022	-0.086693	0.101380	-0.853487	-0.900279	-1.028020	0.313864	-0.866699	0.028076	0.609619	0.086589	0.011885	-0.019739	0.073361	-0.754531	-0.207345	-0.618311	147.030285	-74.470411	56.081752
18292		9.079545	1.054667	-2.393667	-0.335253	0.199339	-0.371963	-0.665317	-1.038520	0.293895	-0.859863	0.030273	0.616211	0.090903	0.010602	-0.023500	0.070697	-0.758328	-0.204540	-0.614902	148.313149	-74.052733	54.354068
18293		9.470491	0.985019	-2.494916	-0.302745	0.336605	0.019882	-0.311137	-0.957765	0.262395	-0.851318	0.037354	0.624756	0.094810	0.009936	-0.024511	0.069354	-0.761680	-0.202881	-0.611451	149.582477	-73.658453	52.845458
18294		9.634371	1.204678	-2.411056	-0.031232	0.217497	0.189155	-0.037409	-0.689050	0.223288	-0.851074	0.035156	0.633789	0.096412	0.012150	-0.023781	0.069210	-0.764073	-0.202137	-0.608722	150.628731	-73.374711	51.733197
18295		9.825845	1.581696	-2.090157	0.494873	0.030876	0.344664	0.115874	-0.297544	0.178908	-0.848877	0.032959	0.629395	0.098275	0.015917	-0.020746	0.069909	-0.765157	-0.201867	-0.607369	151.294791	-73.273561	51.105905
18296		9.798854	1.926324	-1.634062	1.056242	-0.141054	0.250257	0.089268	0.097239	0.166204	-0.849121	0.039551	0.628906	0.097965	0.019352	-0.016380	0.070869	-0.765050	-0.201451	-0.607531	151.563207	-73.362628	50.880272
18297		9.568931	2.136379	-1.217597	1.458778	-0.260974	-0.044637	0.023896	0.399013	0.156672	-0.849121	0.041748	0.628906	0.095648	0.021440	-0.012364	0.071850	-0.764024	-0.200741	-0.608940	151.499508	-73.604491	50.959628
18298		9.313130	2.139403	-0.907666	1.661251	-0.240796	-0.361902	-0.029391	0.511779	0.160787	-0.856201	0.050537	0.623779	0.093090	0.021468	-0.009318	0.072756	-0.762687	-0.199835	-0.610804	151.306461	-73.900640	51.144344
18299		8.908532	2.060918	-0.692711	1.720908	-0.210935	-0.808076	-0.110648	0.393088	0.169261	-0.853760	0.041748	0.624512	0.089054	0.020681	-0.007114	0.073257	-0.761732	-0.198668	-0.612314	151.186581	-74.142918	51.201909
18300		8.601955	2.121321	-0.801806	1.574291	-0.391873	-1.066000	-0.125427	0.168526	0.127495	-0.862793	0.043701	0.617676	0.085999	0.021263	-0.008104	0.073353	-0.761440	-0.197720	-0.612972	151.205234	-74.257352	51.109014
18301		8.751157	2.211255	-0.919677	1.527640	-0.495717	-0.883031	-0.095942	-0.098987	0.113917	-0.851563	0.043945	0.624268	0.087503	0.022158	-0.009164	0.073250	-0.761929	-0.196987	-0.612613	151.474434	-74.237036	50.770753
18302		8.941779	2.179872	-1.209640	1.303733	-0.532982	-0.637359	-0.217168	-0.299007	0.134565	-0.853516	0.039551	0.626709	0.089421	0.021846	-0.011986	0.072556	-0.763107	-0.195902	-0.611576	151.904717	-74.117331	50.195373
18303		8.825412	2.041036	-1.635696	0.867491	-0.581068	-0.667251	-0.342255	-0.302988	0.158941	-0.853760	0.041748	0.626709	0.088263	0.020453	-0.016258	0.071450	-0.764350	-0.194316	-0.610660	152.298883	-74.004526	49.579906
18304		8.875882	1.977195	-2.048200	0.494291	-0.657451	-0.527800	-0.300341	-0.129135	0.141925	-0.849121	0.041748	0.631104	0.088758	0.019804	-0.020454	0.070625	-0.765039	-0.192885	-0.610346	152.525269	-73.971070	49.166530
18305		9.139702	2.039609	-2.259278	0.373979	-0.740121	-0.215249	-0.152424	0.107292	0.107867	-0.849365	0.048584	0.626221	0.091374	0.020428	-0.022657	0.070486	-0.764907	-0.191928	-0.610830	152.554219	-74.052115	49.044070
18306		9.343134	2.123760	-2.274409	0.412368	-0.795320	-0.005814	-0.064364	0.305109	0.092826	-0.849121	0.039551	0.624512	0.093387	0.021274	-0.022893	0.070832	-0.764137	-0.191252	-0.611964	152.427343	-74.226182	49.138805
18307		9.623747	2.300546	-2.265412	0.506782	-0.919266	0.283800	0.001454	0.442976	0.095691	-0.853760	0.046143	0.624023	0.096176	0.023052	-0.022867	0.071566	-0.762908	-0.190693	-0.613584	152.204915	-74.474428	49.369290
18308		9.769676	2.414788	-2.099813	0.689705	-0.965493	0.399017	0.090304	0.486121	0.112310	-0.858154	0.043701	0.619873	0.097632	0.024212	-0.021225	0.072734	-0.761541	-0.190350	-0.615250	152.019157	-74.745210	49.616794
18309		9.844337	2.445293	-1.964048	0.801856	-0.961844	0.443025	0.177841	0.468764	0.103170	-0.862793	0.045898	0.615234	0.098384	0.024521	-0.019849	0.074186	-0.760167	-0.190294	-0.616791	151.871667	-75.008022	49.873684
18310		9.977100	2.724797	-1.878016	0.980808	-1.188714	0.585335	0.335091	0.396006	0.064059	-0.863281	0.054932	0.607910	0.099725	0.027312	-0.018932	0.076050	-0.758932	-0.190920	-0.617890	151.812859	-75.219923	50.134367
18311		10.055228	2.889747	-1.651627	1.246462	-1.267782	0.628823	0.509679	0.308224	0.063647	-0.867920	0.059082	0.605469	0.100518	0.028972	-0.016597	0.078485	-0.757880	-0.192096	-0.618512	151.935401	-75.390876	50.308256
18312		10.327246	2.932956	-1.365774	1.560835	-1.171700	0.832051	0.485974	0.234430	0.070740	-0.858887	0.057129	0.603271	0.103246	0.029399	-0.013707	0.080787	-0.757082	-0.193222	-0.618843	152.139978	-75.523031	50.385737
18313		11.382824	2.895905	-1.360864	1.719674	-0.950426	1.846913	0.356293	0.110627	0.102047	-0.863525	0.063721	0.605225	0.113806	0.029041	-0.013620	0.082569	-0.756729	-0.193857	-0.618840	152.455968	-75.604272	50.268942
18314		13.212998	2.636048	-1.468273	1.828696	-0.417057	3.610045	0.163531	-0.139862	0.141993	-0.868164	0.068115	0.607178	0.132121	0.026466	-0.014569	0.083507	-0.757283	-0.193867	-0.618032	153.004759	-75.564738	49.800221
18315		14.816105	1.971510	-1.639415	1.715576	0.419154	5.119568	-0.116984	-0.384915	0.242777	-0.863770	0.068115	0.607178	0.148168	0.019885	-0.016121	0.083452	-0.758791	-0.192710	-0.616551	153.824805	-75.427573	48.882675
18316		13.947431	0.677551	-1.607355	1.130395	1.417878	4.125933	-0.354858	0.013807	0.378580	-0.863770	0.065918	0.602783	0.139460	0.007011	-0.016095	0.083302	-0.759310	-0.190158	-0.616724	154.391539	-75.523649	48.088370
18317		11.317258	0.073037	-1.293553	0.694910	1.533337	1.453346	-0.252219	1.110576	0.295520	-0.872803	0.070068	0.591309	0.113097	0.000881	-0.013565	0.084321	-0.756294	-0.187756	-0.621013	153.772935	-76.167874	48.576011
18318		10.323596	0.646950	-0.935891	0.962389	0.887477	0.490472	0.274896	1.569680	0.040635	-0.879883	0.076660	0.582031	0.103157	0.006504	-0.010160	0.086974	-0.751370	-0.187773	-0.626594	152.343713	-76.974630	50.208458
18319		10.651392	1.489711	-0.786670	1.370835	0.184303	0.882017	0.648510	0.730761	-0.111158	-0.884277	0.076416	0.577637	0.106493	0.014864	-0.008208	0.089760	-0.748720	-0.189866	-0.628739	151.635236	-77.312682	51.315178
18320		10.890522	1.602214	-1.120628	1.160504	0.004380	1.190892	0.702726	-0.791546	-0.017526	-0.877930	0.083496	0.583740	0.108950	0.016051	-0.010719	0.091600	-0.750918	-0.192479	-0.625047	152.954942	-76.900952	50.375556
18321		11.858221	0.879179	-1.818069	0.551676	0.629209	2.186872	0.209611	-2.227071	0.102444	-0.851074	0.083984	0.612793	0.118770	0.008871	-0.016850	0.090570	-0.757868	-0.193722	-0.616364	155.597207	-75.774517	47.778912
18322		13.274908	-0.133639	-3.593708	-0.900054	1.268281	3.851953	-0.549984	-3.051698	0.201613	-0.837402	0.080078	0.635498	0.133278	-0.001297	-0.033902	0.086156	-0.767677	-0.192606	-0.605106	158.262254	-74.204445	44.694952
18323		14.237615	-1.196324	-6.240380	-3.121772	1.625797	5.375435	-0.739522	-2.709741	0.285425	-0.817139	0.080566	0.646484	0.143221	-0.011985	-0.060423	0.081572	-0.776430	-0.190382	-0.595194	160.235082	-72.806888	42.194287
18324		12.937744	-2.294257	-7.488288	-4.687433	2.032319	4.421748	0.079818	-0.936564	0.235210	-0.814941	0.082764	0.646484	0.129753	-0.022760	-0.074285	0.081705	-0.779450	-0.190069	-0.591317	161.272447	-72.338077	41.156143
18325		9.410360	-2.156037	-5.595764	-3.745767	1.823488	0.539010	1.026393	1.309863	-0.080522	-0.824463	0.095947	0.636719	0.093725	-0.021308	-0.056682	0.086725	-0.775087	-0.192838	-0.595426	160.962077	-73.030862	42.096460
18326		6.947967	-1.015248	-3.387561	-2.007136	0.988299	-2.344680	1.564511	2.620311	-0.231782	-0.844971	0.099854	0.611816	0.069016	-0.009963	-0.034860	0.094630	-0.766345	-0.197219	-0.604041	159.726527	-74.393729	44.318605
18327		5.933332	-0.276603	-1.915371	-0.749663	0.579729	-3.644318	1.927620	2.775777	-0.137843	-0.865967	0.119385	0.586182	0.059058	-0.002617	-0.020000	0.104346	-0.756835	-0.202191	-0.612724	158.441375	-75.849847	46.790806
18328		6.004969	0.043263	-1.220044	-0.110129	0.496644	-3.706153	2.077988	2.164013	-0.028381	-0.877441	0.127930	0.569824	0.059913	0.000555	-0.012844	0.114313	-0.749060	-0.207498	-0.618697	157.682491	-76.987762	48.797469
18329		6.382182	0.171883	-0.933701	0.180732	0.505202	-3.382652	2.038776	0.994025	0.038137	-0.877930	0.139160	0.566895	0.063774	0.001828	-0.009636	0.123122	-0.744840	-0.213046	-0.620214	158.022076	-77.522813	49.647482
18330		6.202731	0.132251	-0.901109	0.157519	0.498156	-3.565261	1.711608	-0.275282	0.047005	-0.882813	0.145752	0.573242	0.062039	0.001414	-0.008914	0.129359	-0.744714	-0.218328	-0.617252	159.405460	-77.379279	49.236081
18331		6.281627	0.060084	-1.390504	-0.236584	0.354466	-3.392889	1.176104	-1.179933	0.053201	-0.869873	0.157227	0.581543	0.062897	0.000698	-0.013530	0.132625	-0.747667	-0.222482	-0.611479	161.225405	-76.749795	48.059511
18332		6.881229	-0.238742	-2.307457	-0.986331	0.314933	-2.625226	0.587122	-1.534561	0.043122	-0.858887	0.161865	0.594727	0.068987	-0.002306	-0.022553	0.133253	-0.752044	-0.225114	-0.604977	162.803409	-75.914359	46.782926
18333		7.679703	-0.484637	-3.535674	-1.920447	0.131613	-1.566034	0.194453	-1.277206	0.026281	-0.843018	0.164551	0.594482	0.077021	-0.004802	-0.034870	0.132639	-0.755835	-0.226416	-0.599881	163.815137	-75.213687	45.852787
18334		8.115664	-0.524275	-4.512814	-2.622722	-0.186916	-0.891330	0.245363	-0.437456	-0.011388	-0.843506	0.171143	0.600830	0.081255	-0.005192	-0.044957	0.133050	-0.757020	-0.227472	-0.597892	164.216592	-74.963967	45.583996
18335		8.250141	-0.446059	-4.658356	-2.683595	-0.318749	-0.720911	0.605767	0.663804	-0.084773	-0.852539	0.173096	0.584961	0.082344	-0.004354	-0.046870	0.135867	-0.754569	-0.229126	-0.599723	164.024054	-75.313045	46.142602
18336		7.979922	-0.157147	-3.922576	-2.036523	-0.333399	-1.162241	0.882647	1.548943	-0.168207	-0.866211	0.177246	0.573730	0.079491	-0.001463	-0.039849	0.140475	-0.749153	-0.231334	-0.604583	163.209332	-76.130434	47.506272
18337		7.290094	0.468048	-3.113744	-1.254023	-0.681766	-2.001109	1.034374	1.911422	-0.259613	-0.870605	0.177002	0.560059	0.072605	0.004749	-0.031808	0.145795	-0.742337	-0.234046	-0.610658	161.851881	-77.128591	49.511360
18338		6.285207	0.922448	-2.458637	-0.709768	-0.985539	-3.110182	1.203799	1.780505	-0.310524	-0.886963	0.189941	0.541504	0.062645	0.009277	-0.025089	0.151403	-0.735669	-0.237552	-0.615986	160.307235	-78.029476	51.800376
18339		5.945633	0.802098	-1.663554	-0.224083	-0.584530	-3.618415	1.206932	1.305778	-0.265250	-0.882324	0.187744	0.528076	0.059357	0.008044	-0.016975	0.156596	-0.730427	-0.241216	-0.619491	159.084161	-78.676003	53.755669
18340		5.810480	0.463090	-1.237838	-0.114221	-0.127571	-3.856266	0.794939	0.639198	-0.222390	-0.893799	0.194336	0.530029	0.058070	0.004616	-0.012546	0.159592	-0.727600	-0.243978	-0.620970	158.302361	-78.964577	55.018016
18341		6.119165	0.383099	-1.431269	-0.297140	-0.120163	-3.524862	0.320093	-0.096162	-0.170804	-0.891846	0.198730	0.529785	0.061202	0.003802	-0.014277	0.160129	-0.727478	-0.245640	-0.620319	158.165883	-78.873864	55.344079
18342		6.691941	0.584033	-2.172348	-0.709083	-0.571471	-2.811786	0.175735	-0.785309	-0.136339	-0.885010	0.198975	0.541016	0.067008	0.005814	-0.021455	0.159391	-0.729653	-0.247298	-0.617288	158.763589	-78.420330	54.838301
18343		7.461173	0.848097	-2.973950	-1.067787	-1.050368	-1.876159	0.407607	-1.200633	-0.113962	-0.875977	0.194824	0.552490	0.074793	0.008498	-0.029274	0.159063	-0.732926	-0.249894	-0.612430	159.898857	-77.749848	53.917228
18344		8.007779	1.070945	-3.360337	-1.096689	-1.295730	-1.228951	0.700315	-1.250068	-0.092313	-0.871826	0.203857	0.558594	0.080291	0.010789	-0.033064	0.159792	-0.736116	-0.253355	-0.606969	161.176339	-77.050329	53.020555
18345		8.437625	1.118435	-3.464547	-0.999028	-1.268279	-0.766137	0.732955	-0.983863	-0.066866	-0.864746	0.199463	0.558838	0.084549	0.011282	-0.034189	0.161055	-0.738466	-0.256577	-0.602410	162.227922	-76.498550	52.371722
18346		8.574150	1.104824	-3.353905	-0.823606	-1.142012	-0.647397	0.549780	-0.553878	-0.008507	-0.863037	0.208496	0.564941	0.085834	0.011136	-0.033271	0.162358	-0.739728	-0.258699	-0.599598	162.942926	-76.187480	51.961246
18347		8.449879	0.917575	-3.072920	-0.682382	-0.850916	-0.840760	0.380843	-0.175869	0.068992	-0.860596	0.206299	0.569580	0.084523	0.009263	-0.030637	0.163760	-0.740075	-0.259701	-0.598354	163.460025	-76.098577	51.653339
18348		8.074601	0.639382	-2.574161	-0.480416	-0.428187	-1.338012	0.302051	0.002594	0.124099	-0.865479	0.212891	0.566895	0.080742	0.006483	-0.025733	0.165263	-0.740032	-0.260133	-0.597805	163.934516	-76.113030	51.343989
18349		7.766622	0.404960	-2.149275	-0.309740	-0.071499	-1.750261	0.279906	-0.063031	0.126929	-0.863037	0.212891	0.564697	0.077670	0.004129	-0.021463	0.166607	-0.740196	-0.260526	-0.597058	164.443463	-76.093870	50.984584
18350		7.828729	0.459310	-1.799757	0.034980	0.090051	-1.767213	0.285895	-0.369080	0.110359	-0.863525	0.219727	0.573242	0.078318	0.004662	-0.017846	0.167523	-0.741253	-0.261268	-0.595162	165.101122	-75.899380	50.476771
18351		8.277829	0.512445	-1.711166	0.254787	0.200313	-1.350555	0.203363	-0.804890	0.086939	-0.856689	0.221924	0.570801	0.082844	0.005178	-0.016773	0.167495	-0.743626	-0.262197	-0.591792	165.883511	-75.461213	49.789298
18352		8.874908	0.602809	-2.018842	0.239038	0.114414	-0.695018	0.051051	-1.178688	0.073431	-0.852051	0.215576	0.584717	0.088864	0.006066	-0.019663	0.166363	-0.747206	-0.263049	-0.587207	166.694081	-74.807858	48.982106
18353		9.514300	0.595224	-2.412346	0.133643	0.091788	0.019298	-0.101215	-1.313953	0.074770	-0.843262	0.218018	0.597900	0.095297	0.005976	-0.023501	0.164484	-0.751268	-0.263534	-0.582315	167.413087	-74.079681	48.175322
18354		10.279327	0.629629	-2.795313	0.097871	0.080007	0.857716	-0.236447	-1.185280	0.085441	-0.836426	0.215820	0.604736	0.102954	0.006308	-0.027351	0.162290	-0.755063	-0.263484	-0.578029	167.960144	-73.419250	47.465575
18355		11.067192	0.557010	-3.097960	0.058948	0.199239	1.691507	-0.205901	-0.801358	0.078630	-0.829590	0.216064	0.609375	0.110793	0.005582	-0.030542	0.160691	-0.757682	-0.263214	-0.575165	168.319456	-72.974845	46.966519
18356		11.762394	0.391005	-2.938045	0.280550	0.602516	2.299170	-0.066012	-0.260111	0.063988	-0.829346	0.211670	0.609619	0.117661	0.003938	-0.029229	0.160292	-0.758618	-0.262980	-0.574149	168.515863	-72.828767	46.722642
18357		12.336192	0.196578	-2.304111	0.785006	1.225048	2.653753	0.048655	0.266737	0.010496	-0.838623	0.215820	0.607178	0.123331	0.001978	-0.023205	0.160866	-0.757863	-0.262839	-0.575049	168.481688	-72.975651	46.787110
18358		12.936313	0.202162	-1.415793	1.558557	1.798639	2.982961	0.072074	0.714124	-0.036873	-0.843018	0.213623	0.598145	0.129312	0.002003	-0.014619	0.161980	-0.755749	-0.262600	-0.577622	168.201792	-73.364673	47.123854
18359		13.600126	0.323623	-0.223508	2.605316	2.432385	3.317901	-0.039631	1.009841	-0.039971	-0.849609	0.211182	0.593994	0.135988	0.003209	-0.002922	0.163050	-0.752837	-0.261790	-0.581479	167.709797	-73.922271	47.612666
18360		14.289848	0.554620	1.128042	3.803033	3.034754	3.681878	-0.382267	1.463539	0.022636	-0.856689	0.217529	0.577881	0.142975	0.005583	0.010224	0.163598	-0.748953	-0.259383	-0.587389	166.901562	-74.735855	48.225779
18361		13.901403	0.346401	1.252458	3.539970	3.061847	3.341245	-0.575259	1.809537	0.067406	-0.872070	0.208252	0.567383	0.139119	0.003544	0.011256	0.163993	-0.744197	-0.255923	-0.594795	165.806977	-75.749353	49.016549
18362		12.683821	-0.347772	1.079820	2.642036	3.179912	2.231863	-0.332086	1.471431	0.040006	-0.876465	0.208252	0.556152	0.126914	-0.003435	0.009870	0.164765	-0.740175	-0.253563	-0.600582	164.867184	-76.563669	49.789633
18363		12.125659	-0.466313	1.060807	2.371706	3.096714	1.726776	-0.159494	0.655209	-0.088605	-0.874023	0.203857	0.551758	0.121288	-0.004709	0.010215	0.164750	-0.738255	-0.252844	-0.603246	164.166205	-76.909130	50.415371
18364		12.200973	0.215452	0.895117	2.600865	2.449819	1.889674	-0.211497	0.027845	-0.145070	-0.882813	0.199219	0.554443	0.122012	0.002075	0.008932	0.163578	-0.738214	-0.252709	-0.603672	163.711519	-76.894506	50.758946
18365		12.308464	0.722373	0.424683	2.522019	1.807293	2.127730	-0.530295	-0.106753	-0.079736	-0.880371	0.197021	0.554443	0.123085	0.007186	0.004293	0.161253	-0.738902	-0.251461	-0.603978	163.317785	-76.819915	50.850203
18366		11.718830	0.506946	-0.421960	1.624443	1.424004	1.724184	-0.971236	0.091411	0.008146	-0.882324	0.187988	0.557373	0.117186	0.005053	-0.004298	0.157813	-0.739462	-0.248411	-0.605460	162.744110	-76.864515	50.869025
18367		10.793267	-0.019714	-1.125199	0.595492	1.309855	0.943267	-1.196339	0.411594	0.022630	-0.879639	0.176758	0.551270	0.107909	-0.000253	-0.011473	0.153974	-0.739208	-0.244346	-0.608407	161.825188	-77.090452	51.107442
18368		9.685028	-0.410124	-1.273670	0.048924	1.346257	-0.128940	-1.289202	0.774498	-0.031376	-0.885986	0.169922	0.544922	0.096799	-0.004200	-0.013085	0.150067	-0.737838	-0.239927	-0.612789	160.405178	-77.497872	51.807047
18369		9.189700	-0.333305	-1.322007	-0.094252	1.153997	-0.594872	-1.281892	0.934968	-0.188471	-0.899170	0.163086	0.541016	0.091831	-0.003506	-0.013627	0.145882	-0.735718	-0.235954	-0.617870	158.362365	-77.959023	53.144299
18370		9.786927	0.206800	-1.667388	-0.106548	0.624707	0.097143	-1.158003	0.540502	-0.398803	-0.901123	0.154053	0.539307	0.097827	0.001775	-0.016949	0.141037	-0.734459	-0.233434	-0.621439	156.172138	-78.150203	54.705977
18371		10.786014	1.058712	-1.963832	0.153697	-0.034226	1.200501	-1.017887	-0.267410	-0.487574	-0.902832	0.140625	0.549072	0.107912	0.010224	-0.019547	0.135478	-0.735458	-0.232214	-0.621952	154.716953	-77.893185	55.595908
18372		10.843598	1.780490	-1.930093	0.567371	-0.547316	1.316413	-1.001257	-0.821044	-0.303049	-0.897949	0.131836	0.560791	0.108541	0.017545	-0.018944	0.129910	-0.738375	-0.230755	-0.620225	154.385514	-77.387979	55.349077
18373		8.960491	2.085878	-1.704897	0.701354	-0.986616	-0.534617	-0.968430	-0.392432	-0.033785	-0.897705	0.125244	0.556641	0.089642	0.020761	-0.016974	0.125778	-0.740207	-0.228094	-0.619876	154.209828	-77.174827	54.958322
18374		7.155871	1.838948	-1.197440	0.763323	-0.861099	-2.416901	-0.736189	0.590709	0.023063	-0.902100	0.125000	0.552246	0.071521	0.018353	-0.012253	0.123810	-0.738910	-0.225341	-0.622819	153.208815	-77.478418	55.553148
18375		6.347736	1.449058	-0.891800	0.676861	-0.549535	-3.298994	-0.638352	1.046509	-0.091624	-0.901855	0.118408	0.541504	0.063436	0.014432	-0.009296	0.122350	-0.735961	-0.223006	-0.627424	151.372279	-77.983623	57.056700
18376		6.555859	1.698938	-1.087380	0.584132	-0.837002	-3.029919	-0.587407	0.748130	-0.274769	-0.910645	0.111572	0.541748	0.065540	0.016867	-0.011169	0.120174	-0.733712	-0.221702	-0.630931	149.415751	-78.273300	58.713216
18377		7.518964	2.494427	-1.704702	0.482883	-1.634210	-1.890627	-0.472141	-0.029285	-0.383900	-0.905518	0.100586	0.555908	0.075240	0.024760	-0.017095	0.117204	-0.733693	-0.221603	-0.631546	148.312436	-78.143943	59.562271
18378		8.418489	3.326459	-2.400600	0.365441	-2.469073	-0.786679	-0.403637	-0.788726	-0.376673	-0.896484	0.098389	0.558350	0.084341	0.033058	-0.023740	0.113673	-0.736047	-0.222158	-0.629252	148.369225	-77.641036	59.268818
18379		8.946534	3.863444	-3.138689	0.074129	-3.098700	-0.055141	-0.531898	-1.147393	-0.270949	-0.893799	0.089600	0.567871	0.089696	0.038430	-0.030975	0.109585	-0.739686	-0.222093	-0.625724	149.021139	-76.996114	58.285908
18380		9.673084	3.742385	-3.650521	-0.296098	-3.000888	0.761180	-0.991663	-1.008737	-0.099621	-0.887207	0.089844	0.579102	0.096933	0.037196	-0.036201	0.104497	-0.743309	-0.219893	-0.623073	149.531973	-76.464983	57.178464
18381		10.246728	2.704206	-4.023853	-1.011688	-2.068003	1.286823	-1.580590	-0.550597	0.102828	-0.884521	0.078857	0.581787	0.102564	0.026777	-0.040169	0.098338	-0.745977	-0.214831	-0.622652	149.520037	-76.220713	56.256975
18382		10.289140	1.337507	-4.390377	-1.961239	-0.951369	1.240770	-1.762342	0.001235	0.253436	-0.891113	0.074219	0.575439	0.102874	0.013118	-0.044021	0.092566	-0.747135	-0.208376	-0.624340	149.052948	-76.290379	55.699482
18383		9.836017	0.037589	-4.154204	-2.412226	0.240611	0.585826	-1.381181	0.409283	0.265911	-0.886230	0.065430	0.580566	0.098275	0.000219	-0.041745	0.088671	-0.746790	-0.202841	-0.627134	148.322929	-76.568347	55.635202
18384		9.168560	-0.734043	-3.515194	-2.292181	1.056138	-0.294906	-0.786316	0.549759	0.150904	-0.892822	0.062988	0.580566	0.091594	-0.007410	-0.035375	0.086780	-0.745612	-0.199551	-0.629850	147.509281	-76.876240	56.009455
18385		8.578412	-0.690696	-2.710258	-1.661875	1.202611	-1.026135	-0.163735	0.421955	-0.008530	-0.895020	0.060791	0.573975	0.085726	-0.006933	-0.027278	0.086574	-0.744384	-0.198847	-0.631551	146.861839	-77.074900	56.576432
18386		8.058403	0.318382	-2.067037	-0.754439	0.432957	-1.532879	0.333851	0.076950	-0.185896	-0.892822	0.062988	0.576172	0.080579	0.003143	-0.020696	0.087322	-0.743864	-0.200545	-0.631524	146.597017	-77.048586	57.045576
18387		8.100121	1.202432	-1.488433	0.147797	-0.122754	-1.491858	0.659504	-0.363331	-0.229711	-0.888184	0.062988	0.578369	0.081042	0.011980	-0.014698	0.088697	-0.744528	-0.203602	-0.629569	147.022308	-76.800547	56.995689
18388		8.514175	1.665338	-0.896932	0.970397	-0.201980	-1.147459	0.350621	-0.713483	-0.123192	-0.876953	0.061035	0.589600	0.085183	0.016616	-0.008636	0.088903	-0.746540	-0.205464	-0.626545	147.931600	-76.413053	56.268650
18389		8.787527	2.153851	-0.901294	1.266259	-0.556829	-0.826132	-0.336277	-0.851543	-0.024622	-0.874512	0.056641	0.596680	0.087915	0.021513	-0.008675	0.086703	-0.749367	-0.204842	-0.623676	148.761775	-75.988027	55.213936
18390		8.764994	1.868966	-0.867259	1.231641	-0.269789	-0.897513	-0.727492	-0.728840	0.181936	-0.872314	0.054688	0.603516	0.087664	0.018738	-0.008421	0.083812	-0.752183	-0.202190	-0.621542	149.580156	-75.677752	53.941157
18391		8.952547	0.954770	-0.689558	1.095017	0.666930	-0.874504	-1.019760	-0.596091	0.273262	-0.867920	0.056885	0.614502	0.089532	0.009636	-0.006678	0.080229	-0.754767	-0.198200	-0.620166	150.214920	-75.458339	52.680728
18392		9.139850	0.331935	-1.002133	0.641498	1.157483	-0.707753	-0.963794	-0.536830	0.274826	-0.865234	0.048096	0.617432	0.091420	0.003397	-0.009792	0.076927	-0.757131	-0.194371	-0.618914	150.798375	-75.262856	51.508122
18393		9.327278	0.280103	-1.248760	0.481256	1.161477	-0.482358	-0.502376	-0.631594	0.178810	-0.858398	0.048340	0.624023	0.093309	0.002854	-0.012200	0.074974	-0.759487	-0.192341	-0.616898	151.532851	-74.992803	50.448952
18394		9.575267	0.827666	-1.402125	0.659038	0.673193	-0.145798	0.056283	-0.759274	0.057974	-0.858643	0.050537	0.628418	0.095803	0.008308	-0.013655	0.074652	-0.761910	-0.192561	-0.613873	152.454843	-74.618823	49.528154
18395		9.775627	1.280372	-1.261930	1.071601	0.371087	0.061930	0.387184	-0.803752	0.030901	-0.849609	0.052979	0.635010	0.097804	0.012843	-0.012201	0.075459	-0.764294	-0.193889	-0.610383	153.508685	-74.214185	48.663011
18396		9.811563	1.446953	-1.111064	1.349906	0.300002	0.070751	0.219439	-0.584505	0.032286	-0.852051	0.052979	0.637207	0.098145	0.014497	-0.010808	0.075845	-0.766074	-0.194638	-0.607860	154.236667	-73.915923	48.037867
18397		9.717897	1.802845	-1.173184	1.452280	-0.058118	0.033714	0.052900	-0.117982	0.050064	-0.847412	0.055176	0.639160	0.097181	0.018056	-0.011670	0.076096	-0.766500	-0.194612	-0.607300	154.481614	-73.865005	47.813072
18398		9.673758	1.911528	-1.046950	1.596892	-0.129924	-0.026747	-0.003888	0.283565	0.054929	-0.852051	0.057373	0.634766	0.096717	0.019142	-0.010607	0.076540	-0.765744	-0.194265	-0.608308	154.361456	-74.019342	47.936964
18399		9.316198	1.959041	-0.856707	1.692451	-0.196114	-0.407352	-0.065908	0.417526	0.035226	-0.858643	0.054932	0.632568	0.093140	0.019604	-0.008768	0.076812	-0.764570	-0.193729	-0.609920	154.045460	-74.241229	48.224905
18400		8.897775	1.976608	-0.780252	1.663197	-0.283862	-0.821619	-0.101792	0.293597	0.005429	-0.849854	0.057373	0.630127	0.088966	0.019764	-0.007943	0.076739	-0.763769	-0.193268	-0.611077	153.761559	-74.387935	48.460380
18401		8.554740	2.008239	-0.817076	1.564355	-0.401729	-1.136536	-0.093143	0.091501	-0.003699	-0.852295	0.059570	0.623291	0.085544	0.020077	-0.008219	0.076472	-0.763559	-0.192923	-0.611482	153.642386	-74.431788	48.527322
18402		8.256265	1.916224	-0.881323	1.417633	-0.401166	-1.419599	-0.156976	-0.118385	0.033911	-0.852051	0.057373	0.627930	0.082565	0.019169	-0.008779	0.075878	-0.764065	-0.192342	-0.611107	153.750730	-74.373887	48.322628
18403		8.312851	1.959506	-1.173842	1.192189	-0.528996	-1.290957	-0.169123	-0.245653	0.031410	-0.843018	0.053223	0.632568	0.083140	0.019598	-0.011653	0.075104	-0.764946	-0.191759	-0.610283	153.956204	-74.253342	48.007343
18404		8.796006	2.125729	-1.604486	0.975800	-0.726664	-0.703212	-0.140070	-0.323410	0.035520	-0.849609	0.052979	0.635010	0.087982	0.021262	-0.015917	0.074383	-0.766070	-0.191300	-0.609105	154.253626	-74.089776	47.615955
18405		9.173746	2.281022	-2.032060	0.744986	-0.933031	-0.217671	-0.099576	-0.325579	0.059930	-0.845215	0.052979	0.635010	0.091764	0.022828	-0.020183	0.073882	-0.767191	-0.190848	-0.607894	154.608720	-73.933976	47.185700
18406		9.456552	2.349843	-2.375638	0.536653	-1.052048	0.147081	-0.129163	-0.193569	0.060697	-0.845215	0.055420	0.643799	0.094581	0.023512	-0.023680	0.073402	-0.767936	-0.190277	-0.607191	154.834485	-73.842702	46.874849
18407		9.729423	2.480369	-2.838375	0.224411	-1.276930	0.540542	-0.184314	0.046366	0.074256	-0.845215	0.055420	0.643799	0.097278	0.024814	-0.028429	0.072975	-0.767970	-0.189376	-0.607481	154.845614	-73.882460	46.751924
18408		10.076643	2.548113	-3.016621	0.134873	-1.342880	0.925560	-0.156753	0.339251	0.095732	-0.838379	0.051025	0.635010	0.100703	0.025506	-0.030357	0.073001	-0.767137	-0.188391	-0.608835	154.666978	-74.075824	46.845510
18409		10.297085	2.466093	-3.159016	-0.029752	-1.297910	1.160239	-0.088750	0.589949	0.080796	-0.849609	0.052979	0.630371	0.102867	0.024688	-0.031905	0.073472	-0.765483	-0.187556	-0.611114	154.271171	-74.398343	47.202527
18410		10.273592	2.482365	-3.197272	-0.126336	-1.364197	1.144221	0.058258	0.760291	0.035541	-0.859131	0.063965	0.623047	0.102609	0.024851	-0.032356	0.074532	-0.763218	-0.187300	-0.613891	153.706074	-74.793027	47.824469
18411		10.431674	2.606781	-3.194133	-0.118189	-1.486085	1.304625	0.344752	0.812370	0.002081	-0.861328	0.061523	0.609863	0.104186	0.026124	-0.032320	0.076627	-0.760627	-0.188010	-0.616626	153.155149	-75.207656	48.598313
18412		11.557902	2.678366	-3.311109	-0.064051	-1.419627	2.422606	0.710869	0.667308	-0.022779	-0.863770	0.065918	0.609619	0.115471	0.026889	-0.033401	0.079903	-0.758318	-0.190014	-0.618436	152.883621	-75.536852	49.301043
18413		13.205827	2.546200	-3.342578	0.100399	-1.035893	4.006379	0.912727	0.274274	-0.025142	-0.864014	0.074951	0.611328	0.132016	0.025598	-0.033490	0.083559	-0.757109	-0.192786	-0.618577	153.103838	-75.668149	49.612716
18414		13.339818	1.629246	-2.958538	0.124251	-0.062141	3.947352	0.717210	-0.069991	0.101752	-0.866455	0.079346	0.610840	0.133400	0.016466	-0.029480	0.086537	-0.757171	-0.194631	-0.617513	153.819688	-75.652648	49.299157
18415		11.112014	0.636383	-2.446027	-0.153856	0.585217	1.567060	0.347682	0.114803	0.171419	-0.866699	0.081543	0.604004	0.111101	0.006502	-0.024513	0.088507	-0.756868	-0.194972	-0.617497	154.278231	-75.752277	49.030746
18416		9.185061	0.571147	-1.784162	0.084901	0.502887	-0.452429	0.308282	0.593814	0.075087	-0.871094	0.083496	0.594971	0.091795	0.005774	-0.018105	0.090499	-0.755020	-0.195361	-0.619346	154.049410	-76.071486	49.449934
18417		9.589615	0.930756	-0.954440	1.001394	0.539170	-0.197889	0.479898	0.478002	-0.039615	-0.873535	0.085693	0.597168	0.095875	0.009312	-0.009751	0.092668	-0.753315	-0.196747	-0.620661	153.777433	-76.305213	50.012379
18418		10.503770	1.202595	-0.741492	1.451186	0.546211	0.671618	0.406521	-0.496973	-0.090341	-0.871338	0.088135	0.610352	0.105061	0.011993	-0.007129	0.093445	-0.754628	-0.198563	-0.618367	154.358584	-76.020749	49.654903
18419		11.435316	1.007714	-1.396992	1.052906	0.698994	1.682197	0.203212	-1.871971	-0.034089	-0.853516	0.088623	0.623779	0.114479	0.010071	-0.012889	0.092255	-0.760290	-0.200152	-0.611054	156.169875	-75.035676	47.903558
18420		13.141937	0.350166	-2.872658	0.036841	1.178505	3.591869	-0.187471	-2.934789	0.033474	-0.830811	0.086914	0.650635	0.131821	0.003498	-0.026797	0.088713	-0.769345	-0.200769	-0.599942	158.453533	-73.485160	45.420759
18421		14.993327	-0.567362	-5.278855	-1.711028	1.656600	5.912984	-0.459013	-3.018483	0.174777	-0.810547	0.085205	0.670898	0.150712	-0.005660	-0.050505	0.084441	-0.778727	-0.199999	-0.588604	160.459841	-71.897000	43.042888
18422		15.245881	-1.697671	-7.302079	-3.554822	2.134062	6.662814	-0.127415	-1.581240	0.274460	-0.803955	0.089844	0.670654	0.153053	-0.016813	-0.071802	0.083183	-0.783733	-0.199199	-0.582377	161.729447	-71.084152	41.628269
18423		12.469718	-2.229183	-6.596839	-3.745200	2.263159	3.782576	0.571701	0.896512	0.118463	-0.815430	0.096191	0.654541	0.124413	-0.022028	-0.066590	0.086674	-0.781027	-0.199987	-0.585226	161.791093	-71.590159	41.908264
18424		9.071974	-1.191707	-4.273192	-2.246264	1.333100	-0.058173	1.130789	2.868061	-0.140941	-0.840820	0.106689	0.629395	0.090086	-0.011734	-0.044094	0.093550	-0.771962	-0.202563	-0.595224	160.554063	-73.113027	43.887320
18425		7.013801	-0.069160	-2.543419	-0.915297	0.422162	-2.420447	1.667638	3.549112	-0.180986	-0.863525	0.114990	0.602051	0.069671	-0.000536	-0.026678	0.103051	-0.760312	-0.206492	-0.607179	158.715679	-74.983262	46.793220
18426		6.313421	0.440531	-1.245306	0.133235	0.243567	-3.368777	1.964515	3.117792	-0.203956	-0.877441	0.127930	0.576660	0.062935	0.004470	-0.013392	0.113116	-0.749548	-0.211575	-0.616943	156.772301	-76.586635	49.960017
18427		6.071526	0.682598	-0.607567	0.637504	0.187408	-3.708916	1.889877	1.964384	-0.168626	-0.886963	0.136719	0.569336	0.060658	0.006836	-0.006607	0.121781	-0.742194	-0.216873	-0.622321	155.514424	-77.577506	52.362369
18428		5.906075	0.848097	-0.418245	0.805365	0.071404	-3.886290	1.636776	0.518324	-0.149170	-0.889648	0.145508	0.562256	0.059056	0.008472	-0.004266	0.127963	-0.739448	-0.222183	-0.622476	155.566999	-77.806505	53.269575
18429		6.232548	0.826333	-0.523851	0.763441	0.108737	-3.551144	1.135465	-0.817677	-0.138821	-0.880859	0.154785	0.577393	0.062352	0.008249	-0.004937	0.130843	-0.741134	-0.226716	-0.618223	156.782037	-77.343492	52.691921
18430		6.966018	0.525071	-1.099582	0.297355	0.271357	-2.752458	0.301657	-1.740612	-0.084784	-0.867432	0.152832	0.586426	0.069755	0.005237	-0.010381	0.129734	-0.746245	-0.229081	-0.611400	158.423295	-76.396633	51.185298
18431		7.700137	0.001320	-2.258391	-0.725073	0.385613	-1.830465	-0.459699	-1.993210	-0.031106	-0.851074	0.142090	0.607178	0.077221	-0.000050	-0.021815	0.125657	-0.752610	-0.229039	-0.604425	159.746374	-75.319291	49.549630
18432		8.059764	-0.590352	-3.681705	-2.055755	0.393959	-1.182486	-0.627289	-1.473151	-0.056097	-0.846436	0.137695	0.620850	0.080864	-0.006040	-0.036203	0.121448	-0.757420	-0.228260	-0.599553	160.369518	-74.508352	48.533191
18433		7.981968	-0.939311	-4.519386	-2.896407	0.358080	-1.066175	-0.076636	-0.316669	-0.189608	-0.844727	0.146729	0.617920	0.079882	-0.009486	-0.045064	0.120233	-0.758247	-0.228907	-0.598504	160.203395	-74.295841	48.658790
18434		7.711981	-0.831403	-4.162184	-2.614261	0.365724	-1.415015	0.760940	0.917282	-0.396862	-0.853516	0.144287	0.609131	0.076911	-0.008307	-0.042007	0.122990	-0.754627	-0.232119	-0.601275	159.239526	-74.703588	50.112639
18435		7.375025	-0.194528	-3.134817	-1.571951	0.168778	-1.954260	1.278678	1.643243	-0.538909	-0.864746	0.146240	0.593506	0.073484	-0.001940	-0.031965	0.128119	-0.748274	-0.236940	-0.606243	157.625044	-75.462850	52.541945
18436		6.789979	0.521759	-2.269446	-0.670724	-0.208956	-2.669040	1.456548	1.781096	-0.571747	-0.876465	0.156982	0.568115	0.067709	0.005192	-0.023260	0.133948	-0.741266	-0.242324	-0.611443	155.689553	-76.264169	55.399564
18437		6.058566	0.808283	-1.568581	-0.115707	-0.294358	-3.510351	1.440600	1.442577	-0.501449	-0.881104	0.158936	0.561279	0.060491	0.008046	-0.016064	0.139520	-0.735280	-0.247576	-0.615307	153.984819	-76.888511	58.001186
18438		5.731315	0.723025	-1.022025	0.201912	-0.030391	-3.949801	1.137888	0.838798	-0.415935	-0.887939	0.158936	0.554688	0.057285	0.007170	-0.010420	0.143471	-0.731425	-0.252003	-0.617194	152.808675	-77.205884	59.878168
18439		5.818955	0.481472	-0.869721	0.181108	0.264957	-3.918160	0.568201	0.137491	-0.315340	-0.887939	0.158936	0.552490	0.058191	0.004748	-0.008724	0.144767	-0.730237	-0.254779	-0.617158	152.304242	-77.189970	60.729343
18440		6.395259	0.305844	-1.302340	-0.205029	0.314610	-3.289818	-0.041465	-0.551276	-0.215759	-0.883301	0.156738	0.565918	0.063991	0.002987	-0.012848	0.143258	-0.731743	-0.255827	-0.615290	152.474794	-76.847261	60.531094
18441		7.060066	0.054015	-2.211957	-0.983659	0.221497	-2.483085	-0.352306	-1.010683	-0.129691	-0.874268	0.159180	0.570313	0.070712	0.000456	-0.021763	0.140286	-0.734978	-0.255907	-0.612077	153.137513	-76.294690	59.641575
18442		7.766785	-0.048000	-3.272777	-1.773696	-0.040572	-1.573271	-0.242442	-1.070803	-0.106419	-0.869873	0.157227	0.583740	0.077841	-0.000561	-0.032311	0.137708	-0.738331	-0.256292	-0.608456	153.908567	-75.712634	58.704942
18443		8.237246	-0.106084	-3.902633	-2.207764	-0.165371	-0.970059	0.109184	-0.728318	-0.112762	-0.869629	0.150391	0.586426	0.082513	-0.001086	-0.038727	0.136852	-0.740373	-0.257509	-0.605647	154.483009	-75.305167	58.176285
18444		8.478437	0.171767	-4.006760	-2.076130	-0.374961	-0.673945	0.457866	-0.135659	-0.162504	-0.867432	0.152832	0.581787	0.084813	0.001740	-0.040006	0.137890	-0.740312	-0.259577	-0.604602	154.582569	-75.189145	58.345778
18445		8.379659	0.667270	-3.611283	-1.495083	-0.612851	-0.807449	0.642610	0.442050	-0.187633	-0.876465	0.154785	0.574951	0.083723	0.006711	-0.036276	0.140285	-0.738328	-0.261877	-0.605485	154.192621	-75.367913	59.129025
18446		8.139706	1.133254	-2.904628	-0.720999	-0.708616	-1.155108	0.554941	0.751789	-0.172731	-0.874268	0.156982	0.570313	0.081297	0.011343	-0.029321	0.142803	-0.735482	-0.263654	-0.607586	153.460003	-75.705130	60.215145
18447		7.824753	1.410854	-2.405680	-0.241505	-0.771222	-1.545210	0.342816	0.748459	-0.152882	-0.878906	0.161377	0.563477	0.078168	0.014090	-0.024325	0.144597	-0.732797	-0.264692	-0.609950	152.601057	-76.045115	61.302969
18448		7.581422	1.303905	-1.968596	-0.012746	-0.523960	-1.889388	0.085341	0.502063	-0.105816	-0.885498	0.158936	0.568115	0.075771	0.013007	-0.019871	0.145262	-0.731115	-0.264966	-0.611689	151.921307	-76.265993	62.054575
18449		7.689724	1.151828	-1.777100	0.047761	-0.280825	-1.841772	-0.176834	0.074967	-0.080706	-0.883301	0.158936	0.563477	0.076895	0.011472	-0.017810	0.144479	-0.730954	-0.264637	-0.612209	151.601462	-76.278957	62.279117
18450		8.293221	1.206532	-2.069353	-0.087482	-0.338584	-1.187547	-0.332763	-0.455100	-0.057802	-0.885254	0.152344	0.570801	0.082983	0.012007	-0.020525	0.142494	-0.732561	-0.264146	-0.610964	151.826379	-76.028208	61.852264
18451		9.352117	1.275471	-2.622299	-0.335428	-0.418308	-0.031216	-0.282079	-0.967002	-0.044841	-0.872070	0.154785	0.583984	0.093649	0.012697	-0.025788	0.140054	-0.735694	-0.264106	-0.607773	152.622742	-75.522807	60.863317
18452		10.481871	1.275630	-3.299700	-0.662445	-0.455278	1.220767	-0.131123	-1.291707	-0.026604	-0.871826	0.150391	0.591064	0.105031	0.012721	-0.032327	0.137792	-0.739713	-0.264693	-0.603138	153.787624	-74.849631	59.581864
18453		11.316114	1.202281	-3.794824	-0.881001	-0.378833	2.144697	-0.006404	-1.261399	-0.034505	-0.858398	0.155273	0.606445	0.113400	0.012002	-0.037234	0.136000	-0.743510	-0.265635	-0.598444	154.876961	-74.185793	58.447012
18454		11.753872	1.331400	-4.101460	-0.890281	-0.465658	2.666802	0.135247	-0.870993	-0.070017	-0.853760	0.150879	0.604248	0.117720	0.013300	-0.040493	0.135145	-0.745976	-0.266878	-0.595005	155.581428	-73.709949	57.795778
18455		11.831931	1.300938	-3.862823	-0.635365	-0.251483	2.682964	0.329758	-0.351936	-0.120315	-0.855957	0.146484	0.602295	0.118395	0.013002	-0.038398	0.135556	-0.746685	-0.268516	-0.593284	155.863940	-73.494003	57.697770
18456		11.620738	1.056049	-3.085922	-0.150271	0.320108	2.251916	0.527491	0.006009	-0.157898	-0.858398	0.155273	0.608643	0.116215	0.010550	-0.030835	0.137074	-0.746147	-0.270653	-0.592640	155.908983	-73.454199	57.967214
18457		11.363512	0.985103	-2.074724	0.591319	0.852655	1.734071	0.621881	0.045587	-0.178612	-0.860840	0.155273	0.610840	0.113639	0.009814	-0.020743	0.138934	-0.745381	-0.273101	-0.592047	155.936958	-73.433156	58.309067
18458		11.492065	1.142092	-1.112691	1.482934	1.284188	1.622421	0.673986	-0.160697	-0.203651	-0.858643	0.157471	0.604004	0.114941	0.011341	-0.010996	0.140631	-0.745158	-0.275954	-0.590603	156.117131	-73.295613	58.525234
18459		12.166893	1.588347	-0.238404	2.569689	1.597619	2.080878	0.632538	-0.428892	-0.205669	-0.858887	0.164307	0.610352	0.121690	0.015765	-0.002073	0.141795	-0.745732	-0.278859	-0.588231	156.471138	-73.019977	58.533325
18460		13.017085	2.052584	0.729856	3.786016	2.013656	2.669343	0.352388	-0.507121	-0.143582	-0.858887	0.162109	0.614990	0.130166	0.020419	0.007665	0.141987	-0.746822	-0.280778	-0.585884	156.826300	-72.714526	58.374128
18461		13.928356	2.596602	2.037775	5.316577	2.543291	3.231837	-0.337708	-0.129170	-0.007683	-0.862793	0.150635	0.613281	0.139271	0.025995	0.020424	0.140532	-0.747468	-0.279880	-0.585840	156.734494	-72.641872	58.267147
18462		14.779119	2.918655	2.662683	6.087826	2.764181	3.946861	-1.432179	0.986524	0.159922	-0.869385	0.145996	0.604736	0.147896	0.029491	0.025687	0.137032	-0.745833	-0.274372	-0.591334	155.466310	-73.189752	58.736582
18463		12.503816	1.274426	1.072545	3.403119	2.552393	2.062516	-1.562915	1.437962	0.252447	-0.878174	0.139160	0.600586	0.125094	0.012981	0.009725	0.133917	-0.742990	-0.267779	-0.598604	153.834637	-73.994180	59.502605
18464		10.778025	-0.021899	0.387191	1.780677	2.748264	0.463096	-1.269027	0.856218	0.140080	-0.879883	0.130127	0.594482	0.107796	-0.000121	0.003411	0.130774	-0.741496	-0.262868	-0.603310	152.606695	-74.462667	60.024201
18465		9.832801	0.199634	-0.542307	0.966677	1.839206	-0.184565	-0.897179	0.153061	-0.067298	-0.884277	0.127930	0.592285	0.098324	0.001939	-0.005507	0.127448	-0.741560	-0.260277	-0.605063	151.842709	-74.520253	60.281997
18466		9.279106	0.951625	-1.137779	0.793571	0.796004	-0.483244	-0.409703	-0.108840	-0.169178	-0.879639	0.123535	0.599365	0.092805	0.009414	-0.011347	0.125285	-0.741982	-0.259721	-0.605237	151.436702	-74.413907	60.460924
18467		8.682613	1.361850	-1.268327	0.813109	0.266976	-0.974217	-0.567822	0.046077	-0.200249	-0.881592	0.114502	0.595459	0.086837	0.013495	-0.012742	0.122638	-0.741972	-0.258683	-0.606235	150.727932	-74.379702	60.857666
18468		8.569289	1.647727	-1.917848	0.366000	-0.310540	-0.891077	-1.119547	0.382066	-0.180792	-0.881104	0.103516	0.591553	0.085671	0.016292	-0.019434	0.118439	-0.741307	-0.255709	-0.609139	149.401026	-74.512504	61.570342
18469		10.346038	1.995044	-2.801334	-0.055338	-0.602420	1.073138	-1.745289	0.441479	-0.248181	-0.884766	0.087646	0.590332	0.103422	0.019575	-0.028414	0.111776	-0.740685	-0.251008	-0.613097	147.502801	-74.651963	62.500257
18470		11.927569	2.378856	-3.718275	-0.566200	-0.951700	2.857096	-2.296852	0.271281	-0.239630	-0.888672	0.072021	0.591309	0.119253	0.023215	-0.037613	0.102880	-0.740840	-0.244672	-0.617015	145.486980	-74.701070	63.227040
18471		10.372641	2.645293	-4.047146	-1.037018	-1.642835	1.465282	-2.261428	0.325479	-0.175803	-0.892822	0.062988	0.591797	0.103683	0.025901	-0.040935	0.094350	-0.740772	-0.238129	-0.621007	143.514025	-74.792829	63.926684
18472		7.608602	2.146967	-3.169034	-0.930709	-1.448838	-1.471400	-1.511096	0.513858	-0.012830	-0.892090	0.047363	0.588379	0.076005	0.021224	-0.032047	0.089334	-0.739905	-0.233220	-0.624635	141.998550	-75.018598	64.600743
18473		6.222769	1.752816	-2.155465	-0.441717	-0.994540	-3.085375	-0.901123	0.570213	-0.112900	-0.901123	0.044922	0.583984	0.062176	0.017395	-0.021811	0.086314	-0.738423	-0.230530	-0.627803	140.546550	-75.231737	65.566977
18474		7.050758	2.215322	-1.777835	0.136506	-1.047321	-2.285017	-0.657262	0.342887	-0.238743	-0.900879	0.042725	0.588623	0.070503	0.022010	-0.017972	0.083546	-0.737404	-0.229184	-0.629865	139.325542	-75.290312	66.441295
18475		8.549222	3.404271	-2.011112	0.575771	-1.821690	-0.589204	-0.611223	-0.191767	-0.270668	-0.900146	0.027100	0.584961	0.085557	0.033865	-0.020133	0.080226	-0.737990	-0.228300	-0.629931	138.830677	-75.104680	66.589397
18476		9.500866	4.349436	-2.423548	0.731418	-2.555485	0.579221	-0.553634	-0.848323	-0.162365	-0.900146	0.022705	0.598877	0.095146	0.043351	-0.023952	0.076716	-0.740743	-0.227478	-0.627430	139.463821	-74.672548	65.606177
18477		10.059043	4.594074	-2.630303	0.778296	-2.660789	1.211007	-0.657554	-1.308409	-0.005165	-0.882080	0.020996	0.610107	0.100761	0.045853	-0.025795	0.072775	-0.745116	-0.225894	-0.623281	140.821169	-74.093612	63.803597
18478		10.418121	3.982576	-2.780234	0.518526	-2.025907	1.490128	-1.121192	-1.450495	0.173747	-0.881592	0.012207	0.628662	0.104346	0.039762	-0.027269	0.067511	-0.750262	-0.222254	-0.618993	142.256746	-73.500694	61.640881
18479		10.015673	2.524317	-2.864052	-0.131216	-0.802489	0.875004	-1.698691	-1.311404	0.378432	-0.861084	0.001465	0.631348	0.100295	0.025192	-0.028197	0.060853	-0.755312	-0.215970	-0.615757	143.391699	-73.031041	59.437744
18480		8.903126	0.976326	-2.939622	-0.913541	0.327346	-0.436223	-1.868153	-0.974153	0.492670	-0.858643	-0.000732	0.640381	0.089149	0.009710	-0.029053	0.054273	-0.759420	-0.208624	-0.613849	144.160792	-72.743236	57.514254
18481		7.963736	0.138529	-3.014535	-1.402463	0.859901	-1.456780	-1.447240	-0.544839	0.420758	-0.855957	-0.009521	0.645508	0.079716	0.001336	-0.029938	0.049506	-0.761941	-0.202687	-0.613117	144.566265	-72.628155	56.219417
18482		7.533109	-0.273826	-2.743228	-1.349530	1.232784	-2.001990	-0.694514	-0.205620	0.296220	-0.856201	-0.005127	0.649658	0.075363	-0.002722	-0.027345	0.047575	-0.763090	-0.199460	-0.612900	144.856510	-72.625589	55.499529
18483		7.760116	-0.010256	-2.290431	-0.787348	1.189283	-1.848313	-0.095298	-0.041659	0.139746	-0.851563	-0.009521	0.647705	0.077606	-0.000059	-0.022888	0.047608	-0.763421	-0.198605	-0.612763	145.079106	-72.650277	55.207847
18484		8.442289	0.698944	-1.967638	-0.105466	0.807735	-1.154236	0.166430	-0.204054	-0.024223	-0.854004	-0.007324	0.654297	0.084444	0.006996	-0.019584	0.047982	-0.764034	-0.199237	-0.611764	145.378465	-72.541799	54.995238
18485		8.660022	1.618305	-1.784231	0.459588	0.089050	-0.836100	-0.020963	-0.409694	-0.065017	-0.851563	-0.009277	0.658936	0.086642	0.016153	-0.017667	0.047305	-0.765267	-0.199478	-0.610194	145.712361	-72.325337	54.631063
18486		8.834333	2.064498	-1.776019	0.692092	-0.257260	-0.597669	-0.386205	-0.463090	0.043671	-0.846924	-0.013672	0.661377	0.088380	0.020630	-0.017595	0.045514	-0.766863	-0.198223	-0.608734	146.046705	-72.115094	54.048753
18487		8.674436	1.699911	-1.430949	0.866871	0.148337	-0.901477	-0.947860	-0.213564	0.247946	-0.842041	-0.020264	0.666260	0.086739	0.017039	-0.014298	0.042431	-0.768006	-0.194392	-0.608751	146.102965	-72.090948	53.417490
18488		8.573384	1.167121	-1.630879	0.470405	0.539966	-1.037043	-1.365933	0.139329	0.387946	-0.839355	-0.029297	0.660156	0.085700	0.011725	-0.016448	0.038517	-0.768281	-0.188691	-0.610456	145.781064	-72.276939	52.934742
18489		8.507298	0.685584	-1.896471	0.021721	0.868866	-1.112965	-1.128562	0.411284	0.407497	-0.839600	-0.027100	0.657715	0.085020	0.006921	-0.019179	0.035821	-0.767654	-0.183554	-0.612970	145.345121	-72.601459	52.712067
18490		8.285572	0.528763	-2.013141	-0.209784	0.902830	-1.320114	-0.487615	0.394069	0.293632	-0.846436	-0.024902	0.662109	0.082808	0.005360	-0.020308	0.035228	-0.766850	-0.180841	-0.614814	145.124079	-72.878347	52.652151
18491		8.315894	0.882356	-1.994579	-0.091630	0.562607	-1.234457	0.136559	0.173515	0.154750	-0.848877	-0.020508	0.655029	0.083135	0.008902	-0.020012	0.036395	-0.766473	-0.180594	-0.615289	145.279295	-73.008862	52.570119
18492		8.921570	1.652904	-2.032410	0.238379	-0.038477	-0.517590	0.445271	-0.160052	0.050061	-0.846924	-0.013672	0.659180	0.089228	0.016596	-0.020216	0.038128	-0.766979	-0.181781	-0.614203	145.809327	-72.944905	52.283788
18493		9.651852	2.374157	-2.368681	0.331443	-0.633818	0.380139	0.293709	-0.455698	0.004559	-0.844727	-0.011475	0.667969	0.096572	0.023778	-0.023432	0.038866	-0.768365	-0.182709	-0.612146	146.479964	-72.727767	51.756708
18494		9.816168	2.789544	-2.675502	0.267490	-1.056402	0.680608	-0.030244	-0.548021	0.038394	-0.831055	-0.017822	0.670654	0.098229	0.027910	-0.026490	0.038383	-0.770131	-0.182555	-0.609998	147.097433	-72.472358	51.092651
18495		9.778299	2.537464	-2.747447	0.156166	-0.838660	0.621606	-0.406139	-0.468729	0.133416	-0.830811	-0.020020	0.672852	0.097830	0.025384	-0.027297	0.036809	-0.771798	-0.180849	-0.608496	147.547240	-72.285552	50.375086
18496		9.688189	2.167884	-2.951838	-0.145667	-0.561759	0.528360	-0.654650	-0.275770	0.134015	-0.833008	-0.022217	0.675293	0.096908	0.021647	-0.029456	0.034457	-0.772925	-0.178370	-0.607935	147.665257	-72.188405	49.858478
18497		9.582948	1.681132	-3.018312	-0.373802	-0.145348	0.366136	-0.459739	-0.123811	0.168947	-0.823975	-0.021973	0.681885	0.095834	0.016823	-0.030162	0.033094	-0.773569	-0.176297	-0.607795	147.797330	-72.178012	49.441568
18498		9.153868	1.614345	-2.838848	-0.307827	-0.136979	-0.099555	-0.000555	-0.024401	0.037959	-0.828857	-0.015625	0.677002	0.091539	0.016161	-0.028377	0.033203	-0.773728	-0.176133	-0.607635	147.903737	-72.172848	49.330642
18499		9.226327	2.001485	-2.440427	0.210469	-0.376588	-0.070995	0.490396	-0.106963	-0.100542	-0.828857	-0.015381	0.681641	0.092286	0.020028	-0.024306	0.034712	-0.773921	-0.177986	-0.606764	148.156917	-72.088216	49.358502
18500		9.454996	2.315411	-2.016741	0.784878	-0.492837	0.085099	0.726432	-0.357368	-0.146214	-0.826660	-0.013184	0.681396	0.094603	0.023158	-0.019914	0.036778	-0.774793	-0.180796	-0.604695	148.709062	-71.864920	49.216740
18501		9.395323	2.488926	-1.749078	1.134750	-0.576633	-0.019549	0.579224	-0.570995	-0.108796	-0.822266	-0.008545	0.685547	0.094016	0.024888	-0.017150	0.038187	-0.776348	-0.183031	-0.601934	149.410212	-71.549996	48.826487
18502		9.588638	2.506839	-1.784458	1.214479	-0.537553	0.169608	0.265704	-0.612824	-0.011955	-0.820313	-0.004150	0.689941	0.095942	0.025086	-0.017517	0.038638	-0.778177	-0.183972	-0.599251	150.094955	-71.238057	48.265805
18503		9.895692	2.390730	-2.011720	1.091077	-0.407174	0.498999	0.080525	-0.486898	0.064970	-0.815918	-0.001709	0.691895	0.098998	0.023947	-0.019867	0.038709	-0.779718	-0.184013	-0.597228	150.660171	-71.011549	47.716008
18504		9.940730	2.253982	-2.015941	1.092549	-0.266224	0.516783	0.091296	-0.250088	0.067781	-0.815918	-0.001709	0.698730	0.099425	0.022583	-0.020025	0.039054	-0.780559	-0.184050	-0.596094	151.036759	-70.900009	47.374142
18505		9.779594	2.290601	-1.952085	1.145827	-0.325696	0.349938	0.265996	0.029171	0.045141	-0.818115	-0.004150	0.696533	0.097788	0.022954	-0.019505	0.040265	-0.780500	-0.184620	-0.595914	151.251973	-70.924666	47.306533
18506		9.711067	2.508454	-1.856115	1.291631	-0.529394	0.291457	0.431716	0.245156	0.031636	-0.818604	0.007080	0.695801	0.097084	0.025140	-0.018626	0.042286	-0.779760	-0.185713	-0.596404	151.373522	-71.051210	47.440785
18507		9.671381	3.023861	-1.929599	1.380801	-1.057095	0.354838	0.601791	0.377689	0.040753	-0.825195	0.006836	0.684814	0.096671	0.030317	-0.019387	0.045115	-0.778578	-0.187228	-0.597266	151.495831	-71.249926	47.674666
18508		9.970020	3.205064	-1.904936	1.519140	-1.167577	0.657816	0.518492	0.341392	0.037625	-0.823486	0.018066	0.688477	0.099662	0.032119	-0.019136	0.047581	-0.777524	-0.188532	-0.598037	151.597212	-71.426760	47.882404
18509		10.046890	3.486483	-2.216064	1.340466	-1.523245	0.859208	0.433894	0.289219	0.056488	-0.821289	0.018066	0.684082	0.100427	0.034941	-0.022230	0.049720	-0.776645	-0.189502	-0.598699	151.716316	-71.585488	48.017883
18510		10.200758	3.501373	-2.430612	1.173388	-1.587915	1.065023	0.350813	0.300498	0.074404	-0.823486	0.020264	0.683838	0.101958	0.035094	-0.024398	0.051605	-0.775777	-0.190169	-0.599452	151.809321	-71.751900	48.132836
18511		10.556851	3.292175	-2.732647	0.879507	-1.431459	1.453641	0.206739	0.373869	0.109115	-0.830566	0.026855	0.678955	0.105499	0.033008	-0.027490	0.053099	-0.774744	-0.190231	-0.600637	151.807630	-71.967608	48.258078
18512		11.731376	2.821941	-3.194553	0.502081	-0.906214	2.625967	0.212391	0.454027	0.158008	-0.830811	0.031250	0.669922	0.117219	0.028346	-0.032182	0.054844	-0.773522	-0.190117	-0.602089	151.821052	-72.234213	48.373035
18513		12.785369	2.192499	-3.512735	0.162629	-0.236532	3.623429	0.387310	0.481214	0.206880	-0.831055	0.035645	0.667236	0.127746	0.022126	-0.035392	0.057432	-0.772198	-0.190315	-0.603484	151.984334	-72.530689	48.433640
18514		13.127124	1.308017	-3.435725	-0.053915	0.613536	3.805559	0.610517	0.474416	0.260027	-0.837891	0.042236	0.664795	0.131172	0.013356	-0.034628	0.061041	-0.770883	-0.190997	-0.604594	152.375719	-72.835125	48.391258
18515		11.207881	0.420097	-2.722189	-0.150134	1.164215	1.668808	0.666306	0.694100	0.284875	-0.842773	0.046631	0.653320	0.111977	0.004452	-0.027596	0.065143	-0.768882	-0.191664	-0.606500	152.652121	-73.260593	48.500545
18516		8.213115	0.365090	-1.994774	-0.148635	0.739396	-1.386662	0.734508	1.247224	0.194802	-0.852295	0.059570	0.641357	0.082001	0.003805	-0.020446	0.069767	-0.765078	-0.192714	-0.610450	152.314714	-73.940404	49.292113
18517		7.339026	0.911563	-1.233596	0.509276	0.252974	-2.336740	0.926423	1.446888	0.143169	-0.861328	0.063965	0.636475	0.073292	0.009227	-0.012824	0.075152	-0.760485	-0.194449	-0.614983	151.741570	-74.708615	50.437966
18518		8.104343	1.258026	-0.830006	1.076753	0.189825	-1.642238	0.792887	0.745030	0.085118	-0.870850	0.072510	0.629395	0.081007	0.012648	-0.008552	0.079168	-0.758020	-0.196264	-0.616943	151.634313	-75.102126	51.020744
18519		9.113464	1.223905	-1.284878	0.823572	0.242034	-0.567853	0.411806	-0.521840	0.171121	-0.866211	0.070557	0.636230	0.091157	0.012343	-0.012586	0.080756	-0.759668	-0.197059	-0.614451	152.738763	-74.880843	50.120839
18520		10.341485	0.675356	-2.176822	0.130460	0.684753	0.753858	-0.008929	-1.823702	0.318832	-0.850830	0.079834	0.655762	0.103597	0.006918	-0.020824	0.079917	-0.765608	-0.196532	-0.607317	155.005006	-74.017263	47.764428
18521		12.022249	-0.246283	-3.824748	-1.149353	1.349418	2.680199	-0.480779	-2.680693	0.386893	-0.816895	0.076172	0.673828	0.120725	-0.002319	-0.036626	0.076620	-0.774285	-0.194611	-0.597276	157.499500	-72.697117	44.872702
18522		13.241415	-1.126992	-6.131521	-2.965095	1.722042	4.415154	-0.639421	-2.542060	0.440842	-0.808105	0.078613	0.693848	0.133204	-0.011169	-0.059590	0.072996	-0.782532	-0.191934	-0.587773	159.530296	-71.427735	42.354425
18523		12.508722	-1.639217	-7.535273	-4.323064	1.634508	4.136228	-0.034343	-1.166357	0.446235	-0.799316	0.081055	0.697998	0.125560	-0.016125	-0.074619	0.073065	-0.786425	-0.190473	-0.583024	160.898020	-70.881533	40.887751
18524		9.983701	-1.425822	-6.477566	-3.870465	1.203395	1.467198	0.961644	0.856129	0.220759	-0.808838	0.096436	0.683838	0.099574	-0.013835	-0.065269	0.078318	-0.783821	-0.192074	-0.585319	161.355835	-71.379971	40.987398
18525		8.084700	-0.548363	-4.423663	-2.277128	0.579857	-0.884869	1.527888	2.291103	0.023122	-0.831787	0.104736	0.660889	0.080333	-0.005131	-0.045199	0.086584	-0.776502	-0.195506	-0.592727	160.986569	-72.623447	42.295943
18526		7.217591	0.159505	-2.979726	-1.067425	0.150123	-2.077566	1.664644	2.704916	-0.063522	-0.843262	0.111084	0.642578	0.071765	0.001826	-0.030755	0.095507	-0.767656	-0.199473	-0.601492	160.124912	-74.066357	44.191937
18527		7.175978	0.512480	-2.130040	-0.329607	0.037071	-2.317235	1.608261	2.410909	-0.079006	-0.857178	0.124268	0.624023	0.071498	0.005272	-0.022121	0.103855	-0.759513	-0.203410	-0.609080	159.157431	-75.343203	46.150062
18528		7.024680	0.748432	-1.832500	-0.101546	-0.169512	-2.517191	1.516650	1.620445	0.051775	-0.866943	0.144043	0.609375	0.070094	0.007644	-0.018836	0.111429	-0.753848	-0.206964	-0.613565	158.851821	-76.214305	47.362922
18529		6.858673	0.885173	-1.742380	-0.033356	-0.341959	-2.689304	1.441173	0.597156	0.107281	-0.876221	0.150391	0.608887	0.068530	0.009015	-0.017564	0.117826	-0.751342	-0.210612	-0.614203	159.442013	-76.552573	47.605508
18530		7.113518	0.917543	-1.919358	-0.112644	-0.429504	-2.401171	1.254846	-0.398768	0.091650	-0.863037	0.157471	0.608398	0.071169	0.009328	-0.018993	0.122413	-0.751959	-0.214338	-0.611254	160.718541	-76.349151	47.033150
18531		7.616841	0.771720	-2.304256	-0.360237	-0.379826	-1.834807	0.923672	-1.103516	0.076677	-0.861084	0.161865	0.614990	0.076291	0.007851	-0.022586	0.124951	-0.754871	-0.217514	-0.606007	162.251989	-75.759445	45.998380
18532		7.985427	0.731589	-2.945489	-0.762528	-0.538402	-1.321184	0.603179	-1.353256	0.028695	-0.840820	0.164551	0.630371	0.080050	0.007415	-0.028891	0.125853	-0.758656	-0.220060	-0.600146	163.558380	-75.016314	45.006659
18533		8.247362	0.653264	-3.409906	-1.043888	-0.595071	-0.945418	0.503801	-1.118461	-0.013378	-0.841064	0.169189	0.639160	0.082663	0.006612	-0.033621	0.126502	-0.761709	-0.222294	-0.595300	164.488297	-74.393526	44.341402
18534		8.349207	0.561759	-3.501469	-1.069144	-0.509837	-0.819256	0.559841	-0.619103	-0.105504	-0.841309	0.171387	0.641113	0.083603	0.005671	-0.034740	0.127644	-0.763124	-0.224738	-0.592318	164.956891	-74.028374	44.188946
18535		8.200149	0.561450	-3.068225	-0.695493	-0.325563	-1.073011	0.665548	-0.130881	-0.223146	-0.839355	0.178223	0.638428	0.082028	0.005625	-0.030610	0.129385	-0.762873	-0.227615	-0.591165	164.997455	-73.918264	44.543075
18536		7.671760	0.630196	-2.414018	-0.210199	-0.179767	-1.750180	0.768924	0.175555	-0.296791	-0.846191	0.180176	0.634033	0.076706	0.006281	-0.024183	0.131652	-0.761563	-0.230891	-0.591083	164.799677	-73.964016	45.208503
18537		7.262615	0.781206	-1.731115	0.351277	-0.065600	-2.314360	0.876875	0.192242	-0.308886	-0.839844	0.189209	0.628906	0.072622	0.007776	-0.017347	0.134312	-0.760092	-0.234504	-0.590956	164.627402	-74.019366	45.910308
18538		7.294627	0.796302	-1.141467	0.855615	0.220461	-2.439227	0.926250	-0.035380	-0.297346	-0.848877	0.191406	0.633301	0.072960	0.007907	-0.011365	0.136923	-0.759267	-0.238379	-0.589865	164.627779	-73.947628	46.463219
18539		7.548738	0.785449	-0.798547	1.198590	0.471309	-2.290775	0.714247	-0.437544	-0.252858	-0.839844	0.193604	0.635254	0.075514	0.007787	-0.007792	0.138379	-0.759800	-0.241717	-0.587476	164.804812	-73.663321	46.705039
18540		7.946001	0.710158	-0.785059	1.286313	0.661261	-1.928063	0.328033	-0.824613	-0.179923	-0.839844	0.191406	0.644531	0.079498	0.007043	-0.007511	0.138110	-0.761821	-0.243920	-0.584001	165.092762	-73.173227	46.601873
18541		8.234646	0.570059	-1.174794	1.007506	0.694971	-1.565514	0.036848	-0.992724	-0.120180	-0.830811	0.191650	0.653320	0.082407	0.005653	-0.011338	0.136697	-0.764578	-0.245142	-0.580207	165.387783	-72.601236	46.314994
18542		8.289491	0.302203	-1.667647	0.535189	0.737506	-1.400956	-0.096248	-0.887142	-0.064074	-0.830566	0.185059	0.665039	0.082969	0.002988	-0.016310	0.135065	-0.767182	-0.245699	-0.576907	165.641175	-72.092790	45.992391
18543		8.124207	-0.043712	-2.032213	0.064028	0.849241	-1.481475	-0.071587	-0.494974	-0.047071	-0.821533	0.185303	0.662598	0.081292	-0.000463	-0.020121	0.134054	-0.768638	-0.245979	-0.575083	165.753042	-71.806844	45.831077
18544		7.879315	-0.218012	-2.271986	-0.263338	0.838196	-1.656639	0.080226	0.042285	-0.076728	-0.830566	0.185059	0.660400	0.078788	-0.002201	-0.022737	0.134205	-0.768418	-0.246463	-0.575134	165.671178	-71.812326	45.966813
18545		7.495710	0.054330	-2.231372	-0.189471	0.533245	-2.012224	0.325676	0.564771	-0.152015	-0.835205	0.187256	0.653564	0.074894	0.000523	-0.022524	0.135723	-0.766423	-0.247576	-0.576958	165.368700	-72.099526	46.480730
18546		7.667853	0.666326	-2.038738	0.286582	0.129014	-1.856726	0.544482	0.815934	-0.235895	-0.846680	0.193604	0.651123	0.076602	0.006629	-0.020682	0.138148	-0.763449	-0.249481	-0.579500	164.916282	-72.509660	47.284249
18547		7.467070	1.075573	-1.796005	0.610264	-0.163100	-2.083504	0.357696	0.860351	-0.203370	-0.841797	0.187012	0.640137	0.074603	0.010712	-0.018262	0.140006	-0.760486	-0.250670	-0.582429	164.359126	-72.949941	48.082048
18548		7.222550	1.159088	-1.788369	0.558889	-0.307105	-2.309355	-0.078567	0.801962	-0.125580	-0.855713	0.193359	0.630859	0.072160	0.011538	-0.018178	0.140356	-0.758093	-0.250344	-0.585596	163.690175	-73.364929	48.735113
18549		7.327589	1.112369	-1.901733	0.407521	-0.323829	-2.178795	-0.508500	0.633174	-0.044301	-0.857422	0.184326	0.629150	0.073218	0.011059	-0.019277	0.139100	-0.756574	-0.248550	-0.588616	162.985150	-73.701094	49.166130
18550		7.788059	1.062666	-2.248794	0.134658	-0.370551	-1.646623	-0.750697	0.372767	-0.011113	-0.852783	0.180176	0.634033	0.077839	0.010537	-0.022673	0.136700	-0.756030	-0.246110	-0.590899	162.338817	-73.896266	49.392454
18551		8.586814	1.067701	-2.762613	-0.174934	-0.460816	-0.742826	-0.727434	0.095747	0.000926	-0.854736	0.173340	0.632080	0.085855	0.010577	-0.027706	0.134078	-0.756282	-0.243863	-0.592108	161.886665	-73.944533	49.428731
18552		9.443324	1.034410	-3.226055	-0.436486	-0.467168	0.199555	-0.506369	-0.101473	-0.017981	-0.857178	0.173340	0.636719	0.094451	0.010254	-0.032239	0.131998	-0.756948	-0.242487	-0.592289	161.649977	-73.879387	49.374281
18553		10.307499	0.867183	-3.466680	-0.565791	-0.242133	1.079311	-0.235610	-0.167705	-0.037549	-0.852539	0.173340	0.632080	0.103106	0.008612	-0.034591	0.130800	-0.757596	-0.242014	-0.591920	161.570544	-73.777309	49.315864
18554		10.959282	0.788648	-3.514466	-0.520324	-0.044393	1.711487	-0.067597	-0.092804	-0.061096	-0.856934	0.171143	0.636719	0.109612	0.007841	-0.035096	0.130262	-0.757892	-0.242093	-0.591627	161.499842	-73.709112	49.350337
18555		11.349822	0.773826	-3.396176	-0.359741	0.114093	2.053603	0.133095	0.090914	-0.074042	-0.856934	0.171143	0.638916	0.113486	0.007719	-0.034008	0.130667	-0.757487	-0.242682	-0.591815	161.403112	-73.740957	49.530196
18556		11.663696	0.676484	-2.852376	0.085934	0.521075	2.202159	0.389170	0.219410	-0.107836	-0.854736	0.173340	0.636719	0.116609	0.006758	-0.028639	0.132100	-0.756502	-0.244085	-0.592180	161.310815	-73.833669	49.859696
18557		11.870382	0.475078	-2.066765	0.651735	1.110268	2.176712	0.586555	0.193207	-0.136823	-0.859131	0.168701	0.632568	0.118687	0.004730	-0.020768	0.134157	-0.755413	-0.246184	-0.592238	161.289130	-73.909294	50.231647
18558		11.973750	0.422733	-1.194319	1.354448	1.607924	2.042937	0.622380	0.033219	-0.141987	-0.861572	0.175293	0.632080	0.119738	0.004180	-0.011950	0.136139	-0.754770	-0.248527	-0.591627	161.382016	-73.894639	50.507289
18559		12.322016	0.589742	-0.441241	2.130149	1.933878	2.191357	0.596345	-0.142019	-0.146395	-0.861816	0.182129	0.629395	0.123228	0.005820	-0.004307	0.137787	-0.754640	-0.250912	-0.590404	161.559737	-73.786807	50.677358
18560		12.911610	0.872732	0.448084	3.130046	2.297482	2.540305	0.594336	-0.131911	-0.104393	-0.861816	0.182129	0.629395	0.129118	0.008646	0.004592	0.139566	-0.754537	-0.253138	-0.589166	161.811093	-73.689569	50.771417
18561		14.125022	1.546406	2.035100	4.999938	2.812041	3.345661	0.200054	0.332431	-0.012624	-0.864014	0.179688	0.622803	0.141285	0.015435	0.020132	0.140714	-0.753440	-0.253515	-0.590134	161.718388	-73.864414	50.986901
18562		14.070766	1.906337	1.973043	5.051617	2.401522	3.386711	-0.584148	1.292452	0.139563	-0.875244	0.177246	0.609619	0.140818	0.019217	0.018765	0.140570	-0.750247	-0.250339	-0.595567	160.835333	-74.584777	51.557876
18563		11.943265	0.753627	0.936492	3.093121	2.279059	1.559322	-0.486890	1.380567	0.215990	-0.884521	0.183838	0.604736	0.119485	0.007687	0.008522	0.141120	-0.746766	-0.247074	-0.601149	160.025885	-75.368235	52.106467
18564		10.918724	0.003258	0.539986	2.118252	2.424289	0.634586	-0.372884	0.641558	0.120503	-0.888672	0.179199	0.598389	0.109204	0.000108	0.005049	0.140893	-0.745297	-0.245037	-0.603853	159.599388	-75.730597	52.327428
18565		11.109411	0.254551	-0.255575	1.602569	1.829139	1.033285	-0.260618	-0.147293	-0.023142	-0.879395	0.172607	0.607666	0.111096	0.002529	-0.002477	0.139682	-0.745934	-0.244412	-0.603601	159.540883	-75.643828	52.233152
18566		11.610989	0.728259	-1.035366	1.309714	1.161494	1.735158	-0.114667	-0.479166	-0.100555	-0.881592	0.168213	0.605713	0.116138	0.007218	-0.010080	0.138377	-0.747387	-0.244764	-0.601960	159.664322	-75.359976	52.038953
18567		11.648664	0.888861	-1.622260	0.938962	0.775225	1.918913	-0.273585	-0.239222	-0.153847	-0.881592	0.168213	0.607910	0.116513	0.008777	-0.016095	0.136606	-0.748145	-0.244650	-0.601469	159.398609	-75.197630	52.150550
18568		11.143231	0.733721	-2.109772	0.353710	0.581048	1.531834	-0.559743	0.300944	-0.182215	-0.885742	0.161377	0.608398	0.111407	0.007176	-0.021286	0.134343	-0.747447	-0.243429	-0.603338	158.500051	-75.314687	52.749233
18569		10.431729	0.473080	-2.252643	-0.081322	0.583960	0.853654	-0.706172	0.770675	-0.201006	-0.889893	0.154541	0.604248	0.104234	0.004545	-0.022944	0.132043	-0.745379	-0.241498	-0.607168	157.061591	-75.677131	53.816161
18570		10.017782	0.262550	-2.094594	-0.217599	0.744302	0.395636	-0.888257	0.964906	-0.271904	-0.900879	0.145508	0.593750	0.100079	0.002395	-0.021440	0.129081	-0.742744	-0.239161	-0.611941	155.124378	-76.113441	55.289975
18571		9.808918	0.391016	-2.085987	-0.280900	0.591733	0.201757	-1.109492	0.880739	-0.342357	-0.902588	0.136475	0.589600	0.098002	0.003625	-0.021312	0.124972	-0.740375	-0.236431	-0.616707	152.884625	-76.478684	56.939955
18572		9.761990	0.592676	-2.115023	-0.308770	0.404675	0.180371	-1.165508	0.658191	-0.364486	-0.908936	0.125244	0.588135	0.097560	0.005624	-0.021505	0.120321	-0.738678	-0.233758	-0.620673	150.730794	-76.706975	58.468775
18573		9.563275	0.737825	-2.052587	-0.288956	0.289789	-0.012394	-1.297196	0.438949	-0.322159	-0.908691	0.120605	0.583984	0.095599	0.007090	-0.020782	0.115050	-0.737741	-0.230619	-0.623952	148.798983	-76.829377	59.688617
18574		8.867362	1.006479	-2.062176	-0.312917	-0.062061	-0.658805	-1.152214	0.361503	-0.261854	-0.914795	0.104980	0.584961	0.088649	0.009829	-0.020839	0.110411	-0.737014	-0.227765	-0.626692	147.158055	-76.920524	60.696832
18575		7.680125	1.281552	-1.606077	0.028927	-0.321580	-1.869029	-0.657125	0.481354	-0.189360	-0.914551	0.095947	0.576416	0.076774	0.012690	-0.016287	0.107954	-0.735686	-0.226103	-0.629277	145.759283	-77.088920	61.744901
18576		6.972674	1.413717	-0.729383	0.733865	-0.190990	-2.701183	-0.293876	0.664265	-0.220402	-0.923096	0.086914	0.572510	0.069717	0.014049	-0.007546	0.106944	-0.733554	-0.225616	-0.632107	144.211536	-77.323704	63.160529
18577		7.169483	2.032420	-0.285514	1.381045	-0.501020	-2.501380	-0.216210	0.577187	-0.321227	-0.927734	0.091309	0.567871	0.071719	0.020206	-0.003084	0.105794	-0.731519	-0.225766	-0.634600	142.574613	-77.478178	64.709483
18578		7.637307	2.826613	-0.296688	1.746047	-1.098603	-1.929127	-0.128989	0.157708	-0.378715	-0.929688	0.086670	0.572510	0.076424	0.028120	-0.003045	0.104312	-0.730711	-0.226645	-0.635462	141.522390	-77.411928	65.712915
18579		8.068295	3.389861	-0.467698	1.888034	-1.551714	-1.396355	-0.139888	-0.378756	-0.350188	-0.918457	0.084717	0.577148	0.080751	0.033754	-0.004548	0.102268	-0.731628	-0.227643	-0.634381	141.376720	-77.116160	65.778820
18580		8.408161	3.784694	-0.861042	1.780561	-1.956471	-0.937781	-0.322916	-0.788532	-0.266373	-0.920410	0.080322	0.579590	0.084165	0.037721	-0.008340	0.099357	-0.734038	-0.227981	-0.631934	141.919454	-76.663154	65.032749
18581		8.824555	3.846727	-1.455874	1.367818	-2.133077	-0.412245	-0.571357	-0.947781	-0.145717	-0.911133	0.071533	0.593750	0.088342	0.038362	-0.014250	0.095726	-0.737179	-0.227144	-0.629134	142.720820	-76.181136	63.870263
18582		9.178778	3.309320	-2.069988	0.662942	-1.801280	-0.024837	-0.882948	-0.901518	0.000856	-0.915527	0.064941	0.603027	0.091880	0.033003	-0.020432	0.091463	-0.740477	-0.224776	-0.626741	143.492742	-75.764096	62.554338
18583		9.813516	2.434906	-2.648273	-0.129888	-1.092341	0.581392	-1.234079	-0.783205	0.154643	-0.906250	0.062988	0.609863	0.098219	0.024263	-0.026248	0.086502	-0.743689	-0.220654	-0.625105	144.122772	-75.452783	61.172424
18584		10.150633	1.461658	-3.232018	-0.996538	-0.352873	0.887776	-1.401611	-0.653427	0.284015	-0.901367	0.054199	0.621582	0.101591	0.014535	-0.032090	0.081468	-0.746681	-0.215478	-0.624019	144.692230	-75.238636	59.754915
18585		9.942626	0.606238	-3.597756	-1.675660	0.254191	0.641716	-1.155238	-0.495570	0.347041	-0.887939	0.052246	0.617188	0.099505	0.006028	-0.035766	0.077711	-0.749095	-0.210740	-0.623223	145.286854	-75.118570	58.453794
18586		9.596708	0.153413	-3.695072	-1.962525	0.568934	0.266927	-0.632653	-0.316626	0.232214	-0.892334	0.052002	0.628418	0.096024	0.001529	-0.036804	0.075745	-0.750620	-0.208004	-0.622549	145.753619	-75.039782	57.596771
18587		9.198840	0.483325	-3.583178	-1.762942	0.234088	-0.090102	-0.039849	-0.091744	0.042014	-0.887695	0.050049	0.624023	0.092004	0.004845	-0.035791	0.075641	-0.751003	-0.207722	-0.622193	145.941285	-75.008127	57.377664
18588		9.220103	1.360428	-3.096577	-0.957082	-0.373168	-0.045672	0.378685	0.051364	-0.071938	-0.883545	0.056641	0.625977	0.092198	0.013630	-0.030964	0.076907	-0.750677	-0.209134	-0.621958	146.001169	-75.004824	57.541448
18589		9.487366	2.199518	-2.711006	-0.221104	-0.928591	0.251425	0.455320	0.008068	-0.080699	-0.885986	0.058838	0.627930	0.094881	0.022019	-0.027064	0.078384	-0.750430	-0.210814	-0.621505	146.135207	-74.981096	57.671627
18590		9.439120	2.699414	-2.356283	0.314501	-1.252870	0.200667	0.217561	-0.126705	0.004838	-0.883301	0.052246	0.626221	0.094405	0.027022	-0.023474	0.079096	-0.750796	-0.211505	-0.620737	146.449987	-74.917568	57.475907
18591		8.513307	2.662826	-1.879358	0.615586	-1.243359	-0.803019	-0.122422	-0.158295	0.152056	-0.881592	0.061279	0.623291	0.085128	0.026682	-0.018743	0.078950	-0.751536	-0.210582	-0.620174	146.859870	-74.887768	56.977509
18592		7.600958	2.053313	-1.261754	0.799805	-0.671521	-1.907497	-0.380138	-0.100461	0.285841	-0.883545	0.054443	0.628174	0.075986	0.020618	-0.012619	0.078317	-0.752349	-0.208352	-0.620022	147.299160	-74.923672	56.298096
18593		7.334079	1.509029	-0.839760	0.925209	-0.097956	-2.335694	-0.459312	-0.088383	0.319177	-0.886230	0.063477	0.632324	0.073320	0.015188	-0.008400	0.077495	-0.753172	-0.205727	-0.620003	147.736111	-74.977163	55.572014
18594		7.267025	1.207707	-0.505154	1.107149	0.266645	-2.517040	-0.314805	-0.160764	0.308019	-0.881592	0.061279	0.627930	0.072656	0.012181	-0.005012	0.077114	-0.754159	-0.203637	-0.619539	148.326844	-74.987539	54.774805
18595		7.350994	1.057875	-0.095625	1.449754	0.556521	-2.549507	-0.098027	-0.266027	0.272533	-0.883789	0.059082	0.634766	0.073497	0.010678	-0.000864	0.077329	-0.755336	-0.202374	-0.618492	149.087255	-74.936307	53.928310
18596		7.742210	1.175488	0.251649	1.899523	0.650247	-2.239325	0.048625	-0.348217	0.231181	-0.879639	0.068115	0.643066	0.077404	0.011844	0.002654	0.077890	-0.756678	-0.201769	-0.616977	149.942821	-74.826439	53.072092
18597		8.209289	1.401758	0.581268	2.394773	0.656357	-1.842156	0.058324	-0.356905	0.235802	-0.879639	0.068115	0.640869	0.082066	0.014113	0.005963	0.078488	-0.758031	-0.201161	-0.615437	150.803268	-74.713202	52.213789
18598		8.614775	1.515084	0.637088	2.589172	0.648465	-1.458568	-0.050917	-0.286437	0.254339	-0.875244	0.070313	0.645264	0.086119	0.015262	0.006490	0.078804	-0.759239	-0.200136	-0.614241	151.558222	-74.634299	51.401910
18599		8.579161	1.493113	0.298168	2.295859	0.522010	-1.423601	-0.111761	-0.194658	0.270048	-0.875000	0.068115	0.649902	0.085768	0.015049	0.003057	0.079024	-0.760187	-0.198809	-0.613470	152.204934	-74.606551	50.663575
18600		8.410633	1.303491	-0.242407	1.729985	0.447493	-1.487819	-0.099972	-0.246163	0.266292	-0.873291	0.079346	0.646973	0.084092	0.013146	-0.002327	0.079232	-0.761297	-0.197570	-0.612467	152.902993	-74.546164	49.881180
18601		8.773732	1.380961	-0.928209	1.239680	0.192236	-0.971133	-0.081668	-0.431956	0.248373	-0.866455	0.077393	0.653809	0.087740	0.013915	-0.009098	0.079264	-0.762932	-0.196510	-0.610767	153.736332	-74.386531	48.966441
18602		9.402385	1.659001	-1.818689	0.713060	-0.257236	-0.123013	-0.004047	-0.626695	0.256086	-0.859619	0.075195	0.662842	0.094059	0.016710	-0.017893	0.079430	-0.765146	-0.195751	-0.608214	154.783569	-74.121031	47.877132
18603		9.942275	1.811763	-2.550980	0.281445	-0.550833	0.591916	0.046491	-0.619572	0.274417	-0.853271	0.082031	0.666748	0.099476	0.018260	-0.025197	0.079843	-0.767312	-0.195051	-0.605650	155.846568	-73.861503	46.797570
18604		10.367346	1.911534	-3.062125	0.001640	-0.747160	1.139664	-0.014299	-0.344533	0.304644	-0.857910	0.084229	0.666748	0.103697	0.019271	-0.030444	0.080391	-0.768707	-0.193960	-0.604158	156.688251	-73.745012	45.913737
18605		10.633941	2.043054	-3.483632	-0.249372	-0.989397	1.516446	-0.084909	0.095840	0.319245	-0.846680	0.086670	0.664307	0.106290	0.020585	-0.034896	0.081131	-0.768796	-0.192402	-0.604443	157.166085	-73.864434	45.364269
18606		10.853098	2.128000	-3.526867	-0.229192	-1.082088	1.742966	-0.079252	0.453334	0.315098	-0.851318	0.091064	0.657227	0.108417	0.021437	-0.035523	0.082230	-0.767809	-0.190750	-0.606070	157.377886	-74.167603	45.097881
18607		10.766603	2.269127	-3.327957	-0.054474	-1.210650	1.618623	-0.022428	0.588311	0.291669	-0.858154	0.093018	0.657227	0.107534	0.022844	-0.033599	0.083598	-0.766346	-0.189285	-0.608191	157.475826	-74.540150	44.981761
18608		10.467558	2.378542	-2.954633	0.228007	-1.285984	1.244033	0.061107	0.461159	0.282570	-0.862793	0.097412	0.654785	0.104573	0.023942	-0.029780	0.085144	-0.765233	-0.188179	-0.609719	157.716999	-74.839941	44.769177
18609		9.997170	2.347281	-2.458217	0.556870	-1.208429	0.662304	0.082280	0.197546	0.279304	-0.860596	0.097412	0.650146	0.099914	0.023623	-0.024671	0.086506	-0.764894	-0.187244	-0.610241	158.179420	-75.001945	44.338130
18610		9.783783	2.167966	-2.033874	0.835854	-0.960338	0.333157	0.023238	-0.057377	0.287012	-0.856445	0.104248	0.649902	0.097812	0.021822	-0.020308	0.087434	-0.765378	-0.186226	-0.609814	158.836794	-75.025296	43.672554
18611		9.854404	1.830645	-1.673282	1.066385	-0.532452	0.278873	-0.035366	-0.224308	0.327470	-0.856689	0.108643	0.651855	0.098533	0.018465	-0.016626	0.088098	-0.766416	-0.184930	-0.608808	159.663126	-74.968456	42.795147
18612		9.788739	1.453248	-1.392593	1.190339	-0.118568	0.108986	-0.044606	-0.193117	0.308004	-0.852051	0.108887	0.649414	0.097878	0.014680	-0.013835	0.088702	-0.767357	-0.183683	-0.607910	160.421288	-74.918191	41.984727
18613		10.044815	1.455032	-1.029418	1.587127	0.032475	0.264765	0.060809	0.004131	0.241169	-0.854492	0.113281	0.649170	0.100430	0.014675	-0.010292	0.089684	-0.767573	-0.182910	-0.607727	160.959485	-74.962914	41.462708
18614		11.001993	1.725798	-0.688107	2.184759	0.045142	1.128995	0.237399	0.264510	0.176457	-0.859131	0.115234	0.649170	0.109995	0.017363	-0.007006	0.091390	-0.766874	-0.182819	-0.608383	161.296602	-75.132398	41.255723
18615		12.547030	1.927264	-0.347391	2.843899	0.211788	2.561889	0.186089	0.408259	0.160844	-0.863770	0.119629	0.644531	0.125447	0.019377	-0.003712	0.092977	-0.765725	-0.182551	-0.609668	161.472890	-75.380318	41.182937
18616		14.052182	1.897990	-0.754984	2.723512	0.298024	4.120353	-0.031831	0.284375	0.238366	-0.861328	0.115234	0.646973	0.140488	0.019146	-0.007753	0.093858	-0.765141	-0.181393	-0.610612	161.783713	-75.571312	40.844169
18617		13.599749	1.121347	-1.196277	1.920397	0.722424	3.731003	-0.171305	0.214953	0.377620	-0.859375	0.119629	0.637695	0.135963	0.011460	-0.012119	0.094560	-0.764938	-0.179293	-0.611377	162.364086	-75.751917	40.142891
18618		11.397839	-0.015322	-1.293857	0.947353	1.316765	1.543063	-0.393759	0.641355	0.447723	-0.863770	0.119629	0.628662	0.113936	0.000076	-0.013304	0.095014	-0.763609	-0.176057	-0.613904	162.703536	-76.172655	39.561596
18619		9.929662	-0.613767	-1.645975	0.061972	1.447035	0.166561	-0.435227	1.068971	0.387677	-0.872803	0.121582	0.624023	0.099218	-0.005982	-0.016977	0.095492	-0.760894	-0.172699	-0.618140	162.599058	-76.820462	39.411664
18620		10.335269	-0.523196	-2.213094	-0.419527	1.160811	0.697560	-0.214253	0.744177	0.233528	-0.873047	0.123779	0.621826	0.103275	-0.005135	-0.022510	0.096058	-0.758943	-0.170777	-0.620978	162.505192	-77.260555	39.383165
18621		11.739721	-0.221312	-2.991954	-0.790524	0.770995	2.253894	0.118148	-0.200807	0.144437	-0.864014	0.124023	0.624023	0.117429	-0.002111	-0.029803	0.096795	-0.759665	-0.170660	-0.620012	163.095694	-77.172031	38.846188
18622		13.080133	-0.226174	-3.962532	-1.344596	0.631550	3.775304	0.296026	-1.232137	0.071120	-0.859619	0.126465	0.646240	0.131043	-0.002157	-0.038822	0.097105	-0.763437	-0.171886	-0.614971	164.308296	-76.498924	37.776219
18623		14.573116	-0.700780	-5.296496	-2.249998	0.869751	5.520110	0.203747	-1.739698	0.034605	-0.848389	0.128906	0.650635	0.146186	-0.006929	-0.051702	0.096500	-0.768723	-0.173185	-0.608079	165.564830	-75.537840	36.600539
18624		15.299884	-1.409455	-6.747173	-3.451843	1.191401	6.565913	0.038252	-1.332809	0.076997	-0.837158	0.129150	0.659424	0.153449	-0.014023	-0.066453	0.095742	-0.772856	-0.173629	-0.602810	166.469708	-74.800285	35.688327
18625		13.893906	-1.927468	-7.144509	-4.196645	1.340999	5.299878	0.130123	-0.037340	0.052666	-0.837402	0.135742	0.652344	0.138957	-0.019192	-0.071432	0.096384	-0.772987	-0.173803	-0.602490	166.691304	-74.782697	35.535063
18626		10.717340	-1.878798	-5.641432	-3.573954	1.300150	1.838531	0.489933	1.369579	-0.074505	-0.846436	0.135742	0.643311	0.106777	-0.018688	-0.057192	0.099258	-0.768590	-0.174886	-0.607316	166.144359	-75.528238	36.392439
18627		8.109807	-1.372861	-3.589549	-2.213863	1.106570	-1.186580	0.836685	2.059314	-0.131676	-0.867188	0.148438	0.617920	0.080713	-0.013629	-0.036785	0.103884	-0.761793	-0.176869	-0.614489	165.172761	-76.649225	37.886829
18628		6.616009	-0.931196	-2.150354	-1.163120	0.946494	-2.956146	1.087288	1.993824	-0.132222	-0.878662	0.152588	0.604248	0.065935	-0.009236	-0.022212	0.109393	-0.754988	-0.179652	-0.621089	164.175835	-77.724032	39.549184
18629		6.195696	-0.737316	-1.281691	-0.476630	0.988848	-3.538352	1.292024	1.321596	-0.093547	-0.890137	0.156738	0.595215	0.061867	-0.007317	-0.013273	0.115186	-0.750093	-0.183258	-0.624907	163.710355	-78.434081	40.781864
18630		6.258709	-0.706860	-0.821436	-0.091235	1.120895	-3.561203	1.379567	0.257092	-0.044054	-0.879150	0.163818	0.599121	0.062575	-0.007025	-0.008343	0.120472	-0.748488	-0.187568	-0.624556	164.214271	-78.561727	41.075396
18631		6.178635	-0.382409	-0.933221	-0.047003	0.770858	-3.600119	1.288562	-0.913613	-0.094135	-0.877197	0.170410	0.607666	0.061826	-0.003794	-0.009074	0.124156	-0.750491	-0.192459	-0.619926	165.393823	-78.038578	40.624361
18632		6.252816	-0.105371	-1.464674	-0.302509	0.337340	-3.405843	1.293861	-1.812547	-0.157198	-0.864014	0.177490	0.614014	0.062657	-0.001011	-0.014086	0.126788	-0.755159	-0.198159	-0.611876	166.892767	-77.001512	39.849611
18633		6.622253	-0.309025	-1.933113	-0.620114	0.418681	-2.947917	1.207798	-2.146799	-0.192904	-0.846436	0.186768	0.635742	0.066422	-0.003040	-0.018637	0.128635	-0.760752	-0.203898	-0.602606	168.256974	-75.771984	39.157438
18634		7.045178	-0.657231	-2.549578	-1.108692	0.577564	-2.396312	0.916322	-1.828095	-0.270278	-0.835449	0.193848	0.642090	0.070672	-0.006553	-0.024881	0.129450	-0.765405	-0.208839	-0.594797	169.012456	-74.707137	38.920288
18635		7.191581	-0.895889	-3.157294	-1.622071	0.587637	-2.098215	0.738078	-1.019434	-0.361200	-0.831055	0.196289	0.650879	0.072059	-0.008973	-0.031239	0.130151	-0.767606	-0.213041	-0.590301	169.127596	-74.089710	39.239757
18636		6.982631	-0.803117	-3.387666	-1.792055	0.381621	-2.228408	0.880820	0.085478	-0.435069	-0.837646	0.191650	0.642090	0.069794	-0.008034	-0.033942	0.132350	-0.766358	-0.217239	-0.589903	168.762704	-74.082497	40.145139
18637		6.735693	-0.254797	-3.138394	-1.408125	-0.052281	-2.512156	1.246641	1.179223	-0.536131	-0.846924	0.197998	0.630615	0.067163	-0.002531	-0.031796	0.136838	-0.761478	-0.222152	-0.593359	167.934304	-74.678294	41.746838
18638		7.447934	0.049430	-2.348112	-0.546359	0.129441	-2.023527	1.279974	1.730284	-0.535018	-0.860596	0.204346	0.616943	0.074274	0.000448	-0.024121	0.142050	-0.754879	-0.226777	-0.598792	166.747302	-75.571205	43.734905
18639		7.153537	0.227818	-1.941975	-0.286751	0.067318	-2.402690	0.812526	1.784922	-0.483922	-0.871826	0.204102	0.607910	0.071364	0.002186	-0.020048	0.145700	-0.748407	-0.229730	-0.604882	165.157303	-76.492606	45.852896
18640		6.083588	0.250268	-1.896742	-0.517568	-0.153570	-3.458320	0.517513	1.603314	-0.441852	-0.876465	0.206055	0.589844	0.060687	0.002418	-0.019448	0.148149	-0.742697	-0.231761	-0.610524	163.364812	-77.301280	47.998833
18641		5.399883	0.080924	-1.706460	-0.627812	-0.059067	-4.184260	0.476135	1.293924	-0.387015	-0.892090	0.203613	0.576660	0.053888	0.000746	-0.017412	0.150244	-0.737968	-0.233660	-0.615006	161.688876	-77.938021	49.993527
18642		5.439661	-0.247448	-1.430464	-0.622023	0.343495	-4.227685	0.449917	0.847095	-0.334000	-0.896484	0.201172	0.579102	0.054331	-0.002533	-0.014541	0.151878	-0.734679	-0.235626	-0.617787	160.367786	-78.328219	51.608013
18643		6.032388	-0.487756	-1.479044	-0.750046	0.608008	-3.657779	0.335514	0.235815	-0.307225	-0.891846	0.198975	0.572510	0.060299	-0.004945	-0.014870	0.152448	-0.733372	-0.237585	-0.618448	159.562897	-78.391167	52.625389
18644		6.730132	-0.426199	-1.930029	-1.010171	0.450355	-2.886073	0.248895	-0.426423	-0.314166	-0.894287	0.203369	0.574463	0.067335	-0.004344	-0.019162	0.151895	-0.734178	-0.239821	-0.616764	159.342210	-78.092785	52.997611
18645		7.155315	-0.349072	-2.551393	-1.400549	0.170476	-2.340136	0.398684	-0.889951	-0.297391	-0.885254	0.201416	0.578857	0.071661	-0.003547	-0.025202	0.151382	-0.736295	-0.242787	-0.613194	159.687584	-77.551768	52.877238
18646		7.603323	-0.131606	-3.055942	-1.585690	-0.150919	-1.773477	0.663964	-0.981527	-0.315234	-0.876709	0.212891	0.591797	0.076180	-0.001335	-0.030190	0.151677	-0.738458	-0.246711	-0.608939	160.202105	-76.955076	52.740904
18647		7.916949	0.123390	-3.228352	-1.486367	-0.356145	-1.399656	0.818668	-0.736764	-0.331478	-0.878418	0.201660	0.594727	0.079290	0.001234	-0.031987	0.152791	-0.739701	-0.250956	-0.605407	160.542226	-76.489927	52.873023
18648		7.755850	0.497739	-3.081411	-1.142250	-0.591348	-1.551843	0.795739	-0.283010	-0.341387	-0.876221	0.203857	0.598877	0.077610	0.004967	-0.030685	0.154356	-0.739567	-0.254830	-0.603554	160.489711	-76.265267	53.397331
18649		7.538636	0.821185	-2.595136	-0.586962	-0.628214	-1.843941	0.641473	0.132018	-0.305676	-0.876465	0.208252	0.589844	0.075382	0.008180	-0.025975	0.155978	-0.738321	-0.257766	-0.603415	160.103335	-76.273532	54.172500
18650		7.325306	1.069904	-2.222332	-0.186150	-0.671075	-2.114731	0.416882	0.319485	-0.260886	-0.880859	0.206055	0.585449	0.073231	0.010650	-0.022318	0.157152	-0.736745	-0.259726	-0.604195	159.535187	-76.387315	55.004179
18651		7.496368	1.294180	-1.998761	0.127413	-0.698795	-1.979367	0.213998	0.202431	-0.234105	-0.885254	0.201416	0.590088	0.074959	0.012875	-0.020050	0.157504	-0.735702	-0.261050	-0.604804	158.994659	-76.444675	55.685772
18652		8.004671	1.495519	-2.001968	0.302223	-0.753335	-1.466411	0.088427	-0.167486	-0.205582	-0.880859	0.206055	0.580811	0.080079	0.014882	-0.019946	0.156999	-0.735922	-0.262195	-0.604171	158.764703	-76.306363	55.975669
18653		8.754199	1.714019	-2.254408	0.347198	-0.887477	-0.661309	0.021042	-0.668932	-0.182852	-0.885498	0.208252	0.592041	0.087632	0.017062	-0.022249	0.155653	-0.737724	-0.263429	-0.601781	158.965479	-75.907415	55.780492
18654		9.702430	1.796318	-2.701294	0.228764	-0.944364	0.371400	0.009606	-1.128169	-0.146035	-0.866943	0.197510	0.605957	0.097188	0.017894	-0.026464	0.153770	-0.740959	-0.264860	-0.597648	159.584793	-75.266829	55.147902
18655		10.720888	1.637509	-3.297488	-0.092205	-0.838569	1.491234	-0.040252	-1.367613	-0.110307	-0.865234	0.204346	0.619141	0.107440	0.016309	-0.032244	0.151483	-0.744956	-0.266168	-0.592662	160.358477	-74.505087	54.321912
18656		11.585135	1.409585	-3.889015	-0.446593	-0.687510	2.461381	-0.078725	-1.222290	-0.079663	-0.858154	0.199951	0.625977	0.116092	0.014035	-0.038187	0.149334	-0.748569	-0.267141	-0.588200	161.003446	-73.822518	53.605789
18657		12.083236	1.156011	-4.233584	-0.692179	-0.475012	3.015355	-0.007543	-0.743959	-0.079908	-0.853516	0.197998	0.632813	0.120993	0.011510	-0.041886	0.148083	-0.750692	-0.267946	-0.585438	161.340591	-73.400234	53.249265
18658		12.353965	1.074334	-4.026918	-0.480730	-0.193536	3.215056	0.250477	-0.181871	-0.130869	-0.860596	0.202148	0.628174	0.123583	0.010713	-0.040143	0.148405	-0.750915	-0.269293	-0.584452	161.381608	-73.270880	53.357421
18659		12.320036	1.001011	-3.281841	0.066048	0.265235	2.973283	0.584157	0.210291	-0.202971	-0.858154	0.199951	0.628418	0.123176	0.009981	-0.032919	0.150295	-0.749630	-0.271580	-0.584561	161.240435	-73.343842	53.853790
18660		12.353055	0.960939	-2.236919	0.856298	0.868118	2.718802	0.776092	0.259625	-0.262892	-0.860840	0.206543	0.625732	0.123514	0.009534	-0.022492	0.152796	-0.747976	-0.274625	-0.584608	161.070046	-73.429345	54.496807
18661		12.575900	1.202242	-1.223870	1.818380	1.293625	2.681971	0.818164	0.037801	-0.277616	-0.860596	0.204346	0.623535	0.125773	0.011898	-0.012214	0.155101	-0.746893	-0.277999	-0.583791	161.030466	-73.394267	55.026747
18662		13.074007	1.552572	-0.103021	2.992809	1.788674	2.883545	0.642741	-0.207110	-0.225558	-0.872070	0.206299	0.627930	0.130758	0.015381	-0.000845	0.156563	-0.746732	-0.280866	-0.582232	161.142862	-73.233501	55.295030
18663		13.782460	1.942036	0.955924	4.189070	2.280868	3.298022	0.131618	-0.260350	-0.107294	-0.871826	0.204102	0.625977	0.137822	0.019340	0.009751	0.156380	-0.747275	-0.281828	-0.581118	161.204106	-73.068681	55.309086
18664		15.282745	2.578059	2.851154	6.300341	3.189117	4.275344	-0.790391	0.240781	0.064838	-0.869385	0.199707	0.623779	0.152853	0.025942	0.028225	0.153961	-0.747331	-0.279088	-0.583012	160.742201	-73.204608	55.319706
18665		15.764203	2.492348	2.871107	6.249918	3.239924	4.795483	-1.916365	1.543622	0.261817	-0.880127	0.188232	0.611084	0.157823	0.025396	0.027252	0.149711	-0.744652	-0.271288	-0.591171	159.108823	-74.083595	55.876779
18666		12.554761	0.315263	1.296897	3.074298	3.215202	2.002958	-1.584025	1.852057	0.302878	-0.891113	0.181396	0.595947	0.125655	0.003439	0.011779	0.147219	-0.740770	-0.264061	-0.599881	157.385122	-75.127237	56.724368
18667		10.579950	-0.855632	0.814520	1.625910	3.370091	0.153696	-1.009827	1.098592	0.086923	-0.890869	0.176758	0.593994	0.105846	-0.008471	0.007607	0.145192	-0.738346	-0.259867	-0.605172	156.045855	-75.722890	57.509328
18668		9.844999	-0.168197	0.193985	1.355241	2.290417	-0.330747	-0.425986	0.223280	-0.184706	-0.897461	0.169922	0.587646	0.098450	-0.001769	0.001834	0.143360	-0.737790	-0.259086	-0.606620	155.244266	-75.789847	58.085681
18669		9.536071	1.058260	-0.068592	1.772373	1.095146	-0.446764	-0.038074	-0.258925	-0.267793	-0.899414	0.163330	0.596924	0.095376	0.010455	-0.000564	0.142077	-0.738291	-0.260115	-0.605872	154.944184	-75.588366	58.371638
18670		8.748510	1.490107	-0.246596	1.766449	0.507799	-1.127101	-0.362676	-0.167084	-0.232752	-0.895020	0.165527	0.596924	0.087504	0.014795	-0.002420	0.139826	-0.738803	-0.259982	-0.605829	154.458048	-75.439002	58.660270
18671		7.921415	1.363821	-0.714548	1.182497	0.201430	-1.832688	-1.056259	0.258865	-0.168297	-0.892334	0.156738	0.593018	0.079216	0.013533	-0.007320	0.135753	-0.738564	-0.257189	-0.608234	153.288345	-75.527450	59.241927
18672		7.470976	1.135163	-1.320371	0.445517	-0.018168	-2.154473	-1.601320	0.547746	-0.166282	-0.900391	0.136475	0.598633	0.074682	0.011182	-0.013498	0.130044	-0.737798	-0.252541	-0.612345	151.504090	-75.755903	60.137788
18673		8.791789	1.247789	-2.105634	-0.066769	-0.213030	-0.689326	-1.866830	0.407414	-0.312767	-0.906738	0.123047	0.597168	0.087894	0.012142	-0.021350	0.122711	-0.737373	-0.247670	-0.616347	149.385832	-75.868554	61.217739
18674		10.618467	1.477321	-2.889492	-0.474877	-0.350374	1.274891	-2.036660	-0.025868	-0.333246	-0.901611	0.112061	0.595703	0.106213	0.014301	-0.029028	0.114149	-0.738303	-0.242612	-0.618884	147.638522	-75.751201	61.817547
18675		10.698508	2.143004	-3.572443	-0.780145	-1.148502	1.583997	-1.886947	-0.289410	-0.261869	-0.905273	0.091797	0.605957	0.107064	0.020953	-0.035769	0.106019	-0.739962	-0.237860	-0.620193	146.441537	-75.528747	61.935285
18676		9.029577	2.337865	-3.399912	-0.777273	-1.550789	-0.037772	-1.223118	-0.077396	-0.046872	-0.902832	0.087402	0.599365	0.090314	0.023149	-0.034106	0.101267	-0.740834	-0.234264	-0.621313	145.783131	-75.472317	61.892655
18677		7.559821	2.273826	-2.617642	-0.343748	-1.465617	-1.633031	-0.685162	0.460793	0.032723	-0.904785	0.080811	0.602051	0.075534	0.022660	-0.026428	0.099372	-0.739819	-0.231745	-0.623768	144.889871	-75.698575	62.407744
18678		7.938708	2.742875	-2.176776	0.240148	-1.615029	-1.291053	-0.575878	0.785792	-0.101832	-0.916016	0.078125	0.597656	0.079314	0.027325	-0.022158	0.097847	-0.737582	-0.229918	-0.627325	143.359219	-76.024860	63.647092
18679		8.528659	3.604445	-2.226487	0.575757	-2.278923	-0.584378	-0.517264	0.732864	-0.192296	-0.915771	0.071533	0.586914	0.085239	0.035904	-0.022670	0.096181	-0.735347	-0.228610	-0.630676	141.697231	-76.289708	65.051792
18680		8.908037	4.499888	-2.446872	0.759581	-3.081112	-0.039314	-0.390727	0.343773	-0.218578	-0.917969	0.073730	0.595703	0.089087	0.044853	-0.024710	0.094461	-0.734252	-0.228001	-0.632429	140.601193	-76.360631	65.950553
18681		9.872746	4.926078	-2.533395	0.944910	-3.265963	0.985275	-0.331744	-0.336469	-0.167902	-0.908691	0.067139	0.596191	0.098811	0.049136	-0.025249	0.092334	-0.735320	-0.227693	-0.631613	140.634585	-76.149311	65.718992
18682		10.724410	4.438552	-2.499263	0.885628	-2.586540	1.740862	-0.616479	-1.207695	-0.048196	-0.908447	0.060547	0.607666	0.107404	0.044284	-0.024481	0.088552	-0.739400	-0.226461	-0.627822	141.949874	-75.588080	63.999596
18683		10.307040	3.079960	-2.592641	0.257402	-1.442741	1.155143	-1.359845	-1.821828	0.133127	-0.887695	0.050049	0.626221	0.103282	0.030695	-0.025195	0.081878	-0.745865	-0.222459	-0.622490	143.809522	-74.799834	61.268688
18684		9.316527	1.488606	-3.022516	-0.816262	-0.342868	0.054610	-1.829504	-1.779432	0.353539	-0.878662	0.045654	0.639893	0.093404	0.014779	-0.029530	0.074184	-0.752536	-0.216141	-0.617632	145.504181	-74.080730	58.422681
18685		8.842858	-0.009315	-3.292526	-1.636140	0.861133	-0.559735	-1.821873	-1.326117	0.519939	-0.869629	0.043701	0.651367	0.088645	-0.000159	-0.032337	0.067499	-0.757860	-0.209000	-0.614338	146.798727	-73.613234	55.986478
18686		8.709368	-1.122793	-3.563422	-2.254315	1.793886	-0.784336	-1.548238	-0.736047	0.527140	-0.862305	0.030518	0.654297	0.087253	-0.011272	-0.035226	0.062495	-0.761216	-0.202470	-0.612904	147.570465	-73.417670	54.257731
18687		8.476924	-1.198681	-3.754720	-2.444124	1.772055	-0.965145	-0.886541	-0.192465	0.373404	-0.866699	0.028320	0.656738	0.084828	-0.011995	-0.037412	0.060079	-0.762491	-0.198353	-0.612907	147.891567	-73.436625	53.391559
18688		8.036824	-0.437579	-3.280388	-1.791995	1.133376	-1.383741	-0.003132	0.193537	0.119177	-0.864502	0.032715	0.656494	0.080339	-0.004328	-0.032882	0.060640	-0.762068	-0.197813	-0.613551	147.914582	-73.561948	53.366850
18689		7.824223	0.206920	-2.356774	-0.757095	0.788185	-1.711997	0.535616	0.286986	-0.023897	-0.862549	0.037109	0.653809	0.078209	0.002123	-0.023674	0.062901	-0.761037	-0.199422	-0.614082	147.908274	-73.692025	53.692072
18690		7.803624	0.695003	-1.602455	0.101414	0.582815	-1.837884	0.334774	0.130133	-0.031236	-0.860107	0.030518	0.652100	0.078027	0.006965	-0.016064	0.064224	-0.760552	-0.200509	-0.614192	147.941440	-73.740797	53.858512
18691		7.949677	1.342139	-1.556054	0.417996	0.040070	-1.612463	-0.268918	-0.151092	0.062567	-0.862061	0.028320	0.663330	0.079504	0.013425	-0.015519	0.063250	-0.761205	-0.199456	-0.613827	148.072415	-73.684166	53.560145
18692		8.063347	1.647869	-1.851749	0.299623	-0.313370	-1.388080	-0.613975	-0.338549	0.238553	-0.853271	0.030762	0.667725	0.080645	0.016518	-0.018432	0.061323	-0.762723	-0.196752	-0.613011	148.492422	-73.586064	52.756934
18693		8.397107	1.068104	-1.777479	0.234435	0.313244	-1.172173	-0.794859	-0.450776	0.386742	-0.850830	0.028564	0.670166	0.083990	0.010773	-0.017628	0.059038	-0.764762	-0.192937	-0.611906	149.154610	-73.477123	51.589773
18694		8.432736	0.357921	-1.983820	-0.171203	0.901273	-1.191031	-0.953461	-0.432785	0.424174	-0.850830	0.026367	0.677002	0.084362	0.003664	-0.019673	0.056288	-0.766816	-0.188504	-0.610975	149.763130	-73.381935	50.386090
18695		8.434163	0.493676	-2.414446	-0.480587	0.637488	-1.062206	-0.635254	-0.380831	0.332142	-0.850830	0.026367	0.674805	0.084379	0.005000	-0.024000	0.054516	-0.768507	-0.185355	-0.609974	150.337851	-73.285225	49.404682
18696		9.247214	0.964352	-2.515287	-0.218215	0.349040	-0.189900	-0.059500	-0.403352	0.137647	-0.843994	0.022217	0.686035	0.092516	0.009700	-0.024969	0.054349	-0.769930	-0.184736	-0.608380	150.933929	-73.117204	48.747590
18697		9.814376	1.466775	-2.469866	0.156248	0.031142	0.412184	0.327536	-0.515851	-0.046945	-0.839600	0.028809	0.683350	0.098210	0.014685	-0.024421	0.055000	-0.771404	-0.186011	-0.606061	151.532385	-72.842560	48.316459
18698		9.897156	2.059682	-2.335896	0.568143	-0.436170	0.538106	0.469140	-0.627281	-0.108331	-0.835693	0.037842	0.691895	0.099055	0.020597	-0.023000	0.055913	-0.773120	-0.188003	-0.603170	152.194757	-72.490908	47.905333
18699		9.651717	2.510208	-2.111190	0.950679	-0.810446	0.304275	0.372088	-0.570186	-0.120665	-0.822021	0.036133	0.696533	0.096592	0.025083	-0.020790	0.056463	-0.774658	-0.189710	-0.600606	152.712211	-72.166649	47.584816
18700		9.433973	2.712234	-1.858463	1.260102	-0.940952	0.053240	0.138306	-0.428483	-0.111106	-0.828613	0.031494	0.694580	0.094394	0.027083	-0.018364	0.056274	-0.775848	-0.190658	-0.598784	152.987005	-71.913569	47.380423
18701		9.363470	2.652519	-1.767847	1.335442	-0.852752	-0.049232	-0.090001	-0.259829	-0.100258	-0.831055	0.033691	0.698730	0.093671	0.026470	-0.017569	0.055386	-0.776595	-0.190810	-0.597850	153.006519	-71.752102	47.304206
18702		9.458360	2.517375	-1.603366	1.471279	-0.641832	-0.025353	-0.190514	-0.177257	-0.004019	-0.828857	0.035889	0.703125	0.094598	0.025157	-0.015974	0.054481	-0.777224	-0.190286	-0.597283	153.054623	-71.654939	47.139747
18703		9.068395	2.577726	-1.617486	1.406228	-0.785240	-0.383868	-0.151173	-0.132249	-0.014838	-0.824219	0.031494	0.701172	0.090697	0.025758	-0.016134	0.053734	-0.777683	-0.189889	-0.596878	153.069070	-71.580964	47.032052
18704		8.936739	2.398987	-1.406461	1.515664	-0.581553	-0.595143	0.065072	-0.108194	0.017031	-0.826660	0.035889	0.703125	0.089373	0.024002	-0.014008	0.053951	-0.778055	-0.190027	-0.596329	153.240305	-71.524442	46.892021
18705		9.091990	2.410158	-1.221857	1.735384	-0.494784	-0.500884	0.036415	-0.180385	-0.018500	-0.828613	0.033691	0.709961	0.090933	0.024095	-0.012132	0.053876	-0.778603	-0.190217	-0.595560	153.391486	-71.424725	46.753341
18706		9.226372	2.518599	-1.537910	1.537561	-0.654171	-0.271075	-0.009799	-0.255866	-0.000506	-0.826416	0.033691	0.707764	0.092283	0.025185	-0.015262	0.053608	-0.779417	-0.190240	-0.594511	153.602575	-71.287737	46.525816
18707		9.460139	2.895288	-1.936400	1.387135	-1.062650	0.115714	-0.036724	-0.264665	0.011056	-0.822021	0.033936	0.707764	0.094625	0.028955	-0.019244	0.053255	-0.780261	-0.190120	-0.593474	153.815159	-71.151934	46.277723
18708		9.792976	2.857016	-2.147752	1.275094	-1.012781	0.484213	0.007162	-0.099773	0.071816	-0.819824	0.038330	0.705322	0.097930	0.028606	-0.021428	0.053417	-0.780674	-0.189868	-0.592997	154.024109	-71.112958	46.062425
18709		9.865397	2.862672	-2.361899	1.097219	-1.075281	0.615129	-0.259083	0.130766	0.105560	-0.819580	0.029297	0.703613	0.098623	0.028648	-0.023721	0.052852	-0.780491	-0.188615	-0.593688	153.957716	-71.204223	45.974552
18710		9.821657	2.941074	-2.925593	0.577242	-1.345964	0.748041	-0.225337	0.352192	0.101124	-0.819824	0.038330	0.705322	0.098150	0.029427	-0.029462	0.052621	-0.779649	-0.187439	-0.595185	153.742893	-71.405184	46.066220
18711		9.547647	2.874728	-3.006956	0.378054	-1.396974	0.500833	0.079959	0.542012	0.089087	-0.826660	0.040283	0.696289	0.095382	0.028802	-0.030317	0.053714	-0.778132	-0.187149	-0.597160	153.531592	-71.703459	46.335976
18712		9.591352	2.864492	-3.010253	0.335711	-1.410242	0.539085	0.315742	0.652672	0.037592	-0.829346	0.049316	0.693359	0.095809	0.028711	-0.030370	0.055681	-0.776179	-0.187750	-0.599329	153.284294	-72.041846	46.787717
18713		10.550856	2.953525	-3.192484	0.358900	-1.368673	1.511335	0.471104	0.615680	0.014662	-0.835693	0.042480	0.684814	0.105408	0.029619	-0.032180	0.058143	-0.774247	-0.188897	-0.601231	153.102503	-72.357962	47.261435
18714		11.795633	2.857344	-3.517710	0.252360	-1.143386	2.769223	0.523787	0.402294	0.067925	-0.840576	0.046631	0.682373	0.117876	0.028706	-0.035339	0.060771	-0.772996	-0.190072	-0.602209	153.208269	-72.575576	47.466416
18715		12.920440	2.425968	-3.789624	0.070270	-0.624977	3.854378	0.453520	0.097931	0.173483	-0.832031	0.058105	0.681641	0.129165	0.024458	-0.037904	0.063148	-0.772762	-0.190703	-0.602066	153.691842	-72.667568	47.230906
18716		12.633191	1.452812	-3.863291	-0.394972	0.142505	3.471013	0.237215	-0.041926	0.302134	-0.834473	0.062500	0.679199	0.126318	0.014765	-0.038589	0.064949	-0.773151	-0.190245	-0.601520	154.386215	-72.716015	46.647129
18717		10.436397	0.650887	-3.508141	-0.815023	0.478779	1.176190	0.122860	0.306666	0.284890	-0.838867	0.062256	0.679199	0.104301	0.006679	-0.035237	0.066585	-0.772494	-0.189381	-0.602457	154.709929	-72.942015	46.381351
18718		9.442813	0.565392	-2.906653	-0.536274	0.499744	0.056318	0.334611	0.678240	0.149314	-0.848145	0.066650	0.676758	0.094325	0.005773	-0.029377	0.068984	-0.770526	-0.189567	-0.604644	154.634092	-73.324044	46.662099
18719		10.100582	0.766230	-2.314205	0.167507	0.613393	0.558425	0.657195	0.384127	0.010126	-0.845947	0.071045	0.669678	0.100961	0.007744	-0.023311	0.071921	-0.769179	-0.191349	-0.605456	154.733230	-73.522631	46.950742
18720		10.540129	0.717873	-2.137520	0.409974	0.799253	0.928426	0.751378	-0.453163	-0.028986	-0.843994	0.077881	0.680420	0.105450	0.007243	-0.021109	0.074305	-0.770296	-0.193878	-0.602937	155.505581	-73.274222	46.595195
18721		11.303037	0.397425	-2.436206	0.275239	1.177442	1.693279	0.562799	-1.417259	-0.005399	-0.828613	0.082764	0.689209	0.113199	0.004038	-0.023549	0.075091	-0.774369	-0.196085	-0.596879	156.904295	-72.526872	45.468417
18722		12.507897	-0.033138	-3.446197	-0.342929	1.544530	3.064275	0.134850	-1.978303	0.068944	-0.814941	0.083008	0.707031	0.125412	-0.000266	-0.033223	0.073890	-0.780302	-0.196936	-0.588970	158.443033	-71.487075	43.933042
18723		12.946971	-0.653434	-4.893137	-1.538753	1.787303	3.841130	-0.105862	-1.733587	0.198752	-0.803711	0.083252	0.713623	0.129894	-0.006431	-0.047803	0.072364	-0.785650	-0.196448	-0.582174	159.742675	-70.596264	42.494065
18724		11.858774	-1.393042	-5.574081	-2.540854	2.021527	2.958309	0.205525	-0.594920	0.229776	-0.799561	0.087891	0.713379	0.118769	-0.013737	-0.055402	0.073270	-0.787577	-0.196339	-0.579486	160.555765	-70.313850	41.757406
18725		9.532403	-1.274959	-4.724388	-2.321713	1.641048	0.518221	0.782028	0.870423	0.058351	-0.811035	0.094238	0.706299	0.095121	-0.012536	-0.047707	0.077386	-0.784848	-0.198019	-0.582077	160.641858	-70.792163	42.140808
18726		7.757282	-0.484644	-3.501124	-1.459708	0.869355	-1.459288	1.271836	1.853940	-0.076657	-0.827393	0.107178	0.692139	0.077242	-0.004650	-0.035758	0.083999	-0.778885	-0.201274	-0.588023	160.219649	-71.771834	43.357148
18727		7.120686	0.124447	-2.505405	-0.604212	0.447324	-2.300738	1.588143	2.109810	-0.098744	-0.836914	0.120361	0.666748	0.070938	0.001412	-0.025793	0.092027	-0.771881	-0.205393	-0.594596	159.682178	-72.885440	44.876188
18728		7.402033	0.413216	-1.862400	0.029930	0.408632	-2.179852	1.622393	1.712037	-0.085712	-0.848389	0.126709	0.652832	0.073859	0.004255	-0.019223	0.099800	-0.765954	-0.209729	-0.599473	159.335392	-73.780730	46.209652
18729		7.401561	0.630193	-1.734003	0.164243	0.205489	-2.189207	1.399690	0.952167	-0.055824	-0.848633	0.135498	0.647949	0.073934	0.006404	-0.017648	0.106012	-0.762347	-0.213626	-0.601624	159.384246	-74.277931	46.993563
18730		7.070823	0.710364	-1.975458	-0.092956	-0.067860	-2.437710	1.152951	0.242867	-0.003539	-0.849121	0.142334	0.649658	0.070684	0.007216	-0.019799	0.110668	-0.761040	-0.216960	-0.601248	159.891167	-74.401241	47.154316
18731		7.232232	0.445229	-2.265643	-0.424787	0.056095	-2.232918	0.790595	-0.166478	0.007000	-0.847168	0.148926	0.649414	0.072341	0.004544	-0.022578	0.113532	-0.761144	-0.219371	-0.599706	160.497210	-74.309359	46.995236
18732		7.408068	0.123816	-2.728139	-0.921074	0.166257	-1.972949	0.433320	-0.183343	-0.023268	-0.851563	0.151123	0.656006	0.074106	0.001289	-0.027211	0.114923	-0.761471	-0.220848	-0.598482	160.849436	-74.199254	46.888391
18733		7.454055	0.003566	-3.187401	-1.356725	0.074340	-1.820426	0.372186	0.084373	-0.099473	-0.845215	0.160156	0.644043	0.074527	0.000058	-0.031905	0.116150	-0.760935	-0.222262	-0.598404	160.840233	-74.222307	47.119321
18734		7.597983	0.026086	-3.271781	-1.407052	0.032920	-1.660780	0.576310	0.427543	-0.220670	-0.854248	0.157715	0.646484	0.075910	0.000272	-0.032879	0.118170	-0.759122	-0.224562	-0.599452	160.482119	-74.405019	47.835421
18735		7.906501	0.168594	-3.014285	-1.097250	0.065889	-1.421108	0.774053	0.585161	-0.346628	-0.856689	0.162109	0.641846	0.078979	0.001666	-0.030368	0.120745	-0.756551	-0.227821	-0.600957	159.865887	-74.649669	48.935454
18736		7.611874	0.345762	-2.645902	-0.785737	0.004966	-1.785020	0.881155	0.520886	-0.398806	-0.856934	0.168945	0.634766	0.076056	0.003423	-0.026642	0.123484	-0.754040	-0.231646	-0.602093	159.229775	-74.843038	50.119248
18737		6.953934	0.534088	-2.183874	-0.436516	-0.084383	-2.517891	0.984322	0.358389	-0.382017	-0.861084	0.164307	0.625977	0.069510	0.005316	-0.021937	0.126479	-0.751942	-0.235797	-0.602484	158.791806	-74.952726	51.157500
18738		6.332137	0.704147	-1.716171	-0.068049	-0.135931	-3.216180	1.028030	0.192189	-0.362616	-0.859375	0.173096	0.627686	0.063318	0.007015	-0.017186	0.129488	-0.750326	-0.240119	-0.602152	158.538602	-74.973386	52.030737
18739		6.076588	0.711320	-1.329702	0.219956	-0.001613	-3.555642	1.029532	-0.028254	-0.321212	-0.866211	0.175293	0.625244	0.060779	0.007084	-0.013252	0.132363	-0.749390	-0.244411	-0.600964	158.540590	-74.887382	52.639635
18740		6.385666	0.638771	-1.091986	0.443338	0.257202	-3.323126	0.883849	-0.367685	-0.284877	-0.864014	0.179688	0.629639	0.063886	0.006345	-0.010774	0.134380	-0.749604	-0.248362	-0.598625	158.797207	-74.625450	52.899691
18741		6.933920	0.736687	-1.360285	0.395049	0.187292	-2.721786	0.646699	-0.781492	-0.228867	-0.859619	0.179932	0.634033	0.069400	0.007331	-0.013308	0.135161	-0.751256	-0.251651	-0.594994	159.326858	-74.156817	52.734542
18742		7.805965	0.808749	-1.862855	0.226024	0.108500	-1.750813	0.503625	-1.096006	-0.136537	-0.850830	0.182373	0.647217	0.078166	0.008080	-0.018180	0.135276	-0.754042	-0.254386	-0.590262	160.138034	-73.534175	52.191611
18743		8.120644	0.872112	-2.439603	-0.076809	-0.113564	-1.289925	0.344175	-1.133769	-0.063286	-0.843994	0.182617	0.654053	0.081346	0.008737	-0.023920	0.134953	-0.757104	-0.256375	-0.585537	160.961239	-72.905541	51.537481
18744		8.358098	1.203508	-3.124880	-0.338557	-0.634467	-0.837528	0.307332	-0.770485	-0.111091	-0.837158	0.180420	0.656250	0.083707	0.012036	-0.030908	0.134812	-0.759054	-0.258201	-0.582233	161.423314	-72.460509	51.239088
18745		8.954111	1.299388	-3.200970	-0.189863	-0.583955	-0.234922	0.239357	-0.316082	-0.067412	-0.837402	0.185059	0.656006	0.089596	0.013002	-0.031853	0.135123	-0.759766	-0.259338	-0.580725	161.645093	-72.272347	51.149644
18746		8.937946	1.244748	-3.125539	-0.155390	-0.498403	-0.276824	-0.062054	0.193393	-0.042207	-0.842041	0.189453	0.662598	0.089352	0.012419	-0.031346	0.135025	-0.759242	-0.259175	-0.581505	161.449724	-72.363134	51.318553
18747		8.559798	1.025108	-3.034472	-0.305991	-0.375858	-0.686140	-0.226970	0.574998	0.028459	-0.843994	0.182617	0.649414	0.085509	0.010229	-0.030602	0.135002	-0.757797	-0.257992	-0.583916	161.052895	-72.676499	51.598129
18748		8.201182	0.917294	-2.746929	-0.248102	-0.255845	-1.122519	-0.230927	0.760702	0.059367	-0.850830	0.182373	0.647217	0.081904	0.009165	-0.027792	0.135290	-0.755854	-0.256564	-0.586988	160.583022	-73.092747	51.952496
18749		7.987503	0.803569	-2.444712	-0.152323	-0.090956	-1.422764	-0.174234	0.650326	0.053023	-0.848633	0.184570	0.638184	0.079793	0.008035	-0.024714	0.135630	-0.754166	-0.255386	-0.589589	160.182505	-73.450303	52.266134
18750		7.965737	0.900688	-2.371014	-0.075974	-0.163406	-1.454854	-0.057269	0.335981	0.044554	-0.857422	0.179932	0.645264	0.079615	0.009018	-0.023846	0.135985	-0.753322	-0.254808	-0.590835	160.033614	-73.633509	52.388335
18751		8.214764	1.018341	-2.360549	0.034030	-0.209628	-1.207663	0.082529	-0.082945	0.044811	-0.855225	0.184570	0.640381	0.082155	0.010212	-0.023567	0.136331	-0.753609	-0.254914	-0.590344	160.239328	-73.593608	52.222790
18752		8.827326	1.070307	-2.570611	0.022929	-0.213952	-0.559103	0.202221	-0.458081	0.033068	-0.851074	0.191406	0.644531	0.088330	0.010744	-0.025493	0.136616	-0.754915	-0.255685	-0.588273	160.734880	-73.346006	51.827897
18753		9.842183	1.021089	-2.929175	-0.063875	-0.103336	0.506038	0.259996	-0.649732	0.037522	-0.848877	0.191406	0.644531	0.098514	0.010267	-0.028958	0.136888	-0.756732	-0.256726	-0.585415	161.372010	-72.996993	51.317865
18754		10.848793	0.993125	-3.164920	-0.022783	0.057878	1.531698	0.241217	-0.570488	0.039338	-0.846436	0.189209	0.644531	0.108576	0.009991	-0.031328	0.137193	-0.758335	-0.257660	-0.582853	161.935539	-72.687154	50.873901
18755		11.458859	0.872828	-3.126718	0.104546	0.333571	2.091991	0.252856	-0.223791	0.045497	-0.846680	0.191406	0.648926	0.114621	0.008794	-0.031128	0.138009	-0.758908	-0.258353	-0.581607	162.304825	-72.569596	50.638840
18756		11.881399	0.586439	-2.605920	0.459685	0.925001	2.321371	0.354878	0.220918	0.024830	-0.848877	0.191406	0.651123	0.118784	0.005926	-0.026180	0.139722	-0.758102	-0.259126	-0.581905	162.451252	-72.687776	50.699631
18757		12.202396	0.349703	-1.692208	1.096325	1.631731	2.353639	0.471992	0.561363	-0.032896	-0.853516	0.195801	0.646484	0.121976	0.003517	-0.017256	0.142150	-0.756129	-0.260205	-0.583400	162.367315	-72.984945	51.070173
18758		12.426496	0.510705	-0.536774	2.099454	2.108640	2.274994	0.501427	0.724789	-0.067845	-0.860352	0.199951	0.628418	0.124246	0.005079	-0.005805	0.144800	-0.753614	-0.261395	-0.585467	162.136635	-73.361859	51.612482
18759		12.597513	0.816831	0.437270	3.013802	2.367105	2.223462	0.380831	0.725466	-0.078739	-0.867432	0.204346	0.621338	0.125993	0.008111	0.003931	0.146961	-0.751141	-0.262255	-0.587717	161.792950	-73.739782	52.198150
18760		12.684394	1.195430	1.186605	3.776738	2.438128	2.167386	0.142220	0.640591	-0.056335	-0.874023	0.199707	0.621582	0.126884	0.011910	0.011468	0.148179	-0.749128	-0.262401	-0.589912	161.390938	-74.071171	52.702530
18761		12.814842	1.333367	1.692896	4.225414	2.589107	2.200053	-0.181674	0.512614	-0.029135	-0.875977	0.197266	0.617432	0.128193	0.013330	0.016588	0.148096	-0.747743	-0.261570	-0.592055	160.915219	-74.340947	53.088635
18762		12.992306	1.292961	1.843570	4.312059	2.707959	2.350512	-0.618347	0.304347	-0.013274	-0.878174	0.192871	0.615479	0.129952	0.012977	0.018198	0.146152	-0.747330	-0.259552	-0.593945	160.353389	-74.496377	53.305254
18763		12.884846	1.014922	1.372157	3.737338	2.637522	2.353161	-1.053902	0.075422	0.006664	-0.884277	0.181641	0.615967	0.128853	0.010225	0.013619	0.142337	-0.747908	-0.256313	-0.595548	159.728691	-74.535511	53.326196
18764		12.414069	0.425119	0.407514	2.548832	2.512083	2.088942	-1.329748	-0.077165	0.012398	-0.870361	0.168457	0.625732	0.124139	0.004286	0.004095	0.137310	-0.749136	-0.252344	-0.596878	159.073144	-74.490214	53.217003
18765		12.051560	-0.014811	-0.729255	1.323364	2.231459	1.978894	-1.409550	-0.130233	0.005231	-0.870117	0.161865	0.624023	0.120520	-0.000196	-0.007213	0.131880	-0.750515	-0.248172	-0.598118	158.391322	-74.418969	53.084910
18766		11.884123	-0.128766	-1.804943	0.340579	1.782869	2.070581	-1.357440	-0.036173	-0.070488	-0.874023	0.148438	0.629150	0.118844	-0.001452	-0.018018	0.126539	-0.751465	-0.244383	-0.599637	157.533930	-74.378370	53.168751
18767		11.820145	0.093062	-2.480241	-0.149560	1.286175	2.195610	-1.207736	0.181729	-0.190012	-0.873535	0.139404	0.625244	0.118180	0.000668	-0.024914	0.121652	-0.751474	-0.241324	-0.601872	156.356312	-74.428856	53.671213
18768		11.971622	0.490466	-2.925296	-0.358608	0.806867	2.489238	-1.218509	0.306665	-0.330478	-0.882080	0.128174	0.616943	0.119679	0.004528	-0.029465	0.116459	-0.750930	-0.238694	-0.604621	154.804124	-74.504631	54.558777
18769		12.004648	1.388121	-3.291776	-0.294909	-0.080003	2.708498	-1.111701	0.251897	-0.400904	-0.879395	0.119141	0.624268	0.120032	0.013457	-0.033145	0.111375	-0.750357	-0.236655	-0.607086	153.212933	-74.531745	55.547309
18770		10.519269	1.610604	-2.920124	-0.158625	-0.392805	1.214389	-0.769839	0.262101	-0.239831	-0.885986	0.110107	0.625000	0.105173	0.015867	-0.029400	0.108081	-0.749753	-0.235056	-0.609047	152.108842	-74.596487	56.236280
18771		7.885536	1.197651	-1.871985	0.106123	-0.139140	-1.621865	-0.640213	0.441176	-0.049315	-0.888184	0.110107	0.622559	0.078817	0.011897	-0.018932	0.106052	-0.748728	-0.233017	-0.611443	151.234179	-74.803516	56.761132
18772		6.240850	1.219535	-1.356418	0.284409	-0.298613	-3.323841	-0.561806	0.556080	-0.049935	-0.892334	0.103271	0.614014	0.062373	0.012141	-0.013772	0.104456	-0.747315	-0.231176	-0.614139	150.271538	-75.062244	57.425845
18773		6.123972	1.593746	-1.190056	0.553932	-0.584356	-3.424347	-0.330179	0.401827	-0.116423	-0.892334	0.103271	0.616455	0.061225	0.015882	-0.012050	0.103336	-0.746153	-0.230353	-0.616048	149.452406	-75.226086	58.076226
18774		6.930209	2.075311	-1.215307	0.851243	-0.838218	-2.574977	-0.170480	-0.071235	-0.111129	-0.894531	0.101074	0.616455	0.069318	0.020704	-0.012146	0.102289	-0.746385	-0.230265	-0.615975	149.257464	-75.153417	58.177986
18775		7.668712	2.592386	-1.381258	1.065680	-1.180348	-1.756113	-0.253645	-0.664109	-0.113146	-0.894287	0.094482	0.621338	0.076747	0.025863	-0.013591	0.100237	-0.748463	-0.230210	-0.613807	149.648502	-74.790863	57.621347
18776		8.134152	3.298550	-1.980872	0.987544	-1.910416	-1.075227	-0.410198	-1.101082	-0.120525	-0.882813	0.092529	0.632568	0.081469	0.032896	-0.019428	0.097075	-0.751948	-0.229936	-0.610147	150.364516	-74.204743	56.635571
18777		8.668678	3.683995	-2.475500	0.878003	-2.282575	-0.385903	-0.547623	-1.122119	-0.060105	-0.873535	0.083740	0.648926	0.086835	0.036747	-0.024369	0.093547	-0.755591	-0.228997	-0.606541	151.058713	-73.625088	55.585118
18778		9.077560	3.256848	-2.755310	0.550787	-1.884663	0.023237	-0.774550	-0.716010	0.060828	-0.875732	0.083740	0.653320	0.090864	0.032490	-0.027354	0.089997	-0.758236	-0.226735	-0.604624	151.409487	-73.276878	54.757389
18779		9.240882	2.329680	-2.986726	-0.037749	-1.104289	0.113084	-0.969760	-0.091171	0.161338	-0.870850	0.074951	0.653809	0.092404	0.023226	-0.029938	0.086708	-0.759160	-0.223195	-0.605262	151.227766	-73.272987	54.365350
18780		9.309433	1.282196	-2.840388	-0.395519	-0.109224	-0.004080	-0.859409	0.444249	0.215900	-0.875244	0.072510	0.649658	0.093017	0.012800	-0.028666	0.084607	-0.758472	-0.219563	-0.607745	150.711153	-73.550250	54.391771
18781		8.413332	0.356460	-2.157338	-0.394827	0.751491	-1.161424	-0.644877	0.713287	0.206776	-0.877686	0.074707	0.649414	0.084052	0.003581	-0.021885	0.083578	-0.756833	-0.216480	-0.611028	150.023017	-73.961834	54.722181
18782		7.462246	-0.019295	-1.551144	-0.220519	1.080473	-2.271120	-0.364628	0.728722	0.115920	-0.880127	0.079102	0.640137	0.074565	-0.000178	-0.015783	0.083354	-0.754930	-0.214605	-0.614066	149.302059	-74.350596	55.255597
18783		6.844374	0.258307	-0.996102	0.255359	0.889385	-2.953530	-0.071044	0.597858	0.010339	-0.884277	0.074707	0.633789	0.068413	0.002583	-0.010166	0.083769	-0.753171	-0.214064	-0.616354	148.667903	-74.645190	55.870470
18784		7.057095	1.124575	-0.641052	0.942858	0.286982	-2.705873	0.151527	0.388406	-0.050163	-0.882080	0.074707	0.631592	0.070561	0.011233	-0.006539	0.084615	-0.751908	-0.214541	-0.617614	148.269261	-74.814869	56.374850
18785		7.725770	1.799085	-0.276934	1.638416	-0.031931	-2.046383	0.068966	0.096036	-0.025587	-0.884033	0.067871	0.636475	0.077259	0.017982	-0.002800	0.084908	-0.751593	-0.214775	-0.617875	148.180661	-74.852004	56.506439
18786		7.666828	2.040020	-0.232842	1.769634	-0.244679	-2.079339	-0.259913	-0.032888	0.034612	-0.886475	0.072266	0.633789	0.076665	0.020410	-0.002342	0.084017	-0.751894	-0.213840	-0.617955	148.161555	-74.841519	56.373104
18787		7.621902	1.757624	-0.280049	1.600701	-0.026625	-2.151218	-0.438126	-0.052478	0.119137	-0.881836	0.070313	0.636230	0.076209	0.017615	-0.002819	0.082688	-0.752405	-0.212024	-0.618138	148.207321	-74.849900	56.064020
18788		7.606879	1.346751	-0.367323	1.350465	0.295678	-2.203346	-0.480911	-0.088860	0.150994	-0.879639	0.068115	0.634033	0.076060	0.013516	-0.003672	0.081265	-0.753089	-0.209990	-0.618189	148.333275	-74.847147	55.649218
18789		7.791084	1.133029	-0.316350	1.344759	0.539462	-2.067663	-0.419078	-0.216004	0.155423	-0.881836	0.067871	0.634033	0.077905	0.011384	-0.003103	0.079948	-0.754126	-0.208160	-0.617714	148.635399	-74.786205	55.085859
18790		8.438547	1.214289	-0.460243	1.373567	0.549152	-1.403940	-0.290804	-0.456551	0.171714	-0.879639	0.068115	0.643066	0.084385	0.012209	-0.004428	0.078921	-0.755881	-0.206780	-0.616164	149.300064	-74.607728	54.225174
18791		9.027828	1.499071	-0.725224	1.397916	0.327014	-0.745532	-0.081915	-0.795766	0.173131	-0.868408	0.070557	0.649658	0.090293	0.015066	-0.006899	0.078329	-0.758575	-0.206149	-0.613133	150.406262	-74.261298	53.026714
18792		9.545725	1.592134	-0.890082	1.458040	0.310747	-0.209319	0.026567	-1.035824	0.203722	-0.861816	0.070801	0.660889	0.095485	0.016020	-0.008404	0.078001	-0.761991	-0.205844	-0.609027	151.808744	-73.792708	51.584920
18793		10.013049	1.774924	-1.310111	1.335210	0.111481	0.352542	-0.095027	-0.968637	0.219954	-0.853027	0.077637	0.666992	0.100173	0.017853	-0.012624	0.077318	-0.765232	-0.205055	-0.605305	153.026747	-73.356771	50.256803
18794		10.298046	1.806457	-1.656697	1.172265	0.028793	0.707878	-0.160352	-0.623148	0.255525	-0.850586	0.073242	0.669678	0.103008	0.018183	-0.016261	0.076853	-0.767489	-0.203814	-0.602922	153.924755	-73.097026	49.224101
18795		10.361836	1.609890	-1.670696	1.137854	0.205808	0.742570	-0.174695	-0.163163	0.301273	-0.848389	0.075439	0.669434	0.103608	0.016240	-0.016637	0.076933	-0.768390	-0.202157	-0.602321	154.490669	-73.085555	48.526628
18796		9.779885	1.389846	-1.602758	1.006548	0.273702	0.140125	-0.136262	0.210794	0.331533	-0.851074	0.082031	0.664551	0.097759	0.014050	-0.016140	0.077636	-0.768192	-0.200374	-0.603079	154.835272	-73.270190	48.086221
18797		9.052187	1.539779	-1.546496	0.962603	-0.036685	-0.551125	0.093843	0.394897	0.284269	-0.853271	0.084229	0.664551	0.090469	0.015534	-0.015636	0.079259	-0.767282	-0.199375	-0.604355	155.083732	-73.541856	47.881825
18798		8.834151	1.991853	-1.475524	1.153993	-0.502230	-0.724076	0.418046	0.278082	0.214458	-0.855713	0.088623	0.668701	0.088299	0.020044	-0.014836	0.081803	-0.766539	-0.199688	-0.604857	155.502918	-73.732064	47.695739
18799		8.893735	2.468287	-1.464730	1.380620	-0.941823	-0.617952	0.569759	-0.089251	0.200431	-0.854004	0.097656	0.666016	0.088919	0.024814	-0.014537	0.084513	-0.766808	-0.200642	-0.603827	156.281335	-73.729805	47.223646
18800		8.993028	2.890401	-1.660740	1.446691	-1.385160	-0.433185	0.479103	-0.520304	0.208174	-0.845215	0.104492	0.672119	0.089943	0.029037	-0.016304	0.086470	-0.768431	-0.201492	-0.601197	157.353497	-73.496623	46.393380
18801		9.048536	3.001099	-1.983753	1.291835	-1.591973	-0.293545	0.221880	-0.812510	0.246407	-0.840332	0.097900	0.677002	0.090528	0.030144	-0.019436	0.087255	-0.771053	-0.201527	-0.597704	158.520568	-73.115422	45.306650
18802		8.986527	2.824180	-2.320674	0.987880	-1.563377	-0.289103	-0.120722	-0.828348	0.282229	-0.831787	0.104980	0.683350	0.089920	0.028355	-0.022851	0.086812	-0.773909	-0.200421	-0.594441	159.519716	-72.723793	44.190214
18803		9.358322	2.691696	-3.012948	0.465052	-1.618013	0.240511	-0.307643	-0.633707	0.288098	-0.829590	0.104980	0.687744	0.093639	0.027006	-0.029874	0.085848	-0.776244	-0.198630	-0.592133	160.253587	-72.436498	43.234763
18804		9.887229	2.487365	-3.565168	0.051988	-1.527661	0.879281	-0.238148	-0.292993	0.260185	-0.827148	0.102783	0.685791	0.098892	0.024960	-0.035537	0.085417	-0.777520	-0.197024	-0.591056	160.758564	-72.321452	42.562929
18805		10.266129	2.356061	-4.009206	-0.296853	-1.509502	1.352051	0.018591	0.122113	0.201587	-0.832031	0.111572	0.687500	0.102613	0.023668	-0.040153	0.086213	-0.777384	-0.196208	-0.591392	161.058280	-72.422287	42.258328
18806		12.453584	2.626567	-4.859092	-0.465137	-1.659793	3.701374	0.384494	0.415058	0.110198	-0.838867	0.115967	0.682617	0.124420	0.026428	-0.048799	0.088455	-0.776145	-0.196720	-0.592516	161.246882	-72.661125	42.292723
18807		15.894938	2.608541	-5.608816	-0.399317	-1.296027	7.189449	0.690443	0.385606	0.160478	-0.827881	0.118408	0.675781	0.158820	0.026407	-0.056304	0.092001	-0.774882	-0.197940	-0.593223	161.715728	-72.896863	42.215456
18808		16.428505	1.366295	-5.494714	-0.700934	-0.114677	7.549602	0.653061	0.247644	0.364180	-0.832764	0.127197	0.675293	0.164191	0.014142	-0.055105	0.095870	-0.774251	-0.198335	-0.593302	162.620073	-73.089099	41.662208
18809		11.871471	-0.008766	-4.278936	-1.209986	0.613568	2.733222	0.397926	0.561399	0.457072	-0.834961	0.129150	0.661621	0.118594	0.000269	-0.043122	0.099333	-0.772876	-0.197445	-0.594821	163.387187	-73.469900	41.098560
18810		9.274444	0.043533	-3.504639	-1.117756	0.299891	0.034113	0.340377	1.025490	0.164491	-0.842285	0.140137	0.654297	0.092563	0.000572	-0.035520	0.102163	-0.769858	-0.197294	-0.598295	163.338059	-74.052976	41.354012
18811		10.662789	-0.235966	-3.050394	-0.617827	0.913346	1.225386	0.681049	0.721500	0.163207	-0.844482	0.140137	0.647705	0.106519	-0.002168	-0.030896	0.105996	-0.767535	-0.198304	-0.600275	163.648949	-74.472761	41.435964
18812		12.885236	-0.792530	-2.632269	-0.044674	1.944319	3.218185	0.484503	-0.417572	0.019178	-0.840088	0.142578	0.660889	0.128908	-0.007850	-0.026073	0.107513	-0.768597	-0.199890	-0.598116	164.224704	-74.238953	41.127495
18813		14.824184	-1.272822	-3.584227	-0.532443	2.408542	5.291328	0.000213	-1.943637	-0.056908	-0.824463	0.145264	0.678711	0.148577	-0.012770	-0.034399	0.105405	-0.774351	-0.201114	-0.590613	165.141504	-73.152620	40.171516
18814		14.322841	-1.798034	-5.354996	-2.090870	2.224544	5.277634	0.026629	-2.723628	0.168778	-0.797363	0.145752	0.694092	0.143955	-0.017852	-0.051595	0.103273	-0.782526	-0.201941	-0.579834	166.671430	-71.655322	38.583813
18815		11.979604	-2.138751	-6.045529	-3.100966	1.909881	3.277948	0.540464	-1.896303	0.127534	-0.791016	0.154785	0.702637	0.120376	-0.021149	-0.059373	0.103847	-0.787874	-0.203945	-0.571732	167.906382	-70.607018	37.605196
18816		10.050993	-1.762391	-5.515398	-2.861674	1.405680	1.340018	1.053090	-0.090224	-0.172910	-0.797852	0.156982	0.697998	0.100520	-0.017420	-0.055201	0.107422	-0.787446	-0.207664	-0.570320	168.283051	-70.528613	37.846777
18817		8.909407	-1.139598	-4.245250	-1.850595	1.062864	-0.110009	1.360622	1.381522	-0.258337	-0.807373	0.170166	0.686035	0.088783	-0.011219	-0.043143	0.113488	-0.782501	-0.211779	-0.574423	168.195013	-71.270020	38.764905
18818		8.053703	-0.618762	-3.029200	-0.921025	0.836198	-1.276255	1.379459	2.028876	-0.167751	-0.819092	0.176514	0.669922	0.080219	-0.006042	-0.031149	0.120556	-0.775704	-0.215215	-0.580889	167.987323	-72.380279	39.816523
18819		7.771561	-0.134717	-2.452132	-0.406994	0.498638	-1.687940	1.280595	2.056209	-0.010611	-0.839600	0.182617	0.654053	0.077458	-0.001191	-0.025327	0.127717	-0.768923	-0.217692	-0.587414	167.919480	-73.528106	40.655322
18820		7.819741	0.055293	-2.372114	-0.349778	0.277932	-1.653197	1.262897	1.575652	0.040178	-0.842285	0.193604	0.635254	0.078007	0.000721	-0.024332	0.134412	-0.763544	-0.220216	-0.591979	168.090169	-74.408589	41.231748
18821		7.967652	-0.054715	-2.449373	-0.513264	0.284789	-1.497595	1.075657	0.942169	0.035785	-0.846924	0.200195	0.630615	0.079560	-0.000400	-0.024871	0.139675	-0.760084	-0.222597	-0.594318	168.399004	-74.938026	41.550547
