// General information: 
//  MT Manager version: 2019.2.0 
//  XDA version: 2019.2.0 build 3853 rev 94535 built on 2019-09-09
// Device information: 
//  DeviceId: 00B40ACF
//  ProductCode: MTW2-3A7G6
//  Firmware Version: 4.3.5
//  Hardware Version: 1.1.0
// Device settings: 
//  Filter Profile: human(46.1)
//  Option Flags: Orientation Smoother Disabled, AHS Disabled, ICC Disabled
// Coordinate system: ENU
PacketCounter	SampleTimeFine	Acc_X	Acc_Y	Acc_Z	FreeAcc_E	FreeAcc_N	FreeAcc_U	Gyr_X	Gyr_Y	Gyr_Z	Mag_X	Mag_Y	Mag_Z	VelInc_X	VelInc_Y	VelInc_Z	Quat_q0	Quat_q1	Quat_q2	Quat_q3	Roll	Pitch	Yaw
18279		9.251991	-0.485916	-5.799107	1.449070	-4.796423	-0.098805	0.238626	0.195324	0.148727	-0.899902	0.057861	-0.593506	0.092467	-0.004721	-0.058087	0.559624	-0.034593	-0.793325	-0.237189	127.719439	-64.734357	-150.436421
18280		11.351544	0.174748	-3.058224	-1.460498	-3.505937	1.314568	0.677378	0.533960	0.011186	-0.895264	0.053467	-0.595459	0.113433	0.001858	-0.030879	0.561867	-0.032244	-0.792630	-0.234529	127.620489	-64.935170	-149.904478
18281		10.665056	3.656789	0.724921	-3.384404	1.266164	0.891686	0.635281	0.450803	-0.088187	-0.906250	0.048828	-0.597656	0.106683	0.036498	0.007125	0.563675	-0.029787	-0.792099	-0.232299	127.499991	-65.068375	-149.381843
18282		9.308660	6.042048	1.560977	-2.881159	4.003822	0.250239	0.176531	0.167551	-0.026438	-0.899658	0.053467	-0.599854	0.093108	0.060394	0.015585	0.564333	-0.029125	-0.791840	-0.231666	127.437451	-65.123570	-149.207557
18283		8.888536	6.214032	0.000400	-1.289986	3.626255	0.326664	-0.214946	0.008925	0.124785	-0.904053	0.048828	-0.599854	0.088847	0.062196	-0.000067	0.564507	-0.030431	-0.791527	-0.232142	127.419566	-65.199582	-149.336999
18284		8.743649	5.387087	-0.719415	-0.836341	2.644979	0.101655	-0.329260	0.005455	0.285191	-0.901611	0.046875	-0.606445	0.087359	0.053984	-0.007285	0.564807	-0.032617	-0.791090	-0.232608	127.461679	-65.340046	-149.597236
18285		7.657584	5.810072	-2.025083	0.867942	2.743512	-0.420341	-0.314507	0.000684	0.435818	-0.913330	0.057617	-0.600098	0.076449	0.058235	-0.020343	0.565294	-0.035428	-0.790625	-0.232593	127.632724	-65.554014	-149.995440
18286		7.559530	5.034863	-3.528781	2.011438	1.489921	-0.395540	-0.280513	0.023678	0.609375	-0.904297	0.057861	-0.600098	0.075437	0.050529	-0.035368	0.566042	-0.038737	-0.790124	-0.231949	127.943203	-65.847006	-150.518592
18287		8.071446	4.479654	-4.384938	2.444229	0.582995	0.093306	-0.165058	0.147875	0.744046	-0.913574	0.066406	-0.604492	0.080515	0.045060	-0.043946	0.567482	-0.042166	-0.789341	-0.230495	128.310588	-66.249911	-151.035720
18288		8.558549	4.019478	-5.022018	2.732841	-0.131140	0.538133	-0.123693	0.209671	0.814755	-0.918457	0.072998	-0.611084	0.085368	0.040512	-0.050335	0.569215	-0.045625	-0.788428	-0.228680	128.713858	-66.698593	-151.558953
18289		8.962773	3.310240	-4.911146	2.322209	-0.735521	0.650298	-0.097991	0.320800	0.832098	-0.918701	0.077637	-0.608887	0.089410	0.033451	-0.049271	0.571431	-0.049002	-0.787182	-0.226737	129.045721	-67.199722	-151.991148
18290		8.913326	2.344128	-4.455716	1.682316	-1.343448	0.195312	-0.041578	0.399711	0.802542	-0.919189	0.093018	-0.613525	0.088949	0.023789	-0.044740	0.573895	-0.051960	-0.785792	-0.224669	129.318025	-67.709298	-152.317846
18291		9.280732	1.495070	-3.581765	0.574105	-1.750270	0.076829	0.066242	0.469367	0.776340	-0.919434	0.097412	-0.620117	0.092664	0.015322	-0.036030	0.576647	-0.054476	-0.784288	-0.222267	129.564590	-68.237955	-152.553136
18292		9.258951	1.970275	-2.776048	0.108302	-0.935473	0.007143	0.161957	0.535788	0.727714	-0.919434	0.099854	-0.628906	0.092442	0.020062	-0.027992	0.579592	-0.056401	-0.782720	-0.219642	129.758763	-68.763220	-152.668118
18293		9.329475	2.515822	-2.037620	-0.305241	-0.103921	0.057256	0.132174	0.494562	0.698703	-0.926514	0.110840	-0.626709	0.093155	0.025497	-0.020590	0.582350	-0.058391	-0.781206	-0.217201	129.962102	-69.266319	-152.814717
18294		9.823759	2.228274	-1.261560	-1.175335	-0.077613	0.270713	0.106447	0.498368	0.669275	-0.922119	0.110840	-0.631104	0.098130	0.022618	-0.012848	0.585045	-0.060288	-0.779671	-0.214944	130.125902	-69.751864	-152.930456
18295		9.655388	2.677037	-1.062292	-1.075866	0.479865	0.193973	0.037620	0.438360	0.627453	-0.924561	0.119629	-0.635498	0.096446	0.027075	-0.010829	0.587458	-0.062340	-0.778212	-0.213057	130.285955	-70.202822	-153.088375
18296		9.631125	2.275903	-1.081268	-1.128894	0.156228	0.077116	-0.005504	0.396417	0.581667	-0.929443	0.126221	-0.640137	0.096223	0.023039	-0.011004	0.589610	-0.064330	-0.776858	-0.211455	130.432254	-70.612061	-153.252961
18297		9.521138	2.149879	-1.200581	-0.976054	0.048996	-0.026983	-0.035159	0.373693	0.534524	-0.934082	0.135010	-0.648926	0.095131	0.021751	-0.012187	0.591634	-0.066305	-0.775519	-0.210101	130.545341	-70.998314	-153.404851
18298		9.655315	1.798659	-1.372413	-0.932003	-0.323412	0.054950	-0.063342	0.352607	0.489962	-0.932129	0.137451	-0.653320	0.096484	0.018219	-0.013900	0.593487	-0.068155	-0.774247	-0.208974	130.625720	-71.351097	-153.534038
18299		9.882137	0.903693	-1.760299	-0.915914	-1.289554	0.140696	-0.072293	0.346581	0.464970	-0.932373	0.144043	-0.646729	0.098769	0.009260	-0.017777	0.595309	-0.070000	-0.772956	-0.207958	130.684450	-71.696975	-153.650758
18300		9.659054	1.244250	-2.210399	-0.280728	-1.104614	0.108608	-0.055672	0.359589	0.433206	-0.934814	0.150635	-0.655518	0.096523	0.012645	-0.022281	0.597121	-0.071599	-0.771676	-0.206970	130.702246	-72.027632	-153.708949
18301		9.285780	1.769843	-2.737918	0.533846	-0.766223	-0.015653	0.006568	0.416273	0.415448	-0.932861	0.157471	-0.662109	0.092764	0.017892	-0.027572	0.599177	-0.072950	-0.770262	-0.205819	130.659983	-72.378192	-153.672274
18302		8.704603	3.002583	-3.213010	1.612814	0.258987	-0.198089	0.035651	0.449268	0.417701	-0.939941	0.168457	-0.666748	0.086911	0.030213	-0.032320	0.601341	-0.074122	-0.768799	-0.204553	130.588661	-72.735582	-153.581979
18303		8.734642	3.072759	-3.370716	1.830563	0.281118	-0.134507	0.029286	0.491403	0.477764	-0.937500	0.166260	-0.668945	0.087190	0.030941	-0.033917	0.603743	-0.075571	-0.767145	-0.203154	130.524982	-73.141147	-153.510084
18304		8.879862	3.714924	-3.263601	1.995092	0.917558	0.111066	0.005767	0.534496	0.557479	-0.942383	0.175049	-0.675537	0.088607	0.037397	-0.032872	0.606351	-0.077281	-0.765324	-0.201609	130.479350	-73.591090	-153.464862
18305		9.344633	3.768500	-3.251983	1.964079	0.948681	0.547856	-0.012006	0.580757	0.645725	-0.945068	0.186035	-0.679932	0.093229	0.037984	-0.032793	0.609241	-0.079349	-0.763272	-0.199864	130.461382	-74.101946	-153.459103
18306		9.550519	3.749195	-2.852962	1.635665	1.109299	0.651606	0.003180	0.647687	0.730886	-0.940674	0.188477	-0.686523	0.095274	0.037841	-0.028838	0.612430	-0.081613	-0.761005	-0.197838	130.464328	-74.669560	-153.466090
18307		9.960218	3.751453	-2.606105	1.416496	1.212590	0.985143	0.032577	0.699360	0.809623	-0.938965	0.204102	-0.693115	0.099357	0.037921	-0.026403	0.615921	-0.084046	-0.758533	-0.195461	130.506568	-75.295650	-153.496269
18308		10.297019	3.783100	-2.559008	1.418056	1.280473	1.288532	0.073241	0.755670	0.879998	-0.941650	0.217285	-0.706543	0.102705	0.038293	-0.025965	0.619660	-0.086550	-0.755897	-0.192745	130.586791	-75.968399	-153.541548
18309		10.287809	3.498944	-2.496761	1.377062	1.112886	1.195447	0.081397	0.795735	0.955536	-0.939941	0.226318	-0.708740	0.102609	0.035490	-0.025362	0.623634	-0.089285	-0.753061	-0.189761	130.718987	-76.693587	-153.635364
18310		10.343980	3.164902	-2.390373	1.270207	0.915676	1.154294	0.103612	0.857256	1.036534	-0.937988	0.239746	-0.721924	0.103170	0.032197	-0.024330	0.627868	-0.092180	-0.750008	-0.186473	130.898647	-77.472202	-153.764530
18311		10.725832	2.652230	-2.473453	1.217311	0.457082	1.434656	0.155901	0.917896	1.126510	-0.936035	0.246582	-0.726318	0.106992	0.027145	-0.025205	0.632436	-0.095199	-0.746712	-0.182713	131.161461	-78.316823	-153.947694
18312		10.841053	2.776607	-2.200666	1.143862	0.755876	1.509787	0.270177	1.026284	1.205187	-0.929932	0.264404	-0.744141	0.108126	0.028448	-0.022524	0.637467	-0.098035	-0.743117	-0.178330	131.444772	-79.231675	-154.084419
18313		10.920751	4.492677	-2.047039	1.791793	2.479628	1.775022	0.356328	1.123742	1.261996	-0.930420	0.273193	-0.744141	0.108804	0.045651	-0.021002	0.642936	-0.100723	-0.739186	-0.173470	131.696492	-80.212019	-154.138429
18314		11.940847	5.600885	-1.724665	1.931780	3.652838	2.830448	0.288802	1.208989	1.324851	-0.928711	0.293457	-0.759521	0.118927	0.056823	-0.017885	0.648662	-0.103768	-0.734855	-0.168698	131.867940	-81.247491	-154.150159
18315		13.216666	6.633858	-4.417501	4.826779	3.614036	4.394234	0.067470	1.166444	1.474450	-0.916016	0.309326	-0.770508	0.131412	0.067324	-0.044920	0.654211	-0.108116	-0.730311	-0.164209	132.478182	-82.333900	-154.733378
18316		12.319693	5.985789	-4.569631	5.062063	3.145827	3.338680	-0.044040	1.167161	1.610098	-0.914307	0.327148	-0.783936	0.122440	0.060835	-0.046426	0.659727	-0.113304	-0.725552	-0.159676	133.688682	-83.472125	-155.984240
18317		12.867864	2.574878	-3.337812	2.818439	0.589066	3.418173	0.042561	1.132437	1.758598	-0.908203	0.344971	-0.799316	0.128254	0.026885	-0.034099	0.665235	-0.118767	-0.720797	-0.154299	136.255300	-84.654055	-158.545807
18318		14.483799	1.799998	-1.356738	0.814055	0.748842	4.803333	0.423187	1.340901	1.896039	-0.906494	0.360596	-0.803955	0.144563	0.019401	-0.014497	0.671722	-0.123277	-0.715489	-0.147201	140.305369	-85.957590	-162.371580
18319		13.868523	3.233542	-1.299950	1.620513	2.311409	4.205254	0.769089	1.469815	2.015178	-0.891602	0.380859	-0.819336	0.138250	0.033782	-0.013889	0.678885	-0.126942	-0.709799	-0.138519	148.648171	-87.324976	-170.292381
18320		13.159973	5.621126	-2.196405	3.632229	4.426905	3.484071	0.950876	1.526561	2.183815	-0.878662	0.396729	-0.834717	0.130803	0.057749	-0.022692	0.686335	-0.130521	-0.703820	-0.128632	175.608305	-88.574931	163.271915
18321		13.885099	8.262536	-2.792941	5.378420	6.942973	4.033498	0.969340	1.519079	2.382634	-0.876953	0.412598	-0.847900	0.137637	0.084407	-0.028572	0.693769	-0.134714	-0.697582	-0.117966	-113.119056	-88.608150	92.532663
18322		15.743231	9.937891	-2.868875	6.310531	8.844802	5.574417	0.854978	1.528231	2.588874	-0.859863	0.435059	-0.861084	0.155904	0.101528	-0.029453	0.701099	-0.139986	-0.690958	-0.106962	-82.989105	-87.200517	62.870182
18323		16.504164	10.404228	-3.228815	7.138825	9.546832	5.964648	0.666819	1.578073	2.759470	-0.842529	0.451172	-0.881104	0.163325	0.106413	-0.033229	0.708394	-0.146437	-0.683749	-0.096026	-73.827145	-85.452043	54.067487
18324		16.713247	9.449332	-4.171540	8.054811	8.724847	5.839323	0.597210	1.591109	2.947728	-0.834473	0.473389	-0.894287	0.165377	0.097066	-0.042748	0.715562	-0.153737	-0.676145	-0.084634	-70.018484	-83.550423	50.579867
18325		16.529236	9.546772	-4.970485	9.171726	8.935209	5.189416	0.537882	1.549245	3.160345	-0.815186	0.498291	-0.903076	0.163365	0.098195	-0.050714	0.722423	-0.161926	-0.668288	-0.072644	-68.343877	-81.531946	49.196034
18326		16.085369	10.513235	-5.358482	10.132498	10.075561	4.106762	0.490399	1.519111	3.333809	-0.797607	0.514160	-0.916260	0.158658	0.107922	-0.054533	0.728958	-0.170836	-0.660167	-0.060118	-67.585907	-79.423078	48.706809
18327		15.365665	12.283220	-5.947387	11.450599	11.823699	2.491328	0.138916	1.342461	3.426472	-0.785645	0.550049	-0.923096	0.151119	0.125478	-0.060407	0.734392	-0.181306	-0.652278	-0.048272	-67.716143	-77.306495	48.914813
18328		14.121927	12.269927	-5.987294	11.567448	11.916806	0.673980	-0.208780	1.172865	3.412209	-0.770752	0.570313	-0.929688	0.138745	0.125017	-0.060821	0.738703	-0.193006	-0.644722	-0.037413	-68.323579	-75.230302	49.411114
18329		12.613688	9.536288	-4.172499	9.012708	9.965538	-0.491224	-0.433318	0.973394	3.237208	-0.753662	0.594971	-0.927734	0.124367	0.097294	-0.042543	0.741890	-0.204920	-0.637837	-0.027763	-69.144849	-73.293194	49.999774
18330		12.022959	5.500140	-4.026119	7.728966	6.422761	-0.325257	-0.706183	0.494580	2.972393	-0.738770	0.617432	-0.925537	0.119296	0.056636	-0.040755	0.743036	-0.217042	-0.632782	-0.019424	-70.594455	-71.584578	51.089812
18331		11.338952	0.924411	-4.886357	7.133851	2.039692	0.099145	-0.460492	0.197959	2.587119	-0.737305	0.637451	-0.923584	0.113210	0.010597	-0.048999	0.743313	-0.226981	-0.629153	-0.011465	-71.945481	-70.139144	52.233590
18332		8.570964	6.159981	-1.750627	5.287833	7.270137	-4.011682	1.011865	0.708298	1.802905	-0.726318	0.642090	-0.936768	0.085087	0.062457	-0.017494	0.746715	-0.228953	-0.624493	-0.002315	-71.236050	-69.018602	52.089263
18333		3.289826	16.098610	-0.371109	5.694094	15.209315	-12.337827	0.322325	0.341749	1.239336	-0.719727	0.648926	-0.936768	0.031894	0.161192	-0.003506	0.748109	-0.231687	-0.621808	0.002941	-71.185970	-68.279120	52.226612
18334		-2.401345	20.196509	-3.935359	8.941585	15.901444	-19.627962	-1.038887	-0.678287	0.515281	-0.729248	0.657471	-0.919189	-0.024397	0.201694	-0.040484	0.744737	-0.237274	-0.623748	0.002496	-72.958997	-68.105506	53.489135
18335		-2.046580	16.743549	-4.272895	8.577901	12.660432	-18.114129	-1.986879	-1.222694	-0.138764	-0.736084	0.661621	-0.895020	-0.020081	0.167013	-0.044513	0.738476	-0.244274	-0.628471	-0.002771	-75.754947	-68.368619	55.266248
18336		-0.882999	9.396397	-4.406647	6.926299	6.336378	-14.324974	-2.327161	-1.272008	-0.733067	-0.747559	0.663574	-0.875488	-0.008202	0.093473	-0.045210	0.731522	-0.250672	-0.633967	-0.011166	-78.692990	-68.926420	56.983111
18337		-1.466165	7.709015	-4.683404	6.692741	4.469428	-14.141513	-2.083675	-1.309099	-1.378119	-0.753906	0.654541	-0.849121	-0.013822	0.076693	-0.047727	0.724568	-0.254035	-0.640327	-0.021186	-81.511139	-69.831802	58.710309
18338		-1.216931	9.170632	-4.855651	7.597993	5.671164	-14.201106	-1.902540	-1.348331	-2.095909	-0.776367	0.649414	-0.829346	-0.010879	0.091357	-0.049503	0.717491	-0.254446	-0.647587	-0.033086	-84.368811	-71.104972	60.579688
18339		-0.070843	9.383175	-5.210915	8.366375	5.971195	-12.901271	-1.812549	-1.308756	-2.720919	-0.789063	0.629150	-0.811768	0.000908	0.093349	-0.052954	0.710340	-0.252376	-0.655368	-0.047072	-87.377268	-72.712998	62.643107
18340		1.742545	8.755696	-3.428473	6.887918	6.583295	-10.624279	-1.751713	-1.178631	-3.215376	-0.808594	0.610840	-0.794189	0.019031	0.086955	-0.034939	0.703350	-0.248411	-0.663071	-0.062669	-90.589759	-74.553066	64.938966
18341		4.117295	5.492664	-3.158667	5.595965	4.327451	-7.157718	-1.671003	-1.115918	-3.617651	-0.823242	0.579590	-0.776367	0.042331	0.053903	-0.031806	0.696242	-0.242650	-0.670848	-0.079568	-94.411366	-76.595974	67.886670
18342		6.392290	1.744394	-3.628466	4.490159	1.161381	-3.850223	-1.436579	-0.911148	-3.961767	-0.840088	0.552490	-0.758789	0.064413	0.015911	-0.036110	0.689681	-0.234790	-0.678091	-0.096991	-98.827031	-78.776980	71.557254
18343		7.570252	0.045211	-3.741663	3.706816	-0.414847	-2.237300	-1.238139	-0.727356	-4.275769	-0.854736	0.523193	-0.751953	0.075821	-0.001399	-0.037136	0.683462	-0.224915	-0.684869	-0.115097	-104.688889	-81.091850	76.779676
18344		9.024098	-1.497855	-3.807023	2.851299	-1.898749	-0.516516	-1.136810	-0.619079	-4.495073	-0.866943	0.487549	-0.740967	0.089988	-0.017218	-0.037698	0.677270	-0.213827	-0.691191	-0.133561	-114.082699	-83.395461	85.595004
18345		10.810005	-3.348777	-3.690945	1.567794	-3.652849	1.406307	-1.215133	-0.589234	-4.562735	-0.876953	0.456055	-0.720947	0.107403	-0.036166	-0.036378	0.670644	-0.202568	-0.697080	-0.152587	-132.431599	-85.417314	103.318723
18346		13.074492	-5.430013	-4.582641	0.892108	-6.185880	3.690134	-1.375785	-0.620000	-4.472875	-0.884277	0.416016	-0.709717	0.129623	-0.057519	-0.045035	0.663476	-0.192135	-0.702438	-0.171652	-167.181686	-86.432723	137.354639
18347		15.225738	-6.968341	-5.856166	0.637425	-8.582614	5.697089	-1.534012	-0.646336	-4.272324	-0.896973	0.393555	-0.705322	0.150903	-0.073361	-0.057519	0.655839	-0.182788	-0.707206	-0.190587	156.048232	-85.789210	173.313604
18348		15.770002	-8.141710	-6.584167	0.073013	-10.476544	5.951553	-1.703396	-0.718032	-3.971586	-0.900391	0.364502	-0.691895	0.156268	-0.085083	-0.064565	0.647793	-0.175099	-0.711390	-0.208877	136.251390	-84.162547	-167.801870
18349		15.138263	-9.775312	-7.203751	-0.772388	-12.626643	4.902440	-1.888488	-0.870971	-3.605525	-0.901611	0.337891	-0.676270	0.149889	-0.101135	-0.070438	0.639084	-0.169334	-0.715260	-0.226497	126.823334	-82.277132	-159.407188
18350		15.197231	-12.174704	-7.773559	-2.186266	-15.297775	4.355996	-1.912524	-1.025407	-3.200253	-0.907471	0.315430	-0.663086	0.150382	-0.124893	-0.075778	0.630049	-0.165259	-0.718938	-0.242601	122.151406	-80.441667	-155.796265
18351		15.204978	-13.933167	-7.926654	-3.629351	-17.088901	3.711575	-1.694596	-1.161857	-2.809455	-0.906738	0.297607	-0.652100	0.150519	-0.142113	-0.077193	0.620920	-0.161962	-0.722773	-0.256567	119.812444	-78.717991	-154.413639
18352		15.262539	-14.785323	-7.946183	-4.665484	-17.964317	3.232300	-1.324927	-1.350243	-2.426819	-0.910645	0.277588	-0.634277	0.151340	-0.150212	-0.077447	0.611780	-0.159149	-0.727135	-0.267717	119.053130	-77.137249	-154.419230
18353		15.509694	-15.697892	-7.875289	-5.774477	-18.786309	2.942685	-0.739862	-1.446792	-2.053183	-0.910156	0.261963	-0.621094	0.154034	-0.158851	-0.077051	0.603101	-0.155912	-0.732163	-0.275497	119.277774	-75.706178	-155.087919
18354		14.898860	-15.733392	-7.048222	-6.668395	-18.329746	1.965894	0.041632	-1.400479	-1.698577	-0.907227	0.244141	-0.609863	0.148134	-0.158580	-0.069476	0.595631	-0.151619	-0.737713	-0.279313	120.142254	-74.473538	-155.963585
18355		13.970606	-14.500902	-5.837578	-6.901941	-16.583377	0.998559	0.794087	-1.353166	-1.318009	-0.913574	0.237305	-0.596680	0.139141	-0.145696	-0.058011	0.589342	-0.146335	-0.743834	-0.279238	121.591876	-73.429411	-156.999838
18356		13.749121	-13.113864	-4.816579	-6.950555	-14.900365	0.858735	1.490141	-1.254147	-1.005186	-0.913086	0.221680	-0.587891	0.137134	-0.131469	-0.048284	0.584330	-0.140080	-0.750290	-0.275681	123.445834	-72.567285	-158.051528
18357		12.913824	-11.313948	-2.755933	-7.370614	-12.233393	0.106192	2.143472	-1.078961	-0.825622	-0.910645	0.217285	-0.587891	0.128821	-0.113373	-0.028078	0.580568	-0.132288	-0.756936	-0.269236	125.460965	-71.830712	-158.880881
18358		11.431253	-9.649302	-0.268780	-8.002633	-9.420282	-1.382507	2.714884	-0.911021	-0.757697	-0.905762	0.204102	-0.583496	0.113961	-0.096882	-0.003482	0.577832	-0.122884	-0.763646	-0.260489	127.528949	-71.180299	-159.427144
18359		9.746647	-7.832830	2.499537	-8.772964	-6.393974	-3.123492	3.107199	-0.757834	-0.783698	-0.907715	0.197266	-0.583252	0.097065	-0.079089	0.024139	0.575717	-0.112003	-0.770281	-0.250346	129.518476	-70.562715	-159.652682
18360		8.322076	-5.734359	5.112174	-9.472921	-3.333315	-4.576259	3.241859	-0.683327	-0.874822	-0.905029	0.186279	-0.578857	0.082793	-0.058528	0.050463	0.573720	-0.100275	-0.776678	-0.239922	131.329902	-69.935480	-159.609720
18361		7.581532	-3.785394	7.153797	-10.121253	-0.834524	-5.358397	3.138756	-0.617430	-1.054056	-0.897705	0.175293	-0.570068	0.075390	-0.039371	0.071161	0.571518	-0.088053	-0.782651	-0.230375	132.784038	-69.255175	-159.249027
18362		7.499339	-2.842929	8.660581	-11.057380	0.402915	-5.703000	2.825278	-0.577776	-1.295683	-0.903809	0.153076	-0.569824	0.074552	-0.030135	0.086404	0.568933	-0.075698	-0.788028	-0.222703	133.737647	-68.495252	-158.541949
18363		8.380032	-2.926795	9.677841	-12.340198	0.344405	-5.336001	2.419445	-0.559015	-1.541616	-0.894043	0.137695	-0.565430	0.083295	-0.031081	0.096643	0.565841	-0.063526	-0.792826	-0.217290	134.207947	-67.643414	-157.563435
18364		10.126149	-3.718189	10.331278	-13.867689	-0.665916	-4.305398	1.891183	-0.529848	-1.730300	-0.895508	0.117676	-0.565186	0.100656	-0.039031	0.103217	0.562409	-0.052022	-0.796865	-0.214467	134.191066	-66.728342	-156.375683
18365		13.321386	-5.180527	9.285054	-14.651914	-3.213822	-1.720116	1.244232	-0.567510	-1.819123	-0.885986	0.102295	-0.556396	0.132468	-0.053590	0.092897	0.558466	-0.042063	-0.800226	-0.214438	133.820350	-65.760736	-155.201955
18366		17.661152	-10.077871	1.976620	-11.496922	-11.460064	2.591428	0.185300	-1.179674	-1.581140	-0.892090	0.086670	-0.553955	0.175687	-0.102189	0.020710	0.552059	-0.036618	-0.804018	-0.217821	133.650301	-64.646347	-154.903869
18367		25.736979	-12.076579	7.176890	-19.942986	-12.871653	7.401375	0.034252	-0.720047	-1.387631	-0.880371	0.073486	-0.547363	0.256263	-0.122559	0.072672	0.547634	-0.031928	-0.806277	-0.221347	133.186668	-63.795566	-154.378239
18368		34.341954	-23.547066	6.661830	-26.389688	-25.163568	11.367317	-0.028866	-0.022570	-0.219275	-0.886963	0.071045	-0.553955	0.343154	-0.235837	0.066691	0.547293	-0.031283	-0.806347	-0.222030	133.035569	-63.702605	-154.234455
18369		30.115947	19.687867	2.065948	-7.980752	12.596265	22.997139	0.348561	0.953886	-0.519718	-0.877441	0.058105	-0.566895	0.301765	0.196060	0.019563	0.550613	-0.027425	-0.804188	-0.222160	132.039167	-63.867523	-152.915409
18370		26.479568	35.419203	3.816492	-3.485984	27.785979	24.625738	-0.456065	0.608550	-1.257704	-0.884033	0.051270	-0.575684	0.267129	0.352602	0.036549	0.551583	-0.023082	-0.802163	-0.227503	130.305718	-63.562633	-151.279782
18371		9.646067	6.339030	15.990595	-15.887116	9.859756	-3.542836	-0.531359	0.759984	-0.052519	-0.886230	0.051270	-0.582275	0.097084	0.063789	0.159369	0.554522	-0.023687	-0.799448	-0.229842	129.306797	-63.832825	-150.518245
18372		11.302372	-1.593927	8.431507	-12.185058	-0.531567	-2.558993	-0.165226	-0.042298	0.349963	-0.893066	0.053467	-0.580078	0.113033	-0.015672	0.084352	0.554733	-0.025727	-0.799338	-0.229496	129.529860	-63.980745	-150.878276
18373		6.865005	3.590004	8.175847	-8.726371	4.987131	-4.729410	-0.016255	-0.403625	0.037384	-0.886475	0.060059	-0.569336	0.068478	0.035920	0.081894	0.553184	-0.026623	-0.800410	-0.229395	129.931407	-63.865536	-151.352097
18374		9.774860	6.654690	0.619518	-2.353283	4.149695	1.025137	-0.319442	-0.577965	0.296558	-0.895264	0.055664	-0.571533	0.097632	0.066702	0.006371	0.551163	-0.029491	-0.801603	-0.229744	130.505815	-63.789686	-152.202306
18375		8.537289	6.058344	-7.586554	5.085964	0.625670	2.056856	-0.306735	-0.417257	0.617184	-0.897949	0.062256	-0.567139	0.085344	0.060731	-0.075781	0.550176	-0.033537	-0.802275	-0.229208	131.188432	-63.917174	-153.176601
18376		9.753436	-0.560547	-10.901863	5.440570	-6.843609	1.928668	-0.496154	-0.250333	0.578790	-0.893555	0.068848	-0.569336	0.097687	-0.005593	-0.108883	0.549745	-0.037646	-0.802296	-0.229531	131.594499	-64.079103	-153.950925
18377		7.877050	-0.138364	-9.725037	5.279221	-5.623454	0.043781	-0.421774	0.120744	0.444703	-0.898438	0.075439	-0.569336	0.078715	-0.001414	-0.097295	0.550686	-0.040671	-0.801366	-0.230007	131.615838	-64.330929	-154.257540
18378		6.651537	-0.374991	-10.200369	6.104082	-5.801752	-1.008659	-0.153665	0.138716	0.285439	-0.905029	0.075195	-0.567139	0.066450	-0.003733	-0.102047	0.551535	-0.042214	-0.800752	-0.229834	131.651462	-64.513888	-154.400858
18379		8.682749	-2.769375	-8.015566	2.710899	-7.390611	-0.574830	0.568631	0.570104	0.078283	-0.900635	0.075439	-0.575928	0.086609	-0.027431	-0.080481	0.554048	-0.040515	-0.799790	-0.227434	131.546960	-64.779157	-153.937328
18380		9.203397	0.963004	-3.450471	-0.189474	-2.272515	-0.203576	0.889772	0.735287	-0.087836	-0.904785	0.068848	-0.586914	0.091911	0.009744	-0.034800	0.557057	-0.036997	-0.798773	-0.224233	131.332618	-65.028222	-153.143888
18381		11.046168	4.816490	-0.402956	-2.308879	2.042839	1.843839	0.694206	0.552884	-0.102877	-0.900146	0.062256	-0.586914	0.110475	0.048122	-0.004168	0.559296	-0.034246	-0.798005	-0.221817	131.157121	-65.207820	-152.524357
18382		10.316436	6.453574	1.248790	-2.967934	4.291060	1.251446	0.231398	0.424768	0.020908	-0.908936	0.062012	-0.593506	0.103184	0.064532	0.012343	0.561049	-0.033346	-0.797074	-0.220875	130.929448	-65.384715	-152.133983
18383		8.665971	6.648878	1.019236	-2.065857	4.697411	-0.116713	-0.238186	0.209114	0.154383	-0.906982	0.066650	-0.591309	0.086619	0.066568	0.010023	0.562037	-0.034613	-0.796178	-0.221400	130.744197	-65.545256	-152.093331
18384		8.839785	5.227735	0.334063	-1.919494	3.128393	-0.215230	-0.452761	0.052197	0.280214	-0.909180	0.068848	-0.595703	0.088325	0.052408	0.003199	0.562471	-0.037078	-0.795484	-0.222391	130.687821	-65.694578	-152.322400
18385		8.541561	4.602621	-1.113587	-0.693746	2.072283	-0.293933	-0.398563	0.036521	0.389429	-0.911621	0.070801	-0.593506	0.085324	0.046170	-0.011243	0.562998	-0.039922	-0.794840	-0.222865	130.770347	-65.892575	-152.676756
18386		8.245645	4.218778	-2.317616	0.383484	1.328339	-0.365550	-0.318402	0.037477	0.484100	-0.914063	0.072998	-0.591309	0.082350	0.042350	-0.023259	0.563617	-0.042835	-0.794284	-0.222741	130.981816	-66.124443	-153.114040
18387		8.841736	3.489587	-3.810656	1.280787	-0.001970	0.347724	-0.247065	0.098296	0.588918	-0.920898	0.075195	-0.597900	0.088295	0.035109	-0.038193	0.564635	-0.045963	-0.793578	-0.222057	131.270972	-66.430565	-153.596837
18388		9.074887	3.179499	-4.902957	2.097248	-0.724329	0.750378	-0.188794	0.212778	0.634788	-0.923584	0.090576	-0.595947	0.090595	0.032036	-0.049156	0.566134	-0.048913	-0.792620	-0.221028	131.531005	-66.791981	-154.004110
18389		8.973117	2.513005	-5.125952	2.165763	-1.353070	0.511345	-0.071841	0.352439	0.657487	-0.919189	0.093018	-0.604736	0.089557	0.025406	-0.051427	0.568261	-0.051530	-0.791353	-0.219508	131.747783	-67.222201	-154.295910
18390		8.554744	2.209617	-5.297613	2.424485	-1.580742	0.074343	0.064234	0.453026	0.635389	-0.930664	0.101563	-0.606934	0.085356	0.022385	-0.053162	0.570759	-0.053498	-0.789970	-0.217530	131.928526	-67.674446	-154.457836
18391		8.870117	1.859943	-4.428963	1.506348	-1.548898	0.040500	0.203760	0.533943	0.621526	-0.928467	0.101807	-0.611328	0.088524	0.018920	-0.044507	0.573617	-0.054986	-0.788472	-0.215061	132.098573	-68.157978	-154.526625
18392		9.081386	2.372713	-3.414001	0.785453	-0.664969	0.121949	0.290612	0.590943	0.601882	-0.924316	0.108398	-0.617920	0.090640	0.024050	-0.034373	0.576663	-0.056024	-0.786920	-0.212314	132.242472	-68.648675	-154.508339
18393		9.382398	2.772662	-2.383144	-0.017033	0.105973	0.256291	0.279116	0.582924	0.580712	-0.933838	0.121582	-0.626953	0.093673	0.028032	-0.024066	0.579668	-0.057079	-0.785344	-0.209670	132.371010	-69.133552	-154.485675
18394		9.619993	2.673432	-1.575660	-0.770911	0.339982	0.260236	0.217803	0.568913	0.560090	-0.933594	0.114990	-0.631104	0.096079	0.027021	-0.016001	0.582541	-0.058184	-0.783761	-0.207316	132.459746	-69.598082	-154.453139
18395		9.592293	2.652412	-1.182968	-1.049061	0.517189	0.141122	0.137321	0.519549	0.540699	-0.938232	0.123779	-0.633545	0.095820	0.026791	-0.012060	0.585192	-0.059566	-0.782205	-0.205323	132.541318	-70.041654	-154.468098
18396		9.534716	2.702987	-1.166773	-0.964805	0.612447	0.100534	0.053238	0.476398	0.514638	-0.940674	0.128418	-0.642334	0.095249	0.027278	-0.011887	0.587590	-0.061067	-0.780711	-0.203712	132.597412	-70.451176	-154.501246
18397		9.474816	2.221133	-1.360198	-0.873563	0.139174	-0.026326	-0.011342	0.453015	0.479678	-0.938721	0.132813	-0.640137	0.094663	0.022438	-0.013818	0.589859	-0.062715	-0.779195	-0.202455	132.608821	-70.843286	-154.532377
18398		9.467224	1.726287	-1.717926	-0.660502	-0.421742	-0.068703	-0.057708	0.425699	0.452419	-0.941162	0.139404	-0.648926	0.094596	0.017472	-0.017386	0.591948	-0.064350	-0.777739	-0.201440	132.595418	-71.206899	-154.559097
18399		9.572187	0.893550	-2.088332	-0.585026	-1.312738	-0.080242	-0.048274	0.435183	0.433688	-0.938965	0.141602	-0.651123	0.095656	0.009138	-0.021094	0.594077	-0.065946	-0.776235	-0.200454	132.555735	-71.572794	-154.558851
18400		9.253938	1.361259	-2.437906	0.034577	-0.956318	-0.194177	0.009305	0.474016	0.408286	-0.943848	0.150635	-0.655518	0.092453	0.013803	-0.024598	0.596320	-0.067161	-0.774702	-0.199322	132.466327	-71.936487	-154.465000
18401		9.032701	1.728714	-2.947936	0.737990	-0.768022	-0.214059	0.045242	0.490613	0.388827	-0.944092	0.159424	-0.666504	0.090220	0.017469	-0.029697	0.598637	-0.068251	-0.773126	-0.198122	132.350850	-72.304905	-154.329055
18402		8.935142	2.339602	-3.016129	1.094467	-0.203247	-0.160328	0.065207	0.525151	0.388517	-0.950928	0.163818	-0.671143	0.089226	0.023579	-0.030388	0.601064	-0.069170	-0.771485	-0.196845	132.191751	-72.679798	-154.128932
18403		9.101315	2.854382	-3.089043	1.356017	0.239095	0.118440	0.034687	0.541932	0.416592	-0.944336	0.168213	-0.668945	0.090869	0.028739	-0.031132	0.603602	-0.070288	-0.769720	-0.195589	132.016187	-73.078539	-153.930116
18404		9.352064	3.048082	-3.083535	1.421488	0.410556	0.388803	0.022167	0.590233	0.473844	-0.949219	0.177246	-0.677734	0.093357	0.030706	-0.031108	0.606334	-0.071600	-0.767792	-0.194239	131.831479	-73.514350	-153.729865
18405		9.642677	3.369921	-2.847222	1.325338	0.789592	0.678432	0.021747	0.645177	0.566332	-0.945068	0.183838	-0.682129	0.096238	0.033975	-0.028779	0.609390	-0.073228	-0.765626	-0.192610	131.673943	-74.015901	-153.558464
18406		9.934909	3.741216	-2.917338	1.536399	1.104919	1.032941	0.058999	0.712519	0.660065	-0.951904	0.188232	-0.693115	0.099120	0.037748	-0.029516	0.612760	-0.075021	-0.763265	-0.190590	131.554769	-74.577695	-153.405380
18407		10.046465	4.384720	-3.121643	2.023822	1.652354	1.281205	0.103068	0.786986	0.777545	-0.947754	0.197266	-0.697510	0.100169	0.044253	-0.031588	0.616558	-0.077067	-0.760628	-0.188049	131.495213	-75.223255	-153.288183
18408		9.936446	4.573489	-3.258875	2.355859	1.847137	1.201229	0.164339	0.878589	0.906542	-0.950439	0.212891	-0.713135	0.099011	0.046211	-0.032986	0.620794	-0.079313	-0.757712	-0.184922	131.505000	-75.953782	-153.206859
18409		9.341264	4.058483	-3.169065	2.348130	1.544635	0.476722	0.224678	0.966519	1.042670	-0.953125	0.219482	-0.717529	0.093045	0.041106	-0.032095	0.625515	-0.081814	-0.754467	-0.181155	131.601441	-76.780865	-153.179303
18410		8.955867	3.487760	-2.470895	1.718749	1.400724	-0.140092	0.325054	1.085130	1.207442	-0.944824	0.237305	-0.724121	0.089210	0.035458	-0.025136	0.630804	-0.084498	-0.750851	-0.176546	131.821076	-77.718902	-153.219283
18411		9.055201	4.377681	-1.389628	1.159095	2.704385	-0.095074	0.378830	1.209276	1.374388	-0.938477	0.253174	-0.741699	0.090162	0.044424	-0.014358	0.636708	-0.087534	-0.746739	-0.171235	132.145050	-78.779963	-153.334140
18412		9.907255	5.562736	-0.186641	0.478863	4.272039	0.706299	0.258060	1.342390	1.571428	-0.936768	0.266602	-0.755127	0.098616	0.056406	-0.002457	0.643133	-0.091556	-0.741962	-0.165801	132.558516	-79.971268	-153.610065
18413		10.730449	5.490013	-3.623908	3.701254	3.018937	1.831866	-0.026138	1.270103	1.840287	-0.926514	0.291260	-0.763916	0.106560	0.055878	-0.036925	0.649334	-0.097547	-0.736948	-0.160495	133.759399	-81.249926	-154.848095
18414		11.861719	8.116965	-5.201364	6.177049	4.971078	3.254852	-0.309456	1.247804	2.085829	-0.922607	0.311279	-0.779541	0.117435	0.082317	-0.052876	0.655393	-0.105358	-0.731578	-0.155411	136.047137	-82.608603	-157.343286
18415		14.244077	6.501997	-3.352324	3.902663	4.220075	5.132337	-0.528127	1.209566	2.260777	-0.910156	0.333984	-0.790527	0.141487	0.066533	-0.034555	0.661249	-0.114543	-0.725933	-0.150504	140.110987	-84.000509	-161.745136
18416		15.932038	2.096759	-3.818203	2.883471	0.146139	6.449349	-0.252631	1.231875	2.356268	-0.904541	0.362793	-0.803955	0.158820	0.022792	-0.039189	0.667275	-0.123122	-0.720257	-0.144272	147.330653	-85.376306	-169.146328
18417		16.242181	0.527731	-3.246877	2.094087	-0.816319	6.605581	0.486164	1.359822	2.408393	-0.905029	0.378418	-0.808350	0.162116	0.007311	-0.033556	0.674147	-0.129310	-0.714500	-0.135254	160.834534	-86.694537	177.592088
18418		16.296927	3.177370	-1.905030	2.171969	2.451155	6.575413	1.098637	1.488789	2.446888	-0.887695	0.396729	-0.830322	0.162417	0.033871	-0.020078	0.681735	-0.133454	-0.708560	-0.123974	-171.027852	-87.694563	150.047634
18419		16.770674	6.684744	-1.067553	2.973418	6.367048	6.851001	1.303221	1.620648	2.545450	-0.879395	0.414551	-0.841309	0.166746	0.069047	-0.011584	0.689832	-0.137134	-0.702034	-0.111689	-125.756304	-87.713262	105.484946
18420		16.784134	9.527299	-1.054535	4.280229	9.385004	6.532462	1.129022	1.777892	2.620348	-0.866699	0.437256	-0.865723	0.166474	0.097523	-0.011483	0.698193	-0.141551	-0.694639	-0.099835	-94.961998	-86.607104	75.297928
18421		15.890918	10.222683	-2.625543	6.313019	9.804970	5.283573	0.799548	1.768882	2.721894	-0.847412	0.459717	-0.876709	0.157259	0.104482	-0.027237	0.706158	-0.147430	-0.686826	-0.088743	-81.390753	-84.991750	62.145356
18422		15.560304	9.451253	-3.619696	7.315914	9.067215	4.636666	0.537966	1.672063	2.853136	-0.834473	0.475586	-0.885498	0.153924	0.096816	-0.037230	0.713441	-0.154689	-0.678964	-0.077982	-75.284342	-83.181606	56.311331
18423		15.083735	8.537681	-5.035738	8.650221	8.041209	3.834709	0.459020	1.566592	2.968180	-0.819580	0.498047	-0.894287	0.149148	0.087716	-0.051331	0.720156	-0.162605	-0.671153	-0.066993	-72.234602	-81.285985	53.493282
18424		14.524851	7.903973	-5.235198	8.886304	7.654486	2.964821	0.305307	1.414110	3.085877	-0.802490	0.518555	-0.907715	0.143631	0.081345	-0.053248	0.726054	-0.171485	-0.663559	-0.055934	-70.888071	-79.340051	52.299234
18425		13.967220	7.121052	-5.832798	9.418629	6.975857	2.121047	0.152146	1.289147	3.172354	-0.783203	0.543457	-0.916504	0.138139	0.073455	-0.059166	0.731221	-0.181174	-0.656102	-0.044972	-70.380253	-77.370930	51.863714
18426		11.962241	7.275803	-5.205601	8.835561	7.262280	-0.205239	0.072456	1.227947	3.058930	-0.770508	0.563477	-0.918701	0.118168	0.074592	-0.052758	0.735875	-0.190762	-0.648769	-0.034591	-70.092912	-75.471568	51.605090
18427		9.640086	7.781828	-4.834836	8.440962	7.590758	-2.885718	-0.314856	0.781613	2.762069	-0.757813	0.588135	-0.918945	0.095124	0.079061	-0.048846	0.738483	-0.200819	-0.643141	-0.026159	-70.700558	-73.822580	52.041734
18428		9.502870	4.162937	-3.840465	6.522293	4.715090	-2.222820	-0.721164	0.321099	2.542204	-0.747314	0.606201	-0.912354	0.094429	0.042693	-0.038709	0.739027	-0.211714	-0.639251	-0.019343	-72.102400	-72.371111	53.069050
18429		9.569886	-0.140522	-4.757156	6.188213	0.666912	-1.124122	-0.507952	0.113119	2.261281	-0.743408	0.621826	-0.914551	0.095681	-0.000444	-0.047624	0.738987	-0.220882	-0.636355	-0.012702	-73.396032	-71.107521	54.118066
18430		8.461534	-1.819886	-4.134263	4.965937	-0.763844	-1.642303	0.316111	0.268583	1.849548	-0.728027	0.630859	-0.918945	0.084723	-0.017350	-0.041484	0.740242	-0.225688	-0.633310	-0.005089	-73.676449	-70.035096	54.601508
18431		5.333076	0.108741	-3.668566	4.547766	0.381318	-5.221083	1.728340	0.594799	1.211193	-0.725830	0.628906	-0.934326	0.053212	0.001728	-0.036831	0.744023	-0.223186	-0.629762	0.004223	-72.378743	-69.265262	54.266705
18432		1.928554	14.918534	-0.663522	4.944305	13.829755	-13.129637	2.582286	0.832774	0.422734	-0.727539	0.617920	-0.945313	0.018948	0.149295	-0.004787	0.749414	-0.215022	-0.626078	0.013067	-69.951035	-68.869779	53.245557
18433		-3.271265	17.537613	-2.920480	6.366298	14.113749	-19.143738	0.886912	-0.138687	-0.149569	-0.731934	0.613281	-0.947510	-0.032562	0.175528	-0.028449	0.749894	-0.211302	-0.626715	0.015453	-69.585228	-68.972605	53.391036
18434		-5.579110	20.836602	-3.989924	7.675978	16.214436	-22.437148	-0.082166	-0.807278	-0.881102	-0.742676	0.601807	-0.936523	-0.054711	0.208592	-0.040207	0.747297	-0.208898	-0.630670	0.012815	-70.353031	-69.593330	54.155578
18435		-2.594348	15.980087	-2.855867	6.199419	13.016700	-17.710385	-0.987840	-1.097891	-1.483704	-0.751465	0.599365	-0.923340	-0.024598	0.159843	-0.029486	0.742815	-0.207902	-0.636377	0.005307	-71.827394	-70.598330	55.114164
18436		-0.630982	9.526825	-3.190023	5.436731	7.557882	-13.640071	-1.508224	-1.238433	-1.960907	-0.764648	0.590088	-0.901367	-0.005176	0.095078	-0.032652	0.737254	-0.207327	-0.642995	-0.005418	-73.737441	-71.869144	56.212752
18437		0.496684	8.397566	-3.822354	6.080629	6.586317	-12.052135	-1.642102	-1.424153	-2.427193	-0.784668	0.578613	-0.879395	0.006258	0.083588	-0.038869	0.730766	-0.205656	-0.650659	-0.018176	-76.067502	-73.422349	57.660205
18438		1.927763	8.746339	-4.351391	7.037583	7.008356	-10.514678	-1.853581	-1.595733	-2.940643	-0.795166	0.560547	-0.861816	0.020907	0.086757	-0.044158	0.723237	-0.203088	-0.659226	-0.033239	-79.050665	-75.251786	59.649241
18439		4.531173	8.974315	-3.910594	7.131336	7.799468	-7.654532	-2.106167	-1.632586	-3.428669	-0.821289	0.537598	-0.833252	0.047159	0.088529	-0.039663	0.714932	-0.199693	-0.668133	-0.050932	-82.807902	-77.337990	62.265658
18440		7.291157	7.978974	-2.410161	5.702555	7.727763	-4.301149	-2.394951	-1.518952	-3.784873	-0.833984	0.517334	-0.809082	0.074585	0.078097	-0.024481	0.706277	-0.196062	-0.676544	-0.070866	-87.565758	-79.558970	65.714697
18441		9.666289	5.305073	-1.399058	3.885459	5.740776	-1.125605	-2.695445	-1.451166	-4.010432	-0.851074	0.492432	-0.791260	0.097800	0.050909	-0.013979	0.697033	-0.192531	-0.684454	-0.092731	-94.482889	-81.842516	71.148938
18442		11.833288	2.093922	-2.059575	3.099562	2.457864	1.718904	-2.847919	-1.411047	-4.135005	-0.868408	0.469971	-0.767090	0.118871	0.018197	-0.020030	0.687288	-0.189018	-0.691796	-0.115436	-105.955111	-84.023897	81.056680
18443		13.766334	-0.576786	-3.653996	3.064516	-0.906733	4.077642	-2.796604	-1.221344	-4.213247	-0.874023	0.438477	-0.738281	0.137713	-0.009171	-0.035587	0.677711	-0.184759	-0.698146	-0.138432	-127.021613	-85.896311	100.583160
18444		15.495219	-2.554175	-4.447119	2.369752	-3.465355	5.958290	-2.636330	-0.925961	-4.255974	-0.892822	0.406982	-0.729492	0.154556	-0.029410	-0.043384	0.668863	-0.179544	-0.703160	-0.161097	-165.669400	-86.844082	137.782920
18445		16.469365	-3.655013	-4.471382	1.283174	-5.015544	6.852595	-2.456295	-0.730865	-4.204450	-0.894043	0.380371	-0.718262	0.164030	-0.040544	-0.043632	0.660454	-0.173577	-0.707202	-0.183127	153.836054	-86.133123	176.928112
18446		17.180863	-4.907252	-5.160547	0.648970	-7.032438	7.390712	-2.381477	-0.685968	-3.986917	-0.899902	0.353516	-0.702881	0.170951	-0.053091	-0.050402	0.652120	-0.168052	-0.710547	-0.204013	133.116654	-84.438749	-163.660419
18447		17.366312	-7.243775	-6.488634	-0.027387	-10.270423	7.234798	-2.433583	-0.718528	-3.674094	-0.906006	0.333252	-0.687256	0.172513	-0.076391	-0.063352	0.643569	-0.163696	-0.713329	-0.224019	123.202542	-82.521935	-155.095634
18448		17.372830	-10.305870	-8.143838	-0.886607	-14.201698	6.673920	-2.312816	-0.748605	-3.286293	-0.905029	0.308838	-0.680664	0.172294	-0.106825	-0.079571	0.635186	-0.160351	-0.715681	-0.242131	117.954949	-80.691834	-151.137053
18449		16.510906	-12.470431	-8.686732	-2.116329	-16.588793	5.149344	-1.930038	-0.732580	-2.839480	-0.913086	0.286621	-0.671631	0.163622	-0.127861	-0.085042	0.627441	-0.157260	-0.717846	-0.257456	114.926340	-79.048282	-149.192541
18450		15.529888	-13.084719	-8.068513	-3.352876	-16.879944	3.651330	-1.546810	-0.859795	-2.351665	-0.908203	0.275391	-0.660645	0.154083	-0.133279	-0.078996	0.620043	-0.154891	-0.720315	-0.269632	113.576074	-77.628776	-148.724560
18451		15.959658	-14.269611	-7.882221	-4.721861	-17.911837	3.502998	-1.108076	-1.076576	-1.890776	-0.912109	0.259766	-0.647461	0.158654	-0.144630	-0.077169	0.612674	-0.153045	-0.723579	-0.278641	113.542114	-76.391412	-149.348957
18452		16.011225	-15.658647	-7.680825	-6.060824	-18.977200	2.980548	-0.405915	-1.155241	-1.497121	-0.920654	0.248535	-0.636475	0.159372	-0.157936	-0.075567	0.606071	-0.150605	-0.727654	-0.283752	114.361833	-75.350115	-150.439818
18453		15.598386	-15.543678	-6.992039	-6.686106	-18.467713	2.354493	0.444101	-1.109825	-1.129251	-0.916016	0.244141	-0.623291	0.155490	-0.156161	-0.069403	0.600725	-0.146779	-0.732488	-0.284688	115.761400	-74.497711	-151.627655
18454		14.770110	-14.189332	-6.116078	-6.504851	-16.800468	1.690816	1.204259	-1.039395	-0.751249	-0.915527	0.230713	-0.625244	0.147486	-0.142079	-0.061249	0.596711	-0.142016	-0.737837	-0.281716	117.675782	-73.856351	-152.906062
18455		13.657708	-12.642689	-5.021764	-6.214103	-14.808509	0.849435	1.791116	-0.975379	-0.414320	-0.917969	0.232910	-0.616455	0.136562	-0.126257	-0.050683	0.593746	-0.136598	-0.743539	-0.275601	120.008703	-73.383518	-154.271023
18456		12.317190	-11.163664	-3.689891	-6.044432	-12.705288	-0.221314	2.248363	-0.927695	-0.166952	-0.922119	0.223877	-0.609863	0.123252	-0.111320	-0.037580	0.591560	-0.130703	-0.749442	-0.267041	122.667507	-73.035406	-155.708478
18457		10.883587	-9.811657	-1.573789	-6.550671	-10.290178	-1.542493	2.702772	-0.814917	-0.046744	-0.919434	0.217285	-0.612061	0.108879	-0.097921	-0.016619	0.590124	-0.123725	-0.755433	-0.256450	125.462043	-72.757213	-157.016434
18458		8.847543	-7.804457	1.306668	-7.249374	-6.933457	-3.467089	3.105620	-0.634412	-0.061462	-0.914795	0.212891	-0.609863	0.088412	-0.078265	0.012133	0.589495	-0.115261	-0.761224	-0.244436	128.137415	-72.520236	-157.961049
18459		6.391712	-5.907850	4.251609	-8.055879	-3.711773	-5.919874	3.344395	-0.498266	-0.222407	-0.914795	0.208496	-0.609863	0.063746	-0.059851	0.041679	0.589142	-0.105287	-0.766814	-0.231995	130.536853	-72.246603	-158.473568
18460		3.798697	-4.351369	6.604461	-8.602810	-1.174507	-8.552048	3.342863	-0.463727	-0.508483	-0.916504	0.197266	-0.605225	0.037722	-0.044706	0.065392	0.588445	-0.094147	-0.772212	-0.220359	132.503434	-71.860310	-158.533337
18461		1.243497	-3.265847	8.040919	-8.655820	0.460699	-11.126428	3.147554	-0.517893	-0.916269	-0.913574	0.177490	-0.605225	0.012074	-0.033975	0.079913	0.586809	-0.082072	-0.777542	-0.210591	133.920560	-71.281004	-158.134324
18462		-0.378936	-2.573550	8.907081	-8.670414	1.387085	-12.812093	2.857095	-0.591183	-1.427525	-0.908447	0.164307	-0.604980	-0.004241	-0.026975	0.088679	0.584097	-0.068885	-0.782770	-0.203363	134.642009	-70.466285	-157.171214
18463		1.154268	-2.486514	10.028121	-10.107134	1.468330	-11.751972	2.458547	-0.649751	-1.922510	-0.907471	0.139648	-0.593994	0.010970	-0.026203	0.100001	0.580348	-0.055017	-0.787742	-0.199077	134.693830	-69.428550	-155.737002
18464		6.378147	-2.708051	10.692208	-12.474776	0.484625	-7.268949	1.916329	-0.694328	-2.358990	-0.906494	0.110840	-0.591553	0.063077	-0.028851	0.106871	0.575717	-0.040984	-0.792223	-0.198123	134.113276	-68.191744	-153.942833
18465		13.109472	-9.289106	3.158823	-9.969206	-9.641702	-1.108587	0.939646	-1.277342	-2.300245	-0.903564	0.090820	-0.578369	0.129810	-0.094539	0.031978	0.568498	-0.030633	-0.797234	-0.200722	133.750823	-66.744020	-152.980072
18466		26.775265	-10.113962	6.208617	-17.959810	-12.064632	9.925453	0.330642	-1.473916	-2.188518	-0.902588	0.068604	-0.569336	0.266157	-0.104163	0.063881	0.560422	-0.022581	-0.802028	-0.205348	133.396414	-65.260939	-152.390938
18467		46.804417	-27.467821	8.817443	-32.573704	-31.235386	21.590487	0.182815	-0.320326	-0.980011	-0.897949	0.064453	-0.578125	0.466549	-0.277048	0.088670	0.558139	-0.018694	-0.803218	-0.207298	132.993900	-64.737852	-151.844754
18468		41.940672	16.016997	-3.447330	-8.478153	4.785056	34.149349	0.493205	0.745161	-0.711072	-0.892822	0.051270	-0.588867	0.419842	0.158765	-0.035644	0.560428	-0.013824	-0.801711	-0.207337	132.047620	-64.733855	-150.492125
18469		23.095894	44.632749	4.243689	-0.966997	37.054999	24.384007	-0.613769	1.015557	-1.743042	-0.894287	0.031250	-0.593262	0.235045	0.444416	0.039884	0.562622	-0.007784	-0.798304	-0.214723	129.429974	-64.373189	-148.001039
18470		3.318284	2.475856	20.105818	-18.566592	8.609138	-11.407738	-0.932144	0.765381	-0.287983	-0.898926	0.035645	-0.599854	0.033988	0.025646	0.200811	0.565318	-0.008570	-0.795155	-0.219248	127.984104	-64.527221	-146.996644
18471		11.365462	-4.054052	6.367080	-10.877309	-4.007761	-2.617530	-0.300926	-0.416347	0.246676	-0.896973	0.037842	-0.595459	0.113571	-0.040304	0.063968	0.563936	-0.011107	-0.795974	-0.219725	128.408700	-64.506909	-147.675855
18472		5.656017	3.991029	7.924275	-8.084016	5.180604	-5.508890	-0.004419	-0.710606	-0.245438	-0.898926	0.033447	-0.586670	0.056327	0.039843	0.079442	0.560832	-0.011058	-0.797989	-0.220361	128.904674	-64.151332	-148.235172
18473		9.873836	9.905579	1.920202	-2.751119	7.397304	1.892495	-0.757423	-1.155357	0.096396	-0.896729	0.035645	-0.582275	0.098579	0.099177	0.019396	0.556293	-0.015113	-0.800349	-0.223049	129.611944	-63.792373	-149.525865
18474		9.098768	8.347855	-6.794303	4.815185	2.914041	3.108575	-1.112711	-0.802932	0.444464	-0.903564	0.037598	-0.575684	0.091075	0.083303	-0.068041	0.553475	-0.021017	-0.801294	-0.226168	130.040928	-63.701617	-150.721299
18475		10.411279	0.251758	-10.136479	4.898095	-5.960387	2.503478	-1.135045	-0.588978	0.561190	-0.904053	0.046387	-0.569092	0.104404	0.002236	-0.101071	0.551643	-0.027312	-0.801536	-0.229093	130.350864	-63.745466	-151.809582
18476		9.970883	-3.631326	-10.500546	4.155955	-9.523281	0.906506	-0.958517	-0.106516	0.364299	-0.908447	0.046387	-0.573486	0.099831	-0.036634	-0.104777	0.551493	-0.031672	-0.800677	-0.231881	130.190326	-63.873497	-152.248951
18477		7.069326	-2.933861	-9.856758	4.908772	-8.067809	-1.654685	-0.142824	0.121227	0.162631	-0.913086	0.046387	-0.569336	0.070657	-0.029352	-0.098589	0.552172	-0.032792	-0.800129	-0.232001	130.142561	-64.005139	-152.300371
18478		8.624653	-1.545846	-8.840466	3.892704	-6.709896	-0.078648	0.902422	0.410872	-0.099238	-0.913086	0.050781	-0.573730	0.086057	-0.015102	-0.088650	0.553840	-0.029562	-0.800052	-0.228699	130.234340	-64.121854	-151.833706
18479		10.159795	1.357323	-3.804365	-0.144503	-2.393339	0.854438	1.335604	0.780834	-0.234579	-0.912598	0.035400	-0.582275	0.101465	0.013710	-0.038349	0.556902	-0.024247	-0.799411	-0.224084	130.134600	-64.323385	-150.885633
18480		9.640660	5.836689	0.424253	-2.349128	3.362165	0.692864	0.995732	0.537533	-0.233491	-0.916992	0.037598	-0.586670	0.096486	0.058233	0.004273	0.558898	-0.020073	-0.799052	-0.220785	130.054534	-64.427663	-150.170309
18481		8.856720	7.165348	1.190076	-2.374713	5.002217	0.214202	0.342135	0.208838	-0.081625	-0.917236	0.039795	-0.586670	0.088609	0.071597	0.011931	0.559699	-0.018785	-0.798838	-0.219641	130.018344	-64.484609	-149.926659
18482		8.431258	6.513904	0.333900	-1.631781	4.184988	-0.145647	-0.209408	0.058313	0.067977	-0.916992	0.037598	-0.591064	0.084291	0.065171	0.003246	0.559984	-0.019713	-0.798445	-0.220261	129.917512	-64.544207	-149.954085
18483		8.684213	5.015849	-0.169830	-1.672929	2.598520	-0.270565	-0.420161	-0.054485	0.180957	-0.926270	0.043945	-0.586914	0.086797	0.050233	-0.001780	0.559945	-0.021905	-0.798097	-0.221410	129.888716	-64.619537	-150.204081
18484		8.242437	4.937859	-1.449188	-0.378164	2.152304	-0.344589	-0.420524	-0.116281	0.274537	-0.926514	0.046143	-0.584717	0.082365	0.049461	-0.014548	0.559735	-0.024442	-0.797931	-0.222274	129.989472	-64.705664	-150.588353
18485		8.076791	4.347889	-3.203528	1.080641	1.003218	-0.209198	-0.344611	-0.116231	0.362307	-0.930908	0.046143	-0.584717	0.080708	0.043570	-0.032063	0.559652	-0.027213	-0.797807	-0.222606	130.205277	-64.837258	-151.060655
18486		7.962858	3.407133	-4.327059	1.854607	-0.231670	-0.312909	-0.258449	-0.025779	0.442884	-0.933594	0.054932	-0.586914	0.079559	0.034192	-0.043304	0.560002	-0.029866	-0.797534	-0.222361	130.453375	-65.029354	-151.504218
18487		8.234239	2.848603	-5.092378	2.284233	-1.059100	-0.039764	-0.199241	0.051117	0.500848	-0.931396	0.061523	-0.586914	0.082258	0.028641	-0.050973	0.560755	-0.032583	-0.797072	-0.221741	130.716086	-65.281524	-151.933546
18488		8.967768	1.980710	-4.893753	1.608228	-1.875031	0.296247	-0.084919	0.190391	0.494583	-0.936279	0.068115	-0.584717	0.089582	0.020008	-0.049031	0.562043	-0.034716	-0.796366	-0.220691	130.913707	-65.575393	-152.210511
18489		9.298150	1.609864	-4.574102	1.135082	-2.111006	0.396359	0.111466	0.304240	0.453387	-0.936279	0.065918	-0.593506	0.092875	0.016335	-0.045873	0.563792	-0.036092	-0.795533	-0.219004	131.087310	-65.900719	-152.344725
18490		9.283919	2.404175	-3.955712	0.884650	-1.114025	0.463251	0.272558	0.393126	0.385533	-0.934326	0.074951	-0.593750	0.092715	0.024275	-0.039706	0.565821	-0.036561	-0.794655	-0.216870	131.211517	-66.223297	-152.315896
18491		9.145201	2.617144	-2.998585	0.203077	-0.490072	0.146930	0.345251	0.427244	0.362084	-0.932129	0.079346	-0.600342	0.091340	0.026389	-0.030136	0.567992	-0.036775	-0.793732	-0.214527	131.326376	-66.555441	-152.238643
18492		9.115136	3.270792	-2.272258	-0.184960	0.417258	0.124031	0.305066	0.439381	0.361274	-0.943359	0.079102	-0.602539	0.091042	0.032907	-0.022873	0.570172	-0.037006	-0.792747	-0.212337	131.403614	-66.885143	-152.138550
18493		9.404759	3.302777	-1.710143	-0.726550	0.636260	0.254560	0.224724	0.431553	0.366224	-0.943848	0.092529	-0.611328	0.093950	0.033219	-0.017267	0.572328	-0.037581	-0.791666	-0.210460	131.448805	-67.220850	-152.061894
18494		9.268014	3.176407	-1.984791	-0.425041	0.470855	0.163406	0.166143	0.411877	0.371951	-0.941650	0.094727	-0.611328	0.092580	0.031953	-0.020012	0.574374	-0.038279	-0.790594	-0.208780	131.482897	-67.544771	-152.001778
18495		9.368698	3.259744	-2.047909	-0.328163	0.533249	0.296717	0.113923	0.401505	0.372507	-0.942139	0.108154	-0.611328	0.093585	0.032784	-0.020648	0.576384	-0.039240	-0.789468	-0.207321	131.500844	-67.871970	-151.966299
18496		9.099478	3.203457	-2.283494	0.004026	0.467912	0.089725	0.076129	0.409528	0.367528	-0.951172	0.107910	-0.622314	0.090889	0.032210	-0.023009	0.578390	-0.040181	-0.788297	-0.206006	131.480222	-68.193110	-151.903076
18497		9.074196	3.130733	-2.578304	0.304742	0.321038	0.116764	0.005210	0.396293	0.360759	-0.948975	0.110352	-0.620361	0.090634	0.031472	-0.025962	0.580333	-0.041426	-0.787063	-0.205011	131.429021	-68.513372	-151.861799
18498		9.328770	2.297516	-2.690111	0.121765	-0.502492	0.150928	-0.029830	0.426627	0.377415	-0.942627	0.121582	-0.631348	0.093186	0.023147	-0.027103	0.582386	-0.042695	-0.785718	-0.204085	131.334927	-68.845194	-151.785161
18499		9.285719	2.078840	-2.597001	0.040688	-0.637978	0.030158	-0.050491	0.451184	0.386762	-0.956543	0.130127	-0.633545	0.092758	0.020961	-0.026185	0.584550	-0.044146	-0.784248	-0.203243	131.211480	-69.197264	-151.700877
18500		9.610218	2.101454	-2.683708	0.083137	-0.682619	0.360880	-0.018688	0.503217	0.392863	-0.947754	0.136963	-0.640137	0.095993	0.021201	-0.027081	0.586910	-0.045363	-0.782673	-0.202241	131.044822	-69.564490	-151.540246
18501		9.541054	2.371683	-3.024174	0.559806	-0.527259	0.444527	0.023820	0.552359	0.392735	-0.952148	0.136963	-0.642334	0.095280	0.023908	-0.030502	0.589477	-0.046529	-0.780964	-0.201114	130.843412	-69.957082	-151.329366
18502		9.433507	2.679191	-3.209754	0.924238	-0.273566	0.460682	0.074560	0.605419	0.408473	-0.948242	0.148193	-0.657715	0.094182	0.026996	-0.032373	0.592260	-0.047428	-0.779160	-0.199721	130.609753	-70.368887	-151.041516
18503		9.013866	3.636567	-3.178812	1.390978	0.708462	0.293845	0.109251	0.658921	0.426189	-0.946533	0.161621	-0.657959	0.089956	0.036575	-0.032065	0.595280	-0.048363	-0.777192	-0.198182	130.342091	-70.814934	-150.709574
18504		9.130614	3.937092	-2.943556	1.314631	1.079674	0.416623	0.119622	0.688181	0.485141	-0.948730	0.166016	-0.673340	0.091108	0.039610	-0.029726	0.598452	-0.049343	-0.775144	-0.196400	130.086914	-71.290011	-150.373246
18505		9.445394	4.108965	-2.687937	1.132639	1.314199	0.690328	0.102625	0.724358	0.551998	-0.945068	0.183838	-0.677734	0.094242	0.041364	-0.027200	0.601849	-0.050611	-0.772915	-0.194472	129.829085	-71.812530	-150.045330
18506		9.752864	3.911089	-2.533299	0.938754	1.180211	0.890467	0.105266	0.754090	0.640952	-0.951904	0.190430	-0.688721	0.097306	0.039436	-0.025679	0.605399	-0.052171	-0.770582	-0.192286	129.619894	-72.379453	-149.768008
18507		9.860312	4.025649	-2.590108	1.099958	1.296894	1.015391	0.114080	0.805975	0.724291	-0.945557	0.197266	-0.693115	0.098351	0.040628	-0.026275	0.609247	-0.053987	-0.768034	-0.189807	129.419432	-73.006831	-149.495462
18508		9.692908	3.975258	-2.720132	1.353536	1.284133	0.849014	0.133586	0.852668	0.815742	-0.946045	0.212891	-0.702148	0.096649	0.040166	-0.027587	0.613314	-0.056035	-0.765335	-0.186996	129.258802	-73.686426	-149.253768
18509		9.326629	3.709335	-2.719196	1.471250	1.153852	0.416769	0.153998	0.905898	0.913698	-0.939453	0.219727	-0.710938	0.092971	0.037540	-0.027585	0.617689	-0.058356	-0.762412	-0.183800	129.129605	-74.433355	-149.033529
18510		9.178007	3.755341	-2.104042	1.071305	1.501682	0.155313	0.219568	0.986403	1.003395	-0.937988	0.235352	-0.719727	0.091485	0.038036	-0.021451	0.622412	-0.060727	-0.759261	-0.180106	129.013005	-75.244387	-148.788199
18511		9.400057	2.179309	-1.305593	-0.085433	0.362463	-0.082609	0.277886	1.096542	1.134283	-0.938477	0.253174	-0.733154	0.093802	0.022344	-0.013540	0.627682	-0.063322	-0.755713	-0.175794	128.895181	-76.157742	-148.508176
18512		9.811839	4.341569	-1.299416	0.651642	2.408463	0.703105	0.371042	1.241597	1.236847	-0.934570	0.268799	-0.746338	0.097764	0.044046	-0.013520	0.633544	-0.065868	-0.751727	-0.170852	128.687616	-77.164312	-148.082146
18513		9.488632	4.629995	-3.348786	2.867408	2.119502	0.673853	0.229180	1.215898	1.402041	-0.924072	0.284668	-0.759521	0.094353	0.047001	-0.034009	0.639378	-0.069512	-0.747559	-0.165888	128.670089	-78.239657	-147.935672
18514		10.207044	7.514989	-5.308757	5.664813	4.201179	1.981178	0.003295	1.233048	1.606397	-0.917725	0.298096	-0.772705	0.101133	0.075966	-0.053712	0.645278	-0.074610	-0.743029	-0.161114	128.856716	-79.408207	-148.129689
18515		10.717263	6.209304	-4.446106	4.574005	3.358124	2.060704	-0.208715	1.213365	1.860777	-0.907471	0.322754	-0.781738	0.106316	0.063038	-0.045173	0.651180	-0.081352	-0.738190	-0.156275	129.563499	-80.685839	-148.974487
18516		12.561497	3.588661	-2.565453	1.947915	1.554495	3.265207	-0.153894	1.272590	2.131902	-0.905762	0.340576	-0.794922	0.125056	0.037201	-0.026480	0.657417	-0.088850	-0.733008	-0.150359	131.102809	-82.097249	-150.626066
18517		14.566896	2.051351	-1.237509	0.245527	0.657107	4.932748	0.221917	1.449119	2.366688	-0.890869	0.363281	-0.808105	0.145318	0.022249	-0.013405	0.664551	-0.095831	-0.727274	-0.142341	133.731588	-83.669613	-153.152658
18518		14.715097	3.184984	-2.712608	2.307762	1.513929	5.233954	0.705730	1.464817	2.549973	-0.878662	0.392334	-0.823730	0.146525	0.033819	-0.028084	0.671940	-0.101833	-0.721609	-0.131937	139.257192	-85.292611	-158.302815
18519		16.273754	7.681071	-2.780412	4.037127	6.045762	6.881302	0.986591	1.523751	2.690965	-0.872559	0.410400	-0.836914	0.161467	0.079129	-0.028651	0.679631	-0.107340	-0.715660	-0.120040	151.327665	-86.904179	-169.839059
18520		17.275661	11.363372	-0.658064	3.479065	10.600609	7.608548	0.824102	1.649378	2.774017	-0.857422	0.430664	-0.850098	0.171099	0.116044	-0.007521	0.687529	-0.113588	-0.708967	-0.108480	-175.633427	-88.214178	157.562649
18521		16.966140	10.844457	-1.711118	4.697974	10.175772	7.001817	0.428616	1.704763	2.884080	-0.847168	0.455322	-0.856934	0.167921	0.110913	-0.018312	0.695280	-0.121520	-0.701587	-0.097949	-113.910080	-88.022748	96.051992
18522		17.376062	9.630842	-2.885937	5.851341	9.078128	7.108262	0.142842	1.682919	3.057310	-0.830078	0.475586	-0.876709	0.172011	0.098968	-0.030242	0.702641	-0.131030	-0.693847	-0.087770	-87.414175	-86.422445	69.604837
18523		17.022545	8.818416	-4.335792	7.396986	8.253659	6.418489	0.061621	1.628934	3.187123	-0.813232	0.504883	-0.887695	0.168431	0.090891	-0.044707	0.709610	-0.141249	-0.685941	-0.077370	-78.572146	-84.477949	60.765679
18524		15.577111	8.737426	-4.578288	7.921200	8.374872	4.575832	-0.082535	1.476292	3.267135	-0.798340	0.527344	-0.892334	0.153973	0.089880	-0.046961	0.715741	-0.152275	-0.678258	-0.067031	-75.204381	-82.449037	57.323183
18525		15.072121	7.615505	-5.171836	8.453854	7.437074	3.792568	-0.385260	1.256778	3.336457	-0.783447	0.549805	-0.896729	0.149095	0.078550	-0.052808	0.720698	-0.164628	-0.670975	-0.057306	-74.202391	-80.404633	56.080713
18526		14.355402	5.608790	-4.739761	7.678336	5.926838	3.067248	-0.492611	1.128398	3.284000	-0.773438	0.581055	-0.901367	0.142338	0.058314	-0.048345	0.724881	-0.177193	-0.663963	-0.047982	-73.967139	-78.405241	55.548585
18527		12.555974	5.675788	-4.596292	7.614681	6.024340	0.990116	-0.577022	0.894974	3.068030	-0.756104	0.599121	-0.894775	0.124463	0.058539	-0.046689	0.727960	-0.189329	-0.657774	-0.039531	-74.273226	-76.565110	55.517176
18528		10.427844	4.070357	-3.457537	5.957101	4.723368	-0.898836	-0.922350	0.578663	2.866750	-0.752441	0.621338	-0.888428	0.103581	0.042031	-0.035068	0.729441	-0.202096	-0.652694	-0.032608	-75.275901	-74.880445	56.000617
18529		9.196559	0.470518	-3.771826	5.075264	1.230322	-1.342197	-0.936709	0.318424	2.585678	-0.739990	0.643799	-0.888428	0.091836	0.005716	-0.037890	0.729858	-0.213973	-0.648706	-0.026524	-76.486812	-73.390983	56.694955
18530		7.048913	1.719679	-3.027908	4.521467	2.244518	-3.785326	-0.095428	0.584649	2.068418	-0.733154	0.646240	-0.895020	0.070217	0.017909	-0.030493	0.731852	-0.221057	-0.644307	-0.019843	-76.416142	-72.147437	56.557852
18531		2.063731	12.439516	0.303032	3.935654	11.848445	-11.605769	0.598501	0.957418	1.241671	-0.722412	0.655273	-0.897217	0.019880	0.124511	0.003306	0.735664	-0.222855	-0.639473	-0.014400	-75.018135	-71.314943	55.440161
18532		-3.175376	16.039947	-1.993655	6.239544	12.859906	-17.999638	-0.766179	-0.003046	0.665274	-0.736084	0.659424	-0.886230	-0.032287	0.160215	-0.020551	0.734806	-0.227914	-0.638678	-0.014331	-75.771159	-70.933731	55.766114
18533		-5.119546	19.795697	-4.768521	9.848346	14.570810	-21.280369	-1.688171	-0.680769	-0.068914	-0.738281	0.659180	-0.864502	-0.050961	0.197562	-0.049528	0.730641	-0.234018	-0.641117	-0.019182	-77.835999	-71.055102	56.920058
18534		-2.957658	14.714681	-4.218219	8.388933	10.657140	-17.500368	-2.352548	-0.845534	-0.731184	-0.754395	0.667725	-0.844727	-0.028856	0.146742	-0.044033	0.725014	-0.240446	-0.644778	-0.028335	-80.381246	-71.544784	58.178172
18535		-2.309117	8.997217	-4.615297	7.133375	5.483290	-14.972547	-2.403633	-0.853124	-1.311131	-0.763184	0.660645	-0.818359	-0.022303	0.089556	-0.047327	0.719079	-0.245103	-0.649049	-0.039808	-82.928116	-72.354400	59.400891
18536		-1.315632	8.399700	-5.377567	7.949197	4.799836	-13.681617	-2.060043	-0.898865	-1.988392	-0.778564	0.649170	-0.807373	-0.012080	0.083560	-0.054694	0.713131	-0.246326	-0.654229	-0.052469	-85.425340	-73.526288	60.772416
18537		0.445413	8.732569	-5.943580	8.986441	5.189045	-11.835089	-1.790309	-0.833781	-2.696108	-0.795898	0.631104	-0.789795	0.005876	0.086716	-0.060191	0.707356	-0.244148	-0.659972	-0.066912	-87.848307	-75.092460	62.215623
18538		3.110787	7.957241	-4.810383	8.050457	5.491197	-8.735321	-1.558287	-0.655581	-3.283375	-0.819580	0.606201	-0.778809	0.032563	0.078668	-0.048614	0.702045	-0.239122	-0.665657	-0.082789	-90.141699	-76.965886	63.652814
18539		5.894159	6.103633	-3.275195	6.149514	4.946924	-5.293572	-1.417153	-0.587990	-3.758278	-0.832031	0.576904	-0.760986	0.060168	0.059680	-0.033002	0.696655	-0.231854	-0.671504	-0.099995	-92.835016	-79.106652	65.567291
18540		8.215040	4.456266	-2.693739	4.974407	3.919729	-2.431792	-1.337670	-0.553077	-4.093299	-0.855469	0.541016	-0.747803	0.083112	0.042688	-0.026998	0.691015	-0.223114	-0.677341	-0.118016	-96.585720	-81.404166	68.588825
18541		9.942917	3.259690	-2.831875	4.452614	2.708157	-0.308645	-1.360073	-0.491246	-4.288478	-0.869873	0.507324	-0.736572	0.100164	0.030262	-0.028284	0.685087	-0.213593	-0.682859	-0.136884	-102.707434	-83.778736	73.966516
18542		12.438220	2.097784	-3.500874	4.294177	1.195116	2.494509	-1.493984	-0.451777	-4.384551	-0.886475	0.473633	-0.729980	0.124877	0.017983	-0.034869	0.678746	-0.204117	-0.687875	-0.156423	-115.614536	-86.064537	86.056612
18543		15.019780	0.628171	-3.921309	3.585124	-0.658889	5.288090	-1.738283	-0.443142	-4.378998	-0.898682	0.437988	-0.716553	0.150369	0.002651	-0.038914	0.671793	-0.195314	-0.692308	-0.176795	-153.184822	-87.760427	122.668169
18544		16.248621	-0.914991	-4.623481	2.930532	-2.908031	6.592651	-2.039094	-0.502850	-4.225978	-0.908447	0.399902	-0.705322	0.162353	-0.013049	-0.045707	0.664128	-0.188052	-0.696121	-0.197449	147.808525	-87.297856	-179.454548
18545		16.441314	-2.057799	-5.734683	2.749195	-5.064228	6.745684	-2.395971	-0.620915	-3.956238	-0.916504	0.377441	-0.696533	0.164131	-0.024508	-0.056559	0.655587	-0.182871	-0.699358	-0.218317	124.505387	-85.435028	-157.492592
18546		16.767549	-4.268149	-7.250349	2.202084	-8.302681	6.863395	-2.790621	-0.784672	-3.591004	-0.922363	0.350830	-0.685303	0.167142	-0.046686	-0.071214	0.646192	-0.180397	-0.701972	-0.239015	116.298230	-83.439892	-150.859966
18547		16.884225	-7.427108	-8.697255	0.916769	-12.194815	6.504877	-2.839165	-0.874385	-3.191140	-0.927979	0.321777	-0.667480	0.167991	-0.078174	-0.085145	0.636556	-0.179447	-0.704123	-0.258470	112.442325	-81.567778	-148.620340
18548		15.955259	-9.804737	-9.209758	-0.642237	-14.680634	5.004049	-2.526455	-0.910149	-2.765087	-0.936523	0.310303	-0.660889	0.158579	-0.101391	-0.090108	0.627392	-0.179025	-0.706093	-0.275248	110.467499	-79.914359	-148.091947
18549		15.162432	-11.420718	-8.824755	-2.442824	-15.854413	3.634946	-2.110584	-1.025737	-2.323231	-0.933350	0.288330	-0.647705	0.150723	-0.116879	-0.086249	0.618561	-0.178913	-0.708396	-0.289046	109.778326	-78.464292	-148.629303
18550		15.016431	-13.459577	-9.017551	-4.078936	-17.636403	2.846715	-1.513449	-1.132837	-1.921172	-0.933105	0.277100	-0.632324	0.149362	-0.136706	-0.088299	0.610364	-0.178539	-0.711353	-0.299260	110.039297	-77.220286	-149.789003
18551		14.561979	-14.747594	-9.132350	-5.132357	-18.685307	1.911125	-0.593915	-1.090774	-1.554284	-0.936768	0.259277	-0.634277	0.144960	-0.148873	-0.090091	0.603563	-0.176539	-0.715152	-0.305127	110.886734	-76.170942	-151.016569
18552		14.059833	-13.970467	-8.652386	-5.139519	-17.765027	1.399059	0.416736	-1.003093	-1.200745	-0.934326	0.248047	-0.621094	0.140190	-0.140367	-0.086112	0.598497	-0.172643	-0.719837	-0.306318	112.264343	-75.331555	-152.197301
18553		13.757086	-12.300316	-8.241998	-4.408278	-16.236679	1.386548	1.249832	-0.921420	-0.868039	-0.934082	0.243652	-0.616699	0.137417	-0.123084	-0.082556	0.594907	-0.167195	-0.725249	-0.303554	114.082003	-74.669543	-153.333066
18554		13.267087	-10.623566	-7.136496	-4.059971	-14.215205	1.198619	1.927983	-0.832511	-0.593627	-0.933838	0.237061	-0.612305	0.132654	-0.105938	-0.071835	0.592567	-0.160692	-0.731091	-0.297570	116.246076	-74.170038	-154.438698
18555		12.564188	-8.937610	-5.310723	-4.178635	-11.701308	0.749510	2.464713	-0.773275	-0.376322	-0.935547	0.225830	-0.605469	0.125681	-0.088953	-0.053719	0.591100	-0.153203	-0.737310	-0.288970	118.710436	-73.778717	-155.531446
18556		11.460877	-6.945503	-3.303360	-4.205597	-8.799626	-0.046320	2.824759	-0.706586	-0.220996	-0.937744	0.221436	-0.607666	0.114650	-0.069110	-0.033606	0.590279	-0.145176	-0.743559	-0.278595	121.337399	-73.476816	-156.588396
18557		10.358526	-4.887035	-1.031100	-4.508964	-5.711960	-0.908330	2.994362	-0.675411	-0.117830	-0.930908	0.217041	-0.605469	0.103592	-0.048773	-0.010692	0.589689	-0.136908	-0.749742	-0.267227	124.056934	-73.215891	-157.636308
18558		9.204232	-3.280770	1.178550	-5.117220	-3.063983	-1.983503	2.947121	-0.691231	-0.082256	-0.928467	0.214844	-0.605469	0.091988	-0.033018	0.011618	0.588937	-0.128950	-0.755680	-0.255877	126.750155	-72.957279	-158.692223
18559		7.532430	-1.879192	2.988597	-5.473164	-0.800234	-3.599483	2.766098	-0.726899	-0.134393	-0.932861	0.210205	-0.601074	0.075203	-0.019256	0.029895	0.587715	-0.121328	-0.761388	-0.245272	129.283658	-72.645156	-159.688155
18560		5.988645	-0.726290	4.543979	-5.852624	1.060740	-5.158754	2.507493	-0.793192	-0.296034	-0.934814	0.201416	-0.598877	0.059694	-0.007922	0.045580	0.585800	-0.113928	-0.766901	-0.236053	131.500424	-72.229667	-160.512239
18561		4.665331	-0.040296	5.960587	-6.439406	2.389279	-6.631717	2.167762	-0.870774	-0.556256	-0.934326	0.192627	-0.601074	0.046391	-0.001180	0.059798	0.582967	-0.106603	-0.772289	-0.228812	133.256418	-71.662994	-161.058295
18562		3.852101	-0.200477	7.081004	-7.301935	2.753101	-7.783175	1.840603	-0.925267	-0.904805	-0.933838	0.179199	-0.592041	0.038181	-0.002831	0.070964	0.579299	-0.098930	-0.777522	-0.223796	134.412598	-70.929319	-161.171455
18563		3.782181	-0.371225	7.920815	-8.142214	2.876119	-8.196718	1.502184	-0.933079	-1.291920	-0.928955	0.166016	-0.587646	0.037424	-0.004551	0.079351	0.574908	-0.090742	-0.782511	-0.221184	134.916195	-70.032406	-160.799280
18564		5.033465	-0.624273	8.433055	-9.157204	2.614867	-7.333462	1.132955	-0.902628	-1.667451	-0.927979	0.145996	-0.580811	0.049896	-0.007138	0.084518	0.570007	-0.082088	-0.787067	-0.221085	134.772786	-68.997502	-159.959239
18565		8.223780	-1.200290	8.855156	-10.902087	1.753571	-4.758060	0.688308	-0.822911	-1.989247	-0.927246	0.125977	-0.572021	0.081746	-0.013123	0.088845	0.564797	-0.073356	-0.790948	-0.223662	134.033942	-67.859735	-158.748314
18566		13.402300	-2.447818	8.950436	-13.388095	-0.208235	-0.515942	0.226639	-0.724767	-2.159629	-0.926514	0.105957	-0.578369	0.133422	-0.026023	0.089960	0.559558	-0.065116	-0.793990	-0.228549	132.876778	-66.683334	-157.359098
18567		19.605926	-4.300616	7.861227	-15.557681	-3.516473	4.687762	-0.214679	-0.580922	-2.146365	-0.925781	0.083740	-0.562988	0.195354	-0.045020	0.079228	0.554688	-0.058012	-0.796021	-0.235172	131.471423	-65.556850	-155.964609
18568		22.057613	-5.885123	2.527911	-12.689251	-7.946995	7.604930	-0.493817	-0.516890	-1.979868	-0.922852	0.068359	-0.567139	0.219913	-0.060967	0.025997	0.550127	-0.052241	-0.797407	-0.242433	130.099698	-64.512541	-154.769856
18569		24.588095	-15.479557	-0.859124	-14.495637	-18.470647	7.322310	-1.678664	-1.031242	-1.212138	-0.917969	0.057373	-0.558350	0.244972	-0.156340	-0.006019	0.544080	-0.053431	-0.798467	-0.252137	129.183837	-63.611778	-154.828343
18570		26.068066	-21.406042	-10.333298	-9.770817	-28.185236	9.019042	-1.194337	-1.194428	-0.007018	-0.917969	0.054932	-0.556152	0.261279	-0.214675	-0.100493	0.538963	-0.058291	-0.800184	-0.256565	129.569678	-63.182896	-156.031460
18571		27.934531	15.417452	3.799044	-8.839229	9.852398	19.466220	-0.157352	1.264053	-0.151957	-0.913330	0.057373	-0.580322	0.279695	0.153991	0.036102	0.543795	-0.056640	-0.796597	-0.257898	128.270235	-63.583814	-154.682526
18572		16.482267	28.325198	8.884464	-3.485876	25.319131	12.541103	-0.554288	1.020665	-0.548336	-0.917480	0.044189	-0.582520	0.166047	0.283041	0.087215	0.546986	-0.054781	-0.793247	-0.261850	126.648788	-63.698932	-153.233654
18573		13.314047	5.805148	14.747301	-15.450046	9.299148	0.349333	0.007034	0.748356	0.110231	-0.926758	0.054932	-0.584717	0.133659	0.058120	0.146976	0.550132	-0.054356	-0.791158	-0.261667	126.042762	-64.017624	-152.558188
18574		11.711510	-0.309172	6.480131	-10.103849	0.460732	-1.040765	0.233157	0.252771	0.699937	-0.933594	0.059326	-0.591309	0.117207	-0.002757	0.064650	0.552108	-0.056287	-0.790571	-0.258854	126.444370	-64.435762	-152.862040
18575		5.755151	5.812291	4.026641	-3.430396	5.781719	-3.654588	0.454270	-0.083968	0.649860	-0.934082	0.068115	-0.584717	0.057345	0.058218	0.040423	0.552785	-0.057858	-0.791176	-0.255190	127.271300	-64.719729	-153.495426
18576		7.790577	11.057454	3.264524	-1.555897	9.631638	0.108315	-0.358403	-0.257488	1.018911	-0.925537	0.081543	-0.578369	0.077299	0.111028	0.032546	0.552954	-0.063342	-0.791124	-0.253680	128.097656	-65.100340	-154.640805
18577		9.071727	8.562128	-3.528834	2.843523	4.128399	2.142553	-1.017759	-0.391821	1.400339	-0.937256	0.094727	-0.573975	0.090185	0.086074	-0.035549	0.552877	-0.072345	-0.790410	-0.253662	129.002664	-65.602519	-156.285789
18578		10.915606	1.821462	-8.929511	4.071630	-4.509353	3.043889	-1.098658	-0.352763	1.472081	-0.933594	0.112549	-0.574219	0.109178	0.018528	-0.089204	0.552927	-0.081779	-0.789423	-0.253763	129.940227	-66.133567	-158.009021
18579		10.436321	-4.015112	-11.927873	4.371606	-10.847890	1.612008	-0.474886	0.200587	1.390758	-0.945313	0.127930	-0.585205	0.104521	-0.039708	-0.119289	0.555313	-0.088471	-0.787645	-0.251825	130.669602	-66.829375	-159.107717
18580		8.331764	-4.152172	-9.687116	3.298131	-9.483099	-0.885743	0.353289	0.638669	1.185678	-0.941162	0.139160	-0.587402	0.083251	-0.040857	-0.097210	0.559462	-0.091488	-0.785769	-0.247384	131.299228	-67.590271	-159.577170
18581		7.363705	-2.394931	-7.202029	2.441147	-6.535504	-1.865698	0.980155	0.844879	0.965979	-0.946045	0.147949	-0.598633	0.073445	-0.023240	-0.072446	0.564441	-0.091638	-0.784126	-0.241154	131.898894	-68.338959	-159.623216
18582		8.156265	0.447387	-3.598656	0.451809	-2.361429	-1.216581	1.239504	0.997637	0.802580	-0.946045	0.147949	-0.603027	0.081362	0.005025	-0.036363	0.569863	-0.090214	-0.782403	-0.234441	132.339506	-69.071222	-159.339905
18583		10.025845	4.396872	0.212795	-1.698183	2.699173	0.662301	0.824052	0.805745	0.678535	-0.944092	0.152344	-0.605225	0.100117	0.044300	0.001906	0.574198	-0.089731	-0.780727	-0.229585	132.634493	-69.683073	-159.156423
18584		12.323563	7.511008	2.117525	-2.728009	6.078377	3.163430	-0.036718	0.469772	0.673900	-0.953369	0.163330	-0.614014	0.123031	0.075529	0.020872	0.576780	-0.092061	-0.779026	-0.227966	132.818565	-70.157020	-159.380777
18585		9.558987	5.474982	2.023416	-2.490359	4.626156	0.078700	-0.922635	0.241734	0.682449	-0.951416	0.172363	-0.611816	0.095426	0.055168	0.019865	0.578091	-0.097269	-0.776924	-0.229650	132.780330	-70.551462	-159.908925
18586		7.982829	1.351098	0.841195	-2.630552	0.687435	-2.140273	-1.396176	-0.033570	0.599812	-0.954346	0.185547	-0.612061	0.079786	0.013809	0.008330	0.577949	-0.103804	-0.775100	-0.233279	132.716674	-70.798454	-160.695124
18587		10.129715	-1.963735	-0.688261	-3.411171	-3.115634	-0.560790	-1.216559	-0.064230	0.485586	-0.959229	0.198730	-0.616455	0.101347	-0.019433	-0.006731	0.577651	-0.109438	-0.773568	-0.236504	132.673328	-70.991586	-161.394410
18588		11.422119	-2.351200	-1.343397	-3.435915	-3.866462	0.724986	-0.701596	0.034941	0.305916	-0.954834	0.201172	-0.614258	0.114255	-0.023384	-0.013372	0.577756	-0.112739	-0.772460	-0.238313	132.606130	-71.141786	-161.754275
18589		10.672452	-1.534610	-1.982267	-2.294759	-3.389023	0.357574	-0.173343	0.149200	0.102105	-0.957275	0.205566	-0.612061	0.106718	-0.015309	-0.019889	0.578389	-0.113618	-0.771733	-0.238717	132.470140	-71.256790	-161.722142
18590		9.182462	0.157053	-2.376604	-0.731161	-1.984643	-0.565142	0.156296	0.194052	-0.095720	-0.955078	0.205566	-0.620850	0.091802	0.001545	-0.023854	0.579108	-0.112698	-0.771407	-0.238462	132.240169	-71.298932	-161.390691
18591		9.485038	0.599703	-2.031635	-0.902960	-1.476975	-0.249408	0.255567	0.161908	-0.231289	-0.964355	0.211914	-0.616455	0.094841	0.005913	-0.020386	0.579633	-0.111037	-0.771341	-0.238179	131.954044	-71.277264	-160.940592
18592		9.861642	1.493485	-1.933677	-0.698133	-0.719254	0.297546	0.336005	0.160621	-0.315446	-0.961670	0.205322	-0.616455	0.098624	0.014812	-0.019391	0.580058	-0.108788	-0.771444	-0.237848	131.621424	-71.211717	-160.391930
18593		9.578754	2.240200	-1.835167	-0.368750	-0.020293	0.187432	0.294660	0.119183	-0.359521	-0.959717	0.209961	-0.623047	0.095817	0.022257	-0.018376	0.580286	-0.106559	-0.771612	-0.237755	131.271922	-71.117107	-159.849623
18594		9.566532	1.992055	-1.860731	-0.462101	-0.271307	0.120184	0.307884	0.114756	-0.351632	-0.966309	0.207520	-0.623047	0.095689	0.019781	-0.018632	0.580470	-0.104306	-0.771827	-0.237610	130.948706	-71.016579	-159.327357
18595		9.248271	2.715210	-1.967702	0.032986	0.318539	0.019512	0.395731	0.121399	-0.305847	-0.957520	0.209961	-0.629639	0.092512	0.027050	-0.019680	0.580817	-0.101987	-0.772072	-0.236970	130.720795	-70.944217	-158.851855
18596		8.822125	3.652744	-2.314457	0.853239	1.004132	-0.076527	0.516591	0.143007	-0.223049	-0.959717	0.214355	-0.629639	0.088245	0.036489	-0.023113	0.581363	-0.099589	-0.772376	-0.235657	130.626669	-70.908827	-158.445017
18597		8.253440	4.581096	-2.990742	1.993541	1.560565	-0.239774	0.527192	0.178696	-0.099503	-0.966553	0.216553	-0.631836	0.082531	0.045849	-0.029860	0.582233	-0.097615	-0.772495	-0.233938	130.626372	-70.946877	-158.130581
18598		8.054824	5.593282	-3.259347	2.713627	2.358560	-0.124462	0.436287	0.216101	0.097589	-0.967041	0.225342	-0.636475	0.080486	0.056043	-0.032558	0.583389	-0.096602	-0.772324	-0.232035	130.740092	-71.078123	-157.992419
18599		8.192411	6.326036	-3.452732	3.165004	2.920629	0.212690	0.239475	0.249016	0.322364	-0.964844	0.227539	-0.634277	0.081779	0.063434	-0.034553	0.584873	-0.097011	-0.771690	-0.230231	130.945016	-71.325337	-158.069538
18600		8.787070	5.333213	-3.668101	2.798216	1.914950	0.560996	0.054642	0.302419	0.528000	-0.956543	0.245605	-0.634277	0.087674	0.053574	-0.036799	0.586668	-0.098673	-0.770607	-0.228582	131.211956	-71.675283	-158.323923
18601		9.170127	3.792361	-3.614299	2.055498	0.587849	0.529708	0.020807	0.403359	0.691509	-0.952637	0.259033	-0.645264	0.091496	0.038244	-0.036324	0.589048	-0.100964	-0.769074	-0.226614	131.525833	-72.138910	-158.647259
18602		9.094949	3.391161	-3.525751	1.907505	0.334984	0.331149	0.073479	0.495517	0.793115	-0.955078	0.267822	-0.654297	0.090726	0.034285	-0.035470	0.591878	-0.103368	-0.767286	-0.224204	131.887196	-72.674963	-158.988067
18603		9.219095	3.361613	-3.200397	1.666426	0.502152	0.361035	0.099440	0.556349	0.851980	-0.948730	0.276855	-0.658691	0.091957	0.034024	-0.032243	0.595039	-0.105865	-0.765275	-0.221529	132.274299	-73.263990	-159.338948
18604		9.586815	2.434540	-2.905120	1.010344	-0.155631	0.445367	0.083011	0.587053	0.901741	-0.949463	0.294678	-0.658691	0.095671	0.024789	-0.029322	0.598314	-0.108550	-0.763129	-0.218795	132.701798	-73.879910	-159.740898
18605		9.979053	1.992132	-2.271774	0.270117	-0.229587	0.607690	0.068547	0.616932	0.922255	-0.945557	0.310303	-0.669678	0.099627	0.020389	-0.023018	0.601730	-0.111334	-0.760821	-0.216048	133.136535	-74.520286	-160.157430
18606		10.152494	2.075237	-1.958095	0.092167	0.032620	0.732604	0.044013	0.623546	0.916856	-0.934814	0.328369	-0.678711	0.101367	0.021222	-0.019893	0.605101	-0.114146	-0.758468	-0.213424	133.575864	-75.155064	-160.592281
18607		10.364531	1.885420	-1.794080	-0.080475	-0.018896	0.873243	-0.017016	0.600207	0.890724	-0.935303	0.337158	-0.674316	0.103506	0.019314	-0.018253	0.608334	-0.117080	-0.756089	-0.211074	134.014489	-75.773905	-161.060957
18608		10.745481	1.472477	-1.977475	-0.085382	-0.441997	1.202764	-0.026161	0.614682	0.876360	-0.926758	0.350830	-0.694092	0.107327	0.015193	-0.020107	0.611551	-0.119954	-0.753665	-0.208821	134.441105	-76.386711	-161.521694
18609		10.465578	2.176862	-2.125092	0.519244	0.188474	1.072017	-0.005832	0.643439	0.857046	-0.920410	0.359619	-0.696289	0.104492	0.022216	-0.021588	0.614881	-0.122674	-0.751140	-0.206544	134.836732	-77.007411	-161.937075
18610		10.281319	2.407118	-2.452432	1.053508	0.306756	0.971976	0.052408	0.703387	0.870638	-0.914307	0.375488	-0.700928	0.102620	0.024525	-0.024879	0.618437	-0.125186	-0.748483	-0.204054	135.222165	-77.652245	-162.307094
18611		9.994837	2.616145	-2.536086	1.390907	0.526745	0.721033	0.138979	0.767239	0.925364	-0.905762	0.386719	-0.714111	0.099728	0.026641	-0.025725	0.622349	-0.127579	-0.745634	-0.201088	135.684870	-78.349389	-162.704103
18612		10.296007	2.699896	-3.019743	1.916750	0.423225	1.075893	0.205157	0.833245	1.026664	-0.903809	0.395752	-0.725098	0.102693	0.027558	-0.030598	0.626596	-0.130058	-0.742572	-0.197609	136.322370	-79.108375	-163.239988
18613		10.089075	3.711240	-3.461521	2.923642	1.204911	1.029043	0.306480	0.907790	1.119885	-0.886475	0.416016	-0.731689	0.100522	0.037729	-0.035015	0.631273	-0.132499	-0.739258	-0.193485	137.164305	-79.938260	-163.922954
18614		9.970860	4.054750	-3.360220	3.148149	1.646697	0.888947	0.348375	0.972071	1.244957	-0.884521	0.422852	-0.747070	0.099289	0.041225	-0.034014	0.636271	-0.135186	-0.735674	-0.188858	138.344325	-80.836686	-164.922984
18615		10.770988	5.089482	-2.800917	3.144364	2.884693	1.656837	0.334448	1.063604	1.375211	-0.874023	0.440918	-0.758057	0.107206	0.051681	-0.028494	0.641697	-0.138312	-0.731625	-0.183902	139.912671	-81.823513	-166.320926
18616		12.262448	5.735680	-3.797858	4.299414	3.080193	3.214631	0.141524	1.086646	1.531852	-0.856445	0.454590	-0.766846	0.121972	0.058320	-0.038601	0.647139	-0.142586	-0.727173	-0.179163	142.261943	-82.865218	-168.615066
18617		13.753767	5.555421	-4.383517	4.795970	2.757885	4.631291	0.038624	1.121482	1.700793	-0.850342	0.472412	-0.773682	0.136810	0.056728	-0.044593	0.652744	-0.147770	-0.722307	-0.174249	145.980656	-83.966088	-172.341439
18618		14.104798	3.950151	-3.529445	3.552466	1.854025	4.711076	0.088344	1.141351	1.838987	-0.835449	0.490479	-0.786865	0.140472	0.040811	-0.036079	0.658482	-0.153248	-0.717254	-0.168709	152.089729	-85.074303	-178.433006
18619		14.510211	3.160808	-3.449232	3.374369	1.367192	4.991635	0.377084	1.184808	1.987567	-0.824707	0.506348	-0.797852	0.144571	0.033113	-0.035288	0.664656	-0.158259	-0.712079	-0.161649	162.829428	-86.146840	171.007572
18620		14.634576	3.792160	-2.126282	2.747278	2.729180	4.954328	0.781855	1.295550	2.077698	-0.811523	0.515625	-0.808838	0.145800	0.039523	-0.022056	0.671497	-0.162125	-0.706699	-0.152918	-178.219731	-87.051433	152.467596
18621		14.718088	4.792057	-1.921468	3.280131	3.955221	4.913548	1.040773	1.296769	2.200291	-0.798828	0.535889	-0.817627	0.146513	0.049637	-0.019911	0.678541	-0.165529	-0.701272	-0.142830	-147.638167	-87.396871	122.443395
18622		15.598109	6.140045	-2.051285	4.235385	5.425221	5.608747	1.156127	1.306964	2.364977	-0.790039	0.540527	-0.839600	0.155103	0.063359	-0.021166	0.685679	-0.169073	-0.695627	-0.131763	-117.214971	-86.870812	92.641718
18623		16.221098	8.463728	-1.612764	5.090425	8.059552	5.886683	1.129630	1.366764	2.487993	-0.772705	0.560791	-0.848633	0.161028	0.086739	-0.016745	0.692941	-0.173059	-0.689485	-0.120387	-98.230087	-85.721900	74.261700
18624		16.350990	8.726958	-2.665400	6.454866	8.209097	5.728888	1.016117	1.389193	2.565720	-0.762207	0.576660	-0.857422	0.162183	0.089494	-0.027333	0.700052	-0.177650	-0.682979	-0.109123	-87.724208	-84.275220	64.295476
18625		16.204875	7.494595	-3.277745	6.828861	7.164374	5.403223	1.036692	1.445420	2.652438	-0.744385	0.581543	-0.870605	0.160794	0.077257	-0.033546	0.707255	-0.182385	-0.676030	-0.097518	-81.239631	-82.667653	58.361330
18626		15.470563	6.948090	-4.475782	7.973412	6.467677	4.407531	1.164912	1.414902	2.760472	-0.724609	0.595215	-0.888184	0.153405	0.071868	-0.045432	0.714326	-0.187004	-0.668982	-0.085034	-77.152128	-80.948050	54.900813
18627		14.309350	8.096499	-4.290031	8.384963	7.791243	2.744329	1.195303	1.391512	2.847267	-0.720703	0.611084	-0.903564	0.141618	0.083247	-0.043396	0.721187	-0.191750	-0.661757	-0.072109	-74.386546	-79.159421	52.782682
18628		12.626365	8.589802	-5.049046	9.278170	8.035195	0.581090	1.019120	1.270640	2.908253	-0.700684	0.620361	-0.905762	0.124672	0.087977	-0.050841	0.727291	-0.197333	-0.654660	-0.059394	-72.755255	-77.342628	51.707348
18629		10.879692	8.140040	-5.114002	9.098126	7.579896	-1.414324	0.821169	1.103928	2.873106	-0.692383	0.633789	-0.921143	0.107327	0.083160	-0.051396	0.732448	-0.203500	-0.647974	-0.047301	-71.892210	-75.573015	51.297418
18630		10.073502	7.687255	-3.327331	7.271752	7.880623	-2.286334	0.672528	0.923678	2.671162	-0.679443	0.649658	-0.925537	0.099541	0.078320	-0.033473	0.736651	-0.209569	-0.641962	-0.036207	-71.465300	-73.941503	51.248541
18631		10.307715	5.536423	-3.053712	6.460247	6.265540	-1.736379	0.279264	0.589267	2.411341	-0.670654	0.658691	-0.925537	0.102309	0.056644	-0.030761	0.739181	-0.216251	-0.637274	-0.027011	-71.719706	-72.516418	51.674797
18632		10.194129	2.704294	-3.946519	6.468934	3.541826	-1.303170	0.055323	0.335325	2.237962	-0.676025	0.676270	-0.923584	0.101564	0.028192	-0.039628	0.740532	-0.223235	-0.633579	-0.018855	-72.368364	-71.225035	52.384745
18633		8.936722	-0.306770	-3.817530	5.254948	0.728470	-1.665035	0.531171	0.363476	1.947581	-0.662354	0.676758	-0.930176	0.089321	-0.002096	-0.038344	0.742383	-0.227481	-0.630089	-0.010338	-72.485173	-70.091682	52.824227
18634		5.994343	6.493963	-2.444690	5.441274	6.643131	-6.597246	1.944025	0.802213	1.204707	-0.659912	0.672363	-0.943115	0.059453	0.065534	-0.024051	0.747096	-0.224118	-0.625794	-0.000583	-70.808436	-69.279554	52.218057
18635		2.744986	15.703623	-0.388726	5.265662	14.795662	-12.577812	1.509301	0.593720	0.679114	-0.664307	0.670166	-0.949707	0.026907	0.157152	-0.002782	0.750576	-0.220681	-0.622815	0.006037	-69.480452	-68.792482	51.714955
18636		-1.976615	17.728302	-3.461001	7.499212	14.323327	-18.106195	0.203253	-0.272101	0.135777	-0.668945	0.672119	-0.941162	-0.019840	0.177305	-0.034457	0.749913	-0.220446	-0.623680	0.007551	-69.838552	-68.761764	52.218020
18637		-2.474964	18.852927	-3.190439	7.501619	15.275941	-18.873881	-0.710655	-0.715713	-0.563232	-0.688965	0.665039	-0.932373	-0.024103	0.188483	-0.032661	0.746863	-0.221400	-0.627026	0.004023	-70.995261	-69.199658	53.013638
18638		-0.489922	13.729110	-2.513943	6.091076	11.403322	-15.095256	-1.415972	-0.892981	-1.109191	-0.704834	0.666992	-0.916992	-0.004023	0.137132	-0.026130	0.742447	-0.223296	-0.631585	-0.003499	-72.607048	-69.950905	53.861816
18639		0.133430	10.044954	-2.752668	5.580981	8.129834	-13.166646	-1.705947	-1.009486	-1.575411	-0.722412	0.657471	-0.890625	0.002266	0.100195	-0.028372	0.737222	-0.224721	-0.637039	-0.013611	-74.451697	-70.978377	54.774250
18640		0.993331	10.412791	-3.288223	6.538669	8.441741	-12.302550	-1.809743	-1.207404	-2.105762	-0.742188	0.645996	-0.875244	0.011229	0.103711	-0.033757	0.731084	-0.224858	-0.643657	-0.025710	-76.628074	-72.306652	55.968770
18641		2.663635	10.210838	-3.866628	7.467757	8.377975	-10.392381	-2.024889	-1.371419	-2.664819	-0.760010	0.638672	-0.842285	0.028259	0.101342	-0.039505	0.723886	-0.223888	-0.651328	-0.040437	-79.300271	-73.962478	57.540456
18642		4.968525	9.440466	-3.570966	7.392811	8.182221	-7.589661	-2.200006	-1.328256	-3.150123	-0.788574	0.618164	-0.826904	0.051400	0.093206	-0.036402	0.716283	-0.221933	-0.659079	-0.057440	-82.306532	-75.852527	59.342384
18643		7.078235	8.082546	-2.274349	6.010422	7.699168	-4.794460	-2.378908	-1.191117	-3.509962	-0.808105	0.597656	-0.804932	0.072320	0.079291	-0.023265	0.708489	-0.219236	-0.666423	-0.076541	-85.715190	-77.923383	61.433840
18644		8.927966	5.435378	-1.613345	4.491207	5.666375	-2.095186	-2.538407	-1.096491	-3.780263	-0.829590	0.570557	-0.780762	0.090372	0.052446	-0.016314	0.700389	-0.216112	-0.673292	-0.097102	-90.017917	-80.097684	64.328928
18645		11.265149	2.569230	-2.073051	3.676528	2.923466	0.944459	-2.580470	-1.016897	-3.971399	-0.855225	0.538818	-0.758789	0.113233	0.023182	-0.020466	0.691997	-0.212269	-0.679717	-0.118606	-96.092024	-82.340024	68.969143
18646		13.480862	0.190534	-3.550831	3.694546	-0.024108	3.629503	-2.530006	-0.887932	-4.097902	-0.863281	0.509766	-0.751953	0.134960	-0.001303	-0.034906	0.683638	-0.207682	-0.685428	-0.140343	-105.785242	-84.539581	77.259537
18647		15.178745	-2.062790	-4.891809	3.383282	-3.018824	5.613605	-2.385180	-0.699498	-4.157102	-0.888672	0.473633	-0.727783	0.151476	-0.024356	-0.048112	0.675600	-0.202078	-0.690279	-0.162001	-125.041411	-86.541125	95.190755
18648		16.265475	-3.849645	-5.493555	2.489271	-5.386275	6.749336	-2.161792	-0.508751	-4.118524	-0.898682	0.437988	-0.718750	0.161946	-0.042424	-0.054079	0.668126	-0.195649	-0.694211	-0.182757	-169.223071	-87.642144	138.176539
18649		16.624274	-5.140730	-6.021806	1.719681	-7.340172	6.985092	-2.011701	-0.412888	-3.924146	-0.913086	0.404297	-0.709717	0.165307	-0.055257	-0.059333	0.660929	-0.189140	-0.697436	-0.202440	143.902171	-86.851265	-176.063845
18650		16.850204	-6.689474	-6.512656	0.746658	-9.446879	6.957497	-2.047866	-0.437592	-3.597038	-0.916748	0.379883	-0.696533	0.167396	-0.070572	-0.064049	0.653674	-0.183893	-0.700052	-0.220954	124.721286	-85.188220	-158.021096
18651		16.645447	-9.160195	-7.411480	-0.417415	-12.446101	6.335983	-2.094965	-0.558593	-3.173859	-0.922607	0.357422	-0.696289	0.165169	-0.094996	-0.072669	0.646120	-0.180282	-0.702365	-0.238140	116.951569	-83.458116	-151.428757
18652		16.082527	-11.920791	-8.175358	-1.873799	-15.447782	5.200590	-1.984469	-0.665661	-2.717048	-0.932861	0.330566	-0.685303	0.159447	-0.122180	-0.080019	0.638660	-0.178045	-0.704489	-0.253198	113.416016	-81.897898	-149.016459
18653		15.358490	-13.770286	-8.180402	-3.411335	-17.108595	3.900306	-1.707260	-0.786862	-2.269975	-0.932129	0.312744	-0.669678	0.152321	-0.140125	-0.080014	0.631381	-0.176554	-0.706797	-0.265755	111.922813	-80.524313	-148.503398
18654		14.722379	-14.899297	-7.627505	-4.923492	-17.734484	2.762648	-1.333767	-0.962564	-1.841351	-0.936035	0.297119	-0.663086	0.146202	-0.150843	-0.074568	0.624306	-0.175651	-0.709623	-0.275361	111.871362	-79.351436	-149.232959
18655		14.450381	-15.626872	-7.681152	-5.684883	-18.358264	2.131106	-0.824142	-1.102729	-1.449967	-0.937988	0.288086	-0.654297	0.143783	-0.157625	-0.075370	0.617601	-0.174676	-0.713181	-0.281835	112.797122	-78.344931	-150.665093
18656		14.054805	-15.416146	-7.526992	-5.906573	-18.072071	1.604741	-0.165394	-1.112132	-1.104483	-0.944336	0.279053	-0.645508	0.140109	-0.154998	-0.074362	0.611916	-0.172939	-0.717311	-0.284807	114.291559	-77.521622	-152.295892
18657		13.368443	-13.986765	-6.944988	-5.540139	-16.534485	1.072823	0.482041	-1.087738	-0.794667	-0.939453	0.268066	-0.634277	0.133504	-0.140232	-0.069061	0.607246	-0.170259	-0.722008	-0.284550	116.229137	-76.847371	-154.006227
18658		12.275715	-12.566115	-6.016141	-5.250314	-14.744215	0.179145	1.036033	-1.049923	-0.530666	-0.941650	0.265869	-0.632080	0.122740	-0.125675	-0.060168	0.603566	-0.166816	-0.727086	-0.281472	118.513306	-76.311521	-155.749987
18659		10.611747	-11.142357	-4.826036	-4.962874	-12.741463	-1.264208	1.533593	-1.014596	-0.375445	-0.941650	0.263428	-0.623291	0.106154	-0.111251	-0.048575	0.600565	-0.162355	-0.732603	-0.276144	121.038731	-75.840346	-157.452361
18660		8.719103	-9.487297	-3.126136	-4.852774	-10.250173	-2.943347	1.982952	-0.975664	-0.338420	-0.938721	0.248047	-0.623291	0.087185	-0.094707	-0.031776	0.598096	-0.156629	-0.738488	-0.269043	123.649721	-75.387278	-158.980709
18661		6.601779	-7.947627	-1.102573	-5.015608	-7.687222	-4.943109	2.376902	-0.903168	-0.439418	-0.940674	0.241211	-0.618896	0.065895	-0.079485	-0.011673	0.595960	-0.149177	-0.744691	-0.260794	126.109323	-74.888563	-160.116580
18662		4.295924	-6.460223	1.370770	-5.561875	-4.961063	-7.259313	2.675741	-0.868794	-0.669107	-0.935547	0.225830	-0.623047	0.042685	-0.064923	0.013026	0.593785	-0.139961	-0.751181	-0.252107	128.278060	-74.291140	-160.781728
18663		2.196078	-5.490290	3.582507	-6.266128	-2.905348	-9.510094	2.829396	-0.889310	-0.998979	-0.939697	0.214600	-0.612061	0.021527	-0.055512	0.035139	0.591068	-0.129009	-0.758016	-0.243736	130.057885	-73.529618	-160.948306
18664		0.283398	-4.808692	5.258285	-6.747222	-1.453626	-11.604528	2.862609	-0.912437	-1.449322	-0.934570	0.197021	-0.609863	0.002244	-0.048851	0.051898	0.587606	-0.116284	-0.765024	-0.236506	131.259501	-72.567211	-160.495687
18665		-0.843056	-4.244490	6.555221	-7.192193	-0.397554	-12.944189	2.773063	-0.959679	-1.957384	-0.937744	0.165771	-0.605225	-0.009164	-0.043261	0.064913	0.583114	-0.101890	-0.772161	-0.231006	131.867122	-71.368075	-159.467874
18666		1.742635	-4.459758	7.681251	-8.960106	-0.548003	-10.968377	2.527443	-1.051600	-2.438789	-0.937012	0.145752	-0.593994	0.016471	-0.045769	0.076327	0.577424	-0.086438	-0.779257	-0.227746	131.964253	-69.933571	-158.041986
18667		7.784280	-5.021065	8.987660	-12.239471	-1.508421	-6.006745	2.147966	-1.060548	-2.828116	-0.930908	0.105957	-0.589355	0.076637	-0.052264	0.089731	0.570877	-0.070554	-0.785869	-0.227003	131.586625	-68.326285	-156.326730
18668		16.277018	-5.361517	10.252332	-16.464902	-2.940541	1.096752	1.659824	-0.984643	-2.978546	-0.929932	0.081543	-0.587158	0.161433	-0.056879	0.102857	0.564121	-0.055354	-0.791493	-0.228565	130.871004	-66.678812	-154.529012
18669		26.423923	-6.023754	9.384748	-19.836611	-6.207505	9.948074	1.121790	-0.828842	-2.909453	-0.924561	0.054932	-0.580322	0.262930	-0.064598	0.094585	0.557743	-0.041771	-0.795826	-0.232033	129.934618	-65.109894	-152.805932
18670		27.794733	-9.791421	1.822885	-15.397807	-13.486151	11.464461	-0.053770	-1.354524	-2.444148	-0.923584	0.032959	-0.573486	0.276591	-0.101295	0.020132	0.549450	-0.033898	-0.799978	-0.238725	129.309558	-63.544627	-152.152880
18671		33.886752	-17.932975	8.887763	-26.858419	-19.234322	11.577246	-0.466860	-0.865432	-1.290401	-0.918945	0.023926	-0.566895	0.337312	-0.181299	0.090761	0.544357	-0.031220	-0.801995	-0.243937	128.904896	-62.669663	-152.006140
18672		43.257040	6.772963	0.369145	-15.632381	-3.259966	30.957139	-0.713495	0.350254	-0.035957	-0.918945	0.024170	-0.573486	0.432588	0.067663	0.002692	0.545601	-0.032726	-0.800174	-0.246919	128.184738	-62.787191	-151.662158
18673		28.641410	43.642387	9.531062	-5.560402	35.730998	29.021675	-0.713920	1.332087	-1.467970	-0.918213	0.010742	-0.588867	0.290228	0.434635	0.091832	0.548997	-0.027336	-0.795849	-0.253927	125.637779	-62.588208	-149.263030
18674		4.686232	-1.722757	24.173408	-23.185321	7.953827	-12.720844	-0.697889	0.310901	-0.279239	-0.915771	0.006592	-0.590820	0.047215	-0.016450	0.241719	0.549782	-0.027881	-0.794145	-0.257480	124.796444	-62.569507	-148.771997
18675		13.464984	-3.303645	10.362117	-15.292988	-1.511663	-1.848229	0.332487	-0.304540	0.248312	-0.927246	0.010742	-0.588867	0.134533	-0.033042	0.103771	0.548979	-0.028508	-0.795351	-0.255394	125.432983	-62.601013	-149.282600
18676		5.260772	7.068526	7.304743	-6.089560	8.095091	-4.484963	0.704404	-0.770600	-0.109245	-0.927246	0.010742	-0.580078	0.052364	0.070398	0.073498	0.545869	-0.027260	-0.798374	-0.252749	126.468267	-62.300260	-150.001396
18677		10.442070	11.342455	0.753282	-1.229226	7.820286	3.438230	-0.499107	-1.129935	0.476448	-0.923096	0.019531	-0.562500	0.104106	0.113692	0.007838	0.541929	-0.032129	-0.800716	-0.253250	127.488061	-62.145206	-151.487303
18678		9.492037	9.942166	-10.011715	7.877748	2.099485	5.110882	-1.212514	-0.933562	0.945285	-0.935059	0.034912	-0.564941	0.094919	0.099263	-0.100276	0.539172	-0.040515	-0.801528	-0.255353	128.242077	-62.253210	-153.131406
18679		9.184162	-1.645093	-14.902313	8.112336	-10.164045	2.020011	-1.507055	-0.690305	0.856033	-0.935547	0.048096	-0.558350	0.092427	-0.017177	-0.148577	0.537213	-0.049062	-0.801226	-0.258907	128.563399	-62.407262	-154.479346
18680		7.914530	-5.326813	-14.376729	6.788700	-12.899563	-0.581232	-0.635419	0.231792	0.756652	-0.940430	0.054688	-0.558350	0.079181	-0.053425	-0.143689	0.538958	-0.053635	-0.799585	-0.259444	128.538407	-62.837663	-154.867507
18681		6.213496	-5.334574	-10.663144	4.415969	-10.810768	-3.149828	0.435577	0.435559	0.343996	-0.940430	0.056885	-0.560547	0.061994	-0.053006	-0.106882	0.541300	-0.053435	-0.798855	-0.256846	128.663308	-63.162314	-154.734891
18682		9.562571	-1.626209	-7.074380	1.496821	-6.530582	0.149411	1.401697	0.741650	0.012056	-0.949219	0.054443	-0.564941	0.095363	-0.015758	-0.071209	0.544636	-0.048871	-0.798620	-0.251375	128.834701	-63.442223	-154.034063
18683		11.176058	2.475224	-3.465204	-0.649071	-1.606021	2.021054	1.634381	0.965189	-0.129302	-0.947021	0.056885	-0.578125	0.111608	0.024965	-0.034987	0.548737	-0.042863	-0.798023	-0.245375	128.830299	-63.746389	-152.991095
18684		10.151526	7.281213	1.272324	-2.640740	4.885030	1.450138	1.181990	0.767315	-0.109859	-0.947021	0.056885	-0.584717	0.101604	0.072681	0.012763	0.551903	-0.038375	-0.797375	-0.241088	128.748071	-63.981285	-152.151387
18685		8.270602	9.088455	2.860014	-2.694048	7.531771	-0.055788	0.282509	0.353002	0.109942	-0.954102	0.061035	-0.580566	0.082707	0.090890	0.028583	0.553523	-0.037811	-0.796700	-0.239689	128.687767	-64.172534	-151.915423
18686		8.559969	7.035302	1.839978	-2.564232	5.241176	-0.215364	-0.348880	0.117197	0.333530	-0.951904	0.067871	-0.584961	0.085493	0.070528	0.018227	0.554321	-0.040100	-0.795896	-0.240146	128.646555	-64.372261	-152.097792
18687		8.959597	4.994443	0.739121	-2.389815	2.922200	-0.246372	-0.491707	0.008271	0.468363	-0.947754	0.074707	-0.587158	0.089479	0.050172	0.007264	0.554838	-0.043535	-0.795162	-0.240782	128.729462	-64.600382	-152.515428
18688		8.463279	4.812094	-1.564468	-0.234432	1.903544	-0.140447	-0.369773	-0.013905	0.567524	-0.952881	0.092285	-0.584961	0.084497	0.048332	-0.015728	0.555381	-0.046969	-0.794630	-0.240641	128.983154	-64.857125	-153.036457
18689		8.026038	4.141574	-3.707619	1.583964	0.502402	-0.192146	-0.321089	0.007975	0.617656	-0.950928	0.098877	-0.587158	0.080131	0.041604	-0.037146	0.556101	-0.050525	-0.794047	-0.240183	129.291954	-65.150077	-153.594288
18690		8.056143	3.213996	-5.622731	2.932318	-1.123440	0.035434	-0.250607	0.104808	0.660032	-0.958008	0.107666	-0.587402	0.080425	0.032335	-0.056310	0.557241	-0.053852	-0.793285	-0.239335	129.591438	-65.488680	-154.088075
18691		7.536812	3.170081	-6.600778	3.992789	-1.466138	-0.203783	-0.188922	0.214713	0.650474	-0.958496	0.118896	-0.593994	0.075194	0.031883	-0.066119	0.558837	-0.056921	-0.792256	-0.238308	129.823632	-65.869146	-154.475664
18692		8.185691	1.869050	-6.029438	2.848752	-2.440201	-0.180311	-0.048864	0.341647	0.619071	-0.960938	0.127686	-0.593994	0.081695	0.018929	-0.060439	0.560909	-0.059237	-0.791064	-0.236834	129.992375	-66.275113	-154.697037
18693		8.932116	1.154290	-4.554275	1.113823	-2.508525	-0.100700	0.159384	0.483052	0.581676	-0.956787	0.136719	-0.598389	0.089177	0.011839	-0.045749	0.563568	-0.060739	-0.789697	-0.234692	130.115236	-66.723060	-154.745258
18694		9.196785	1.971634	-3.506533	0.479603	-1.331650	0.125126	0.330327	0.547224	0.514055	-0.959717	0.149902	-0.605225	0.091820	0.020011	-0.035284	0.566425	-0.061330	-0.788382	-0.232070	130.211441	-67.158609	-154.650215
18695		9.362017	2.499037	-2.656450	-0.055028	-0.483418	0.222854	0.415540	0.562823	0.467816	-0.959961	0.156494	-0.609619	0.093486	0.025265	-0.026775	0.569320	-0.061576	-0.787098	-0.229259	130.303091	-67.586366	-154.506669
18696		9.362138	3.356593	-1.450014	-0.732924	0.830987	0.176849	0.351473	0.540939	0.440507	-0.953613	0.167969	-0.618408	0.093508	0.033798	-0.014694	0.572055	-0.061824	-0.785821	-0.226752	130.350685	-67.987564	-154.346614
18697		9.569083	3.125562	-0.844714	-1.353542	0.879917	0.159443	0.211492	0.487288	0.431391	-0.960449	0.172119	-0.627197	0.095602	0.031471	-0.008647	0.574527	-0.062610	-0.784508	-0.224825	130.371019	-68.371679	-154.255074
18698		9.524021	3.085840	-1.093055	-1.079771	0.771151	0.170462	0.114482	0.455654	0.400157	-0.963135	0.183350	-0.631836	0.095153	0.031055	-0.011130	0.576794	-0.063472	-0.783200	-0.223332	130.334146	-68.723646	-154.151009
18699		9.819998	2.229952	-1.579391	-1.000859	-0.221820	0.328729	0.044416	0.411289	0.386375	-0.954346	0.190186	-0.634033	0.098124	0.022493	-0.015991	0.578880	-0.064549	-0.781917	-0.222120	130.289837	-69.058746	-154.082066
18700		10.082700	1.313031	-1.676139	-1.273087	-1.101146	0.353961	0.019164	0.446769	0.382859	-0.954834	0.201172	-0.640625	0.100764	0.013325	-0.016985	0.581052	-0.065628	-0.780520	-0.221044	130.186374	-69.399781	-153.965668
18701		9.476738	1.870640	-2.395673	-0.191739	-0.792864	0.106054	0.015882	0.451751	0.362074	-0.957520	0.212402	-0.647217	0.094679	0.018880	-0.024169	0.583250	-0.066646	-0.779081	-0.220022	130.048697	-69.739219	-153.814822
18702		9.332492	2.174672	-2.837644	0.409381	-0.667833	0.150391	0.048723	0.509557	0.344354	-0.953125	0.214600	-0.653809	0.093215	0.021914	-0.028609	0.585623	-0.067418	-0.777532	-0.218959	129.839187	-70.086222	-153.567991
18703		8.904003	3.014530	-2.895567	0.956279	0.140873	-0.024004	0.066837	0.545657	0.348913	-0.946777	0.228271	-0.664795	0.088908	0.030310	-0.029188	0.588178	-0.068132	-0.775865	-0.217804	129.590029	-70.453852	-153.268322
18704		8.902203	3.426608	-3.186699	1.427104	0.406751	0.134344	0.074831	0.574307	0.397909	-0.949463	0.241455	-0.669434	0.088862	0.034455	-0.032109	0.590857	-0.068964	-0.774119	-0.216500	129.351725	-70.847414	-152.976257
18705		8.818654	3.956111	-3.234285	1.756717	0.897151	0.186745	0.062969	0.619686	0.468385	-0.947510	0.246094	-0.680420	0.087993	0.039778	-0.032603	0.593810	-0.070069	-0.772168	-0.215027	129.108941	-71.293830	-152.687142
18706		9.168009	4.023689	-3.035226	1.584039	1.017124	0.478604	0.053163	0.662781	0.558832	-0.938965	0.259521	-0.684814	0.091466	0.040501	-0.030645	0.596978	-0.071489	-0.770056	-0.213354	128.889990	-71.790139	-152.430120
18707		9.496808	3.887755	-2.665120	1.204340	1.035520	0.669835	0.058671	0.715263	0.645654	-0.937012	0.268311	-0.687012	0.094746	0.039192	-0.026979	0.600463	-0.073185	-0.767724	-0.211397	128.682369	-72.349000	-152.182265
18708		9.592612	3.975779	-2.511732	1.172787	1.205999	0.737331	0.074853	0.765843	0.736592	-0.933105	0.281982	-0.704590	0.095682	0.040120	-0.025469	0.604194	-0.075110	-0.765225	-0.209135	128.503471	-72.961158	-151.955792
18709		9.685113	4.186982	-2.492343	1.317157	1.440916	0.851815	0.114127	0.816994	0.814392	-0.920166	0.300049	-0.713623	0.096577	0.042278	-0.025294	0.608230	-0.077173	-0.762538	-0.206484	128.345276	-73.631249	-151.728067
18710		9.814569	3.633864	-2.382900	1.098763	1.026506	0.814939	0.144954	0.866895	0.927425	-0.927002	0.304199	-0.720215	0.097871	0.036810	-0.024227	0.612531	-0.079504	-0.759680	-0.203400	128.254229	-74.364745	-151.552787
18711		9.502295	3.944304	-2.437029	1.460001	1.392247	0.566068	0.183592	0.919573	1.035413	-0.912109	0.322510	-0.735596	0.094704	0.039956	-0.024770	0.617158	-0.082084	-0.756600	-0.199835	128.223677	-75.170209	-151.417811
18712		9.416047	4.196603	-2.023166	1.329919	1.873534	0.438446	0.199216	0.989242	1.159617	-0.916992	0.335693	-0.744385	0.093813	0.042531	-0.020654	0.622116	-0.084997	-0.753251	-0.195860	128.246961	-76.051530	-151.329802
18713		10.482497	5.087787	-1.242396	0.880117	2.959550	1.491086	0.228597	1.126835	1.282112	-0.897461	0.351563	-0.750977	0.104424	0.051563	-0.012954	0.627710	-0.088152	-0.749377	-0.191426	128.198380	-77.041203	-151.150896
18714		10.728293	4.544067	-2.481817	1.928687	2.047512	1.762633	0.118656	1.149152	1.464697	-0.891357	0.367432	-0.762207	0.106801	0.046239	-0.025405	0.633434	-0.092295	-0.745208	-0.186837	128.328269	-78.116521	-151.220023
18715		10.955111	6.524173	-5.533872	5.604731	2.750348	2.605811	-0.019801	1.124667	1.671443	-0.885254	0.385254	-0.773193	0.108687	0.066147	-0.055958	0.639162	-0.097671	-0.740798	-0.182070	128.834041	-79.279700	-151.753079
18716		11.927417	6.973452	-4.798097	5.174764	3.508803	3.409101	-0.198151	1.161561	1.848041	-0.868164	0.407959	-0.784180	0.118342	0.070783	-0.048740	0.645002	-0.104216	-0.735960	-0.177407	129.651121	-80.529252	-152.703973
18717		13.332468	4.722329	-2.737652	2.491721	2.322923	4.185018	-0.185206	1.227034	1.985429	-0.868652	0.421143	-0.797607	0.132676	0.048517	-0.028236	0.651149	-0.111161	-0.730736	-0.172257	130.897450	-81.863254	-154.078180
18718		13.704513	2.727420	-2.519709	1.757319	0.753916	4.256218	0.113779	1.341071	2.143254	-0.849121	0.441650	-0.806396	0.136569	0.028754	-0.026098	0.657895	-0.117586	-0.725219	-0.165546	132.966523	-83.298353	-156.104471
18719		13.560595	3.983386	-2.136578	2.209823	2.285380	4.122984	0.465923	1.494869	2.312964	-0.833984	0.459717	-0.823975	0.134969	0.041448	-0.022281	0.665446	-0.123326	-0.719240	-0.157054	136.465750	-84.853557	-159.359439
18720		13.875925	5.532431	-1.601873	2.599491	4.162282	4.386524	0.542526	1.460808	2.535617	-0.830078	0.475342	-0.837158	0.137921	0.057121	-0.016875	0.672938	-0.129606	-0.713163	-0.147498	144.716004	-86.432218	-167.326637
18721		15.685472	8.306579	-2.053108	4.299984	6.832049	6.126486	0.610047	1.479701	2.736394	-0.806152	0.498047	-0.845947	0.155542	0.085264	-0.021427	0.680546	-0.136333	-0.706755	-0.137000	167.397737	-87.875505	170.310369
18722		16.639404	10.051664	-1.853957	5.108304	8.890204	6.805979	0.542522	1.534759	2.909690	-0.793457	0.516113	-0.859375	0.164760	0.102974	-0.019531	0.688221	-0.143825	-0.699823	-0.126154	-134.292923	-88.287023	112.279347
18723		17.103891	10.292261	-3.335267	6.967449	8.963494	6.940451	0.454551	1.637240	3.079250	-0.778564	0.536621	-0.870361	0.169147	0.105614	-0.034505	0.696109	-0.152102	-0.692138	-0.115074	-94.773993	-86.982122	72.986521
18724		17.136290	10.109868	-4.209656	8.134663	8.884417	6.571208	0.445322	1.674149	3.235501	-0.761475	0.561279	-0.879150	0.169338	0.103945	-0.043290	0.703965	-0.160885	-0.683991	-0.103468	-81.601162	-85.072572	60.034180
18725		17.037377	9.625121	-5.825967	9.867140	8.263383	6.035511	0.417600	1.507238	3.363164	-0.750732	0.572754	-0.892334	0.168277	0.099216	-0.059328	0.711063	-0.170222	-0.676068	-0.091352	-76.751769	-83.004124	55.393850
18726		16.404060	10.129244	-5.911687	10.464715	9.066685	4.846093	0.328017	1.442112	3.458198	-0.731445	0.601807	-0.892578	0.161824	0.104201	-0.060120	0.717648	-0.180178	-0.668028	-0.079098	-74.451658	-80.866306	53.255315
18727		14.332468	10.165460	-6.313254	10.986121	9.068550	2.255472	-0.073075	1.213338	3.529452	-0.725586	0.624268	-0.896973	0.141115	0.104135	-0.064031	0.722885	-0.191821	-0.660345	-0.067719	-73.881824	-78.721327	52.627737
18728		12.424942	9.757156	-6.054963	10.645431	8.781348	-0.026050	-0.413102	0.963744	3.422011	-0.703857	0.640137	-0.901367	0.122263	0.099549	-0.061346	0.726687	-0.204375	-0.653332	-0.057564	-74.198256	-76.671794	52.703574
18729		11.478907	8.321201	-3.889092	8.226293	8.322218	-0.914154	-0.880208	0.609467	3.166177	-0.697998	0.662354	-0.888428	0.113335	0.084841	-0.039609	0.728559	-0.217806	-0.647541	-0.049519	-75.285984	-74.821657	53.298922
18730		10.564838	2.549401	-4.929354	7.158909	2.725366	-0.662254	-1.228871	0.124262	2.905427	-0.687500	0.680176	-0.879639	0.105235	0.026721	-0.049521	0.728222	-0.231749	-0.643535	-0.042976	-77.162947	-73.174916	54.513053
18731		9.910711	-1.163722	-4.495318	5.423653	-0.365074	-0.313718	-0.323773	0.290681	2.502507	-0.678955	0.691650	-0.884033	0.099178	-0.010469	-0.045080	0.729227	-0.240988	-0.639462	-0.035214	-77.840724	-71.731748	55.022497
18732		6.443390	4.690522	-3.138102	5.731295	4.598166	-5.411288	1.284246	0.824203	1.687151	-0.678955	0.691650	-0.895020	0.063905	0.047647	-0.031341	0.733629	-0.241656	-0.634603	-0.025879	-76.412074	-70.671132	54.284756
18733		0.271150	17.258893	0.847502	5.110374	15.638734	-15.101325	1.236892	0.841679	0.896133	-0.683594	0.696045	-0.901855	0.001977	0.172542	0.009533	0.737843	-0.239931	-0.630582	-0.019660	-74.777563	-70.047419	53.294769
18734		-4.532792	19.119383	-3.462573	8.612403	14.337785	-20.691140	-0.074998	-0.261203	0.189225	-0.689941	0.687012	-0.888428	-0.045463	0.191138	-0.034757	0.736915	-0.240945	-0.631306	-0.018815	-75.321686	-69.968532	53.822086
18735		-5.473381	20.929824	-4.460523	10.072820	15.257731	-22.208052	-0.906281	-0.743295	-0.603500	-0.710449	0.690918	-0.875488	-0.053934	0.209256	-0.045755	0.733364	-0.242521	-0.634690	-0.022994	-76.780298	-70.402398	54.813227
18736		-3.058598	14.325751	-3.880645	8.003606	10.265540	-17.571117	-1.555569	-0.892407	-1.297451	-0.723389	0.677246	-0.857910	-0.029480	0.143143	-0.040053	0.728420	-0.244311	-0.639313	-0.031535	-78.679491	-71.224396	55.874435
18737		-2.322066	9.316146	-4.247745	6.907807	5.863106	-15.116017	-1.720023	-0.986631	-1.878798	-0.739014	0.672363	-0.835938	-0.022134	0.093002	-0.043389	0.722759	-0.244772	-0.644891	-0.042675	-80.797849	-72.381571	57.059055
18738		-1.185449	9.036958	-4.756194	7.635306	5.656899	-13.735186	-1.615405	-1.109000	-2.525231	-0.765137	0.651855	-0.816162	-0.010449	0.090119	-0.048351	0.716546	-0.242790	-0.651557	-0.055578	-83.158915	-73.889456	58.553013
18739		0.505959	9.709601	-4.815417	8.359352	6.568849	-11.975720	-1.607177	-1.117406	-3.141294	-0.782471	0.633545	-0.798584	0.006851	0.096607	-0.048897	0.709915	-0.238651	-0.658837	-0.070718	-85.818586	-75.740400	60.346287
18740		3.225526	9.717132	-3.050335	7.224330	7.818748	-8.923243	-1.817206	-1.069621	-3.603115	-0.812988	0.608398	-0.776611	0.034161	0.096286	-0.031202	0.702769	-0.233678	-0.666140	-0.088136	-89.102906	-77.816229	62.644223
18741		6.596631	6.452069	-2.631991	5.774598	5.582449	-4.564138	-2.102697	-1.089140	-3.914813	-0.832275	0.579102	-0.758789	0.067353	0.062932	-0.026623	0.694729	-0.228511	-0.673461	-0.107626	-93.824811	-80.041918	66.218696
18742		9.547449	1.964870	-3.556077	4.586270	1.395320	-0.611642	-2.235268	-1.031261	-4.135646	-0.853271	0.545410	-0.736816	0.096030	0.017271	-0.035268	0.686256	-0.222961	-0.680363	-0.128246	-100.852341	-82.304698	72.027267
18743		11.890333	-1.114166	-4.691773	3.863682	-1.945760	2.265689	-2.220262	-0.847032	-4.302124	-0.870361	0.516113	-0.718994	0.118816	-0.014214	-0.046268	0.677887	-0.216484	-0.686455	-0.149610	-112.321785	-84.534961	82.281016
18744		14.163219	-2.704965	-4.735156	2.678217	-3.630816	4.676392	-2.170904	-0.687502	-4.379324	-0.888916	0.475830	-0.703613	0.141148	-0.030652	-0.046546	0.669680	-0.209385	-0.691684	-0.171055	-135.471325	-86.418184	104.244779
18745		15.836492	-4.556520	-5.100959	1.461744	-5.856580	6.345386	-2.164671	-0.643679	-4.246461	-0.903564	0.446533	-0.692383	0.157504	-0.049460	-0.049980	0.661315	-0.202503	-0.696250	-0.192070	-179.577959	-87.045447	147.165188
18746		16.696743	-6.437479	-6.414066	0.916334	-8.671130	7.077308	-2.204624	-0.667300	-3.948565	-0.911377	0.417480	-0.687988	0.165855	-0.068354	-0.062847	0.652786	-0.196762	-0.700145	-0.212018	145.332917	-85.967517	-178.956673
18747		16.882177	-8.865876	-7.990239	0.207305	-12.064707	6.973903	-2.318325	-0.705972	-3.557095	-0.926025	0.385986	-0.670166	0.167477	-0.092559	-0.078252	0.644066	-0.192650	-0.703343	-0.231029	129.623296	-84.275620	-164.533770
18748		16.125757	-11.979094	-9.039130	-1.325418	-15.587142	5.694301	-2.298161	-0.768460	-3.083793	-0.929199	0.354980	-0.663330	0.159717	-0.123285	-0.088372	0.635458	-0.190185	-0.705987	-0.248204	122.460453	-82.594832	-158.655547
18749		15.258189	-14.476672	-9.404522	-3.064244	-18.031341	4.196634	-2.049815	-0.876610	-2.592088	-0.930664	0.332764	-0.652344	0.151086	-0.147680	-0.091877	0.627060	-0.188686	-0.708602	-0.262824	119.045465	-81.061109	-156.400263
18750		14.622258	-16.305470	-9.341966	-4.718121	-19.537475	2.952173	-1.556385	-1.037218	-2.103096	-0.936768	0.316895	-0.650146	0.144970	-0.165300	-0.091385	0.619090	-0.187588	-0.711709	-0.273876	117.902222	-79.729156	-156.150935
18751		14.747982	-17.307243	-9.023250	-6.081015	-20.188518	2.592455	-0.851533	-1.188833	-1.669082	-0.940918	0.307861	-0.632324	0.146556	-0.174678	-0.088618	0.611695	-0.185991	-0.715757	-0.280943	118.241638	-78.566426	-157.000469
18752		14.891697	-17.352259	-8.479560	-6.878482	-19.917671	2.464627	0.026069	-1.240114	-1.290662	-0.938232	0.294678	-0.627930	0.148315	-0.174470	-0.083897	0.605444	-0.183156	-0.720744	-0.283584	119.554556	-77.586090	-158.332757
18753		14.662184	-15.772725	-7.553088	-6.729232	-18.119389	2.320412	0.926556	-1.188248	-0.935135	-0.935791	0.285645	-0.616943	0.146332	-0.158062	-0.075393	0.600621	-0.178763	-0.726496	-0.281959	121.509265	-76.781727	-159.799206
18754		13.955407	-13.605733	-6.019879	-6.454225	-15.450055	1.838345	1.695203	-1.109171	-0.611838	-0.939697	0.274658	-0.614746	0.139473	-0.135972	-0.060578	0.597211	-0.173134	-0.732710	-0.276586	123.955317	-76.152941	-161.321820
18755		12.656846	-11.300634	-4.070890	-6.233240	-12.377992	0.789326	2.285449	-1.028543	-0.371691	-0.944092	0.270020	-0.610352	0.126570	-0.112772	-0.041348	0.594842	-0.166412	-0.739228	-0.268351	126.726846	-75.641133	-162.827571
18756		10.830166	-8.904490	-1.391885	-6.438423	-8.787010	-0.876626	2.748289	-0.930144	-0.248355	-0.943848	0.261230	-0.612305	0.108258	-0.088981	-0.014638	0.593294	-0.158682	-0.745798	-0.258085	129.615638	-75.208557	-164.191177
18757		9.004887	-6.527651	1.826677	-7.188493	-4.976808	-2.700026	3.081105	-0.807442	-0.251252	-0.938965	0.254639	-0.614502	0.089895	-0.065664	0.017620	0.592304	-0.149713	-0.752295	-0.246606	132.377508	-74.799588	-165.223180
18758		7.182487	-4.296645	4.855820	-8.016923	-1.497999	-4.606006	3.220014	-0.703559	-0.381963	-0.943115	0.243408	-0.610107	0.071572	-0.043880	0.048109	0.591512	-0.139720	-0.758522	-0.235023	134.775573	-74.370672	-165.802758
18759		5.020466	-2.481639	7.403230	-8.720778	1.297745	-6.909420	3.147228	-0.647419	-0.633692	-0.949463	0.234375	-0.605713	0.049884	-0.026137	0.073790	0.590404	-0.128866	-0.764495	-0.224422	136.623972	-73.855104	-165.852723
18760		3.388022	-1.161030	9.069892	-9.165401	3.126858	-8.672469	2.897052	-0.612715	-0.986355	-0.944336	0.216797	-0.614258	0.033540	-0.013089	0.090620	0.588744	-0.117349	-0.770092	-0.215797	137.728234	-73.220149	-165.279186
18761		2.746605	0.011464	10.107945	-9.476301	4.442631	-9.400538	2.502600	-0.609167	-1.396887	-0.941406	0.201416	-0.609863	0.027152	-0.001341	0.101152	0.586270	-0.105388	-0.775335	-0.209848	138.043626	-72.428807	-164.114365
18762		4.387383	0.667913	10.767222	-10.380842	4.947194	-7.973063	1.977674	-0.618023	-1.792715	-0.942871	0.179199	-0.605225	0.043592	0.005222	0.107864	0.582974	-0.093414	-0.780093	-0.207053	137.605382	-71.483189	-162.467650
18763		9.102869	-3.260966	7.093253	-10.245019	-0.831010	-3.635927	1.123773	-0.870825	-1.955032	-0.939697	0.159180	-0.598633	0.090392	-0.033895	0.071139	0.578015	-0.083562	-0.784658	-0.207913	136.888238	-70.362100	-161.035424
18764		15.627346	-8.543809	3.272812	-11.108382	-8.092161	1.978300	0.104650	-1.377784	-1.960052	-0.943359	0.136719	-0.591797	0.155196	-0.086980	0.033754	0.570568	-0.077130	-0.789512	-0.212540	136.241350	-69.023528	-160.287761
18765		32.694860	-21.313308	7.166804	-25.103080	-20.199605	13.346654	0.260478	-0.663495	-1.380381	-0.938477	0.128174	-0.591797	0.325227	-0.215476	0.072469	0.566554	-0.071802	-0.792194	-0.215152	135.647026	-68.207998	-159.497187
18766		50.881524	-43.103816	14.541458	-45.557508	-39.262298	22.456401	0.598286	0.274767	0.038371	-0.941162	0.134766	-0.602783	0.509096	-0.431372	0.143425	0.567890	-0.070098	-0.792042	-0.212736	135.780841	-68.343051	-159.278270
18767		37.158061	11.028633	3.445541	-11.691361	6.448318	26.737722	1.273599	1.760287	0.384251	-0.940918	0.130371	-0.615967	0.371656	0.110792	0.031889	0.575694	-0.066342	-0.788203	-0.207151	135.132710	-69.230245	-157.810254
18768		8.632230	42.402494	2.457946	9.542304	38.132266	8.446208	-0.294418	0.391980	-0.920957	-0.949463	0.121338	-0.622559	0.088321	0.423657	0.023784	0.576174	-0.063288	-0.787067	-0.211054	133.603985	-69.017378	-156.360679
18769		7.961674	11.179914	14.181821	-11.172546	14.737659	-2.922542	-0.865851	0.698825	0.500462	-0.945801	0.141357	-0.624756	0.079829	0.112610	0.141053	0.579183	-0.067208	-0.783949	-0.213200	132.888123	-69.513886	-156.136305
18770		15.014791	-3.308378	9.725086	-14.483934	-1.003173	1.149577	-0.725314	0.312842	1.037086	-0.948242	0.145752	-0.624756	0.150468	-0.031952	0.097133	0.581253	-0.073172	-0.781906	-0.213104	133.248553	-70.077995	-156.969160
18771		9.498356	0.913434	6.549188	-8.380330	2.343404	-2.182309	-0.873649	-0.221385	0.424063	-0.955322	0.154541	-0.622803	0.094891	0.009622	0.065556	0.580534	-0.077819	-0.781423	-0.215181	133.495961	-70.182169	-157.778149
18772		7.526204	4.382556	-1.849212	0.884517	2.187445	-1.227658	-0.617129	-0.526049	0.571419	-0.953369	0.163330	-0.620605	0.075185	0.043984	-0.018430	0.578840	-0.082542	-0.782055	-0.215689	134.406523	-70.216093	-159.127695
18773		7.188560	-2.455775	-11.267249	6.610056	-7.923573	-0.970678	0.029493	0.163451	0.504767	-0.951416	0.170166	-0.627197	0.071855	-0.024360	-0.112735	0.580059	-0.084463	-0.781367	-0.214155	134.836889	-70.502337	-159.579825
18774		8.425559	-4.763567	-7.676084	2.266749	-8.544029	-1.183388	0.470764	0.306773	0.279953	-0.949463	0.176758	-0.620605	0.084204	-0.047337	-0.077002	0.581748	-0.083996	-0.780859	-0.211595	135.106925	-70.747212	-159.586098
18775		9.025339	-1.215273	-8.190154	3.932915	-5.611963	0.338659	0.559858	0.306322	0.185791	-0.956055	0.174561	-0.629395	0.090139	-0.011839	-0.082073	0.583393	-0.082980	-0.780449	-0.208965	135.325230	-70.961026	-159.490074
18776		9.302220	-0.296722	-8.714413	4.718117	-5.001879	0.924180	0.600344	0.515318	-0.035678	-0.956543	0.187988	-0.636230	0.092797	-0.002722	-0.087392	0.585605	-0.080684	-0.779582	-0.206901	135.053011	-71.163211	-158.844553
18777		9.167996	-0.508826	-3.755672	0.394083	-3.100370	-0.397380	0.755947	0.734201	-0.180058	-0.956055	0.178955	-0.642578	0.091537	-0.005028	-0.037912	0.588591	-0.077234	-0.778251	-0.204744	134.430194	-71.400281	-157.743280
18778		9.410776	2.234148	-0.848731	-1.203227	0.519962	-0.192076	0.619900	0.616852	-0.213645	-0.963135	0.183350	-0.651367	0.094105	0.022268	-0.008708	0.591000	-0.074080	-0.777147	-0.203159	133.806431	-71.565814	-156.716811
18779		10.583732	5.832659	1.628220	-2.435204	4.601552	1.213720	0.006861	0.409910	-0.209502	-0.954102	0.185791	-0.653564	0.105931	0.058215	0.016067	0.592411	-0.072982	-0.775998	-0.203839	133.083260	-71.653926	-155.955743
18780		11.031222	4.455760	1.267142	-2.700127	3.118636	1.418098	-0.482108	0.226818	-0.157292	-0.965332	0.183350	-0.657959	0.110361	0.044501	0.012439	0.592947	-0.073702	-0.774891	-0.206218	132.367277	-71.683576	-155.498389
18781		10.237485	2.179801	1.236457	-3.232189	1.130037	0.155379	-0.658453	0.149000	-0.157767	-0.961182	0.196777	-0.658203	0.102401	0.021758	0.012217	0.593148	-0.075041	-0.773800	-0.209230	131.646992	-71.687669	-155.142587
18782		9.708440	1.654767	-0.120553	-2.055124	0.148292	-0.181434	-0.570962	0.051686	-0.170337	-0.961182	0.192383	-0.656006	0.097098	0.016461	-0.001278	0.592947	-0.076154	-0.773112	-0.211924	131.090531	-71.641979	-154.906909
18783		9.380278	1.511775	-1.776136	-0.545101	-0.649523	-0.184049	-0.295372	0.071155	-0.194721	-0.966064	0.201172	-0.653809	0.093811	0.015000	-0.017817	0.592938	-0.076354	-0.772635	-0.213610	130.638688	-71.598888	-154.614750
18784		9.111054	2.682133	-2.714132	0.797017	0.021244	0.032917	-0.028247	0.109330	-0.183419	-0.963867	0.203369	-0.664795	0.091120	0.026734	-0.027195	0.593149	-0.075745	-0.772352	-0.214265	130.306348	-71.567779	-154.287441
18785		8.506702	3.313003	-3.154591	1.598451	0.471952	-0.298823	0.081428	0.141045	-0.104632	-0.959473	0.205811	-0.664795	0.085062	0.033098	-0.031592	0.593648	-0.075101	-0.772035	-0.214254	130.080951	-71.588845	-154.006340
18786		7.776703	4.293786	-3.335874	2.338184	1.373136	-0.719330	0.086018	0.166293	-0.006388	-0.966309	0.207764	-0.669189	0.077741	0.042950	-0.033405	0.594310	-0.074777	-0.771637	-0.213964	129.935180	-71.655574	-153.806713
18787		8.677826	3.367691	-3.563300	1.961149	0.327286	-0.045915	0.093649	0.221389	0.131427	-0.966553	0.216797	-0.669189	0.086717	0.033751	-0.035713	0.595373	-0.074920	-0.771005	-0.213236	129.869904	-71.809148	-153.687149
18788		9.542104	2.861129	-3.431186	1.447675	-0.175173	0.622073	0.227023	0.343117	0.266288	-0.955811	0.228027	-0.677979	0.095324	0.028777	-0.034443	0.597057	-0.075038	-0.770126	-0.211656	129.869573	-72.060579	-153.555883
18789		9.499205	3.698928	-3.338377	1.733651	0.652135	0.752850	0.269448	0.427013	0.389429	-0.958252	0.236816	-0.680420	0.094848	0.037219	-0.033536	0.599243	-0.075431	-0.768963	-0.209556	129.915545	-72.402876	-153.447684
18790		9.253588	3.698382	-3.296656	1.820605	0.738463	0.498204	0.263528	0.518633	0.471366	-0.953857	0.241455	-0.687012	0.092362	0.037245	-0.033157	0.601821	-0.076043	-0.767504	-0.207285	129.926207	-72.808993	-153.306510
18791		9.201256	3.164536	-3.075843	1.510044	0.392895	0.272106	0.250789	0.584758	0.529705	-0.945557	0.254883	-0.695801	0.091838	0.031928	-0.030987	0.604733	-0.076864	-0.765774	-0.204890	129.898430	-73.270647	-153.132877
18792		9.555640	2.685298	-2.677334	0.962242	0.114721	0.422033	0.210133	0.616908	0.576414	-0.952637	0.263672	-0.700195	0.095395	0.027156	-0.027039	0.607754	-0.077936	-0.763897	-0.202537	129.853913	-73.759022	-152.966744
18793		9.674277	2.515263	-2.156634	0.484037	0.195365	0.399861	0.145425	0.622888	0.599230	-0.937012	0.270752	-0.706787	0.096599	0.025458	-0.021849	0.610818	-0.079299	-0.761890	-0.200342	129.783013	-74.264980	-152.811914
18794		10.175013	2.264034	-1.818700	0.049380	0.079030	0.768195	0.050638	0.601483	0.596354	-0.937744	0.288574	-0.719971	0.101627	0.022948	-0.018487	0.613715	-0.080946	-0.759863	-0.198522	129.682771	-74.756372	-152.683610
18795		10.507836	1.504789	-1.459774	-0.545354	-0.471460	0.877944	-0.003902	0.614255	0.564913	-0.940186	0.295166	-0.726807	0.104990	0.015344	-0.014921	0.616628	-0.082641	-0.757717	-0.196990	129.475604	-75.243766	-152.477023
18796		10.350428	1.375180	-1.631487	-0.318820	-0.608962	0.732981	0.001355	0.628215	0.529745	-0.924805	0.304443	-0.733398	0.103415	0.014026	-0.016640	0.619518	-0.084157	-0.755559	-0.195567	129.186029	-75.715094	-152.182889
18797		10.001216	1.950781	-2.167826	0.538090	-0.232882	0.588512	0.006667	0.645717	0.495924	-0.918457	0.315674	-0.742188	0.099893	0.019756	-0.022000	0.622465	-0.085525	-0.753329	-0.194213	128.795671	-76.182581	-151.782084
18798		9.690896	1.994578	-2.442364	0.950974	-0.242799	0.330932	0.036767	0.682389	0.508894	-0.916504	0.322510	-0.755371	0.096774	0.020197	-0.024750	0.625532	-0.086796	-0.751018	-0.192737	128.348615	-76.662906	-151.306279
18799		9.565229	2.652504	-2.588626	1.440973	0.340194	0.338051	0.052097	0.722558	0.579552	-0.903564	0.338135	-0.759766	0.095481	0.026809	-0.026224	0.628844	-0.088259	-0.748528	-0.190977	127.902227	-77.193641	-150.822867
18800		9.900357	2.973327	-2.684227	1.677856	0.593649	0.717945	0.073624	0.772254	0.673267	-0.901611	0.342773	-0.766357	0.098798	0.030076	-0.027213	0.632393	-0.089940	-0.745865	-0.188878	127.478145	-77.778197	-150.351007
18801		10.271289	3.767857	-2.522998	1.869594	1.389934	1.170616	0.165136	0.871716	0.786657	-0.886475	0.360840	-0.777344	0.102452	0.038103	-0.025646	0.636471	-0.091673	-0.742878	-0.186099	127.027870	-78.453150	-149.799663
18802		10.239806	4.246336	-2.851888	2.476699	1.762019	1.222603	0.257367	0.951152	0.936469	-0.884521	0.367676	-0.788330	0.102061	0.042979	-0.028950	0.640970	-0.093576	-0.739646	-0.182548	126.650192	-79.218274	-149.270122
18803		9.981298	5.029124	-3.343015	3.392489	2.390631	1.089955	0.325921	1.016302	1.086726	-0.874023	0.385742	-0.797363	0.099366	0.050887	-0.033853	0.645873	-0.095764	-0.736137	-0.178267	126.356807	-80.078775	-148.787559
18804		9.632315	6.547313	-3.344199	4.145291	3.908411	0.881721	0.378921	1.074675	1.199289	-0.863037	0.394775	-0.810547	0.095747	0.066112	-0.033833	0.651047	-0.098123	-0.732408	-0.173460	126.095177	-81.006059	-148.307925
18805		10.507575	4.089788	-2.226096	2.245418	2.105935	1.260280	0.353211	1.168719	1.393940	-0.856689	0.408203	-0.819336	0.104655	0.041668	-0.022800	0.656695	-0.101201	-0.728177	-0.168133	125.876878	-82.058809	-147.888181
18806		11.978318	5.404003	-2.578338	3.074823	3.208274	2.819699	0.243785	1.259600	1.680184	-0.837158	0.426514	-0.832520	0.119158	0.055075	-0.026468	0.662769	-0.105582	-0.723358	-0.162306	125.948136	-83.270945	-147.824850
18807		14.220384	7.657106	-3.660121	4.938343	4.924077	5.207321	0.016299	1.320341	1.956808	-0.831055	0.439941	-0.845703	0.141200	0.077959	-0.037529	0.669104	-0.111663	-0.717895	-0.156388	126.552128	-84.634918	-148.428359
18808		14.442390	6.665111	-3.802646	4.993047	4.156353	5.195498	-0.103123	1.358649	2.212423	-0.815918	0.460205	-0.854736	0.143412	0.068221	-0.039038	0.675584	-0.119006	-0.711976	-0.150049	128.561132	-86.123374	-150.508647
18809		13.063400	4.831373	-3.607731	4.521008	2.811668	3.553360	0.021983	1.390506	2.501770	-0.796387	0.476318	-0.867920	0.129761	0.049945	-0.036976	0.682358	-0.126914	-0.705719	-0.142273	135.700758	-87.734424	-157.650816
18810		14.125694	5.863807	-2.772520	4.412178	4.339385	4.445236	0.314427	1.527967	2.793692	-0.785889	0.498779	-0.881104	0.140202	0.060646	-0.028705	0.689833	-0.134722	-0.698868	-0.132529	-177.249326	-89.246687	155.462953
18811		17.098991	7.924776	-2.781534	5.524586	6.624469	7.171864	0.584013	1.595946	3.031828	-0.768555	0.516846	-0.887695	0.169534	0.081909	-0.028935	0.697705	-0.142350	-0.691590	-0.121028	-84.731488	-88.202587	63.262333
18812		20.446220	8.992419	-3.174370	6.789359	8.028366	10.146847	0.746142	1.790080	3.179428	-0.742432	0.537354	-0.900879	0.202704	0.093278	-0.033219	0.706211	-0.149758	-0.683415	-0.108552	-71.578322	-86.183562	50.517907
18813		20.207717	11.379005	-4.551435	9.427440	10.258705	9.275669	0.674868	1.866081	3.312043	-0.731934	0.553223	-0.916260	0.199720	0.117268	-0.046993	0.714748	-0.157770	-0.674576	-0.095875	-67.361480	-84.018287	46.668701
18814		18.237793	11.157895	-6.092195	11.111206	9.860740	6.724420	0.550197	1.712973	3.441874	-0.716797	0.573486	-0.927490	0.179891	0.114859	-0.062157	0.722453	-0.166684	-0.665876	-0.082991	-66.136503	-81.807390	45.746517
18815		17.030582	9.588523	-7.189264	11.869432	8.369820	5.109617	0.479215	1.472422	3.527159	-0.697510	0.593994	-0.936279	0.168043	0.099036	-0.072901	0.729064	-0.176162	-0.657692	-0.069821	-66.190529	-79.608280	46.073512
