// General information: 
//  MT Manager version: 2019.2.0 
//  XDA version: 2019.2.0 build 3853 rev 94535 built on 2019-09-09
// Device information: 
//  DeviceId: 00B40AC7
//  ProductCode: MTW2-3A7G6
//  Firmware Version: 4.3.5
//  Hardware Version: 1.1.0
// Device settings: 
//  Filter Profile: human(46.1)
//  Option Flags: Orientation Smoother Disabled, AHS Disabled, ICC Disabled
// Coordinate system: ENU
PacketCounter	SampleTimeFine	Acc_X	Acc_Y	Acc_Z	FreeAcc_E	FreeAcc_N	FreeAcc_U	Gyr_X	Gyr_Y	Gyr_Z	Mag_X	Mag_Y	Mag_Z	VelInc_X	VelInc_Y	VelInc_Z	Quat_q0	Quat_q1	Quat_q2	Quat_q3	Roll	Pitch	Yaw
41201		8.568524	2.778925	-0.786300	-1.956772	-0.563216	-1.002800	-0.382252	-0.180605	0.011714	-0.863281	-0.418945	0.133301	0.085691	0.027779	-0.007839	0.260694	0.668507	-0.154354	0.679200	67.140943	-81.331771	78.624960
41202		9.404139	2.863261	0.311281	-1.067661	-1.127901	-0.100792	-0.547415	-0.237551	0.083053	-0.858643	-0.427734	0.128906	0.094026	0.028680	0.003146	0.262041	0.668558	-0.156778	0.678075	67.557371	-81.427896	77.890001
41203		10.612833	2.218705	1.126415	0.004345	-0.902911	1.050479	-0.740390	-0.224440	0.110814	-0.860840	-0.429932	0.122314	0.106103	0.022288	0.011301	0.263951	0.668282	-0.159925	0.676871	67.789693	-81.534562	77.229651
41204		13.206852	-4.487703	4.354300	6.575796	3.016700	2.882917	-0.946703	-0.113302	-0.000008	-0.858398	-0.434326	0.124756	0.132044	-0.044670	0.043830	0.267005	0.667433	-0.163255	0.675714	67.674268	-81.558930	76.801419
41205		13.014034	-2.211496	3.766784	4.788980	1.439457	2.971596	-0.308167	-0.208369	0.185516	-0.858643	-0.425537	0.126709	0.130121	-0.021936	0.037837	0.267282	0.667583	-0.165225	0.674977	67.999242	-81.701578	76.287958
41206		12.615973	0.219985	2.330246	2.209387	0.230361	2.824824	0.152408	-0.241939	0.055172	-0.863037	-0.429932	0.131348	0.126131	0.002217	0.023457	0.266371	0.668581	-0.165197	0.674356	68.918156	-81.781616	75.451106
41207		10.465870	0.411261	0.714722	0.728050	0.695701	0.637207	0.230053	-0.222536	0.038562	-0.858643	-0.427490	0.133545	0.104650	0.004124	0.007268	0.265333	0.669614	-0.164879	0.673817	69.847161	-81.846381	74.639156
41208		9.557444	1.661440	1.030875	0.248263	-0.635573	-0.081183	0.134625	-0.269908	0.060508	-0.856201	-0.431885	0.140137	0.095555	0.016636	0.010449	0.264440	0.670676	-0.164965	0.673091	70.888026	-81.930636	73.669136
41209		9.778760	2.445156	1.231553	-0.012946	-1.370897	0.249126	-0.079053	-0.250944	0.017446	-0.860840	-0.425293	0.135498	0.097770	0.024465	0.012429	0.264484	0.671410	-0.165655	0.672172	71.805944	-81.985203	72.689803
41210		9.833660	0.965406	1.002246	0.674391	-0.053204	0.095880	-0.155239	-0.208061	-0.013783	-0.865234	-0.429688	0.137939	0.098327	0.009655	0.010117	0.264863	0.671940	-0.166383	0.671313	72.565369	-82.013705	71.836543
41211		9.881421	0.074450	0.223540	0.575198	1.110235	-0.007867	0.025168	-0.192135	-0.016495	-0.865234	-0.431885	0.142334	0.098812	0.000736	0.002330	0.264719	0.672639	-0.166532	0.670632	73.372274	-82.035920	71.029758
41212		9.794886	0.928388	-0.744825	-0.696040	0.964862	-0.017739	0.141810	-0.138754	-0.032615	-0.858643	-0.431885	0.146729	0.097956	0.009273	-0.007374	0.264220	0.673344	-0.166108	0.670227	74.060263	-82.039747	70.420564
41213		9.529058	1.347593	-1.511345	-1.564588	1.032429	-0.252914	0.129123	-0.043075	-0.049670	-0.867432	-0.434082	0.144531	0.095297	0.013462	-0.015084	0.263961	0.673708	-0.165599	0.670088	74.380560	-82.018077	70.165284
41214		9.124736	1.133811	-1.487211	-1.436089	1.138322	-0.680327	0.165499	0.018861	-0.055904	-0.858398	-0.438477	0.146973	0.091249	0.011325	-0.014871	0.263590	0.673934	-0.164810	0.670202	74.486006	-81.983760	70.158006
41215		9.294265	1.205626	-1.092688	-1.145776	0.877451	-0.488089	0.267143	0.045729	-0.055178	-0.860596	-0.434082	0.146973	0.092943	0.012045	-0.010932	0.262898	0.674201	-0.163644	0.670490	74.541956	-81.945316	70.259527
41216		9.789408	1.654505	-0.309921	-0.738492	0.133982	0.091990	0.315103	0.077667	-0.048108	-0.858398	-0.436279	0.142578	0.097897	0.016526	-0.003111	0.262044	0.674418	-0.162301	0.670933	74.495398	-81.906308	70.492351
41217		10.069866	1.464875	0.192512	-0.205140	0.043488	0.362830	0.303983	0.094383	-0.043179	-0.860596	-0.438232	0.151367	0.100703	0.014624	0.001900	0.261285	0.674544	-0.161047	0.671405	74.372916	-81.866997	70.785455
41218		10.094190	1.525351	0.325661	-0.128936	-0.071289	0.400231	0.318923	0.084763	-0.045505	-0.858398	-0.436035	0.151367	0.100947	0.015225	0.003238	0.260414	0.674736	-0.159690	0.671874	74.301512	-81.828224	71.045634
41219		10.200809	1.424477	0.591421	0.153151	-0.117501	0.502261	0.304972	0.082456	-0.060401	-0.855957	-0.444824	0.153809	0.102015	0.014205	0.005894	0.259699	0.674914	-0.158388	0.672281	74.247723	-81.781144	71.269973
41220		9.995950	1.084825	0.809099	0.517362	0.017616	0.261166	0.304484	0.055829	-0.063893	-0.864990	-0.442627	0.153809	0.099965	0.010804	0.008080	0.258914	0.675196	-0.157054	0.672613	74.301042	-81.736683	71.395827
41221		9.873351	1.122584	1.113007	0.747910	-0.192368	0.156548	0.364853	0.019475	-0.066649	-0.858398	-0.436035	0.155762	0.098738	0.011173	0.011141	0.257966	0.675664	-0.155611	0.672842	74.528523	-81.695936	71.370651
41222		10.028533	1.539341	1.204879	0.608652	-0.557707	0.371186	0.360454	-0.008889	-0.048856	-0.858154	-0.444824	0.156006	0.100289	0.015347	0.012081	0.256889	0.676220	-0.154223	0.673015	74.841961	-81.669708	71.266055
41223		10.035734	1.805641	1.107479	0.392412	-0.718741	0.411412	0.277245	-0.049057	-0.045631	-0.867188	-0.440430	0.162598	0.100359	0.018018	0.011124	0.256113	0.676786	-0.153233	0.672969	75.253407	-81.650699	71.004210
41224		9.943302	1.965710	0.928115	0.163128	-0.765233	0.335340	0.185034	-0.081485	-0.019568	-0.862793	-0.442627	0.171387	0.099431	0.019639	0.009340	0.255474	0.677336	-0.152626	0.672796	75.709144	-81.650936	70.654196
41225		10.012460	2.288783	0.831418	-0.079539	-0.972987	0.445289	0.101133	-0.108347	-0.009129	-0.858154	-0.447021	0.166992	0.100121	0.022879	0.008380	0.255066	0.677859	-0.152369	0.672482	76.207363	-81.659849	70.212658
41226		9.896858	1.649765	0.670206	0.143191	-0.380585	0.234866	0.035097	-0.120767	0.008379	-0.860352	-0.446777	0.173828	0.098964	0.016501	0.006765	0.254811	0.678328	-0.152411	0.672096	76.701800	-81.680062	69.736725
41227		9.980680	1.494768	0.424930	0.039092	-0.115411	0.287511	0.037712	-0.143691	0.025797	-0.853516	-0.451416	0.165039	0.099802	0.014960	0.004324	0.254473	0.678862	-0.152530	0.671658	77.271090	-81.711850	69.186686
41228		9.914207	1.247129	0.278208	0.059825	0.149396	0.182227	-0.002394	-0.140226	0.046508	-0.862549	-0.446777	0.171631	0.099137	0.012494	0.002851	0.254202	0.679319	-0.152852	0.671226	77.792698	-81.754501	68.661666
41229		9.929567	1.374730	0.214501	-0.052994	0.069193	0.213507	0.000311	-0.146966	0.056482	-0.853760	-0.446777	0.173828	0.099290	0.013775	0.002218	0.253886	0.679792	-0.153205	0.670786	78.337673	-81.802381	68.114656
41230		9.933429	1.758623	0.377761	-0.117991	-0.349034	0.275558	-0.010922	-0.138948	0.051135	-0.860107	-0.451416	0.169434	0.099327	0.017612	0.003846	0.253629	0.680229	-0.153569	0.670356	78.857047	-81.846074	67.587078
41231		9.760447	1.571125	0.379258	-0.013859	-0.230661	0.077974	0.005828	-0.151284	0.062378	-0.858154	-0.442627	0.166992	0.097597	0.015742	0.003867	0.253271	0.680718	-0.153929	0.669913	79.430229	-81.896250	67.014896
41232		9.862272	1.532621	0.377105	0.021222	-0.197807	0.173100	0.026942	-0.154142	0.052940	-0.855957	-0.444580	0.178223	0.098616	0.015352	0.003849	0.252867	0.681252	-0.154192	0.669462	80.042525	-81.941013	66.415500
41233		9.868707	0.839097	0.131853	0.208127	0.497256	0.077825	0.027359	-0.151746	0.050071	-0.864990	-0.442383	0.184570	0.098684	0.008415	0.001395	0.252475	0.681778	-0.154437	0.669017	80.652045	-81.982563	65.819205
41234		10.067328	1.033369	-0.039014	-0.019187	0.444340	0.297834	0.055492	-0.138707	0.041343	-0.855957	-0.446777	0.180420	0.100671	0.010355	-0.000317	0.252025	0.682305	-0.154546	0.668625	81.238707	-82.017585	65.262334
41235		9.949957	1.364727	-0.176211	-0.312284	0.221430	0.224674	0.033542	-0.117246	0.026277	-0.858154	-0.444580	0.184814	0.099499	0.013661	-0.001701	0.251718	0.682741	-0.154646	0.668272	81.737482	-82.041084	64.781540
41236		9.733577	1.118201	-0.052669	-0.077524	0.322188	-0.020555	0.007420	-0.111657	0.001556	-0.853760	-0.444336	0.187012	0.097336	0.011183	-0.000472	0.251585	0.683147	-0.154745	0.667885	82.217152	-82.049967	64.304952
41237		9.696118	1.181293	-0.028071	-0.083592	0.246395	-0.048301	0.022294	-0.113028	-0.016574	-0.858154	-0.446533	0.189209	0.096962	0.011805	-0.000225	0.251463	0.683588	-0.154731	0.667482	82.719481	-82.047674	63.814084
41238		9.760000	1.378075	-0.043196	-0.188773	0.096619	0.041935	0.037831	-0.101642	-0.044396	-0.851318	-0.448730	0.189209	0.097603	0.013759	-0.000380	0.251387	0.684033	-0.154559	0.667095	83.199506	-82.028592	63.354723
41239		9.693121	1.250712	-0.207985	-0.249389	0.282935	-0.044275	0.050303	-0.087977	-0.058557	-0.855713	-0.453125	0.189453	0.096936	0.012479	-0.002034	0.251329	0.684458	-0.154277	0.666746	83.633515	-81.999641	62.949007
41240		9.679569	0.963445	-0.318491	-0.174312	0.579507	-0.098909	0.034539	-0.083918	-0.069386	-0.853516	-0.450928	0.187256	0.096800	0.009601	-0.003143	0.251361	0.684858	-0.154007	0.666385	84.045524	-81.964258	62.556364
41241		9.739263	1.024094	-0.190899	-0.085918	0.467750	-0.029422	0.029529	-0.079013	-0.069324	-0.855713	-0.450928	0.189453	0.097397	0.010207	-0.001869	0.251416	0.685235	-0.153746	0.666037	84.429628	-81.927864	62.188959
41242		9.831701	1.392123	0.103820	-0.023953	0.015225	0.117585	0.033522	-0.059471	-0.077188	-0.851074	-0.457520	0.185059	0.098322	0.013883	0.001070	0.251496	0.685559	-0.153423	0.665748	84.739035	-81.886001	61.899289
41243		9.732531	1.229909	0.108524	0.071983	0.137731	-0.003383	0.046576	-0.055667	-0.086549	-0.853516	-0.455322	0.193848	0.097330	0.012257	0.001115	0.251568	0.685892	-0.153017	0.665471	85.039229	-81.838014	61.626436
41244		9.777430	1.522729	0.139833	-0.047887	-0.111566	0.082850	0.068341	-0.047606	-0.097083	-0.855469	-0.459717	0.191895	0.097781	0.015179	0.001427	0.251604	0.686234	-0.152494	0.665224	85.321720	-81.783799	61.384046
41245		9.714185	1.460953	0.260962	0.093444	-0.129659	0.012908	0.054855	-0.050059	-0.102149	-0.848877	-0.455322	0.187256	0.097149	0.014559	0.002638	0.251703	0.686571	-0.152000	0.664953	85.602579	-81.726268	61.135454
41246		9.783265	1.405129	0.229003	0.112724	-0.051076	0.072847	0.044932	-0.041562	-0.117104	-0.846436	-0.464111	0.189697	0.097840	0.013993	0.002314	0.251890	0.686878	-0.151478	0.664683	85.846876	-81.660029	60.918036
41247		9.811944	1.309656	0.126895	0.092121	0.095292	0.086200	0.042316	-0.036355	-0.130135	-0.846680	-0.461914	0.194092	0.098128	0.013032	0.001290	0.252136	0.687174	-0.150912	0.664413	86.067659	-81.585641	60.722814
41248		9.793760	1.694557	0.160409	-0.078596	-0.234416	0.124809	0.042399	-0.028767	-0.147329	-0.842041	-0.464111	0.198486	0.097950	0.016873	0.001622	0.252442	0.687458	-0.150279	0.664147	86.261807	-81.501395	60.554546
41249		9.686826	1.485496	0.238567	0.103883	-0.106155	-0.010844	0.014343	-0.017139	-0.173434	-0.842041	-0.468262	0.198730	0.096881	0.014771	0.002395	0.252941	0.687686	-0.149633	0.663866	86.396909	-81.401361	60.429680
41250		9.732358	1.319649	0.039249	0.041763	0.159910	0.007417	0.024333	-0.008864	-0.189691	-0.837402	-0.468262	0.196533	0.097336	0.013104	0.000398	0.253464	0.687912	-0.148889	0.663600	86.509159	-81.292059	60.333696
41251		9.741675	1.190244	-0.007267	0.085601	0.309683	-0.003829	0.031033	-0.000084	-0.213075	-0.841797	-0.470703	0.192139	0.097429	0.011799	-0.000071	0.254108	0.688120	-0.148089	0.663317	86.593758	-81.168699	60.259526
41252		9.805282	1.203686	0.010427	0.110440	0.315368	0.060550	0.041592	0.007209	-0.226658	-0.832764	-0.472656	0.196533	0.098066	0.011926	0.000103	0.254706	0.688340	-0.147140	0.663071	86.660370	-81.037668	60.219682
41253		9.839983	1.432736	0.028200	0.017342	0.140706	0.130081	0.033206	0.009006	-0.245671	-0.837402	-0.472656	0.196533	0.098417	0.014206	0.000280	0.255456	0.688543	-0.146208	0.662777	86.716571	-80.895358	60.175477
41254		9.825692	1.574123	0.118629	0.029036	-0.005182	0.138957	0.007119	0.027096	-0.272095	-0.837158	-0.479492	0.194580	0.098278	0.015607	0.001174	0.256337	0.688685	-0.145191	0.662514	86.699915	-80.737675	60.199941
41255		9.781809	1.421100	0.192514	0.183250	0.100509	0.071472	-0.024244	0.040675	-0.301967	-0.834717	-0.485840	0.197021	0.097840	0.014064	0.001904	0.257493	0.688748	-0.144215	0.662213	86.623853	-80.562116	60.256393
41256		9.747180	1.313248	0.052155	0.134656	0.289626	0.017508	-0.021904	0.047205	-0.327378	-0.836914	-0.485840	0.194824	0.097493	0.012973	0.000497	0.258670	0.688823	-0.143078	0.661923	86.536334	-80.372119	60.335875
41257		9.883589	1.367461	0.009587	0.095422	0.319715	0.159470	-0.015165	0.066135	-0.362885	-0.827881	-0.490234	0.192627	0.098861	0.013495	0.000062	0.260014	0.688853	-0.141828	0.661633	86.399221	-80.160802	60.459616
41258		9.887935	1.105891	-0.197461	0.078237	0.683510	0.115042	-0.003778	0.071901	-0.375103	-0.830078	-0.494629	0.197266	0.098899	0.010873	-0.002010	0.261302	0.688899	-0.140434	0.661375	86.259638	-79.942554	60.602600
41259		9.905289	1.452576	-0.025082	0.052515	0.342757	0.192560	0.005540	0.081871	-0.397649	-0.825439	-0.494629	0.199463	0.099081	0.014329	-0.000291	0.262699	0.688924	-0.138975	0.661104	86.103405	-79.710680	60.758001
41260		9.928256	1.625986	0.055551	0.044137	0.198043	0.245934	0.008035	0.092930	-0.409234	-0.822998	-0.501221	0.197266	0.099316	0.016057	0.000510	0.264072	0.688935	-0.137394	0.660876	85.925446	-79.471954	60.947091
41261		9.922153	1.858238	0.058795	-0.062984	0.044812	0.281840	0.029606	0.104697	-0.430368	-0.822998	-0.507813	0.199707	0.099262	0.018369	0.000539	0.265506	0.688933	-0.135712	0.660651	85.735998	-79.220273	61.150578
41262		9.857210	1.639044	-0.002229	0.013600	0.289324	0.175656	0.027282	0.109872	-0.431022	-0.816162	-0.510010	0.195313	0.098607	0.016178	-0.000074	0.266894	0.688922	-0.133969	0.660460	85.540569	-78.968142	61.368999
41263		9.874942	1.749840	0.003709	-0.024319	0.239574	0.213194	0.029527	0.114875	-0.422344	-0.815918	-0.516602	0.199951	0.098786	0.017290	-0.000017	0.268307	0.688874	-0.132300	0.660273	85.338157	-78.720324	61.586007
41264		9.877926	1.714381	-0.043875	-0.031123	0.336664	0.207292	0.031764	0.131095	-0.418785	-0.811279	-0.518799	0.191162	0.098815	0.016937	-0.000501	0.269650	0.688784	-0.130555	0.660167	85.101044	-78.473871	61.849945
41265		9.859527	2.017231	-0.051621	-0.188939	0.130871	0.248584	0.031670	0.135224	-0.410503	-0.813477	-0.520996	0.186768	0.098636	0.019970	-0.000580	0.271027	0.688659	-0.128891	0.660061	84.859966	-78.231461	62.108081
41266		9.693564	2.318209	0.075640	-0.247100	-0.174051	0.149918	0.019919	0.136492	-0.400976	-0.806641	-0.527344	0.195801	0.096982	0.022988	0.000693	0.272353	0.688516	-0.127238	0.659984	84.617653	-77.994456	62.370856
41267		9.608117	2.668629	0.111369	-0.401624	-0.456174	0.141224	0.004912	0.136258	-0.389981	-0.804443	-0.529785	0.189209	0.096134	0.026499	0.001049	0.273753	0.688332	-0.125730	0.659886	84.373419	-77.763240	62.617007
41268		9.465735	2.520410	0.297446	-0.169580	-0.424205	-0.023292	-0.015410	0.125524	-0.374183	-0.804199	-0.531982	0.189453	0.094706	0.025027	0.002913	0.275103	0.688155	-0.124300	0.659780	84.151306	-77.541696	62.838837
41269		9.395041	2.729958	0.433009	-0.164665	-0.645804	-0.042187	-0.030536	0.116609	-0.365245	-0.799561	-0.538330	0.191650	0.094003	0.027129	0.004271	0.276529	0.687967	-0.123020	0.659620	83.947655	-77.325304	63.023037
41270		9.295979	2.583384	0.659907	0.103578	-0.632978	-0.163176	-0.048805	0.118643	-0.352695	-0.801758	-0.540771	0.187256	0.093009	0.025671	0.006538	0.277916	0.687749	-0.121782	0.659495	83.732626	-77.116080	63.218357
41271		9.320130	2.092375	0.712644	0.421034	-0.221607	-0.245857	-0.036013	0.120502	-0.346886	-0.801758	-0.540771	0.187256	0.093242	0.020763	0.007067	0.279301	0.687524	-0.120577	0.659365	83.524347	-76.909560	63.404407
41272		9.489591	2.029448	0.402976	0.220713	0.066115	-0.102888	0.000840	0.118420	-0.338823	-0.790527	-0.544922	0.189697	0.094932	0.020134	0.003974	0.280470	0.687363	-0.119223	0.659284	83.346888	-76.707947	63.590678
41273		9.613971	1.907063	0.120378	0.070810	0.378674	-0.018235	0.034923	0.123147	-0.340457	-0.792725	-0.547119	0.191895	0.096173	0.018907	0.001148	0.281590	0.687220	-0.117801	0.659210	83.182560	-76.504638	63.773650
41274		9.731826	1.875880	0.001815	0.010341	0.527336	0.084235	0.093576	0.119864	-0.353094	-0.785889	-0.549316	0.192139	0.097351	0.018587	-0.000031	0.282486	0.687188	-0.116089	0.659164	83.069049	-76.294581	63.949112
41275		9.829415	2.490570	-0.027978	-0.319786	0.099731	0.321847	0.120296	0.130448	-0.363516	-0.790039	-0.558105	0.183350	0.098339	0.024727	-0.000329	0.283390	0.687151	-0.114296	0.659128	82.952924	-76.077476	64.133160
41276		9.713131	2.249479	-0.049843	-0.211290	0.318114	0.150324	0.109566	0.140298	-0.350050	-0.781006	-0.560303	0.181396	0.097170	0.022325	-0.000554	0.284231	0.687067	-0.112512	0.659160	82.810191	-75.867525	64.348507
41277		9.782980	2.223333	-0.062945	-0.191748	0.396733	0.210266	0.092308	0.143140	-0.333900	-0.781006	-0.560303	0.183594	0.097866	0.022070	-0.000689	0.285139	0.686927	-0.110894	0.659188	82.651169	-75.666113	64.560625
41278		9.774312	2.426167	0.090707	-0.162436	0.180781	0.255706	0.087724	0.143487	-0.308464	-0.778809	-0.562500	0.183594	0.097781	0.024111	0.000848	0.285918	0.686774	-0.109320	0.659274	82.487384	-75.479271	64.785169
41279		9.803195	3.098696	0.209076	-0.407219	-0.389805	0.455243	0.079698	0.155055	-0.300710	-0.778564	-0.566895	0.183594	0.098080	0.030839	0.002027	0.286763	0.686554	-0.107840	0.659379	82.295995	-75.295496	65.023650
41280		9.629651	3.270018	0.357838	-0.384484	-0.616162	0.337370	0.047446	0.151836	-0.289289	-0.774170	-0.566895	0.181396	0.096346	0.032560	0.003513	0.287620	0.686301	-0.106451	0.659495	82.095765	-75.118529	65.262393
41281		9.599674	3.332747	0.440817	-0.346248	-0.687387	0.329442	0.035769	0.153955	-0.263434	-0.776123	-0.573486	0.183838	0.096044	0.033200	0.004340	0.288492	0.685999	-0.105245	0.659622	81.881169	-74.955522	65.499248
41282		9.471782	3.167981	0.422928	-0.286616	-0.545873	0.164759	-0.000144	0.154135	-0.226253	-0.769775	-0.569092	0.183838	0.094757	0.031573	0.004156	0.289304	0.685633	-0.104226	0.659808	81.639820	-74.813652	65.752699
41283		9.281215	2.907200	0.792893	0.142045	-0.552488	-0.071231	-0.024062	0.135590	-0.195889	-0.773926	-0.575684	0.183838	0.092846	0.028982	0.007863	0.290148	0.685268	-0.103474	0.659936	81.417697	-74.689931	65.962159
41284		9.543262	2.922261	1.050203	0.378672	-0.616707	0.196940	-0.044311	0.124138	-0.171212	-0.771729	-0.575684	0.183838	0.095464	0.029143	0.010436	0.290914	0.684907	-0.102832	0.660074	81.203750	-74.581318	66.161248
41285		9.620506	2.873437	0.966631	0.340126	-0.493495	0.256370	-0.061204	0.113460	-0.149555	-0.769531	-0.575684	0.179443	0.096232	0.028665	0.009603	0.291720	0.684534	-0.102393	0.660173	80.997169	-74.485337	66.332726
41286		9.444368	3.053069	0.833809	0.112022	-0.592037	0.129620	-0.091560	0.110373	-0.143700	-0.764893	-0.577881	0.181885	0.094470	0.030467	0.008272	0.292549	0.684134	-0.102022	0.660278	80.780573	-74.393151	66.506653
41287		9.218550	3.221041	0.863146	0.019843	-0.781035	-0.040720	-0.144956	0.105137	-0.129906	-0.767090	-0.582275	0.175293	0.092211	0.032157	0.008560	0.293572	0.683656	-0.101938	0.660333	80.540975	-74.308665	66.662741
41288		8.980934	3.311015	0.989059	0.046537	-0.962821	-0.238294	-0.188673	0.112468	-0.119962	-0.764893	-0.580078	0.177490	0.089835	0.033066	0.009809	0.294655	0.683093	-0.101965	0.660429	80.261182	-74.229295	66.844663
41289		8.849550	2.947880	1.000878	0.225604	-0.693057	-0.459879	-0.194508	0.125649	-0.100805	-0.764648	-0.584473	0.168701	0.088517	0.029444	0.009925	0.295761	0.682457	-0.102114	0.660569	79.946674	-74.158743	67.049222
41290		9.060161	2.315598	0.611220	0.246717	0.094152	-0.445065	-0.163351	0.135025	-0.104906	-0.757813	-0.591064	0.166748	0.090618	0.023113	0.006032	0.296718	0.681847	-0.102075	0.660775	79.635984	-74.085052	67.278483
41291		9.402950	1.833208	0.152993	0.147298	0.833059	-0.268903	-0.115949	0.146104	-0.130592	-0.757813	-0.591064	0.168945	0.094043	0.018272	0.001451	0.297665	0.681273	-0.101831	0.660979	79.341774	-73.994951	67.508907
41292		9.832737	1.632430	-0.228445	-0.026019	1.330819	0.067997	-0.084730	0.157934	-0.173821	-0.757568	-0.595459	0.166748	0.098340	0.016238	-0.002369	0.298593	0.680738	-0.101263	0.661199	79.062357	-73.879374	67.752711
41293		10.016894	1.747484	-0.514083	-0.311318	1.467975	0.257277	-0.060299	0.195312	-0.241639	-0.760010	-0.593262	0.166748	0.100185	0.017352	-0.005244	0.299741	0.680138	-0.100385	0.661430	78.753764	-73.720803	68.031610
41294		9.922724	1.740273	-0.152311	-0.016501	1.288987	0.179826	-0.039032	0.234790	-0.313176	-0.750732	-0.602051	0.166992	0.099252	0.017247	-0.001643	0.301012	0.679484	-0.099076	0.661723	78.416490	-73.517526	68.363403
41295		10.283604	1.234903	0.320715	0.686366	1.575827	0.406208	-0.020726	0.265016	-0.383543	-0.753174	-0.597656	0.164551	0.102864	0.012152	0.003070	0.302526	0.678780	-0.097479	0.661992	78.068505	-73.270359	68.707678
41296		11.266530	1.631328	0.313259	0.570420	1.581041	1.450912	0.026163	0.311319	-0.436549	-0.748535	-0.604248	0.160400	0.112705	0.016067	0.002959	0.304018	0.678024	-0.095419	0.662383	77.694194	-72.987629	69.118057
41297		11.191573	2.060374	-0.072048	0.008825	1.490940	1.469079	0.009414	0.365192	-0.502418	-0.746094	-0.608643	0.156006	0.111965	0.020323	-0.000924	0.305867	0.677081	-0.093166	0.662817	77.252690	-72.660280	69.579356
41298		11.088511	2.600493	0.053370	-0.185371	1.038327	1.527837	-0.043808	0.381291	-0.565859	-0.739258	-0.610840	0.156250	0.110959	0.025691	0.000317	0.308052	0.676035	-0.090791	0.663202	76.796175	-72.294600	70.035343
41299		11.198406	2.700689	0.263744	-0.051679	0.958628	1.669705	-0.131513	0.403693	-0.614232	-0.736816	-0.621826	0.156494	0.112071	0.026664	0.002394	0.310759	0.674785	-0.088566	0.663514	76.289744	-71.897657	70.481920
41300		12.589832	2.721840	0.146198	-0.018507	1.505973	2.980455	-0.235914	0.397462	-0.664702	-0.734375	-0.624023	0.152100	0.125990	0.026801	0.001180	0.313919	0.673414	-0.086467	0.663696	75.776533	-71.472462	70.883729
41301		11.751381	2.277193	1.566801	1.321201	0.942362	2.149793	-0.252711	0.468258	-0.705570	-0.727783	-0.626221	0.145508	0.117629	0.022377	0.015364	0.317355	0.671779	-0.084231	0.664006	75.176893	-71.013101	71.357666
41302		11.138734	1.602109	0.999110	1.141306	1.686940	1.299794	-0.182820	0.422005	-0.739981	-0.716309	-0.633057	0.136963	0.111466	0.015618	0.009742	0.320586	0.670418	-0.081662	0.664150	74.729660	-70.540298	71.723989
41303		10.442530	2.986968	1.272833	0.561671	0.331780	1.103458	-0.109701	0.408064	-0.751858	-0.718262	-0.641846	0.128174	0.104562	0.029484	0.012499	0.323658	0.669206	-0.078889	0.664218	74.368839	-70.062195	72.034058
41304		10.079600	2.982684	1.596407	0.802887	0.134391	0.788251	-0.109581	0.402539	-0.730892	-0.707031	-0.644043	0.130615	0.100936	0.029467	0.015745	0.326594	0.667999	-0.076135	0.664317	74.023528	-69.595889	72.338680
41305		9.841420	3.021836	1.664202	0.820225	0.074015	0.583263	-0.067064	0.370691	-0.705969	-0.706787	-0.650635	0.128418	0.098551	0.029876	0.016449	0.329346	0.666940	-0.073433	0.664327	73.751737	-69.147798	72.581622
41306		10.301359	3.496187	1.503055	0.489005	0.034816	1.158162	-0.016829	0.370843	-0.696147	-0.702393	-0.650635	0.124023	0.103162	0.034604	0.014836	0.331834	0.665957	-0.070536	0.664389	73.515475	-68.704702	72.828144
41307		10.322135	3.155054	1.345885	0.551458	0.473569	1.040113	0.006363	0.371131	-0.680011	-0.697754	-0.657227	0.119873	0.103353	0.031199	0.013268	0.334244	0.664988	-0.067672	0.664449	73.294509	-68.270070	73.063169
41308		10.540920	3.442984	1.273462	0.370166	0.453099	1.333788	0.035857	0.371885	-0.674702	-0.695557	-0.654785	0.126465	0.105548	0.034072	0.012545	0.336476	0.664061	-0.064668	0.664549	73.096654	-67.837899	73.302312
41309		10.821421	2.832076	1.254224	0.719428	1.118261	1.364439	0.019293	0.386762	-0.683699	-0.695313	-0.666016	0.122314	0.108334	0.027949	0.012336	0.338850	0.663043	-0.061721	0.664639	72.881194	-67.398017	73.540887
41310		11.040253	2.457363	1.406138	1.080292	1.492468	1.434884	0.049413	0.370281	-0.708981	-0.686523	-0.661377	0.120117	0.110515	0.024179	0.013863	0.341141	0.662136	-0.058559	0.664658	72.723523	-66.946752	73.746379
41311		11.250877	2.456399	1.632171	1.306272	1.545761	1.640852	0.020135	0.387458	-0.757684	-0.683838	-0.672607	0.115967	0.112632	0.024136	0.016106	0.343746	0.661118	-0.055361	0.664603	72.553233	-66.465802	73.937954
41312		11.351678	1.719181	1.740026	1.811227	2.184532	1.447431	-0.009759	0.402691	-0.792642	-0.670166	-0.678955	0.116211	0.113618	0.016742	0.017171	0.346507	0.660002	-0.052061	0.664545	72.368881	-65.962768	74.137039
41313		11.782158	2.230230	1.603718	1.490525	2.144507	2.000161	0.007693	0.379131	-0.870431	-0.667725	-0.685547	0.116211	0.117947	0.021789	0.015815	0.349513	0.658994	-0.048546	0.664237	72.259542	-65.421397	74.255457
41314		11.892916	1.955964	1.207222	1.336999	2.716536	1.915751	-0.022515	0.369910	-0.942995	-0.665527	-0.689941	0.105225	0.119042	0.019000	0.011850	0.352791	0.657973	-0.044847	0.663777	72.176774	-64.841734	74.336229
41315		11.815565	2.170819	0.476256	0.631576	3.025260	1.806020	-0.006622	0.299688	-1.041194	-0.656494	-0.694336	0.103271	0.118273	0.021093	0.004585	0.356373	0.657211	-0.040955	0.662868	72.221271	-64.221162	74.276353
41316		12.284042	1.493567	-0.148557	0.562514	4.173721	1.823996	-0.007780	0.229778	-1.140746	-0.645020	-0.698730	0.105713	0.122921	0.014235	-0.001627	0.360208	0.656684	-0.036803	0.661560	72.375619	-63.558021	74.103304
41317		11.897160	2.045904	0.724238	1.020303	3.272790	1.784664	0.099854	0.174901	-1.241990	-0.640381	-0.707520	0.105957	0.119102	0.019716	0.007148	0.364055	0.656523	-0.032122	0.659856	72.675052	-62.849261	73.825599
41318		11.442429	2.908009	1.263645	1.036008	2.293211	1.791120	0.107444	0.145722	-1.299345	-0.626953	-0.711914	0.101563	0.114619	0.028329	0.012568	0.367992	0.656458	-0.027217	0.657954	73.013855	-62.112800	73.516846
41319		10.659585	3.092393	0.404797	0.183878	2.380753	1.033972	0.115531	0.096283	-1.276987	-0.617676	-0.718262	0.101807	0.106792	0.030240	0.004014	0.371860	0.656537	-0.022512	0.655875	73.383490	-61.396651	73.166079
41320		10.151597	3.014430	0.220853	0.069115	2.413694	0.500332	0.126767	0.045616	-1.232874	-0.615479	-0.722656	0.104004	0.101700	0.029516	0.002204	0.375473	0.656776	-0.017945	0.653715	73.780330	-60.711159	72.799499
41321		9.124408	4.297278	0.896015	-0.098054	0.769465	0.282920	0.134131	-0.002953	-1.224754	-0.610840	-0.729248	0.104248	0.091505	0.042407	0.008990	0.379068	0.657159	-0.013535	0.651357	74.208169	-60.037406	72.389478
41322		8.535295	6.056214	1.049036	-0.883098	-0.738365	0.642118	0.096601	-0.069695	-1.252125	-0.594971	-0.733398	0.111084	0.085726	0.060021	0.010549	0.382804	0.657667	-0.009219	0.648730	74.666938	-59.356438	71.926180
41323		8.686325	4.591201	0.348095	-0.631481	0.833261	-0.037299	0.019988	-0.114647	-1.232319	-0.581543	-0.737793	0.104492	0.087142	0.045375	0.003535	0.386763	0.658147	-0.005367	0.645933	75.098485	-58.692194	71.430029
41324		7.825006	4.013456	0.333817	-0.422699	0.909226	-1.069478	0.059951	-0.166041	-1.169339	-0.576904	-0.742188	0.109131	0.078480	0.039675	0.003415	0.390318	0.658845	-0.001628	0.643096	75.565859	-58.067524	70.925532
41325		7.364750	4.384519	0.470208	-0.506429	0.425864	-1.254298	0.071668	-0.220564	-1.119896	-0.567383	-0.761719	0.107422	0.073886	0.043430	0.004799	0.393714	0.659718	0.001815	0.640123	76.058323	-57.476662	70.385820
41326		7.102970	4.737652	0.678961	-0.487824	0.009715	-1.261678	0.071285	-0.260950	-1.051611	-0.561035	-0.752930	0.109375	0.071269	0.047000	0.006899	0.396829	0.660701	0.005016	0.637163	76.553707	-56.925996	69.849145
41327		6.965547	5.020084	0.677567	-0.591747	-0.191938	-1.222485	0.068096	-0.278909	-0.966902	-0.547363	-0.763916	0.112061	0.069888	0.049861	0.006890	0.399725	0.661719	0.007828	0.634261	77.029331	-56.423371	69.320590
41328		6.818292	5.276109	0.895970	-0.501281	-0.501406	-1.174054	0.094778	-0.299758	-0.874266	-0.545166	-0.761475	0.114258	0.068399	0.052458	0.009087	0.402179	0.662844	0.010439	0.631491	77.506353	-55.971918	68.815997
41329		6.645644	5.441213	1.103465	-0.384775	-0.764125	-1.195457	0.069152	-0.299473	-0.782595	-0.538330	-0.765869	0.114258	0.066652	0.054148	0.011153	0.404471	0.663909	0.012602	0.628863	77.939939	-55.570388	68.333542
41330		6.420119	5.005375	1.775177	0.397702	-0.899292	-1.538884	-0.052965	-0.261536	-0.685468	-0.535889	-0.774658	0.110107	0.064349	0.049838	0.017823	0.406804	0.664603	0.014199	0.626588	78.246968	-55.216266	67.927795
41331		5.902010	2.263183	2.388032	2.179281	0.368271	-3.427277	-0.284198	-0.154265	-0.562153	-0.533691	-0.770264	0.107910	0.059065	0.022500	0.023894	0.409556	0.664492	0.014817	0.624895	78.308985	-54.918907	67.647597
41332		5.478793	2.179766	1.347680	1.272192	0.761362	-3.948679	0.075479	-0.222092	-0.389178	-0.529297	-0.772461	0.116699	0.054815	0.021686	0.013546	0.410525	0.665336	0.015908	0.623333	78.599793	-54.725145	67.348900
41333		5.588271	1.611044	0.873608	1.199431	1.449398	-4.240614	0.328898	-0.249837	-0.139903	-0.526855	-0.772461	0.118896	0.055883	0.016057	0.008832	0.409923	0.666805	0.016838	0.622134	79.015617	-54.674389	67.064334
41334		5.794396	0.506700	0.268274	1.290905	2.601710	-4.766066	0.458268	-0.264087	0.111292	-0.529053	-0.774658	0.121094	0.057938	0.005093	0.002771	0.408057	0.668599	0.017368	0.621421	79.478804	-54.764468	66.822763
41335		5.761182	-0.428308	-0.145870	1.392861	3.407211	-5.357719	0.563938	-0.253149	0.362569	-0.536133	-0.765869	0.127686	0.057621	-0.004175	-0.001398	0.405102	0.670590	0.017343	0.621209	79.959181	-54.994928	66.624513
41336		5.756592	-0.480523	-0.131181	1.425270	3.408763	-5.370246	0.703773	-0.210398	0.602465	-0.542969	-0.759033	0.136230	0.057581	-0.004627	-0.001268	0.400872	0.672740	0.017100	0.621635	80.456162	-55.354745	66.514474
41337		5.900809	0.209739	0.004321	1.235164	2.911923	-4.826865	0.804899	-0.186657	0.811203	-0.552002	-0.754639	0.142822	0.058999	0.002336	0.000107	0.395689	0.675019	0.016449	0.622503	80.969082	-55.831016	66.445736
41338		6.096530	1.085243	0.263607	1.075904	2.230563	-4.130996	0.795862	-0.170969	0.994583	-0.559082	-0.748047	0.142578	0.060908	0.011145	0.002732	0.389900	0.677219	0.015248	0.623795	81.447035	-56.408254	66.423407
41339		6.371280	1.802783	0.477838	0.970711	1.697907	-3.468721	0.685062	-0.153966	1.151211	-0.565918	-0.743652	0.157959	0.063604	0.018378	0.004890	0.384028	0.679134	0.013135	0.625402	81.833719	-57.074089	66.424301
41340		6.666546	2.203917	0.674958	0.995441	1.386028	-2.968493	0.520994	-0.093237	1.297824	-0.581787	-0.730469	0.157471	0.066517	0.022453	0.006839	0.378184	0.680519	0.010196	0.627508	82.059596	-57.816911	66.514527
41341		6.675462	2.093453	0.888132	1.200185	1.277000	-2.981790	0.398915	-0.097963	1.413566	-0.588867	-0.717529	0.159424	0.066600	0.021388	0.008956	0.372422	0.681661	0.006401	0.629762	82.206462	-58.627375	66.604475
41342		7.081590	1.843210	0.952105	1.414605	1.527848	-2.733394	0.325586	-0.069713	1.546501	-0.600342	-0.710938	0.165771	0.070667	0.018963	0.009576	0.366420	0.682540	0.002044	0.632354	82.267280	-59.509788	66.755032
41343		7.342381	2.046186	1.173880	1.515730	1.287249	-2.361536	0.261783	-0.060146	1.682456	-0.618652	-0.697754	0.165527	0.073245	0.021063	0.011788	0.360174	0.683227	-0.002972	0.635190	82.259422	-60.470205	66.941064
41344		7.702998	2.048019	1.482662	1.793645	1.181883	-1.995193	0.221477	-0.021054	1.778002	-0.636719	-0.687012	0.158447	0.076842	0.021147	0.014858	0.353743	0.683664	-0.008362	0.638279	82.167443	-61.480229	67.195277
41345		7.986169	2.313073	1.583843	1.744190	0.932408	-1.583212	0.229639	0.010238	1.868362	-0.648438	-0.671631	0.166748	0.079642	0.023857	0.015861	0.347015	0.683952	-0.014049	0.641555	82.018947	-62.540414	67.506074
41346		8.231752	2.693891	1.649925	1.592956	0.578651	-1.160149	0.222547	0.041042	1.953496	-0.666504	-0.658691	0.166504	0.082053	0.027723	0.016513	0.339960	0.684061	-0.019925	0.645051	81.798956	-63.644314	67.899581
41347		8.514311	2.850898	1.618280	1.455513	0.441615	-0.816924	0.188414	0.077474	2.022368	-0.680420	-0.645508	0.163818	0.084855	0.029353	0.016177	0.332762	0.683918	-0.026093	0.648725	81.475374	-64.785032	68.382350
41348		8.887495	2.964666	1.585989	1.339459	0.358989	-0.412363	0.154454	0.111341	2.072662	-0.698730	-0.625977	0.165527	0.088570	0.030553	0.015834	0.325494	0.683531	-0.032473	0.652521	81.042153	-65.948211	68.960032
41349		9.217946	3.092339	1.482360	1.134283	0.267346	-0.046985	0.102297	0.144642	2.118344	-0.721436	-0.614990	0.163086	0.091856	0.031890	0.014773	0.318216	0.682866	-0.039134	0.656430	80.471590	-67.133709	69.649300
41350		9.556541	3.313058	1.402942	0.894336	0.077706	0.358956	0.047112	0.161739	2.141954	-0.726563	-0.595459	0.160156	0.095215	0.034148	0.013960	0.311025	0.681977	-0.046012	0.660344	79.771645	-68.326053	70.438481
41351		9.903448	3.507661	1.294620	0.630238	-0.090101	0.753695	0.005022	0.170116	2.152489	-0.740234	-0.582275	0.162109	0.098660	0.036139	0.012863	0.303899	0.680910	-0.053059	0.664222	78.944004	-69.521060	71.331854
41352		10.373008	3.657587	1.196678	0.399956	-0.200675	1.241925	-0.018284	0.165776	2.130680	-0.756348	-0.569336	0.157227	0.103342	0.037679	0.011878	0.296898	0.679752	-0.060098	0.667965	78.013436	-70.697562	72.313896
41353		10.803009	3.937258	1.267332	0.239781	-0.526538	1.740387	-0.045757	0.171518	2.096952	-0.772461	-0.547363	0.156738	0.107620	0.040505	0.012572	0.290063	0.678465	-0.067111	0.671598	76.945461	-71.850164	73.417129
41354		11.139180	4.051818	1.298710	0.108149	-0.736393	2.088000	-0.037867	0.180084	2.035441	-0.779785	-0.530029	0.151855	0.110983	0.041652	0.012879	0.283388	0.677112	-0.073857	0.675097	75.751905	-72.958495	74.650028
41355		11.515193	4.192384	1.389018	0.014486	-0.990178	2.480386	0.015495	0.195133	1.959456	-0.793701	-0.510254	0.148926	0.114747	0.043048	0.013781	0.276757	0.675740	-0.080148	0.678496	74.432380	-74.015717	76.038779
41356		11.884299	4.429401	1.415818	-0.184129	-1.299885	2.881106	0.070555	0.208976	1.881540	-0.805420	-0.495117	0.148682	0.118434	0.045405	0.014050	0.270193	0.674369	-0.085951	0.681788	72.979673	-75.016431	77.591624
41357		11.972952	4.531632	1.321751	-0.438830	-1.510304	2.960581	0.121158	0.226911	1.784871	-0.816895	-0.481934	0.148193	0.119334	0.046375	0.013110	0.263764	0.672985	-0.091235	0.684978	71.373135	-75.951361	79.326020
41358		12.049266	4.705511	1.175659	-0.768139	-1.750752	3.034484	0.166325	0.239331	1.673206	-0.828613	-0.462402	0.147705	0.120107	0.048051	0.011652	0.257559	0.671622	-0.095955	0.688026	69.629330	-76.809034	81.221789
41359		12.012899	4.837625	0.940185	-1.152473	-1.929744	2.975621	0.183774	0.241712	1.565419	-0.835693	-0.449219	0.147217	0.119757	0.049306	0.009302	0.251643	0.670275	-0.100253	0.690910	67.743341	-77.595459	83.266971
41360		11.903060	4.939838	0.750791	-1.474790	-2.108674	2.837377	0.178333	0.237324	1.448137	-0.844971	-0.438232	0.142578	0.118678	0.050252	0.007411	0.246140	0.668960	-0.104166	0.693583	65.742321	-78.304012	85.420999
41361		11.659227	4.930059	0.496603	-1.791434	-2.174287	2.538448	0.175293	0.215338	1.336885	-0.847900	-0.416504	0.142090	0.116265	0.050074	0.004884	0.241003	0.667737	-0.107749	0.696014	63.674650	-78.945053	87.635739
41362		11.459852	5.006184	0.374406	-2.019875	-2.351824	2.308261	0.168746	0.189869	1.216518	-0.854736	-0.412109	0.137451	0.114295	0.050755	0.003678	0.236289	0.666635	-0.110969	0.698177	61.597652	-79.514205	89.851841
41363		11.137914	5.003675	0.101105	-2.330947	-2.397108	1.931213	0.141210	0.159933	1.088532	-0.854736	-0.405518	0.135010	0.111105	0.050641	0.000958	0.232083	0.665650	-0.113899	0.700053	59.553983	-80.013593	92.014001
41364		10.839550	5.030512	0.091305	-2.411152	-2.569417	1.606314	0.082502	0.111118	0.956088	-0.859619	-0.394775	0.132568	0.108154	0.050822	0.000874	0.228508	0.664829	-0.116639	0.701557	57.647990	-80.448297	93.999451
41365		10.346964	4.910358	-0.014838	-2.491755	-2.583076	1.063416	-0.014436	0.057499	0.821790	-0.859863	-0.390137	0.143555	0.103267	0.049528	-0.000182	0.225685	0.664147	-0.119338	0.702662	55.924066	-80.825307	95.741534
41366		9.963431	4.636564	-0.098404	-2.469146	-2.436324	0.615377	-0.110675	0.000557	0.682532	-0.862305	-0.379395	0.132324	0.099475	0.046705	-0.001010	0.223639	0.663632	-0.121969	0.703350	54.473420	-81.146665	97.149565
41367		9.697302	4.313749	-0.102701	-2.344562	-2.250376	0.291529	-0.144352	-0.057217	0.562177	-0.864746	-0.377197	0.132080	0.096852	0.043409	-0.001031	0.222087	0.663348	-0.124387	0.703687	53.342798	-81.427339	98.213016
41368		9.593735	4.111640	0.112897	-2.076951	-2.238145	0.169039	-0.158966	-0.119276	0.457399	-0.864746	-0.370605	0.129883	0.095842	0.041337	0.001153	0.220915	0.663328	-0.126572	0.703684	52.578572	-81.678211	98.896995
41369		9.556603	3.726695	0.451200	-1.606375	-2.109472	0.106488	-0.161791	-0.177230	0.379656	-0.869385	-0.366211	0.134033	0.095491	0.037452	0.004566	0.219985	0.663553	-0.128577	0.703400	52.141229	-81.913500	99.248536
41370		9.314800	3.388341	0.688885	-1.232344	-1.999645	-0.158489	-0.092578	-0.235397	0.326343	-0.869629	-0.361816	0.138428	0.093084	0.034039	0.006983	0.218978	0.664092	-0.130221	0.702904	52.051463	-82.144448	99.289067
41371		9.170678	3.171351	0.756023	-1.061052	-1.899004	-0.325949	-0.021135	-0.252605	0.295947	-0.869873	-0.354980	0.142578	0.091650	0.031850	0.007673	0.217825	0.664785	-0.131534	0.702362	52.133670	-82.368091	99.197236
41372		9.277934	3.280805	1.077913	-0.826221	-2.168042	-0.188630	-0.010206	-0.239027	0.275202	-0.872070	-0.357422	0.140381	0.092721	0.032936	0.010888	0.216720	0.665455	-0.132721	0.701846	52.239850	-82.577175	99.087680
41373		9.317196	3.392372	1.439050	-0.560028	-2.463179	-0.116903	-0.134734	-0.188229	0.239938	-0.869873	-0.353027	0.135986	0.093118	0.034045	0.014455	0.216184	0.665831	-0.134175	0.701377	52.192681	-82.752728	99.060774
41374		9.200330	3.076619	1.690207	-0.190871	-2.345863	-0.250841	-0.318137	-0.082626	0.170282	-0.867676	-0.353027	0.135986	0.091970	0.030871	0.016891	0.216576	0.665685	-0.135923	0.701058	51.856249	-82.859324	99.219593
41375		9.005823	3.083904	1.095585	-0.723766	-2.105179	-0.492817	-0.355494	-0.017106	0.130867	-0.867676	-0.353027	0.140381	0.090037	0.030917	0.010909	0.217272	0.665292	-0.137602	0.700889	51.363856	-82.924909	99.513921
41376		9.949547	9.188656	-3.341197	-7.580724	-5.164999	0.696533	0.172307	-0.291274	-0.037353	-0.867676	-0.352783	0.144775	0.099561	0.091897	-0.033188	0.216614	0.666549	-0.137166	0.699983	52.662068	-83.011322	98.308786
41377		11.316505	12.243451	-0.886320	-6.907273	-8.831950	2.558121	-0.033312	-0.222929	-0.319524	-0.863037	-0.361572	0.145020	0.113370	0.122252	-0.008757	0.217675	0.667534	-0.136436	0.698857	54.385537	-82.940515	96.556481
41378		11.657599	13.395682	1.131691	-5.699372	-10.690674	3.219945	-0.480946	0.007208	-0.761305	-0.864990	-0.370361	0.143066	0.117085	0.133538	0.010991	0.221928	0.667521	-0.135543	0.697704	56.067627	-82.580209	94.586552
41379		8.361781	6.022177	0.498039	-2.630197	-4.325747	-0.823638	-1.061955	0.240260	-0.723085	-0.862305	-0.379150	0.136719	0.083841	0.059944	0.004561	0.228141	0.666005	-0.136537	0.696955	56.351922	-82.159172	93.689341
41380		7.437552	0.125505	1.058831	0.782047	0.398014	-2.350521	-1.595207	0.355713	-0.513604	-0.864258	-0.385986	0.119141	0.074397	0.001148	0.010447	0.235462	0.663296	-0.139952	0.696426	55.435066	-81.801602	93.695686
41381		7.205495	-1.780109	-0.220977	0.670017	2.661740	-2.913202	-1.433270	0.264982	-0.398564	-0.864258	-0.386230	0.116943	0.072016	-0.017960	-0.002177	0.241832	0.660958	-0.143335	0.695778	54.682205	-81.527254	93.620146
41382		8.343495	0.841871	-0.527766	-0.967246	0.808720	-1.505370	-0.748299	0.094374	-0.318331	-0.857422	-0.392822	0.112549	0.083446	0.008266	-0.005348	0.245463	0.659972	-0.144748	0.695149	54.683064	-81.347597	93.189155
41383		9.352516	2.990500	0.161246	-1.536739	-1.166701	-0.183785	-0.619432	0.056442	-0.291332	-0.855225	-0.390381	0.112549	0.093569	0.029773	0.001494	0.248547	0.659248	-0.145843	0.694511	54.807693	-81.192532	92.707531
41384		9.451474	2.679306	0.157887	-1.379578	-0.857380	-0.122715	-0.677553	0.050282	-0.228047	-0.859619	-0.397217	0.110596	0.094546	0.026690	0.001465	0.251592	0.658418	-0.147358	0.693882	54.773112	-81.069586	92.353081
41385		9.603173	2.204534	0.404364	-0.923830	-0.547327	-0.010068	-0.706190	0.025377	-0.139365	-0.861572	-0.401611	0.110596	0.096048	0.021992	0.003954	0.254406	0.657566	-0.149290	0.693251	54.609753	-80.995878	92.112391
41386		9.205772	2.046125	0.612512	-0.667517	-0.576099	-0.403620	-0.706482	-0.035854	-0.118102	-0.859131	-0.406006	0.106445	0.092069	0.020428	0.006069	0.257095	0.656901	-0.151372	0.692438	54.578550	-80.953058	91.737585
41387		8.898330	1.968205	0.756185	-0.503146	-0.630600	-0.703620	-0.594492	-0.144997	-0.125044	-0.861328	-0.406006	0.099609	0.088990	0.019649	0.007568	0.259358	0.656756	-0.153178	0.691333	54.947295	-80.942294	91.022837
41388		8.779567	2.224319	0.930373	-0.494121	-0.952843	-0.771565	-0.581703	-0.239879	-0.120790	-0.861328	-0.408203	0.102051	0.087798	0.022217	0.009344	0.261486	0.656945	-0.155081	0.689927	55.592407	-80.964115	90.035568
41389		8.722842	2.290501	1.264023	-0.246452	-1.205219	-0.789449	-0.707191	-0.312119	-0.096025	-0.861328	-0.412598	0.104248	0.087220	0.022908	0.012695	0.263945	0.657179	-0.157642	0.688185	56.340404	-81.018319	88.861542
41390		8.789554	2.196929	1.448690	-0.031989	-1.234465	-0.721125	-0.847813	-0.390457	-0.053167	-0.861328	-0.412598	0.099854	0.087873	0.022008	0.014565	0.266587	0.657463	-0.160876	0.686143	57.172891	-81.115811	87.530568
41391		8.932263	2.285693	1.562393	0.019140	-1.368453	-0.561865	-0.944138	-0.460238	-0.011564	-0.863281	-0.414795	0.102051	0.089288	0.022926	0.015721	0.269406	0.657796	-0.164718	0.683808	58.115506	-81.250889	86.022824
41392		8.872656	2.208995	1.601395	0.103647	-1.366407	-0.631716	-1.018369	-0.533921	0.042006	-0.863281	-0.414795	0.102051	0.088679	0.022191	0.016138	0.272152	0.658230	-0.169033	0.681245	59.187643	-81.430839	84.351574
41393		8.779632	1.332377	2.055141	1.000163	-0.991413	-0.807283	-1.000824	-0.624571	0.098348	-0.861084	-0.416992	0.108887	0.087725	0.013470	0.020758	0.274567	0.658927	-0.173585	0.678452	60.530878	-81.658624	82.417402
41394		13.495373	-4.183233	7.426446	8.721493	0.743727	3.534886	-1.119714	-0.372627	-0.057680	-0.863281	-0.416992	0.104492	0.134803	-0.041454	0.074748	0.278108	0.658717	-0.177680	0.676149	61.300916	-81.733644	80.994312
41395		11.810678	-3.917368	4.696567	6.387807	1.861249	1.703690	-0.363567	-0.359373	0.133345	-0.863281	-0.421387	0.104492	0.118048	-0.039009	0.047249	0.278523	0.659331	-0.179821	0.674813	62.125284	-81.897772	79.954508
41396		12.826351	-1.797362	1.968401	2.985058	1.966495	2.790589	0.407491	-0.366391	0.116499	-0.858887	-0.414551	0.113281	0.128238	-0.017939	0.019882	0.276440	0.661053	-0.179318	0.674118	63.490775	-82.053102	78.814750
41397		11.582908	-0.605580	-1.158201	-0.226593	2.732021	1.516765	0.697856	-0.363105	0.047628	-0.863281	-0.416748	0.122070	0.115851	-0.005988	-0.011393	0.273633	0.663216	-0.177598	0.673593	65.181062	-82.167101	77.515421
41398		10.949751	1.169395	-0.804207	-1.010844	1.008061	1.135974	0.518971	-0.283250	0.002034	-0.867676	-0.418945	0.122070	0.109509	0.011716	-0.007857	0.271636	0.664901	-0.176223	0.673102	66.580805	-82.234350	76.406183
41399		10.538742	2.196747	-0.231154	-1.154741	-0.218797	0.890716	0.180415	-0.226992	-0.075203	-0.858887	-0.421143	0.126709	0.105398	0.021930	-0.002172	0.271076	0.665999	-0.175649	0.672392	67.709471	-82.244414	75.374857
41400		9.977870	1.497563	-0.024529	-0.565563	0.131289	0.260250	0.006822	-0.179991	-0.104754	-0.861084	-0.421143	0.126709	0.099787	0.014923	-0.000155	0.271231	0.666730	-0.175499	0.671643	68.603684	-82.226825	74.479763
41401		9.915135	1.135255	0.009259	-0.303970	0.389844	0.154980	0.023539	-0.126501	-0.130098	-0.863037	-0.425293	0.133301	0.099159	0.011288	0.000157	0.271524	0.667309	-0.175191	0.671030	69.329907	-82.182420	73.753830
41402		9.959959	0.138176	-0.364346	0.012808	1.412838	0.054243	0.143219	-0.081878	-0.164312	-0.865234	-0.427734	0.131104	0.099602	0.001303	-0.003602	0.271509	0.667947	-0.174252	0.670646	69.992260	-82.110126	73.171490
41403		9.629449	0.266949	-0.908766	-0.500151	1.600013	-0.283091	0.335782	-0.018419	-0.158140	-0.860840	-0.429688	0.135742	0.096297	0.002609	-0.009074	0.270888	0.668625	-0.172598	0.670649	70.498611	-82.027561	72.857948
41404		9.733823	0.830435	-1.198134	-1.053987	1.347356	-0.120103	0.409251	0.029925	-0.180680	-0.858643	-0.427490	0.135742	0.097344	0.008241	-0.011979	0.270135	0.669258	-0.170559	0.670843	70.884805	-81.923817	72.708186
41405		9.880227	1.204164	-0.585426	-0.766641	0.719566	0.102256	0.463955	0.076173	-0.184588	-0.854004	-0.431885	0.131348	0.098811	0.011964	-0.005864	0.269252	0.669809	-0.168257	0.671229	71.125508	-81.808782	72.737025
41406		9.846230	1.847896	0.450801	-0.297483	-0.392257	0.203489	0.470282	0.079806	-0.177510	-0.860840	-0.431885	0.140137	0.098480	0.018381	0.004512	0.268323	0.670346	-0.165955	0.671638	71.345081	-81.697370	72.790876
41407		9.932018	2.080044	1.044234	0.064664	-0.896289	0.348732	0.381429	0.080187	-0.154722	-0.856445	-0.429688	0.144531	0.099340	0.020704	0.010442	0.267675	0.670726	-0.164082	0.671978	71.481917	-81.597855	72.866924
41408		9.982143	1.782477	1.009289	0.220923	-0.614555	0.356509	0.263669	0.075467	-0.137504	-0.856201	-0.434082	0.140137	0.099837	0.017743	0.010079	0.267298	0.670962	-0.162612	0.672249	71.547664	-81.509009	72.956637
41409		10.032926	1.192755	1.132403	0.672063	-0.190064	0.330132	0.235231	0.043059	-0.120538	-0.858398	-0.436279	0.146973	0.100339	0.011854	0.011316	0.266936	0.671253	-0.161334	0.672410	71.693445	-81.434799	72.948977
41410		9.958145	1.471126	1.378567	0.719550	-0.555849	0.306728	0.272545	-0.003913	-0.097268	-0.853760	-0.438477	0.144775	0.099588	0.014644	0.013808	0.266328	0.671733	-0.160075	0.672473	72.000897	-81.382107	72.799419
41411		9.812051	2.173675	1.402932	0.343974	-1.150557	0.263389	0.253757	-0.034981	-0.095371	-0.856201	-0.438232	0.151367	0.098128	0.021672	0.014074	0.265755	0.672288	-0.158923	0.672418	72.403107	-81.335278	72.543111
41412		9.711859	2.372594	1.151803	0.035341	-1.178579	0.181598	0.181649	-0.066577	-0.081383	-0.856201	-0.438232	0.149170	0.097124	0.023676	0.011572	0.265349	0.672842	-0.158105	0.672217	72.858815	-81.301690	72.190860
41413		9.666212	2.205502	0.729638	-0.203499	-0.809280	0.093669	0.113804	-0.097132	-0.054760	-0.858154	-0.440674	0.144775	0.096665	0.022024	0.007356	0.265061	0.673386	-0.157642	0.671895	73.352259	-81.286817	71.761088
41414		9.764311	1.977172	0.822688	0.020628	-0.666041	0.161467	0.053634	-0.111638	-0.034716	-0.858398	-0.438477	0.146973	0.097642	0.019753	0.008287	0.264893	0.673884	-0.157471	0.671502	73.841890	-81.285278	71.300283
41415		9.792702	1.530884	0.627030	0.127426	-0.194760	0.116039	0.061857	-0.134991	-0.005895	-0.853760	-0.442627	0.156006	0.097923	0.015304	0.006341	0.264585	0.674448	-0.157397	0.671075	74.389916	-81.302088	70.785180
41416		9.838395	1.347386	0.378853	0.041924	0.093457	0.124238	0.069258	-0.130198	0.010145	-0.851563	-0.440430	0.156006	0.098381	0.013478	0.003857	0.264199	0.674993	-0.157350	0.670690	74.912340	-81.326867	70.300293
41417		9.847327	1.604940	0.279531	-0.173843	-0.067459	0.166743	0.079840	-0.141096	0.030302	-0.858154	-0.442627	0.158203	0.098469	0.016063	0.002871	0.263704	0.675571	-0.157345	0.670304	75.463079	-81.363161	69.792937
41418		9.849223	1.968913	0.435430	-0.240284	-0.461458	0.227368	0.036132	-0.136787	0.021995	-0.851318	-0.447021	0.158203	0.098487	0.019699	0.004425	0.263384	0.676084	-0.157457	0.669885	75.986211	-81.394075	69.288220
41419		9.704070	1.416609	0.342555	-0.000788	0.009213	0.000213	0.016484	-0.146036	0.023703	-0.851563	-0.444824	0.162598	0.097036	0.014177	0.003498	0.263122	0.676599	-0.157649	0.669423	76.533094	-81.425918	68.748137
41420		9.843303	1.505341	0.272687	-0.089303	-0.013464	0.148379	0.030811	-0.143850	0.007855	-0.853760	-0.446777	0.167236	0.098430	0.015057	0.002800	0.262862	0.677140	-0.157739	0.668957	77.098901	-81.448420	68.197259
41421		9.766428	1.091710	0.136250	0.039720	0.380419	0.008066	0.030386	-0.136555	0.010385	-0.851807	-0.437988	0.166992	0.097663	0.010922	0.001431	0.262603	0.677652	-0.157827	0.668520	77.636721	-81.470064	67.674466
41422		9.869778	1.054960	0.063321	0.017845	0.457746	0.102937	0.053870	-0.131214	-0.003932	-0.853760	-0.444580	0.169189	0.098698	0.010547	0.000701	0.262314	0.678188	-0.157784	0.668099	78.183256	-81.482875	67.156491
41423		9.833515	1.148308	-0.028879	-0.100997	0.422760	0.078143	0.061901	-0.118937	-0.018549	-0.853760	-0.442383	0.166992	0.098336	0.011474	-0.000227	0.262060	0.678705	-0.157645	0.667707	78.699456	-81.484823	66.673852
41424		9.791286	1.200841	0.126299	0.006820	0.281891	0.048739	0.054853	-0.112416	-0.039380	-0.853760	-0.442383	0.169189	0.097914	0.011989	0.001321	0.261900	0.679208	-0.157454	0.667303	79.203634	-81.474238	66.199280
41425		9.804368	1.324101	0.125730	-0.049441	0.181298	0.079701	0.072736	-0.106515	-0.059711	-0.855957	-0.446777	0.173828	0.098047	0.013211	0.001314	0.261755	0.679729	-0.157123	0.666908	79.707188	-81.450449	65.735674
41426		9.857961	1.620370	0.192286	-0.144497	-0.090084	0.177956	0.088391	-0.085156	-0.087728	-0.849121	-0.448975	0.173828	0.098586	0.016160	0.001972	0.261664	0.680221	-0.156620	0.666559	80.156624	-81.408658	65.335833
41427		9.749307	0.931668	-0.094581	0.012110	0.620337	-0.038182	0.085410	-0.071747	-0.096637	-0.851318	-0.453369	0.173828	0.097498	0.009270	-0.000907	0.261626	0.680671	-0.156075	0.666242	80.554535	-81.359595	64.986324
41428		9.804112	1.211529	-0.040987	-0.084777	0.373252	0.058664	0.111454	-0.064368	-0.103240	-0.851563	-0.446777	0.171631	0.098047	0.012065	-0.000372	0.261524	0.681136	-0.155415	0.665961	80.941021	-81.306273	64.663425
41429		9.802206	1.206441	0.009643	-0.028011	0.352883	0.057141	0.116551	-0.054920	-0.101875	-0.851318	-0.453369	0.173828	0.098028	0.012014	0.000130	0.261411	0.681574	-0.154726	0.665718	81.289289	-81.252093	64.382090
41430		9.751840	1.305697	-0.035897	-0.112928	0.295145	0.021164	0.139950	-0.044496	-0.100907	-0.846680	-0.455566	0.171875	0.097525	0.013008	-0.000328	0.261219	0.682007	-0.153953	0.665529	81.609631	-81.197807	64.142545
41431		9.869708	1.532752	0.211053	-0.016094	-0.007278	0.177542	0.151665	-0.033847	-0.105763	-0.846924	-0.453369	0.180664	0.098705	0.015274	0.002139	0.261072	0.682409	-0.153167	0.665356	81.895822	-81.139234	63.934306
41432		9.916804	1.856937	0.369214	-0.051167	-0.347635	0.277112	0.134945	-0.019846	-0.113531	-0.846680	-0.455566	0.174072	0.099178	0.018511	0.003714	0.260958	0.682763	-0.152335	0.665229	82.123748	-81.075468	63.785323
41433		9.757932	1.483623	0.358060	0.146416	-0.050926	0.062663	0.107641	-0.019363	-0.112748	-0.851074	-0.459961	0.182861	0.097587	0.014779	0.003598	0.260995	0.683064	-0.151652	0.665062	82.330130	-81.011550	63.632283
41434		9.745610	1.803862	0.278406	-0.087833	-0.262922	0.098492	0.114095	-0.023946	-0.110449	-0.848877	-0.459717	0.182861	0.097466	0.017983	0.002806	0.260939	0.683400	-0.150904	0.664909	82.554181	-80.949672	63.475076
41435		9.757680	1.617654	0.327526	0.066652	-0.129577	0.082522	0.090696	-0.021212	-0.099684	-0.848633	-0.464355	0.180908	0.097584	0.016126	0.003293	0.260931	0.683687	-0.150265	0.664761	82.746527	-80.893145	63.336368
41436		9.776486	1.684464	0.214962	-0.053131	-0.112714	0.109398	0.102099	-0.021797	-0.099557	-0.844238	-0.461914	0.180908	0.097773	0.016795	0.002169	0.260880	0.683992	-0.149592	0.664619	82.946559	-80.837133	63.196477
41437		9.890976	1.612188	0.212159	0.001744	-0.029110	0.211020	0.101192	-0.014214	-0.101297	-0.837646	-0.461914	0.180908	0.098918	0.016071	0.002137	0.260847	0.684270	-0.148903	0.664501	83.116942	-80.779053	63.086056
41438		9.813845	1.624292	0.157630	-0.046837	-0.012802	0.135797	0.107007	-0.014297	-0.107120	-0.844238	-0.466309	0.185303	0.098147	0.016190	0.001592	0.260809	0.684561	-0.148178	0.664378	83.292815	-80.718091	62.973445
41439		9.771244	1.598728	0.155771	-0.028542	0.010369	0.089659	0.098768	-0.010767	-0.105498	-0.844238	-0.466309	0.189697	0.097721	0.015935	0.001571	0.260801	0.684827	-0.147478	0.664263	83.448037	-80.657289	62.876948
41440		9.755713	1.510147	0.159233	0.030629	0.086580	0.060072	0.089637	-0.012111	-0.115634	-0.839600	-0.470703	0.187744	0.097566	0.015044	0.001605	0.260853	0.685094	-0.146778	0.664122	83.606170	-80.591239	62.772189
41441		9.771277	1.437270	0.187568	0.104164	0.141402	0.063948	0.082324	-0.008041	-0.115924	-0.837158	-0.475098	0.185547	0.097721	0.014315	0.001886	0.260936	0.685336	-0.146093	0.663990	83.743346	-80.524250	62.684401
41442		9.759706	1.559096	0.202434	0.057772	0.040128	0.072587	0.078130	-0.007279	-0.119546	-0.841797	-0.475098	0.185547	0.097606	0.015532	0.002034	0.261044	0.685574	-0.145412	0.663852	83.876466	-80.455589	62.598278
41443		9.770998	1.656394	0.252372	0.055989	-0.056536	0.100606	0.070115	-0.006077	-0.122673	-0.837158	-0.479492	0.190186	0.097720	0.016503	0.002532	0.261193	0.685798	-0.144742	0.663709	83.999321	-80.384577	62.517868
41444		9.815377	1.779124	0.195522	-0.045702	-0.109810	0.163834	0.082582	-0.004926	-0.134666	-0.839355	-0.479492	0.194580	0.098166	0.017724	0.001965	0.261337	0.686044	-0.143990	0.663561	84.129291	-80.307098	62.437492
41445		9.751483	1.616793	0.212133	0.061360	0.015709	0.073991	0.075180	-0.003664	-0.145424	-0.837158	-0.479492	0.187988	0.097527	0.016096	0.002129	0.261546	0.686282	-0.143222	0.663399	84.251618	-80.222919	62.360537
41446		9.692383	1.430818	0.140937	0.108459	0.210080	-0.017103	0.070134	-0.009670	-0.152073	-0.839355	-0.479492	0.190186	0.096935	0.014234	0.001419	0.261786	0.686539	-0.142459	0.663203	84.392397	-80.135724	62.261912
41447		9.837103	1.512420	0.155614	0.098720	0.169324	0.139287	0.071949	-0.003215	-0.169962	-0.834717	-0.481445	0.194580	0.098384	0.015040	0.001563	0.262087	0.686788	-0.141616	0.663007	84.515563	-80.037479	62.182181
41448		9.816389	1.613154	0.123085	0.026352	0.114370	0.135433	0.066495	-0.005379	-0.168729	-0.832520	-0.479492	0.185791	0.098177	0.016048	0.001239	0.262398	0.687036	-0.140801	0.662800	84.641403	-79.940477	62.096552
41449		9.820951	1.670436	0.110681	-0.003255	0.088335	0.149533	0.055030	-0.006849	-0.177613	-0.834961	-0.479248	0.196777	0.098224	0.016617	0.001115	0.262837	0.687267	-0.140053	0.662545	84.764827	-79.838011	61.996665
41450		9.783826	1.934555	0.065485	-0.175057	-0.096093	0.158779	0.047556	-0.012163	-0.181463	-0.828125	-0.481445	0.194580	0.097856	0.019257	0.000665	0.263250	0.687521	-0.139266	0.662283	84.900847	-79.734027	61.889612
41451		9.854149	2.196325	0.081317	-0.285120	-0.293976	0.275274	0.027861	-0.003682	-0.195677	-0.825684	-0.490234	0.192627	0.098563	0.021867	0.000818	0.263844	0.687717	-0.138541	0.661995	84.999539	-79.621024	61.798987
41452		9.728614	1.601014	-0.025844	-0.052101	0.249771	0.043514	0.003802	-0.010287	-0.192754	-0.825439	-0.494629	0.197266	0.097302	0.015916	-0.000253	0.264446	0.687914	-0.137858	0.661694	85.103276	-79.510431	61.699193
41453		9.822258	1.727152	0.049984	-0.036659	0.134991	0.159409	-0.007761	-0.012908	-0.191404	-0.825439	-0.494629	0.197266	0.098239	0.017178	0.000506	0.265141	0.688089	-0.137278	0.661353	85.204913	-79.400256	61.584741
41454		9.783332	1.865942	0.087731	-0.071407	0.008845	0.147123	-0.028420	-0.021575	-0.184494	-0.822998	-0.501221	0.190674	0.097850	0.018569	0.000885	0.265818	0.688273	-0.136744	0.661001	85.318166	-79.294848	61.456409
41455		9.714548	2.249584	0.245402	-0.140149	-0.388501	0.153390	-0.052354	-0.029905	-0.202173	-0.818604	-0.501221	0.195068	0.097168	0.022398	0.002463	0.266690	0.688452	-0.136297	0.660555	85.443532	-79.179238	61.291724
41456		9.688202	1.985367	0.165482	-0.053989	-0.116716	0.077396	-0.079212	-0.030957	-0.198841	-0.827393	-0.505615	0.199707	0.096901	0.019758	0.001662	0.267582	0.688608	-0.135893	0.660115	85.553986	-79.065960	61.136513
41457		9.649752	2.189715	0.280530	-0.059062	-0.337717	0.080426	-0.086673	-0.033620	-0.209690	-0.820801	-0.503418	0.199707	0.096520	0.021797	0.002812	0.268594	0.688757	-0.135538	0.659622	85.666645	-78.946092	60.964624
41458		9.544560	1.702817	0.474808	0.369994	-0.046625	-0.112968	-0.084501	-0.026574	-0.221709	-0.813965	-0.507813	0.193115	0.095464	0.016924	0.004754	0.269582	0.688905	-0.135067	0.659160	85.760776	-78.819451	60.822833
41459		9.469322	1.401082	0.436472	0.507727	0.225776	-0.246456	-0.034586	-0.019482	-0.231445	-0.816162	-0.505615	0.190918	0.094709	0.013902	0.004372	0.270495	0.689090	-0.134446	0.658720	85.861388	-78.686450	60.693511
41460		9.566069	1.345752	0.313507	0.458177	0.373736	-0.165442	0.013122	-0.001932	-0.246592	-0.813721	-0.512207	0.197754	0.095677	0.013339	0.003137	0.271244	0.689304	-0.133534	0.658373	85.941162	-78.544491	60.623289
41461		9.579139	1.469312	0.030219	0.169848	0.451650	-0.133493	0.059846	0.022468	-0.265079	-0.811768	-0.507813	0.197510	0.095811	0.014566	0.000296	0.271969	0.689499	-0.132429	0.658093	85.980282	-78.390544	60.611821
41462		9.614027	1.654450	-0.124145	-0.042391	0.414787	-0.065472	0.089418	0.049213	-0.286367	-0.804688	-0.516602	0.193359	0.096164	0.016407	-0.001258	0.272620	0.689672	-0.131059	0.657917	85.967523	-78.223776	60.680656
41463		9.732283	1.864742	-0.251258	-0.237332	0.359899	0.090434	0.109854	0.070647	-0.300494	-0.806885	-0.520752	0.195801	0.097350	0.018503	-0.002537	0.273319	0.689797	-0.129601	0.657784	85.911347	-78.047657	60.795841
41464		9.728432	1.560519	-0.335575	-0.132543	0.682513	0.021272	0.121859	0.098113	-0.320073	-0.802246	-0.523193	0.191406	0.097307	0.015452	-0.003394	0.273999	0.689872	-0.127941	0.657748	85.796446	-77.859574	60.988213
41465		9.744339	1.693406	-0.374917	-0.224339	0.628802	0.062256	0.135629	0.111686	-0.321167	-0.799805	-0.531738	0.196045	0.097468	0.016780	-0.003792	0.274702	0.689907	-0.126270	0.657741	85.657928	-77.669818	61.202939
41466		9.793501	1.926902	-0.133948	-0.131889	0.347164	0.162560	0.134413	0.119731	-0.326747	-0.792969	-0.533936	0.191650	0.097966	0.019110	-0.001385	0.275372	0.689928	-0.124515	0.657774	85.505503	-77.476778	61.441379
41467		9.849038	2.196759	0.023724	-0.127637	0.084278	0.277227	0.123207	0.132241	-0.329985	-0.802002	-0.533936	0.196045	0.098527	0.021805	0.000186	0.276158	0.689879	-0.122825	0.657812	85.320925	-77.280806	61.696350
41468		9.749932	2.386861	0.133336	-0.137427	-0.115886	0.224426	0.099791	0.138950	-0.334813	-0.795166	-0.540527	0.191895	0.097540	0.023705	0.001277	0.276984	0.689789	-0.121129	0.657874	85.114872	-77.081922	61.969809
41469		9.784738	2.563977	0.208539	-0.155004	-0.260059	0.300018	0.086957	0.132790	-0.334167	-0.795166	-0.538330	0.198486	0.097891	0.025475	0.002032	0.277907	0.689687	-0.119543	0.657882	84.923077	-76.883140	62.211289
41470		9.738679	2.821534	0.323418	-0.190326	-0.507157	0.317169	0.054655	0.136292	-0.334926	-0.792969	-0.540527	0.196289	0.097436	0.028051	0.003175	0.278886	0.689538	-0.117997	0.657903	84.711875	-76.683909	62.463913
41471		9.637109	2.363435	0.385405	0.102156	-0.153406	0.115765	0.019224	0.125493	-0.315061	-0.790527	-0.544922	0.198486	0.096411	0.023482	0.003796	0.279973	0.689351	-0.116709	0.657868	84.507805	-76.495997	62.678522
41472		9.663206	2.616871	0.316022	-0.080324	-0.285165	0.199184	-0.011045	0.121211	-0.300257	-0.790527	-0.540527	0.189697	0.096673	0.026024	0.003100	0.281054	0.689135	-0.115520	0.657843	84.299543	-76.316966	62.889788
41473		9.636946	2.754783	0.343499	-0.126754	-0.386338	0.207899	-0.035232	0.120168	-0.292542	-0.788086	-0.551514	0.196533	0.096412	0.027407	0.003372	0.282251	0.688872	-0.114495	0.657785	84.082852	-76.141815	63.085608
41474		9.514779	2.664822	0.359066	-0.073238	-0.316895	0.069386	-0.044798	0.107969	-0.288314	-0.787842	-0.555908	0.192139	0.095188	0.026512	0.003533	0.283399	0.688643	-0.113475	0.657708	83.893352	-75.970029	63.257934
41475		9.472888	2.619233	0.415008	-0.000671	-0.289810	0.020123	-0.050861	0.102844	-0.272555	-0.788086	-0.553711	0.194336	0.094767	0.026064	0.004095	0.284573	0.688400	-0.112595	0.657606	83.711780	-75.806988	63.408613
41476		9.470607	3.002215	0.448479	-0.170295	-0.591677	0.113423	-0.062063	0.101575	-0.258411	-0.776611	-0.558105	0.192383	0.094747	0.029901	0.004427	0.285677	0.688147	-0.111744	0.657537	83.527545	-75.652372	63.565546
41477		9.276332	2.643334	0.380564	-0.054519	-0.280211	-0.163810	-0.075739	0.096184	-0.243371	-0.776611	-0.562500	0.190186	0.092797	0.026322	0.003751	0.286836	0.687872	-0.111054	0.657438	83.346535	-75.506111	63.701147
41478		9.385052	2.659071	0.307965	-0.108044	-0.204611	-0.056094	-0.081253	0.089155	-0.226709	-0.776611	-0.562500	0.183594	0.093882	0.026486	0.003027	0.287895	0.687612	-0.110392	0.657358	83.177201	-75.370131	63.831530
41479		9.500898	2.429477	0.311282	0.032295	0.029784	-0.001248	-0.091320	0.099407	-0.215363	-0.774170	-0.571289	0.183838	0.095037	0.024194	0.003055	0.289016	0.687287	-0.109845	0.657298	82.979138	-75.239341	63.975712
41480		9.604379	2.841097	0.292863	-0.187818	-0.244953	0.202619	-0.103081	0.095523	-0.225326	-0.769531	-0.571289	0.175049	0.096077	0.028304	0.002868	0.290147	0.686972	-0.109250	0.657228	82.789013	-75.103481	64.114825
41481		9.629629	2.567971	0.532480	0.163684	-0.122597	0.165583	-0.145770	0.097219	-0.237114	-0.769531	-0.575684	0.183838	0.096329	0.025569	0.005259	0.291524	0.686584	-0.108810	0.657097	82.576566	-74.960219	64.241797
41482		9.684937	2.471202	0.394112	0.107906	0.070618	0.189486	-0.146970	0.099401	-0.251646	-0.765137	-0.569092	0.183838	0.096882	0.024593	0.003875	0.292894	0.686204	-0.108263	0.656975	82.366749	-74.808866	64.375447
41483		9.649483	2.550195	0.329511	0.009546	0.062195	0.173331	-0.176572	0.113976	-0.248990	-0.764893	-0.580078	0.184082	0.096528	0.025385	0.003218	0.294424	0.685719	-0.107858	0.656864	82.111916	-74.657299	64.528254
41484		9.518655	2.642818	0.342220	-0.044478	-0.021461	0.071840	-0.223351	0.123612	-0.242633	-0.767090	-0.580078	0.179688	0.095221	0.026316	0.003334	0.296037	0.685139	-0.107556	0.656794	81.813433	-74.508816	64.708674
41485		9.378306	2.728650	0.561292	0.073699	-0.214842	-0.032015	-0.268808	0.137460	-0.233738	-0.767090	-0.582275	0.177490	0.093819	0.027184	0.005512	0.297844	0.684429	-0.107471	0.656732	81.462261	-74.363501	64.906861
41486		9.935345	2.796181	0.689656	0.202255	-0.173023	0.528221	-0.275724	0.164587	-0.228172	-0.762451	-0.586670	0.173096	0.099391	0.027858	0.006776	0.299609	0.683624	-0.107329	0.656790	81.056676	-74.219061	65.167622
41487		10.515941	2.463013	-0.017977	-0.149501	0.659548	0.966659	-0.247509	0.210934	-0.229555	-0.758057	-0.586670	0.173096	0.105187	0.024509	-0.000321	0.301366	0.682697	-0.107077	0.656992	80.581217	-74.068607	65.507995
41488		10.274179	2.924946	-0.484990	-0.826738	0.527393	0.835669	-0.278171	0.235903	-0.235196	-0.753174	-0.593262	0.164551	0.102770	0.029122	-0.005012	0.303199	0.681652	-0.106812	0.657277	80.049501	-73.912183	65.898907
41489		10.014077	2.968234	0.003972	-0.485921	0.197115	0.618853	-0.344229	0.248040	-0.255615	-0.751221	-0.591064	0.162354	0.100178	0.029554	-0.000135	0.305388	0.680464	-0.106732	0.657506	79.472362	-73.741535	66.288017
41490		9.899302	2.607651	-0.032092	-0.344892	0.514001	0.405617	-0.400416	0.240430	-0.256673	-0.746338	-0.597656	0.162354	0.099026	0.025949	-0.000492	0.307706	0.679222	-0.106787	0.657701	78.888541	-73.570432	66.660900
41491		10.405377	2.824901	-0.735648	-1.001239	0.910707	0.909302	-0.478541	0.202776	-0.270373	-0.752930	-0.600098	0.151367	0.104084	0.028090	-0.007529	0.310372	0.677976	-0.107166	0.657673	78.345902	-73.394441	66.934472
41492		11.168228	2.188681	0.823024	0.712306	0.781402	1.548600	-0.555373	0.219730	-0.326426	-0.750732	-0.604492	0.145020	0.111727	0.021727	0.008047	0.313429	0.676588	-0.107524	0.657594	77.759086	-73.184663	67.218491
41493		11.063513	1.630381	1.416721	1.492043	0.900133	1.324186	-0.513370	0.211017	-0.363638	-0.743896	-0.606689	0.136230	0.110679	0.016139	0.014009	0.316518	0.675297	-0.107686	0.657415	77.237781	-72.953982	67.449524
41494		11.202506	1.721438	1.549118	1.561298	0.841073	1.488373	-0.444873	0.219446	-0.424635	-0.745850	-0.613281	0.140625	0.112078	0.017011	0.015330	0.319517	0.674122	-0.107347	0.657225	76.776004	-72.687955	67.669643
41495		11.399640	1.561809	1.775054	1.859603	0.945367	1.641120	-0.400166	0.227466	-0.493778	-0.732422	-0.615479	0.134277	0.114055	0.015372	0.017590	0.322653	0.673012	-0.106670	0.656941	76.364654	-72.381532	67.854075
41496		11.577277	1.224041	1.790289	2.090195	1.309460	1.704811	-0.347154	0.245389	-0.561618	-0.736816	-0.619873	0.129883	0.115828	0.011946	0.017740	0.325780	0.671967	-0.105504	0.656656	75.992027	-72.034829	68.040109
41497		11.550367	0.924438	1.663492	2.166743	1.674722	1.568560	-0.258119	0.261329	-0.638013	-0.734375	-0.624268	0.129883	0.115554	0.008897	0.016472	0.328921	0.671035	-0.103819	0.656311	75.685612	-71.642910	68.200488
41498		11.747280	1.315804	1.180799	1.592622	1.793460	1.822199	-0.160066	0.270090	-0.722991	-0.723145	-0.630859	0.123535	0.117535	0.012743	0.011639	0.331954	0.670282	-0.101454	0.655924	75.466779	-71.202557	68.338200
41499		11.950923	1.250965	0.862185	1.420022	2.179889	1.950117	-0.138462	0.297911	-0.813980	-0.718506	-0.633057	0.125732	0.119571	0.012029	0.008435	0.335278	0.669497	-0.098723	0.655451	75.261252	-70.707494	68.465233
41500		11.857554	1.081267	0.681407	1.388305	2.485722	1.768667	-0.111052	0.310869	-0.898563	-0.711670	-0.641846	0.125977	0.118633	0.010283	0.006624	0.338730	0.668754	-0.095537	0.654907	75.095052	-70.163622	68.577713
41501		11.891609	1.618940	0.484413	0.961512	2.315874	1.933670	-0.057184	0.304271	-0.988077	-0.704590	-0.650635	0.117432	0.119001	0.015603	0.004659	0.342340	0.668140	-0.091943	0.654171	75.011486	-69.571158	68.625357
41502		11.809123	1.552099	0.213622	0.811391	2.614523	1.781037	-0.080340	0.317893	-1.079041	-0.697754	-0.652832	0.108643	0.118176	0.014884	0.001942	0.346263	0.667474	-0.088036	0.653322	74.935092	-68.926242	68.661478
41503		11.823891	0.603899	0.599591	1.715237	3.227160	1.464293	-0.056916	0.299356	-1.174035	-0.686279	-0.666016	0.113525	0.118280	0.005346	0.005817	0.350456	0.666919	-0.083824	0.652206	74.935865	-68.231729	68.619174
41504		11.810271	1.256774	1.246448	1.924508	2.496279	1.705928	0.048256	0.257654	-1.261138	-0.677246	-0.670166	0.113525	0.118195	0.011820	0.012315	0.354494	0.666704	-0.078989	0.650846	75.082769	-67.494965	68.494118
41505		11.856135	2.031776	1.801034	2.008960	1.761742	2.053141	0.037721	0.262711	-1.322234	-0.667969	-0.678955	0.111572	0.118716	0.019530	0.017858	0.358807	0.666441	-0.074034	0.649332	75.228815	-66.723895	68.352615
41506		11.612224	2.540828	1.954278	1.882234	1.357241	2.008122	-0.000876	0.238440	-1.372250	-0.667969	-0.683594	0.103027	0.116316	0.024611	0.019404	0.363331	0.666183	-0.069015	0.647632	75.391500	-65.928104	68.178166
41507		11.419587	2.217773	1.247561	1.534647	2.067639	1.599999	-0.082304	0.201447	-1.386255	-0.658447	-0.696533	0.105469	0.114358	0.021391	0.012352	0.368194	0.665862	-0.064340	0.645694	75.545501	-65.130183	67.950724
41508		11.483807	3.137545	0.794464	0.739548	1.832553	1.953604	-0.116865	0.129072	-1.421988	-0.642822	-0.700928	0.099121	0.115062	0.030562	0.007852	0.373192	0.665697	-0.059725	0.643435	75.763725	-64.321900	67.639136
41509		11.551141	2.846800	1.175163	1.307134	1.993764	1.901747	-0.226691	0.111263	-1.452026	-0.635742	-0.711914	0.103760	0.115721	0.027642	0.011656	0.378681	0.665351	-0.055457	0.640963	75.931361	-63.499615	67.301459
41510		10.526714	3.463437	1.276404	0.950534	1.217847	1.234827	-0.222330	0.071849	-1.440098	-0.620117	-0.714111	0.092773	0.105518	0.033889	0.012688	0.384032	0.665108	-0.051223	0.638379	76.126766	-62.688325	66.943322
41511		10.117605	3.409833	0.653182	0.481393	1.572158	0.756809	-0.202638	0.064993	-1.409549	-0.615479	-0.720459	0.097412	0.101415	0.033391	0.006465	0.389250	0.664876	-0.047101	0.635772	76.316006	-61.895174	66.592056
41512		9.311957	3.233864	0.441888	0.332839	1.586675	-0.079452	-0.095512	0.059535	-1.360376	-0.606445	-0.722656	0.095215	0.093338	0.031706	0.004376	0.393883	0.664832	-0.042748	0.633267	76.545742	-61.128826	66.272300
41513		8.692767	3.884210	0.394124	-0.111720	0.999302	-0.336707	0.157771	0.011174	-1.322310	-0.597168	-0.738037	0.093506	0.087182	0.038263	0.003967	0.397577	0.665397	-0.037876	0.630670	76.943040	-60.390069	65.914263
41514		8.852233	4.752944	0.836613	-0.115434	0.322021	0.263717	0.405541	0.012637	-1.281860	-0.585938	-0.739990	0.100342	0.088825	0.046944	0.008456	0.400250	0.666417	-0.032289	0.628208	77.453645	-59.671570	65.597023
41515		8.830407	4.703647	1.205666	0.297049	0.229157	0.257658	0.466608	0.055631	-1.237223	-0.576660	-0.748779	0.102783	0.088596	0.046461	0.012141	0.402619	0.667384	-0.026636	0.625929	77.930716	-58.972331	65.346916
41516		8.048788	4.496399	0.707774	-0.079904	0.374331	-0.573966	0.527818	0.062358	-1.165069	-0.565430	-0.755371	0.104980	0.080750	0.044475	0.007170	0.404490	0.668419	-0.020953	0.623830	78.408312	-58.310905	65.145779
41517		7.642712	4.374097	0.369108	-0.303086	0.528292	-1.020179	0.640681	0.054132	-1.092904	-0.561035	-0.755127	0.116211	0.076666	0.043310	0.003810	0.405793	0.669671	-0.015240	0.621805	78.930899	-57.690938	64.956209
41518		7.232503	4.754001	0.331906	-0.548572	0.158166	-1.170173	0.742056	0.044338	-1.030036	-0.549805	-0.754883	0.122803	0.072569	0.047154	0.003478	0.406492	0.671130	-0.009377	0.619888	79.497482	-57.105648	64.792405
41519		6.848829	5.033164	0.520158	-0.549034	-0.267423	-1.319390	0.752554	0.050349	-0.969242	-0.549561	-0.765869	0.123047	0.068732	0.049979	0.005373	0.407003	0.672561	-0.003737	0.618059	80.043265	-56.554080	64.649356
41520		6.522021	5.216291	0.720906	-0.478082	-0.614069	-1.466437	0.728913	0.044603	-0.897389	-0.538330	-0.763672	0.125244	0.065455	0.051843	0.007384	0.407306	0.673938	0.001641	0.616366	80.560545	-56.042109	64.533693
41521		6.170675	5.332920	0.885797	-0.413975	-0.915427	-1.670697	0.670075	0.041300	-0.808909	-0.533936	-0.767822	0.132080	0.061924	0.053049	0.009023	0.407572	0.675185	0.006468	0.614792	81.026256	-55.580799	64.428736
41522		5.864704	5.472980	0.966500	-0.426943	-1.170815	-1.829649	0.626650	0.046829	-0.708475	-0.527344	-0.763428	0.132080	0.058843	0.054491	0.009822	0.407615	0.676313	0.010898	0.613459	81.443868	-55.174632	64.361717
41523		5.322712	4.154331	1.613815	0.669853	-0.885220	-2.959833	0.454216	0.107954	-0.570590	-0.524902	-0.767822	0.140869	0.053354	0.041354	0.016203	0.407858	0.676898	0.014393	0.612580	81.692073	-54.842045	64.370366
41524		4.608997	3.564476	1.273580	0.520727	-0.655946	-3.907703	0.482535	0.098294	-0.407707	-0.527344	-0.763184	0.145264	0.046169	0.035520	0.012799	0.407451	0.677574	0.017468	0.612023	81.944017	-54.601888	64.404595
41525		4.881103	2.660557	0.741400	0.592457	0.383951	-4.248970	0.584164	0.065048	-0.211831	-0.524902	-0.769775	0.147705	0.048842	0.026532	0.007476	0.406150	0.678569	0.020058	0.611705	82.257034	-54.476367	64.425157
41526		4.953394	1.343748	0.212624	0.793622	1.582369	-4.990525	0.629406	0.038985	0.058926	-0.522949	-0.763184	0.154053	0.049530	0.013445	0.002159	0.403816	0.679756	0.021879	0.611871	82.587615	-54.505939	64.466258
41527		5.032141	0.123759	-0.264456	0.973207	2.685066	-5.659260	0.557449	0.027916	0.324196	-0.529541	-0.763184	0.158447	0.050319	0.001327	-0.002648	0.400961	0.680854	0.022490	0.612504	82.858281	-54.688018	64.519964
41528		5.067970	-0.389130	-0.422831	1.070037	3.118543	-5.921137	0.553542	0.058449	0.570834	-0.529785	-0.756592	0.162842	0.050689	-0.003735	-0.004254	0.397306	0.681869	0.022376	0.613760	83.078647	-55.007547	64.642522
41529		5.318659	-0.119081	-0.286648	1.104522	2.971242	-5.530622	0.537842	0.068597	0.784010	-0.541260	-0.745605	0.164551	0.053190	-0.000975	-0.002888	0.393091	0.682833	0.021441	0.615433	83.260450	-55.448882	64.790250
41530		5.628734	0.483653	-0.143022	1.003658	2.607273	-4.900299	0.497010	0.058967	0.974281	-0.547852	-0.747803	0.164795	0.056262	0.005114	-0.001434	0.388371	0.683748	0.019777	0.617467	83.408295	-55.998417	64.960082
41531		5.938329	1.016872	-0.077576	0.862851	2.311064	-4.315609	0.427449	0.043837	1.148023	-0.559326	-0.739014	0.164551	0.059323	0.010511	-0.000767	0.383390	0.684569	0.017206	0.619742	83.510260	-56.649181	65.125703
41532		6.320570	1.434373	0.064220	0.849288	2.073420	-3.730732	0.342690	0.035484	1.321374	-0.575195	-0.732422	0.173096	0.063109	0.014760	0.000656	0.378098	0.685239	0.013831	0.622333	83.551584	-57.398160	65.314568
41533		6.652587	1.914174	0.313025	0.878648	1.691224	-3.150418	0.215352	0.028478	1.477439	-0.588867	-0.721680	0.170654	0.066383	0.019629	0.003142	0.372786	0.685666	0.009442	0.625143	83.504756	-58.237695	65.509466
41534		7.085475	2.172353	0.490337	0.955935	1.531271	-2.608265	0.085112	0.022007	1.620790	-0.604980	-0.702148	0.165527	0.070676	0.022295	0.004905	0.367402	0.685835	0.004210	0.628195	83.366185	-59.157814	65.732709
41535		7.483416	2.208716	0.631022	1.080446	1.513626	-2.208864	-0.016075	0.025003	1.761834	-0.616455	-0.695557	0.172119	0.074637	0.022746	0.006299	0.361889	0.685761	-0.001827	0.631478	83.137444	-60.158963	65.990777
41536		7.847121	2.181065	0.755539	1.200268	1.517134	-1.865304	-0.082013	0.016968	1.877590	-0.632324	-0.682373	0.169434	0.078262	0.022549	0.007540	0.356213	0.685537	-0.008475	0.634886	82.847709	-61.224548	66.273058
41537		8.283304	2.331383	0.879371	1.239011	1.400704	-1.367440	-0.095256	0.004076	1.980143	-0.645996	-0.673828	0.164795	0.082597	0.024137	0.008781	0.350216	0.685260	-0.015548	0.638377	82.527391	-62.350049	66.578224
41538		8.764814	2.577100	0.996982	1.222342	1.211592	-0.785376	-0.123269	-0.000172	2.048568	-0.666504	-0.658691	0.164307	0.087378	0.026673	0.009954	0.344068	0.684875	-0.022941	0.641902	82.159675	-63.512401	66.915673
41539		9.125189	2.702820	1.075384	1.192798	1.060996	-0.369229	-0.155652	0.000134	2.097764	-0.677979	-0.645508	0.159424	0.090962	0.027992	0.010732	0.337828	0.684351	-0.030613	0.645444	81.731516	-64.703071	67.295972
41540		9.569272	2.824973	1.047496	1.074884	0.981442	0.113350	-0.170857	0.006177	2.139685	-0.694336	-0.628174	0.154541	0.095383	0.029280	0.010447	0.331475	0.683701	-0.038455	0.648998	81.240588	-65.914089	67.732288
41541		9.991545	3.134158	0.981596	0.817264	0.747031	0.646143	-0.191708	0.002286	2.163402	-0.710205	-0.612793	0.160645	0.099569	0.032429	0.009784	0.325127	0.682938	-0.046517	0.652475	80.688072	-67.138762	68.208309
41542		10.441888	3.512455	1.018551	0.603668	0.396347	1.227304	-0.256553	0.005389	2.178413	-0.728516	-0.597656	0.149170	0.104028	0.036272	0.010137	0.318864	0.681981	-0.054761	0.655919	80.032806	-68.367923	68.761111
41543		10.868449	3.740030	0.960689	0.363505	0.185220	1.713899	-0.319395	0.007722	2.168787	-0.742432	-0.584717	0.151123	0.108271	0.038591	0.009542	0.312801	0.680834	-0.063179	0.659264	79.266680	-69.590351	69.389143
41544		11.220550	3.855649	0.915051	0.168225	0.020143	2.085627	-0.339319	0.026921	2.137411	-0.754150	-0.567139	0.148438	0.111786	0.039768	0.009069	0.306887	0.679525	-0.071507	0.662536	78.382455	-70.788033	70.125927
41545		11.476539	4.078481	0.843136	-0.122381	-0.253856	2.392678	-0.339843	0.036006	2.077576	-0.768066	-0.547607	0.147949	0.114335	0.041988	0.008340	0.301191	0.678119	-0.079682	0.665650	77.397118	-71.948484	70.953551
41546		11.716801	4.208189	0.804196	-0.342639	-0.476307	2.648830	-0.321845	0.043488	2.005791	-0.777588	-0.527832	0.145020	0.116740	0.043267	0.007948	0.295594	0.676680	-0.087464	0.668639	76.319022	-73.061309	71.894117
41547		11.861081	4.358950	0.746239	-0.599535	-0.731551	2.810424	-0.298037	0.051510	1.917650	-0.795654	-0.514893	0.144775	0.118187	0.044735	0.007366	0.290177	0.675219	-0.094858	0.671475	75.142340	-74.119845	72.945994
41548		11.919947	4.482117	0.789986	-0.759770	-1.033621	2.881736	-0.269579	0.060170	1.825908	-0.800781	-0.499512	0.137695	0.118786	0.045917	0.007803	0.284959	0.673756	-0.101815	0.674155	73.864658	-75.118256	74.114434
41549		11.873169	4.571572	0.778459	-0.952349	-1.296089	2.831936	-0.249698	0.074378	1.721260	-0.816895	-0.479980	0.132813	0.118335	0.046745	0.007683	0.280003	0.672270	-0.108334	0.676695	72.463508	-76.050880	75.416643
41550		11.800874	4.765841	0.807116	-1.159971	-1.657705	2.778112	-0.220974	0.087262	1.609360	-0.814941	-0.466797	0.130127	0.117624	0.048615	0.007966	0.275324	0.670796	-0.114344	0.679084	70.950937	-76.910324	76.845569
41551		11.640366	4.872276	0.663858	-1.463174	-1.861919	2.599696	-0.209729	0.089007	1.488321	-0.826660	-0.451660	0.120850	0.116040	0.049594	0.006535	0.270995	0.669357	-0.119910	0.681282	69.345572	-77.696132	78.371226
41552		11.417205	4.776203	0.639624	-1.549359	-1.957367	2.325664	-0.211018	0.081156	1.367337	-0.837891	-0.445068	0.127197	0.113845	0.048548	0.006299	0.267070	0.667984	-0.125070	0.683249	67.681019	-78.407880	79.952512
41553		11.169942	4.659606	0.500566	-1.709965	-1.962296	2.017510	-0.191096	0.078218	1.246870	-0.840332	-0.438477	0.125000	0.111408	0.047296	0.004917	0.263471	0.666690	-0.129767	0.685031	65.968568	-79.048055	81.590248
41554		10.996038	4.702056	0.436854	-1.875865	-2.108491	1.816882	-0.148648	0.056828	1.129962	-0.843262	-0.418701	0.124512	0.109694	0.047644	0.004302	0.260114	0.665580	-0.133944	0.686588	64.299568	-79.621723	83.205371
41555		10.780917	4.694528	0.247546	-2.108318	-2.140394	1.558354	-0.117820	0.029517	1.000186	-0.845703	-0.412354	0.117676	0.107573	0.047485	0.002432	0.257068	0.664670	-0.137622	0.687888	62.732060	-80.128143	84.732376
41556		10.681963	4.695502	0.172859	-2.231715	-2.206055	1.427147	-0.077048	-0.010107	0.858563	-0.852539	-0.410156	0.115234	0.106617	0.047414	0.001716	0.254347	0.664033	-0.140730	0.688885	61.383124	-80.565515	86.059360
41557		10.509937	4.486828	0.137339	-2.196768	-2.118077	1.200788	-0.034525	-0.043054	0.731433	-0.857178	-0.399170	0.121582	0.104934	0.045252	0.001388	0.251950	0.663629	-0.143373	0.689610	60.257906	-80.944422	87.172651
41558		10.460977	3.993131	0.273806	-1.849213	-1.854622	1.077330	0.040273	-0.070010	0.622642	-0.854980	-0.396973	0.121582	0.104484	0.040256	0.002783	0.249603	0.663496	-0.145366	0.690174	59.377935	-81.273153	88.090133
41559		10.326969	3.580191	0.589005	-1.383775	-1.757129	0.902179	0.123532	-0.087777	0.516062	-0.859863	-0.383789	0.121338	0.103174	0.036065	0.005958	0.247328	0.663598	-0.146743	0.690603	58.746851	-81.553547	88.803285
41560		10.159481	3.211896	0.936793	-0.905099	-1.708628	0.707299	0.205002	-0.096191	0.424068	-0.862061	-0.383789	0.121338	0.101522	0.032325	0.009450	0.245097	0.663896	-0.147539	0.690943	58.342372	-81.789810	89.334236
41561		9.740971	2.976311	1.043846	-0.693480	-1.669055	0.265397	0.283663	-0.096186	0.342883	-0.860107	-0.381592	0.123535	0.097353	0.029915	0.010528	0.242880	0.664344	-0.147796	0.691240	58.128488	-81.986705	89.717798
41562		9.496439	2.796413	0.991280	-0.640782	-1.557986	-0.007234	0.351333	-0.087269	0.279483	-0.860352	-0.375000	0.129883	0.094921	0.028079	0.010003	0.240666	0.664888	-0.147593	0.691534	58.050932	-82.149325	90.002796
41563		9.307453	2.795278	0.960342	-0.660660	-1.595010	-0.201032	0.403037	-0.090329	0.233984	-0.860107	-0.379395	0.134521	0.093037	0.028042	0.009702	0.238432	0.665534	-0.147067	0.691799	58.105967	-82.291241	90.183675
41564		9.113661	2.714360	1.002904	-0.573567	-1.600024	-0.402944	0.406099	-0.085554	0.213292	-0.860352	-0.372803	0.134277	0.091103	0.027220	0.010123	0.236264	0.666180	-0.146451	0.692052	58.193178	-82.421169	90.333892
41565		8.948019	2.475065	1.149598	-0.316095	-1.518011	-0.587166	0.379923	-0.066663	0.213395	-0.860352	-0.368408	0.134033	0.089450	0.024824	0.011573	0.234192	0.666724	-0.145906	0.692347	58.190785	-82.545868	90.559239
41566		8.844495	2.175785	1.099099	-0.199029	-1.272253	-0.729247	0.370399	-0.049686	0.214403	-0.858154	-0.370605	0.132080	0.088419	0.021832	0.011053	0.232163	0.667196	-0.145374	0.692688	58.115416	-82.665494	90.852687
41567		8.772670	1.727651	1.096299	0.032092	-0.918942	-0.851612	0.391187	-0.045309	0.232804	-0.862793	-0.365967	0.138428	0.087704	0.017357	0.011017	0.230061	0.667646	-0.144886	0.693058	57.982013	-82.792999	91.206493
41568		8.748359	1.337788	0.890061	0.053440	-0.505157	-0.932508	0.373252	-0.014030	0.264329	-0.863037	-0.357422	0.133789	0.087465	0.013477	0.008932	0.227873	0.667955	-0.144467	0.693570	57.632411	-82.925719	91.777799
41569		8.739635	1.080991	0.707236	0.019674	-0.216228	-0.980770	0.346794	0.016261	0.311492	-0.867432	-0.357422	0.138184	0.087380	0.010934	0.007084	0.225629	0.668089	-0.144266	0.694216	57.006331	-83.071486	92.612145
41570		8.618798	1.864661	-0.447159	-1.381500	-0.350611	-1.098961	0.375709	-0.009869	0.360627	-0.861084	-0.348389	0.142578	0.086154	0.018810	-0.004432	0.223099	0.668309	-0.144154	0.694846	56.341939	-83.247572	93.501549
41571		9.482485	8.307436	-4.479631	-8.088610	-3.841427	0.127873	0.824703	-0.341720	0.267760	-0.865479	-0.350586	0.151367	0.094789	0.083385	-0.044291	0.219147	0.670238	-0.142542	0.694577	57.530788	-83.483540	92.783770
41572		10.645086	9.726362	-0.492129	-5.294034	-6.958084	1.664261	0.142873	-0.148189	0.045146	-0.861084	-0.348389	0.142578	0.106432	0.097291	-0.004773	0.218390	0.670900	-0.142336	0.694218	58.152726	-83.550900	92.243655
41573		12.138271	15.057053	2.233180	-5.551780	-12.715668	3.844859	-0.168278	-0.026821	-0.404396	-0.863037	-0.354980	0.149170	0.121684	0.150343	0.022222	0.220324	0.671120	-0.141569	0.693552	59.249092	-83.361095	91.046500
41574		10.726527	12.565420	0.797674	-5.565250	-9.941497	2.178041	-0.404133	0.091676	-0.734144	-0.863037	-0.361572	0.145020	0.107729	0.125275	0.007674	0.224273	0.670894	-0.140381	0.692745	60.429505	-82.971155	89.627882
41575		8.558394	4.724758	0.793808	-1.682157	-3.370149	-0.756675	-1.014402	0.258381	-0.627353	-0.860352	-0.370361	0.138672	0.085742	0.047018	0.007589	0.230015	0.669314	-0.141470	0.692169	60.265386	-82.585025	89.210984
41576		7.938452	0.080400	1.365001	1.140047	0.284012	-1.843482	-1.469381	0.385337	-0.473611	-0.855713	-0.377197	0.123291	0.079412	0.000715	0.013492	0.236821	0.666629	-0.144499	0.691839	59.047249	-82.239482	89.593992
41577		7.711556	-1.199952	0.350775	0.933927	1.886529	-2.289405	-1.119488	0.277594	-0.330215	-0.860107	-0.381592	0.118896	0.077100	-0.012107	0.003468	0.241941	0.664582	-0.146970	0.691517	58.164020	-81.994622	89.831651
41578		8.111660	-0.082908	0.122254	0.152013	1.145972	-1.782466	-0.610209	0.127240	-0.252109	-0.859863	-0.383789	0.119141	0.081116	-0.000928	0.001174	0.244917	0.663610	-0.148064	0.691169	57.940591	-81.833735	89.707638
41579		9.406146	1.424171	0.208327	-0.576583	0.046264	-0.314655	-0.365042	0.024751	-0.235993	-0.857666	-0.385986	0.119141	0.094078	0.014134	0.002046	0.247011	0.663263	-0.148543	0.690654	58.168667	-81.711101	89.259401
41580		10.031919	1.789157	0.377136	-0.622866	-0.238215	0.362674	-0.361611	-0.035157	-0.192243	-0.855225	-0.390381	0.114746	0.100336	0.017802	0.003757	0.248832	0.663103	-0.149174	0.690017	58.496507	-81.628172	88.722120
41581		10.378324	1.890152	0.479236	-0.582982	-0.312954	0.726484	-0.516526	-0.097668	-0.136795	-0.857422	-0.392578	0.119385	0.103794	0.018843	0.004794	0.250991	0.662910	-0.150654	0.689099	58.826319	-81.589899	88.083136
41582		9.964563	2.143276	0.903640	-0.361177	-0.806336	0.381531	-0.645627	-0.163292	-0.106191	-0.855225	-0.392578	0.112549	0.099650	0.021409	0.009049	0.253357	0.662763	-0.152708	0.687921	59.233446	-81.586085	87.301094
41583		9.116217	2.386536	1.664050	0.137175	-1.547053	-0.370345	-0.735815	-0.236332	-0.105693	-0.857422	-0.392578	0.121582	0.091155	0.023878	0.016660	0.256026	0.662732	-0.155217	0.686400	59.834843	-81.602027	86.260547
41584		8.856222	1.985956	1.843848	0.511960	-1.364411	-0.666501	-0.802085	-0.320466	-0.089186	-0.855225	-0.394775	0.117188	0.088541	0.019894	0.018501	0.258723	0.662893	-0.158061	0.684582	60.653356	-81.648945	84.972152
41585		9.205374	1.385265	1.829806	0.854161	-0.833941	-0.400942	-0.858646	-0.391379	-0.052900	-0.861572	-0.401367	0.119385	0.092021	0.013907	0.018419	0.261427	0.663182	-0.161302	0.682516	61.631353	-81.729944	83.490129
41586		9.698292	1.110178	1.765449	0.982346	-0.530005	0.044298	-0.883837	-0.413618	-0.025095	-0.861816	-0.399170	0.119385	0.096948	0.011168	0.017806	0.264091	0.663475	-0.164751	0.680378	62.645018	-81.828047	81.957734
41587		9.815564	1.099308	2.011478	1.209857	-0.677684	0.171134	-0.812387	-0.439534	0.003345	-0.857178	-0.401367	0.121826	0.098111	0.011077	0.020286	0.266399	0.663913	-0.168077	0.678234	63.775285	-81.942441	80.349389
41588		9.879859	0.913215	2.219670	1.509622	-0.677430	0.218986	-0.687961	-0.471089	0.021410	-0.857178	-0.403564	0.124023	0.098745	0.009220	0.022398	0.268196	0.664596	-0.171086	0.676102	65.101331	-82.069923	78.615744
41589		11.919268	-0.661356	3.408670	3.483117	0.113201	2.102856	-0.635370	-0.426405	-0.063340	-0.859131	-0.407959	0.117432	0.119118	-0.006542	0.034362	0.270144	0.665259	-0.173566	0.674038	66.475774	-82.136033	76.864119
41590		11.263683	-2.111708	2.286909	3.460765	1.802204	1.202519	-0.384873	-0.360174	-0.017163	-0.856934	-0.410156	0.124268	0.112594	-0.021082	0.023112	0.271152	0.665991	-0.175270	0.672468	67.689962	-82.207144	75.419368
41591		11.460002	-0.598505	0.641920	1.280512	1.583495	1.499015	-0.086166	-0.346917	-0.034518	-0.859131	-0.412354	0.124268	0.114588	-0.006002	0.006621	0.271297	0.667078	-0.175947	0.671154	69.072421	-82.260976	73.967746
41592		10.757396	-0.204376	-0.914298	-0.194033	2.096098	0.778249	0.048470	-0.275353	-0.098404	-0.859131	-0.410156	0.128662	0.107585	-0.002095	-0.008995	0.271207	0.668179	-0.175808	0.670131	70.357561	-82.262460	72.702269
41593		10.218081	0.672994	-1.019763	-0.795939	1.390392	0.352707	0.116632	-0.214609	-0.153476	-0.856934	-0.412354	0.128662	0.102197	0.006657	-0.010084	0.271189	0.669199	-0.175228	0.669272	71.511168	-82.218483	71.598894
41594		9.853025	1.438584	-0.447687	-0.784585	0.397107	0.115995	0.100198	-0.157764	-0.190611	-0.863525	-0.416748	0.130859	0.098547	0.014294	-0.004392	0.271337	0.670054	-0.174447	0.668560	72.464577	-82.142132	70.697933
41595		9.452839	1.220247	-0.195549	-0.446947	0.374534	-0.297261	0.122613	-0.108544	-0.204410	-0.856934	-0.412109	0.135254	0.094542	0.012107	-0.001897	0.271560	0.670770	-0.173533	0.667989	73.234427	-82.047475	69.985080
41596		9.452801	0.776720	-0.232063	-0.192075	0.757617	-0.357441	0.226096	-0.060691	-0.217412	-0.854492	-0.416504	0.133057	0.094537	0.007667	-0.002283	0.271458	0.671492	-0.172109	0.667673	73.875294	-81.937329	69.472171
41597		9.577993	0.653426	-0.432599	-0.257351	1.003413	-0.258685	0.325044	-0.012937	-0.210122	-0.854492	-0.418701	0.135498	0.095787	0.006441	-0.004309	0.271044	0.672180	-0.170311	0.667610	74.364801	-81.822442	69.169289
41598		9.557708	1.087519	-0.508785	-0.563142	0.712921	-0.222800	0.402492	0.022741	-0.188603	-0.852051	-0.425293	0.142334	0.095587	0.010795	-0.005077	0.270323	0.672834	-0.168281	0.667759	74.730567	-81.714248	69.036179
41599		9.718778	1.378704	-0.359949	-0.595027	0.427780	-0.017384	0.444205	0.074112	-0.185102	-0.854248	-0.423096	0.144287	0.097199	0.013705	-0.003605	0.269553	0.673350	-0.166108	0.668093	74.917057	-81.599662	69.098392
41600		9.774247	1.422772	-0.233154	-0.507287	0.339676	0.048439	0.472606	0.102592	-0.158223	-0.854248	-0.422852	0.151123	0.097752	0.014156	-0.002348	0.268559	0.673799	-0.163836	0.668602	74.986623	-81.496266	69.305271
41601		9.937286	1.809488	-0.044598	-0.563957	-0.044449	0.272244	0.483642	0.122787	-0.129372	-0.854248	-0.427490	0.144531	0.099384	0.018032	-0.000463	0.267448	0.674166	-0.161593	0.669223	74.961494	-81.405327	69.614376
41602		10.069214	2.372187	0.501771	-0.430553	-0.781833	0.505813	0.436512	0.140713	-0.095078	-0.854248	-0.425049	0.148926	0.100707	0.023663	0.004999	0.266392	0.674379	-0.159602	0.669908	74.814422	-81.331132	70.019556
41603		10.195794	2.334405	1.004881	0.012134	-1.011004	0.646335	0.352163	0.130370	-0.041245	-0.858398	-0.433838	0.151367	0.101969	0.023305	0.010023	0.265433	0.674467	-0.158084	0.670558	74.607376	-81.287515	70.436604
41604		10.251872	1.813819	1.158161	0.436941	-0.661679	0.632571	0.273910	0.095886	-0.002494	-0.854248	-0.425049	0.151123	0.102524	0.018121	0.011557	0.264577	0.674535	-0.157008	0.671081	74.443463	-81.270913	70.764664
41605		10.258093	1.839430	1.209009	0.463611	-0.708087	0.644720	0.239286	0.046531	0.043496	-0.854248	-0.422852	0.151123	0.102580	0.018402	0.012088	0.263648	0.674685	-0.156265	0.671469	74.391126	-81.286608	70.959796
41606		10.392394	2.635044	1.446164	0.216886	-1.472269	0.902819	0.158782	0.001906	0.052324	-0.858643	-0.427246	0.151123	0.103917	0.026366	0.014482	0.262922	0.674872	-0.155884	0.671655	74.444483	-81.314631	71.001308
41607		10.112728	2.219401	1.445797	0.438312	-1.180388	0.565072	0.030460	-0.032878	0.068224	-0.860840	-0.431641	0.153564	0.101117	0.022226	0.014478	0.262552	0.674993	-0.156029	0.671644	74.533933	-81.356133	70.931952
41608		9.974475	1.776628	1.102872	0.398849	-0.655999	0.349668	-0.032207	-0.073599	0.083198	-0.856445	-0.427246	0.153320	0.099733	0.017810	0.011063	0.262308	0.675158	-0.156493	0.671466	74.722498	-81.412704	70.726027
41609		9.876848	1.298498	0.842877	0.450723	-0.147030	0.173497	-0.053890	-0.102468	0.108619	-0.861084	-0.425049	0.159912	0.098757	0.013041	0.008476	0.262033	0.675370	-0.157149	0.671207	74.981797	-81.486861	70.436056
41610		9.909550	1.139243	0.433098	0.206784	0.202133	0.167342	-0.042409	-0.125947	0.132898	-0.861084	-0.422852	0.157715	0.099085	0.011459	0.004391	0.261615	0.675657	-0.157883	0.670909	75.317305	-81.578360	70.075738
41611		9.914239	1.378369	0.302677	-0.032879	0.063544	0.201228	-0.049027	-0.129727	0.146291	-0.861084	-0.425049	0.155518	0.099130	0.013857	0.003088	0.261175	0.675936	-0.158685	0.670610	75.657003	-81.676856	69.707448
41612		9.873601	1.585729	0.244935	-0.197301	-0.096713	0.188023	-0.061906	-0.129581	0.138138	-0.858643	-0.425049	0.151123	0.098723	0.015926	0.002508	0.260802	0.676204	-0.159507	0.670289	76.005986	-81.771139	69.322402
41613		9.786265	1.255239	0.186768	-0.060245	0.175749	0.053769	-0.059626	-0.121807	0.127633	-0.858887	-0.425049	0.159912	0.097853	0.012615	0.001924	0.260525	0.676442	-0.160330	0.669960	76.343398	-81.857519	68.940462
41614		9.741631	1.403322	0.050968	-0.254342	0.110545	0.025724	0.001727	-0.123736	0.099536	-0.865479	-0.420654	0.159668	0.097409	0.014082	0.000570	0.260070	0.676804	-0.160800	0.669659	76.758431	-81.928809	68.525689
41615		9.646189	0.931084	0.056334	0.017845	0.465281	-0.132696	0.034727	-0.115044	0.075008	-0.858887	-0.425049	0.159912	0.096458	0.009347	0.000620	0.259597	0.677197	-0.161061	0.669382	77.186440	-81.984200	68.116982
41616		9.604289	0.789516	-0.065598	0.002348	0.632083	-0.196531	0.086470	-0.126001	0.053625	-0.854248	-0.425049	0.164307	0.096041	0.007921	-0.000592	0.259007	0.677712	-0.161095	0.669081	77.713577	-82.029169	67.638151
41617		9.820042	1.004433	-0.012704	-0.055561	0.445167	0.048398	0.096145	-0.107006	0.016756	-0.863281	-0.422852	0.164307	0.098200	0.010053	-0.000070	0.258526	0.678205	-0.160943	0.668805	78.205490	-82.049996	67.200532
41618		9.862574	0.850922	-0.062868	0.001278	0.597519	0.068676	0.106881	-0.094403	-0.010993	-0.863037	-0.429443	0.168945	0.098626	0.008504	-0.000578	0.258108	0.678692	-0.160648	0.668543	78.678653	-82.053904	66.788062
41619		9.825718	1.084867	-0.012656	-0.080945	0.370476	0.065471	0.111162	-0.082534	-0.044474	-0.858887	-0.424805	0.170898	0.098260	0.010827	-0.000080	0.257801	0.679171	-0.160207	0.668281	79.131835	-82.036632	66.398243
41620		9.774259	1.338602	0.093684	-0.127588	0.096374	0.051957	0.106023	-0.074176	-0.067623	-0.863281	-0.425049	0.168701	0.097747	0.013352	0.000980	0.257591	0.679634	-0.159696	0.668013	79.564828	-82.005608	66.025807
41621		9.744000	1.245179	0.130522	-0.034850	0.149998	0.010210	0.096464	-0.062715	-0.089691	-0.858398	-0.435791	0.173584	0.097445	0.012407	0.001342	0.257499	0.680063	-0.159125	0.667748	79.958112	-81.960030	65.687915
41622		9.625293	1.156354	-0.080999	-0.154704	0.329550	-0.124683	0.101745	-0.070697	-0.096086	-0.861084	-0.424805	0.175293	0.096259	0.011518	-0.000770	0.257402	0.680531	-0.158527	0.667452	80.387298	-81.911856	65.316769
41623		9.634420	1.272306	0.052597	-0.096574	0.163791	-0.096340	0.101394	-0.066051	-0.086427	-0.863037	-0.435791	0.177979	0.096349	0.012681	0.000564	0.257280	0.680974	-0.157954	0.667182	80.786054	-81.867773	64.976125
41624		9.689885	1.689792	0.244979	-0.155620	-0.275621	0.021390	0.095924	-0.059241	-0.087321	-0.858643	-0.429199	0.171143	0.096905	0.016854	0.002487	0.257181	0.681388	-0.157391	0.666930	81.152318	-81.822810	64.665092
41625		9.685714	1.872328	0.334214	-0.172339	-0.471774	0.045207	0.099643	-0.046626	-0.093769	-0.864990	-0.437988	0.177979	0.096865	0.018676	0.003374	0.257105	0.681769	-0.156774	0.666716	81.470454	-81.772280	64.404808
41626		9.739554	1.561172	0.226597	-0.073968	-0.145361	0.052448	0.092544	-0.043983	-0.097243	-0.856201	-0.435791	0.177979	0.097403	0.015563	0.002295	0.257063	0.682135	-0.156169	0.666500	81.773566	-81.719920	64.155553
41627		9.809971	1.349942	0.115054	-0.033976	0.104876	0.089784	0.091292	-0.033425	-0.110295	-0.858398	-0.440186	0.182373	0.098107	0.013445	0.001173	0.257080	0.682474	-0.155506	0.666301	82.037780	-81.658551	63.944857
41628		9.828312	1.083807	0.030631	0.055114	0.379951	0.067793	0.076457	-0.023704	-0.125455	-0.851807	-0.437988	0.182373	0.098290	0.010776	0.000322	0.257202	0.682773	-0.154831	0.666105	82.261553	-81.588263	63.766402
41629		9.835698	1.137062	0.017276	0.025587	0.353960	0.082170	0.087071	-0.021915	-0.142394	-0.856201	-0.440186	0.180176	0.098365	0.011301	0.000188	0.257349	0.683092	-0.154058	0.665901	82.488907	-81.507559	63.590448
41630		9.877829	1.134719	0.042258	0.061428	0.358816	0.123526	0.094603	-0.005230	-0.165169	-0.860352	-0.448975	0.184814	0.098788	0.011265	0.000431	0.257556	0.683382	-0.153164	0.665729	82.665834	-81.413147	63.469802
41631		9.773684	0.937855	0.221311	0.323333	0.420349	-0.005945	0.114481	-0.000216	-0.180466	-0.853760	-0.444580	0.182617	0.097745	0.009289	0.002219	0.257810	0.683679	-0.152200	0.665547	82.838561	-81.309088	63.354899
41632		9.824396	1.163074	0.201202	0.197646	0.268211	0.076749	0.146958	0.005947	-0.190113	-0.849365	-0.446533	0.184814	0.098255	0.011536	0.002018	0.257928	0.684017	-0.151032	0.665420	83.009053	-81.199598	63.271049
41633		9.910653	1.347207	0.161024	0.081230	0.167504	0.188674	0.168782	0.020997	-0.211224	-0.851318	-0.448975	0.182617	0.099121	0.013366	0.001611	0.258056	0.684347	-0.149695	0.665332	83.142696	-81.076517	63.237125
41634		9.736389	1.214338	0.057963	0.068337	0.327242	-0.006391	0.191821	0.027147	-0.215994	-0.853760	-0.448975	0.184814	0.097377	0.012038	0.000578	0.258122	0.684690	-0.148261	0.665276	83.268060	-80.950805	63.224933
41635		9.832502	1.805547	0.097009	-0.202572	-0.148729	0.181526	0.205575	0.033523	-0.227837	-0.851318	-0.453125	0.191650	0.098346	0.017942	0.000972	0.258246	0.685023	-0.146789	0.665211	83.381007	-80.817430	63.223296
41636		9.772626	1.762523	0.254596	-0.038708	-0.189027	0.118992	0.175126	0.040813	-0.229318	-0.840332	-0.450928	0.189453	0.097747	0.017511	0.002541	0.258422	0.685305	-0.145346	0.665169	83.451229	-80.683230	63.257271
41637		9.769413	1.587767	0.351589	0.149477	-0.078420	0.089712	0.149459	0.039253	-0.231086	-0.846680	-0.461914	0.189697	0.097713	0.015762	0.003509	0.258694	0.685558	-0.143981	0.665099	83.511634	-80.547627	63.286309
41638		9.825314	1.590571	0.267137	0.093609	-0.006224	0.143678	0.147035	0.035423	-0.229919	-0.846924	-0.450928	0.191650	0.098272	0.015791	0.002666	0.258963	0.685820	-0.142636	0.665014	83.583422	-80.413444	63.302403
41639		9.865003	2.094587	0.373012	-0.073754	-0.453384	0.268665	0.127993	0.029499	-0.241263	-0.839844	-0.461914	0.189697	0.098676	0.020824	0.003729	0.259334	0.686083	-0.141320	0.664879	83.666757	-80.272683	63.295724
41640		9.817711	1.721883	0.360909	0.126392	-0.125641	0.159814	0.087762	0.029058	-0.232891	-0.842041	-0.461914	0.191895	0.098198	0.017103	0.003602	0.259812	0.686288	-0.140170	0.664725	83.725107	-80.137216	63.291006
41641		9.834851	1.800477	0.252472	0.006994	-0.108632	0.188205	0.065463	0.019049	-0.235682	-0.842041	-0.464111	0.191895	0.098370	0.017888	0.002521	0.260371	0.686498	-0.139093	0.664515	83.802452	-80.000268	63.254026
41642		9.912268	1.803628	0.454810	0.194248	-0.188212	0.268969	0.025733	0.016462	-0.243911	-0.839600	-0.468506	0.196533	0.099145	0.017915	0.004542	0.261088	0.686671	-0.138127	0.664257	83.867503	-79.859297	63.206402
41643		9.848251	1.908535	0.381383	0.084645	-0.223613	0.223188	0.024625	0.010040	-0.250966	-0.834961	-0.477051	0.196777	0.098507	0.018961	0.003811	0.261831	0.686866	-0.137146	0.663966	83.952092	-79.714172	63.138256
41644		9.718845	1.791513	0.264774	0.052612	-0.062825	0.073101	0.010970	0.013220	-0.256897	-0.837158	-0.475098	0.187744	0.097212	0.017790	0.002642	0.262639	0.687036	-0.136188	0.663668	84.019681	-79.565974	63.079408
41645		9.543941	1.858138	0.303127	0.048486	-0.145549	-0.086034	0.016992	0.002508	-0.251712	-0.832764	-0.477295	0.192383	0.095463	0.018461	0.003032	0.263462	0.687233	-0.135298	0.663320	84.119145	-79.420832	62.981614
41646		9.601500	1.723581	0.522419	0.324127	-0.122803	-0.049887	0.015448	-0.000221	-0.268409	-0.837158	-0.481689	0.194580	0.096038	0.017107	0.005226	0.264283	0.687459	-0.134303	0.662961	84.229342	-79.266820	62.881966
41647		9.650749	1.231828	0.237229	0.366809	0.466135	-0.098844	0.057672	-0.003650	-0.254146	-0.830322	-0.481445	0.198975	0.096523	0.012195	0.002378	0.264970	0.687729	-0.133278	0.662613	84.365693	-79.120580	62.770261
41648		9.740231	1.727422	-0.041085	-0.109524	0.243439	0.076016	0.083641	0.004005	-0.248538	-0.832520	-0.483643	0.192383	0.097424	0.017153	-0.000406	0.265492	0.688016	-0.132119	0.662339	84.490568	-78.977585	62.695361
41649		9.741379	2.225228	-0.094975	-0.405697	-0.117105	0.171138	0.075214	0.011691	-0.250838	-0.827881	-0.488037	0.197021	0.097442	0.022130	-0.000947	0.266058	0.688266	-0.130967	0.662080	84.585660	-78.832340	62.645845
41650		9.658133	1.905418	0.059050	-0.098889	0.069904	0.031037	0.060598	0.014213	-0.254873	-0.830078	-0.490234	0.194824	0.096606	0.018931	0.000589	0.266687	0.688490	-0.129849	0.661815	84.665317	-78.685134	62.603511
41651		9.665228	1.990822	-0.141375	-0.298692	0.129403	0.051084	0.086279	0.016182	-0.240873	-0.821289	-0.490234	0.194824	0.096676	0.019792	-0.001413	0.267242	0.688720	-0.128747	0.661567	84.748083	-78.545303	62.562985
41652		9.707165	2.472299	-0.167891	-0.559518	-0.226277	0.187572	0.084053	0.018247	-0.230707	-0.821045	-0.494629	0.201660	0.097100	0.024612	-0.001677	0.267711	0.688944	-0.127629	0.661361	84.820675	-78.411654	62.541536
41653		9.540256	2.224316	-0.006942	-0.295471	-0.119763	-0.021751	0.050281	0.013872	-0.212975	-0.825439	-0.494629	0.197266	0.095426	0.022142	-0.000070	0.268296	0.689114	-0.126746	0.661117	84.879957	-78.287836	62.503906
41654		9.678537	2.070017	0.251415	0.028482	-0.089383	0.087485	0.019938	0.004644	-0.201652	-0.816406	-0.499023	0.192871	0.096806	0.020602	0.002514	0.268881	0.689277	-0.125957	0.660860	84.944098	-78.171451	62.453545
41655		9.709548	2.185024	0.457591	0.155879	-0.272799	0.145239	0.010624	-0.004565	-0.194758	-0.816406	-0.503418	0.195313	0.097117	0.021755	0.004579	0.269529	0.689441	-0.125292	0.660550	85.024418	-78.058934	62.371170
41656		9.702054	2.202361	0.824589	0.467087	-0.469929	0.148294	0.007093	-0.008323	-0.190288	-0.820801	-0.505615	0.195313	0.097041	0.021931	0.008251	0.270112	0.689622	-0.124602	0.660254	85.110960	-77.949647	62.290344
41657		9.614442	2.355217	0.832688	0.396617	-0.600905	0.094859	0.023404	-0.013051	-0.194047	-0.818604	-0.505615	0.201904	0.096167	0.023458	0.008336	0.270709	0.689830	-0.123909	0.659923	85.217931	-77.837893	62.188135
41658		9.735420	2.186926	0.492738	0.223116	-0.242077	0.172072	0.040924	-0.007311	-0.190442	-0.818604	-0.505615	0.199707	0.097375	0.021776	0.004935	0.271175	0.690051	-0.123106	0.659650	85.317982	-77.728412	62.113252
41659		9.762953	1.808828	-0.120365	-0.080299	0.418002	0.108019	0.037619	-0.001211	-0.176762	-0.820557	-0.512207	0.197754	0.097645	0.018002	-0.001200	0.271673	0.690227	-0.122408	0.659391	85.395011	-77.625905	62.049951
41660		9.872938	2.031667	-0.327750	-0.352075	0.381143	0.259092	0.016482	0.013501	-0.165437	-0.809326	-0.509766	0.197510	0.098746	0.020235	-0.003282	0.272154	0.690331	-0.121743	0.659208	85.419432	-77.529712	62.038112
41661		9.778321	2.207140	-0.228751	-0.362641	0.181243	0.206044	-0.016551	0.030125	-0.172733	-0.809326	-0.514160	0.199951	0.097802	0.021987	-0.002304	0.272843	0.690327	-0.121196	0.659027	85.382895	-77.428074	62.059309
41662		9.729854	2.231330	0.041942	-0.144856	0.023797	0.168749	-0.044230	0.031867	-0.185035	-0.813721	-0.516357	0.202148	0.097319	0.022223	0.000399	0.273609	0.690297	-0.120638	0.658843	85.329954	-77.319839	62.091093
41663		9.666397	1.938259	0.117342	0.073920	0.229503	0.043868	-0.032839	0.035110	-0.190168	-0.809082	-0.520752	0.200195	0.096683	0.019291	0.001153	0.274415	0.690264	-0.120078	0.658645	85.276483	-77.208001	62.120117
41664		9.591827	2.420973	0.267517	-0.053686	-0.244124	0.080407	-0.000472	0.027346	-0.194644	-0.809082	-0.518555	0.206787	0.095942	0.024116	0.002662	0.275058	0.690315	-0.119348	0.658457	85.263196	-77.094483	62.136970
41665		9.461297	2.282515	0.652435	0.338842	-0.345546	-0.070129	-0.001960	0.028636	-0.193702	-0.811279	-0.522949	0.202393	0.094636	0.022734	0.006511	0.275764	0.690346	-0.118682	0.658248	85.245305	-76.980929	62.147672
41666		9.506815	1.998181	0.493549	0.368170	-0.001429	-0.092591	0.026023	0.021648	-0.184536	-0.806641	-0.527344	0.200195	0.095087	0.019893	0.004928	0.276278	0.690444	-0.117909	0.658069	85.259585	-76.873451	62.151826
41667		9.499857	1.817150	0.469818	0.451689	0.173697	-0.141295	0.031852	0.017213	-0.174608	-0.800049	-0.525146	0.197998	0.095015	0.018088	0.004693	0.276798	0.690548	-0.117213	0.657866	85.285168	-76.771344	62.137786
41668		9.833795	2.385827	0.231073	-0.003424	-0.081090	0.308700	0.034592	0.009947	-0.187728	-0.802246	-0.529541	0.196045	0.098360	0.023766	0.002310	0.277286	0.690697	-0.116416	0.657645	85.332911	-76.662592	62.112605
41669		9.838520	2.439253	0.148790	-0.090851	-0.062343	0.324196	-0.005775	0.033315	-0.196787	-0.802246	-0.527344	0.197998	0.098409	0.024296	0.001471	0.278017	0.690707	-0.115745	0.657445	85.302237	-76.547076	62.134227
41670		9.697507	2.464963	-0.051447	-0.280469	0.013921	0.189385	-0.040156	0.033436	-0.203045	-0.799805	-0.533936	0.202637	0.097000	0.024551	-0.000536	0.278826	0.690683	-0.115108	0.657239	85.254157	-76.428474	62.163526
41671		9.675635	2.475196	0.125762	-0.132001	-0.073892	0.174175	-0.095290	0.048822	-0.204082	-0.804199	-0.533936	0.196045	0.096782	0.024654	0.001222	0.279899	0.690520	-0.114684	0.657028	85.138730	-76.308030	62.219617
41672		9.545217	2.586896	0.143451	-0.185426	-0.181619	0.074495	-0.118610	0.049581	-0.191262	-0.799805	-0.536133	0.198242	0.095477	0.025778	0.001396	0.280949	0.690325	-0.114322	0.656848	85.007902	-76.195336	62.287857
41673		9.464424	2.711192	0.238474	-0.177409	-0.330722	0.028139	-0.156830	0.073074	-0.184106	-0.799561	-0.538330	0.193848	0.094670	0.027027	0.002329	0.282181	0.689983	-0.114135	0.656712	84.800606	-76.084973	62.402320
41674		9.371244	2.845315	0.318001	-0.191801	-0.482144	-0.027603	-0.173120	0.079683	-0.171382	-0.801514	-0.547119	0.196289	0.093738	0.028376	0.003118	0.283371	0.689599	-0.113979	0.656630	84.569403	-75.981915	62.541874
41675		9.294294	2.629675	0.532754	0.092152	-0.418526	-0.148361	-0.209615	0.099977	-0.173707	-0.790527	-0.542725	0.198486	0.092968	0.026222	0.005254	0.284766	0.689086	-0.113962	0.656568	84.273937	-75.875714	62.716170
41676		9.531138	2.168217	0.579410	0.400155	0.003241	-0.029063	-0.210780	0.095900	-0.175968	-0.792725	-0.544922	0.191895	0.095333	0.021604	0.005726	0.286108	0.688595	-0.113890	0.656512	83.991670	-75.768772	62.886265
41677		10.435836	2.089888	-0.014096	0.042703	0.611075	0.812717	-0.188548	0.132354	-0.189511	-0.792725	-0.549316	0.194336	0.104378	0.020800	-0.000230	0.287499	0.688012	-0.113702	0.656548	83.646865	-75.651105	63.124106
41678		10.238166	2.170422	-0.525310	-0.455452	0.808529	0.625009	-0.195719	0.167983	-0.191835	-0.787842	-0.555908	0.187744	0.102398	0.021601	-0.005360	0.288882	0.687312	-0.113422	0.656723	83.225419	-75.529912	63.446986
41679		10.167403	2.333578	-0.099708	-0.200696	0.458785	0.607522	-0.232042	0.177353	-0.210357	-0.785645	-0.555908	0.183350	0.101698	0.023228	-0.001114	0.290515	0.686526	-0.113241	0.656855	82.773496	-75.396418	63.770024
41680		10.131589	2.626284	0.052859	-0.242049	0.163610	0.649808	-0.264599	0.188403	-0.220507	-0.787842	-0.560547	0.176758	0.101345	0.026152	0.000398	0.292238	0.685672	-0.113058	0.657015	82.289660	-75.256162	64.116988
41681		10.050855	2.523969	0.016458	-0.235061	0.280852	0.543767	-0.307050	0.188924	-0.218099	-0.776611	-0.560303	0.179199	0.100536	0.025130	0.000031	0.294158	0.684738	-0.113078	0.657128	81.787134	-75.115987	64.448342
41682		10.043636	2.922112	0.088084	-0.402160	-0.045273	0.639931	-0.338633	0.195115	-0.216112	-0.781006	-0.564941	0.174805	0.100469	0.029114	0.000733	0.296122	0.683745	-0.113143	0.657270	81.261110	-74.976131	64.795517
41683		10.003412	2.989568	0.170697	-0.386607	-0.118720	0.621450	-0.366710	0.201019	-0.224193	-0.785400	-0.567139	0.179199	0.100069	0.029786	0.001552	0.298270	0.682680	-0.113319	0.657374	80.717166	-74.829848	65.134823
41684		9.821916	2.800316	0.215681	-0.278115	-0.000419	0.399112	-0.392801	0.197941	-0.223926	-0.780762	-0.567139	0.168213	0.098252	0.027897	0.002005	0.300442	0.681594	-0.113530	0.657476	80.173362	-74.683647	65.468732
41685		9.987347	2.626404	-0.132453	-0.464089	0.407831	0.496571	-0.430231	0.187110	-0.224447	-0.776123	-0.573730	0.166260	0.099902	0.026149	-0.001474	0.302797	0.680472	-0.113933	0.657488	79.638497	-74.536917	65.761366
41686		10.746405	1.590256	0.628320	0.811336	1.020073	0.990552	-0.426901	0.187425	-0.253226	-0.776123	-0.571533	0.159424	0.107490	0.015780	0.006149	0.305172	0.679377	-0.114171	0.657482	79.123935	-74.373721	66.045126
41687		10.608026	2.023680	0.982073	0.838948	0.482368	0.987929	-0.353960	0.209458	-0.285144	-0.773682	-0.580322	0.153076	0.106119	0.020103	0.009674	0.307475	0.678324	-0.114081	0.657512	78.627814	-74.189019	66.343393
41688		10.695434	1.321424	0.830883	1.111337	1.182730	0.873507	-0.309188	0.227557	-0.334910	-0.769287	-0.582520	0.157471	0.106986	0.013048	0.008167	0.309738	0.677314	-0.113591	0.657575	78.151441	-73.974060	66.658097
41689		10.861939	1.386151	0.996287	1.227509	1.127500	1.055499	-0.273251	0.240539	-0.404602	-0.764648	-0.586914	0.151123	0.108659	0.013655	0.009813	0.312174	0.676342	-0.112783	0.657563	77.709712	-73.717418	66.948538
41690		11.141243	0.794626	1.216824	1.773823	1.590903	1.167369	-0.247513	0.277244	-0.490848	-0.762451	-0.587158	0.144531	0.111448	0.007688	0.012004	0.314764	0.675344	-0.111483	0.657576	77.261698	-73.407732	67.271345
41691		11.395281	0.400708	1.211920	2.026403	2.032710	1.288802	-0.115427	0.312170	-0.573875	-0.753174	-0.597900	0.144775	0.113982	0.003687	0.011939	0.317257	0.674467	-0.109470	0.657616	76.873622	-73.046253	67.601132
41692		11.599744	0.382443	0.847650	1.770931	2.389550	1.437736	0.024902	0.368711	-0.674892	-0.757324	-0.602539	0.140381	0.116025	0.003432	0.008263	0.319577	0.673684	-0.106506	0.657782	76.522854	-72.620661	67.986761
41693		11.668451	0.533704	0.415172	1.352984	2.630957	1.494681	0.140287	0.399855	-0.783473	-0.748291	-0.606689	0.138428	0.116712	0.004877	0.003922	0.321934	0.673019	-0.102803	0.657903	76.246673	-72.129651	68.354410
41694		11.585581	0.500898	0.162978	1.173057	2.879813	1.360167	0.196970	0.425165	-0.893184	-0.748291	-0.611328	0.136230	0.115880	0.004490	0.001388	0.324409	0.672413	-0.098444	0.657973	76.024107	-71.573782	68.710983
41695		11.713098	1.005169	0.534524	1.235698	2.433252	1.634746	0.251142	0.419713	-0.994853	-0.741455	-0.613281	0.136230	0.117190	0.009462	0.005111	0.327082	0.671935	-0.093630	0.657840	75.898931	-70.961856	68.988639
41696		11.732307	1.565404	0.859080	1.228815	1.952817	1.828205	0.274693	0.407143	-1.117587	-0.727783	-0.624268	0.132324	0.117425	0.014986	0.008373	0.330005	0.671582	-0.088284	0.657481	75.868526	-70.283334	69.191327
41697		11.668500	1.405880	0.847453	1.345150	2.198380	1.685327	0.267129	0.389414	-1.226700	-0.727539	-0.630859	0.134521	0.116784	0.013332	0.008265	0.333347	0.671286	-0.082683	0.656824	75.908973	-69.546834	69.304776
41698		11.766008	1.192907	1.215386	1.831144	2.333062	1.699943	0.245130	0.357791	-1.312945	-0.711670	-0.637451	0.132568	0.117756	0.011142	0.011957	0.336962	0.671072	-0.076853	0.655906	76.017097	-68.766675	69.343021
41699		11.974719	1.853968	1.873330	2.106105	1.690798	2.147385	0.220854	0.321246	-1.401589	-0.704834	-0.645996	0.132813	0.119903	0.017679	0.018561	0.340973	0.670930	-0.070924	0.654645	76.189282	-67.942597	69.287476
41700		12.181902	1.925231	2.466637	2.660035	1.548276	2.382132	0.163991	0.313063	-1.466312	-0.697754	-0.659180	0.131104	0.121994	0.018338	0.024491	0.345310	0.670711	-0.064913	0.653218	76.354152	-67.083242	69.214431
41701		12.137704	2.104940	2.664081	2.799250	1.460192	2.388985	0.129981	0.293048	-1.524978	-0.683838	-0.672363	0.133545	0.121572	0.020106	0.026476	0.349980	0.670472	-0.058909	0.651545	76.533976	-66.194268	69.093226
41702		12.160063	2.427915	2.010257	2.167928	1.759221	2.434964	0.112092	0.268236	-1.562281	-0.679443	-0.672363	0.133545	0.121812	0.023317	0.019953	0.354748	0.670259	-0.052816	0.649706	76.735188	-65.287193	68.946722
41703		12.394612	2.214808	0.986763	1.550426	2.741847	2.417623	0.075331	0.236304	-1.591564	-0.663330	-0.685303	0.134033	0.124129	0.021157	0.009729	0.359757	0.670043	-0.046860	0.647628	76.947932	-64.368317	68.752888
41704		11.706800	1.609790	0.824824	1.717798	3.168284	1.471320	0.211611	0.186345	-1.644461	-0.649658	-0.696289	0.134277	0.117203	0.015126	0.008155	0.364390	0.670208	-0.040310	0.645303	77.294498	-63.425319	68.505788
41705		10.832006	2.741785	0.767343	1.029209	2.166692	1.127229	0.465404	0.157435	-1.654022	-0.636230	-0.702637	0.134521	0.108548	0.026503	0.007650	0.368225	0.670877	-0.033023	0.642841	77.796881	-62.480537	68.234692
41706		9.565996	3.281154	0.485362	0.393381	1.529261	0.188017	0.629037	0.198710	-1.629790	-0.620361	-0.709229	0.130371	0.095928	0.032015	0.004860	0.371358	0.671665	-0.025149	0.640567	78.319932	-61.542648	68.054394
41707		8.886032	3.511790	0.063410	-0.108645	1.412987	-0.363449	0.717053	0.141940	-1.534218	-0.613525	-0.715576	0.141602	0.089127	0.034432	0.000695	0.373907	0.672733	-0.017482	0.638215	78.908321	-60.664966	67.845221
41708		8.670539	5.153134	0.115559	-0.826854	0.215952	0.237895	0.808219	0.037215	-1.426428	-0.608887	-0.717773	0.141602	0.087070	0.050906	0.001346	0.375718	0.674253	-0.010017	0.635704	79.609620	-59.857230	67.574813
41709		8.675122	6.453008	0.641055	-0.908428	-0.879568	0.944125	0.616497	0.032831	-1.396752	-0.593018	-0.726318	0.150635	0.087200	0.063902	0.006594	0.378108	0.675380	-0.003334	0.633154	80.176872	-59.066153	67.320018
41710		8.144101	5.293556	0.448449	-0.520689	-0.099247	-0.103573	0.417350	0.020154	-1.281039	-0.584229	-0.728516	0.155273	0.081778	0.052403	0.004586	0.380733	0.676137	0.002370	0.630774	80.606731	-58.339687	67.100807
41711		7.264966	4.707082	-0.230459	-0.924498	0.325797	-1.208749	0.370548	-0.052507	-1.159469	-0.579590	-0.730469	0.159668	0.072922	0.046653	-0.002199	0.383169	0.677006	0.007311	0.628324	81.043386	-57.688653	66.830071
41712		6.941702	5.260037	-0.354062	-1.288706	-0.092431	-1.192332	0.424625	-0.109690	-1.038976	-0.574707	-0.741455	0.155518	0.069691	0.052246	-0.003391	0.384980	0.678141	0.011969	0.625917	81.532499	-57.108855	66.542336
41713		6.585975	5.660907	-0.166829	-1.323565	-0.588622	-1.248234	0.365788	-0.124218	-0.931472	-0.561523	-0.737061	0.164307	0.066123	0.056304	-0.001524	0.386641	0.679194	0.016045	0.623656	81.974235	-56.590821	66.268907
41714		6.119801	5.777821	-0.119696	-1.379586	-0.879289	-1.556014	0.304529	-0.131024	-0.817431	-0.552490	-0.743408	0.164551	0.061434	0.057529	-0.001069	0.388150	0.680144	0.019534	0.621580	82.363927	-56.136126	66.014523
41715		5.578520	6.119875	0.134991	-1.386408	-1.480740	-1.782997	0.268571	-0.142038	-0.698833	-0.547607	-0.754395	0.166992	0.055998	0.061001	0.001472	0.389403	0.681059	0.022482	0.619693	82.721132	-55.749499	65.773041
41716		5.134730	6.156331	0.349660	-1.275941	-1.808693	-2.099807	0.201176	-0.145568	-0.582426	-0.545654	-0.747803	0.166992	0.051524	0.061410	0.003596	0.390524	0.681858	0.024823	0.618017	83.025032	-55.427748	65.548536
41717		4.348315	3.554901	0.593047	-0.055982	-0.508624	-4.188188	-0.034998	-0.103012	-0.419531	-0.543457	-0.747803	0.166992	0.043555	0.035459	0.005947	0.391990	0.682081	0.025897	0.616797	83.138497	-55.195917	65.380153
41718		3.198436	-0.333265	0.559172	1.393354	1.608803	-7.338005	-0.194713	-0.064461	-0.106239	-0.547607	-0.756592	0.167236	0.031981	-0.003344	0.005605	0.392977	0.681909	0.025550	0.616373	83.097418	-55.138928	65.298445
41719		3.349607	-0.482295	-0.048466	0.976188	2.092800	-7.338406	0.076695	-0.161674	0.222716	-0.545654	-0.752197	0.169189	0.033502	-0.004785	-0.000459	0.392088	0.682613	0.024662	0.616197	83.258903	-55.276356	65.149300
41720		3.908202	-0.695398	-0.225314	1.052712	2.606895	-7.001240	0.225247	-0.195195	0.516688	-0.552490	-0.745605	0.166748	0.039102	-0.006850	-0.002223	0.389736	0.683741	0.023227	0.616493	83.507012	-55.582317	65.008868
41721		4.539182	-0.745544	-0.305518	1.151477	2.984484	-6.493021	0.276606	-0.203516	0.796943	-0.563721	-0.739014	0.173340	0.045424	-0.007270	-0.003019	0.386391	0.685020	0.020910	0.617261	83.768693	-56.048880	64.878076
41722		4.912533	-0.783377	-0.153211	1.376355	3.092186	-6.163861	0.272430	-0.184554	1.044787	-0.570801	-0.732422	0.175293	0.049167	-0.007575	-0.001497	0.382234	0.686240	0.017833	0.618589	83.994353	-56.654341	64.798611
41723		5.340861	-0.394508	0.048010	1.457340	2.886359	-5.543327	0.251553	-0.172886	1.265568	-0.577637	-0.725830	0.179443	0.053432	-0.003608	0.000522	0.377446	0.687379	0.013948	0.620363	84.182489	-57.385805	64.750058
41724		5.841778	0.137243	0.258241	1.489244	2.586502	-4.782435	0.227601	-0.164098	1.469251	-0.589111	-0.712891	0.179199	0.058403	0.001799	0.002632	0.372095	0.688426	0.009313	0.622518	84.335421	-58.231770	64.727479
41725		6.484964	0.689774	0.452952	1.517439	2.317770	-3.891534	0.158685	-0.146486	1.652174	-0.611816	-0.701904	0.185547	0.064786	0.007429	0.004583	0.366381	0.689255	0.003857	0.625043	84.418662	-59.182219	64.740288
41726		6.939518	1.251644	0.880623	1.683605	1.806028	-3.149251	0.051188	-0.086985	1.814229	-0.621094	-0.688965	0.180664	0.069274	0.013143	0.008840	0.360508	0.689652	-0.002377	0.628020	84.367072	-60.220550	64.837961
41727		7.469005	1.236853	0.803450	1.674775	1.978916	-2.654575	-0.001920	-0.093053	1.946315	-0.636963	-0.680176	0.184814	0.074561	0.013095	0.008069	0.354365	0.689909	-0.009252	0.631162	84.271263	-61.335807	64.950196
41728		8.022470	1.447912	0.879435	1.683693	1.891398	-2.014273	-0.030935	-0.063697	2.078728	-0.653076	-0.662842	0.171143	0.080066	0.015313	0.008818	0.347876	0.689946	-0.016614	0.634571	84.103899	-62.523371	65.123646
41729		8.782913	1.749356	0.871219	1.597008	1.833261	-1.149873	-0.059877	-0.026951	2.182162	-0.666748	-0.654053	0.177490	0.087630	0.018453	0.008719	0.341115	0.689729	-0.024369	0.638216	83.848933	-63.768819	65.374566
41730		9.480777	2.128040	0.878830	1.452043	1.647263	-0.306891	-0.060368	0.002359	2.240130	-0.682861	-0.636719	0.177002	0.094562	0.022343	0.008781	0.334140	0.689327	-0.032262	0.641979	83.525948	-65.043384	65.698105
41731		10.224283	2.785938	0.953536	1.216053	1.192927	0.689688	-0.074462	0.033100	2.285363	-0.701416	-0.612549	0.178467	0.101917	0.029029	0.009508	0.327023	0.688706	-0.040311	0.645844	83.112948	-66.342295	66.107948
41732		10.964561	3.486077	0.906811	0.826794	0.726943	1.675512	-0.111878	0.066172	2.300208	-0.717529	-0.597412	0.171387	0.109238	0.036124	0.009012	0.319958	0.687825	-0.048463	0.649750	82.583616	-67.644287	66.617056
41733		11.558818	4.112303	0.877230	0.437461	0.226202	2.477049	-0.176988	0.112115	2.291485	-0.733643	-0.582275	0.164307	0.115112	0.042451	0.008671	0.313106	0.686600	-0.056727	0.653703	81.885999	-68.937218	67.262170
41734		11.967115	4.441600	0.704734	0.021349	-0.047649	2.971156	-0.246500	0.138347	2.238032	-0.749756	-0.562500	0.166016	0.119169	0.045760	0.006909	0.306643	0.685108	-0.064975	0.657553	81.034031	-70.192650	68.024227
41735		12.336581	4.667625	0.560021	-0.338529	-0.273158	3.381833	-0.278092	0.162021	2.175734	-0.770264	-0.545166	0.161133	0.122853	0.048022	0.005434	0.300454	0.683423	-0.073080	0.661301	80.032947	-71.407814	68.918865
41736		12.558621	4.825206	0.360447	-0.735372	-0.461487	3.617542	-0.279196	0.171497	2.084810	-0.777344	-0.532227	0.156250	0.125077	0.049563	0.003428	0.294546	0.681662	-0.080845	0.664864	78.916805	-72.563511	69.927860
41737		12.615620	4.982867	0.234430	-1.083939	-0.728889	3.690109	-0.247767	0.161422	1.971416	-0.789063	-0.514648	0.155762	0.125659	0.051072	0.002180	0.288865	0.679952	-0.088136	0.668172	77.734909	-73.651840	71.017970
41738		12.558508	5.103940	0.180980	-1.351793	-1.021280	3.638095	-0.220686	0.143332	1.825034	-0.800537	-0.501709	0.148682	0.125114	0.052184	0.001663	0.283554	0.678346	-0.094846	0.671154	76.518996	-74.652283	72.153987
41739		12.378017	5.232069	0.063208	-1.674069	-1.300348	3.457435	-0.194667	0.124924	1.676339	-0.807861	-0.484131	0.152832	0.123336	0.053356	0.000503	0.278616	0.676854	-0.100993	0.673827	75.278455	-75.567268	73.325500
41740		11.993175	5.358310	0.046530	-1.906489	-1.656732	3.077892	-0.189630	0.105643	1.525732	-0.808105	-0.475342	0.143555	0.119519	0.054496	0.000351	0.274148	0.675468	-0.106624	0.676179	74.024005	-76.393717	74.509963
41741		11.586571	5.441759	0.121286	-2.021109	-2.006319	2.667827	-0.183064	0.066854	1.384648	-0.822021	-0.460205	0.147705	0.115486	0.055219	0.001124	0.270091	0.674259	-0.111812	0.678176	72.813562	-77.144013	75.648961
41742		11.124122	5.420874	0.107899	-2.140724	-2.213463	2.173117	-0.190701	0.022746	1.242912	-0.822266	-0.451416	0.143066	0.110902	0.054900	0.001014	0.266512	0.673241	-0.116595	0.679797	71.686857	-77.817851	76.694660
41743		10.638671	5.204088	0.182261	-2.065350	-2.286738	1.624130	-0.197690	-0.041816	1.111371	-0.831543	-0.442627	0.142822	0.106095	0.052633	0.001793	0.263350	0.672484	-0.121048	0.680999	70.720863	-78.429180	77.569360
41744		10.291420	4.849901	0.256166	-1.893891	-2.199420	1.190729	-0.212203	-0.106122	0.985749	-0.836182	-0.433838	0.144775	0.102672	0.049008	0.002564	0.260625	0.671985	-0.125201	0.681788	69.952127	-78.981148	78.232769
41745		10.004785	4.501346	0.274430	-1.754267	-2.062086	0.822289	-0.200797	-0.166361	0.873270	-0.836426	-0.425049	0.144531	0.099848	0.045453	0.002782	0.258195	0.671760	-0.129020	0.682222	69.410108	-79.484161	78.670737
41746		9.717235	4.405394	0.339471	-1.693922	-2.148311	0.505364	-0.194495	-0.221471	0.779760	-0.841064	-0.418457	0.144287	0.096996	0.044436	0.003459	0.256028	0.671780	-0.132565	0.682340	69.099724	-79.946608	78.876402
41747		9.473041	4.182977	0.475262	-1.494861	-2.149286	0.217626	-0.184659	-0.263070	0.690864	-0.843750	-0.407471	0.144043	0.094579	0.042161	0.004838	0.254095	0.672002	-0.135835	0.682201	69.007958	-80.370757	78.865523
41748		9.289250	4.132803	0.484089	-1.483154	-2.208615	0.012101	-0.127045	-0.288154	0.605610	-0.839111	-0.407471	0.141846	0.092760	0.041612	0.004948	0.252243	0.672433	-0.138647	0.681898	69.137938	-80.753533	78.663432
41749		9.166464	4.064402	0.661724	-1.308772	-2.325868	-0.124630	-0.075497	-0.312259	0.537135	-0.845947	-0.403076	0.146240	0.091545	0.040893	0.006745	0.250428	0.673050	-0.141086	0.681457	69.481978	-81.105090	78.274616
41750		8.949575	3.821340	1.026075	-0.881481	-2.405449	-0.368806	-0.060592	-0.313620	0.496340	-0.848389	-0.396729	0.143799	0.089384	0.038438	0.010389	0.248703	0.673715	-0.143333	0.680963	69.924406	-81.433822	77.795335
41751		8.637348	3.492920	1.252510	-0.526955	-2.349372	-0.725576	-0.024479	-0.289866	0.477296	-0.844238	-0.392090	0.150391	0.086272	0.035137	0.012646	0.246933	0.674350	-0.145365	0.680548	70.360250	-81.747701	77.343972
41752		8.556483	3.296424	1.505748	-0.213742	-2.381011	-0.833157	-0.021671	-0.257943	0.492298	-0.853516	-0.381104	0.152100	0.085464	0.033176	0.015164	0.245127	0.674865	-0.147395	0.680254	70.689807	-82.062536	77.002008
41753		8.859890	2.938269	1.536285	0.004942	-2.106833	-0.590310	-0.034474	-0.205262	0.513935	-0.857910	-0.383301	0.156738	0.088507	0.029613	0.015449	0.243324	0.675163	-0.149478	0.680151	70.794902	-82.379398	76.879397
41754		9.143096	2.613484	1.476175	0.122588	-1.816417	-0.363298	-0.029688	-0.136840	0.536358	-0.853516	-0.374512	0.152100	0.091350	0.026382	0.014820	0.241482	0.675213	-0.151533	0.680303	70.592353	-82.694973	77.069965
