// General information: 
//  MT Manager version: 2019.2.0 
//  XDA version: 2019.2.0 build 3853 rev 94535 built on 2019-09-09
// Device information: 
//  DeviceId: 00B40A8D
//  ProductCode: MTW2-3A7G6
//  Firmware Version: 4.3.5
//  Hardware Version: 1.1.0
// Device settings: 
//  Filter Profile: human(46.1)
//  Option Flags: Orientation Smoother Disabled, AHS Disabled, ICC Disabled
// Coordinate system: ENU
PacketCounter	SampleTimeFine	Acc_X	Acc_Y	Acc_Z	FreeAcc_E	FreeAcc_N	FreeAcc_U	Gyr_X	Gyr_Y	Gyr_Z	Mag_X	Mag_Y	Mag_Z	VelInc_X	VelInc_Y	VelInc_Z	Quat_q0	Quat_q1	Quat_q2	Quat_q3	Roll	Pitch	Yaw
21740		11.972659	0.214969	1.117873	1.891863	2.998572	1.679468	-0.077921	-0.404952	0.030032	-0.784424	-0.201172	-0.716553	0.119703	0.002172	0.011420	0.740108	0.251513	-0.496843	0.376999	-0.350827	-67.679780	54.222376
21741		12.595579	0.721153	1.249779	1.519720	3.356756	2.317981	-0.104188	-0.328073	0.000620	-0.786865	-0.199219	-0.714355	0.125935	0.007219	0.012701	0.739379	0.251720	-0.498333	0.376324	-0.431580	-67.875950	54.240156
21742		13.115465	1.169015	2.023328	0.828290	3.175753	3.098716	-0.130020	-0.201268	-0.028929	-0.786865	-0.197021	-0.712158	0.131136	0.011684	0.020358	0.739058	0.251655	-0.499362	0.375632	-0.485976	-67.998694	54.212437
21743		14.387440	1.131040	4.945946	-0.469286	1.341267	5.376810	0.010920	0.006729	-0.104808	-0.780273	-0.198975	-0.718750	0.143882	0.011232	0.049455	0.739217	0.251918	-0.499265	0.375274	-0.348388	-68.003492	54.065543
21744		16.028548	0.226511	8.978731	-1.553747	-1.724654	8.413510	0.256529	0.134737	-0.294502	-0.777588	-0.205566	-0.714355	0.160349	0.001914	0.089682	0.739744	0.253314	-0.497991	0.374988	0.197412	-67.933847	53.629279
21745		14.873702	-1.556620	9.097914	-0.369919	-3.250850	7.383727	0.089344	0.029618	-0.506724	-0.777588	-0.207764	-0.718750	0.148710	-0.015984	0.090950	0.740616	0.254822	-0.497144	0.373366	0.947747	-67.921403	52.869678
21746		10.746164	-2.192424	4.936400	1.539317	-1.779600	1.982144	0.000291	0.220560	-0.518898	-0.781738	-0.210205	-0.712158	0.107459	-0.022203	0.049245	0.742093	0.255666	-0.495741	0.371718	1.653437	-67.795767	52.101954
21747		8.771021	0.704799	4.690508	-1.076014	-0.486745	0.088503	0.132381	-0.010016	-0.361914	-0.781738	-0.209961	-0.716553	0.087720	0.006858	0.046914	0.742532	0.257042	-0.495146	0.370683	2.220858	-67.802332	51.565516
21748		9.736558	2.647826	6.112930	-3.186520	-0.149590	1.545259	-0.177980	-0.517582	-0.214837	-0.783936	-0.212402	-0.709961	0.097235	0.026428	0.061358	0.741838	0.257837	-0.497196	0.368770	2.434667	-68.101184	51.218788
21749		11.415056	3.293082	6.681580	-3.650771	0.255467	3.317349	-0.419890	-0.444501	-0.238032	-0.786377	-0.208008	-0.707764	0.114041	0.032936	0.067000	0.741672	0.257656	-0.499390	0.366260	2.545479	-68.357708	50.834387
21750		12.001233	2.074039	6.818936	-2.622926	-0.424384	3.890205	-0.683420	-0.038331	-0.450894	-0.784180	-0.208008	-0.709961	0.120046	0.020703	0.068142	0.743240	0.256280	-0.500275	0.362821	2.789393	-68.375195	50.144736
21751		11.008626	0.163932	6.553325	-1.157546	-1.658126	2.839317	-0.676814	0.301892	-0.758648	-0.781738	-0.212158	-0.718750	0.110191	0.001443	0.065362	0.746192	0.255077	-0.499480	0.358682	3.450509	-68.186635	49.009593
21752		9.388017	0.096834	6.137228	-1.202193	-1.843167	1.185802	-0.502616	0.411972	-0.967527	-0.779297	-0.214355	-0.720947	0.094010	0.000668	0.061177	0.749549	0.254839	-0.497679	0.354329	4.477397	-67.920495	47.585985
21753		9.080225	0.333137	5.850142	-1.232163	-1.583759	0.806100	-0.439792	0.214550	-1.048592	-0.772705	-0.216309	-0.727783	0.090881	0.002984	0.058397	0.752453	0.255383	-0.496384	0.349565	5.652359	-67.752697	46.039580
21754		9.700210	0.421480	5.521957	-0.885520	-1.150248	1.262331	-0.387154	0.079958	-0.987843	-0.765625	-0.220703	-0.725586	0.097044	0.003842	0.055173	0.754827	0.256198	-0.495569	0.344979	6.774417	-67.653744	44.581068
21755		10.377652	0.669526	5.122661	-0.604985	-0.553054	1.750762	-0.400001	0.131946	-0.794337	-0.770020	-0.222900	-0.729980	0.103836	0.006385	0.051145	0.756997	0.256388	-0.494812	0.341148	7.601924	-67.529284	43.431905
21756		10.711494	0.656364	4.727714	-0.226072	-0.201306	1.910214	-0.371631	0.174625	-0.490018	-0.765381	-0.227295	-0.732178	0.107172	0.006389	0.047172	0.758703	0.255858	-0.494231	0.338589	8.011052	-67.399995	42.752374
21757		10.596895	0.535235	4.789021	-0.172109	-0.347374	1.821961	-0.324968	0.192918	-0.191216	-0.765869	-0.218262	-0.736572	0.106020	0.005329	0.047779	0.759884	0.254733	-0.493878	0.337300	8.032862	-67.282979	42.520972
21758		9.878722	-0.469600	4.669645	0.472888	-1.073633	1.061083	-0.387979	0.260104	-0.081663	-0.763428	-0.220459	-0.740967	0.098846	-0.004646	0.046577	0.761122	0.252983	-0.493515	0.336356	7.856448	-67.136897	42.465145
21759		9.084369	-1.513345	4.242114	1.296047	-1.625573	0.111487	-0.394870	0.281599	-0.107252	-0.763672	-0.216064	-0.738770	0.090895	-0.015099	0.042323	0.762463	0.251230	-0.493046	0.335321	7.706740	-66.976322	42.375472
21760		8.723794	-2.196326	3.944791	1.890344	-1.935612	-0.369712	-0.366829	0.232169	-0.149729	-0.757080	-0.211426	-0.745361	0.087267	-0.021956	0.039387	0.763710	0.249772	-0.492663	0.334131	7.638983	-66.840999	42.214571
21761		8.633682	-2.265349	3.773383	2.021116	-1.874339	-0.522228	-0.332714	0.165832	-0.141683	-0.757080	-0.215820	-0.749756	0.086352	-0.022652	0.037700	0.764737	0.248531	-0.492484	0.332970	7.590806	-66.743795	42.052983
21762		8.755800	-1.897294	3.626927	1.865280	-1.492613	-0.447262	-0.380671	0.101805	-0.112439	-0.752930	-0.208984	-0.747559	0.087566	-0.018953	0.036261	0.765612	0.247144	-0.492664	0.331723	7.488029	-66.685471	41.921340
21763		8.849873	-1.217256	3.313801	1.562183	-0.795149	-0.447296	-0.417209	0.062662	-0.080366	-0.757324	-0.206787	-0.749756	0.088504	-0.012139	0.033136	0.766382	0.245600	-0.493089	0.330459	7.328504	-66.651363	41.828428
21764		8.765699	-0.441401	3.016519	1.127141	-0.088167	-0.601093	-0.417575	0.079196	-0.031791	-0.759766	-0.204590	-0.763184	0.087668	-0.004365	0.030140	0.767106	0.243908	-0.493512	0.329399	7.102533	-66.611989	41.807873
21765		8.333471	0.006652	2.829784	0.772395	0.239042	-1.049086	-0.360890	0.132132	0.018772	-0.750732	-0.206543	-0.754150	0.083353	0.000125	0.028243	0.767808	0.242216	-0.493696	0.328736	6.833749	-66.545612	41.868916
21766		7.746798	0.302492	2.848363	0.365057	0.285402	-1.566307	-0.326346	0.164791	0.052935	-0.755371	-0.202393	-0.760986	0.077491	0.003092	0.028415	0.768487	0.240523	-0.493739	0.328327	6.536729	-66.463257	41.982808
21767		7.137011	0.251677	2.850157	0.218497	0.106884	-2.127346	-0.323438	0.169600	0.068314	-0.753662	-0.193359	-0.763184	0.071393	0.002587	0.028437	0.769148	0.238794	-0.493771	0.327992	6.222287	-66.378370	42.117880
21768		6.670507	0.172716	2.813520	0.157412	-0.027007	-2.572808	-0.341013	0.166756	0.067772	-0.758057	-0.195801	-0.765381	0.066728	0.001798	0.028077	0.769819	0.237003	-0.493845	0.327605	5.900183	-66.295304	42.250127
21769		6.502582	0.053891	2.753611	0.228520	-0.093362	-2.755217	-0.316563	0.160924	0.055608	-0.753662	-0.191162	-0.769775	0.065048	0.000601	0.027483	0.770466	0.235341	-0.493884	0.327223	5.609680	-66.214211	42.363059
21770		6.491663	0.030427	2.664318	0.294925	-0.035258	-2.801770	-0.282046	0.154768	0.035560	-0.751953	-0.184326	-0.767578	0.064937	0.000353	0.026592	0.771086	0.233874	-0.493866	0.326841	5.367266	-66.135691	42.445291
21771		6.721566	-0.229768	2.658993	0.557146	-0.131558	-2.603335	-0.273622	0.136224	0.010511	-0.747070	-0.188721	-0.771973	0.067234	-0.002258	0.026547	0.771692	0.232529	-0.493873	0.326361	5.164610	-66.065872	42.489103
21772		7.017170	-0.426824	2.515031	0.877098	-0.074858	-2.398288	-0.306639	0.125703	-0.009262	-0.747559	-0.179688	-0.769775	0.070187	-0.004233	0.025113	0.772338	0.231124	-0.493953	0.325710	4.970759	-66.001429	42.502860
21773		7.242043	-0.625879	2.387220	1.167782	-0.051323	-2.251512	-0.311823	0.132963	-0.013802	-0.751953	-0.182129	-0.771973	0.072436	-0.006227	0.023834	0.773015	0.229696	-0.494003	0.325036	4.779298	-65.932075	42.510699
21774		7.341652	-0.742592	2.275871	1.351112	-0.017888	-2.209724	-0.300546	0.141333	-0.007726	-0.745605	-0.177490	-0.771973	0.073432	-0.007395	0.022718	0.773686	0.228284	-0.494012	0.324422	4.586393	-65.858742	42.527259
21775		7.394527	-0.726760	2.243266	1.376445	0.040518	-2.174416	-0.269304	0.158320	-0.003640	-0.750244	-0.173096	-0.774170	0.073963	-0.007239	0.022384	0.774354	0.226954	-0.493905	0.323921	4.404911	-65.775629	42.551030
21776		7.286504	-0.770640	2.263294	1.365307	-0.022046	-2.266498	-0.253893	0.162785	-0.015725	-0.738770	-0.177246	-0.774170	0.072883	-0.007683	0.022583	0.775034	0.225707	-0.493743	0.323414	4.247943	-65.689653	42.557513
21777		7.156572	-0.841533	2.178989	1.431647	-0.041030	-2.422058	-0.238496	0.138907	-0.021280	-0.745850	-0.170898	-0.774170	0.071580	-0.008397	0.021750	0.775645	0.224570	-0.493640	0.322897	4.109313	-65.616842	42.553650
21778		6.839454	-0.827660	2.050789	1.405147	-0.028619	-2.763317	-0.213243	0.060475	-0.033121	-0.741699	-0.164063	-0.774170	0.068399	-0.008266	0.020496	0.776051	0.223688	-0.493788	0.322307	4.007625	-65.588623	42.525012
21779		6.436848	-0.839298	1.779905	1.456032	0.030586	-3.241194	-0.213569	-0.066565	-0.052463	-0.743408	-0.172852	-0.782959	0.064360	-0.008391	0.017829	0.776175	0.223054	-0.494407	0.321499	3.940655	-65.632203	42.457821
21780		6.255035	-0.793434	1.554127	1.500137	0.152882	-3.496319	-0.207233	-0.231770	-0.082241	-0.746094	-0.166260	-0.776367	0.062529	-0.007944	0.015622	0.775929	0.222785	-0.495623	0.320405	3.930303	-65.769126	42.332770
21781		6.600272	-0.607884	1.561275	1.452997	0.354698	-3.169374	-0.195075	-0.389821	-0.104710	-0.750732	-0.164307	-0.774170	0.065969	-0.006098	0.015747	0.775311	0.222871	-0.497404	0.319079	3.970287	-65.995252	42.160510
21782		7.496486	-0.476871	1.634880	1.562054	0.614511	-2.310703	-0.192288	-0.512062	-0.113567	-0.755127	-0.164551	-0.756348	0.074920	-0.004795	0.016545	0.774394	0.223185	-0.499642	0.317585	4.037095	-66.291064	41.960885
21783		8.530459	-0.163605	1.674944	1.595234	1.049509	-1.330087	-0.199807	-0.539773	-0.121520	-0.759521	-0.164795	-0.756348	0.085258	-0.001671	0.016981	0.773421	0.223530	-0.501988	0.316010	4.115500	-66.602457	41.744408
21784		9.276648	0.025915	1.842378	1.548318	1.231935	-0.564113	-0.215621	-0.442698	-0.126717	-0.764160	-0.162598	-0.760986	0.092726	0.000220	0.018629	0.772713	0.223673	-0.503972	0.314479	4.186670	-66.857876	41.526371
21785		9.735835	0.053986	1.972854	1.559436	1.252766	-0.082313	-0.252419	-0.324862	-0.147699	-0.763916	-0.164795	-0.760986	0.097327	0.000493	0.019886	0.772369	0.223540	-0.505535	0.312906	4.255595	-67.045188	41.288333
21786		9.789121	-0.099094	1.858327	1.742551	1.205801	-0.076180	-0.281470	-0.275283	-0.177739	-0.761963	-0.160400	-0.754150	0.097865	-0.001052	0.018719	0.772229	0.223292	-0.506913	0.311196	4.346515	-67.202538	41.008548
21787		9.967599	-0.685405	1.267018	2.576519	1.196333	-0.150474	-0.311657	-0.318828	-0.184187	-0.766602	-0.158203	-0.749756	0.099649	-0.006926	0.012840	0.772016	0.223009	-0.508497	0.309336	4.435771	-67.384348	40.712247
21788		10.339001	-1.023547	0.734287	3.252386	1.365914	-0.012794	-0.255256	-0.324373	-0.161567	-0.764160	-0.160400	-0.749756	0.103370	-0.010309	0.007524	0.771689	0.222895	-0.510037	0.307696	4.530445	-67.570116	40.445379
21789		10.667040	-1.096990	1.010881	3.202782	1.178693	0.403172	-0.119726	-0.315942	-0.123576	-0.772949	-0.165039	-0.747559	0.106647	-0.011030	0.010284	0.771168	0.223192	-0.511378	0.306559	4.651524	-67.752818	40.234316
21790		10.941508	-1.364417	2.298909	2.613263	0.176847	1.141887	-0.050541	-0.268434	-0.109117	-0.772949	-0.165283	-0.736572	0.109377	-0.013698	0.023139	0.770668	0.223647	-0.512442	0.305705	4.789766	-67.908692	40.047735
21791		11.571478	-0.984896	4.557668	1.047064	-0.906786	2.585814	-0.020517	-0.027499	-0.107207	-0.766357	-0.162842	-0.743164	0.115703	-0.009906	0.045594	0.770745	0.223847	-0.512536	0.305208	4.915214	-67.927396	39.894264
21792		12.530282	1.000687	7.925568	-2.252813	-1.472677	4.801687	0.093719	0.214915	-0.005427	-0.766602	-0.158447	-0.736572	0.125388	0.009966	0.079126	0.771163	0.223852	-0.511633	0.305663	4.933805	-67.812202	39.926130
21793		13.947246	4.233990	10.064720	-5.525737	-0.225667	7.014844	0.005990	-0.273493	0.324983	-0.777832	-0.156494	-0.738770	0.139266	0.042563	0.100839	0.769920	0.223420	-0.513117	0.306622	4.494361	-67.991665	40.398195
21794		13.939851	3.515124	7.011738	-3.140888	1.282980	5.818270	-0.420029	-0.596710	0.659214	-0.776123	-0.147461	-0.738770	0.139071	0.035758	0.070458	0.767802	0.220983	-0.516862	0.307408	3.353771	-68.366289	41.361554
21795		9.941691	0.777067	3.343598	-0.018643	0.805173	0.674048	-0.228387	0.000174	0.657096	-0.780518	-0.145508	-0.738770	0.099391	0.008135	0.033427	0.767003	0.218364	-0.518012	0.309335	2.255693	-68.392421	42.395893
21796		7.207223	-0.979579	3.138942	0.565158	-0.959269	-1.969414	0.179573	-0.110081	0.439453	-0.778320	-0.145508	-0.732178	0.072076	-0.009666	0.031420	0.765803	0.218043	-0.518708	0.311359	1.709447	-68.471679	43.087889
21797		8.657867	-2.484362	3.888398	1.487694	-2.164212	-0.360009	0.528630	-0.630590	0.309055	-0.791748	-0.147949	-0.734375	0.086494	-0.024813	0.039091	0.763064	0.220207	-0.520706	0.313221	1.567328	-68.845552	43.560093
21798		11.870019	-2.870662	4.794930	1.968623	-2.261303	2.959951	0.833486	-0.496479	0.437946	-0.791748	-0.148193	-0.716553	0.118644	-0.028647	0.048124	0.760120	0.222980	-0.521844	0.316506	1.392144	-69.143872	44.253305
21799		14.154604	-2.195188	5.771671	1.403845	-1.855392	5.453952	0.926372	0.023805	0.742285	-0.786865	-0.152344	-0.729980	0.141634	-0.021693	0.057599	0.757921	0.224485	-0.521181	0.321764	0.786840	-69.146055	45.463551
21800		14.288301	-1.989689	6.831237	0.584862	-2.305335	5.970919	0.722668	0.361327	1.030521	-0.789551	-0.143555	-0.727783	0.143107	-0.019406	0.067983	0.756341	0.223912	-0.519869	0.327945	-0.362164	-68.948557	47.131290
21801		12.173532	-0.976156	6.655813	-0.581604	-1.925537	3.949592	0.485260	0.482022	1.092854	-0.787842	-0.134521	-0.734375	0.121947	-0.009257	0.066242	0.755205	0.222071	-0.518537	0.333870	-1.706081	-68.668135	48.865021
21802		9.878264	0.216100	5.932938	-1.572360	-1.150833	1.546416	0.401481	0.411796	0.951524	-0.790283	-0.130127	-0.729980	0.098893	0.002512	0.059131	0.754189	0.220390	-0.517435	0.338951	-2.857671	-68.417779	50.343514
21803		9.432124	0.859770	5.729125	-2.048024	-0.644757	1.046262	0.399550	0.181008	0.691397	-0.790283	-0.130127	-0.734375	0.094343	0.008809	0.057223	0.753001	0.219755	-0.516910	0.342785	-3.632233	-68.298781	51.416614
21804		10.207657	1.026587	5.589733	-1.920801	-0.185996	1.709950	0.435236	0.127046	0.377943	-0.790039	-0.136963	-0.734375	0.102093	0.010337	0.055855	0.752162	0.220160	-0.516173	0.345465	-3.932423	-68.218842	52.002245
21805		11.318661	0.791505	5.176390	-1.230713	0.271093	2.594786	0.523032	0.059788	0.099733	-0.787842	-0.136963	-0.727783	0.113198	0.007836	0.051751	0.751526	0.221727	-0.515229	0.347253	-3.790125	-68.187794	52.165879
21806		11.444100	0.853401	4.407087	-0.752250	0.867511	2.426577	0.579759	0.080468	-0.065395	-0.787354	-0.143555	-0.729980	0.114461	0.008369	0.044049	0.751164	0.223896	-0.513920	0.348583	-3.377045	-68.151121	52.072706
21807		10.331423	0.978977	3.948834	-0.785379	0.933439	1.223693	0.589766	0.313361	-0.083315	-0.787354	-0.145752	-0.734375	0.103380	0.009631	0.039355	0.751409	0.225741	-0.511695	0.350133	-2.916281	-67.981647	51.934602
21808		9.264765	1.434211	4.102546	-1.430715	0.810895	0.287762	0.629741	0.363878	-0.025820	-0.780273	-0.149902	-0.729980	0.092724	0.014201	0.040902	0.751633	0.227497	-0.509269	0.352050	-2.513985	-67.781179	51.883795
21809		9.175713	1.856295	4.174113	-1.787233	1.006604	0.229985	0.631128	0.201936	0.067830	-0.784424	-0.161133	-0.734375	0.091793	0.018462	0.041707	0.751266	0.229302	-0.507550	0.354136	-2.255209	-67.671172	51.988931
21810		9.501984	1.721326	3.688493	-1.301415	1.353446	0.352456	0.631082	0.140632	0.113412	-0.779785	-0.160889	-0.736572	0.095036	0.017151	0.036872	0.750658	0.231098	-0.506107	0.356318	-2.062892	-67.595343	52.165925
21811		9.295745	1.386772	3.280324	-0.835608	1.366470	0.012231	0.594520	0.253864	0.089593	-0.779541	-0.165527	-0.734375	0.092993	0.013812	0.032726	0.750411	0.232614	-0.504272	0.358447	-1.853000	-67.455456	52.301829
21812		8.640224	1.011808	3.014797	-0.521190	1.126234	-0.689853	0.523331	0.331909	0.012988	-0.779297	-0.174316	-0.736572	0.086451	0.010045	0.030031	0.750575	0.233913	-0.502177	0.360195	-1.575880	-67.272328	52.320398
21813		8.063896	0.668418	3.028360	-0.372272	0.730273	-1.211978	0.519341	0.277207	-0.057714	-0.781250	-0.176514	-0.740967	0.080683	0.006582	0.030189	0.750725	0.235474	-0.500208	0.361602	-1.208629	-67.121760	52.239355
21814		7.926459	0.195095	2.957743	0.032790	0.442124	-1.361745	0.547491	0.221329	-0.110193	-0.771973	-0.182861	-0.736572	0.079298	0.001826	0.029495	0.750793	0.237367	-0.498332	0.362811	-0.758753	-67.003298	52.085407
21815		7.757480	-0.240447	2.887100	0.403972	0.168260	-1.543463	0.538950	0.248927	-0.134221	-0.769775	-0.185059	-0.743164	0.077609	-0.002534	0.028768	0.750974	0.239241	-0.496335	0.363942	-0.283918	-66.868898	51.899530
21816		7.311137	-0.272331	2.767628	0.421516	0.100095	-2.002511	0.511328	0.322184	-0.115163	-0.767334	-0.187256	-0.749756	0.073154	-0.002836	0.027551	0.751332	0.240823	-0.494131	0.365156	0.145690	-66.691711	51.744768
21817		6.828978	-0.015967	2.568152	0.244981	0.260782	-2.525541	0.491248	0.351702	-0.063369	-0.767090	-0.191650	-0.747559	0.068335	-0.000244	0.025561	0.751686	0.242145	-0.491910	0.366549	0.490723	-66.497178	51.669393
21818		6.510784	0.298919	2.478122	-0.007560	0.429741	-2.853092	0.455964	0.325951	0.009826	-0.762207	-0.200439	-0.747559	0.065148	0.002936	0.024682	0.751878	0.243201	-0.489937	0.368096	0.717300	-66.317884	51.701129
21819		6.417532	0.807587	2.302097	-0.319254	0.847100	-3.007025	0.451005	0.244279	0.060624	-0.762207	-0.202637	-0.747559	0.064201	0.008044	0.022961	0.751777	0.244263	-0.488337	0.369720	0.875146	-66.185817	51.805108
21820		6.718767	0.993325	2.268168	-0.363120	1.084847	-2.744140	0.465980	0.174378	0.084586	-0.759521	-0.209229	-0.745361	0.067203	0.009909	0.022646	0.751439	0.245450	-0.486999	0.371382	1.011829	-66.094140	51.941477
21821		7.035511	1.159881	2.257260	-0.404729	1.297191	-2.457930	0.447370	0.149032	0.100313	-0.759521	-0.211426	-0.747559	0.070366	0.011584	0.022546	0.751027	0.246579	-0.485806	0.373028	1.118786	-66.017391	52.099527
21822		7.179167	1.342781	2.101662	-0.425875	1.570312	-2.388859	0.422600	0.164803	0.099293	-0.761963	-0.207031	-0.745361	0.071802	0.013419	0.020986	0.750683	0.247582	-0.484598	0.374624	1.212136	-65.931584	52.256302
21823		7.253418	1.386647	1.918125	-0.339696	1.759333	-2.396258	0.389269	0.152649	0.095731	-0.757324	-0.211182	-0.751953	0.072542	0.013864	0.019153	0.750352	0.248494	-0.483491	0.376111	1.291823	-65.853048	52.407712
21824		7.188777	1.433454	1.740686	-0.296487	1.900415	-2.528196	0.339561	0.114251	0.092465	-0.757080	-0.211426	-0.745361	0.071891	0.014338	0.017390	0.749995	0.249294	-0.482616	0.377415	1.348281	-65.796280	52.552959
21825		7.036870	1.394676	1.552931	-0.204129	1.968280	-2.744557	0.272329	0.043432	0.091079	-0.757080	-0.213623	-0.751953	0.070366	0.013958	0.015533	0.749551	0.249980	-0.482130	0.378462	1.370311	-65.780227	52.693858
21826		6.750660	1.417137	1.487962	-0.264277	1.933858	-3.031532	0.239726	-0.059069	0.088739	-0.754883	-0.213379	-0.745361	0.067496	0.014183	0.014917	0.748905	0.250742	-0.482086	0.379292	1.379641	-65.822741	52.828087
21827		6.252022	1.670079	1.376572	-0.544144	1.992984	-3.527484	0.228885	-0.224364	0.099762	-0.757080	-0.213623	-0.743164	0.062496	0.016716	0.013855	0.747851	0.251750	-0.482695	0.379929	1.373312	-65.960167	52.972540
21828		5.994060	1.785129	1.119137	-0.581925	2.151279	-3.862796	0.173819	-0.405421	0.119774	-0.758789	-0.222656	-0.732178	0.059907	0.017877	0.011328	0.746388	0.252847	-0.484108	0.380280	1.313624	-66.201459	53.140670
21829		6.590119	1.607702	1.212351	-0.367998	2.146708	-3.275084	0.144795	-0.556094	0.122160	-0.770508	-0.214111	-0.729980	0.065857	0.016108	0.012318	0.744586	0.254119	-0.486138	0.380376	1.236688	-66.529309	53.309676
21830		7.825818	1.186555	1.745192	-0.045114	1.865619	-1.925085	0.133626	-0.581233	0.100637	-0.770508	-0.214111	-0.723145	0.078201	0.011893	0.017687	0.742772	0.255442	-0.488251	0.380329	1.178432	-66.870918	53.450381
21831		9.283986	0.751637	2.168544	0.392728	1.719756	-0.413328	0.068878	-0.486450	0.064796	-0.772705	-0.211914	-0.720947	0.092784	0.007539	0.021914	0.741332	0.256433	-0.490089	0.380107	1.126377	-67.158401	53.543870
21832		10.159762	0.678148	2.118954	0.652891	1.956157	0.381315	-0.017531	-0.350680	0.020348	-0.779297	-0.216553	-0.723145	0.101560	0.006794	0.021367	0.740419	0.256950	-0.491525	0.379683	1.080137	-67.366949	53.577055
21833		10.203523	0.772015	1.371637	0.961510	2.562315	0.142173	-0.160716	-0.304868	0.016583	-0.775146	-0.212158	-0.720947	0.102014	0.007740	0.013866	0.739806	0.256861	-0.493059	0.378948	0.955283	-67.549595	53.606502
21834		10.219638	1.304766	1.042974	0.686225	3.103780	0.042605	-0.266969	-0.300141	0.015656	-0.781982	-0.205566	-0.714355	0.102180	0.013070	0.010566	0.739342	0.256369	-0.494772	0.377955	0.768894	-67.729094	53.636605
21835		10.501398	1.250709	1.954284	0.283993	2.454852	0.654206	-0.349243	-0.244427	-0.015730	-0.786377	-0.208008	-0.712158	0.104991	0.012533	0.019649	0.739176	0.255544	-0.496394	0.376708	0.577018	-67.876786	53.621351
21836		10.709136	1.588831	3.115574	-0.587545	1.831712	1.287600	-0.346480	-0.155888	-0.060857	-0.784668	-0.196777	-0.720947	0.107072	0.015910	0.031212	0.739309	0.254673	-0.497621	0.375416	0.448244	-67.973171	53.540059
21837		11.169553	1.901463	6.981754	-2.849709	-0.754127	3.165364	-0.170475	-0.081535	-0.160119	-0.780273	-0.196777	-0.718750	0.111682	0.018985	0.069847	0.739586	0.254559	-0.498120	0.374284	0.560385	-68.026970	53.307219
21838		12.753547	-0.667887	10.984489	-2.605091	-4.838991	6.110727	-0.031240	-0.355135	-0.451013	-0.786621	-0.203613	-0.707764	0.127325	-0.006949	0.110072	0.739546	0.256195	-0.498993	0.372078	1.175687	-68.233928	52.618897
21839		15.040467	-5.061595	7.339842	3.481633	-4.154923	6.810204	0.087220	-0.485670	-0.986942	-0.783936	-0.210205	-0.707764	0.149974	-0.051389	0.073741	0.740012	0.259842	-0.499435	0.368006	2.656025	-68.500884	51.073368
21840		11.328608	-2.066162	4.011740	2.124665	-1.038800	2.150004	0.225992	0.224696	-0.918000	-0.777100	-0.214355	-0.709961	0.113234	-0.021227	0.039966	0.741925	0.262519	-0.497067	0.365453	4.076712	-68.349098	49.678886
21841		7.370388	1.178075	6.357203	-2.642987	-2.024012	-0.590844	-0.117277	-0.090591	-0.581550	-0.781250	-0.223389	-0.712158	0.073709	0.011604	0.063599	0.742880	0.263652	-0.496932	0.362871	4.839200	-68.382646	48.779139
21842		8.765520	1.923768	5.586514	-2.482748	-0.662095	0.441161	-0.246374	-0.825099	-0.424395	-0.785400	-0.225830	-0.703369	0.087464	0.019121	0.056203	0.741881	0.265250	-0.499955	0.359583	5.407083	-68.839571	48.011652
21843		11.365575	2.975183	6.377063	-3.152177	0.009240	3.178018	-0.597075	-0.535988	-0.510964	-0.792480	-0.221680	-0.705566	0.113560	0.029652	0.063986	0.742210	0.265233	-0.502412	0.355469	5.884575	-69.124096	47.126981
21844		12.498866	1.781093	7.811835	-2.727263	-1.538609	4.699835	-0.662348	-0.212550	-0.706460	-0.787842	-0.223633	-0.703369	0.124968	0.017628	0.078193	0.743765	0.264888	-0.503512	0.350889	6.580221	-69.209077	45.970649
21845		13.113742	0.409120	7.435531	-1.242153	-1.996925	5.083395	-0.550015	-0.154961	-1.052832	-0.785645	-0.221436	-0.698975	0.131100	0.003606	0.074447	0.745907	0.265717	-0.503727	0.345365	7.854230	-69.229011	44.263859
21846		12.548707	0.526835	6.195082	-0.695732	-1.212193	4.121876	-0.523432	0.017385	-1.193433	-0.785645	-0.223633	-0.705566	0.125522	0.004682	0.061927	0.748656	0.266698	-0.503046	0.339603	9.312100	-69.125126	42.377290
21847		11.063609	0.440932	6.028354	-0.832963	-1.545996	2.671472	-0.464960	0.278008	-1.042978	-0.780518	-0.234619	-0.709961	0.110741	0.003972	0.060120	0.751704	0.267054	-0.501476	0.334880	10.490055	-68.873297	40.822159
21848		10.422410	1.018406	6.766014	-1.802051	-1.899405	2.376949	-0.340889	0.141530	-0.816248	-0.776123	-0.236572	-0.707764	0.104313	0.009874	0.067569	0.753839	0.267541	-0.500497	0.331135	11.423278	-68.712976	39.605658
21849		11.086151	1.099019	6.501808	-1.481164	-1.522545	2.910205	-0.430941	-0.038299	-0.593887	-0.773682	-0.236572	-0.712158	0.110881	0.010801	0.065016	0.755270	0.267416	-0.500634	0.327752	12.025819	-68.673052	38.686384
21850		11.956000	0.166633	5.658324	-0.012964	-1.322523	3.349420	-0.474214	0.005251	-0.368503	-0.775879	-0.238770	-0.709961	0.119564	0.001580	0.056576	0.756484	0.266500	-0.500973	0.325171	12.266047	-68.633951	38.130745
21851		12.119130	-0.748346	5.553539	0.799883	-1.800278	3.393156	-0.410323	0.145335	-0.197424	-0.778564	-0.232178	-0.714355	0.121224	-0.007489	0.055463	0.757686	0.265156	-0.500902	0.323577	12.251608	-68.536254	37.886174
21852		11.223482	-1.532945	5.534287	1.155751	-2.478233	2.494519	-0.392095	0.290723	-0.120634	-0.771729	-0.231934	-0.718750	0.112306	-0.015289	0.055210	0.759093	0.263462	-0.500350	0.322515	12.094609	-68.367118	37.807427
21853		10.102366	-1.747427	5.211052	1.192295	-2.610802	1.324118	-0.353795	0.311834	-0.100561	-0.767334	-0.231689	-0.723145	0.101096	-0.017433	0.051984	0.760470	0.261815	-0.499682	0.321646	11.923191	-68.188240	37.765835
21854		9.553937	-1.647149	4.898877	1.148503	-2.424341	0.713152	-0.316656	0.201773	-0.110984	-0.771729	-0.231934	-0.723145	0.095580	-0.016447	0.048918	0.761532	0.260524	-0.499354	0.320689	11.823072	-68.070270	37.672195
21855		9.780648	-1.219067	4.687631	1.021596	-1.928529	0.881152	-0.333486	0.079220	-0.110799	-0.772217	-0.225342	-0.729980	0.097818	-0.012167	0.046858	0.762312	0.259354	-0.499517	0.319527	11.747092	-68.020539	37.540773
21856		10.271869	-0.771404	4.221311	1.104832	-1.181431	1.201366	-0.361336	0.014884	-0.052708	-0.771973	-0.227539	-0.727783	0.102720	-0.007665	0.042219	0.762867	0.258045	-0.500045	0.318436	11.594573	-68.014312	37.475961
21857		10.459097	-0.192016	3.761165	0.994311	-0.416781	1.251379	-0.347383	0.041829	0.027022	-0.765625	-0.220459	-0.732178	0.104599	-0.001841	0.037593	0.763347	0.256534	-0.500550	0.317714	11.329360	-68.001694	37.539708
21858		9.994954	0.319137	3.456495	0.651639	0.054666	0.747646	-0.332362	0.158035	0.104460	-0.767822	-0.220703	-0.729980	0.099975	0.003301	0.034481	0.763967	0.254713	-0.500684	0.317476	10.935971	-67.932606	37.752628
21859		9.092440	0.709806	3.295762	0.186592	0.252086	-0.120428	-0.292698	0.223532	0.143943	-0.767822	-0.220703	-0.740967	0.090956	0.007212	0.032845	0.764642	0.252827	-0.500552	0.317567	10.493515	-67.829541	38.041589
21860		8.189223	0.995749	3.231242	-0.256884	0.311180	-0.962099	-0.317464	0.231345	0.142028	-0.768311	-0.211670	-0.743164	0.081922	0.010067	0.032202	0.765361	0.250851	-0.500426	0.317601	10.042954	-67.721762	38.325780
21861		7.360073	1.173645	2.996059	-0.493342	0.431922	-1.806785	-0.356509	0.246952	0.118694	-0.761719	-0.209229	-0.740967	0.073631	0.011833	0.029849	0.766208	0.248745	-0.500268	0.317462	9.600290	-67.601158	38.575969
21862		6.676452	1.073590	2.686425	-0.434462	0.446716	-2.563128	-0.392681	0.247338	0.081891	-0.762207	-0.202637	-0.743164	0.066793	0.010816	0.026760	0.767149	0.246603	-0.500120	0.317095	9.192309	-67.477090	38.767933
21863		6.291043	0.802775	2.464163	-0.214018	0.349711	-3.021102	-0.379830	0.218870	0.058770	-0.760010	-0.200195	-0.747559	0.062935	0.008093	0.024557	0.768042	0.244600	-0.500029	0.316629	8.830593	-67.365840	38.916399
21864		6.183310	0.445973	2.305996	0.112317	0.209804	-3.202606	-0.363652	0.181284	0.028740	-0.764648	-0.198242	-0.745361	0.061853	0.004510	0.022996	0.768858	0.242805	-0.500018	0.316046	8.530576	-67.273682	39.009683
21865		6.325330	-0.032299	2.158812	0.593631	0.034132	-3.155531	-0.356407	0.134896	0.017495	-0.762695	-0.189209	-0.749756	0.063268	-0.000279	0.021546	0.769569	0.241128	-0.500159	0.315377	8.259022	-67.206250	39.075368
21866		6.517469	-0.346927	1.946221	1.009319	0.022394	-3.077236	-0.336385	0.101307	0.013696	-0.760498	-0.191406	-0.751953	0.065185	-0.003432	0.019435	0.770170	0.239599	-0.500391	0.314705	8.012987	-67.157897	39.127130
21867		6.548562	-0.583562	1.744164	1.312590	0.014018	-3.138616	-0.307681	0.086943	0.017549	-0.762695	-0.193604	-0.756348	0.065494	-0.005803	0.017422	0.770698	0.238181	-0.500638	0.314097	7.779308	-67.117540	39.181634
21868		6.541810	-0.672055	1.669411	1.418839	0.009793	-3.177881	-0.280472	0.106327	0.011481	-0.760742	-0.184814	-0.754150	0.065427	-0.006693	0.016669	0.771244	0.236864	-0.500757	0.313560	7.568510	-67.066007	39.229955
21869		6.555747	-0.694777	1.699777	1.419733	-0.015670	-3.154318	-0.257339	0.114468	-0.000199	-0.756104	-0.186768	-0.756348	0.065567	-0.006926	0.016969	0.771804	0.235644	-0.500794	0.313043	7.384440	-67.008524	39.262564
21870		6.466676	-0.800298	1.592104	1.536899	-0.031241	-3.283512	-0.222916	0.125429	-0.022784	-0.752197	-0.179932	-0.763184	0.064676	-0.007993	0.015889	0.772381	0.234604	-0.500707	0.312539	7.250164	-66.943519	39.263611
21871		6.414271	-0.936006	1.486222	1.687665	-0.061266	-3.380279	-0.204177	0.142414	-0.045614	-0.756348	-0.184570	-0.751953	0.064151	-0.009360	0.014826	0.773020	0.233654	-0.500496	0.312009	7.152925	-66.866363	39.234427
21872		6.257468	-0.926541	1.477811	1.642372	-0.083739	-3.528270	-0.192282	0.124352	-0.067311	-0.749756	-0.182129	-0.763184	0.062581	-0.009272	0.014748	0.773626	0.232845	-0.500311	0.311408	7.096056	-66.798804	39.170370
21873		6.188771	-0.892444	1.451670	1.615653	-0.058582	-3.600528	-0.190456	0.029347	-0.077342	-0.749756	-0.179932	-0.760986	0.061886	-0.008935	0.014516	0.774009	0.232210	-0.500478	0.310661	7.068324	-66.784146	39.075019
21874		6.266893	-0.772639	1.316484	1.636651	0.130583	-3.575031	-0.203248	-0.111530	-0.074245	-0.756836	-0.173340	-0.760986	0.062659	-0.007736	0.013208	0.774046	0.231741	-0.501214	0.309731	7.053304	-66.850253	38.958596
21875		6.343973	-0.618501	1.176106	1.630992	0.341731	-3.548917	-0.232006	-0.220608	-0.063393	-0.759033	-0.175781	-0.751953	0.063425	-0.006191	0.011838	0.773829	0.231291	-0.502429	0.308639	7.023790	-66.978716	38.838515
21876		6.647297	-0.576394	1.091541	1.733607	0.487923	-3.296036	-0.240783	-0.319640	-0.046308	-0.761230	-0.175781	-0.751953	0.066454	-0.005766	0.011029	0.773339	0.230928	-0.504058	0.307480	6.985256	-67.165167	38.724493
21877		7.244334	-0.305312	1.416701	1.496593	0.589817	-2.602077	-0.246340	-0.349728	-0.026670	-0.763428	-0.176025	-0.754150	0.072418	-0.003045	0.014297	0.772746	0.230534	-0.505835	0.306348	6.921089	-67.370354	38.634422
21878		7.999640	-0.224026	2.032739	1.249887	0.401640	-1.660825	-0.277430	-0.314146	-0.013699	-0.761230	-0.173584	-0.745361	0.079964	-0.002217	0.020456	0.772255	0.229937	-0.507532	0.305226	6.816916	-67.556020	38.569056
21879		8.764156	0.004803	2.489223	0.999400	0.428073	-0.766994	-0.336483	-0.275518	-0.011034	-0.770508	-0.169434	-0.749756	0.087607	0.000085	0.025013	0.771923	0.229041	-0.509170	0.304007	6.667650	-67.719827	38.515585
21880		9.239879	0.341516	2.439491	0.912252	0.801382	-0.327507	-0.423212	-0.250226	-0.019485	-0.768555	-0.165039	-0.745361	0.092369	0.003458	0.024503	0.771763	0.227796	-0.510830	0.302562	6.476392	-67.868857	38.454220
21881		9.709726	0.158953	1.597625	1.700242	1.323107	-0.209827	-0.507902	-0.348490	-0.025456	-0.775391	-0.163086	-0.745361	0.097069	0.001618	0.016141	0.771451	0.226380	-0.512988	0.300763	6.258334	-68.073593	38.368820
21882		10.394507	-0.432362	0.888664	2.745696	1.499020	0.149057	-0.502236	-0.433075	-0.039858	-0.778076	-0.154297	-0.743164	0.103925	-0.004322	0.009123	0.770929	0.225153	-0.515440	0.298824	6.077494	-68.325687	38.247644
21883		11.074817	-0.586452	0.732034	3.121517	1.616399	0.731250	-0.377263	-0.348694	-0.029702	-0.775879	-0.151855	-0.738770	0.110734	-0.005867	0.007524	0.770461	0.224248	-0.517391	0.297338	5.938773	-68.530650	38.157555
21884		11.330376	-0.642876	1.051286	2.994126	1.399849	1.094716	-0.272879	-0.288209	-0.010507	-0.777832	-0.156494	-0.734375	0.113288	-0.006420	0.010685	0.770000	0.223610	-0.518968	0.296263	5.824100	-68.702125	38.106796
21885		10.922773	-0.833762	0.621972	3.270650	1.425464	0.563235	-0.211047	-0.303528	-0.057881	-0.784912	-0.147705	-0.736572	0.109216	-0.008363	0.006394	0.769496	0.223351	-0.520460	0.295147	5.815600	-68.879744	37.979764
21886		10.561089	-1.514217	0.167409	3.922482	1.118421	0.047366	-0.022250	-0.269647	-0.141472	-0.777832	-0.156494	-0.734375	0.105598	-0.015217	0.001818	0.768991	0.223989	-0.521445	0.294239	6.036853	-69.032879	37.723053
21887		11.546400	-1.735920	2.441127	2.822396	-0.340429	1.772216	0.340734	-0.252195	-0.136347	-0.780029	-0.154297	-0.723389	0.115421	-0.017480	0.024527	0.768116	0.225977	-0.521836	0.294313	6.458391	-69.175941	37.474112
21888		13.898179	-0.680173	7.318371	-0.487408	-2.282909	5.735021	0.481108	0.070901	0.007821	-0.773438	-0.154297	-0.727783	0.139008	-0.006972	0.073118	0.767708	0.227657	-0.520937	0.295673	6.693226	-69.143980	37.511808
21889		16.195370	2.505012	11.476417	-4.788332	-2.216172	9.485853	0.483049	0.195912	0.416925	-0.777588	-0.158691	-0.723389	0.162014	0.025111	0.114666	0.767013	0.228084	-0.520019	0.298746	6.296058	-69.067344	38.226177
21890		16.032335	5.122315	11.986563	-7.075962	-0.673618	9.589005	-0.111861	-0.393868	0.864618	-0.787109	-0.147949	-0.718750	0.159863	0.051982	0.120152	0.764780	0.225951	-0.522750	0.301313	4.974661	-69.348398	39.565076
21891		12.875687	3.922653	8.510909	-4.937542	0.129364	5.326930	-0.392386	-0.099786	0.904596	-0.785645	-0.134521	-0.723389	0.128535	0.039975	0.085095	0.763552	0.222188	-0.524816	0.303625	3.366102	-69.451135	41.036951
21892		8.402856	2.426905	5.340861	-3.053530	0.185957	-0.031912	-0.128378	-0.018982	0.774414	-0.785889	-0.127930	-0.725586	0.083929	0.024628	0.053401	0.762427	0.219651	-0.526014	0.306216	2.091854	-69.490702	42.313089
21893		7.025420	-1.768157	3.755840	0.530348	-2.068670	-1.936873	0.259967	-0.262101	0.635440	-0.794922	-0.125977	-0.714355	0.070261	-0.017507	0.037628	0.760441	0.219317	-0.527385	0.309023	1.253831	-69.658594	43.358606
21894		9.082442	-3.591830	4.441137	1.843185	-3.321041	0.221703	0.867115	-0.513936	0.605730	-0.799072	-0.132813	-0.714355	0.090819	-0.035836	0.044489	0.757148	0.221765	-0.528728	0.313038	0.801920	-69.966675	44.363474
21895		12.156956	-3.646379	5.360755	2.005023	-3.224526	3.431467	1.143850	-0.325956	0.729308	-0.805908	-0.130859	-0.712158	0.121615	-0.036327	0.053598	0.753819	0.224628	-0.529046	0.318450	0.288464	-70.165172	45.600541
21896		15.599199	-3.402389	6.601959	1.800854	-3.011662	7.104266	1.026548	-0.145289	0.969036	-0.796875	-0.135010	-0.707764	0.156108	-0.033606	0.065960	0.750682	0.226119	-0.529108	0.324640	-0.687249	-70.253811	47.256638
21897		16.148517	-1.649448	6.854376	0.429117	-1.754398	7.714844	0.506645	0.105313	0.971451	-0.803711	-0.130859	-0.707764	0.161599	-0.015883	0.068418	0.748763	0.225228	-0.529056	0.329735	-1.963328	-70.187535	48.914378
21898		12.306249	1.010266	5.945247	-1.831216	-0.195718	3.767365	0.252209	0.540249	0.760885	-0.799561	-0.126221	-0.709961	0.123183	0.010496	0.059133	0.748608	0.223227	-0.527543	0.333849	-3.001084	-69.866492	50.166340
21899		10.001296	1.522613	6.416087	-3.023141	-0.697091	1.758172	0.233146	0.494862	0.541399	-0.801758	-0.126221	-0.709961	0.100130	0.015422	0.063931	0.748705	0.221800	-0.525977	0.337036	-3.683209	-69.572168	51.029666
21900		10.918029	1.540421	6.302798	-2.769168	-0.323641	2.577973	0.270944	-0.001462	0.287494	-0.799561	-0.126221	-0.716553	0.109158	0.015476	0.063050	0.747877	0.222021	-0.525918	0.338817	-3.990147	-69.568956	51.516899
21901		11.350799	1.333736	4.309888	-1.257882	1.028860	2.293252	0.278502	0.073330	0.010394	-0.801514	-0.128418	-0.714355	0.113523	0.013283	0.043076	0.747701	0.222874	-0.525258	0.339668	-3.860314	-69.533712	51.543126
21902		9.976205	1.835687	3.881936	-1.626960	1.293824	0.847640	0.392610	0.557172	-0.099828	-0.794678	-0.130371	-0.721191	0.099879	0.018231	0.038577	0.748854	0.223618	-0.522468	0.340938	-3.450156	-69.225763	51.339266
21903		8.347422	2.467196	4.505129	-2.798673	0.853823	-0.458499	0.426477	0.609383	-0.104112	-0.792480	-0.130371	-0.723389	0.083624	0.024533	0.044849	0.750104	0.224406	-0.519414	0.342338	-3.019547	-68.887410	51.133924
21904		7.946201	2.766788	4.344337	-2.973141	1.060382	-0.884841	0.377954	0.310194	-0.073139	-0.791992	-0.139160	-0.725586	0.079539	0.027557	0.043372	0.750570	0.225444	-0.517595	0.343387	-2.692116	-68.719061	51.009003
21905		8.206631	2.473169	3.458761	-2.120467	1.554387	-0.951770	0.348891	0.242309	-0.013088	-0.787354	-0.145752	-0.732178	0.082110	0.024666	0.034531	0.750786	0.226330	-0.516148	0.344509	-2.477913	-68.587844	50.987399
21906		8.015715	1.814488	2.993782	-1.362852	1.396169	-1.286253	0.371920	0.363357	0.040689	-0.785156	-0.143311	-0.734375	0.080208	0.018106	0.029826	0.751193	0.226956	-0.514262	0.346025	-2.321301	-68.385976	51.042102
21907		7.658197	1.245066	2.893900	-0.933793	1.002979	-1.645998	0.365145	0.378162	0.033259	-0.784912	-0.150146	-0.734375	0.076634	0.012411	0.028817	0.751657	0.227548	-0.512317	0.347512	-2.157503	-68.175267	51.084946
21908		7.328899	0.811104	2.899657	-0.663821	0.632635	-1.942636	0.370526	0.348863	-0.000167	-0.782715	-0.149902	-0.734375	0.073339	0.008057	0.028884	0.752090	0.228297	-0.510436	0.348850	-1.946297	-67.982662	51.080095
21909		6.939970	0.520769	2.830105	-0.469112	0.389686	-2.324571	0.317633	0.359901	-0.054534	-0.782959	-0.145508	-0.736572	0.069452	0.005144	0.028184	0.752700	0.228968	-0.508539	0.349863	-1.689775	-67.784745	50.994151
21910		6.438432	0.252736	2.676729	-0.266427	0.186191	-2.843007	0.264918	0.379036	-0.107142	-0.773193	-0.158447	-0.736572	0.064436	0.002457	0.026648	0.753509	0.229537	-0.506601	0.350561	-1.392967	-67.576498	50.831342
21911		6.037334	0.223226	2.610200	-0.274492	0.104441	-3.238035	0.270945	0.370785	-0.134856	-0.768799	-0.160645	-0.745361	0.060423	0.002156	0.025993	0.754333	0.230211	-0.504651	0.351159	-1.059556	-67.373205	50.632417
21912		5.768874	0.313442	2.458781	-0.293026	0.197825	-3.543819	0.251453	0.377058	-0.123506	-0.772949	-0.167480	-0.745361	0.057737	0.003068	0.024483	0.755173	0.230771	-0.502719	0.351756	-0.756655	-67.165569	50.454152
21913		5.583838	0.346637	2.338454	-0.269711	0.258570	-3.760570	0.210486	0.391376	-0.079899	-0.770752	-0.165039	-0.747559	0.055885	0.003420	0.023279	0.756016	0.231046	-0.500850	0.352431	-0.538631	-66.948909	50.343141
21914		5.512741	0.459680	2.304133	-0.334203	0.345857	-3.839472	0.201171	0.367362	-0.032638	-0.768555	-0.165039	-0.749756	0.055170	0.004565	0.022945	0.756722	0.231204	-0.499144	0.353230	-0.393482	-66.745880	50.304557
21915		5.678594	0.394695	2.316270	-0.234095	0.356688	-3.682005	0.214657	0.292867	-0.003999	-0.764160	-0.162598	-0.749756	0.056820	0.003921	0.023084	0.757171	0.231475	-0.497729	0.354086	-0.280545	-66.585795	50.309896
21916		5.956052	0.416249	2.142592	-0.065350	0.585624	-3.496733	0.230294	0.216507	0.001470	-0.763672	-0.169189	-0.749756	0.059584	0.004138	0.021366	0.757403	0.231923	-0.496579	0.354910	-0.167010	-66.469060	50.323875
21917		6.206251	0.419454	2.061957	0.053957	0.727485	-3.300161	0.242636	0.198163	-0.001456	-0.761475	-0.171387	-0.756348	0.062083	0.004169	0.020563	0.757576	0.232458	-0.495475	0.355733	-0.043636	-66.363348	50.334998
21918		6.231975	0.477165	1.978064	0.075584	0.836360	-3.310940	0.266497	0.178510	-0.011986	-0.759033	-0.173584	-0.756348	0.062338	0.004742	0.019731	0.757692	0.233142	-0.494387	0.356550	0.107187	-66.268405	50.330933
21919		6.301123	0.552271	1.970714	0.049305	0.913018	-3.250917	0.270797	0.122584	-0.032966	-0.752197	-0.175537	-0.751953	0.063024	0.005486	0.019676	0.757701	0.233996	-0.493477	0.357233	0.287665	-66.205509	50.297402
21920		6.542332	0.713053	2.128222	-0.096300	0.976696	-2.966033	0.266150	0.050302	-0.046610	-0.756836	-0.175781	-0.754150	0.065430	0.007087	0.021275	0.757560	0.234993	-0.492833	0.357767	0.483027	-66.183881	50.244435
21921		6.832057	0.943624	2.187084	-0.229253	1.164053	-2.675238	0.264555	-0.040228	-0.045532	-0.758789	-0.180176	-0.760986	0.068318	0.009392	0.021897	0.757194	0.236144	-0.492534	0.358195	0.677297	-66.214106	50.191874
21922		6.926501	1.260546	2.015027	-0.352829	1.503203	-2.654364	0.256053	-0.166661	-0.015768	-0.763184	-0.182617	-0.749756	0.069249	0.012574	0.020224	0.756472	0.237414	-0.492764	0.358564	0.830252	-66.316873	50.178942
21923		7.054949	1.573291	1.860003	-0.484659	1.831612	-2.593449	0.240083	-0.318682	0.041428	-0.763184	-0.180420	-0.747559	0.070516	0.015725	0.018731	0.755289	0.238757	-0.493665	0.358928	0.902840	-66.507453	50.243963
21924		7.655482	1.601409	1.823143	-0.356161	2.032875	-2.051555	0.221308	-0.509149	0.098200	-0.763184	-0.180420	-0.745361	0.076500	0.016031	0.018444	0.753552	0.240227	-0.495382	0.359231	0.892538	-66.807437	50.387198
21925		8.636885	1.343726	1.789116	0.072063	2.157116	-1.155687	0.208167	-0.655307	0.150301	-0.767822	-0.178467	-0.736572	0.086299	0.013483	0.018188	0.751368	0.241776	-0.497734	0.359516	0.804004	-67.191746	50.606399
21926		9.656747	0.752272	1.843237	0.703169	2.010940	-0.185775	0.203420	-0.693474	0.183689	-0.781006	-0.181152	-0.732178	0.096496	0.007592	0.018775	0.749024	0.243292	-0.500269	0.359865	0.662203	-67.597796	50.880194
21927		10.368398	0.137992	1.659532	1.403726	1.928322	0.414114	0.189781	-0.659709	0.207736	-0.785645	-0.181152	-0.723389	0.103627	0.001472	0.016939	0.746727	0.244629	-0.502729	0.360304	0.469590	-67.984754	51.199022
21928		11.088559	-0.260972	1.173989	2.106272	2.201920	0.916582	0.159236	-0.644738	0.182492	-0.792236	-0.181396	-0.714355	0.110849	-0.002518	0.012095	0.744542	0.245889	-0.505146	0.360589	0.287448	-68.362217	51.487487
21929		12.227229	-0.209330	1.053007	2.339708	2.603924	1.951778	0.111926	-0.617225	0.098412	-0.794678	-0.179443	-0.709961	0.122240	-0.002039	0.010906	0.742620	0.247138	-0.507444	0.360471	0.192797	-68.724658	51.652473
21930		13.429114	0.102553	1.465022	2.079440	2.784437	3.241827	0.028923	-0.511539	-0.008487	-0.798828	-0.181641	-0.712158	0.134253	0.001018	0.014994	0.741262	0.248151	-0.509355	0.359873	0.205655	-69.025085	51.650461
21931		13.279534	0.971025	1.356634	1.394453	3.315453	3.078880	-0.088277	-0.287403	-0.048440	-0.796875	-0.179443	-0.705566	0.132778	0.009684	0.013753	0.740685	0.248430	-0.510601	0.359103	0.209742	-69.197927	51.585856
21932		12.022124	1.558046	0.932152	0.887217	3.619479	1.760561	-0.226295	-0.126154	-0.031595	-0.796875	-0.177246	-0.709961	0.120218	0.015572	0.009380	0.740663	0.247862	-0.511511	0.358244	0.109160	-69.277510	51.548783
21933		11.089126	2.163794	1.034553	0.138211	3.650281	0.928697	-0.385864	-0.217682	-0.038355	-0.796875	-0.175049	-0.701172	0.110884	0.021637	0.010424	0.740614	0.246882	-0.513040	0.356832	-0.073315	-69.410034	51.500858
21934		11.701828	2.848845	2.565656	-1.170534	3.109413	2.044489	-0.417791	-0.306451	-0.099464	-0.797119	-0.172852	-0.705566	0.116993	0.028484	0.025776	0.740482	0.246100	-0.514872	0.355005	-0.180792	-69.593069	51.354074
21935		13.863092	1.873197	7.683014	-2.945650	-0.661911	5.859194	-0.170593	0.034595	-0.241170	-0.801758	-0.170654	-0.705566	0.138667	0.018630	0.076790	0.741171	0.245990	-0.514829	0.353704	0.073542	-69.581157	50.971993
21936		14.744610	-1.475330	13.740926	-3.682350	-6.980005	8.791408	-0.057913	-0.080275	-0.620523	-0.794922	-0.172852	-0.698975	0.147344	-0.015171	0.137473	0.742092	0.247477	-0.514539	0.351147	0.978440	-69.631272	49.965221
21937		12.712387	-5.364626	8.657366	1.943626	-6.351165	5.060694	0.147849	-0.060929	-0.876562	-0.792236	-0.181641	-0.701172	0.126861	-0.054267	0.086572	0.743248	0.250342	-0.513498	0.348183	2.399152	-69.659245	48.533083
21938		7.824698	-5.202523	5.172414	2.827825	-5.030578	-0.771559	0.278882	0.506701	-0.759007	-0.787109	-0.192627	-0.705566	0.078179	-0.052394	0.051453	0.745477	0.252405	-0.510249	0.346701	3.661422	-69.353929	47.350155
21939		5.493740	-1.337228	5.032058	-0.589817	-3.114059	-2.939148	0.245853	-0.268827	-0.500698	-0.795898	-0.197266	-0.701172	0.054836	-0.013572	0.050378	0.745313	0.255019	-0.510269	0.345109	4.575101	-69.494425	46.517525
21940		7.772406	1.067939	4.413520	-1.545651	-0.615078	-0.966096	-0.144267	-0.781973	-0.389552	-0.793701	-0.197266	-0.696777	0.077571	0.010560	0.044431	0.744131	0.256785	-0.513006	0.342281	5.179206	-69.929624	45.779385
21941		10.034918	2.480419	6.076960	-3.094735	-0.438534	1.763651	-0.470337	-0.513403	-0.446407	-0.798096	-0.197510	-0.687988	0.100248	0.024724	0.060969	0.744141	0.257012	-0.515224	0.338740	5.669282	-70.206225	44.964383
21942		11.661282	3.038357	7.235647	-3.821807	-0.583529	3.701187	-0.653879	-0.345164	-0.747937	-0.807129	-0.195557	-0.692383	0.116601	0.030184	0.072459	0.745312	0.257049	-0.516723	0.333816	6.524637	-70.365211	43.651867
21943		13.502250	3.554921	6.718234	-3.416350	0.481420	5.292886	-0.645058	-0.453339	-1.215315	-0.804443	-0.204346	-0.696777	0.135084	0.034946	0.067375	0.746943	0.258488	-0.517996	0.327017	8.174607	-70.542122	41.501589
21944		13.190659	2.729481	5.313525	-1.928041	0.802616	4.516091	-0.652430	-0.060801	-1.306014	-0.797607	-0.208496	-0.694580	0.132066	0.026606	0.053088	0.749709	0.259488	-0.517663	0.320354	9.887030	-70.467117	39.282564
21945		10.802987	1.158738	5.110443	-1.133422	-0.637559	2.123461	-0.425622	0.470886	-1.042175	-0.792480	-0.219482	-0.698975	0.108209	0.011132	0.050826	0.753109	0.259778	-0.515293	0.315935	11.126486	-70.100273	37.698934
21946		10.110713	0.789937	6.450681	-1.779050	-2.005558	1.903716	-0.219168	0.203726	-0.771666	-0.794922	-0.215088	-0.701172	0.101202	0.007580	0.064395	0.755097	0.260577	-0.513941	0.312718	12.110889	-69.905115	36.511797
21947		11.586903	0.606775	6.307284	-1.110427	-1.755242	3.229255	-0.339678	-0.187047	-0.504888	-0.795166	-0.210693	-0.694580	0.115825	0.005883	0.063171	0.755816	0.260833	-0.514593	0.309680	12.736312	-69.955234	35.631303
21948		12.152681	0.217682	4.870574	0.222620	-0.903080	3.248416	-0.452702	-0.052773	-0.209147	-0.788330	-0.214844	-0.705566	0.121516	0.002160	0.048733	0.756558	0.259701	-0.515294	0.307648	12.800667	-69.966540	35.280755
21949		10.849415	-0.800257	4.393750	0.902056	-1.495275	1.789277	-0.492394	0.321972	-0.039051	-0.790771	-0.208252	-0.712158	0.108563	-0.007916	0.043782	0.758059	0.257378	-0.514861	0.306629	12.448880	-69.789449	35.345655
21950		9.437621	-1.998182	4.718045	1.183263	-2.786593	0.490519	-0.423382	0.342017	-0.033200	-0.786621	-0.201416	-0.705566	0.094453	-0.019898	0.047061	0.759498	0.255293	-0.514244	0.305845	12.128751	-69.602201	35.422380
21951		8.984322	-2.351431	4.495245	1.449465	-2.943191	-0.030501	-0.376154	0.113264	-0.087562	-0.786621	-0.203613	-0.712158	0.089858	-0.023469	0.044946	0.760379	0.253845	-0.514358	0.304669	11.988050	-69.535767	35.332333
21952		9.076690	-2.151981	3.847455	1.730484	-2.330979	-0.148724	-0.394657	0.047859	-0.117452	-0.788818	-0.203613	-0.707764	0.090763	-0.021497	0.038495	0.761146	0.252532	-0.514702	0.303261	11.907903	-69.503259	35.170539
21953		9.220794	-1.614457	3.610565	1.526356	-1.764920	-0.054563	-0.424622	0.073191	-0.108736	-0.782471	-0.198975	-0.714355	0.092212	-0.016118	0.036106	0.762005	0.251025	-0.515008	0.301831	11.785706	-69.457353	35.032661
21954		9.233523	-0.889161	3.528528	1.054292	-1.196910	-0.017028	-0.481550	0.075996	-0.060631	-0.786865	-0.196777	-0.716553	0.092346	-0.008835	0.035272	0.762860	0.249189	-0.515442	0.300448	11.561837	-69.415916	34.971108
21955		9.081292	-0.140003	3.272185	0.628145	-0.516812	-0.193178	-0.534039	0.051912	0.006128	-0.787354	-0.190186	-0.716553	0.090821	-0.001310	0.032702	0.763622	0.246993	-0.516129	0.299143	11.211676	-69.394828	35.009204
21956		8.724362	0.475353	2.878794	0.328209	0.128482	-0.620101	-0.546259	0.056359	0.045649	-0.785400	-0.183594	-0.714355	0.087251	0.004852	0.028750	0.764336	0.244663	-0.516860	0.297969	10.798662	-69.376315	35.110104
21957		8.125745	0.996261	2.594301	-0.037955	0.588377	-1.245133	-0.537159	0.099739	0.056471	-0.790039	-0.181396	-0.720947	0.081268	0.010055	0.025876	0.765135	0.242249	-0.517428	0.296903	10.358176	-69.334097	35.242750
21958		7.451505	1.167688	2.557209	-0.331773	0.621616	-1.879768	-0.561728	0.169741	0.040459	-0.785645	-0.181152	-0.723389	0.074534	0.011764	0.025476	0.766157	0.239701	-0.517734	0.295803	9.915014	-69.250575	35.366466
21959		6.896447	1.143213	2.516229	-0.446952	0.544623	-2.416547	-0.594255	0.208886	0.018144	-0.785889	-0.172363	-0.732178	0.068990	0.011513	0.025056	0.767349	0.237008	-0.517910	0.294570	9.475385	-69.142189	35.464179
21960		6.507321	0.940859	2.298094	-0.272499	0.490658	-2.870309	-0.595392	0.209184	-0.008802	-0.785889	-0.172363	-0.734375	0.065098	0.009474	0.022885	0.768571	0.234395	-0.518046	0.293235	9.080826	-69.031167	35.515384
21961		6.446569	0.752358	2.099213	-0.024014	0.495435	-3.009384	-0.534955	0.190613	-0.042308	-0.786377	-0.165527	-0.738770	0.064487	0.007566	0.020910	0.769724	0.232106	-0.518121	0.291893	8.773327	-68.926699	35.507544
21962		6.629950	0.173565	2.072056	0.451574	0.149403	-2.880623	-0.512221	0.175946	-0.071528	-0.781982	-0.163330	-0.736572	0.066318	0.001765	0.020658	0.770841	0.230020	-0.518181	0.290489	8.529473	-68.828904	35.448348
21963		7.043948	-0.283350	2.092282	0.877051	-0.097057	-2.512243	-0.482599	0.149710	-0.085183	-0.780273	-0.154297	-0.736572	0.070454	-0.002813	0.020877	0.771878	0.228101	-0.518281	0.289067	8.325973	-68.744267	35.361425
21964		7.293979	-0.705127	1.975049	1.318791	-0.268071	-2.343479	-0.477967	0.109103	-0.087339	-0.780029	-0.156494	-0.743164	0.072947	-0.007036	0.019728	0.772794	0.226282	-0.518523	0.287610	8.140198	-68.683237	35.260894
21965		7.405395	-0.985916	1.734112	1.703601	-0.289811	-2.340552	-0.454491	0.085043	-0.075140	-0.780273	-0.152100	-0.740967	0.074058	-0.009848	0.017332	0.773607	0.224533	-0.518838	0.286223	7.951679	-68.636370	35.174748
21966		7.408497	-1.131806	1.622522	1.878365	-0.320821	-2.385157	-0.429043	0.132689	-0.074158	-0.780762	-0.143311	-0.738770	0.074092	-0.011311	0.016200	0.774502	0.222833	-0.518928	0.284966	7.770591	-68.563225	35.099212
21967		7.424753	-0.999184	1.696796	1.747215	-0.261204	-2.337165	-0.377632	0.184321	-0.078879	-0.769287	-0.147217	-0.749756	0.074259	-0.009989	0.016918	0.775480	0.221249	-0.518744	0.283874	7.611892	-68.460556	35.028527
21968		7.398997	-0.722955	1.715598	1.548610	-0.066508	-2.342181	-0.324950	0.194794	-0.083387	-0.774170	-0.138428	-0.747559	0.074004	-0.007233	0.017096	0.776426	0.219885	-0.518431	0.282918	7.492174	-68.351591	34.951029
21969		7.288662	-0.581585	1.638157	1.482067	0.072115	-2.467985	-0.290246	0.191897	-0.082754	-0.773926	-0.143066	-0.745361	0.072900	-0.005822	0.016320	0.777335	0.218632	-0.518078	0.282039	7.388051	-68.243197	34.874468
21970		7.246187	-0.670622	1.782557	1.437701	-0.087632	-2.460150	-0.231219	0.162595	-0.065941	-0.769287	-0.147217	-0.754150	0.072474	-0.006710	0.017774	0.778066	0.217631	-0.517773	0.281357	7.303374	-68.153910	34.816960
21971		7.145744	-0.684159	2.101378	1.202602	-0.314521	-2.437029	-0.191558	0.089239	-0.041770	-0.771729	-0.142822	-0.747559	0.071465	-0.006836	0.020988	0.778533	0.216815	-0.517722	0.280787	7.219056	-68.107544	34.782146
21972		6.913048	-0.778056	2.243260	1.095176	-0.521520	-2.604607	-0.181108	-0.016155	-0.033934	-0.769531	-0.142822	-0.751953	0.069127	-0.007772	0.022445	0.778700	0.216177	-0.518076	0.280164	7.150082	-68.122222	34.738623
21973		7.131374	-0.823876	2.198782	1.214780	-0.485664	-2.419559	-0.142908	-0.157456	-0.028698	-0.774170	-0.143066	-0.747559	0.071295	-0.008233	0.022050	0.778453	0.215864	-0.518931	0.279506	7.119459	-68.217326	34.676451
21974		7.803117	-0.600547	2.293208	1.192081	-0.246613	-1.748806	-0.084401	-0.282652	-0.012051	-0.776611	-0.136475	-0.745361	0.077998	-0.006000	0.023045	0.777792	0.215918	-0.520209	0.278930	7.122540	-68.385090	34.615069
21975		8.674773	-0.254566	2.386844	1.142359	0.120821	-0.885546	-0.073459	-0.314916	-0.004647	-0.771973	-0.140625	-0.745361	0.086710	-0.002539	0.024006	0.777022	0.216033	-0.521607	0.278376	7.125862	-68.571858	34.559394
21976		9.252878	0.050791	2.299383	1.152192	0.508293	-0.361787	-0.110742	-0.282587	0.004245	-0.776611	-0.136475	-0.740967	0.092496	0.000523	0.023124	0.776362	0.215941	-0.522936	0.277794	7.091078	-68.740746	34.522611
21977		9.506555	0.453569	1.631469	1.400812	1.266590	-0.342977	-0.158618	-0.301417	0.028340	-0.785889	-0.132324	-0.740967	0.095040	0.004562	0.016454	0.775674	0.215616	-0.524427	0.277155	6.995182	-68.921365	34.520766
21978		9.838537	0.453128	1.007382	1.903882	1.709355	-0.248682	-0.210173	-0.347909	0.068143	-0.785645	-0.136719	-0.732178	0.098366	0.004576	0.010240	0.774857	0.215060	-0.526213	0.276488	6.819473	-69.131857	34.573987
21979		10.221742	0.369450	0.865618	2.135988	1.798981	0.065111	-0.237479	-0.345513	0.118947	-0.788086	-0.130127	-0.727783	0.102200	0.003766	0.008828	0.774000	0.214254	-0.528084	0.275947	6.546940	-69.344670	34.713220
21980		10.499324	0.204729	0.579754	2.487381	1.897696	0.228497	-0.232696	-0.336254	0.142919	-0.788330	-0.123535	-0.725586	0.104982	0.002129	0.005972	0.773126	0.213396	-0.529931	0.275520	6.236608	-69.553116	34.896284
21981		10.688503	-0.425164	0.069660	3.274631	1.765527	0.216734	-0.184876	-0.308026	0.123006	-0.788086	-0.132324	-0.723389	0.106886	-0.004185	0.000865	0.772297	0.212729	-0.531585	0.275173	5.972752	-69.744578	35.058086
21982		10.401252	-1.025275	-0.164572	3.721014	1.388136	-0.143593	-0.041155	-0.227581	0.053775	-0.790527	-0.125977	-0.721191	0.104017	-0.010225	-0.001525	0.771626	0.212696	-0.532650	0.275024	5.884893	-69.885290	35.120611
21983		10.428479	-1.388670	1.343482	2.884073	0.168539	0.392223	0.169746	-0.203934	-0.002591	-0.792725	-0.125977	-0.716553	0.104271	-0.013900	0.013529	0.770866	0.213600	-0.533272	0.275248	6.002417	-70.009399	35.093993
21984		11.867576	-0.708780	4.543643	0.574592	-1.046602	2.858572	0.351263	-0.215651	0.042332	-0.792480	-0.130371	-0.718750	0.118628	-0.007143	0.045552	0.769820	0.215093	-0.533736	0.276112	6.155569	-70.142676	35.139213
21985		13.733633	1.167597	7.620562	-2.311709	-1.201959	5.719866	0.313104	-0.008742	0.234131	-0.794922	-0.125977	-0.718750	0.137319	0.011717	0.076230	0.769096	0.215642	-0.533663	0.277837	5.948393	-70.169974	35.544455
21986		14.050020	3.353087	9.954001	-5.326157	-0.935647	6.875173	0.124149	0.054418	0.536401	-0.797363	-0.121582	-0.712158	0.140437	0.033846	0.099523	0.768323	0.214567	-0.533930	0.280283	5.144807	-70.176449	36.468344
21987		12.809273	3.928149	11.230665	-7.016504	-1.497931	6.129678	-0.206072	-0.204765	0.778949	-0.795654	-0.112793	-0.714355	0.127823	0.039895	0.112397	0.766860	0.211931	-0.535915	0.282499	3.791678	-70.336422	37.773876
21988		9.673532	3.458378	6.252442	-4.146656	0.696635	1.454496	-0.422434	-0.257495	0.839969	-0.804932	-0.106445	-0.707764	0.096508	0.035122	0.062575	0.765385	0.208378	-0.538455	0.284306	2.200534	-70.516520	39.199779
21989		6.885046	-0.061630	3.321078	-0.541358	-0.651568	-2.215360	-0.099333	-0.010001	0.715570	-0.800781	-0.099609	-0.709961	0.068850	-0.000353	0.033214	0.764399	0.206038	-0.539454	0.286762	0.963418	-70.541573	40.445389
21990		7.239249	-2.817657	4.617902	0.426426	-3.425793	-1.460862	0.458292	-0.221837	0.601295	-0.800781	-0.099609	-0.703369	0.072426	-0.028065	0.046195	0.762423	0.206441	-0.540332	0.290060	0.230814	-70.679655	41.494479
21991		9.816170	-3.365149	5.259725	0.954582	-3.662627	1.188221	0.814991	-0.456448	0.650920	-0.807617	-0.097656	-0.698975	0.098151	-0.033547	0.052684	0.759351	0.208407	-0.541627	0.294267	-0.396301	-70.948341	42.647522
21992		13.597019	-3.175586	5.872656	1.264364	-3.059614	4.968761	1.080488	-0.411779	0.875668	-0.816406	-0.102295	-0.701172	0.135987	-0.031478	0.058836	0.755763	0.210696	-0.542572	0.300075	-1.270729	-71.184230	44.220531
21993		16.781107	-3.169279	6.600878	1.414983	-2.751517	8.233007	0.823446	-0.254439	1.075368	-0.816650	-0.095703	-0.692383	0.167895	-0.031062	0.066094	0.752531	0.211226	-0.543494	0.306097	-2.650861	-71.316556	46.170738
21994		14.704395	-2.533842	5.086397	1.488199	-1.683752	5.790514	0.461938	0.231815	0.939112	-0.810059	-0.093262	-0.701172	0.147220	-0.024765	0.050636	0.751187	0.210012	-0.542971	0.311120	-3.967150	-71.159909	47.834499
21995		10.348802	-2.032703	4.613167	0.510953	-1.949686	1.520790	0.483254	0.643075	0.671996	-0.814697	-0.091064	-0.709961	0.103703	-0.020090	0.045750	0.751330	0.208953	-0.540577	0.315624	-4.746248	-70.770032	48.945332
21996		9.556038	-0.963900	6.307215	-1.540904	-2.436542	1.310115	0.627351	0.176357	0.442003	-0.816650	-0.095703	-0.703369	0.095637	-0.009625	0.062958	0.750410	0.209794	-0.539455	0.319156	-5.105153	-70.654477	49.700473
21997		11.129596	-0.018759	5.748290	-1.492267	-1.005880	2.583778	0.621550	-0.240453	0.203024	-0.818604	-0.100098	-0.703369	0.111227	-0.000254	0.057616	0.748739	0.211920	-0.539650	0.321338	-5.139132	-70.788310	50.108014
21998		11.641139	1.220269	3.901482	-1.028360	1.193795	2.424306	0.685091	-0.050996	0.043079	-0.813965	-0.106689	-0.705566	0.116399	0.012094	0.039086	0.747763	0.214409	-0.538856	0.323286	-4.846799	-70.822126	50.208184
21999		10.254618	2.016115	3.626642	-1.684526	1.571276	1.007098	0.759596	0.389223	-0.011181	-0.804688	-0.108643	-0.707764	0.102618	0.020018	0.036143	0.747969	0.216614	-0.536225	0.325705	-4.363293	-70.607133	50.152246
22000		8.840289	2.508304	4.240087	-2.705148	1.135210	-0.126929	0.778187	0.433115	-0.050190	-0.810791	-0.124268	-0.707764	0.088501	0.024896	0.042306	0.748323	0.218911	-0.533352	0.328063	-3.808240	-70.368606	50.030476
22001		8.639102	2.600976	3.920951	-2.574522	1.347412	-0.414325	0.725632	0.171194	-0.065217	-0.802002	-0.121826	-0.709961	0.086433	0.025839	0.039229	0.748051	0.221486	-0.531511	0.329939	-3.290121	-70.279292	49.917182
22002		9.263871	2.396560	3.228959	-1.823186	1.816621	-0.047197	0.715115	0.075449	-0.043653	-0.808105	-0.130859	-0.705566	0.092656	0.023830	0.032340	0.747489	0.224112	-0.530072	0.331751	-2.825464	-70.244508	49.852885
22003		9.429636	1.865309	2.964369	-1.209544	1.663977	0.033786	0.752252	0.238858	-0.007038	-0.810303	-0.135498	-0.709961	0.094332	0.018538	0.029601	0.747248	0.226510	-0.527987	0.333981	-2.385411	-70.114596	49.838305
22004		8.926623	1.157575	3.087633	-0.846464	0.970236	-0.384004	0.817215	0.421121	0.015955	-0.803467	-0.135254	-0.709961	0.089330	0.011457	0.030735	0.747362	0.228777	-0.525136	0.336665	-1.937857	-69.880275	49.854356
22005		8.233866	0.437485	3.163711	-0.473790	0.261099	-0.997689	0.776331	0.427910	-0.022928	-0.805176	-0.148682	-0.712158	0.082407	0.004243	0.031477	0.747589	0.230979	-0.522274	0.339100	-1.458114	-69.642955	49.811595
22006		7.800117	-0.169103	3.043703	-0.001942	-0.168402	-1.439752	0.753043	0.314353	-0.098341	-0.804688	-0.157471	-0.712158	0.078048	-0.001844	0.030308	0.747663	0.233477	-0.519779	0.341053	-0.885540	-69.471264	49.655029
22007		7.662731	-0.493393	2.732444	0.442752	-0.200372	-1.676914	0.720213	0.278371	-0.155303	-0.797852	-0.159424	-0.714355	0.076661	-0.005092	0.027200	0.747759	0.236076	-0.517400	0.342668	-0.249304	-69.320917	49.412553
22008		7.378078	-0.408530	2.542200	0.469989	-0.085533	-2.012857	0.693880	0.365674	-0.169367	-0.792480	-0.174805	-0.716553	0.073824	-0.004236	0.025273	0.748133	0.238442	-0.514716	0.344252	0.384107	-69.118630	49.154316
22009		6.838172	-0.192990	2.480702	0.258325	-0.041302	-2.540608	0.653042	0.446315	-0.138220	-0.790039	-0.179199	-0.718750	0.068435	-0.002058	0.024648	0.748694	0.240449	-0.511823	0.345946	0.940806	-68.869600	48.954993
22010		6.462336	0.017628	2.503964	0.032156	-0.014351	-2.882278	0.629891	0.464719	-0.079806	-0.785400	-0.185791	-0.720947	0.064681	0.000072	0.024890	0.749222	0.242168	-0.508970	0.347808	1.386777	-68.609903	48.857711
22011		6.350934	0.277195	2.471661	-0.142449	0.154551	-2.995352	0.609778	0.409498	-0.029359	-0.787354	-0.187988	-0.723389	0.063560	0.002688	0.024595	0.749531	0.243797	-0.506403	0.349746	1.748685	-68.382486	48.841310
22012		6.650204	0.641150	2.495952	-0.338348	0.459824	-2.703532	0.599082	0.354214	-0.004928	-0.784912	-0.194580	-0.723389	0.066546	0.006335	0.024861	0.749665	0.245397	-0.504095	0.351668	2.064080	-68.187060	48.865272
22013		6.930810	0.986864	2.538698	-0.539173	0.732162	-2.421598	0.594871	0.337731	0.008814	-0.782471	-0.196777	-0.729980	0.069350	0.009796	0.025299	0.749722	0.246994	-0.501864	0.353615	2.359406	-68.002256	48.911262
22014		6.955375	1.254658	2.382782	-0.630430	1.027858	-2.452315	0.557974	0.369117	0.041000	-0.777832	-0.203125	-0.729980	0.069595	0.012495	0.023734	0.749846	0.248292	-0.499618	0.355616	2.581284	-67.799530	49.010799
22015		6.852174	1.420240	2.460509	-0.811144	1.055083	-2.515272	0.513983	0.378743	0.069049	-0.770996	-0.205078	-0.729980	0.068563	0.014163	0.024512	0.749987	0.249352	-0.497438	0.357628	2.740666	-67.592394	49.153157
22016		6.876615	1.415938	2.654359	-0.895493	0.928888	-2.418530	0.456756	0.339365	0.092380	-0.777344	-0.209717	-0.734375	0.068805	0.014131	0.026459	0.750058	0.250191	-0.495539	0.359525	2.834672	-67.408337	49.328615
22017		7.080160	1.582598	2.786739	-1.036541	1.003834	-2.176126	0.413781	0.294312	0.088302	-0.766113	-0.209473	-0.734375	0.070836	0.015800	0.027796	0.750067	0.250978	-0.493871	0.361250	2.917010	-67.250354	49.492928
22018		7.212715	1.817746	2.929785	-1.257903	1.090703	-1.993536	0.350641	0.254162	0.094268	-0.766357	-0.207275	-0.736572	0.072156	0.018160	0.029238	0.750047	0.251564	-0.492478	0.362781	2.954968	-67.115281	49.663639
22019		7.147711	1.805839	3.007140	-1.300208	1.014504	-2.023339	0.289247	0.190152	0.100091	-0.768311	-0.214111	-0.729980	0.071497	0.018051	0.030030	0.749933	0.252030	-0.491436	0.364104	2.957205	-67.016732	49.836369
22020		6.846606	1.834603	2.898421	-1.337306	1.024818	-2.342481	0.247493	0.046960	0.115344	-0.768555	-0.209473	-0.732178	0.068462	0.018350	0.028991	0.749490	0.252554	-0.491032	0.365197	2.923298	-67.000844	50.021166
22021		6.688987	1.940798	2.642480	-1.328791	1.223834	-2.585761	0.213035	-0.178619	0.131231	-0.775146	-0.211914	-0.732178	0.066853	0.019424	0.026505	0.748497	0.253338	-0.491554	0.365986	2.865629	-67.115499	50.212575
22022		7.154397	1.756674	2.166400	-0.824507	1.585589	-2.344716	0.167998	-0.408108	0.131972	-0.779541	-0.209961	-0.718750	0.071488	0.017596	0.021825	0.747002	0.254353	-0.493017	0.366369	2.792330	-67.360359	50.390385
22023		8.117010	1.339419	1.892416	-0.135001	1.793253	-1.564842	0.150415	-0.551380	0.105303	-0.779541	-0.209961	-0.723389	0.081110	0.013423	0.019158	0.745206	0.255646	-0.495018	0.366429	2.753908	-67.688440	50.521271
22024		9.198239	0.620489	1.780141	0.726240	1.722719	-0.611272	0.141529	-0.599064	0.067644	-0.783936	-0.212402	-0.716553	0.091926	0.006223	0.018081	0.743379	0.257067	-0.497152	0.366257	2.762987	-68.040724	50.592974
22025		10.175652	0.055570	1.290845	1.641886	1.985417	0.115820	0.111573	-0.611735	0.015306	-0.792969	-0.212646	-0.714355	0.101716	0.000556	0.013220	0.741640	0.258539	-0.499317	0.365799	2.831654	-68.399743	50.583193
22026		11.430164	0.043944	0.710288	2.227522	2.715252	1.087781	0.093952	-0.629817	-0.060885	-0.792969	-0.212646	-0.701172	0.114279	0.000401	0.007463	0.740018	0.260155	-0.501477	0.364985	3.003296	-68.765950	50.450636
22027		12.646440	0.401523	0.633434	2.232307	3.263353	2.223167	0.094383	-0.556344	-0.141895	-0.795166	-0.212891	-0.694580	0.126449	0.003922	0.006688	0.738710	0.261853	-0.503258	0.363967	3.297132	-69.088853	50.189315
22028		13.036484	1.169417	0.637751	1.685517	3.769581	2.624083	0.065209	-0.341214	-0.162210	-0.797119	-0.215088	-0.696777	0.130363	0.011586	0.006604	0.738024	0.263087	-0.504263	0.363076	3.591415	-69.286054	49.908478
22029		12.302560	2.083270	0.590773	0.808828	4.120672	1.951999	0.024884	-0.082722	-0.109857	-0.797119	-0.215088	-0.698975	0.123035	0.020764	0.005961	0.737937	0.263582	-0.504461	0.362619	3.763415	-69.338402	49.735183
22030		11.315260	2.615599	0.717558	0.090966	4.069274	1.087959	-0.042235	0.020046	-0.043859	-0.792725	-0.215088	-0.694580	0.113159	0.026133	0.007159	0.738087	0.263465	-0.504483	0.362369	3.785672	-69.332949	49.679557
22031		10.982862	2.897016	1.338359	-0.551672	3.680256	1.002049	-0.117200	-0.006701	-0.021147	-0.790527	-0.214844	-0.696777	0.109831	0.028966	0.013370	0.738223	0.263069	-0.504771	0.361977	3.734576	-69.344332	49.657016
22032		12.101334	2.638623	3.514504	-1.292921	2.187143	2.808767	-0.057857	0.039402	-0.066380	-0.790527	-0.217041	-0.696777	0.121029	0.026356	0.035114	0.738483	0.262916	-0.504720	0.361630	3.780100	-69.326974	49.566957
22033		13.361861	0.805065	7.145394	-1.522669	-1.298878	5.228529	0.077706	0.347014	-0.211220	-0.792480	-0.219482	-0.698975	0.133751	0.007882	0.071225	0.739600	0.263083	-0.503093	0.361493	4.091904	-69.128177	49.276174
22034		12.439340	-1.144902	10.001447	-1.696196	-4.860032	5.339192	0.101394	0.283782	-0.416673	-0.785889	-0.219238	-0.696777	0.124511	-0.011759	0.099832	0.740895	0.263956	-0.501387	0.360571	4.721221	-68.955431	48.658496
22035		10.449132	-3.206198	7.636965	0.845070	-4.875405	2.568881	0.145925	0.017511	-0.489620	-0.785400	-0.225830	-0.707764	0.104419	-0.032373	0.076337	0.741586	0.265668	-0.500490	0.359138	5.513253	-68.929036	47.894645
22036		9.085786	-4.022704	6.421037	1.888027	-4.846400	0.813262	0.324510	0.026994	-0.434301	-0.782959	-0.232422	-0.701172	0.090779	-0.040528	0.064133	0.741965	0.267873	-0.499305	0.358367	6.319908	-68.895834	47.223376
22037		8.440788	-2.559491	6.466650	0.573260	-4.211583	0.264472	0.345161	-0.257847	-0.318299	-0.784668	-0.241455	-0.701172	0.084283	-0.025841	0.064731	0.741393	0.270377	-0.499288	0.357692	7.018048	-69.028908	46.681722
22038		8.384662	-0.967030	4.223078	0.523506	-1.614165	-0.528701	0.037220	-0.293470	-0.246411	-0.787109	-0.237061	-0.698975	0.083773	-0.009781	0.042352	0.741015	0.271619	-0.500052	0.356466	7.445108	-69.185877	46.241449
22039		8.297672	0.990315	3.991477	-0.935759	-0.317264	-0.604667	-0.217884	-0.171377	-0.285656	-0.784912	-0.239258	-0.692383	0.082957	0.009828	0.039975	0.741356	0.271800	-0.500758	0.354622	7.767505	-69.269035	45.757926
22040		9.210625	2.379944	5.170523	-2.461794	-0.166474	0.729886	-0.449615	-0.258688	-0.492059	-0.791504	-0.241699	-0.690186	0.092098	0.023689	0.051771	0.742152	0.271786	-0.501919	0.351311	8.288117	-69.384419	44.920170
22041		11.316613	2.990181	5.851959	-2.780123	0.166045	2.973838	-0.630786	-0.478478	-0.897329	-0.793701	-0.241699	-0.690186	0.113159	0.029579	0.058697	0.743333	0.272508	-0.503649	0.345736	9.382987	-69.584758	43.360705
22042		12.925731	3.694642	5.549372	-2.698917	1.132218	4.433468	-0.605755	-0.368687	-1.234759	-0.784668	-0.243652	-0.692383	0.129380	0.036316	0.055622	0.745311	0.273959	-0.504448	0.339102	10.996182	-69.675666	41.263737
22043		12.204283	3.448187	5.232190	-2.406447	0.995399	3.656797	-0.525431	0.250644	-1.159294	-0.784180	-0.252441	-0.701172	0.122306	0.033910	0.052079	0.748581	0.274459	-0.502880	0.333783	12.346714	-69.408546	39.495111
22044		10.111431	1.914196	5.385940	-1.761009	-0.553651	1.654878	-0.508713	0.487401	-0.912319	-0.781738	-0.256836	-0.698975	0.101331	0.018817	0.053564	0.751981	0.273993	-0.500721	0.329744	13.221087	-69.028824	38.242172
22045		9.215614	1.539967	5.586863	-1.772686	-1.133885	0.868315	-0.518760	0.110724	-0.683962	-0.777344	-0.254395	-0.705566	0.092239	0.015229	0.055778	0.754059	0.273536	-0.500288	0.326014	13.863105	-68.882917	37.230393
22046		10.202507	0.880725	5.010281	-0.631283	-0.923085	1.532757	-0.649951	-0.129321	-0.455116	-0.777344	-0.254395	-0.701172	0.102013	0.008738	0.050140	0.755327	0.272394	-0.501285	0.322485	14.178562	-68.900004	36.487073
22047		11.000546	0.349242	4.373382	0.373667	-0.634434	2.007563	-0.670205	-0.043125	-0.253128	-0.781738	-0.254639	-0.707764	0.110000	0.003500	0.043746	0.756505	0.270527	-0.502253	0.319779	14.161515	-68.896278	36.087776
22048		10.685054	-0.110338	4.041728	0.820517	-0.747417	1.557722	-0.710593	0.150996	-0.140386	-0.770996	-0.249756	-0.709961	0.106880	-0.001035	0.040340	0.758031	0.267909	-0.502700	0.317658	13.887895	-68.801224	35.938616
22049		9.919497	-0.752739	3.849739	1.190636	-1.169442	0.722884	-0.661746	0.201211	-0.100994	-0.780273	-0.241211	-0.714355	0.099230	-0.007450	0.038422	0.759549	0.265302	-0.502916	0.315873	13.571425	-68.682782	35.866503
22050		9.757110	-1.442634	3.599418	1.800990	-1.462885	0.427166	-0.617897	0.102644	-0.098162	-0.776367	-0.232178	-0.714355	0.097583	-0.014363	0.035989	0.760744	0.263000	-0.503445	0.314074	13.308256	-68.620851	35.762945
22051		9.846444	-1.913710	3.260945	2.370849	-1.507867	0.353625	-0.563644	0.081626	-0.102044	-0.776123	-0.236572	-0.714355	0.098468	-0.019095	0.032623	0.761816	0.260936	-0.503962	0.312362	13.087861	-68.570274	35.645764
22052		9.715507	-1.898783	3.127312	2.394740	-1.425106	0.187854	-0.532672	0.136967	-0.095701	-0.778564	-0.229980	-0.718750	0.097167	-0.018951	0.031257	0.762969	0.258894	-0.504221	0.310826	12.859481	-68.489804	35.557210
22053		9.368664	-1.368442	3.087246	1.922011	-1.102447	-0.103617	-0.535421	0.184058	-0.053511	-0.771973	-0.227539	-0.729980	0.093711	-0.013627	0.030823	0.764170	0.256664	-0.504356	0.309504	12.556338	-68.388771	35.547950
22054		9.037632	-0.512780	3.087935	1.192084	-0.575605	-0.340378	-0.572229	0.179405	0.008726	-0.776855	-0.218750	-0.729980	0.090404	-0.005036	0.030813	0.765306	0.254136	-0.504640	0.308317	12.146413	-68.297704	35.630228
22055		8.592362	0.189697	2.982591	0.605156	-0.094567	-0.736053	-0.564267	0.163441	0.067650	-0.774902	-0.216309	-0.736572	0.085947	0.002010	0.029750	0.766300	0.251505	-0.505040	0.307350	11.663744	-68.221431	35.794791
22056		8.014530	0.794243	2.744408	0.133756	0.388043	-1.314056	-0.561920	0.174412	0.104480	-0.768799	-0.205078	-0.736572	0.080165	0.008061	0.027352	0.767249	0.248778	-0.505440	0.306543	11.131214	-68.143517	36.015589
22057		7.513496	1.075829	2.579763	-0.123033	0.616733	-1.820839	-0.585241	0.187468	0.112784	-0.770996	-0.205078	-0.740967	0.075153	0.010876	0.025695	0.768249	0.245903	-0.505828	0.305717	10.570367	-68.057283	36.250731
22058		7.093358	1.157033	2.490756	-0.254944	0.672488	-2.240304	-0.587364	0.224765	0.095416	-0.775635	-0.200928	-0.743164	0.070956	0.011677	0.024794	0.769355	0.243020	-0.506053	0.304868	10.028717	-67.948497	36.465919
22059		6.738659	0.900898	2.392445	-0.116664	0.513248	-2.624654	-0.579352	0.268042	0.082124	-0.764893	-0.193848	-0.740967	0.067415	0.009106	0.023808	0.770578	0.240128	-0.506075	0.304035	9.502801	-67.812660	36.668676
22060		6.420427	0.462151	2.259446	0.185043	0.253208	-2.997840	-0.546399	0.276483	0.065116	-0.765137	-0.189209	-0.751953	0.064234	0.004704	0.022493	0.771796	0.237396	-0.505991	0.303228	9.022268	-67.670393	36.843587
22061		6.531550	0.019688	2.337880	0.483208	-0.060463	-2.892425	-0.525246	0.248378	0.052246	-0.765381	-0.182617	-0.747559	0.065344	0.000275	0.023297	0.772937	0.234811	-0.505958	0.302388	8.580749	-67.541357	36.988850
22062		6.797204	-0.355570	2.382452	0.798257	-0.272362	-2.650770	-0.534814	0.201010	0.061310	-0.758545	-0.184570	-0.749756	0.067997	-0.003471	0.023766	0.773943	0.232243	-0.506134	0.301501	8.134667	-67.440528	37.133970
22063		7.046844	-0.577611	2.159920	1.168722	-0.205045	-2.515502	-0.529765	0.161704	0.063151	-0.763184	-0.180420	-0.751953	0.070488	-0.005697	0.021557	0.774836	0.229749	-0.506449	0.300588	7.699450	-67.361262	37.270829
22064		7.192475	-0.844090	1.968067	1.517624	-0.217685	-2.466472	-0.499445	0.156747	0.071204	-0.757080	-0.171143	-0.756348	0.071943	-0.008366	0.019645	0.775662	0.227356	-0.506747	0.299774	7.272877	-67.285482	37.416946
22065		7.137427	-0.887785	1.844479	1.607074	-0.164749	-2.565393	-0.460719	0.185770	0.058857	-0.757324	-0.162354	-0.760986	0.071394	-0.008814	0.018399	0.776533	0.225104	-0.506851	0.299043	6.883555	-67.191382	37.547686
22066		7.033613	-0.832738	1.773653	1.581062	-0.088240	-2.685034	-0.422803	0.181045	0.044308	-0.759521	-0.164551	-0.765381	0.070354	-0.008274	0.017690	0.777364	0.223037	-0.506903	0.298343	6.536962	-67.099220	37.654853
22067		6.955327	-0.859505	1.696942	1.624088	-0.063627	-2.787503	-0.357560	0.140027	0.033282	-0.757813	-0.155762	-0.763184	0.069567	-0.008553	0.016936	0.778038	0.221305	-0.506998	0.297716	6.249466	-67.028469	37.737705
22068		6.928034	-0.935924	1.667625	1.685030	-0.097513	-2.826577	-0.302798	0.088152	0.022498	-0.760010	-0.155762	-0.765381	0.069289	-0.009326	0.016660	0.778526	0.219897	-0.507204	0.297129	6.017165	-66.987476	37.795517
22069		6.893742	-1.047903	1.852444	1.625365	-0.300405	-2.789776	-0.248731	0.034685	0.014658	-0.760010	-0.153564	-0.760986	0.068941	-0.010451	0.018525	0.778832	0.218790	-0.507529	0.296588	5.832842	-66.976153	37.833999
22070		6.801312	-1.083630	1.908541	1.577231	-0.383582	-2.852814	-0.213963	-0.068094	-0.002588	-0.753174	-0.155518	-0.763184	0.068006	-0.010817	0.019120	0.778862	0.218023	-0.508183	0.295957	5.706965	-67.022642	37.831493
22071		6.936209	-1.200845	1.752527	1.790171	-0.343237	-2.791162	-0.167867	-0.219397	-0.014868	-0.764648	-0.151367	-0.763184	0.069342	-0.011999	0.017611	0.778473	0.217692	-0.509341	0.295232	5.644675	-67.154545	37.789165
22072		7.470585	-1.373823	1.652158	2.120490	-0.293162	-2.339792	-0.109058	-0.344550	-0.024766	-0.758057	-0.151367	-0.751953	0.074676	-0.013738	0.016658	0.777714	0.217797	-0.510889	0.294479	5.646027	-67.357415	37.713883
22073		8.300145	-1.262522	1.952462	2.074301	-0.229107	-1.449484	-0.053392	-0.373823	-0.014738	-0.760010	-0.153564	-0.747559	0.082964	-0.012626	0.019683	0.776799	0.218138	-0.512479	0.293876	5.670532	-67.577840	37.648739
22074		9.159384	-0.851102	2.406677	1.725868	-0.039931	-0.462260	-0.044431	-0.325818	-0.002521	-0.766846	-0.151611	-0.747559	0.091554	-0.008507	0.024218	0.775980	0.218408	-0.513880	0.293393	5.677137	-67.771275	37.608035
22075		9.664104	-0.342518	2.411272	1.503134	0.426579	0.030330	-0.105617	-0.300680	0.005513	-0.771240	-0.156250	-0.745361	0.096605	-0.003410	0.024260	0.775274	0.218394	-0.515280	0.292816	5.635831	-67.951205	37.582903
22076		9.925330	-0.134839	1.686992	1.896954	1.082616	0.016132	-0.171702	-0.372318	0.024439	-0.773926	-0.145264	-0.745361	0.099222	-0.001322	0.017056	0.774429	0.218168	-0.517074	0.292057	5.537791	-68.172684	37.576511
22077		10.344863	-0.303172	1.002980	2.558528	1.468781	0.157794	-0.196914	-0.454502	0.071845	-0.773926	-0.145264	-0.738770	0.103427	-0.002985	0.010268	0.773320	0.217851	-0.519272	0.291331	5.368867	-68.444230	37.632457
22078		10.713200	-0.338999	0.818833	2.773735	1.622177	0.445619	-0.154909	-0.380604	0.121220	-0.780518	-0.145508	-0.736572	0.107118	-0.003319	0.008395	0.772286	0.217449	-0.521174	0.290978	5.137815	-68.675524	37.779324
22079		10.678134	-0.887386	1.191522	2.846649	0.962102	0.541085	-0.105737	-0.219171	0.141075	-0.778564	-0.140869	-0.732178	0.106774	-0.008792	0.012037	0.771583	0.216958	-0.522401	0.291009	4.882290	-68.816020	37.983766
22080		10.707192	-1.027260	2.371431	2.122506	0.111804	0.994965	-0.030043	-0.098435	0.137232	-0.780762	-0.143311	-0.732178	0.107067	-0.010196	0.023769	0.771122	0.216584	-0.523047	0.291349	4.657285	-68.886504	38.200569
22081		11.021598	-0.206914	4.387743	0.265555	-0.493418	2.038755	-0.084481	-0.027893	0.162325	-0.780762	-0.141113	-0.736572	0.110211	-0.001961	0.043894	0.770862	0.215843	-0.523527	0.291725	4.355818	-68.918136	38.467419
22082		11.745048	1.666569	5.821782	-1.805145	0.150374	3.276828	-0.155235	-0.135146	0.291585	-0.778809	-0.136475	-0.725586	0.117387	0.016882	0.058284	0.770213	0.214636	-0.524661	0.292291	3.830220	-69.014985	38.929254
22083		12.706996	3.128082	5.722041	-2.535225	1.521383	4.160550	-0.194521	-0.552328	0.544606	-0.788086	-0.130127	-0.723389	0.126825	0.031682	0.057540	0.768129	0.213235	-0.527724	0.293286	2.932640	-69.357311	39.766282
22084		12.374924	1.861162	4.279105	-0.897013	1.445845	3.302842	-0.222848	-0.558440	0.683898	-0.790771	-0.121338	-0.718750	0.123564	0.019082	0.043115	0.765845	0.211349	-0.530992	0.294721	1.772696	-69.700648	40.862148
22085		10.177872	-0.595675	4.029253	0.273951	-0.673949	1.125741	-0.063686	-0.075212	0.591079	-0.786377	-0.119141	-0.727783	0.101781	-0.005643	0.040333	0.764794	0.209616	-0.532071	0.296735	0.804568	-69.759821	41.851006
22086		9.302349	-1.366033	5.340156	-0.377303	-2.250864	0.756520	0.223313	-0.216094	0.474823	-0.790771	-0.119141	-0.714355	0.092998	-0.013499	0.053487	0.763240	0.209484	-0.533135	0.298912	0.175415	-69.893340	42.651632
22087		10.532182	-0.729807	4.556218	-0.017031	-1.006967	1.641732	0.403764	-0.716260	0.462309	-0.802246	-0.115234	-0.709961	0.105174	-0.007147	0.045924	0.760170	0.210836	-0.535805	0.301003	-0.342821	-70.310170	43.445349
22088		12.377739	-1.723691	3.997502	1.419808	-0.966389	3.195361	0.627275	-0.576495	0.552579	-0.804443	-0.115234	-0.707764	0.123709	-0.017021	0.040278	0.757085	0.212562	-0.537701	0.304166	-0.906902	-70.644296	44.419228
22089		13.081230	-1.739692	5.506735	0.519058	-1.772412	4.366808	0.789374	0.096586	0.690980	-0.806641	-0.117676	-0.707764	0.130898	-0.017162	0.054936	0.755401	0.213515	-0.536933	0.309004	-1.594810	-70.588105	45.623900
22090		12.309171	-1.335742	7.088133	-1.020425	-2.631664	4.172090	0.732588	0.354986	0.868011	-0.802002	-0.117432	-0.707764	0.123274	-0.013082	0.070614	0.754180	0.213358	-0.535451	0.314617	-2.577192	-70.373872	47.105577
22091		11.111054	-0.329794	7.055335	-1.998484	-2.118838	3.027025	0.557321	0.084589	0.980082	-0.802734	-0.106201	-0.716553	0.111155	-0.002950	0.070498	0.752215	0.212678	-0.535359	0.319893	-3.837065	-70.301336	48.779368
22092		10.629443	0.615564	5.729853	-1.940349	-0.643498	2.104345	0.472670	-0.030105	0.964508	-0.809570	-0.104248	-0.705566	0.106255	0.006533	0.057330	0.750040	0.211878	-0.535807	0.324744	-5.129677	-70.282241	50.434131
22093		10.684878	0.668780	5.276506	-1.716013	-0.243440	1.996256	0.525382	0.091151	0.827208	-0.803223	-0.097412	-0.703369	0.106844	0.006991	0.052734	0.748336	0.211444	-0.535554	0.329344	-6.148965	-70.190319	51.831666
22094		10.812052	0.338892	5.374259	-1.545394	-0.464529	2.157853	0.611884	0.139512	0.601716	-0.802734	-0.104004	-0.705566	0.108147	0.003550	0.053678	0.747026	0.211851	-0.534729	0.333372	-6.743826	-70.078887	52.830984
22095		11.252421	0.484396	5.499578	-1.651362	-0.312992	2.607941	0.744745	0.035490	0.364599	-0.804688	-0.110840	-0.705566	0.112525	0.004844	0.054994	0.745675	0.213564	-0.533809	0.336758	-6.903633	-70.040809	53.449961
22096		11.878059	1.035836	5.598496	-1.988723	0.155821	3.207491	0.792759	-0.019560	0.179140	-0.809082	-0.111084	-0.701172	0.118766	0.010243	0.056037	0.744430	0.216034	-0.532808	0.339513	-6.755913	-70.046399	53.770091
22097		11.659123	1.246614	5.096669	-1.847080	0.559943	2.826138	0.787078	0.120210	0.066585	-0.806641	-0.115479	-0.703369	0.116618	0.012304	0.050945	0.743734	0.218566	-0.531162	0.341988	-6.405567	-69.981254	53.874415
22098		10.860674	1.311100	4.602478	-1.710502	0.708993	1.910257	0.822887	0.223482	0.051399	-0.806396	-0.122070	-0.707764	0.108655	0.012950	0.045957	0.743295	0.221067	-0.529050	0.344599	-5.998186	-69.857511	53.936710
22099		10.465739	1.678668	4.541196	-1.997404	0.873082	1.510744	0.859977	0.176945	0.084238	-0.801514	-0.128418	-0.707764	0.104691	0.016636	0.045391	0.742615	0.223710	-0.527071	0.347379	-5.627424	-69.759128	54.062714
22100		10.355181	2.038480	4.419198	-2.193290	1.149082	1.357968	0.857992	0.161461	0.136791	-0.805664	-0.137451	-0.701172	0.103574	0.020266	0.044195	0.741798	0.226215	-0.525204	0.350319	-5.344397	-69.666357	54.279115
22101		10.193499	1.893942	4.186091	-1.954186	1.162339	1.134819	0.843623	0.227046	0.152820	-0.805664	-0.135254	-0.709961	0.101968	0.018841	0.041825	0.741119	0.228530	-0.523121	0.353357	-5.080689	-69.536525	54.510684
22102		9.956399	1.279680	4.101080	-1.459171	0.756601	0.905737	0.834286	0.282763	0.147010	-0.802979	-0.146240	-0.705566	0.099613	0.012699	0.040923	0.740600	0.230698	-0.520837	0.356397	-4.810379	-69.374719	54.726522
22103		9.627075	0.512733	4.021946	-0.859546	0.232151	0.595324	0.806358	0.302269	0.102906	-0.802734	-0.150879	-0.705566	0.096329	0.005015	0.040094	0.740221	0.232855	-0.518470	0.359222	-4.485120	-69.205206	54.868836
22104		9.253986	0.008723	3.899250	-0.435490	-0.099847	0.219297	0.761505	0.336015	0.023029	-0.802490	-0.155273	-0.712158	0.092605	-0.000050	0.038837	0.740120	0.234972	-0.515957	0.361662	-4.066241	-69.019167	54.881511
22105		8.737383	-0.023127	3.737271	-0.377198	-0.145812	-0.318171	0.706580	0.395459	-0.062420	-0.792725	-0.170410	-0.716553	0.087447	-0.000390	0.037199	0.740367	0.237018	-0.513215	0.363716	-3.546966	-68.804082	54.755778
22106		7.999949	0.208922	3.570491	-0.568142	-0.089041	-1.068527	0.658943	0.434530	-0.101555	-0.794678	-0.175049	-0.709961	0.080078	0.001931	0.035538	0.740842	0.238890	-0.510360	0.365537	-3.004003	-68.565876	54.572216
22107		7.382056	0.522740	3.430918	-0.820090	0.030427	-1.696926	0.624849	0.439285	-0.108885	-0.785889	-0.174561	-0.718750	0.073899	0.005080	0.034163	0.741361	0.240687	-0.507519	0.367258	-2.468896	-68.325597	54.381834
22108		6.989405	0.742064	3.285906	-0.954548	0.159511	-2.114448	0.604474	0.411560	-0.104094	-0.792236	-0.183594	-0.723389	0.069965	0.007285	0.032737	0.741827	0.242399	-0.504831	0.368893	-1.969869	-68.099408	54.211380
22109		6.860119	1.038927	3.135627	-1.097397	0.416149	-2.289709	0.559637	0.385865	-0.092762	-0.785400	-0.185791	-0.716553	0.068666	0.010270	0.031253	0.742243	0.243988	-0.502321	0.370430	-1.515122	-67.887990	54.064479
22110		6.777048	1.256695	2.891339	-1.120919	0.707415	-2.456701	0.497639	0.375699	-0.074567	-0.787109	-0.192383	-0.720947	0.067829	0.012470	0.028817	0.742677	0.245290	-0.499988	0.371853	-1.131926	-67.680990	53.952509
22111		6.850399	1.449792	2.663777	-1.106103	1.019547	-2.473574	0.458617	0.344215	-0.040057	-0.782471	-0.196777	-0.727783	0.068553	0.014423	0.026553	0.742992	0.246452	-0.497885	0.373274	-0.819068	-67.493865	53.896523
22112		6.957375	1.604048	2.463534	-1.074545	1.299114	-2.450306	0.415840	0.296071	-0.005974	-0.775879	-0.194336	-0.732178	0.069611	0.015987	0.024566	0.743189	0.247423	-0.496077	0.374645	-0.585842	-67.331557	53.895921
22113		7.026121	1.626853	2.165385	-0.897953	1.561284	-2.501192	0.367374	0.276881	0.022407	-0.764404	-0.202637	-0.732178	0.070289	0.016237	0.021586	0.743333	0.248202	-0.494458	0.375982	-0.416772	-67.180785	53.937879
22114		6.935366	1.563014	1.900866	-0.711083	1.699624	-2.687996	0.298374	0.266307	0.040624	-0.775391	-0.203125	-0.732178	0.069376	0.015616	0.018940	0.743507	0.248675	-0.493034	0.377194	-0.316596	-67.035361	54.008644
22115		6.789605	1.334590	1.787560	-0.489440	1.611496	-2.867275	0.255333	0.229663	0.032677	-0.777832	-0.203125	-0.732178	0.067914	0.013334	0.017815	0.743653	0.249102	-0.491801	0.378233	-0.225021	-66.910886	54.065893
22116		6.680451	1.174200	1.671746	-0.315040	1.575353	-3.014091	0.219755	0.166556	0.020430	-0.770996	-0.205078	-0.732178	0.066817	0.011730	0.016675	0.743713	0.249520	-0.490869	0.379051	-0.143563	-66.822740	54.108155
22117		6.521466	1.039783	1.419894	-0.101699	1.636474	-3.259950	0.187560	0.105218	-0.003251	-0.770752	-0.207275	-0.740967	0.065222	0.010383	0.014174	0.743694	0.250017	-0.490195	0.379630	-0.045530	-66.771411	54.115418
22118		6.456673	1.300566	1.145452	-0.177395	1.972372	-3.427514	0.189263	0.008032	-0.017101	-0.770996	-0.202881	-0.727783	0.064568	0.012989	0.011464	0.743473	0.250713	-0.489862	0.380034	0.068081	-66.774146	54.103711
22119		6.428557	1.238487	0.966607	-0.040230	2.053238	-3.521654	0.156754	-0.152522	-0.001603	-0.770752	-0.209717	-0.732178	0.064278	0.012377	0.009725	0.742863	0.251572	-0.490205	0.380218	0.145554	-66.869827	54.113138
22120		6.694659	1.292864	0.807837	0.051827	2.273512	-3.334187	0.154507	-0.327424	0.016927	-0.782227	-0.203369	-0.732178	0.066932	0.012928	0.008198	0.741796	0.252693	-0.491226	0.380240	0.194856	-67.064808	54.149688
22121		7.383931	1.488399	1.002759	-0.072498	2.435774	-2.615123	0.096642	-0.458980	0.025699	-0.779785	-0.207764	-0.720947	0.073814	0.014889	0.010204	0.740451	0.253841	-0.492856	0.379987	0.201540	-67.336471	54.198038
22122		8.363882	1.687702	1.519627	-0.314779	2.440257	-1.502570	0.038262	-0.472550	0.019912	-0.781982	-0.205566	-0.718750	0.083601	0.016882	0.015397	0.739162	0.254796	-0.494634	0.379548	0.180106	-67.614613	54.238926
22123		9.065143	1.865653	1.925734	-0.545407	2.425866	-0.692186	-0.008776	-0.356380	0.016442	-0.788818	-0.205811	-0.714355	0.090615	0.018665	0.019418	0.738213	0.255381	-0.496070	0.379125	0.137503	-67.827843	54.274973
22124		9.259662	1.878787	1.922653	-0.529693	2.476290	-0.509185	-0.064611	-0.199833	0.024744	-0.784180	-0.205811	-0.707764	0.092575	0.018806	0.019313	0.737716	0.255425	-0.497039	0.378793	0.047734	-67.949708	54.325879
22125		9.203245	1.810714	1.535908	-0.292075	2.700608	-0.704515	-0.163438	-0.164605	0.034971	-0.780029	-0.201172	-0.714355	0.092017	0.018136	0.015420	0.737402	0.255031	-0.498085	0.378297	-0.111611	-68.053495	54.392268
22126		9.427831	1.868516	1.271157	-0.160838	2.992785	-0.592680	-0.240678	-0.225260	0.015303	-0.784668	-0.196777	-0.714355	0.094262	0.018708	0.012795	0.737081	0.254497	-0.499467	0.377459	-0.291028	-68.189848	54.430988
22127		9.677433	1.753625	1.216678	0.001210	3.029545	-0.377114	-0.360285	-0.258159	-0.014313	-0.789307	-0.194824	-0.712158	0.096760	0.017551	0.012260	0.736885	0.253658	-0.501156	0.376165	-0.497007	-68.345191	54.424199
22128		9.869519	1.719269	1.519053	-0.108633	2.827378	-0.083097	-0.402452	-0.225766	-0.045565	-0.787109	-0.192383	-0.712158	0.098682	0.017201	0.015267	0.736877	0.252679	-0.502763	0.374694	-0.683856	-68.482092	54.371152
22129		10.179146	1.259116	2.457475	-0.200065	1.933177	0.553718	-0.408414	-0.180564	-0.090886	-0.791504	-0.194824	-0.712158	0.101775	0.012595	0.024641	0.737071	0.251708	-0.504156	0.373090	-0.806720	-68.593892	54.245445
22130		11.155343	0.695935	5.400475	-1.174601	-0.320771	2.540796	-0.171061	-0.007833	-0.192352	-0.785156	-0.185791	-0.707764	0.111558	0.006898	0.054003	0.737588	0.251542	-0.504338	0.371933	-0.642714	-68.607046	53.958025
22131		12.319474	-1.111532	10.734384	-2.422521	-5.063363	5.573195	0.066995	-0.085085	-0.415750	-0.789551	-0.190430	-0.707764	0.123126	-0.011407	0.107392	0.738025	0.252964	-0.504080	0.370448	-0.013148	-68.664732	53.317263
22132		14.940156	-5.798394	8.520438	3.173930	-5.552631	7.173165	0.072227	-0.561817	-0.843660	-0.793701	-0.197266	-0.703369	0.148915	-0.058644	0.085602	0.738034	0.256359	-0.505023	0.366794	1.266489	-68.988740	51.983388
22133		12.513847	-5.450772	3.567759	5.183228	-2.441517	3.079479	0.259228	0.002658	-0.872206	-0.788574	-0.208008	-0.705566	0.124900	-0.055099	0.035605	0.739265	0.259471	-0.503499	0.364214	2.695868	-68.978074	50.604010
22134		8.209839	-1.159516	4.838003	0.146380	-2.049914	-0.435684	0.250694	0.475551	-0.568199	-0.788330	-0.212646	-0.707764	0.082180	-0.011889	0.048170	0.741130	0.260924	-0.500620	0.363352	3.622478	-68.695682	49.758425
22135		7.470887	0.530673	6.295484	-2.153640	-2.360518	-0.565070	-0.134005	-0.521515	-0.427892	-0.790527	-0.212646	-0.698975	0.074556	0.005189	0.063146	0.740738	0.262405	-0.502316	0.360735	4.212275	-68.984878	49.036671
22136		10.765638	2.061374	5.541509	-2.198558	-0.052686	2.271159	-0.449431	-0.823417	-0.609384	-0.792969	-0.212646	-0.694580	0.107490	0.020411	0.055812	0.740312	0.263716	-0.505445	0.356255	4.953114	-69.435004	47.962828
22137		13.225613	3.379140	6.186776	-3.019674	0.828169	4.843604	-0.683035	-0.370670	-0.838223	-0.790527	-0.217041	-0.696777	0.132282	0.033449	0.061998	0.741721	0.263916	-0.507009	0.350914	5.876264	-69.609774	46.551690
22138		13.936364	3.367348	6.965736	-3.209780	0.361649	5.796541	-0.494896	-0.024394	-1.085626	-0.785400	-0.225830	-0.696777	0.139536	0.033089	0.069592	0.744168	0.264834	-0.506603	0.345587	7.240195	-69.560494	44.787846
22139		12.785789	2.675931	6.306771	-2.466481	0.089480	4.481347	-0.485713	0.102982	-1.187734	-0.785400	-0.228027	-0.703369	0.128047	0.026152	0.062938	0.747081	0.265812	-0.505547	0.340054	8.725770	-69.414601	42.898050
22140		10.664118	1.659312	5.575176	-1.696212	-0.547030	2.203222	-0.455248	0.291619	-1.059398	-0.778564	-0.229980	-0.709961	0.106809	0.016154	0.055559	0.750177	0.266251	-0.503891	0.335319	9.961238	-69.159244	41.292385
22141		9.605853	1.065405	5.777105	-1.556289	-1.335451	1.258744	-0.424498	0.241190	-0.866169	-0.776123	-0.232178	-0.709961	0.096173	0.010360	0.057633	0.752771	0.266381	-0.502608	0.331303	10.910645	-68.939839	40.007364
22142		10.097352	0.402371	5.645457	-0.786733	-1.565223	1.629366	-0.485711	0.033756	-0.678057	-0.773926	-0.234375	-0.712158	0.100996	0.003818	0.056428	0.754586	0.266160	-0.502455	0.327564	11.594828	-68.853265	38.969709
22143		11.189524	-0.348742	4.942636	0.526275	-1.306627	2.343481	-0.528929	-0.005290	-0.448510	-0.776367	-0.232178	-0.714355	0.111886	-0.003608	0.049439	0.755986	0.265240	-0.502814	0.324517	11.925673	-68.810525	38.281244
22144		11.753667	-0.883135	4.667269	1.261882	-1.335815	2.730648	-0.573729	0.072978	-0.265712	-0.771973	-0.227539	-0.718750	0.117542	-0.008854	0.046655	0.757323	0.263581	-0.503190	0.322158	11.943540	-68.746384	37.903447
22145		11.436959	-1.435892	4.479243	1.702230	-1.624426	2.327868	-0.575280	0.184762	-0.177624	-0.770020	-0.225098	-0.723145	0.114398	-0.014332	0.044728	0.758810	0.261484	-0.503255	0.320262	11.794474	-68.628467	37.700035
22146		10.545835	-1.789018	4.085704	1.948322	-1.756596	1.333010	-0.568485	0.251934	-0.154408	-0.774658	-0.220947	-0.723145	0.105496	-0.017856	0.040775	0.760396	0.259272	-0.503081	0.318567	11.600069	-68.477417	37.552948
22147		9.719373	-2.133784	3.744062	2.174748	-1.909947	0.417650	-0.530961	0.254979	-0.167889	-0.772461	-0.218506	-0.723145	0.097224	-0.021320	0.037373	0.761970	0.257200	-0.502813	0.316904	11.440706	-68.321783	37.387296
22148		9.533403	-2.136587	3.660413	2.176117	-1.884730	0.215359	-0.492960	0.174899	-0.173454	-0.777100	-0.216553	-0.727783	0.095348	-0.021358	0.036573	0.763282	0.255440	-0.502779	0.315221	11.338329	-68.212138	37.187433
22149		9.826390	-1.832665	3.576452	2.088800	-1.552037	0.479820	-0.468206	0.097435	-0.155642	-0.768311	-0.214111	-0.729980	0.098267	-0.018319	0.035760	0.764338	0.253829	-0.503030	0.313558	11.242198	-68.148350	36.992849
22150		9.972756	-1.301919	3.357182	1.872877	-1.002044	0.575275	-0.484000	0.104551	-0.086020	-0.765869	-0.218262	-0.736572	0.099740	-0.012981	0.033551	0.765314	0.251991	-0.503355	0.312137	11.041752	-68.088252	36.903993
22151		9.614777	-0.581485	3.095062	1.397771	-0.395477	0.199869	-0.452927	0.188704	-0.011649	-0.770752	-0.207275	-0.738770	0.096177	-0.005750	0.030873	0.766351	0.249936	-0.503394	0.311178	10.730788	-67.987619	36.951523
22152		8.816970	0.090456	3.040122	0.704774	-0.053937	-0.512699	-0.395859	0.266914	0.052754	-0.768799	-0.205078	-0.736572	0.088210	0.000988	0.030282	0.767399	0.247830	-0.503127	0.310711	10.346938	-67.850958	37.114962
22153		7.890498	0.538539	3.068091	0.086836	0.053472	-1.330195	-0.387269	0.295361	0.082230	-0.766602	-0.202637	-0.745361	0.078948	0.005477	0.030554	0.768464	0.245617	-0.502777	0.310404	9.919926	-67.700484	37.327762
22154		7.077524	0.567596	2.922995	-0.086471	0.017127	-2.134825	-0.404136	0.288642	0.078262	-0.762451	-0.196045	-0.747559	0.070815	0.005763	0.029116	0.769528	0.243379	-0.502465	0.310037	9.498250	-67.553142	37.527318
22155		6.442783	0.447264	2.592397	0.016286	0.040916	-2.853663	-0.426768	0.273118	0.062238	-0.764648	-0.196045	-0.745361	0.064462	0.004548	0.025826	0.770609	0.241096	-0.502225	0.309523	9.089458	-67.411613	37.696490
22156		6.179834	0.116327	2.517563	0.223811	-0.174404	-3.144746	-0.392891	0.293828	0.054075	-0.760498	-0.189209	-0.756348	0.061835	0.001229	0.025082	0.771700	0.238950	-0.501840	0.309093	8.713540	-67.258134	37.853862
22157		6.234822	-0.033985	2.685663	0.246198	-0.356875	-3.037812	-0.330006	0.284043	0.057588	-0.760742	-0.184814	-0.756348	0.062386	-0.000278	0.026769	0.772686	0.237038	-0.501400	0.308816	8.371775	-67.109734	38.011525
22158		6.421503	-0.249577	2.569807	0.532111	-0.362856	-2.921602	-0.339236	0.233273	0.068028	-0.754150	-0.184326	-0.765381	0.064246	-0.002430	0.025627	0.773532	0.235156	-0.501177	0.308499	8.026056	-66.991005	38.169816
22159		6.653180	-0.530228	2.428967	0.891256	-0.388410	-2.777021	-0.339892	0.208092	0.089844	-0.760986	-0.182617	-0.754150	0.066559	-0.005231	0.024229	0.774288	0.233233	-0.501075	0.308227	7.654776	-66.886719	38.352931
22160		6.735692	-0.756532	2.319253	1.145718	-0.433830	-2.754365	-0.322662	0.237720	0.089409	-0.752441	-0.173340	-0.767578	0.067388	-0.007498	0.023125	0.775086	0.231353	-0.500830	0.308037	7.294493	-66.766286	38.537658
22161		6.731772	-0.875049	2.377898	1.192452	-0.536773	-2.739727	-0.291688	0.276087	0.075669	-0.750244	-0.171143	-0.758545	0.067354	-0.008690	0.023699	0.775965	0.229552	-0.500376	0.307910	6.963888	-66.622491	38.707615
22162		6.712666	-0.902913	2.366572	1.217051	-0.533758	-2.762180	-0.265357	0.276388	0.044985	-0.752930	-0.164307	-0.771973	0.067161	-0.008983	0.023585	0.776856	0.227943	-0.499837	0.307733	6.694009	-66.476221	38.829973
22163		6.843050	-1.018072	2.346407	1.356969	-0.551278	-2.655584	-0.245335	0.267773	0.011769	-0.741455	-0.170654	-0.767578	0.068462	-0.010148	0.023385	0.777756	0.226485	-0.499270	0.307458	6.478105	-66.332313	38.902921
22164		6.944162	-1.095338	2.274456	1.496188	-0.517941	-2.595525	-0.199383	0.258112	-0.024834	-0.748291	-0.166504	-0.769775	0.069470	-0.010939	0.022666	0.778628	0.225334	-0.498619	0.307152	6.343037	-66.191632	38.919570
22165		6.951735	-1.234301	2.281820	1.599956	-0.607552	-2.592727	-0.180804	0.223760	-0.053247	-0.741455	-0.170654	-0.778564	0.069540	-0.012341	0.022752	0.779439	0.224368	-0.498041	0.306739	6.259118	-66.068318	38.890631
22166		6.936518	-1.227057	2.142308	1.685728	-0.507544	-2.663481	-0.172393	0.136890	-0.067683	-0.739746	-0.159424	-0.774170	0.069376	-0.012276	0.021386	0.780042	0.223614	-0.497770	0.306196	6.212510	-65.993994	38.827424
22167		6.956816	-1.037395	1.914174	1.707084	-0.216771	-2.729156	-0.165729	0.007375	-0.067115	-0.743896	-0.164063	-0.780762	0.069565	-0.010381	0.019148	0.780321	0.223067	-0.497994	0.305521	6.184726	-65.992557	38.745843
22168		7.037078	-0.774638	1.716766	1.671126	0.115123	-2.723125	-0.166034	-0.117051	-0.055386	-0.741943	-0.159668	-0.776367	0.070359	-0.007752	0.017215	0.780264	0.222695	-0.498717	0.304758	6.161369	-66.063672	38.661176
22169		7.175600	-0.249565	1.564206	1.436008	0.615175	-2.632320	-0.182302	-0.239394	-0.036406	-0.743896	-0.166260	-0.771973	0.071737	-0.002494	0.015730	0.779896	0.222381	-0.499963	0.303885	6.118683	-66.205004	38.585317
22170		7.606908	0.127753	1.410387	1.389837	1.078259	-2.277690	-0.224030	-0.391565	-0.017535	-0.744141	-0.157471	-0.767578	0.076041	0.001287	0.014251	0.779156	0.222104	-0.501885	0.302817	6.051769	-66.434870	38.512118
22171		8.366899	0.274230	1.522538	1.426051	1.277425	-1.522166	-0.272013	-0.478434	-0.015749	-0.750977	-0.155518	-0.767578	0.083632	0.002757	0.015422	0.778246	0.221759	-0.504215	0.301535	5.966005	-66.714032	38.428805
22172		9.148447	0.478671	2.054332	1.147577	1.246625	-0.578385	-0.345969	-0.453121	-0.016029	-0.760254	-0.151367	-0.760986	0.091438	0.004815	0.020742	0.777473	0.221094	-0.506555	0.300094	5.835677	-66.979163	38.348879
22173		9.651170	0.432371	2.255893	1.169411	1.184095	-0.032535	-0.469671	-0.351734	-0.031546	-0.755859	-0.151123	-0.758545	0.096473	0.004362	0.022718	0.777110	0.219821	-0.508671	0.298383	5.637975	-67.185938	38.263524
22174		9.896845	-0.299432	1.326028	2.332132	1.293531	-0.185466	-0.532224	-0.314908	-0.046187	-0.758057	-0.149170	-0.754150	0.098947	-0.002982	0.013424	0.776924	0.218297	-0.510709	0.296499	5.421235	-67.370779	38.161839
22175		10.555601	-1.017181	0.390994	3.614921	1.502050	0.050591	-0.427598	-0.374770	-0.034964	-0.762695	-0.144775	-0.754150	0.105547	-0.010182	0.004129	0.776447	0.217235	-0.512834	0.294856	5.255429	-67.590577	38.069672
22176		11.186986	-1.542337	0.670269	3.942645	1.057637	0.737833	-0.223151	-0.389786	0.002976	-0.765137	-0.142578	-0.749756	0.111857	-0.015414	0.006938	0.775648	0.216893	-0.514752	0.293868	5.156302	-67.820918	38.032579
22177		11.011759	-2.311927	0.875238	4.244783	0.293620	0.640320	-0.042295	-0.329781	-0.023779	-0.769531	-0.142822	-0.749756	0.110100	-0.023130	0.008939	0.774842	0.217230	-0.516144	0.293304	5.189963	-68.015973	37.963707
22178		10.324358	-2.508691	1.070313	4.032399	-0.156864	0.074000	0.273194	-0.151154	-0.139529	-0.764648	-0.149414	-0.745361	0.103218	-0.025174	0.010747	0.774323	0.218827	-0.516250	0.293300	5.547504	-68.102508	37.740972
22179		10.478459	-2.258953	3.901851	2.024804	-1.776965	1.271890	0.458791	0.012420	-0.204860	-0.762451	-0.151367	-0.747559	0.104764	-0.022786	0.038960	0.774114	0.221072	-0.515379	0.293701	6.082251	-68.091541	37.442059
22180		12.346903	-0.817893	7.798648	-0.967612	-2.836966	4.503351	0.528615	0.138630	-0.085557	-0.757568	-0.160156	-0.740967	0.123519	-0.008438	0.077879	0.773974	0.223091	-0.514043	0.294880	6.468124	-68.015090	37.346548
22181		15.100407	4.035466	10.945082	-5.572355	-0.763202	8.421015	0.564881	-0.291059	0.418998	-0.769043	-0.151855	-0.738770	0.150760	0.040361	0.109784	0.771939	0.224586	-0.514871	0.297624	6.227346	-68.214799	37.949028
22182		16.148601	5.970472	10.172811	-6.234723	1.359301	9.139515	-0.107333	-0.710080	0.932388	-0.776123	-0.145264	-0.734375	0.160843	0.060510	0.102268	0.768794	0.222782	-0.518883	0.300139	4.902697	-68.679369	39.301110
22183		11.835349	3.426974	7.286364	-3.918305	0.479848	3.946894	-0.172283	0.179059	0.912744	-0.781250	-0.134277	-0.738770	0.118260	0.034872	0.072728	0.768035	0.219430	-0.519545	0.303390	3.430577	-68.623168	40.768505
22184		7.644766	2.701567	5.521877	-3.457476	0.183541	-0.634241	0.060294	0.103580	0.837314	-0.779297	-0.127686	-0.734375	0.076362	0.027319	0.055187	0.766925	0.217286	-0.520043	0.306868	2.216494	-68.595108	42.103498
22185		7.842654	-1.442699	4.165911	0.332895	-1.823021	-1.008774	0.283771	-0.380409	0.847613	-0.786133	-0.125732	-0.732178	0.078408	-0.014154	0.041788	0.764279	0.216699	-0.522065	0.310431	1.127918	-68.835310	43.438696
22186		10.012881	-3.768327	5.277309	1.751874	-3.643121	1.410792	0.794403	-0.286018	0.849877	-0.783691	-0.130127	-0.725586	0.100213	-0.037467	0.052767	0.761302	0.217915	-0.522910	0.315432	0.306154	-69.012679	44.801166
22187		12.755603	-3.447228	6.551536	1.361655	-3.519086	4.444696	0.985117	-0.049441	0.904932	-0.790527	-0.125732	-0.725586	0.127695	-0.034217	0.065378	0.758613	0.219332	-0.522598	0.321388	-0.502792	-69.048173	46.265933
22188		15.020260	-2.778782	7.326291	0.897804	-2.916300	6.851426	0.668985	-0.083428	0.986531	-0.788330	-0.125732	-0.725586	0.150307	-0.027292	0.073234	0.756026	0.219381	-0.522987	0.326775	-1.619024	-69.092743	47.865398
22189		14.436025	-0.960443	6.211963	0.095150	-0.986879	5.901187	0.260119	0.034194	0.829785	-0.790771	-0.121338	-0.725586	0.144409	-0.009086	0.062083	0.754426	0.218093	-0.523418	0.330623	-2.732767	-69.062763	49.210883
22190		10.738109	0.417908	5.517569	-1.356503	-0.494169	2.180660	0.168097	0.515637	0.552021	-0.786377	-0.121338	-0.727783	0.107511	0.004429	0.054902	0.754636	0.216389	-0.521867	0.333699	-3.434208	-68.757779	50.059912
22191		9.337944	0.896408	6.457943	-2.628671	-1.134870	1.210371	0.244767	0.337602	0.299422	-0.784180	-0.118896	-0.729980	0.093475	0.009025	0.064433	0.754709	0.215930	-0.520583	0.335830	-3.721924	-68.561327	50.513755
22192		10.738610	1.844007	6.124046	-2.782300	0.134976	2.371835	0.291869	-0.166559	0.068450	-0.788330	-0.123535	-0.732178	0.107329	0.018387	0.061357	0.753806	0.217094	-0.520869	0.336663	-3.690371	-68.661011	50.653462
22193		11.098763	2.187337	4.369783	-1.829798	1.638564	2.062871	0.277957	0.036780	-0.075261	-0.786377	-0.121338	-0.732178	0.111004	0.021771	0.043708	0.753685	0.218240	-0.520255	0.337141	-3.437596	-68.649848	50.547692
22194		9.433610	2.342470	3.932335	-2.018536	1.574350	0.355404	0.397702	0.551413	-0.126583	-0.783447	-0.132324	-0.732178	0.094459	0.023287	0.039109	0.754857	0.219099	-0.517440	0.338293	-3.000656	-68.345518	50.316972
22195		7.995935	2.474301	4.415435	-2.711882	0.939009	-0.795096	0.429390	0.515641	-0.128653	-0.781494	-0.129883	-0.738770	0.080089	0.024597	0.044001	0.755894	0.220144	-0.514699	0.339479	-2.553873	-68.061270	50.095385
22196		8.041863	2.147610	4.110720	-2.234505	0.938972	-0.851266	0.404188	0.153350	-0.094212	-0.778809	-0.136475	-0.740967	0.080460	0.021355	0.041089	0.755964	0.221615	-0.513403	0.340326	-2.198799	-67.982836	49.956187
22197		8.798400	1.680171	3.385761	-1.235100	1.327048	-0.409941	0.438692	0.070093	-0.048721	-0.780762	-0.141113	-0.738770	0.088000	0.016706	0.033863	0.755700	0.223240	-0.512413	0.341341	-1.894439	-67.951014	49.892993
22198		8.902128	0.978411	3.173560	-0.536609	1.030485	-0.382589	0.483915	0.273233	-0.011838	-0.776367	-0.143066	-0.738770	0.089065	0.009702	0.031637	0.755840	0.224594	-0.510615	0.342835	-1.607615	-67.801919	49.876638
22199		8.272555	0.258443	3.229769	-0.156990	0.341018	-0.936185	0.443140	0.392945	-0.037719	-0.776367	-0.143066	-0.743164	0.082789	0.002497	0.032141	0.756367	0.225656	-0.508402	0.344261	-1.305555	-67.585070	49.819112
22200		7.562675	-0.253128	3.083328	0.173917	-0.092357	-1.644078	0.408919	0.309325	-0.081629	-0.771484	-0.147461	-0.743164	0.075673	-0.002625	0.030711	0.756793	0.226839	-0.506510	0.345334	-0.968327	-67.416036	49.701646
22201		7.349344	-0.719542	2.899722	0.612004	-0.331913	-1.909890	0.466504	0.184971	-0.114014	-0.771240	-0.156250	-0.743164	0.073516	-0.007305	0.028912	0.756888	0.228531	-0.504955	0.346287	-0.560752	-67.318676	49.542958
22202		7.259926	-0.905917	2.807552	0.814502	-0.416850	-2.029867	0.486272	0.222266	-0.135709	-0.771240	-0.156250	-0.745361	0.072624	-0.009177	0.027973	0.757088	0.230291	-0.503191	0.347249	-0.112905	-67.199093	49.353398
22203		6.890966	-0.720549	2.655505	0.703344	-0.294124	-2.431968	0.490118	0.336909	-0.100335	-0.766357	-0.165039	-0.749756	0.068951	-0.007305	0.026421	0.757502	0.231776	-0.501028	0.348485	0.284776	-67.014000	49.220543
22204		6.397698	-0.250575	2.458768	0.367301	0.012402	-2.964058	0.472346	0.372478	-0.047291	-0.763916	-0.166992	-0.747559	0.064022	-0.002579	0.024462	0.757930	0.232997	-0.498813	0.349914	0.597500	-66.807761	49.168711
22205		6.255896	-0.069413	2.410239	0.245637	0.131652	-3.113988	0.451632	0.330283	0.001870	-0.761475	-0.171387	-0.749756	0.062599	-0.000748	0.023997	0.758183	0.234088	-0.496851	0.351427	0.830396	-66.626380	49.190886
22206		6.383361	0.185492	2.420407	0.096768	0.335122	-2.992250	0.462004	0.258137	0.026412	-0.759033	-0.173584	-0.751953	0.063865	0.001808	0.024126	0.758198	0.235283	-0.495166	0.352971	1.037391	-66.486165	49.247700
22207		6.740234	0.495742	2.411012	-0.027602	0.654337	-2.667021	0.468247	0.232299	0.045085	-0.758789	-0.180176	-0.754150	0.067429	0.004916	0.024043	0.758101	0.236499	-0.493591	0.354569	1.222609	-66.361593	49.332214
22208		7.008660	0.874730	2.507697	-0.291950	0.915022	-2.379485	0.467508	0.252052	0.069029	-0.756348	-0.182373	-0.756348	0.070115	0.008713	0.025009	0.758009	0.237616	-0.491963	0.356277	1.375956	-66.225565	49.451178
22209		6.925444	1.120416	2.526876	-0.502288	1.039977	-2.445982	0.424868	0.288480	0.101139	-0.754150	-0.184570	-0.754150	0.069285	0.011186	0.025193	0.757992	0.238429	-0.490310	0.358043	1.462196	-66.069610	49.617275
22210		6.839927	1.295394	2.571974	-0.675629	1.102222	-2.504726	0.398300	0.285646	0.127309	-0.751709	-0.188965	-0.756348	0.068428	0.012946	0.025648	0.757951	0.239079	-0.488742	0.359837	1.500392	-65.915356	49.819163
22211		6.897421	1.424067	2.714250	-0.833459	1.109290	-2.393500	0.360516	0.243022	0.136957	-0.747070	-0.190918	-0.763184	0.068997	0.014239	0.027084	0.757826	0.239641	-0.487414	0.361524	1.507407	-65.786262	50.032357
22212		6.983983	1.578574	2.683851	-0.909027	1.263775	-2.326199	0.298142	0.203736	0.140942	-0.749268	-0.190918	-0.760986	0.069856	0.015795	0.026791	0.757673	0.240023	-0.486348	0.363023	1.475772	-65.679142	50.248307
22213		7.140391	1.777447	2.859220	-1.119640	1.319405	-2.110401	0.240106	0.167820	0.130354	-0.749268	-0.193115	-0.760986	0.071416	0.017787	0.028554	0.757520	0.240277	-0.485508	0.364297	1.427037	-65.592277	50.446958
22214		7.213023	1.991204	3.015213	-1.356022	1.368466	-1.978620	0.196515	0.086406	0.122206	-0.749512	-0.186523	-0.754150	0.072131	0.019926	0.030141	0.757235	0.240531	-0.485046	0.365336	1.366264	-65.551953	50.631232
22215		7.178075	2.170431	2.898438	-1.447046	1.552507	-2.058189	0.137966	-0.035435	0.133679	-0.744873	-0.190918	-0.758545	0.071761	0.021732	0.029012	0.756698	0.240762	-0.485171	0.366130	1.260901	-65.582335	50.827848
22216		7.435524	1.992712	2.568908	-1.070314	1.758004	-1.962781	0.073063	-0.179532	0.151054	-0.749268	-0.190918	-0.758545	0.074317	0.019974	0.025763	0.755861	0.240965	-0.485976	0.366657	1.099651	-65.694403	51.044676
22217		7.804190	1.594100	2.334128	-0.552287	1.788763	-1.726283	0.052666	-0.315044	0.153201	-0.751221	-0.195557	-0.754150	0.077993	0.015995	0.023468	0.754714	0.241335	-0.487331	0.366978	0.925376	-65.884062	51.262868
22218		8.358211	1.009323	2.153422	0.121761	1.717226	-1.294952	0.032738	-0.440689	0.139245	-0.758545	-0.184814	-0.743164	0.083527	0.010148	0.021720	0.753307	0.241892	-0.489178	0.367045	0.756171	-66.145115	51.462477
22219		9.030349	0.248855	1.889993	1.003582	1.625772	-0.783253	0.043601	-0.519203	0.105602	-0.756348	-0.184570	-0.740967	0.090253	0.002532	0.019135	0.751745	0.242724	-0.491260	0.366917	0.635314	-66.451665	51.616626
22220		9.797495	-0.220108	1.515658	1.737175	1.814545	-0.219670	0.077789	-0.547660	0.056263	-0.762939	-0.184814	-0.732178	0.097934	-0.002179	0.015424	0.750163	0.243846	-0.493319	0.366648	0.595756	-66.773172	51.702194
22221		10.679298	-0.081386	1.090627	2.045097	2.439231	0.439675	0.041221	-0.552311	-0.000876	-0.771484	-0.191895	-0.732178	0.106762	-0.000817	0.011201	0.748708	0.244982	-0.495396	0.366064	0.610513	-67.097984	51.705734
22222		11.811217	0.202352	0.932718	2.148539	3.024832	1.441183	-0.009271	-0.531533	-0.065677	-0.778320	-0.192139	-0.732178	0.118087	0.001985	0.009641	0.747484	0.246046	-0.497397	0.365137	0.685414	-67.409481	51.612695
22223		12.673973	0.999497	1.499339	1.379107	3.310947	2.476011	-0.017226	-0.354731	-0.098878	-0.769775	-0.185059	-0.727783	0.126718	0.009934	0.015217	0.746757	0.246854	-0.498712	0.364285	0.802685	-67.620723	51.470724
22224		12.794129	1.604672	2.440449	0.387846	2.999135	2.957404	-0.022237	-0.104938	-0.089272	-0.776123	-0.189941	-0.725586	0.127936	0.015992	0.024470	0.746649	0.247149	-0.499111	0.363760	0.898603	-67.687496	51.347199
22225		12.495023	1.805335	3.697152	-0.545834	2.107385	3.160930	-0.013985	0.104720	-0.078732	-0.769775	-0.185059	-0.732178	0.124977	0.018007	0.036905	0.747032	0.247069	-0.498729	0.363551	0.980439	-67.634845	51.243928
22226		13.342309	0.968686	7.219870	-1.643132	-0.726810	5.282137	0.207615	0.254346	-0.171403	-0.769531	-0.189697	-0.725586	0.133523	0.009498	0.072039	0.747684	0.247774	-0.497266	0.363736	1.312355	-67.494619	51.007480
22227		13.594776	-0.804038	10.639051	-2.051135	-4.265230	6.808200	0.285085	-0.016312	-0.397283	-0.767090	-0.189697	-0.718750	0.135923	-0.008462	0.106390	0.747975	0.249818	-0.496396	0.362926	2.007928	-67.505196	50.424509
22228		11.645963	-3.279588	6.580485	1.760441	-3.433647	3.408407	0.108208	-0.153215	-0.559449	-0.764648	-0.198242	-0.729980	0.116317	-0.033157	0.065876	0.748436	0.251852	-0.496148	0.360903	2.836468	-67.586909	49.589040
22229		8.547724	-1.877332	2.952498	1.963960	-0.848199	-0.827789	0.306560	0.143682	-0.470779	-0.764160	-0.207275	-0.725586	0.085454	-0.019020	0.029435	0.749218	0.253865	-0.494546	0.360069	3.634307	-67.497507	48.908523
22230		8.009557	0.928226	4.626054	-1.294384	-0.549687	-0.623714	0.272562	-0.247035	-0.297261	-0.768555	-0.207520	-0.718750	0.080052	0.009100	0.046372	0.748759	0.256030	-0.494679	0.359308	4.208589	-67.634745	48.450128
22231		9.285708	2.002323	4.910556	-1.991934	0.204377	0.691463	-0.075514	-0.740936	-0.209056	-0.779541	-0.212158	-0.716553	0.092695	0.019945	0.049442	0.747355	0.257558	-0.497398	0.357378	4.521081	-68.057245	48.059735
22232		11.037383	2.947332	4.944979	-2.350135	1.182509	2.354550	-0.376039	-0.580674	-0.311309	-0.779785	-0.207764	-0.712158	0.110276	0.029395	0.049715	0.746910	0.257927	-0.499913	0.354522	4.801186	-68.382090	47.520062
22233		12.044945	2.042913	5.761626	-1.849554	0.253888	3.565097	-0.526264	-0.165009	-0.545240	-0.781982	-0.205566	-0.718750	0.120457	0.020252	0.057662	0.748098	0.257580	-0.500839	0.350945	5.290304	-68.457594	46.663608
22234		11.465533	0.546879	6.643016	-1.281131	-1.504025	3.301555	-0.397474	0.179899	-0.815897	-0.770752	-0.209717	-0.718750	0.114736	0.005133	0.066317	0.750448	0.257781	-0.499884	0.347119	6.193805	-68.316078	45.440814
22235		9.857488	-0.153909	6.650577	-1.084361	-2.394898	1.785242	-0.314471	0.271284	-1.002822	-0.770264	-0.216309	-0.720947	0.098656	-0.001929	0.066375	0.753231	0.258585	-0.498194	0.342899	7.377054	-68.101696	43.964463
22236		9.013968	-0.697179	6.020271	-0.458333	-2.529279	0.740678	-0.337959	0.132036	-1.087534	-0.763428	-0.220459	-0.725586	0.090140	-0.007360	0.060155	0.755814	0.259753	-0.496939	0.338120	8.670592	-67.947784	42.354760
22237		9.164381	-0.220925	5.438096	-0.386533	-1.810281	0.684004	-0.332477	0.019416	-1.065701	-0.765137	-0.229492	-0.723145	0.091636	-0.002607	0.054376	0.758056	0.261060	-0.496114	0.333272	9.943053	-67.845764	40.768061
22238		9.773224	1.040989	5.306308	-1.045094	-0.800952	1.278857	-0.399013	-0.033450	-0.909253	-0.765381	-0.227295	-0.720947	0.097770	0.010071	0.053059	0.759965	0.261817	-0.495790	0.328782	10.964318	-67.778240	39.412192
22239		10.325979	2.431554	4.973420	-1.704488	0.441700	1.770607	-0.497881	-0.088105	-0.598343	-0.760742	-0.231445	-0.734375	0.103310	0.024130	0.049719	0.761343	0.261507	-0.496238	0.325144	11.510463	-67.769543	38.506832
22240		10.878658	2.415399	4.878515	-1.456436	0.620082	2.248554	-0.521038	-0.091650	-0.262975	-0.765625	-0.222900	-0.729980	0.108796	0.024138	0.048772	0.762187	0.260285	-0.497164	0.322722	11.584702	-67.799057	38.098131
22241		10.940382	1.152688	4.990218	-0.557681	-0.265565	2.251365	-0.543785	0.031440	-0.120993	-0.758789	-0.224854	-0.727783	0.109419	0.011596	0.049854	0.763142	0.258402	-0.497842	0.320930	11.413561	-67.775070	37.937324
22242		10.175775	0.027326	4.598460	0.284896	-0.886408	1.315027	-0.551570	0.176882	-0.105497	-0.756836	-0.218018	-0.738770	0.101799	0.000346	0.045894	0.764427	0.256236	-0.497990	0.319376	11.179282	-67.672058	37.842942
22243		9.411261	-0.885216	4.297741	0.913421	-1.436182	0.430800	-0.507364	0.182409	-0.106688	-0.759521	-0.211426	-0.738770	0.094147	-0.008793	0.042914	0.765676	0.254213	-0.498039	0.317920	10.968976	-67.564847	37.747266
22244		9.294185	-1.482699	4.167373	1.394129	-1.757933	0.232876	-0.485342	0.088725	-0.108470	-0.759277	-0.213623	-0.738770	0.092952	-0.014776	0.041668	0.766650	0.252444	-0.498408	0.316402	10.800747	-67.511374	37.622346
22245		9.450752	-1.791054	4.012570	1.750729	-1.815038	0.299972	-0.535118	0.030267	-0.111192	-0.759521	-0.209229	-0.747559	0.094504	-0.017856	0.040159	0.767576	0.250516	-0.499098	0.314594	10.619742	-67.490083	37.467093
22246		9.506242	-1.520702	3.646027	1.778166	-1.360814	0.235247	-0.559953	0.017698	-0.098043	-0.759521	-0.211426	-0.736572	0.095058	-0.015151	0.036494	0.768439	0.248543	-0.499862	0.312836	10.413032	-67.478021	37.337504
22247		9.523343	-0.560729	3.534238	1.136699	-0.619886	0.278048	-0.600862	0.007973	-0.046883	-0.760010	-0.200439	-0.740967	0.095234	-0.005523	0.035355	0.769275	0.246243	-0.500808	0.311083	10.114391	-67.476291	37.270334
22248		9.258667	0.313788	3.369643	0.509142	0.045061	0.031833	-0.565679	0.035808	0.012098	-0.762695	-0.189209	-0.740967	0.092593	0.003239	0.033671	0.770005	0.243940	-0.501638	0.309750	9.750446	-67.465400	37.307408
22249		8.792713	0.713124	3.250392	0.140748	0.314158	-0.417644	-0.562494	0.065781	0.051299	-0.762695	-0.191406	-0.747559	0.087936	0.007245	0.032455	0.770770	0.241437	-0.502423	0.308533	9.324542	-67.441444	37.400410
22250		8.150852	0.886765	3.056446	-0.068366	0.441010	-1.073958	-0.578817	0.094168	0.056868	-0.760742	-0.184814	-0.743164	0.081520	0.008979	0.030500	0.771580	0.238877	-0.503095	0.307405	8.879902	-67.401389	37.516738
22251		7.591161	0.706088	2.911392	-0.026886	0.306269	-1.657571	-0.612597	0.095876	0.034380	-0.758789	-0.180176	-0.749756	0.075924	0.007163	0.029056	0.772491	0.236180	-0.503807	0.306030	8.444649	-67.358244	37.589809
22252		7.325403	0.612571	2.734093	0.063443	0.318885	-1.976471	-0.639919	0.082704	0.005190	-0.759033	-0.173584	-0.745361	0.073265	0.006215	0.027291	0.773409	0.233527	-0.504546	0.304529	8.039328	-67.319779	37.625660
22253		7.222007	0.452604	2.573893	0.240855	0.307042	-2.142299	-0.628151	0.079869	-0.019487	-0.761475	-0.171387	-0.751953	0.072231	0.004600	0.025696	0.774364	0.230925	-0.505269	0.302881	7.673029	-67.281011	37.614366
22254		7.182558	0.145698	2.436787	0.527472	0.186405	-2.247285	-0.616202	0.092813	-0.035242	-0.755127	-0.162354	-0.751953	0.071837	0.001519	0.024330	0.775325	0.228445	-0.505875	0.301289	7.335599	-67.233603	37.591358
22255		7.162617	-0.245815	2.342650	0.850492	-0.022790	-2.320848	-0.586262	0.086845	-0.029878	-0.755371	-0.160156	-0.760986	0.071636	-0.002400	0.023402	0.776250	0.226016	-0.506485	0.299708	7.007350	-67.190098	37.564835
22256		7.354646	-0.684935	2.269536	1.254613	-0.234629	-2.191556	-0.560065	0.053903	-0.013438	-0.757813	-0.155762	-0.758545	0.073552	-0.006791	0.022695	0.777002	0.223753	-0.507172	0.298293	6.680137	-67.166420	37.565625
22257		7.544074	-0.897295	2.182563	1.506935	-0.278620	-2.058122	-0.517851	0.042886	0.001867	-0.755859	-0.151123	-0.760986	0.075446	-0.008916	0.021833	0.777682	0.221569	-0.507875	0.296953	6.356062	-67.149472	37.576677
22258		7.717267	-1.210879	2.034346	1.864004	-0.361795	-1.966951	-0.460783	0.064028	0.015096	-0.758057	-0.149170	-0.756348	0.077180	-0.012056	0.020347	0.778296	0.219601	-0.508399	0.295907	6.046335	-67.121790	37.620225
22259		7.748541	-1.336783	2.006077	1.971817	-0.419938	-1.952229	-0.387064	0.111092	0.013072	-0.758301	-0.146729	-0.760986	0.077497	-0.013324	0.020044	0.778975	0.217799	-0.508651	0.295018	5.773524	-67.067103	37.657813
22260		7.579388	-1.322213	1.939446	1.951641	-0.397326	-2.132190	-0.328015	0.152420	0.004947	-0.756104	-0.144531	-0.760986	0.075809	-0.013188	0.019358	0.779676	0.216241	-0.508620	0.294365	5.542569	-66.988290	37.698460
22261		7.235322	-1.452635	1.735844	2.069552	-0.436879	-2.532627	-0.270753	0.147364	-0.004935	-0.753906	-0.142334	-0.765381	0.072366	-0.014505	0.017325	0.780340	0.214889	-0.508535	0.293742	5.358071	-66.912082	37.713464
22262		6.930030	-1.538175	1.489343	2.197712	-0.410886	-2.912638	-0.189095	0.087907	-0.012576	-0.749756	-0.137695	-0.765381	0.069306	-0.015372	0.014878	0.780750	0.214012	-0.508530	0.293303	5.239544	-66.869050	37.718455
22263		6.715030	-1.565842	1.529391	2.120799	-0.507119	-3.094981	-0.135382	-0.002906	-0.011268	-0.754150	-0.137695	-0.767578	0.067149	-0.015652	0.015305	0.780897	0.213419	-0.508822	0.292834	5.159696	-66.877639	37.703321
22264		6.449482	-1.461636	1.592831	1.919329	-0.537400	-3.309098	-0.079155	-0.127333	-0.007544	-0.747559	-0.135254	-0.763184	0.064484	-0.014612	0.015975	0.780633	0.213273	-0.509501	0.292464	5.123627	-66.957687	37.687151
22265		6.169827	-1.238708	1.459409	1.760087	-0.364795	-3.607849	-0.045826	-0.288935	-0.006283	-0.758789	-0.135742	-0.763184	0.061677	-0.012386	0.014686	0.779923	0.213477	-0.510764	0.292005	5.122382	-67.129666	37.651976
22266		6.576531	-1.111803	1.257872	1.915684	-0.064167	-3.301538	0.005283	-0.476907	0.002299	-0.760742	-0.140381	-0.754150	0.065735	-0.011118	0.012735	0.778659	0.214145	-0.512691	0.291514	5.164408	-67.409704	37.603630
22267		7.643831	-0.727522	1.508953	1.784828	0.286800	-2.199122	0.058160	-0.529989	0.026024	-0.763184	-0.135986	-0.747559	0.076399	-0.007270	0.015290	0.777185	0.214984	-0.514793	0.291123	5.210528	-67.721664	37.573086
22268		8.694588	-0.268842	2.078515	1.376738	0.482280	-0.988842	0.081522	-0.412425	0.039388	-0.770020	-0.136230	-0.743164	0.086903	-0.002680	0.020963	0.775941	0.215757	-0.516392	0.291039	5.238261	-67.966818	37.587536
22269		9.207207	0.059661	2.469106	1.017670	0.575241	-0.351921	0.018073	-0.255822	0.054219	-0.770020	-0.136230	-0.745361	0.092040	0.000619	0.024809	0.775167	0.215967	-0.517517	0.290947	5.186267	-68.124344	37.638085
22270		9.066206	-0.084147	1.823229	1.489101	0.838464	-0.723856	-0.068871	-0.187109	0.074599	-0.763672	-0.127197	-0.743164	0.090645	-0.000801	0.018317	0.774612	0.215736	-0.518497	0.290852	5.047492	-68.242705	37.739038
22271		8.992825	-0.484994	0.566081	2.566594	1.316421	-1.262475	-0.077618	-0.312558	0.099605	-0.772217	-0.134033	-0.743164	0.089922	-0.004803	0.005803	0.773732	0.215527	-0.520026	0.290620	4.878512	-68.433860	37.854595
22272		9.553122	-1.174398	1.004205	2.864041	0.639740	-0.591103	0.018135	-0.430158	0.103965	-0.776367	-0.138672	-0.732178	0.095515	-0.011695	0.010246	0.772405	0.215908	-0.521847	0.290601	4.773366	-68.692208	37.972710
22273		10.186382	-0.548453	2.436414	1.613201	0.310967	0.545887	0.170127	-0.368251	0.111800	-0.783691	-0.130127	-0.734375	0.101822	-0.005448	0.024547	0.771082	0.216722	-0.523238	0.291009	4.733598	-68.916057	38.104174
22274		10.826029	-0.177693	4.073730	0.403067	-0.335273	1.743906	0.184416	-0.172284	0.096695	-0.781250	-0.132324	-0.725586	0.108226	-0.001762	0.040829	0.770254	0.217387	-0.523811	0.291673	4.699291	-69.026729	38.248139
22275		12.413432	1.077798	6.757247	-1.836660	-0.784359	4.220374	0.314440	0.024832	0.169000	-0.779053	-0.129883	-0.729980	0.124134	0.010777	0.067574	0.769714	0.218023	-0.523543	0.293101	4.604391	-69.029260	38.525662
22276		15.292674	4.171236	8.608193	-4.441653	0.921079	7.645503	0.345832	-0.429861	0.505624	-0.781250	-0.130127	-0.723389	0.152635	0.041949	0.086483	0.767429	0.218617	-0.525312	0.295476	4.074658	-69.304482	39.298473
22277		13.900760	3.505580	6.024069	-2.746086	1.787639	5.388334	-0.059097	-0.584648	0.787275	-0.786133	-0.123535	-0.716553	0.138691	0.035620	0.060636	0.764776	0.217081	-0.528597	0.297623	2.870001	-69.674189	40.530674
22278		9.547310	0.207179	3.680665	-0.137819	-0.039630	0.420606	0.009857	0.236010	0.763922	-0.786377	-0.121338	-0.716553	0.095508	0.002435	0.036694	0.764209	0.214705	-0.528578	0.300819	1.665265	-69.563920	41.815917
22279		8.166711	-0.341562	4.773838	-0.895723	-1.427023	-0.498045	0.517444	-0.192163	0.637239	-0.786377	-0.116943	-0.714355	0.081632	-0.003279	0.047808	0.762166	0.215194	-0.529311	0.304341	0.964971	-69.690509	42.862906
22280		10.665867	-1.719779	5.061269	0.439690	-2.030568	1.935401	0.653199	-0.835490	0.648971	-0.795166	-0.121582	-0.703369	0.106502	-0.017018	0.051002	0.758213	0.217192	-0.532263	0.307633	0.316327	-70.180752	43.945935
22281		14.303420	-3.048058	5.633383	1.781141	-2.513281	5.553633	0.986652	-0.587466	0.857859	-0.802002	-0.119629	-0.707764	0.142998	-0.030146	0.056605	0.754223	0.219461	-0.533988	0.312797	-0.518085	-70.524621	45.416576
22282		15.587178	-2.577199	7.186407	0.652524	-2.848728	7.295919	0.936201	0.153852	1.044798	-0.800049	-0.115234	-0.705566	0.156060	-0.025293	0.071625	0.751916	0.219915	-0.533150	0.319392	-1.685704	-70.432201	47.218582
22283		13.320532	-1.688693	7.856586	-0.955845	-3.103502	5.401345	0.579130	0.649024	1.105948	-0.798096	-0.108398	-0.712158	0.133551	-0.016376	0.078085	0.751217	0.218005	-0.531084	0.325725	-3.096209	-70.041062	49.052681
22284		10.773156	0.494518	7.517746	-2.890638	-1.900888	2.870062	0.490771	0.369006	1.060961	-0.798096	-0.106201	-0.707764	0.107842	0.005333	0.074991	0.749882	0.216386	-0.530119	0.331404	-4.457280	-69.797009	50.795270
22285		11.041633	1.903789	6.750707	-3.407191	-0.284886	2.813615	0.400018	-0.106700	0.898457	-0.802490	-0.108643	-0.709961	0.110294	0.019398	0.067604	0.747659	0.215578	-0.530921	0.335640	-5.662424	-69.819422	52.305839
22286		11.482980	1.267978	5.392224	-2.023591	0.354945	2.769902	0.347507	0.037152	0.590914	-0.805176	-0.102051	-0.707764	0.114802	0.012925	0.053923	0.746349	0.215206	-0.530907	0.338803	-6.393788	-69.769450	53.291364
22287		10.647676	0.613614	4.909119	-1.412058	0.038285	1.842933	0.496390	0.340986	0.229728	-0.800537	-0.104004	-0.709961	0.106553	0.006137	0.048925	0.746311	0.215789	-0.529136	0.341277	-6.426251	-69.568114	53.614007
22288		10.564262	0.977483	5.719689	-2.188103	-0.286511	2.036529	0.632948	0.200699	-0.021948	-0.798096	-0.108398	-0.712158	0.105701	0.009582	0.057121	0.746154	0.217827	-0.527355	0.343079	-6.018287	-69.461896	53.559666
22289		10.987002	1.695598	5.737354	-2.607588	0.280249	2.419575	0.640339	0.087953	-0.105224	-0.797363	-0.121582	-0.716553	0.109904	0.016714	0.057379	0.745852	0.220255	-0.525910	0.344400	-5.501213	-69.425079	53.383079
22290		10.628546	1.936905	4.674871	-2.154189	1.053131	1.712166	0.618631	0.256417	-0.072603	-0.797363	-0.121826	-0.709961	0.106352	0.019186	0.046672	0.745928	0.222272	-0.523880	0.346030	-5.022125	-69.289429	53.243912
