// General information: 
//  MT Manager version: 2019.2.0 
//  XDA version: 2019.2.0 build 3853 rev 94535 built on 2019-09-09
// Device information: 
//  DeviceId: 00B40A8D
//  ProductCode: MTW2-3A7G6
//  Firmware Version: 4.3.5
//  Hardware Version: 1.1.0
// Device settings: 
//  Filter Profile: human(46.1)
//  Option Flags: Orientation Smoother Disabled, AHS Disabled, ICC Disabled
// Coordinate system: ENU
PacketCounter	SampleTimeFine	Acc_X	Acc_Y	Acc_Z	FreeAcc_E	FreeAcc_N	FreeAcc_U	Gyr_X	Gyr_Y	Gyr_Z	Mag_X	Mag_Y	Mag_Z	VelInc_X	VelInc_Y	VelInc_Z	Quat_q0	Quat_q1	Quat_q2	Quat_q3	Roll	Pitch	Yaw
51867		9.730379	0.423834	-1.312351	0.001401	-0.004672	0.014934	-0.077118	-0.016250	0.010363	-0.942871	0.021484	0.568604	0.097305	0.004238	-0.013117	-0.043743	0.748393	0.082255	0.656680	162.345459	-81.933426	27.902954
51868		9.702854	0.455758	-1.318087	-0.000080	-0.039224	-0.010193	-0.083209	-0.014709	0.011000	-0.940430	0.017090	0.566406	0.097029	0.004557	-0.013176	-0.043457	0.748487	0.081888	0.656638	162.392548	-81.925736	27.802676
51869		9.717485	0.483120	-1.347863	-0.020741	-0.070639	0.009442	-0.087618	-0.014241	0.009954	-0.940674	0.021484	0.568604	0.097176	0.004830	-0.013474	-0.043157	0.748582	0.081513	0.656596	162.435100	-81.917870	27.705101
51870		9.713886	0.450021	-1.299030	0.021933	-0.030168	-0.002071	-0.086692	-0.008619	0.009230	-0.940430	0.019287	0.566406	0.097139	0.004499	-0.012988	-0.042845	0.748660	0.081131	0.656575	162.465835	-81.912540	27.617883
51871		9.718832	0.473867	-1.295074	0.031495	-0.052914	0.003303	-0.095585	-0.004464	0.008649	-0.938232	0.021729	0.570801	0.097188	0.004737	-0.012951	-0.042515	0.748723	0.080733	0.656573	162.486747	-81.909775	27.537550
51872		9.670175	0.465168	-1.328803	-0.008234	-0.053502	-0.040714	-0.094615	-0.007002	0.010360	-0.940674	0.023682	0.566406	0.096702	0.004650	-0.013287	-0.042183	0.748799	0.080323	0.656558	162.517262	-81.905381	27.446579
51873		9.702499	0.456962	-1.320276	0.003450	-0.042310	-0.010206	-0.098598	-0.004591	0.011680	-0.940674	0.021484	0.570801	0.097025	0.004569	-0.013203	-0.041851	0.748864	0.079904	0.656556	162.548157	-81.903057	27.354419
51874		9.681435	0.459369	-1.308107	0.013804	-0.044547	-0.032597	-0.106072	-0.004229	0.013676	-0.942627	0.019287	0.570801	0.096814	0.004593	-0.013081	-0.041497	0.748933	0.079450	0.656556	162.583330	-81.900961	27.253425
51875		9.697511	0.433679	-1.324366	-0.003992	-0.021507	-0.015582	-0.108370	-0.002890	0.013310	-0.940430	0.017090	0.568604	0.096975	0.004336	-0.013245	-0.041135	0.748995	0.078991	0.656563	162.612779	-81.899832	27.157069
51876		9.708841	0.427619	-1.303237	0.017360	-0.011847	-0.007462	-0.114678	0.000869	0.014275	-0.944824	0.019287	0.568604	0.097088	0.004276	-0.013035	-0.040742	0.749049	0.078499	0.656585	162.636356	-81.900484	27.061267
51877		9.723741	0.455121	-1.330955	-0.003315	-0.043262	0.012171	-0.122646	0.005688	0.016926	-0.940186	0.014893	0.566406	0.097237	0.004551	-0.013315	-0.040341	0.749086	0.077978	0.656629	162.661239	-81.904651	26.961261
51878		9.709107	0.427625	-1.301257	0.018706	-0.013093	-0.007466	-0.126800	0.007113	0.017059	-0.937988	0.014893	0.570801	0.097090	0.004276	-0.013019	-0.039917	0.749120	0.077437	0.656681	162.680103	-81.909571	26.863632
51879		9.699475	0.423639	-1.267218	0.049612	-0.005091	-0.021740	-0.125068	0.006028	0.015359	-0.937988	0.017090	0.570801	0.096994	0.004236	-0.012678	-0.039502	0.749156	0.076914	0.656726	162.697291	-81.913647	26.769999
51880		9.703102	0.457668	-1.315593	0.008424	-0.046666	-0.010229	-0.122360	-0.000786	0.013845	-0.937744	0.010498	0.572998	0.097031	0.004575	-0.013158	-0.039075	0.749218	0.076395	0.656742	162.717763	-81.912903	26.672433
51881		9.691838	0.464278	-1.336118	-0.011525	-0.057551	-0.018350	-0.127144	-0.007235	0.014327	-0.935791	0.014893	0.572998	0.096919	0.004641	-0.013361	-0.038644	0.749296	0.075872	0.656738	162.745679	-81.909537	26.566763
51882		9.714091	0.409187	-1.336611	-0.017359	-0.002040	0.001447	-0.129621	-0.006869	0.012773	-0.944580	0.012451	0.570801	0.097141	0.004089	-0.013365	-0.038174	0.749381	0.075327	0.656731	162.764096	-81.904858	26.465723
51883		9.744916	0.411579	-1.381644	-0.056494	-0.009760	0.038122	-0.131011	-0.004875	0.015638	-0.940186	0.014893	0.572998	0.097449	0.004114	-0.013817	-0.037734	0.749453	0.074786	0.656737	162.791908	-81.902993	26.357917
51884		9.744927	0.411679	-1.381535	-0.055745	-0.010338	0.038125	-0.133803	-0.004062	0.019853	-0.935791	0.015137	0.570801	0.097449	0.004117	-0.013816	-0.037283	0.749527	0.074208	0.656744	162.831849	-81.901732	26.234160
51885		9.771097	0.432771	-1.388691	-0.055803	-0.031529	0.065874	-0.137773	0.001514	0.022709	-0.942383	0.012695	0.570801	0.097710	0.004329	-0.013891	-0.036843	0.749580	0.073617	0.656775	162.875386	-81.904539	26.106557
51886		9.746665	0.400449	-1.326392	-0.003438	0.007258	0.031960	-0.137986	0.011896	0.020674	-0.944580	0.012451	0.572998	0.097465	0.004005	-0.013272	-0.036389	0.749602	0.073022	0.656841	162.898540	-81.912088	25.997929
51887		9.719673	0.432193	-1.328232	-0.004962	-0.027315	0.006796	-0.147541	0.017727	0.025033	-0.937988	0.012695	0.562012	0.097195	0.004324	-0.013294	-0.035926	0.749604	0.072387	0.656935	162.926479	-81.924147	25.880432
51888		9.679357	0.424953	-1.248077	0.065721	-0.012242	-0.044179	-0.151182	0.017866	0.026012	-0.940186	0.012695	0.568604	0.096792	0.004253	-0.012493	-0.035446	0.749606	0.071732	0.657030	162.954321	-81.936445	25.760090
51889		9.684412	0.405546	-1.283354	0.027325	0.000580	-0.035236	-0.163099	0.014506	0.024210	-0.944580	0.010254	0.568604	0.096843	0.004057	-0.012844	-0.034921	0.749620	0.071049	0.657117	162.974399	-81.946586	25.641536
51890		9.647333	0.390535	-1.294367	0.008089	0.010293	-0.071087	-0.170695	0.017036	0.026529	-0.940186	0.012695	0.564209	0.096472	0.003907	-0.012955	-0.034369	0.749628	0.070327	0.657215	162.994710	-81.958417	25.517366
51891		9.717347	0.396351	-1.270350	0.039727	0.011076	-0.004730	-0.175843	0.016828	0.022226	-0.939941	0.010498	0.570801	0.097172	0.003963	-0.012715	-0.033790	0.749634	0.069609	0.657314	162.997402	-81.969490	25.409003
51892		9.690082	0.386391	-1.314136	-0.009714	0.012134	-0.026284	-0.175261	0.015509	0.023044	-0.937744	0.008301	0.570801	0.096899	0.003864	-0.013152	-0.033213	0.749646	0.068889	0.657406	163.005145	-81.979867	25.295536
51893		9.759798	0.350310	-1.332298	-0.025964	0.048519	0.043700	-0.169380	0.024359	0.020409	-0.939941	0.008301	0.568604	0.097596	0.003502	-0.013338	-0.032655	0.749624	0.068198	0.657530	162.995825	-81.994760	25.203049
51894		9.791208	0.353002	-1.373615	-0.064998	0.040857	0.080405	-0.158089	0.037505	0.024816	-0.937744	0.008301	0.568604	0.097909	0.003531	-0.013757	-0.032147	0.749563	0.067516	0.657696	162.994011	-82.017016	25.107903
51895		9.774551	0.389640	-1.404957	-0.096782	-0.002333	0.069529	-0.146286	0.051210	0.024664	-0.944092	0.003662	0.566406	0.097741	0.003898	-0.014077	-0.031698	0.749450	0.066881	0.657911	162.982925	-82.047336	25.030571
51896		9.744474	0.386328	-1.354029	-0.056304	0.004120	0.032831	-0.135642	0.061499	0.025505	-0.939941	0.010498	0.562012	0.097440	0.003867	-0.013573	-0.031284	0.749303	0.066267	0.658160	162.966736	-82.083185	24.962925
51897		9.739272	0.415738	-1.363348	-0.067454	-0.028872	0.030055	-0.139501	0.055656	0.029129	-0.942139	0.005859	0.564209	0.097388	0.004162	-0.013663	-0.030877	0.749175	0.065636	0.658388	162.972379	-82.116694	24.872640
51898		9.713951	0.393377	-1.350332	-0.066099	-0.008986	0.002329	-0.142662	0.054507	0.030937	-0.939697	0.006104	0.568604	0.097135	0.003939	-0.013533	-0.030466	0.749050	0.064991	0.658614	162.984449	-82.150130	24.774352
51899		9.735863	0.390466	-1.356896	-0.075000	-0.008085	0.024740	-0.144344	0.048199	0.028283	-0.946777	0.010254	0.562012	0.097355	0.003909	-0.013595	-0.030035	0.748946	0.064348	0.658815	162.993865	-82.179407	24.677471
51900		9.762872	0.410902	-1.358427	-0.075065	-0.029335	0.052470	-0.142232	0.052207	0.030539	-0.942139	0.008057	0.568604	0.097625	0.004114	-0.013613	-0.029623	0.748829	0.063704	0.659029	163.009731	-82.211260	24.575511
51901		9.726430	0.395795	-1.365651	-0.094321	-0.019630	0.016647	-0.148104	0.066914	0.025051	-0.942383	0.012695	0.568604	0.097259	0.003960	-0.013692	-0.029174	0.748662	0.063059	0.659301	162.981879	-82.250248	24.514084
51902		9.711469	0.420596	-1.340969	-0.075132	-0.044070	-0.000443	-0.152640	0.072757	0.025910	-0.941895	0.003906	0.559814	0.097109	0.004208	-0.013448	-0.028719	0.748480	0.062395	0.659590	162.952899	-82.291992	24.451803
51903		9.644248	0.444063	-1.259096	-0.006755	-0.062970	-0.076670	-0.152980	0.073991	0.025052	-0.939697	0.003906	0.557617	0.096437	0.004443	-0.012630	-0.028254	0.748290	0.061732	0.659889	162.913791	-82.334865	24.398928
51904		9.640295	0.461531	-1.213870	0.032879	-0.077152	-0.085676	-0.165780	0.063116	0.029134	-0.948730	0.003662	0.559814	0.096398	0.004619	-0.012173	-0.027750	0.748135	0.061014	0.660152	162.895902	-82.372724	24.317211
51905		9.613896	0.451856	-1.253631	-0.016618	-0.076044	-0.107189	-0.160086	0.059672	0.026065	-0.946533	0.005859	0.564209	0.096135	0.004521	-0.012569	-0.027257	0.747992	0.060326	0.660399	162.875214	-82.407933	24.241654
51906		9.658048	0.434945	-1.218088	0.015770	-0.054828	-0.068584	-0.160955	0.060310	0.029775	-0.944336	0.008057	0.562012	0.096576	0.004354	-0.012214	-0.026775	0.747846	0.059623	0.660648	162.868905	-82.444328	24.151430
51907		9.653001	0.464484	-1.226600	0.004573	-0.087822	-0.071384	-0.159236	0.062411	0.029638	-0.948486	-0.000977	0.559814	0.096525	0.004649	-0.012300	-0.026298	0.747693	0.058923	0.660902	162.860629	-82.481643	24.063858
51908		9.638536	0.393958	-1.235982	-0.021239	-0.022097	-0.087293	-0.164147	0.066357	0.028093	-0.948730	0.005859	0.562012	0.096381	0.003943	-0.012395	-0.025801	0.747526	0.058214	0.661173	162.838820	-82.520932	23.987328
51909		9.676775	0.407278	-1.215049	-0.000657	-0.033193	-0.051484	-0.164979	0.063823	0.030215	-0.941650	-0.000732	0.559814	0.096763	0.004077	-0.012185	-0.025304	0.747369	0.057494	0.661434	162.828595	-82.559123	23.898418
51910		9.693683	0.381653	-1.225901	-0.018323	-0.010189	-0.034367	-0.166341	0.060365	0.023314	-0.944092	0.001465	0.557617	0.096933	0.003818	-0.012291	-0.024779	0.747221	0.056794	0.661680	162.794749	-82.594036	23.832561
51911		9.704616	0.346283	-1.295723	-0.095729	0.016207	-0.016313	-0.168684	0.057580	0.020143	-0.946289	0.003662	0.559814	0.097042	0.003462	-0.012988	-0.024234	0.747081	0.056100	0.661918	162.748603	-82.627115	23.777746
51912		9.711347	0.356694	-1.230718	-0.035346	0.012095	-0.017242	-0.165357	0.061826	0.019917	-0.948730	0.003662	0.555420	0.097109	0.003566	-0.012340	-0.023707	0.746925	0.055420	0.662170	162.700093	-82.662409	23.727970
51913		9.712092	0.316160	-1.268282	-0.082530	0.047095	-0.013494	-0.168419	0.054334	0.018493	-0.950684	0.001221	0.555420	0.097117	0.003160	-0.012712	-0.023157	0.746794	0.054732	0.662395	162.651459	-82.693442	23.675826
51914		9.685753	0.349056	-1.265802	-0.084277	0.012465	-0.038709	-0.163901	0.044341	0.014747	-0.945801	-0.007324	0.555420	0.096854	0.003487	-0.012682	-0.022621	0.746689	0.054085	0.662585	162.604601	-82.718964	23.626366
51915		9.681231	0.326563	-1.266607	-0.092437	0.033922	-0.043989	-0.166069	0.045654	0.014381	-0.946045	-0.005127	0.553223	0.096809	0.003262	-0.012691	-0.022063	0.746584	0.053421	0.662776	162.551335	-82.744558	23.580255
51916		9.686957	0.350454	-1.256164	-0.083029	0.011157	-0.038697	-0.159550	0.039684	0.012960	-0.943848	-0.002930	0.557617	0.096867	0.003501	-0.012584	-0.021513	0.746495	0.052780	0.662945	162.499765	-82.766732	23.534920
51917		9.677146	0.345462	-1.219708	-0.052168	0.019057	-0.053020	-0.157126	0.031996	0.010071	-0.945801	-0.009766	0.557617	0.096769	0.003450	-0.012215	-0.020971	0.746432	0.052164	0.663083	162.451553	-82.784132	23.488884
51918		9.677614	0.305896	-1.260096	-0.099268	0.054131	-0.049243	-0.160283	0.033955	0.013442	-0.947998	-0.009766	0.555420	0.096774	0.003055	-0.012620	-0.020417	0.746365	0.051517	0.663225	162.412353	-82.802650	23.430459
51919		9.678129	0.306637	-1.255954	-0.098622	0.053437	-0.049233	-0.155819	0.041646	0.012344	-0.947998	-0.011963	0.557617	0.096778	0.003063	-0.012582	-0.019890	0.746269	0.050896	0.663397	162.361499	-82.825722	23.387844
51920		9.684326	0.317062	-1.193111	-0.038267	0.049433	-0.050193	-0.146290	0.032775	0.006307	-0.952637	-0.007568	0.555420	0.096841	0.003165	-0.011949	-0.019357	0.746201	0.050318	0.663534	162.297409	-82.842578	23.361564
51921		9.647456	0.304328	-1.204074	-0.057575	0.059195	-0.085972	-0.148994	0.030300	0.008887	-0.950684	-0.000977	0.553223	0.096473	0.003039	-0.012058	-0.018840	0.746140	0.049733	0.663662	162.251060	-82.858865	23.318352
51922		9.658679	0.297473	-1.180679	-0.036302	0.068575	-0.077876	-0.141655	0.021779	0.009096	-0.950195	-0.009766	0.557617	0.096585	0.002971	-0.011819	-0.018359	0.746104	0.049179	0.663757	162.223223	-82.870950	23.261975
51923		9.658929	0.298170	-1.178457	-0.035661	0.067873	-0.077868	-0.138215	0.015606	0.010658	-0.945557	-0.011963	0.553223	0.096588	0.002979	-0.011794	-0.017885	0.746090	0.048625	0.663826	162.211372	-82.879535	23.190224
51924		9.680350	0.297209	-1.188763	-0.044519	0.068780	-0.055436	-0.129942	0.009606	0.008748	-0.948242	-0.007568	0.548828	0.096803	0.002969	-0.011894	-0.017424	0.746096	0.048099	0.663870	162.202268	-82.884243	23.119092
51925		9.654054	0.276309	-1.181997	-0.043147	0.088685	-0.083119	-0.122432	0.002021	0.010169	-0.943359	-0.013916	0.551025	0.096540	0.002761	-0.011823	-0.017004	0.746125	0.047600	0.663884	162.216461	-82.885332	23.030209
51926		9.659255	0.260206	-1.220452	-0.081584	0.101587	-0.074031	-0.116397	-0.008886	0.004666	-0.947998	-0.007568	0.553223	0.096593	0.002597	-0.012202	-0.016584	0.746186	0.047144	0.663859	162.222888	-82.879852	22.952600
51927		9.669924	0.253364	-1.201479	-0.060252	0.111010	-0.065933	-0.102721	-0.026426	0.001806	-0.950195	-0.011963	0.553223	0.096701	0.002528	-0.012003	-0.016203	0.746305	0.046744	0.663763	162.251487	-82.863952	22.860578
51928		9.664413	0.231440	-1.210272	-0.068444	0.132450	-0.071179	-0.100169	-0.033142	0.000098	-0.945801	-0.009766	0.557617	0.096646	0.002308	-0.012088	-0.015827	0.746444	0.046362	0.663642	162.283096	-82.844358	22.767466
51929		9.621538	0.235697	-1.189394	-0.048768	0.128653	-0.116024	-0.088547	-0.033897	-0.000737	-0.943848	-0.005127	0.551025	0.096217	0.002351	-0.011879	-0.015489	0.746586	0.046019	0.663514	162.318501	-82.823925	22.676761
51930		9.637136	0.212330	-1.211142	-0.066403	0.151579	-0.098834	-0.089190	-0.044910	-0.002314	-0.943604	-0.009521	0.553223	0.096374	0.002117	-0.012091	-0.015152	0.746765	0.045688	0.663344	162.365460	-82.797202	22.575612
51931		9.599265	0.239742	-1.185387	-0.037952	0.125623	-0.138429	-0.073476	-0.050205	-0.004928	-0.949951	-0.014160	0.559814	0.095996	0.002391	-0.011831	-0.014852	0.746958	0.045412	0.663152	162.412847	-82.767119	22.481524
51932		9.641048	0.238057	-1.214349	-0.056326	0.127997	-0.093554	-0.066650	-0.057407	-0.005567	-0.943604	-0.009521	0.562012	0.096414	0.002374	-0.012117	-0.014575	0.747175	0.045162	0.662931	162.471212	-82.732904	22.380329
51933		9.624266	0.263858	-1.201688	-0.037397	0.103582	-0.110727	-0.058028	-0.061535	-0.005053	-0.941162	-0.013916	0.557617	0.096246	0.002633	-0.011988	-0.014330	0.747405	0.044938	0.662692	162.540828	-82.696584	22.272740
51934		9.628674	0.288129	-1.201225	-0.027857	0.080691	-0.105471	-0.048898	-0.061844	-0.007454	-0.947998	-0.009766	0.555420	0.096291	0.002875	-0.011983	-0.014110	0.747639	0.044752	0.662446	162.607939	-82.659010	22.172786
51935		9.606636	0.291075	-1.195591	-0.017719	0.078445	-0.127898	-0.047925	-0.073834	-0.010753	-0.945557	-0.014160	0.553223	0.096071	0.002903	-0.011921	-0.013881	0.747907	0.044584	0.662159	162.673689	-82.614958	22.074913
51936		9.626875	0.291086	-1.214860	-0.026717	0.079232	-0.105456	-0.038865	-0.079255	-0.009441	-0.943604	-0.009521	0.555420	0.096274	0.002904	-0.012111	-0.013699	0.748187	0.044450	0.661855	162.756135	-82.568897	21.966805
51937		9.641980	0.307478	-1.196375	0.003394	0.066458	-0.092132	-0.037029	-0.090705	-0.009489	-0.947754	-0.014160	0.559814	0.096425	0.003068	-0.011921	-0.013511	0.748510	0.044314	0.661503	162.853036	-82.515790	21.843790
51938		9.667170	0.330217	-1.211141	0.003220	0.045056	-0.064455	-0.029339	-0.097365	-0.006897	-0.943359	-0.011719	0.564209	0.096678	0.003297	-0.012065	-0.013369	0.748852	0.044202	0.661126	162.973112	-82.459965	21.703199
51939		9.650853	0.340960	-1.149986	0.073040	0.039299	-0.087936	-0.030269	-0.108161	-0.002731	-0.947754	-0.011963	0.562012	0.096515	0.003407	-0.011448	-0.013225	0.749234	0.044065	0.660706	163.120162	-82.398353	21.533470
51940		9.670709	0.340025	-1.172671	0.064167	0.040062	-0.065500	-0.032743	-0.112865	-0.000576	-0.943115	-0.016357	0.564209	0.096714	0.003398	-0.011673	-0.013086	0.749630	0.043916	0.660268	163.280284	-82.334580	21.350117
51941		9.631947	0.327061	-1.198017	0.044812	0.049895	-0.101245	-0.034689	-0.116878	-0.002971	-0.943359	-0.014160	0.572998	0.096326	0.003267	-0.011924	-0.012922	0.750040	0.043766	0.659816	163.429131	-82.268023	21.175968
51942		9.625332	0.304797	-1.215385	0.036759	0.071375	-0.106472	-0.035079	-0.115605	-0.003790	-0.943604	-0.009521	0.562012	0.096260	0.003044	-0.012099	-0.012750	0.750449	0.043612	0.659365	163.571062	-82.201455	21.007701
51943		9.692426	0.324442	-1.256555	0.017667	0.053086	-0.033926	-0.029091	-0.111970	-0.008167	-0.943115	-0.016357	0.566406	0.096931	0.003239	-0.012512	-0.012591	0.750840	0.043500	0.658930	163.691300	-82.136646	20.865614
51944		9.748359	0.352398	-1.317442	-0.022229	0.024642	0.030545	-0.025195	-0.102926	-0.009991	-0.938721	-0.013916	0.566406	0.097491	0.003517	-0.013125	-0.012454	0.751197	0.043413	0.658531	163.794966	-82.077125	20.743883
51945		9.768102	0.352159	-1.339167	-0.031091	0.025461	0.052989	-0.022266	-0.093279	-0.008069	-0.938965	-0.011719	0.568604	0.097687	0.003516	-0.013346	-0.012325	0.751526	0.043322	0.658164	163.894299	-82.022547	20.626811
51946		9.803061	0.381412	-1.385996	-0.061404	-0.004523	0.095021	-0.020241	-0.081036	-0.007754	-0.938965	-0.011719	0.575195	0.098036	0.003809	-0.013821	-0.012217	0.751814	0.043240	0.657843	163.983132	-81.974923	20.522736
51947		9.792106	0.375862	-1.361088	-0.030565	0.003320	0.080655	-0.023404	-0.073966	-0.008035	-0.941162	-0.011719	0.572998	0.097926	0.003753	-0.013575	-0.012089	0.752079	0.043144	0.657548	164.057799	-81.930939	20.429889
51948		9.812091	0.375590	-1.380661	-0.039336	0.004046	0.103101	-0.019512	-0.076304	-0.009443	-0.943359	-0.014160	0.575195	0.098126	0.003750	-0.013770	-0.011980	0.752353	0.043069	0.657241	164.135494	-81.885141	20.337432
51949		9.746507	0.395691	-1.403370	-0.061171	-0.019876	0.042071	-0.018394	-0.069723	-0.008672	-0.938721	-0.013916	0.570801	0.097470	0.003951	-0.014000	-0.011869	0.752604	0.042991	0.656961	164.204120	-81.843362	20.253567
51950		9.752190	0.405158	-1.351300	-0.000875	-0.024194	0.040981	-0.016769	-0.070706	-0.010395	-0.938721	-0.016113	0.568604	0.097527	0.004045	-0.013479	-0.011765	0.752856	0.042928	0.656678	164.269101	-81.800956	20.175145
51951		9.724896	0.385008	-1.352318	0.000476	-0.004242	0.013327	-0.017135	-0.075686	-0.014502	-0.938721	-0.013916	0.575195	0.097254	0.003842	-0.013487	-0.011639	0.753125	0.042877	0.656376	164.321080	-81.754958	20.108811
51952		9.766627	0.329648	-1.376928	-0.014714	0.052502	0.055881	-0.023468	-0.078065	-0.010928	-0.938477	-0.018311	0.575195	0.097672	0.003290	-0.013732	-0.011506	0.753400	0.042795	0.656068	164.385486	-81.708611	20.027088
51953		9.748977	0.316301	-1.410789	-0.043561	0.063910	0.042613	-0.017300	-0.076622	-0.015741	-0.932129	-0.013672	0.575195	0.097495	0.003154	-0.014071	-0.011375	0.753671	0.042747	0.655762	164.432311	-81.661887	19.965853
51954		9.786227	0.277949	-1.396645	-0.019689	0.107030	0.076006	-0.012456	-0.074421	-0.024612	-0.938965	-0.011719	0.579834	0.097868	0.002767	-0.013930	-0.011235	0.753933	0.042750	0.655463	164.446805	-81.614939	19.940311
51955		9.742412	0.244194	-1.423512	-0.047807	0.139115	0.035102	-0.006360	-0.061568	-0.029827	-0.938477	-0.018555	0.582031	0.097429	0.002427	-0.014205	-0.011102	0.754151	0.042790	0.655211	164.430793	-81.574354	19.948916
51956		9.723201	0.180030	-1.356193	0.016531	0.209896	0.004032	0.009666	-0.043312	-0.037968	-0.941162	-0.011963	0.582031	0.097235	0.001782	-0.013541	-0.011011	0.754308	0.042913	0.655024	164.377657	-81.542323	20.004738
51957		9.638696	0.189249	-1.310445	0.055067	0.203114	-0.085753	0.018954	-0.037537	-0.042928	-0.931885	-0.018311	0.582031	0.096390	0.001873	-0.013086	-0.010935	0.754443	0.043085	0.654858	164.303215	-81.512968	20.087082
51958		9.617081	0.194847	-1.302158	0.065266	0.200836	-0.108192	0.035405	-0.047445	-0.052358	-0.931885	-0.018311	0.579834	0.096174	0.001926	-0.012998	-0.010894	0.754610	0.043347	0.654649	164.217751	-81.476260	20.190631
51959		9.655717	0.198252	-1.240382	0.136844	0.208108	-0.078794	0.047184	-0.047238	-0.052093	-0.938477	-0.018555	0.579834	0.096561	0.001960	-0.012381	-0.010893	0.754773	0.043646	0.654441	164.137168	-81.440091	20.295557
51960		9.690720	0.231019	-1.283898	0.106570	0.178179	-0.036763	0.059008	-0.050169	-0.053482	-0.934082	-0.016113	0.577393	0.096911	0.002288	-0.012814	-0.010930	0.754945	0.043987	0.654220	164.062368	-81.401976	20.401199
51961		9.711778	0.273431	-1.256119	0.145428	0.143128	-0.018322	0.071663	-0.044284	-0.053678	-0.932129	-0.013916	0.584229	0.097121	0.002713	-0.012539	-0.011017	0.755097	0.044372	0.654018	163.988506	-81.367143	20.513534
51962		9.758191	0.298027	-1.279004	0.135919	0.123168	0.031768	0.080235	-0.036994	-0.053684	-0.936523	-0.016113	0.575195	0.097585	0.002959	-0.012771	-0.011147	0.755224	0.044789	0.653839	163.916203	-81.336198	20.630444
51963		9.698273	0.250285	-1.328782	0.078319	0.167443	-0.022354	0.092900	-0.031108	-0.053892	-0.932129	-0.013916	0.579834	0.096985	0.002483	-0.013272	-0.011317	0.755331	0.045244	0.653682	163.841394	-81.308540	20.756064
51964		9.718738	0.252984	-1.343955	0.069400	0.168161	0.000110	0.107582	-0.019226	-0.057095	-0.936768	-0.011719	0.575195	0.097189	0.002509	-0.013429	-0.011547	0.755393	0.045766	0.653570	163.753746	-81.287544	20.904990
51965		9.696615	0.218706	-1.378277	0.031820	0.201814	-0.018297	0.132301	-0.015337	-0.057488	-0.936523	-0.013916	0.579834	0.096968	0.002168	-0.013774	-0.011857	0.755445	0.046362	0.653463	163.673273	-81.267928	21.059194
51966		9.691132	0.199304	-1.386248	0.023574	0.223179	-0.023455	0.153718	-0.016710	-0.058956	-0.929688	-0.015869	0.582031	0.096913	0.001975	-0.013853	-0.012263	0.755493	0.047047	0.653351	163.604827	-81.248335	21.216435
51967		9.674218	0.187600	-1.414158	-0.005263	0.234644	-0.036674	0.183304	-0.012635	-0.062907	-0.932129	-0.013916	0.579834	0.096744	0.001859	-0.014134	-0.012749	0.755530	0.047829	0.653241	163.532420	-81.229267	21.392062
51968		9.704423	0.195880	-1.460118	-0.044262	0.226868	0.000198	0.199381	0.001618	-0.060482	-0.936523	-0.013916	0.582031	0.097045	0.001944	-0.014600	-0.013313	0.755520	0.048658	0.653181	163.465678	-81.218412	21.572175
51969		9.704431	0.198751	-1.459679	-0.043616	0.226176	0.000217	0.222116	0.016004	-0.062116	-0.938965	-0.011719	0.579834	0.097044	0.001974	-0.014602	-0.013955	0.755460	0.049562	0.653169	163.388779	-81.215134	21.774860
51970		9.765062	0.200157	-1.404229	0.018449	0.234794	0.052042	0.236294	0.026213	-0.062090	-0.929932	-0.013672	0.577393	0.097649	0.001988	-0.014053	-0.014665	0.755360	0.050519	0.653195	163.311179	-81.218127	21.988039
51971		9.805885	0.253890	-1.435224	-0.003087	0.182660	0.099242	0.247370	0.032083	-0.061898	-0.934570	-0.009521	0.575195	0.098057	0.002526	-0.014365	-0.015407	0.755244	0.051504	0.653236	163.232319	-81.223624	22.207347
51972		9.790294	0.280926	-1.414377	0.015626	0.158168	0.081957	0.251679	0.033733	-0.060521	-0.934570	-0.007324	0.582031	0.097901	0.002797	-0.014157	-0.016181	0.755116	0.052506	0.653285	163.160050	-81.231016	22.424117
51973		9.821649	0.328070	-1.412511	0.024286	0.114556	0.114744	0.261435	0.038361	-0.059036	-0.934814	-0.004883	0.577393	0.098215	0.003270	-0.014140	-0.016987	0.754976	0.053525	0.653344	163.092192	-81.240346	22.640438
51974		9.773099	0.323439	-1.443217	-0.015884	0.114357	0.071018	0.264447	0.040705	-0.061734	-0.931885	-0.016113	0.579834	0.097729	0.003223	-0.014448	-0.017817	0.754823	0.054577	0.653411	163.018632	-81.251015	22.867042
51975		9.736641	0.351987	-1.408941	0.012387	0.088455	0.031256	0.271208	0.055259	-0.064776	-0.934570	-0.007080	0.577393	0.097364	0.003507	-0.014112	-0.018646	0.754623	0.055648	0.653529	162.916708	-81.268548	23.123482
51976		9.745188	0.414030	-1.446498	-0.020507	0.024812	0.047912	0.279785	0.052323	-0.065215	-0.934326	-0.011719	0.577393	0.097449	0.004129	-0.014485	-0.019501	0.754429	0.056746	0.653633	162.819549	-81.284530	23.379574
51977		9.750706	0.439483	-1.436589	-0.011138	0.001914	0.053065	0.269858	0.061405	-0.061214	-0.934570	-0.009521	0.577393	0.097504	0.004384	-0.014390	-0.020337	0.754207	0.057799	0.653772	162.721329	-81.305897	23.631458
51978		9.760612	0.406185	-1.507641	-0.088401	0.028656	0.071587	0.265425	0.070310	-0.058728	-0.934570	-0.009521	0.575195	0.097602	0.004053	-0.015105	-0.021162	0.753954	0.058822	0.653946	162.616262	-81.332766	23.886807
51979		9.803873	0.445805	-1.481997	-0.058991	-0.004942	0.112406	0.262225	0.091830	-0.058194	-0.937012	-0.005127	0.582031	0.098033	0.004449	-0.014859	-0.021988	0.753631	0.059835	0.654199	162.487962	-81.371137	24.164655
51980		9.793679	0.454681	-1.493772	-0.079105	-0.015623	0.104354	0.258175	0.107682	-0.057128	-0.939453	0.001465	0.575195	0.097930	0.004538	-0.014985	-0.022804	0.753256	0.060825	0.654512	162.340475	-81.418254	24.458905
51981		9.832400	0.471076	-1.470561	-0.058411	-0.027015	0.140021	0.259277	0.116394	-0.056184	-0.939209	-0.007324	0.572998	0.098317	0.004702	-0.014757	-0.023633	0.752851	0.061818	0.654855	162.184987	-81.470169	24.762473
51982		9.833906	0.472747	-1.459914	-0.057863	-0.027752	0.140022	0.260390	0.125102	-0.055254	-0.939209	-0.002930	0.575195	0.098331	0.004719	-0.014654	-0.024479	0.752412	0.062814	0.655234	162.020469	-81.527567	25.076629
51983		9.782050	0.525991	-1.401244	-0.011472	-0.077355	0.082894	0.263303	0.136914	-0.053261	-0.937012	-0.002930	0.577393	0.097812	0.005252	-0.014072	-0.025339	0.751937	0.063806	0.655650	161.847294	-81.590919	25.400319
51984		9.741493	0.531018	-1.364947	0.008089	-0.081010	0.037952	0.263255	0.134876	-0.055745	-0.936768	-0.007324	0.575195	0.097407	0.005301	-0.013708	-0.026186	0.751469	0.064803	0.656056	161.663959	-81.652302	25.733474
51985		9.689406	0.584688	-1.306157	0.054457	-0.130610	-0.019197	0.249352	0.143178	-0.052084	-0.941650	-0.002930	0.564209	0.096886	0.005838	-0.013124	-0.027000	0.750972	0.065743	0.656498	161.471699	-81.718968	26.068267
51986		9.697155	0.598179	-1.235618	0.114692	-0.134914	-0.020445	0.233280	0.138282	-0.049619	-0.939453	-0.000732	0.568604	0.096964	0.005972	-0.012416	-0.027745	0.750492	0.066614	0.656928	161.276518	-81.783421	26.394667
51987		9.666151	0.608346	-1.232387	0.103998	-0.147083	-0.050983	0.216410	0.131893	-0.043771	-0.946289	-0.000732	0.564209	0.096655	0.006076	-0.012381	-0.028459	0.750038	0.067417	0.657334	161.102889	-81.845182	26.691458
51988		9.625607	0.571323	-1.239509	0.075762	-0.114765	-0.091773	0.206211	0.128734	-0.040376	-0.941895	0.003662	0.572998	0.096249	0.005707	-0.012451	-0.029139	0.749591	0.068171	0.657736	160.933446	-81.906295	26.977418
51989		9.636956	0.577387	-1.260856	0.046211	-0.123939	-0.077363	0.196860	0.131233	-0.037609	-0.941895	0.003662	0.570801	0.096362	0.005768	-0.012666	-0.029799	0.749142	0.068886	0.658144	160.765904	-81.968605	27.256659
51990		9.638446	0.578626	-1.248840	0.046992	-0.124610	-0.077375	0.185396	0.141031	-0.037880	-0.942139	0.006104	0.562012	0.096377	0.005780	-0.012551	-0.030415	0.748665	0.069558	0.658587	160.576479	-82.035323	27.550610
51991		9.646425	0.549905	-1.220412	0.059713	-0.093066	-0.074460	0.174861	0.140128	-0.034134	-0.948730	0.003418	0.566406	0.096457	0.005493	-0.012267	-0.031007	0.748189	0.070187	0.659034	160.390079	-82.102849	27.836075
51992		9.670103	0.538382	-1.166896	0.101880	-0.073781	-0.058377	0.160383	0.127905	-0.036428	-0.950684	0.001221	0.562012	0.096695	0.005376	-0.011726	-0.031534	0.747753	0.070777	0.659441	160.199289	-82.163427	28.117512
51993		9.712833	0.547274	-1.233270	0.032729	-0.089960	-0.007056	0.147806	0.114789	-0.032574	-0.946533	0.008057	0.564209	0.097122	0.005466	-0.012384	-0.032021	0.747363	0.071314	0.659801	160.031916	-82.217350	28.368040
51994		9.724144	0.553104	-1.256348	0.003154	-0.099107	0.007367	0.141067	0.099239	-0.030514	-0.946289	-0.000732	0.557617	0.097236	0.005525	-0.012608	-0.032479	0.747025	0.071820	0.660106	159.886950	-82.263358	28.591331
51995		9.703083	0.566987	-1.289212	-0.037744	-0.119733	-0.008729	0.128144	0.096537	-0.028665	-0.942139	0.006104	0.559814	0.097025	0.005664	-0.012935	-0.032900	0.746700	0.072281	0.660403	159.745283	-82.308060	28.804493
51996		9.661648	0.572017	-1.256566	-0.018297	-0.123280	-0.053689	0.110795	0.102448	-0.030263	-0.948730	0.005859	0.557617	0.096611	0.005713	-0.012612	-0.033238	0.746357	0.072681	0.660730	159.572133	-82.355463	29.037522
51997		9.641456	0.575349	-1.235636	-0.008229	-0.125431	-0.076174	0.096407	0.098576	-0.027075	-0.940186	0.012695	0.555420	0.096409	0.005746	-0.012401	-0.033546	0.746029	0.073030	0.661046	159.411111	-82.401415	29.251820
51998		9.653446	0.570268	-1.206506	0.013208	-0.116166	-0.068140	0.078958	0.083229	-0.020017	-0.946289	0.001465	0.562012	0.096530	0.005698	-0.012103	-0.033811	0.745757	0.073301	0.661309	159.291248	-82.440632	29.415113
51999		9.670991	0.545841	-1.215588	-0.004233	-0.093114	-0.050773	0.079985	0.077501	-0.019840	-0.948730	0.005859	0.557617	0.096706	0.005454	-0.012191	-0.034073	0.745505	0.073572	0.661551	159.178594	-82.476636	29.571089
52000		9.715113	0.532281	-1.178360	0.028651	-0.072255	-0.012217	0.072902	0.079723	-0.015535	-0.946533	0.003662	0.555420	0.097147	0.005320	-0.011820	-0.034306	0.745251	0.073791	0.661800	159.071494	-82.514038	29.714765
52001		9.769670	0.522809	-1.172861	0.031295	-0.060001	0.040779	0.071575	0.094018	-0.012358	-0.948975	0.012451	0.557617	0.097691	0.005226	-0.011773	-0.034568	0.744947	0.074004	0.662104	158.955996	-82.560333	29.868721
52002		9.809387	0.485404	-1.137942	0.055497	-0.017013	0.074235	0.063864	0.104675	-0.012508	-0.944336	0.005859	0.557617	0.098088	0.004852	-0.011429	-0.034799	0.744611	0.074186	0.662450	158.816703	-82.611986	30.041439
52003		9.800198	0.481613	-1.094281	0.086367	-0.009217	0.059785	0.058623	0.126292	-0.011975	-0.944336	0.008301	0.553223	0.097995	0.004813	-0.011003	-0.035026	0.744203	0.074349	0.662878	158.639378	-82.675493	30.250216
52004		9.765144	0.456147	-1.042026	0.118080	0.019406	0.017755	0.055785	0.135236	-0.010194	-0.946533	0.008057	0.553223	0.097645	0.004559	-0.010485	-0.035240	0.743771	0.074486	0.663336	158.449797	-82.743225	30.467932
52005		9.744762	0.469001	-1.071133	0.077170	-0.001183	0.001675	0.045898	0.132694	-0.011389	-0.950928	0.005859	0.548828	0.097441	0.004687	-0.010775	-0.035423	0.743343	0.074603	0.663793	158.249812	-82.810087	30.692138
52006		9.715597	0.424252	-1.056081	0.069906	0.041217	-0.030994	0.041665	0.129134	-0.007387	-0.950928	0.005859	0.546631	0.097149	0.004241	-0.010623	-0.035592	0.742930	0.074685	0.664236	158.064166	-82.875505	30.897882
52007		9.753456	0.450765	-1.083505	0.039673	0.011302	0.011027	0.032639	0.124872	-0.013498	-0.951172	0.008057	0.546631	0.097528	0.004503	-0.010895	-0.035717	0.742529	0.074768	0.664669	157.853320	-82.937565	31.125314
52008		9.788586	0.400612	-1.103102	0.004165	0.058141	0.045828	0.028291	0.135828	-0.008879	-0.953369	0.005615	0.548828	0.097879	0.004003	-0.011097	-0.035835	0.742093	0.074811	0.665144	157.632469	-83.006389	31.358989
52009		9.987754	0.386748	-1.081290	0.030985	0.085325	0.240458	0.027536	0.145654	-0.006404	-0.953369	0.005615	0.546631	0.099870	0.003866	-0.010885	-0.035972	0.741626	0.074847	0.665654	157.403763	-83.080788	31.601400
52010		10.133397	0.392778	-1.109461	0.004846	0.081298	0.388502	0.036961	0.158952	-0.001538	-0.951172	0.010254	0.546631	0.101325	0.003929	-0.011174	-0.036147	0.741117	0.074882	0.666207	157.167898	-83.162714	31.853947
52011		10.300960	0.406701	-1.200490	-0.081679	0.060213	0.565464	0.044591	0.180443	0.001377	-0.955811	0.010010	0.541992	0.102999	0.004070	-0.012097	-0.036386	0.740532	0.074939	0.666837	156.906947	-83.256957	32.138586
52012		10.366268	0.453150	-1.226166	-0.112527	0.009515	0.635065	0.048126	0.221978	0.007656	-0.953613	0.012451	0.541992	0.103649	0.004538	-0.012376	-0.036670	0.739813	0.074973	0.667616	156.587936	-83.373971	32.482862
52013		10.332374	0.425564	-1.161187	-0.080895	0.038038	0.593049	0.038338	0.277550	0.016580	-0.955566	0.008057	0.535400	0.103307	0.004266	-0.011754	-0.036973	0.738910	0.074935	0.668603	156.179100	-83.522291	32.912613
52014		10.184488	0.426930	-0.996716	0.036538	0.045430	0.429188	0.020073	0.342838	0.014122	-0.959961	0.005615	0.531006	0.101827	0.004278	-0.010141	-0.037218	0.737791	0.074828	0.669836	155.588537	-83.703480	33.513685
52015		10.035422	0.418134	-0.773986	0.204914	0.071170	0.258877	-0.000219	0.386974	0.020845	-0.962402	0.010010	0.528809	0.100339	0.004192	-0.007934	-0.037434	0.736526	0.074625	0.671237	154.883911	-83.908745	34.218442
52016		9.923352	0.445197	-0.642496	0.291266	0.049368	0.137012	-0.008027	0.389587	0.020821	-0.964844	0.010010	0.526611	0.099220	0.004462	-0.006618	-0.037609	0.735249	0.074388	0.672652	154.111961	-84.114534	34.984560
52017		9.818580	0.463095	-0.601732	0.287848	0.022912	0.030968	-0.008610	0.400453	0.022290	-0.962646	0.014404	0.520020	0.098173	0.004642	-0.006214	-0.037804	0.733936	0.074148	0.674100	153.271137	-84.324967	35.820845
52018		9.801959	0.420036	-0.592727	0.250374	0.056796	0.012795	-0.007153	0.404867	0.020292	-0.964844	0.012207	0.517822	0.098007	0.004210	-0.006126	-0.037997	0.732603	0.073919	0.675563	152.342604	-84.535939	36.745640
52019		9.830640	0.439889	-0.557857	0.250344	0.035292	0.040338	-0.023174	0.431849	0.017179	-0.971680	0.011963	0.508789	0.098294	0.004407	-0.005791	-0.038132	0.731178	0.073642	0.677127	151.234211	-84.757930	37.841675
52020		9.782474	0.405605	-0.554953	0.201363	0.057797	-0.008340	-0.032388	0.467312	0.013495	-0.969482	0.012207	0.504395	0.097811	0.004062	-0.005779	-0.038234	0.729627	0.073341	0.678826	149.882153	-84.994782	39.176695
52021		9.846559	0.378397	-0.431982	0.275948	0.098210	0.046244	-0.036932	0.506215	0.005818	-0.971680	0.012207	0.500000	0.098454	0.003786	-0.004570	-0.038307	0.727940	0.073044	0.680661	148.214544	-85.244841	40.825258
52022		9.925340	0.312887	-0.378867	0.272737	0.166237	0.119661	-0.037772	0.529695	0.003308	-0.976074	0.009766	0.500000	0.099243	0.003130	-0.004052	-0.038379	0.726164	0.072751	0.682583	146.247906	-85.501433	42.773089
52023		9.918581	0.265916	-0.334288	0.256141	0.210026	0.109547	-0.038142	0.558034	-0.003170	-0.973877	0.012207	0.491211	0.099176	0.002657	-0.003620	-0.038436	0.724288	0.072472	0.684600	143.885289	-85.762571	45.116794
52024		9.970567	0.179987	-0.269763	0.253795	0.298867	0.155431	-0.037434	0.574336	-0.012412	-0.982910	0.011719	0.491211	0.099697	0.001793	-0.002984	-0.038463	0.722347	0.072221	0.686673	141.072606	-86.019497	47.910617
52025		10.015169	0.164585	-0.290415	0.176129	0.304968	0.201838	-0.031476	0.587677	-0.018663	-0.989502	0.011719	0.486816	0.100143	0.001636	-0.003199	-0.038501	0.720351	0.072014	0.688786	137.769764	-86.268983	51.198999
52026		9.976105	0.115015	-0.309796	0.088486	0.341324	0.162643	-0.033002	0.616745	-0.031426	-0.985107	0.014160	0.471191	0.099751	0.001134	-0.003406	-0.038494	0.718246	0.071837	0.691000	133.730699	-86.510456	55.222461
52027		9.955857	0.133814	-0.178242	0.158227	0.335189	0.138746	-0.030534	0.651909	-0.042040	-0.991699	0.009521	0.471191	0.099552	0.001317	-0.002107	-0.038477	0.716006	0.071703	0.693335	128.776460	-86.740310	60.163896
52028		9.859094	0.112154	-0.025223	0.238676	0.369173	0.037253	-0.022858	0.664374	-0.051975	-0.991699	0.009521	0.458008	0.098590	0.001096	-0.000580	-0.038460	0.713707	0.071630	0.695710	122.949272	-86.941775	65.983371
52029		9.867370	0.124296	0.117660	0.319876	0.374380	0.043859	-0.016491	0.605977	-0.053503	-0.991699	0.009521	0.458008	0.098677	0.001217	0.000878	-0.038436	0.711605	0.071593	0.697864	116.973626	-87.091401	71.953783
52030		9.913214	0.139782	-0.033030	0.119309	0.333926	0.095213	-0.004249	0.513867	-0.053632	-0.996338	0.011719	0.449219	0.099131	0.001371	-0.000585	-0.038421	0.709815	0.071617	0.699684	111.436099	-87.187367	77.491798
52031		10.048949	0.097966	-0.350874	-0.246563	0.329476	0.234430	0.016533	0.435381	-0.050474	-0.995850	0.002686	0.444824	0.100482	0.000955	-0.003727	-0.038463	0.708295	0.071717	0.701210	106.496527	-87.244735	82.442820
52032		10.285765	0.095867	-0.698262	-0.632647	0.286390	0.473775	0.025917	0.439452	-0.053958	-0.996094	0.005127	0.442627	0.102842	0.000932	-0.007208	-0.038522	0.706751	0.071859	0.702749	101.323866	-87.279104	87.631838
52033		10.412292	0.063240	-0.923591	-0.908640	0.286473	0.597159	0.041580	0.508622	-0.058520	-1.002930	0.009277	0.435791	0.104099	0.000604	-0.009501	-0.038651	0.704958	0.072061	0.704519	95.244022	-87.292366	93.738486
52034		10.367684	0.052809	-0.986122	-1.029370	0.280893	0.547103	0.059251	0.608000	-0.067514	-0.998535	0.007324	0.429199	0.103646	0.000496	-0.010176	-0.038842	0.702802	0.072335	0.706632	87.987445	-87.268167	101.032858
52035		10.184317	0.080567	-0.869712	-0.974669	0.258642	0.359131	0.046892	0.693894	-0.079113	-1.007080	0.000244	0.427002	0.101812	0.000767	-0.009050	-0.038982	0.700334	0.072590	0.709044	79.998272	-87.186608	109.054399
52036		9.967583	0.024124	-0.679929	-0.864683	0.330118	0.135100	0.053966	0.745652	-0.093942	-1.009277	0.000244	0.418213	0.099650	0.000196	-0.007171	-0.039099	0.697669	0.072904	0.711628	72.107204	-87.036127	116.980766
52037		9.717982	0.119841	-0.464539	-0.705085	0.255007	-0.111827	0.057775	0.763979	-0.105518	-1.013916	0.004639	0.407227	0.097162	0.001149	-0.005016	-0.039208	0.694922	0.073275	0.714267	64.973217	-86.825224	124.154250
52038		9.515261	0.183045	-0.252860	-0.552062	0.215090	-0.310784	0.068583	0.739611	-0.114566	-1.016357	0.004639	0.402588	0.095143	0.001777	-0.002880	-0.039299	0.692246	0.073713	0.716811	59.065448	-86.573429	130.105680
52039		9.458725	0.270564	-0.143080	-0.497464	0.143184	-0.363202	0.070455	0.730942	-0.130108	-1.016113	0.002441	0.395996	0.094583	0.002645	-0.001776	-0.039352	0.689586	0.074219	0.719315	54.155811	-86.286525	135.061416
52040		9.392983	0.295878	0.030784	-0.388237	0.144046	-0.424145	0.079681	0.735767	-0.141948	-1.016113	0.000244	0.387207	0.093932	0.002892	-0.000037	-0.039388	0.686895	0.074793	0.721824	50.020708	-85.969201	139.247067
52041		9.305555	0.347079	0.217045	-0.261090	0.121126	-0.502602	0.063803	0.739509	-0.142058	-1.022705	0.000000	0.380615	0.093065	0.003404	0.001827	-0.039377	0.684182	0.075312	0.724343	46.475910	-85.632207	142.834171
52042		9.197962	0.377995	0.507138	-0.031860	0.134855	-0.594066	0.047045	0.721817	-0.146829	-1.020508	-0.004150	0.371826	0.092000	0.003711	0.004740	-0.039273	0.681528	0.075784	0.726797	43.557599	-85.286162	145.783538
52043		9.149120	0.463487	0.734501	0.144865	0.088521	-0.624023	0.021764	0.659827	-0.154468	-1.020508	-0.004150	0.367188	0.091518	0.004563	0.007044	-0.039042	0.679090	0.076207	0.729044	41.327338	-84.953322	148.030544
52044		9.087334	0.524230	0.846691	0.211704	0.048858	-0.673548	-0.005143	0.587129	-0.163221	-1.018066	-0.006348	0.362793	0.090902	0.005168	0.008200	-0.038641	0.676917	0.076567	0.731045	39.695879	-84.642683	149.659815
52045		8.928334	0.552977	0.817626	0.146147	0.013848	-0.831171	-0.037067	0.587519	-0.173693	-1.029053	-0.008789	0.356201	0.089312	0.005454	0.007913	-0.038112	0.674734	0.076852	0.733058	38.261847	-84.324219	151.075300
52046		8.936026	0.549306	0.834669	0.108180	0.027139	-0.821676	-0.056069	0.575162	-0.184359	-1.033691	-0.008789	0.345215	0.089389	0.005413	0.008088	-0.037452	0.672600	0.077096	0.735026	37.070618	-84.005173	152.233960
52047		8.873445	0.604149	0.860256	0.094387	-0.018497	-0.877725	-0.066921	0.580141	-0.196399	-1.033691	-0.006592	0.340820	0.088765	0.005957	0.008343	-0.036735	0.670429	0.077349	0.737016	36.014203	-83.676874	153.254055
52048		8.822076	0.563480	0.857733	0.036746	0.026476	-0.931250	-0.078721	0.585577	-0.202784	-1.031494	-0.006592	0.338623	0.088251	0.005549	0.008317	-0.035958	0.668229	0.077578	0.739026	35.063066	-83.341799	154.162120
52049		8.600983	0.537771	0.879094	0.023558	0.051516	-1.150386	-0.073316	0.587931	-0.189988	-1.035645	-0.015625	0.327393	0.086040	0.005299	0.008536	-0.035246	0.666020	0.077783	0.741030	34.149512	-83.008406	155.035996
52050		8.491559	0.509296	0.840931	-0.057031	0.073927	-1.264928	-0.066553	0.559891	-0.171120	-1.037598	-0.020020	0.318604	0.084943	0.005023	0.008170	-0.034617	0.663918	0.077954	0.742925	33.320882	-82.693447	155.828835
52051		8.195303	0.488657	0.850243	-0.063166	0.084866	-1.559607	-0.047229	0.519889	-0.138905	-1.035645	-0.013184	0.322998	0.081978	0.004832	0.008288	-0.034154	0.661966	0.078096	0.744671	32.544858	-82.405800	156.580281
52052		7.969900	0.491417	0.920110	-0.008179	0.083667	-1.775263	-0.004944	0.481861	-0.094078	-1.037598	-0.022217	0.309814	0.079723	0.004877	0.009009	-0.033982	0.660162	0.078252	0.746263	31.772878	-82.149044	157.352279
52053		7.930972	0.456562	0.925859	-0.036371	0.116297	-1.815746	0.051716	0.357094	-0.034003	-1.042236	-0.017822	0.303223	0.079327	0.004550	0.009118	-0.034173	0.658833	0.078443	0.747407	31.134893	-81.969913	158.022459
52054		7.885227	0.613210	0.950217	-0.007227	-0.040722	-1.846886	0.093255	0.297130	0.040202	-1.039795	-0.020020	0.307617	0.078865	0.006144	0.009388	-0.034754	0.657750	0.078553	0.748323	30.414591	-81.841033	158.799781
52055		8.083955	0.661999	0.857675	-0.135855	-0.102609	-1.658231	0.139296	0.244092	0.110353	-1.040039	-0.015625	0.303223	0.080846	0.006659	0.008483	-0.035729	0.656882	0.078616	0.749032	29.607381	-81.757062	159.692066
52056		8.508911	0.736061	0.845883	-0.208818	-0.170763	-1.234456	0.188822	0.228914	0.183544	-1.035889	-0.010986	0.303223	0.085092	0.007431	0.008368	-0.037133	0.656090	0.078625	0.749657	28.621833	-81.699172	160.793104
52057		9.359827	0.705635	0.940062	-0.251526	-0.105232	-0.383286	0.213231	0.199429	0.238464	-1.038086	-0.013184	0.296387	0.093599	0.007158	0.009315	-0.038813	0.655423	0.078552	0.750163	27.528626	-81.668074	162.017498
52058		10.255699	0.692565	1.003876	-0.324972	-0.069131	0.509924	0.189566	0.142763	0.300438	-1.045166	-0.004639	0.296387	0.102554	0.007070	0.009972	-0.040624	0.654995	0.078195	0.750477	26.311406	-81.678499	163.353268
52059		10.961270	0.480142	0.643215	-0.807480	0.072829	1.147981	0.107035	-0.039988	0.359221	-1.040771	-0.004395	0.305420	0.109603	0.004995	0.006457	-0.042315	0.655290	0.077376	0.750211	25.140152	-81.793788	164.594879
52060		11.766766	0.123101	-0.109605	-1.683543	0.286576	1.830645	0.097943	-0.321770	0.393451	-1.041016	0.000000	0.301025	0.117666	0.001463	-0.000906	-0.043994	0.656655	0.076467	0.749014	24.269405	-82.060811	165.526833
52061		12.572696	-0.070373	-1.105792	-2.743763	0.293375	2.503386	0.128703	-0.423425	0.376974	-1.041260	0.006592	0.307617	0.125751	-0.000460	-0.010792	-0.045675	0.658381	0.075752	0.747469	23.591711	-82.375387	166.281354
52062		13.374878	-0.261080	-1.893599	-3.601101	0.331351	3.205119	0.100712	-0.218402	0.301059	-1.034668	0.011230	0.309814	0.133773	-0.002400	-0.018791	-0.047056	0.659315	0.075132	0.746622	22.793938	-82.563601	167.140076
52063		13.350874	-0.286521	-2.280008	-3.966894	0.254277	3.138196	0.084457	0.115770	0.193462	-1.037109	0.013428	0.307617	0.133498	-0.002726	-0.022879	-0.048108	0.658963	0.074730	0.746907	21.835589	-82.549440	168.151478
52064		12.426215	0.084173	-1.954815	-3.493763	-0.104655	2.271255	0.066881	0.371327	0.093384	-1.043701	0.010986	0.301025	0.124225	0.000906	-0.019779	-0.048822	0.657622	0.074528	0.748061	20.881598	-82.375972	169.148220
52065		11.231297	0.514205	-1.309632	-2.677024	-0.461906	1.175559	0.017631	0.425547	0.034385	-1.046143	0.013184	0.298584	0.112284	0.005163	-0.013335	-0.049175	0.656065	0.074324	0.749424	20.097901	-82.159476	169.945406
52066		10.510314	0.789271	-0.930189	-2.200026	-0.693298	0.513688	-0.000913	0.308063	0.006799	-1.041504	0.011230	0.301025	0.105088	0.007896	-0.009464	-0.049319	0.654941	0.074168	0.750412	19.610470	-81.999921	170.432794
52067		10.174751	0.985903	-0.908333	-2.122006	-0.896820	0.188083	-0.007598	0.168687	0.012491	-1.041748	0.015625	0.298584	0.101739	0.009865	-0.009170	-0.049412	0.654342	0.074004	0.750945	19.301556	-81.916119	170.736480
52068		10.102670	1.013294	-1.099324	-2.308491	-0.964991	0.088770	0.000359	0.159149	0.034567	-1.041748	0.015625	0.296387	0.101016	0.010150	-0.011074	-0.049609	0.653786	0.073799	0.751436	18.931993	-81.841564	171.105824
52069		9.912395	1.082601	-1.067897	-2.258071	-1.041257	-0.097501	0.016697	0.267658	0.063702	-1.041748	0.015625	0.287598	0.099106	0.010858	-0.010811	-0.050011	0.652827	0.073535	0.752269	18.334278	-81.712799	171.715513
52070		9.869509	1.005013	-0.682480	-1.918639	-0.911649	-0.098232	0.005541	0.389762	0.082252	-1.041748	0.017822	0.289795	0.098677	0.010091	-0.007017	-0.050489	0.651418	0.073135	0.753496	17.537472	-81.519910	172.520010
52071		9.886453	0.827304	-0.095251	-1.417770	-0.647752	-0.014441	0.028045	0.454130	0.053214	-1.048584	0.020020	0.278809	0.098860	0.008300	-0.001176	-0.050955	0.649746	0.072901	0.754930	16.823933	-81.285125	173.254003
52072		9.623144	0.633844	0.290899	-1.076449	-0.405466	-0.233127	0.019404	0.439628	0.010986	-1.041504	0.011230	0.272217	0.096237	0.006343	0.002698	-0.051228	0.648113	0.072772	0.756326	16.305587	-81.050478	173.785731
52073		9.177285	0.306075	0.261755	-1.127355	-0.101170	-0.696574	0.015048	0.334538	-0.044276	-1.043945	0.015625	0.270020	0.091778	0.003040	0.002464	-0.051240	0.646855	0.072835	0.757396	16.103314	-80.864074	173.995371
52074		8.841480	0.093107	-0.005597	-1.396123	0.056469	-1.081818	0.040782	0.230388	-0.092794	-1.043945	0.015625	0.276611	0.088415	0.000890	-0.000158	-0.051113	0.645967	0.073177	0.758128	16.187678	-80.727473	173.929496
52075		8.636075	0.108914	-0.123689	-1.493897	0.021971	-1.305237	0.065891	0.185754	-0.125657	-1.039551	0.015869	0.267822	0.086360	0.001035	-0.001317	-0.050926	0.645228	0.073733	0.758717	16.436975	-80.609850	173.711203
52076		8.360568	0.240585	-0.149938	-1.469851	-0.110085	-1.578196	0.084871	0.220717	-0.134570	-1.048096	0.008789	0.270020	0.083606	0.002350	-0.001591	-0.050779	0.644349	0.074379	0.759410	16.686055	-80.471683	173.503901
52077		8.118347	0.467355	-0.055160	-1.319413	-0.314485	-1.794632	0.107487	0.273238	-0.126553	-1.043701	0.009033	0.263184	0.081186	0.004623	-0.000660	-0.050755	0.643264	0.075073	0.760262	16.864644	-80.305639	173.381317
52078		7.880001	0.713414	0.174477	-1.038104	-0.515924	-1.983900	0.111082	0.338455	-0.096585	-1.043701	0.006836	0.256592	0.078806	0.007095	0.001615	-0.050881	0.641942	0.075667	0.761312	16.883205	-80.109068	173.422987
52079		7.778647	0.869137	0.381540	-0.817377	-0.632200	-2.044773	0.105645	0.307635	-0.063419	-1.045898	0.009033	0.254395	0.077795	0.008665	0.003700	-0.051104	0.640748	0.076142	0.762255	16.825654	-79.934622	173.538962
52080		7.806560	0.945434	0.513307	-0.698895	-0.682930	-1.993170	0.115394	0.179893	-0.019652	-1.041504	0.009277	0.254395	0.078071	0.009444	0.005068	-0.051476	0.640055	0.076546	0.762772	16.760215	-79.837761	173.668539
52081		7.957917	0.923809	0.536384	-0.712173	-0.655587	-1.841954	0.114734	-0.003477	0.019005	-1.046143	0.013428	0.256592	0.079578	0.009243	0.005371	-0.051924	0.640074	0.076871	0.762693	16.746035	-79.847581	173.745808
52082		8.181364	0.868437	0.294917	-0.985499	-0.642425	-1.664563	0.096637	-0.185677	0.045397	-1.039307	0.009277	0.258789	0.081809	0.008701	0.003029	-0.052344	0.640804	0.077090	0.762028	16.808993	-79.962020	173.734081
52083		8.388297	0.802969	-0.034283	-1.330103	-0.636299	-1.515980	0.071766	-0.300751	0.070138	-1.041260	0.006836	0.258789	0.083881	0.008059	-0.000214	-0.052735	0.641986	0.077165	0.760998	16.890279	-80.143367	173.689382
52084		8.573786	0.786298	-0.482673	-1.770534	-0.701412	-1.402325	0.034367	-0.341757	0.082507	-1.039551	0.013672	0.265625	0.085743	0.007899	-0.004679	-0.053036	0.643338	0.077069	0.759844	16.952805	-80.349558	173.641937
52085		8.804722	0.710008	-0.803865	-2.103460	-0.684072	-1.223109	-0.021196	-0.345114	0.088904	-1.043945	0.015625	0.265625	0.088058	0.007138	-0.007887	-0.053181	0.644717	0.076741	0.758698	16.967733	-80.558340	173.610570
52086		8.861024	0.681445	-1.129688	-2.404714	-0.718350	-1.212712	-0.033579	-0.300528	0.096190	-1.039307	0.013672	0.274414	0.088624	0.006855	-0.011165	-0.053332	0.645932	0.076331	0.757694	16.906471	-80.744237	173.649216
52087		9.112086	0.632696	-1.239855	-2.535414	-0.691107	-0.977436	-0.068854	-0.242734	0.113898	-1.043945	0.015625	0.270020	0.091132	0.006375	-0.012290	-0.053457	0.646941	0.075715	0.756886	16.702015	-80.901018	173.812450
52088		9.339637	0.558726	-1.219888	-2.543006	-0.617770	-0.747338	-0.047079	-0.207908	0.124190	-1.035156	0.015869	0.274414	0.093405	0.005642	-0.012103	-0.053705	0.647817	0.075139	0.756176	16.432208	-81.040611	174.054424
52089		9.419001	0.668123	-1.147914	-2.446705	-0.720255	-0.648818	-0.009209	-0.158395	0.142020	-1.035156	0.020264	0.276611	0.094194	0.006748	-0.011405	-0.054161	0.648500	0.074634	0.755609	16.062057	-81.155247	174.419840
52090		9.663556	0.708303	-1.100396	-2.411342	-0.758630	-0.394262	-0.009685	-0.195601	0.152190	-1.030518	0.013916	0.281006	0.096641	0.007156	-0.010910	-0.054641	0.649328	0.074105	0.754914	15.683397	-81.292006	174.793501
52091		9.814158	0.751441	-1.139769	-2.440451	-0.817968	-0.244172	0.023913	-0.245586	0.161628	-1.033203	0.022705	0.283203	0.098149	0.007595	-0.011276	-0.055246	0.650336	0.073686	0.754043	15.327384	-81.457042	175.163539
52092		9.935613	0.800831	-1.202883	-2.481128	-0.888477	-0.124592	0.027754	-0.300073	0.167247	-1.030762	0.022705	0.291992	0.099367	0.008093	-0.011879	-0.055866	0.651551	0.073278	0.752988	14.993504	-81.653142	175.513324
52093		10.076799	0.823387	-1.281392	-2.539685	-0.935289	0.012633	0.026386	-0.327938	0.172018	-1.031250	0.029297	0.285400	0.100782	0.008322	-0.012648	-0.056488	0.652868	0.072856	0.751841	14.651648	-81.864643	175.870123
52094		10.143465	0.911066	-1.380207	-2.595082	-1.050450	0.076038	0.019425	-0.297679	0.158670	-1.031250	0.031494	0.289795	0.101448	0.009192	-0.013650	-0.057048	0.654069	0.072444	0.750793	14.310233	-82.057593	176.222383
52095		10.128073	0.968708	-1.385732	-2.559443	-1.119504	0.068224	-0.017304	-0.214579	0.149061	-1.024414	0.029541	0.291992	0.101288	0.009761	-0.013749	-0.057482	0.654961	0.071900	0.750035	13.884982	-82.202233	176.637772
52096		10.131121	1.064487	-1.327208	-2.464762	-1.213694	0.086105	-0.021962	-0.148328	0.126274	-1.026855	0.031494	0.301025	0.101314	0.010707	-0.013198	-0.057839	0.655600	0.071396	0.749497	13.470614	-82.306971	177.039527
52097		10.081909	1.205297	-1.188765	-2.283502	-1.337178	0.061945	-0.051864	-0.095967	0.114730	-1.024658	0.033936	0.294189	0.100818	0.012108	-0.011842	-0.058073	0.656043	0.070801	0.749148	13.024603	-82.380092	177.455672
52098		10.080249	1.261389	-1.027400	-2.104520	-1.371390	0.084198	-0.083014	-0.101204	0.090407	-1.024414	0.029541	0.298828	0.100802	0.012655	-0.010228	-0.058113	0.656509	0.070173	0.748795	12.660842	-82.453166	177.770996
52099		10.184878	1.430485	-0.992282	-2.042097	-1.536905	0.198827	-0.075612	-0.114800	0.070519	-1.027100	0.036133	0.298584	0.101849	0.014337	-0.009870	-0.058097	0.657013	0.069640	0.748404	12.391406	-82.530622	177.995171
52100		10.351026	1.493828	-0.971910	-2.020624	-1.599209	0.369624	-0.136030	-0.117597	0.060876	-1.020264	0.033936	0.298828	0.103511	0.014963	-0.009668	-0.057847	0.657545	0.068915	0.748024	12.127376	-82.608879	178.179247
52101		10.652530	1.270843	-1.001459	-2.116253	-1.386724	0.660747	-0.169857	-0.120251	0.044863	-1.022217	0.029541	0.301025	0.106528	0.012724	-0.009961	-0.057423	0.658086	0.068115	0.747653	11.910343	-82.686066	178.296060
52102		10.970455	1.196733	-1.022755	-2.181221	-1.318051	0.973141	-0.172017	-0.072781	0.032977	-1.017822	0.029541	0.303223	0.109706	0.011977	-0.010198	-0.056966	0.658450	0.067335	0.747439	11.698780	-82.735753	178.406472
52103		11.223288	1.124192	-0.999543	-2.197651	-1.243792	1.225809	-0.182175	-0.045385	0.038417	-1.017822	0.029541	0.298828	0.112233	0.011254	-0.009980	-0.056503	0.658712	0.066488	0.747319	11.429005	-82.770054	178.569309
52104		11.387799	1.022065	-1.012876	-2.245200	-1.148472	1.385196	-0.213711	-0.034032	0.052264	-1.015381	0.025391	0.298828	0.113877	0.010240	-0.010120	-0.055993	0.658948	0.065478	0.747239	11.069009	-82.800010	178.805302
52105		11.372283	0.971873	-1.257880	-2.485410	-1.144901	1.339333	-0.240970	-0.085887	0.060480	-1.020020	0.029541	0.301025	0.113725	0.009738	-0.012542	-0.055405	0.659383	0.064351	0.746997	10.696724	-82.859240	179.037478
52106		11.155792	0.775987	-1.738299	-2.944744	-1.034729	1.065424	-0.289266	-0.233614	0.065418	-1.015381	0.025391	0.298828	0.111576	0.007771	-0.017264	-0.054631	0.660386	0.063071	0.746276	10.394838	-83.002659	179.171274
52107		11.264918	0.520747	-2.304014	-3.520953	-0.873307	1.110595	-0.315471	-0.395495	0.065881	-1.015381	0.025146	0.307617	0.112693	0.005208	-0.022826	-0.053719	0.661994	0.061731	0.745028	10.202662	-83.236678	179.178893
52108		11.839128	0.780043	-2.447229	-3.641685	-1.142908	1.684879	-0.258336	-0.443635	0.023505	-1.015381	0.029541	0.312012	0.118444	0.007783	-0.024220	-0.052825	0.663752	0.060762	0.743606	10.290705	-83.494192	178.937894
52109		12.972074	1.093113	-1.852152	-3.098284	-1.340268	2.895746	-0.233751	-0.254705	-0.064122	-1.012939	0.022949	0.312012	0.129748	0.010868	-0.018369	-0.051741	0.664768	0.060121	0.742827	10.670691	-83.635344	178.416836
52110		13.348091	0.815850	-1.390138	-2.718252	-0.970973	3.318873	-0.268614	-0.005746	-0.178439	-1.010498	0.020996	0.305420	0.133489	0.008021	-0.013908	-0.050195	0.664835	0.059670	0.742909	11.381953	-83.624105	177.543007
52111		12.819752	-0.108405	-1.497759	-2.908485	-0.045313	2.762670	-0.231377	-0.061878	-0.268055	-1.008301	0.020996	0.314209	0.128201	-0.001273	-0.014937	-0.048420	0.665069	0.059664	0.742818	12.619533	-83.631296	176.160456
52112		12.695404	-0.913269	-1.400586	-2.911042	0.804069	2.631111	-0.021546	-0.172379	-0.315237	-1.005859	0.016602	0.318604	0.126951	-0.009334	-0.013895	-0.047136	0.665651	0.060626	0.742301	14.358245	-83.690497	174.395365
52113		13.220486	-0.909152	-0.506434	-2.088635	0.983946	3.246162	0.290362	0.055965	-0.344510	-1.010254	0.011963	0.305420	0.132188	-0.009312	-0.005115	-0.046849	0.665296	0.062785	0.742459	16.121759	-83.612337	172.784480
52114		13.664050	-0.724110	0.727934	-0.936119	1.040631	3.818188	0.416850	0.396852	-0.358292	-1.010010	0.009766	0.305420	0.136641	-0.007501	0.006993	-0.047040	0.663640	0.065382	0.743703	17.470822	-83.340849	171.663711
52115		13.747217	-0.930624	1.657842	-0.131682	1.437487	3.990073	0.438827	0.416301	-0.359690	-1.007324	0.000977	0.303223	0.137489	-0.009589	0.016271	-0.047303	0.661895	0.068057	0.745001	18.709153	-83.054975	170.665930
52116		13.051364	-0.619209	1.786802	0.070739	1.182385	3.321649	0.561374	0.271183	-0.324035	-1.009766	0.005371	0.298828	0.130527	-0.006453	0.017673	-0.048056	0.660670	0.071107	0.745755	20.001517	-82.852527	169.684445
52117		11.980109	0.469015	1.873791	0.426109	0.139449	2.313848	0.554073	0.277330	-0.243401	-1.007813	0.007813	0.296387	0.119832	0.004493	0.018584	-0.049085	0.659440	0.073858	0.746509	20.879427	-82.659935	169.115598
52118		10.861577	1.111950	1.624515	0.394301	-0.539720	1.205589	0.417532	0.383742	-0.153357	-1.010010	0.007813	0.291992	0.108655	0.011003	0.016060	-0.050041	0.657878	0.075779	0.747630	21.116384	-82.428941	169.114460
52119		10.177758	1.496759	1.785923	0.659727	-0.896582	0.568893	0.304094	0.566968	-0.085513	-1.009521	-0.003174	0.278809	0.101834	0.014897	0.017593	-0.050944	0.655674	0.077002	0.749377	20.743745	-82.113058	169.662449
52120		9.674020	1.564153	2.615015	1.483366	-0.825288	0.186792	0.119590	0.763338	-0.055562	-1.009766	0.003418	0.265625	0.096843	0.015599	0.025790	-0.051327	0.652801	0.077298	0.751825	19.927897	-81.697616	170.536354
52121		9.432319	1.368030	3.436979	2.203618	-0.497657	0.063988	-0.130076	0.867542	-0.055233	-1.005127	0.001465	0.270020	0.094475	0.013676	0.033951	-0.051038	0.649574	0.076714	0.754695	18.923674	-81.223252	171.472560
52122		8.907317	1.244577	4.157596	2.877805	-0.274531	-0.335500	-0.337164	0.862558	-0.108469	-1.009277	-0.005371	0.258789	0.089258	0.012467	0.041170	-0.049781	0.646399	0.075444	0.757627	18.089034	-80.740470	172.104435
52123		8.745094	1.042339	4.516892	3.142944	-0.034295	-0.427288	-0.538348	0.682926	-0.186927	-1.006836	-0.009766	0.252197	0.087614	0.010463	0.044842	-0.047599	0.643897	0.073786	0.760057	17.645903	-80.340042	172.237056
52124		8.610503	1.001692	4.560562	3.142477	-0.006377	-0.535435	-0.655643	0.489685	-0.306084	-1.015625	-0.016602	0.243408	0.086232	0.010034	0.045362	-0.044417	0.642115	0.072031	0.761923	17.720211	-80.024969	171.762111
52125		8.629391	1.040943	4.294541	2.846476	-0.095945	-0.545470	-0.740239	0.245136	-0.409153	-1.011230	-0.016357	0.241211	0.086368	0.010391	0.042801	-0.040579	0.641219	0.070417	0.763042	18.282057	-79.823794	170.756777
52126		9.031287	1.240076	3.948754	2.451505	-0.332071	-0.191127	-0.750036	-0.043661	-0.470149	-1.010986	-0.020996	0.245605	0.090333	0.012336	0.039461	-0.036290	0.641406	0.068950	0.763235	19.292011	-79.766248	169.277574
52127		9.733591	1.529766	3.650196	2.081912	-0.625943	0.467425	-0.765941	-0.255339	-0.462962	-1.007813	-0.036377	0.241211	0.097325	0.015212	0.036568	-0.031988	0.642380	0.067505	0.762737	20.491552	-79.818545	167.608912
52128		9.946226	1.669115	3.058528	1.502188	-0.822828	0.586076	-0.737184	-0.332556	-0.401179	-1.005371	-0.040771	0.247803	0.099445	0.016605	0.030689	-0.027909	0.643663	0.065919	0.761954	21.632302	-79.919372	166.005645
52129		10.152775	1.872042	2.425107	0.897572	-1.083408	0.698498	-0.657345	-0.406157	-0.298528	-1.002930	-0.045166	0.250000	0.101506	0.018649	0.024396	-0.024532	0.645225	0.064379	0.760880	22.628478	-80.075623	164.607732
52130		10.432532	1.828069	1.824401	0.293466	-1.090171	0.875308	-0.633711	-0.530116	-0.191603	-1.009766	-0.043213	0.261230	0.104294	0.018239	0.018463	-0.021518	0.647289	0.062533	0.759370	23.518981	-80.317734	163.319961
52131		10.529075	1.463324	1.231484	-0.294048	-0.786262	0.855692	-0.591161	-0.630550	-0.095915	-1.002930	-0.045166	0.263428	0.105258	0.014620	0.012604	-0.019053	0.649737	0.060613	0.757499	24.330143	-80.630910	162.150102
52132		10.354405	0.746848	0.606941	-0.896409	-0.150150	0.546532	-0.561971	-0.654312	-0.022326	-1.007080	-0.049805	0.267822	0.103524	0.007475	0.006387	-0.016882	0.652292	0.058508	0.755518	25.026706	-80.971985	161.103965
52133		9.822100	0.031997	0.194852	-1.238667	0.490443	-0.079363	-0.504227	-0.506868	0.013073	-1.002686	-0.047607	0.274414	0.098216	0.000332	0.002197	-0.015148	0.654275	0.056549	0.753988	25.462930	-81.243142	160.366113
52134		9.127090	-0.848724	-0.005738	-1.382016	1.309967	-0.846189	-0.513444	-0.266609	0.022859	-0.995850	-0.051758	0.274414	0.091272	-0.008477	0.000086	-0.013417	0.655358	0.054446	0.753234	25.501500	-81.392467	160.015008
52135		8.589882	-1.768391	0.152377	-1.212998	2.211072	-1.411718	-0.475705	-0.062919	0.025519	-1.000488	-0.047363	0.276611	0.085901	-0.017669	0.001593	-0.011946	0.655657	0.052522	0.753135	25.219868	-81.436591	160.020280
52136		8.065297	-2.435654	0.241582	-1.101874	2.854451	-1.959167	-0.415182	0.138845	0.000333	-0.998047	-0.051758	0.272217	0.080655	-0.024351	0.002410	-0.010562	0.655192	0.050837	0.753676	24.737761	-81.370355	160.253072
52137		7.469846	-2.459881	0.700221	-0.575965	2.887304	-2.486594	-0.368362	0.357703	-0.017949	-0.998047	-0.053955	0.265625	0.074709	-0.024593	0.006914	-0.009388	0.653882	0.049435	0.754921	24.012342	-81.184662	160.769547
52138		7.227094	-2.729156	1.003061	-0.280945	3.165550	-2.700329	-0.384255	0.422688	-0.023574	-0.997803	-0.058350	0.263428	0.072289	-0.027281	0.009930	-0.008087	0.652331	0.047931	0.756374	23.231725	-80.963115	161.322671
52139		7.033958	-2.537113	1.368662	0.102605	2.990671	-2.824693	-0.302291	0.406904	-0.024471	-0.997803	-0.058350	0.252197	0.070364	-0.025359	0.013582	-0.007116	0.650821	0.046797	0.757754	22.551388	-80.748033	161.832425
52140		7.004626	-2.128072	1.555442	0.304977	2.592578	-2.798530	-0.285121	0.258736	-0.023446	-0.996094	-0.049316	0.256592	0.070064	-0.021267	0.015494	-0.006097	0.649879	0.045670	0.758640	22.098883	-80.611505	162.110819
52141		7.223797	-1.588179	1.484109	0.233388	2.056623	-2.558450	-0.221668	0.017241	-0.004242	-0.993408	-0.053711	0.258789	0.072239	-0.015867	0.014852	-0.005374	0.649844	0.044789	0.758728	21.939182	-80.606538	162.140044
52142		7.456333	-1.072923	1.230813	-0.007564	1.532712	-2.335142	-0.162703	-0.200389	0.024537	-0.997803	-0.060547	0.250000	0.074552	-0.010710	0.012392	-0.004845	0.650646	0.043994	0.758090	22.005745	-80.723976	161.965370
52143		7.567738	-0.657250	0.669558	-0.529308	1.079432	-2.282379	-0.068623	-0.329673	0.064503	-0.995361	-0.060547	0.263428	0.075668	-0.006546	0.006823	-0.004803	0.651936	0.043478	0.757011	22.169693	-80.918005	161.755557
52144		7.526849	-0.022336	0.503633	-0.618402	0.427683	-2.306543	0.044804	-0.375487	0.107893	-0.989014	-0.055908	0.265625	0.075259	-0.000184	0.005178	-0.005215	0.653412	0.043191	0.755751	22.326030	-81.146257	161.608763
52145		7.472833	0.363148	0.307336	-0.750562	0.019078	-2.362467	0.109677	-0.364575	0.142839	-0.988770	-0.058105	0.267822	0.074720	0.003683	0.003212	-0.006044	0.654841	0.043094	0.754513	22.388123	-81.375694	161.605614
52146		7.296323	0.580915	0.348875	-0.642649	-0.212933	-2.516311	0.171942	-0.328327	0.171065	-0.987061	-0.049072	0.267822	0.072952	0.005868	0.003614	-0.007121	0.656144	0.043078	0.753372	22.335349	-81.592696	161.744064
52147		7.166450	0.665465	0.389630	-0.553480	-0.311172	-2.632894	0.183610	-0.301164	0.183965	-0.982178	-0.055664	0.272217	0.071652	0.006717	0.004010	-0.008361	0.657335	0.043123	0.752317	22.193738	-81.797438	161.989590
52148		7.140428	0.654879	0.453300	-0.463272	-0.307941	-2.649549	0.205006	-0.308940	0.179055	-0.982422	-0.051270	0.274414	0.071391	0.006608	0.004650	-0.009582	0.658559	0.043205	0.751227	22.087132	-82.005796	162.201549
52149		7.051787	0.652637	0.268852	-0.608458	-0.333630	-2.759722	0.174012	-0.342204	0.152279	-0.980225	-0.049072	0.283203	0.070508	0.006578	0.002815	-0.010662	0.659892	0.043320	0.750034	22.107913	-82.225390	162.277324
52150		7.137368	0.475658	0.004252	-0.864909	-0.182005	-2.714307	0.142776	-0.426942	0.109773	-0.978271	-0.044678	0.287598	0.071371	0.004796	0.000198	-0.011387	0.661542	0.043397	0.748565	22.420308	-82.481350	162.029478
52151		7.353262	0.280048	-0.333362	-1.205630	-0.009689	-2.545896	0.119834	-0.503531	0.062121	-0.980469	-0.046875	0.291992	0.073540	0.002825	-0.003147	-0.011916	0.663456	0.043615	0.746848	23.068026	-82.766326	161.441696
52152		7.821174	0.078537	-0.665198	-1.566068	0.182617	-2.122865	0.144640	-0.518276	0.008197	-0.971191	-0.048828	0.294434	0.078229	0.000793	-0.006449	-0.012247	0.665416	0.044039	0.745072	24.043058	-83.046244	160.527314
52153		8.274591	-0.134083	-0.945648	-1.875365	0.392485	-1.706519	0.191125	-0.402586	-0.047050	-0.977783	-0.051270	0.298828	0.082764	-0.001351	-0.009291	-0.012627	0.666917	0.044878	0.743672	25.125666	-83.250038	159.543326
52154		8.580782	-0.226754	-1.031028	-1.976615	0.496018	-1.410831	0.262607	-0.190711	-0.096491	-0.973633	-0.048828	0.298828	0.085816	-0.002295	-0.010231	-0.013024	0.667622	0.046058	0.742960	26.074922	-83.330639	158.721935
52155		8.580444	-0.248847	-0.943191	-1.882858	0.532373	-1.401566	0.344025	-0.026966	-0.129674	-0.968994	-0.048828	0.298828	0.085804	-0.002528	-0.009425	-0.013693	0.667694	0.047717	0.742779	26.870312	-83.316694	158.115684
52156		8.550953	-0.022522	-0.624914	-1.546101	0.342639	-1.386420	0.429286	0.034500	-0.143909	-0.973389	-0.051270	0.301025	0.085508	-0.000273	-0.006264	-0.014521	0.667536	0.049658	0.742778	27.637637	-83.267412	157.573437
52157		8.654909	0.367762	-0.214592	-1.115620	0.007053	-1.219429	0.462955	-0.050452	-0.137936	-0.976074	-0.044678	0.296631	0.086552	0.003623	-0.002116	-0.015549	0.667679	0.051787	0.742483	28.581228	-83.261099	156.886497
52158		8.892494	0.683048	-0.144595	-1.027972	-0.277553	-0.956611	0.451904	-0.244932	-0.108794	-0.968994	-0.048828	0.307617	0.088930	0.006785	-0.001322	-0.016511	0.668560	0.053715	0.741532	29.864916	-83.359296	155.837291
52159		9.639594	1.064128	-0.188597	-1.077297	-0.614766	-0.192344	0.387563	-0.467398	-0.069375	-0.964355	-0.053223	0.307617	0.096404	0.010611	-0.001640	-0.017432	0.670264	0.055368	0.739849	31.553892	-83.574805	154.356902
52160		10.586541	1.286634	-0.335552	-1.238211	-0.795712	0.755007	0.208463	-0.614699	-0.023715	-0.968994	-0.046631	0.318604	0.105877	0.012857	-0.003017	-0.017783	0.672548	0.056130	0.737708	33.477564	-83.870806	152.522792
52161		11.402953	1.035728	-0.879115	-1.802765	-0.556719	1.514819	0.022336	-0.756109	0.013509	-0.964355	-0.053223	0.322998	0.114061	0.010366	-0.008359	-0.017703	0.675359	0.056180	0.735133	35.768482	-84.237480	150.228481
52162		12.099712	0.879592	-1.575087	-2.470155	-0.432766	2.160933	-0.081193	-0.939146	0.040313	-0.959961	-0.051025	0.336426	0.121068	0.008814	-0.015186	-0.017222	0.678860	0.055684	0.731951	38.880037	-84.685981	147.036430
52163		12.820505	0.716864	-2.584016	-3.418558	-0.330809	2.826882	-0.170409	-1.098159	0.062285	-0.955322	-0.052979	0.340820	0.128342	0.007187	-0.025142	-0.016573	0.682926	0.054889	0.728234	43.119199	-85.190527	142.678833
52164		13.232992	0.513766	-3.699748	-4.435415	-0.208240	3.200617	-0.185672	-1.077198	0.060165	-0.948975	-0.046387	0.354004	0.132525	0.005144	-0.036289	-0.015762	0.686908	0.053942	0.724568	48.219183	-85.653529	137.435170
52165		13.416920	0.222018	-4.357750	-5.009198	0.037758	3.376649	-0.128717	-0.743442	0.044795	-0.944092	-0.052734	0.358398	0.134329	0.002222	-0.043080	-0.015288	0.689643	0.053326	0.722021	52.377838	-85.951645	133.187536
52166		13.943489	-0.201559	-3.985919	-4.640189	0.528404	3.918241	-0.050031	-0.221593	0.041638	-0.946533	-0.046143	0.358398	0.139479	-0.001996	-0.039704	-0.015100	0.690497	0.052857	0.721244	53.598328	-86.053732	131.913546
52167		14.136373	-0.153402	-2.686416	-3.353501	0.608741	4.168040	0.062415	0.258693	0.057843	-0.944336	-0.046143	0.358398	0.141329	-0.001485	-0.027047	-0.015599	0.689598	0.052809	0.722096	51.641929	-85.996156	133.906638
52168		14.108311	0.402494	-1.149771	-1.823195	0.183232	4.229047	0.173446	0.529188	0.140392	-0.944092	-0.050537	0.356201	0.141049	0.004134	-0.011867	-0.016733	0.687748	0.052745	0.723838	47.756276	-85.867980	137.879302
52169		14.429662	1.404559	0.023301	-0.638893	-0.721505	4.653109	0.278930	0.432641	0.309598	-0.944580	-0.041748	0.349609	0.144275	0.014269	-0.000059	-0.018933	0.686262	0.052599	0.725203	43.746646	-85.828060	142.055836
52170		15.327298	2.649492	0.524826	-0.090467	-1.933896	5.629871	0.263520	0.052242	0.534253	-0.940186	-0.039307	0.345215	0.153203	0.026897	0.005244	-0.021663	0.686226	0.051539	0.725237	40.414928	-86.017717	145.522733
52171		16.448533	3.417725	0.957970	0.389568	-2.709126	6.790329	0.071836	-0.273749	0.756181	-0.945068	-0.032715	0.347412	0.164341	0.034795	0.009817	-0.024588	0.687425	0.049180	0.724171	36.784317	-86.416640	149.198621
52172		16.299482	2.840051	1.238765	0.671289	-2.244782	6.612350	-0.258588	-0.228856	0.901488	-0.938965	-0.019287	0.354004	0.162850	0.029151	0.012537	-0.026784	0.688538	0.044998	0.723307	30.558767	-86.819147	155.262297
52173		14.281017	1.590886	1.227383	0.663812	-1.193921	4.544094	-0.447879	-0.001409	0.919286	-0.941650	-0.010498	0.354004	0.142735	0.016592	0.012238	-0.028573	0.688826	0.040159	0.723250	21.389096	-87.056592	164.184156
52174		11.586390	0.653780	1.694919	1.165526	-0.375651	1.851108	-0.570930	0.229396	0.793818	-0.939209	-0.017090	0.349609	0.115856	0.007046	0.016797	-0.029413	0.688265	0.035165	0.724010	11.759479	-87.066064	173.476695
52175		10.017339	-0.357789	2.599599	2.032377	0.609006	0.322937	-0.745380	0.318503	0.645863	-0.937256	-0.008057	0.349609	0.100225	-0.003158	0.025849	-0.029249	0.687350	0.030143	0.725111	3.764584	-86.939079	-178.949018
52176		8.882142	-1.246104	3.119375	2.514220	1.460064	-0.772655	-0.716290	0.413189	0.487992	-0.942139	-0.001465	0.338623	0.088916	-0.012133	0.031054	-0.028499	0.686057	0.025637	0.726537	-1.849011	-86.711332	-173.761570
52177		8.264463	-1.210427	2.795350	2.203401	1.347479	-1.391907	-0.454518	0.460213	0.332430	-0.942139	-0.001465	0.334229	0.082729	-0.011904	0.027790	-0.028214	0.684512	0.022726	0.728101	-5.110064	-86.439661	-170.759450
52178		8.602484	-1.198754	2.630760	1.991565	1.284579	-1.052320	-0.216204	0.369318	0.220845	-0.933105	-0.005615	0.329834	0.086086	-0.011864	0.026162	-0.028229	0.683254	0.020987	0.729333	-6.936328	-86.219791	-169.072818
52179		9.708025	-1.734462	2.131172	1.348936	1.747823	0.032173	0.070753	0.463615	0.155633	-0.942383	0.000732	0.332031	0.097143	-0.017277	0.021080	-0.029095	0.681592	0.020594	0.730864	-7.773600	-85.947742	-168.196828
52180		10.318149	-2.256929	2.283276	1.365159	2.255006	0.666919	0.328916	0.596055	0.139269	-0.944336	-0.003662	0.320801	0.103265	-0.022535	0.022488	-0.030694	0.679409	0.021090	0.732814	-8.094762	-85.602135	-167.705228
52181		10.720309	-3.020418	2.446861	1.374002	3.009777	1.100060	0.482961	0.487357	0.152890	-0.940430	0.005371	0.312012	0.107285	-0.030181	0.024134	-0.032954	0.677585	0.022212	0.734370	-8.475256	-85.315919	-167.049825
52182		10.640280	-3.393999	2.654740	1.505853	3.390984	1.050826	0.618510	0.175308	0.167334	-0.942627	0.005371	0.316406	0.106454	-0.033933	0.026349	-0.035596	0.676888	0.023746	0.734842	-9.149268	-85.205507	-166.036678
52183		10.302952	-2.920753	2.613012	1.505531	2.920964	0.709231	0.666010	-0.055240	0.126059	-0.942627	0.005127	0.320801	0.103041	-0.029229	0.026061	-0.038315	0.677008	0.025723	0.734528	-9.750706	-85.227491	-165.054086
52184		9.960232	-2.141496	2.222025	1.216803	2.122586	0.323565	0.585013	-0.257746	0.042595	-0.938477	0.011963	0.318604	0.099578	-0.021459	0.022286	-0.040329	0.677878	0.027633	0.733547	-10.090807	-85.372148	-164.395704
52185		9.658516	-1.478772	1.463191	0.574140	1.408862	-0.050516	0.499972	-0.410791	-0.045460	-0.931641	0.012207	0.325195	0.096552	-0.014847	0.014793	-0.041808	0.679299	0.029650	0.732069	-10.075645	-85.611000	-164.127438
52186		9.412126	-0.631111	0.812596	0.069624	0.521185	-0.359111	0.510214	-0.475449	-0.101507	-0.933594	0.007568	0.327393	0.094098	-0.006380	0.008333	-0.043017	0.680948	0.031824	0.730375	-9.723967	-85.892721	-164.204995
52187		9.200106	0.434794	0.449873	-0.118898	-0.555299	-0.608847	0.544682	-0.487272	-0.116835	-0.929443	0.014404	0.332031	0.091992	0.004282	0.004735	-0.044375	0.682612	0.034263	0.728628	-9.204609	-86.181735	-164.416642
52188		8.727389	1.361809	0.296377	-0.092865	-1.469270	-1.098210	0.568672	-0.421197	-0.092084	-0.931396	0.007813	0.334229	0.087274	0.013569	0.003186	-0.045824	0.684035	0.036602	0.727088	-8.747093	-86.431795	-164.567010
52189		8.283321	1.957470	0.194536	-0.058016	-2.054210	-1.550746	0.610973	-0.291508	-0.041695	-0.929443	0.014404	0.338623	0.082834	0.019551	0.002126	-0.047716	0.684969	0.038980	0.725963	-8.514325	-86.603211	-164.453370
52190		7.654581	2.365493	0.152855	0.015501	-2.449618	-2.183099	0.662349	-0.091092	0.028501	-0.920410	0.010254	0.334229	0.076542	0.023661	0.001642	-0.049985	0.685179	0.041168	0.725491	-8.641160	-86.655886	-163.964563
52191		6.993459	2.474753	0.207417	0.133857	-2.542453	-2.841755	0.663812	0.203479	0.092481	-0.927002	0.010010	0.338623	0.069925	0.024773	0.002085	-0.052644	0.684315	0.043155	0.726002	-8.937369	-86.535257	-163.290694
52192		6.373189	2.404938	0.793594	0.735553	-2.388987	-3.426550	0.634928	0.430408	0.126030	-0.931885	0.016602	0.329834	0.063734	0.024064	0.007875	-0.055277	0.682645	0.044772	0.727280	-9.184918	-86.283819	-162.697172
52193		5.907125	2.021708	1.200780	1.097425	-1.948511	-3.861029	0.532491	0.509570	0.135715	-0.929443	0.014404	0.329834	0.059088	0.020225	0.011911	-0.057709	0.680696	0.046052	0.728836	-9.402837	-85.985766	-162.176841
52194		5.620998	1.724524	1.424594	1.275644	-1.620206	-4.125271	0.534881	0.467252	0.134808	-0.927734	0.023438	0.318604	0.056232	0.017245	0.014161	-0.060042	0.678903	0.047268	0.730240	-9.618040	-85.712384	-161.672293
52195		5.872981	1.355745	1.505275	1.267240	-1.251728	-3.860959	0.503004	0.310584	0.110760	-0.921143	0.023682	0.318604	0.058746	0.013552	0.014996	-0.062235	0.677668	0.048583	0.731118	-9.829907	-85.528865	-161.174638
52196		6.205573	0.897068	1.458173	1.117171	-0.815027	-3.525574	0.483642	0.117992	0.085411	-0.927734	0.023438	0.318604	0.062060	0.008962	0.014567	-0.064137	0.677142	0.049895	0.731352	-10.091360	-85.457178	-160.651433
52197		6.624520	0.593420	1.188449	0.773417	-0.568314	-3.124813	0.451642	-0.059524	0.062851	-0.928223	0.030029	0.318604	0.066240	0.005928	0.011918	-0.065889	0.677255	0.051301	0.730994	-10.430480	-85.486867	-160.055547
52198		7.049152	0.200299	0.963919	0.468381	-0.226088	-2.714147	0.367013	-0.240793	0.024431	-0.926025	0.032471	0.325195	0.070480	0.001994	0.009728	-0.067081	0.678057	0.052509	0.730056	-10.800914	-85.623183	-159.490192
52199		7.318087	0.037696	0.621173	0.106528	-0.124135	-2.470014	0.314016	-0.358351	-0.037255	-0.918945	0.025879	0.332031	0.073170	0.000353	0.006343	-0.067923	0.679275	0.053849	0.728747	-10.936893	-85.831330	-159.177292
52200		7.751653	0.232223	0.234872	-0.240056	-0.381202	-2.067097	0.259136	-0.428897	-0.116319	-0.921387	0.032471	0.329834	0.077513	0.002274	0.002518	-0.068184	0.680754	0.055202	0.727240	-10.595642	-86.088464	-159.388031
52201		8.111014	0.479849	-0.077560	-0.491782	-0.669903	-1.729740	0.139011	-0.493350	-0.182977	-0.916748	0.025879	0.332031	0.081116	0.004725	-0.000572	-0.067862	0.682475	0.056446	0.725560	-9.795646	-86.387784	-160.113806
52202		8.183000	0.725520	-0.473025	-0.804751	-0.960217	-1.679924	0.050108	-0.474591	-0.209730	-0.909912	0.023926	0.338623	0.081848	0.007171	-0.004534	-0.067061	0.684156	0.057374	0.723976	-8.623187	-86.678877	-161.276680
52203		8.226939	1.013911	-0.795625	-1.040896	-1.279628	-1.650425	-0.044295	-0.401185	-0.187874	-0.909668	0.021729	0.340820	0.082295	0.010060	-0.007793	-0.066121	0.685594	0.057939	0.722656	-7.415961	-86.924282	-162.515077
52204		8.173513	1.298290	-1.003890	-1.168403	-1.577591	-1.710487	-0.126960	-0.286998	-0.123662	-0.909668	0.021729	0.347412	0.081757	0.012926	-0.009930	-0.065164	0.686668	0.057948	0.721722	-6.635814	-87.099799	-163.372757
52205		8.017844	1.457012	-0.992216	-1.105766	-1.718679	-1.861800	-0.205863	-0.201792	-0.048634	-0.902832	0.019531	0.349609	0.080192	0.014540	-0.009856	-0.064229	0.687475	0.057386	0.721082	-6.575781	-87.220747	-163.554830
52206		7.888235	1.737133	-0.871863	-0.921205	-1.968154	-1.984548	-0.257366	-0.198129	0.036739	-0.907471	0.021729	0.347412	0.078888	0.017375	-0.008663	-0.063428	0.688313	0.056345	0.720435	-7.575312	-87.334475	-162.705344
52207		7.856461	1.854053	-0.556833	-0.576433	-2.031564	-2.001669	-0.354141	-0.262466	0.100859	-0.903076	0.024170	0.351807	0.078562	0.018570	-0.005498	-0.062505	0.689424	0.054753	0.719576	-9.661054	-87.477220	-160.824449
52208		8.061503	1.919995	-0.382060	-0.381837	-2.076527	-1.790072	-0.394291	-0.384719	0.157582	-0.896240	0.019775	0.360596	0.080607	0.019256	-0.003703	-0.061525	0.691010	0.052776	0.718286	-13.146932	-87.678814	-157.579434
52209		8.514928	2.013955	-0.497245	-0.465017	-2.201712	-1.342542	-0.382987	-0.527058	0.157562	-0.895996	0.017578	0.363037	0.085146	0.020197	-0.004787	-0.060634	0.693085	0.050966	0.716491	-17.917608	-87.947831	-153.028762
52210		9.225189	1.844596	-0.834351	-0.798816	-2.101873	-0.639545	-0.385426	-0.687494	0.121038	-0.893799	0.017578	0.369629	0.092269	0.018486	-0.008062	-0.059565	0.695721	0.049325	0.714137	-24.658164	-88.292509	-146.508910
52211		9.886227	1.177784	-1.419811	-1.434236	-1.538608	0.021732	-0.367369	-0.720537	0.046040	-0.893555	0.015381	0.374023	0.098910	0.011775	-0.013863	-0.058279	0.698434	0.048015	0.711680	-33.463470	-88.642167	-137.914934
52212		10.698884	0.267215	-2.063491	-2.152028	-0.734103	0.846811	-0.247543	-0.693333	-0.020333	-0.891602	0.019775	0.380615	0.107060	0.002636	-0.020267	-0.057184	0.700995	0.047359	0.709291	-45.581864	-88.958016	-125.939068
52213		11.307280	-0.647071	-2.469925	-2.622580	0.121112	1.478048	-0.084481	-0.662326	-0.091950	-0.886963	0.017578	0.391602	0.113151	-0.006533	-0.024322	-0.056411	0.703367	0.047518	0.706990	-63.622765	-89.221976	-107.948251
52214		11.776229	-1.524862	-2.767841	-2.978882	0.964117	1.971287	0.008844	-0.560925	-0.138075	-0.886963	0.017578	0.398438	0.117829	-0.015329	-0.027349	-0.055725	0.705350	0.048043	0.705031	-88.169298	-89.377026	-83.414818
52215		11.856789	-2.104487	-2.873760	-3.103034	1.546680	2.072148	0.097150	-0.601240	-0.170608	-0.875732	0.015869	0.389404	0.118636	-0.021132	-0.028391	-0.055327	0.707423	0.049102	0.702909	-121.714200	-89.376925	-49.816244
52216		12.110745	-2.174975	-2.907922	-3.072763	1.638453	2.341723	0.087322	-0.672898	-0.179318	-0.878174	0.020020	0.405029	0.121185	-0.021846	-0.028681	-0.054743	0.709754	0.050076	0.700532	-148.904775	-89.162545	-22.593878
52217		12.388731	-1.680618	-2.998248	-3.001640	1.167042	2.634079	0.016671	-0.754654	-0.183390	-0.871338	0.018066	0.409424	0.123984	-0.016917	-0.029516	-0.053976	0.712366	0.050938	0.697872	-163.910734	-88.800052	-7.579962
52218		13.064849	-1.039658	-3.064205	-2.876579	0.558543	3.324028	-0.108401	-0.568605	-0.183338	-0.866455	0.011475	0.416016	0.130725	-0.010533	-0.030265	-0.052710	0.714368	0.051214	0.695900	-171.155698	-88.498618	-0.415187
52219		14.577188	-0.396748	-2.638508	-2.272383	0.024631	4.831389	-0.131698	-0.214752	-0.244993	-0.870605	0.006836	0.418213	0.145795	-0.004163	-0.026226	-0.051336	0.715111	0.051635	0.695208	-176.682147	-88.387011	5.033946
52220		16.522330	-0.264646	-1.430218	-1.024851	0.123467	6.741366	-0.132203	0.377593	-0.387242	-0.870605	0.002441	0.409424	0.165190	-0.002976	-0.014612	-0.049505	0.713770	0.052296	0.696668	174.862074	-88.595928	13.394459
52221		17.785814	-0.959323	-0.320427	-0.111380	1.046043	7.970698	-0.056541	0.831150	-0.593172	-0.881592	-0.002197	0.405029	0.177813	-0.010122	-0.003940	-0.047459	0.710750	0.053956	0.699765	153.508497	-88.965882	34.716381
52222		17.107487	-2.006668	0.468960	0.342933	2.282209	7.263118	0.167016	0.908481	-0.760671	-0.876953	-0.006592	0.391602	0.171016	-0.020721	0.003896	-0.045642	0.707345	0.056977	0.703088	114.742385	-89.018851	73.580311
52223		14.831097	-2.260892	1.402477	1.054323	2.735498	4.967114	0.582028	0.845671	-0.795780	-0.881104	-0.008789	0.391602	0.148277	-0.023238	0.013331	-0.045148	0.704023	0.061591	0.706059	87.271688	-88.657450	101.385986
52224		11.903564	-1.770410	2.340850	1.942675	2.413150	2.049443	0.684698	0.646327	-0.628365	-0.876465	-0.013184	0.382813	0.119054	-0.018157	0.022962	-0.045436	0.701424	0.065916	0.708233	76.125928	-88.251167	112.907218
52225		9.963450	-1.408344	2.426670	2.016734	2.076568	0.125239	0.648740	0.630709	-0.463342	-0.883301	-0.010986	0.382813	0.099677	-0.014392	0.023906	-0.046283	0.698908	0.069641	0.710307	68.690186	-87.893873	120.715161
52226		9.173921	-0.798499	2.861609	2.493006	1.566100	-0.630146	0.585620	0.471015	-0.373094	-0.878906	-0.010986	0.376221	0.091791	-0.008240	0.028376	-0.047075	0.697006	0.072767	0.711809	64.913660	-87.597211	124.810712
52227		8.982881	-0.242730	3.457151	3.121905	1.155004	-0.778188	0.507748	0.535613	-0.383929	-0.878662	-0.015381	0.371826	0.089916	-0.002687	0.034324	-0.047677	0.694861	0.075732	0.713554	61.332089	-87.268105	128.683204
52228		8.973289	0.363721	3.345630	3.052432	0.579257	-0.746712	0.396786	0.741756	-0.440484	-0.885254	-0.017578	0.363037	0.089864	0.003373	0.033130	-0.047682	0.691988	0.078363	0.716058	57.000851	-86.839787	133.229836
52229		9.305905	1.045535	2.963149	2.705977	-0.105763	-0.371342	0.263898	0.825838	-0.491768	-0.880615	-0.024170	0.358398	0.093206	0.010188	0.029260	-0.047163	0.688794	0.080759	0.718900	53.328716	-86.344049	137.056035
52230		10.441131	2.503989	2.561294	2.448019	-1.515024	0.843705	0.163400	0.494235	-0.584157	-0.877930	-0.030762	0.349609	0.104547	0.024714	0.025375	-0.045746	0.686780	0.083108	0.720648	53.039714	-85.913034	137.422305
52231		11.459962	4.383557	2.165438	2.310645	-3.320415	1.971654	-0.069083	-0.075236	-0.635331	-0.877686	-0.037354	0.356201	0.114730	0.043479	0.021682	-0.043194	0.686827	0.085005	0.720540	56.324961	-85.646908	134.084575
52232		11.983714	5.209596	1.411975	1.686078	-4.173638	2.535612	-0.538695	-0.317754	-0.564347	-0.879395	-0.046387	0.360840	0.119961	0.051796	0.014170	-0.039182	0.687874	0.085019	0.719768	60.211792	-85.474074	129.872901
52233		12.135452	4.851283	0.389610	0.590269	-3.942104	2.639905	-0.837156	-0.072475	-0.407288	-0.881592	-0.046387	0.358398	0.121452	0.048281	0.003738	-0.034811	0.688145	0.083367	0.719927	61.591539	-85.296398	128.003574
52234		11.790670	4.792001	0.476054	0.624570	-3.865776	2.306511	-0.816180	0.304715	-0.238617	-0.881592	-0.048584	0.351807	0.117971	0.047798	0.004386	-0.031278	0.687115	0.081147	0.721325	60.114330	-85.098350	129.013332
52235		10.656221	4.438085	1.258230	1.316574	-3.471392	1.189591	-0.887315	0.512560	-0.062601	-0.874512	-0.057373	0.349609	0.106608	0.044402	0.012112	-0.028218	0.685398	0.078028	0.723426	56.951991	-84.920489	131.673488
52236		9.155299	3.445991	2.234278	2.146792	-2.473683	-0.328061	-0.969917	0.318906	0.081170	-0.878662	-0.059570	0.343018	0.091574	0.034604	0.022029	-0.025237	0.684443	0.074070	0.724855	54.421056	-84.862258	133.640345
52237		7.985583	1.977388	2.858193	2.606869	-1.052218	-1.569765	-1.031973	-0.228736	0.181583	-0.872070	-0.057129	0.347412	0.079805	0.019994	0.028570	-0.022285	0.685486	0.069682	0.724401	54.344681	-85.029248	133.119552
52238		7.662107	0.118865	2.224194	1.800693	0.642682	-2.065884	-1.054921	-0.910218	0.227599	-0.874268	-0.059570	0.356201	0.076517	0.001394	0.022583	-0.019106	0.688999	0.065059	0.721583	58.075609	-85.434247	128.753679
52239		8.043214	-1.429780	0.777020	0.261809	2.003488	-1.859221	-0.935057	-1.285081	0.222625	-0.867676	-0.057129	0.369629	0.080396	-0.014170	0.008353	-0.016276	0.693801	0.060986	0.717396	65.311447	-85.902822	120.956080
52240		8.296246	-2.434137	-1.015031	-1.519678	2.815302	-1.716602	-0.852635	-1.102773	0.173173	-0.863037	-0.059326	0.371826	0.083037	-0.024311	-0.009589	-0.013540	0.697896	0.057298	0.713775	72.928038	-86.227463	112.817351
52241		8.137950	-3.064649	-2.154979	-2.622150	3.327616	-1.918821	-0.819171	-0.531342	0.121334	-0.864990	-0.063721	0.376221	0.081455	-0.030684	-0.021208	-0.010968	0.699899	0.053932	0.712119	76.754952	-86.380008	108.508268
52242		7.323736	-3.279634	-2.105324	-2.537635	3.510694	-2.737313	-0.783425	0.245109	0.068454	-0.862793	-0.063721	0.371826	0.073223	-0.032854	-0.021014	-0.008475	0.699115	0.050773	0.713154	74.041831	-86.388251	110.762695
52243		6.411823	-3.286311	-1.120237	-1.548528	3.553957	-3.637123	-0.748088	0.886613	0.025126	-0.869141	-0.070557	0.360840	0.064072	-0.032897	-0.011363	-0.006180	0.696005	0.047925	0.716410	66.143758	-86.234372	118.243722
52244		5.353282	-2.912100	0.270867	-0.136428	3.227432	-4.638110	-0.699251	1.152984	-0.024874	-0.869141	-0.070313	0.349609	0.053544	-0.029119	0.002502	-0.003872	0.691908	0.045352	0.720550	57.371182	-85.914651	126.620706
52245		4.637305	-2.410957	1.439046	1.057081	2.763950	-5.270526	-0.663081	1.010296	-0.065181	-0.869385	-0.070313	0.340820	0.046437	-0.024077	0.014236	-0.001579	0.688277	0.043114	0.724164	50.985699	-85.551176	132.639023
52246		4.820179	-1.938553	2.018088	1.629632	2.332214	-5.020003	-0.600188	0.636228	-0.083650	-0.873291	-0.079346	0.340820	0.048258	-0.019345	0.020086	0.000710	0.685987	0.041110	0.726452	47.581545	-85.283471	135.695236
52247		5.200577	-1.605792	1.857431	1.456068	2.005223	-4.622932	-0.553621	0.188358	-0.082245	-0.871338	-0.074951	0.334229	0.052017	-0.016028	0.018570	0.002861	0.685304	0.039327	0.727188	46.686386	-85.181548	136.271319
52248		6.166834	-1.203178	1.169025	0.739498	1.619200	-3.674657	-0.437789	-0.166939	-0.057247	-0.866699	-0.076904	0.345215	0.061655	-0.012024	0.011768	0.004660	0.685924	0.037814	0.726675	47.530760	-85.229133	135.158237
52249		7.054223	-0.886179	0.541356	0.097705	1.323408	-2.807017	-0.318358	-0.350340	-0.001590	-0.866699	-0.079102	0.345215	0.070533	-0.008854	0.005551	0.005817	0.687211	0.036600	0.725512	49.167072	-85.367923	133.329502
52250		7.906945	-0.792745	0.049090	-0.403768	1.255195	-1.976108	-0.180546	-0.442600	0.074332	-0.866699	-0.079102	0.347412	0.079071	-0.007898	0.000673	0.006305	0.688854	0.035562	0.724000	51.174414	-85.569626	131.198221
52251		8.729315	-0.698014	-0.229021	-0.675615	1.187226	-1.159687	-0.019270	-0.564577	0.176703	-0.862549	-0.070313	0.351807	0.087305	-0.006903	-0.002043	0.005825	0.690949	0.034811	0.722041	53.754136	-85.853149	128.596315
52252		9.224177	-0.346749	-0.430045	-0.825963	0.838487	-0.647267	0.136798	-0.711226	0.258903	-0.862549	-0.068115	0.356201	0.092261	-0.003345	-0.003975	0.004594	0.693592	0.034278	0.719538	57.481018	-86.212399	124.925666
52253		9.187104	-0.411320	-1.098729	-1.427788	0.848792	-0.701167	0.195322	-0.730699	0.273700	-0.864990	-0.063721	0.365234	0.091916	-0.003977	-0.010655	0.003050	0.696289	0.033959	0.716951	62.079654	-86.564967	120.426170
52254		8.830866	-0.788727	-1.955883	-2.226918	1.145293	-1.085685	0.305255	-0.648742	0.224956	-0.858398	-0.063477	0.371826	0.088380	-0.007758	-0.019284	0.001341	0.698684	0.034150	0.714614	67.157525	-86.847359	115.502181
52255		8.506667	-0.978339	-2.413145	-2.638776	1.275139	-1.413013	0.397135	-0.446108	0.147263	-0.860596	-0.063721	0.376221	0.085127	-0.009673	-0.023961	-0.000502	0.700325	0.034997	0.712965	71.314930	-87.022878	111.562825
52256		8.337281	-1.187002	-2.504359	-2.708330	1.453689	-1.582090	0.425031	-0.299628	0.054697	-0.856445	-0.054688	0.376221	0.083413	-0.011794	-0.024944	-0.002075	0.701431	0.036203	0.711814	74.630680	-87.109220	108.472357
52257		8.407338	-1.124367	-2.113348	-2.297738	1.405563	-1.496526	0.463605	-0.226389	-0.034978	-0.856445	-0.054688	0.378418	0.084095	-0.011209	-0.021064	-0.003542	0.702247	0.037924	0.710914	77.532766	-87.126657	105.828687
52258		8.667016	-0.730501	-1.321079	-1.474289	1.070876	-1.205961	0.429578	-0.158842	-0.104943	-0.849609	-0.058838	0.382813	0.086677	-0.007322	-0.013158	-0.004591	0.702815	0.039706	0.710249	79.840876	-87.091372	103.750190
52259		8.920664	-0.197149	-0.701955	-0.814811	0.597361	-0.919483	0.365861	-0.141193	-0.138443	-0.854248	-0.054688	0.382813	0.089210	-0.002020	-0.006960	-0.005363	0.703302	0.041440	0.709662	81.899591	-87.031366	101.894791
52260		9.307763	0.303399	-0.563735	-0.629347	0.138095	-0.505212	0.267752	-0.264234	-0.126941	-0.854004	-0.059082	0.391602	0.093087	0.002982	-0.005510	-0.005737	0.704238	0.042720	0.708654	85.155149	-86.981697	98.773370
52261		9.986361	0.934340	-0.778862	-0.775183	-0.459693	0.207027	0.160354	-0.355998	-0.084372	-0.854248	-0.054688	0.396240	0.099881	0.009307	-0.007603	-0.005932	0.705499	0.043541	0.707347	89.192624	-86.948609	94.818361
52262		10.752037	1.590844	-1.252808	-1.161556	-1.098625	1.010907	0.022232	-0.468825	-0.025648	-0.842773	-0.058838	0.400635	0.107551	0.015896	-0.012274	-0.005753	0.707183	0.043598	0.705662	94.301634	-86.930668	89.699416
52263		11.252082	2.158987	-1.867835	-1.673729	-1.676303	1.551625	-0.093254	-0.653307	0.029783	-0.840820	-0.054199	0.405029	0.112578	0.021598	-0.018321	-0.005391	0.709517	0.043127	0.703347	101.251961	-86.901343	82.681651
52264		11.274662	2.623891	-2.547819	-2.239742	-2.181092	1.620593	-0.158332	-0.818016	0.062309	-0.836182	-0.058594	0.409424	0.112841	0.026254	-0.025038	-0.004807	0.712438	0.042244	0.700446	109.669341	-86.814273	74.145366
52265		10.856152	2.339198	-3.260932	-2.886960	-1.963712	1.222264	-0.192617	-0.864381	0.087800	-0.836426	-0.049805	0.416016	0.108691	0.023409	-0.032162	-0.004251	0.715505	0.041223	0.697378	117.961890	-86.663062	65.725006
52266		10.588399	1.514785	-3.858428	-3.455350	-1.190945	0.954754	-0.149804	-0.809817	0.092091	-0.831787	-0.054199	0.427002	0.106032	0.015168	-0.038167	-0.003806	0.718377	0.040263	0.694477	125.034463	-86.467196	58.538722
52267		11.136527	0.274226	-4.051945	-3.622184	0.063263	1.474064	-0.090347	-0.782536	0.095430	-0.831787	-0.052002	0.436035	0.111521	0.002777	-0.040085	-0.003661	0.721133	0.039567	0.691656	131.136016	-86.235108	52.369066
52268		12.825464	-0.988689	-3.716036	-3.208008	1.427264	3.108220	-0.034144	-0.679398	0.107329	-0.827393	-0.052002	0.440430	0.128385	-0.009824	-0.036723	-0.003706	0.723533	0.038943	0.689181	136.000837	-86.011687	47.457588
52269		15.114982	-1.745519	-3.833133	-3.175751	2.279799	5.383328	0.029554	-0.548348	0.147342	-0.818604	-0.047119	0.440430	0.151267	-0.017338	-0.037919	-0.004218	0.725470	0.038467	0.687165	139.931156	-85.835500	43.530410
52270		16.873024	-1.400927	-4.261515	-3.425725	1.965995	7.193811	0.191891	-0.218699	0.253139	-0.823486	-0.042969	0.444824	0.168794	-0.013755	-0.042444	-0.005672	0.726298	0.038080	0.686301	142.758636	-85.827834	40.789465
52271		18.158128	0.020073	-3.854713	-2.861630	0.554302	8.519783	0.404399	0.277916	0.507012	-0.825928	-0.038574	0.438232	0.181526	0.000739	-0.038798	-0.008938	0.725448	0.037564	0.687193	145.078385	-86.127774	38.692394
52272		18.315808	1.491902	-0.708698	0.243614	-0.841707	8.556373	0.209051	1.330991	0.795246	-0.826416	-0.027344	0.424805	0.183044	0.015655	-0.008289	-0.012606	0.721026	0.035202	0.691898	144.135709	-87.012574	39.740188
52273		15.881120	1.767917	2.748121	3.351804	-1.137030	6.009781	-0.200827	1.879252	0.943987	-0.835693	-0.020752	0.405029	0.158974	0.018456	0.025970	-0.015483	0.714687	0.030929	0.698589	138.063313	-88.192184	45.698537
52274		12.357951	1.895287	5.354121	5.654706	-1.330749	2.484747	-0.309434	1.381834	0.881929	-0.844727	-0.023193	0.400635	0.123860	0.019581	0.052656	-0.017608	0.710028	0.026465	0.703456	128.360171	-89.106269	55.211687
52275		9.816267	2.008125	6.296824	6.467187	-1.535466	-0.021959	-0.345063	0.596505	0.741449	-0.836182	-0.011963	0.396240	0.098274	0.020554	0.062640	-0.019075	0.708072	0.022513	0.705523	128.245698	-89.653232	55.124579
52276		9.175033	0.983676	5.247260	5.321684	-0.670764	-0.652352	-0.433650	0.138202	0.653867	-0.843262	-0.007568	0.398438	0.091753	0.010250	0.052387	-0.019801	0.707725	0.018534	0.705967	-142.651455	-89.824405	-34.241940
52277		9.179224	-0.235196	3.775837	3.772820	0.389462	-0.637496	-0.278079	0.220318	0.619928	-0.845703	-0.003174	0.393799	0.091840	-0.002015	0.037660	-0.021032	0.707051	0.015282	0.706685	-92.169282	-89.533178	-84.887863
52278		9.097283	-0.768869	3.003022	2.941063	0.818799	-0.699563	-0.085193	0.597047	0.576094	-0.839111	-0.000977	0.396240	0.091084	-0.007414	0.029762	-0.022763	0.705017	0.012773	0.708709	-68.277195	-89.137002	-108.843032
52279		9.269574	-1.263990	2.853331	2.712385	1.249907	-0.499022	0.138691	0.622496	0.513012	-0.843994	0.010254	0.382813	0.092816	-0.012422	0.028236	-0.025116	0.702846	0.011331	0.710809	-58.509854	-88.710033	-118.536414
52280		10.570958	-2.749804	2.454323	2.188569	2.641610	0.843867	0.442048	0.040720	0.486049	-0.851074	0.016602	0.389404	0.105781	-0.027295	0.024461	-0.028354	0.702698	0.011084	0.710836	-63.171718	-88.452966	-113.631986
52281		12.259355	-3.825696	1.730941	1.407459	3.593800	2.557730	0.800920	-0.653606	0.427228	-0.839844	0.016846	0.391602	0.122618	-0.038065	0.017557	-0.032657	0.704944	0.012468	0.708401	-78.452021	-88.340237	-97.890578
52282		12.852718	-3.245669	1.064510	0.837675	2.923951	3.133675	0.920257	-0.732546	0.307741	-0.838379	0.030273	0.400635	0.128537	-0.032309	0.010967	-0.036900	0.707424	0.014657	0.705674	-92.408374	-88.191980	-83.412585
52283		12.185135	-2.867510	-0.001011	-0.148609	2.469345	2.458428	0.637831	-0.421055	0.136907	-0.835938	0.028076	0.407227	0.121871	-0.028592	0.000155	-0.039615	0.708820	0.016447	0.704084	-99.279121	-88.083845	-76.176449
52284		10.823702	-2.409828	-1.202421	-1.302129	1.952972	1.091256	0.548098	-0.123308	-0.035849	-0.831543	0.030518	0.407227	0.108240	-0.024085	-0.012023	-0.041375	0.709169	0.018420	0.703582	-101.256891	-88.085591	-73.895811
52285		9.767018	-1.211184	-1.509376	-1.517805	0.768289	-0.002193	0.582884	-0.032897	-0.159927	-0.836182	0.030273	0.400635	0.097663	-0.012146	-0.015113	-0.042883	0.709170	0.020991	0.703419	-102.132069	-88.165907	-72.689890
52286		9.263942	0.074289	-0.905516	-0.808268	-0.431181	-0.549488	0.516213	0.020537	-0.215663	-0.836182	0.032471	0.407227	0.092639	0.000666	-0.009063	-0.043907	0.708993	0.023455	0.703456	-102.417559	-88.283128	-72.121545
52287		8.747637	1.309460	-0.380639	-0.174634	-1.579667	-1.103218	0.439456	0.060539	-0.226092	-0.835938	0.028076	0.409424	0.087490	0.013004	-0.003804	-0.044682	0.708679	0.025736	0.703644	-102.026938	-88.411457	-72.264305
52288		7.966804	2.316236	0.154814	0.450601	-2.490646	-1.909998	0.369982	0.100877	-0.203514	-0.833740	0.028076	0.400635	0.079692	0.023078	0.001551	-0.045238	0.708245	0.027622	0.703974	-100.676521	-88.531204	-73.416569
52289		7.390109	2.908145	0.405178	0.752182	-3.025476	-2.497232	0.343237	0.223515	-0.159798	-0.838379	0.030273	0.405029	0.073929	0.029015	0.004019	-0.045928	0.707381	0.029293	0.704730	-96.007323	-88.635005	-77.894342
52290		6.604726	2.822081	0.336703	0.657106	-2.921105	-3.275468	0.321714	0.429715	-0.089430	-0.840820	0.034668	0.396240	0.066067	0.028186	0.003270	-0.046765	0.705810	0.030535	0.706196	-85.501640	-88.684476	-88.231336
52291		5.909697	2.713394	0.371222	0.659074	-2.791546	-3.964808	0.383243	0.522061	-0.015815	-0.838135	0.028076	0.391602	0.059109	0.027122	0.003610	-0.048147	0.703895	0.031768	0.707958	-72.829535	-88.632597	-100.691115
52292		5.277471	2.583490	0.644011	0.898550	-2.618604	-4.590010	0.392882	0.548265	0.045931	-0.833984	0.034912	0.393799	0.052786	0.025834	0.006346	-0.049735	0.701895	0.032762	0.709786	-61.722815	-88.483279	-111.588173
52293		4.940404	2.354693	1.185945	1.395025	-2.322953	-4.912035	0.352383	0.543085	0.092160	-0.844971	0.027832	0.387207	0.049425	0.023549	0.011767	-0.051394	0.699917	0.033501	0.711585	-53.448930	-88.269033	-119.667247
52294		4.812990	1.962623	1.581919	1.724783	-1.886476	-5.018364	0.292914	0.492362	0.101302	-0.833984	0.034912	0.382813	0.048159	0.019628	0.015729	-0.052815	0.698136	0.033957	0.713206	-47.851917	-88.043868	-125.111593
52295		5.097148	1.681624	1.556561	1.644881	-1.621379	-4.723764	0.262943	0.321116	0.083642	-0.845703	0.043457	0.378418	0.050989	0.016817	0.015506	-0.054092	0.696959	0.034465	0.714237	-45.052466	-87.881120	-127.765933
52296		5.602598	1.453014	1.312862	1.355544	-1.441626	-4.217317	0.217563	0.118765	0.052526	-0.850342	0.045654	0.378418	0.056030	0.014531	0.013111	-0.055018	0.696517	0.034929	0.714575	-44.401974	-87.811123	-128.303461
52297		6.281286	1.183140	0.970975	0.966356	-1.237770	-3.541225	0.153129	-0.026157	0.008535	-0.845947	0.047852	0.385010	0.062811	0.011827	0.009727	-0.055584	0.696595	0.035401	0.714432	-44.842539	-87.817335	-127.778647
52298		6.945307	0.890560	0.515406	0.467244	-1.023317	-2.882281	0.030027	-0.111237	-0.059398	-0.843506	0.045654	0.380615	0.069453	0.008884	0.005194	-0.055421	0.697006	0.035653	0.714031	-45.570288	-87.885873	-127.043774
52299		7.528977	0.631781	0.114258	0.032977	-0.827621	-2.301920	-0.028982	-0.170255	-0.132203	-0.845703	0.043457	0.382813	0.075293	0.006268	0.001206	-0.054824	0.697623	0.036004	0.713457	-46.241580	-88.007001	-126.392541
52300		8.147529	0.431395	-0.207081	-0.313356	-0.672995	-1.684954	-0.133148	-0.149129	-0.206535	-0.839111	0.045898	0.387207	0.081481	0.004228	-0.002013	-0.053560	0.698185	0.036197	0.712992	-45.903364	-88.150904	-126.818004
52301		8.585925	0.192267	-0.724088	-0.855826	-0.490913	-1.250802	-0.246108	-0.134240	-0.270132	-0.843018	0.034668	0.389404	0.085867	0.001798	-0.007186	-0.051719	0.698705	0.036245	0.712617	-44.476147	-88.313850	-128.390848
52302		8.843366	0.037775	-1.191379	-1.332847	-0.373181	-0.997354	-0.306650	-0.178269	-0.295391	-0.840820	0.034668	0.387207	0.088445	0.000229	-0.011835	-0.049525	0.699396	0.036135	0.712100	-43.032813	-88.504372	-130.021420
52303		8.770539	0.284168	-1.547622	-1.642688	-0.629281	-1.077486	-0.348170	-0.191705	-0.260251	-0.840820	0.034668	0.393799	0.087724	0.002701	-0.015397	-0.047352	0.700141	0.035800	0.711533	-42.029848	-88.685323	-131.228105
52304		8.656672	0.327432	-1.657680	-1.730124	-0.655598	-1.188891	-0.438641	-0.241906	-0.193888	-0.836182	0.030273	0.391602	0.086590	0.003154	-0.016479	-0.045046	0.701100	0.034880	0.710783	-43.152499	-88.862389	-130.367392
52305		8.457075	0.214433	-1.597909	-1.663749	-0.512422	-1.381156	-0.486557	-0.231748	-0.091455	-0.838135	0.025879	0.391602	0.084590	0.002067	-0.015886	-0.042981	0.702039	0.033471	0.710051	-46.788358	-88.992361	-127.013596
52306		8.262192	0.402756	-1.121508	-1.152666	-0.633385	-1.569267	-0.489482	-0.181572	-0.010114	-0.833984	0.032471	0.405029	0.082632	0.003996	-0.011150	-0.041158	0.702817	0.031712	0.709471	-51.885783	-89.063713	-122.206837
52307		8.326240	0.612505	-0.663421	-0.663580	-0.792003	-1.501614	-0.503206	-0.175389	0.040784	-0.840576	0.030029	0.402832	0.083267	0.006125	-0.006577	-0.039513	0.703571	0.029766	0.708901	-58.518728	-89.099822	-115.865266
52308		8.454946	0.942676	-0.566481	-0.519216	-1.112309	-1.375342	-0.425023	-0.288581	0.037451	-0.831299	0.023682	0.411621	0.084556	0.009431	-0.005563	-0.038074	0.704712	0.028093	0.707914	-69.529701	-89.150683	-105.106780
52309		8.987819	0.922647	-0.837983	-0.765367	-1.122957	-0.841207	-0.362541	-0.427801	0.014060	-0.831299	0.023682	0.411621	0.089895	0.009218	-0.008204	-0.036792	0.706318	0.026788	0.706430	-86.784543	-89.189361	-88.061769
52310		9.791722	0.609609	-1.700366	-1.605490	-0.892893	-0.026700	-0.279638	-0.606951	-0.005577	-0.833740	0.028076	0.418213	0.097968	0.006070	-0.016715	-0.035664	0.708540	0.025834	0.704295	-110.862609	-89.132467	-64.152595
52311		10.575117	0.034420	-2.538486	-2.417867	-0.391455	0.783461	-0.184508	-0.730954	-0.038923	-0.826660	0.023682	0.422607	0.105843	0.000300	-0.024998	-0.034784	0.711160	0.025399	0.701709	-132.761734	-88.920748	-42.360025
52312		11.226890	-0.488723	-2.980522	-2.815781	0.099056	1.466782	-0.082638	-0.693590	-0.063251	-0.826904	0.026123	0.424805	0.112370	-0.004935	-0.029414	-0.034144	0.713626	0.025361	0.699234	-146.192757	-88.633763	-28.983862
52313		11.280686	-0.793337	-3.185096	-2.970720	0.400900	1.546968	-0.043234	-0.603209	-0.097634	-0.824463	0.023682	0.433838	0.112898	-0.007995	-0.031509	-0.033578	0.715750	0.025607	0.697078	-154.485520	-88.354885	-20.716921
52314		11.233823	-0.904043	-3.034915	-2.765965	0.543880	1.513391	-0.005880	-0.559002	-0.149497	-0.824463	0.026123	0.436035	0.112416	-0.009125	-0.030035	-0.032928	0.717708	0.026122	0.695074	-160.869395	-88.084759	-14.343836
52315		11.320036	-0.778907	-2.880350	-2.539030	0.455717	1.606228	0.015200	-0.513335	-0.210400	-0.820068	0.028320	0.447021	0.113266	-0.007906	-0.028513	-0.032190	0.719483	0.026960	0.693240	-166.332864	-87.831587	-8.872074
52316		11.761501	-0.705477	-2.884023	-2.460810	0.410803	2.058430	0.029387	-0.531859	-0.262439	-0.817627	0.023926	0.451416	0.117682	-0.007205	-0.028528	-0.031281	0.721314	0.028000	0.691334	-171.351762	-87.556099	-3.842224
52317		13.057684	-0.674775	-2.447496	-1.912792	0.451536	3.343515	0.125928	-0.410690	-0.322399	-0.817383	0.019531	0.451416	0.130616	-0.006943	-0.024211	-0.030568	0.722690	0.029609	0.689861	-175.886483	-87.338573	0.765335
52318		15.365939	-1.037921	-1.314715	-0.687123	0.965193	5.598793	0.207438	0.002216	-0.452504	-0.817383	0.017334	0.451416	0.153635	-0.010713	-0.013160	-0.029721	0.722613	0.031864	0.689878	178.750860	-87.341682	6.242263
52319		18.074284	-1.779427	0.209982	0.824779	1.937644	8.227633	0.254077	0.608625	-0.670655	-0.823975	0.014893	0.444824	0.180687	-0.018402	0.001527	-0.028427	0.720384	0.035019	0.692107	169.449662	-87.647128	15.694128
52320		19.424467	-2.878737	0.786453	1.204594	3.235299	9.533953	0.232894	0.787185	-0.917525	-0.823242	0.001465	0.440430	0.194139	-0.029687	0.007066	-0.026194	0.717485	0.038925	0.694992	153.130613	-87.905648	32.148648
52321		17.817231	-3.775478	0.277574	0.386635	4.214309	7.903684	0.597806	0.813624	-1.025814	-0.832275	-0.000977	0.431641	0.177985	-0.038675	0.001937	-0.024937	0.714385	0.044521	0.697889	132.923536	-87.925111	52.707692
52322		13.575623	-2.515203	0.882675	0.834444	3.035240	3.659131	1.096352	1.097618	-0.892647	-0.827881	0.001465	0.422607	0.135687	-0.025803	0.007942	-0.025942	0.710225	0.051298	0.701624	111.869778	-87.830346	74.393110
52323		10.111485	-0.958891	2.900751	2.816308	1.678213	0.228525	1.061618	1.090014	-0.642762	-0.834473	-0.003174	0.416016	0.101239	-0.010066	0.028403	-0.027741	0.706099	0.057108	0.705261	95.075689	-87.619322	91.805084
52324		9.234335	-0.305857	4.092191	3.982988	1.214112	-0.605438	0.967998	0.540561	-0.458383	-0.834473	-0.000732	0.416016	0.092446	-0.003468	0.040656	-0.029663	0.703950	0.061971	0.706919	88.465360	-87.370854	98.966774
52325		9.183881	0.457564	3.992451	3.940875	0.514888	-0.609610	0.884339	0.189298	-0.410171	-0.836426	-0.005371	0.413818	0.091885	0.004211	0.039857	-0.031389	0.703039	0.066458	0.707343	86.972423	-87.136806	100.964819
52326		9.528878	0.942652	2.782494	2.787042	-0.052803	-0.238780	0.678461	0.156460	-0.410327	-0.838867	-0.000977	0.416016	0.095329	0.009137	0.027782	-0.032341	0.702272	0.070182	0.707702	85.993904	-86.902015	102.323722
52327		10.061286	1.585717	1.714042	1.788078	-0.764699	0.331257	0.497343	0.419466	-0.415916	-0.834229	-0.007324	0.405029	0.100681	0.015606	0.016968	-0.032768	0.700583	0.073281	0.709042	82.508083	-86.646016	106.096595
52328		10.894334	3.506848	1.243038	1.549375	-2.636528	1.285839	0.395942	0.519880	-0.498130	-0.838623	-0.009766	0.402832	0.109062	0.034773	0.012216	-0.032547	0.698522	0.076253	0.710770	78.759566	-86.321499	110.069582
52329		11.807654	5.948118	1.471908	2.089532	-4.894511	2.379294	0.033246	0.152833	-0.578243	-0.833984	-0.011963	0.405029	0.118259	0.059137	0.014639	-0.030671	0.697776	0.078312	0.711362	78.505501	-85.985013	110.339431
52330		11.787428	6.337941	1.066199	1.709438	-5.283908	2.410543	-0.692706	-0.009474	-0.549787	-0.835693	-0.022949	0.405029	0.118047	0.063091	0.010449	-0.026263	0.697729	0.077678	0.711654	79.063952	-85.682842	109.371812
52331		11.658475	5.145197	0.243861	0.660845	-4.190731	2.206170	-0.957285	0.188711	-0.466643	-0.840088	-0.025391	0.400635	0.116706	0.051190	0.002083	-0.021341	0.697018	0.075820	0.712715	77.869294	-85.404843	110.016059
52332		11.549653	4.837586	0.617161	0.906259	-3.812767	2.096064	-0.913685	0.388083	-0.323881	-0.844482	-0.025391	0.400635	0.115586	0.048216	0.005727	-0.017118	0.695634	0.073563	0.714415	75.276421	-85.178446	112.082913
52333		10.897113	4.252810	1.364947	1.502047	-3.183317	1.425915	-1.031047	0.443758	-0.157905	-0.837402	-0.031982	0.394043	0.109034	0.042511	0.013188	-0.013136	0.694094	0.070336	0.716320	72.152443	-85.026041	114.621536
52334		9.820501	3.193718	1.990880	1.965513	-2.162813	0.290003	-1.106761	0.228193	-0.027976	-0.845947	-0.043213	0.394043	0.098232	0.032033	0.019620	-0.009253	0.693361	0.066375	0.717467	70.188023	-84.974610	115.948765
52335		8.959745	1.888249	2.556817	2.402911	-0.906076	-0.659286	-1.119057	-0.344393	0.062337	-0.841553	-0.041016	0.398438	0.089547	0.019054	0.025616	-0.005488	0.694682	0.062105	0.716610	71.570298	-85.078870	113.913787
52336		8.543927	0.184561	2.282740	2.032303	0.693313	-1.231774	-1.052662	-0.934442	0.115421	-0.837158	-0.038574	0.409424	0.085330	0.002016	0.023216	-0.001929	0.698109	0.057874	0.713646	76.904994	-85.293972	107.946334
52337		8.571161	-1.272474	0.934824	0.670389	2.008224	-1.358446	-0.878836	-1.304629	0.117271	-0.832275	-0.042969	0.418213	0.085655	-0.012632	0.009963	0.001092	0.702809	0.054285	0.709303	85.468667	-85.480954	98.845908
52338		9.079259	-2.606178	-1.029205	-1.257576	3.225822	-0.964234	-0.839184	-1.376534	0.100637	-0.827881	-0.045166	0.424805	0.090873	-0.026057	-0.009557	0.004076	0.707721	0.050871	0.704647	95.099647	-85.539679	88.695653
52339		8.839941	-3.427946	-2.520561	-2.679761	3.941608	-1.237701	-0.720324	-0.788883	0.056453	-0.827637	-0.047363	0.438232	0.088507	-0.034344	-0.024733	0.006621	0.710513	0.048062	0.702010	100.519409	-85.514746	82.841504
52340		7.894973	-3.601598	-2.812720	-2.935510	4.042513	-2.180236	-0.628370	0.087833	0.019695	-0.818604	-0.047119	0.431641	0.078941	-0.036096	-0.028049	0.008782	0.710214	0.045712	0.702445	99.611968	-85.538672	83.383021
52341		6.634216	-3.493568	-1.830781	-1.969392	3.900233	-3.450364	-0.563636	0.798780	-0.005914	-0.825439	-0.049561	0.420410	0.066268	-0.034990	-0.018474	0.010616	0.707398	0.043733	0.705382	93.466909	-85.592059	89.218706
52342		5.240372	-2.723114	-0.197852	-0.343645	3.105549	-4.797383	-0.458409	1.155475	-0.026981	-0.831787	-0.054199	0.416016	0.052388	-0.027243	-0.002219	0.012096	0.703308	0.042196	0.709529	84.683830	-85.570859	97.757153
52343		4.289156	-2.189621	1.224757	1.069668	2.559139	-5.689844	-0.531490	1.058311	-0.034027	-0.833984	-0.054199	0.407227	0.042952	-0.021871	0.012079	0.013857	0.699525	0.040439	0.713329	76.813466	-85.459380	105.342276
52344		4.101394	-1.931249	1.705313	1.537130	2.298651	-5.836178	-0.533109	0.732512	-0.026852	-0.838623	-0.052002	0.400635	0.041074	-0.019273	0.016954	0.015686	0.696892	0.038604	0.715965	71.572560	-85.336107	110.286120
52345		4.563820	-1.486055	1.596587	1.417626	1.878715	-5.335338	-0.454288	0.251157	0.002864	-0.840576	-0.058838	0.402832	0.045658	-0.014824	0.015942	0.017203	0.695978	0.036933	0.716906	69.664970	-85.295768	111.935057
52346		5.330614	-1.097666	0.997506	0.807550	1.525432	-4.555668	-0.414042	-0.038441	0.039114	-0.836182	-0.056396	0.409424	0.053306	-0.010946	0.010008	0.018525	0.696115	0.035234	0.716826	69.608131	-85.330644	111.746906
52347		6.358649	-0.757805	0.386983	0.187520	1.242643	-3.521655	-0.264876	-0.269517	0.088950	-0.836182	-0.056396	0.405029	0.063585	-0.007545	0.003966	0.019169	0.697094	0.033895	0.715922	71.061004	-85.436493	110.133164
52348		7.118047	-0.501886	0.103836	-0.086921	1.029312	-2.751374	-0.163623	-0.381553	0.148441	-0.838623	-0.052002	0.409424	0.071182	-0.004965	0.001178	0.019267	0.698495	0.032698	0.714608	73.316494	-85.590508	107.772667
52349		7.783414	-0.269735	0.055779	-0.113211	0.832284	-2.069836	-0.028716	-0.473249	0.206292	-0.834229	-0.049805	0.409424	0.077835	-0.002617	0.000742	0.018700	0.700237	0.031774	0.712958	76.383976	-85.781264	104.676095
52350		8.311097	-0.098809	-0.029994	-0.161808	0.679506	-1.530366	0.056458	-0.590710	0.250608	-0.838867	-0.049805	0.418213	0.083113	-0.000884	-0.000055	0.017713	0.702412	0.030970	0.710876	80.674388	-85.995269	100.400504
52351		8.474104	-0.139086	-0.482228	-0.562314	0.701583	-1.371503	0.157444	-0.687180	0.244284	-0.830078	-0.045166	0.422607	0.084759	-0.001284	-0.004532	0.016392	0.704924	0.030556	0.708435	86.296373	-86.184580	94.851969
52352		8.418774	-0.270800	-1.223800	-1.247083	0.794946	-1.430605	0.287778	-0.695395	0.188032	-0.827637	-0.047363	0.433838	0.084232	-0.002611	-0.011949	0.014829	0.707462	0.030781	0.705925	92.575767	-86.301540	88.717546
52353		8.354003	-0.340307	-1.824842	-1.797584	0.830218	-1.487157	0.373275	-0.547301	0.107528	-0.827881	-0.040771	0.438232	0.083591	-0.003324	-0.018026	0.013207	0.709456	0.031623	0.703916	97.791268	-86.339259	83.701719
52354		8.169628	-0.353314	-2.040996	-1.978018	0.813764	-1.660481	0.425200	-0.359886	0.023647	-0.823486	-0.040771	0.440430	0.081733	-0.003480	-0.020270	0.011687	0.710780	0.032934	0.702546	101.316875	-86.322728	80.405715
52355		8.192990	-0.220082	-1.857968	-1.769005	0.681645	-1.625409	0.413982	-0.183341	-0.063798	-0.825928	-0.036377	0.442627	0.081946	-0.002189	-0.018509	0.010464	0.711458	0.034549	0.701800	103.085954	-86.268935	78.866744
52356		8.482253	0.079652	-1.270849	-1.158487	0.422392	-1.324489	0.406610	-0.046426	-0.127468	-0.828369	-0.031982	0.436035	0.084826	0.000768	-0.012687	0.009487	0.711648	0.036351	0.701531	103.534704	-86.195755	78.643320
52357		9.005424	0.575067	-0.624306	-0.483555	-0.005505	-0.780287	0.366877	0.007927	-0.148045	-0.823486	-0.038330	0.440430	0.090058	0.005695	-0.006236	0.008694	0.711632	0.038110	0.701464	103.448662	-86.118371	78.936354
52358		9.503622	0.929761	-0.436638	-0.268076	-0.307952	-0.262440	0.253658	-0.094868	-0.122128	-0.828125	-0.036377	0.444824	0.095044	0.009245	-0.004310	0.008250	0.711980	0.039355	0.701047	104.195847	-86.041413	78.326256
52359		10.037500	1.256282	-0.895197	-0.682494	-0.608424	0.301410	0.123666	-0.299099	-0.076021	-0.823730	-0.033936	0.449219	0.100393	0.012530	-0.008794	0.008130	0.713041	0.039992	0.699934	106.528080	-85.957885	76.055477
52360		10.807580	1.556997	-1.756791	-1.473270	-0.887336	1.112339	0.028314	-0.489567	-0.033055	-0.819092	-0.036133	0.455811	0.108121	0.015555	-0.017301	0.008255	0.714776	0.040113	0.698154	110.257010	-85.854873	72.326302
52361		11.678244	2.127045	-2.566280	-2.175286	-1.426756	2.050010	-0.040250	-0.586664	0.003551	-0.821533	-0.036133	0.458008	0.116857	0.021267	-0.025324	0.008499	0.716842	0.039881	0.696042	114.536789	-85.731878	68.007969
52362		11.913907	2.407591	-3.363829	-2.883729	-1.721144	2.343561	-0.138784	-0.593852	0.039970	-0.814697	-0.036133	0.467041	0.119233	0.024077	-0.033301	0.008972	0.718936	0.039172	0.693914	118.686843	-85.602492	63.762161
52363		11.681188	1.869928	-4.052955	-3.533783	-1.226620	2.119646	-0.181771	-0.620528	0.068057	-0.808105	-0.033691	0.471436	0.116931	0.018702	-0.040184	0.009506	0.721113	0.038213	0.691698	122.814063	-85.456621	59.514013
52364		11.589736	1.074631	-4.456600	-3.896327	-0.453794	2.017366	-0.136660	-0.720754	0.083596	-0.812744	-0.027344	0.480225	0.116052	0.010765	-0.044155	0.009843	0.723638	0.037348	0.689098	127.316059	-85.260057	54.914612
52365		12.801417	0.140409	-4.377796	-3.705350	0.561055	3.187919	-0.140592	-0.771332	0.119105	-0.806152	-0.027100	0.484619	0.128181	0.001450	-0.043285	0.010081	0.726327	0.036339	0.686314	131.825826	-85.032566	50.303911
52366		14.572773	-0.482796	-4.623544	-3.775824	1.281826	4.954680	-0.080972	-0.663229	0.167904	-0.803955	-0.024902	0.493408	0.145884	-0.004724	-0.045750	0.009916	0.728653	0.035360	0.683897	135.700885	-84.839674	46.363046
52367		15.699984	-0.168763	-5.294089	-4.286117	0.988485	6.162201	0.033492	-0.312498	0.290501	-0.808350	-0.024902	0.497803	0.157085	-0.001451	-0.052696	0.008852	0.729795	0.034346	0.682745	138.478546	-84.822692	43.589428
52368		16.720828	0.653567	-5.258166	-4.138223	0.161200	7.231661	0.224218	0.183760	0.500652	-0.808838	-0.016113	0.486816	0.167143	0.007013	-0.052728	0.006290	0.729289	0.033235	0.683369	140.373784	-85.089155	41.811666
52369		17.964132	1.751862	-2.235984	-1.101432	-0.878721	8.319849	0.246216	1.024591	0.758515	-0.816162	-0.005127	0.478027	0.179455	0.018228	-0.023257	0.002626	0.725929	0.031287	0.687053	140.063650	-85.818889	42.260404
52370		17.101586	2.292403	2.134127	2.998143	-1.456182	7.250553	-0.211620	1.774147	0.966200	-0.818604	-0.000732	0.460205	0.171083	0.023772	0.019799	-0.000201	0.719975	0.027011	0.693474	135.769863	-86.945106	46.436020
52371		13.561063	1.970697	4.455306	4.921298	-1.357255	3.662048	-0.541361	1.494143	0.978215	-0.830322	0.007813	0.462402	0.135839	0.020490	0.043484	-0.001851	0.714918	0.021555	0.698874	130.101757	-87.940943	51.795193
52372		10.985560	1.769647	4.969343	5.231087	-1.356848	1.109833	-0.616071	0.625020	0.829884	-0.825928	0.008057	0.455811	0.109935	0.018305	0.049294	-0.002621	0.712844	0.016373	0.701126	131.202756	-88.535936	50.336474
52373		10.038605	0.892537	4.736082	4.910995	-0.620870	0.162099	-0.730993	0.171269	0.700179	-0.825928	0.010254	0.449219	0.100394	0.009450	0.047241	-0.002490	0.712324	0.011258	0.701757	140.871636	-88.887369	40.242400
52374		9.349442	-0.598881	3.815172	3.930970	0.749960	-0.522332	-0.646759	0.274170	0.586138	-0.835205	0.014404	0.442627	0.093563	-0.005592	0.038042	-0.002264	0.711423	0.006842	0.702727	152.603741	-89.203728	28.134085
52375		9.075699	-1.103553	3.328609	3.402796	1.176618	-0.773780	-0.360261	0.544465	0.502921	-0.831055	0.021240	0.447021	0.090874	-0.010747	0.033058	-0.002774	0.709547	0.003726	0.704643	169.280778	-89.595239	11.245943
52376		8.910900	-1.029541	3.015182	3.031340	1.049591	-0.909647	-0.030002	0.818139	0.428320	-0.835449	0.021240	0.436035	0.089253	-0.010100	0.029788	-0.004198	0.706692	0.002033	0.707506	-69.162655	-89.812616	-110.332449
52377		9.312365	-1.412718	2.956533	2.901759	1.397202	-0.480796	0.262996	0.641093	0.353833	-0.835449	0.021240	0.436035	0.093243	-0.014001	0.029248	-0.006392	0.704439	0.001645	0.709734	-41.554575	-89.423794	-137.794149
52378		10.964248	-2.459592	2.534566	2.417568	2.401619	1.190761	0.590673	0.001994	0.360356	-0.835938	0.030029	0.436035	0.109687	-0.024473	0.025272	-0.009758	0.704439	0.002415	0.709693	-53.919787	-89.268415	-125.093832
52379		12.660904	-2.907339	1.762754	1.646857	2.789279	2.890299	0.838026	-0.622037	0.369870	-0.831787	0.036865	0.440430	0.126607	-0.028914	0.017900	-0.014021	0.706621	0.004062	0.707441	-84.559481	-89.190293	-93.975183
52380		13.068259	-2.205874	0.773861	0.732180	2.024360	3.287300	0.852024	-0.559087	0.308294	-0.832275	0.045654	0.442627	0.130694	-0.021891	0.008010	-0.018116	0.708563	0.005968	0.705390	-103.659779	-88.982662	-74.388564
52381		11.970246	-1.935385	-0.454442	-0.464296	1.701670	2.192633	0.558763	-0.058151	0.179787	-0.830078	0.047852	0.451416	0.119721	-0.019233	-0.004563	-0.020734	0.708742	0.007253	0.705126	-103.879611	-88.868997	-73.852363
52382		10.363995	-1.810946	-1.293263	-1.326992	1.556955	0.588239	0.409937	0.322011	0.019989	-0.838867	0.043213	0.444824	0.103621	-0.018072	-0.013137	-0.022274	0.707590	0.008536	0.706221	-94.442648	-88.881265	-83.060574
52383		9.202857	-1.145749	-0.955995	-1.005875	0.926057	-0.590448	0.420893	0.436906	-0.100233	-0.834961	0.054443	0.440430	0.092002	-0.011483	-0.009785	-0.023434	0.706015	0.010274	0.707734	-81.193428	-88.924543	-96.074877
52384		8.557432	-0.210189	-0.007819	-0.051068	0.056224	-1.253014	0.394700	0.364904	-0.169119	-0.839111	0.050049	0.438232	0.085572	-0.002174	-0.000239	-0.024253	0.704694	0.012166	0.708992	-68.951019	-88.960537	-108.097594
52385		7.705533	0.667566	0.475474	0.456100	-0.767035	-2.115250	0.332302	0.269488	-0.199747	-0.837158	0.054443	0.433838	0.077068	0.006591	0.004662	-0.024739	0.703708	0.013961	0.709921	-58.466503	-88.991953	-118.397221
52386		7.111111	1.225779	0.524395	0.527214	-1.298204	-2.714652	0.317818	0.158687	-0.180954	-0.836914	0.050049	0.440430	0.071126	0.012185	0.005207	-0.025230	0.703119	0.015648	0.710452	-50.922298	-89.022275	-125.764834
52387		6.800440	1.566486	0.394583	0.414246	-1.630356	-3.028449	0.400501	0.155909	-0.121094	-0.834961	0.054688	0.433838	0.068017	0.015616	0.003924	-0.026227	0.702527	0.017422	0.710960	-44.467131	-89.012108	-131.995318
52388		6.572560	1.688060	0.328588	0.349566	-1.747140	-3.256671	0.429243	0.316699	-0.039677	-0.839600	0.058838	0.436035	0.065734	0.016861	0.003218	-0.027627	0.701368	0.018988	0.712011	-37.174466	-88.889250	-139.047545
52389		6.244632	1.607297	0.399951	0.402598	-1.658079	-3.581521	0.485273	0.480906	0.050676	-0.839600	0.058838	0.427002	0.062452	0.016079	0.003888	-0.029561	0.699613	0.020418	0.713618	-31.112462	-88.644690	-144.836704
52390		5.652238	1.494389	0.768531	0.748949	-1.515903	-4.163557	0.500669	0.632964	0.121391	-0.837646	0.061279	0.416016	0.056537	0.014959	0.007544	-0.031816	0.697316	0.021629	0.715731	-26.783938	-88.294696	-148.884026
52391		4.970804	1.365758	0.969521	0.930379	-1.367552	-4.834907	0.551586	0.670299	0.164124	-0.844482	0.065430	0.413818	0.049729	0.013672	0.009566	-0.034405	0.694864	0.022870	0.717953	-24.224610	-87.908512	-151.132411
52392		4.739723	1.124457	1.385969	1.311147	-1.093336	-5.044483	0.601073	0.537702	0.182135	-0.842529	0.072266	0.409424	0.047424	0.011246	0.013766	-0.037215	0.692875	0.024246	0.719689	-23.318828	-87.586329	-151.698405
52393		5.065390	1.036860	1.404615	1.298067	-1.012044	-4.713964	0.701368	0.250360	0.168096	-0.844971	0.074463	0.407227	0.050663	0.010362	0.014019	-0.040287	0.691883	0.026088	0.720413	-23.768309	-87.417562	-150.850137
52394		5.670279	1.129809	1.091076	0.974063	-1.146702	-4.124520	0.712730	-0.047033	0.137587	-0.847168	0.076416	0.422607	0.056692	0.011298	0.010964	-0.043248	0.691951	0.028133	0.720098	-25.342406	-87.411038	-148.869771
52395		6.632993	0.856071	0.391020	0.231387	-0.968321	-3.187651	0.652286	-0.285761	0.112424	-0.845215	0.081055	0.409424	0.066319	0.008585	0.004033	-0.045876	0.692875	0.030101	0.718967	-28.077456	-87.529268	-145.761836
52396		7.568422	0.742419	-0.370117	-0.541680	-0.962684	-2.279500	0.614293	-0.349105	0.057412	-0.847656	0.085449	0.418213	0.075688	0.007457	-0.003546	-0.048164	0.694023	0.032135	0.717621	-30.931307	-87.688376	-142.557291
52397		8.287857	0.787569	-0.892752	-1.049003	-1.087189	-1.577191	0.514205	-0.269651	0.000270	-0.841309	0.090088	0.420410	0.082890	0.007899	-0.008795	-0.049913	0.694889	0.033991	0.716577	-32.881433	-87.819807	-140.314699
52398		8.848655	0.876268	-1.350167	-1.487655	-1.242783	-1.030214	0.325032	-0.135069	-0.063960	-0.845703	0.087646	0.424805	0.088498	0.008756	-0.013428	-0.050797	0.695310	0.035358	0.716040	-33.183226	-87.905444	-139.830346
52399		9.002319	0.968317	-1.542231	-1.662012	-1.354519	-0.881794	0.143481	-0.033175	-0.145613	-0.843506	0.092285	0.420410	0.090033	0.009629	-0.015400	-0.050775	0.695391	0.036333	0.715914	-31.601702	-87.966474	-141.334509
52400		8.781371	1.079233	-1.689101	-1.786091	-1.464455	-1.106625	-0.032053	-0.020183	-0.180425	-0.845459	0.085449	0.424805	0.087825	0.010710	-0.016884	-0.050020	0.695469	0.036797	0.715868	-29.431462	-88.030050	-143.528393
52401		8.469885	1.165757	-1.632651	-1.708055	-1.520516	-1.414233	-0.195046	-0.114654	-0.164918	-0.850098	0.089844	0.420410	0.084718	0.011572	-0.016289	-0.048737	0.695922	0.036648	0.715524	-28.201440	-88.133819	-144.874795
52402		8.256674	1.188535	-1.497902	-1.556356	-1.506746	-1.619005	-0.283733	-0.217370	-0.119071	-0.843018	0.081055	0.429199	0.082590	0.011815	-0.014906	-0.047291	0.696776	0.036047	0.714820	-28.548592	-88.277222	-144.693988
52403		8.104832	1.353865	-1.158103	-1.183883	-1.615555	-1.759685	-0.355145	-0.201493	-0.071500	-0.849365	0.074219	0.427002	0.081065	0.013489	-0.011523	-0.045768	0.697590	0.035021	0.714175	-29.666926	-88.398650	-143.782627
52404		7.909727	1.545013	-1.029043	-1.020978	-1.778648	-1.951150	-0.433755	-0.166397	-0.033511	-0.847412	0.080811	0.427002	0.079108	0.015415	-0.010258	-0.044113	0.698306	0.033575	0.713649	-31.333012	-88.491753	-142.368333
52405		8.045197	1.782429	-0.935395	-0.896911	-2.000274	-1.814459	-0.388834	-0.206244	-0.015881	-0.840576	0.078857	0.438232	0.080463	0.017800	-0.009306	-0.042670	0.699148	0.032235	0.712974	-34.008022	-88.596413	-139.919192
52406		8.545281	2.153911	-0.736575	-0.656625	-2.352144	-1.313279	-0.295278	-0.255619	-0.003104	-0.845215	0.081055	0.431396	0.085462	0.021527	-0.007288	-0.041593	0.700151	0.031196	0.712100	-38.075531	-88.716569	-136.023492
52407		9.289312	2.049906	-0.896134	-0.817158	-2.273132	-0.568145	-0.267977	-0.339693	0.007076	-0.845215	0.080811	0.438232	0.092907	0.020490	-0.008831	-0.040633	0.701440	0.030235	0.710927	-44.751996	-88.859403	-129.502989
52408		10.114624	1.543644	-1.377426	-1.323493	-1.825612	0.262089	-0.205050	-0.434683	0.004254	-0.840332	0.074219	0.447021	0.101176	0.015425	-0.013570	-0.039871	0.703055	0.029528	0.709403	-55.647073	-89.016694	-118.727150
52409		10.962532	0.941531	-1.702420	-1.664816	-1.264320	1.123100	-0.056445	-0.510790	-0.021821	-0.838379	0.081055	0.447021	0.109669	0.009399	-0.016747	-0.039526	0.704897	0.029453	0.707595	-72.205955	-89.155044	-102.202419
52410		11.534068	0.029423	-2.131609	-2.117059	-0.396609	1.717257	0.015145	-0.654815	-0.053915	-0.833740	0.074463	0.458008	0.115410	0.000265	-0.020938	-0.039299	0.707228	0.029776	0.705264	-98.855898	-89.212106	-75.544700
52411		11.722592	-0.942025	-2.658133	-2.653624	0.531907	1.936649	0.017453	-0.755339	-0.102689	-0.835938	0.074463	0.460205	0.117320	-0.009478	-0.026139	-0.038892	0.709892	0.030295	0.702583	-127.568647	-89.085686	-46.822803
52412		11.455668	-1.743301	-3.310086	-3.293789	1.292199	1.707230	-0.056913	-0.799773	-0.158106	-0.829102	0.074463	0.469238	0.114674	-0.017533	-0.032637	-0.038020	0.712713	0.030762	0.699749	-147.967959	-88.796140	-26.456277
52413		10.930058	-1.715315	-3.669806	-3.574814	1.263380	1.210013	-0.086600	-0.700160	-0.187162	-0.833496	0.072021	0.478027	0.109412	-0.017271	-0.036308	-0.036954	0.715169	0.031205	0.697276	-159.425671	-88.477101	-15.048892
