// General information: 
//  MT Manager version: 2019.2.0 
//  XDA version: 2019.2.0 build 3853 rev 94535 built on 2019-09-09
// Device information: 
//  DeviceId: 00B40ACF
//  ProductCode: MTW2-3A7G6
//  Firmware Version: 4.3.5
//  Hardware Version: 1.1.0
// Device settings: 
//  Filter Profile: human(46.1)
//  Option Flags: Orientation Smoother Disabled, AHS Disabled, ICC Disabled
// Coordinate system: ENU
PacketCounter	SampleTimeFine	Acc_X	Acc_Y	Acc_Z	FreeAcc_E	FreeAcc_N	FreeAcc_U	Gyr_X	Gyr_Y	Gyr_Z	Mag_X	Mag_Y	Mag_Z	VelInc_X	VelInc_Y	VelInc_Z	Quat_q0	Quat_q1	Quat_q2	Quat_q3	Roll	Pitch	Yaw
56808		4.006896	5.973978	0.500461	3.941004	5.988634	-10.581280	-0.574469	0.155011	-4.314531	-0.478271	0.889404	-0.660889	0.041349	0.058871	0.004803	0.697926	-0.441001	-0.564229	0.007925	-92.354041	-51.314637	54.477399
56809		5.641339	5.561662	-0.139756	4.866869	6.149702	-8.690620	-0.763671	0.148647	-4.744934	-0.522705	0.872803	-0.649902	0.057710	0.054252	-0.001649	0.696608	-0.430232	-0.574033	-0.011123	-92.852231	-54.029836	54.543009
56810		6.608876	4.270619	-0.607463	4.871293	5.406295	-6.761026	-0.905948	0.075034	-5.175213	-0.552734	0.834473	-0.638916	0.067161	0.040949	-0.006288	0.694314	-0.418482	-0.584626	-0.031845	-93.559078	-56.980001	54.763805
56811		6.715739	3.199193	-1.181547	4.679717	4.229852	-5.698711	-1.061720	-0.002971	-5.690650	-0.587646	0.807129	-0.632080	0.068030	0.030001	-0.011977	0.690849	-0.405433	-0.596121	-0.054695	-94.559471	-60.228147	55.212636
56812		6.959492	2.496468	-1.451474	4.403737	3.462210	-4.775312	-1.168173	0.007833	-6.180308	-0.626465	0.766357	-0.618896	0.070319	0.022714	-0.014655	0.686446	-0.390949	-0.607978	-0.079453	-95.832400	-63.742254	55.889431
56813		8.686823	2.539489	-1.688140	4.800393	3.657233	-2.862229	-1.264040	0.035943	-6.581435	-0.663330	0.732422	-0.614502	0.087636	0.022412	-0.017045	0.681049	-0.375124	-0.619867	-0.105925	-97.488922	-67.486361	56.902418
56814		10.897617	3.111727	-1.509409	5.130780	4.439770	-0.613261	-1.205534	0.095060	-6.895090	-0.692871	0.682861	-0.598877	0.109953	0.027245	-0.015318	0.674994	-0.357688	-0.631428	-0.133195	-99.610832	-71.388536	58.423799
56815		13.061043	3.081034	-1.370890	4.898985	4.512509	1.914238	-1.162447	0.133083	-7.149566	-0.724609	0.631348	-0.594238	0.131589	0.026037	-0.013957	0.668097	-0.338795	-0.642566	-0.161164	-102.700521	-75.419593	60.941357
56816		15.511317	2.033163	-1.222826	3.780953	3.652309	4.968454	-1.106168	0.124843	-7.351382	-0.759277	0.595215	-0.587646	0.155711	0.014546	-0.012416	0.660228	-0.318650	-0.653238	-0.189318	-108.049903	-79.490426	65.763054
56817		18.055425	1.100503	-1.743665	2.932540	2.132430	7.990303	-0.982919	0.112226	-7.477214	-0.786133	0.536865	-0.582764	0.180785	0.004162	-0.017570	0.651448	-0.297220	-0.663374	-0.217279	-119.855648	-83.447299	77.114145
56818		20.643033	0.336139	-2.352039	1.951915	0.369072	10.866404	-0.922507	0.089546	-7.563741	-0.802002	0.483398	-0.578125	0.206347	-0.004553	-0.023604	0.641682	-0.274941	-0.672812	-0.244899	-157.596757	-86.493993	114.442388
56819		23.415892	-1.791130	-3.185768	-0.119986	-2.838121	13.710042	-1.126694	0.004483	-7.556734	-0.824463	0.425293	-0.571289	0.233254	-0.026916	-0.031728	0.630574	-0.252546	-0.681408	-0.272543	136.714312	-85.572657	179.660582
56820		26.400617	-3.403886	-3.456674	-2.583010	-5.543503	16.317412	-1.281937	-0.013542	-7.457049	-0.829102	0.371826	-0.568848	0.262490	-0.044067	-0.034288	0.618302	-0.231138	-0.688608	-0.300161	113.404296	-82.010201	-157.650840
56821		28.989968	-4.740425	-2.762886	-5.775457	-7.572691	18.105517	-1.420927	-0.128628	-7.280488	-0.842773	0.316162	-0.562012	0.287932	-0.058105	-0.027056	0.605034	-0.210129	-0.694874	-0.327001	105.098814	-78.033697	-150.000183
56822		32.354241	-9.474807	-0.639051	-12.653856	-11.092402	19.399500	-1.274589	-0.222925	-6.953666	-0.847900	0.273682	-0.555176	0.319994	-0.105953	-0.005381	0.591186	-0.190177	-0.700313	-0.351985	101.224375	-74.135263	-146.768982
56823		30.931384	-12.075438	-1.727438	-14.774082	-14.632276	16.125433	-0.996549	-0.393612	-6.414021	-0.857422	0.231445	-0.546143	0.305261	-0.130671	-0.016036	0.577454	-0.170896	-0.705484	-0.373675	99.267518	-70.473809	-145.267263
56824		24.853378	-15.294823	-5.886265	-13.593175	-19.386321	8.226427	-1.284131	-0.858677	-5.710611	-0.857910	0.187012	-0.539307	0.244272	-0.160333	-0.056794	0.562424	-0.156108	-0.710114	-0.393761	98.489515	-67.177200	-145.228222
56825		19.358240	-18.463951	-7.427551	-13.773582	-21.640395	0.801326	-1.349070	-1.215002	-4.646449	-0.865723	0.157959	-0.521484	0.189658	-0.189567	-0.071848	0.547870	-0.145562	-0.714283	-0.410427	98.367080	-64.442588	-145.914835
56826		16.475449	-22.235440	-6.814073	-16.250022	-22.796442	-4.478907	-1.298594	-1.331529	-3.474179	-0.864990	0.137939	-0.510498	0.161297	-0.225608	-0.065601	0.534955	-0.139532	-0.717634	-0.423503	98.549407	-62.373471	-146.956999
56827		13.528335	-24.691714	-6.658911	-17.214231	-23.239195	-9.040424	-1.031243	-1.070863	-2.482769	-0.864502	0.122314	-0.503662	0.132551	-0.248910	-0.064594	0.525137	-0.135635	-0.719960	-0.433002	98.684977	-60.881670	-147.777457
56828		13.229665	-25.265826	-7.022017	-17.480014	-23.601888	-10.090357	-0.616874	-0.776149	-1.414798	-0.864258	0.117920	-0.497070	0.130773	-0.253801	-0.068929	0.518866	-0.133953	-0.721573	-0.438370	98.891159	-60.024658	-148.427194
56829		14.714032	-24.743690	-7.575223	-17.510047	-24.048216	-8.708839	0.321864	-0.439721	-0.228652	-0.862305	0.122314	-0.490479	0.147024	-0.247483	-0.075827	0.517037	-0.133308	-0.723557	-0.437455	99.471028	-59.864907	-148.882758
56830		15.008961	-22.440599	-4.652857	-17.933756	-20.570599	-7.420768	0.858452	-0.266451	0.879502	-0.858398	0.137939	-0.495117	0.151137	-0.223541	-0.047288	0.518582	-0.134967	-0.725499	-0.431865	100.378649	-60.346919	-149.368810
56831		14.025476	-19.922821	-2.756210	-16.987453	-17.431641	-6.850231	0.814521	-0.210600	1.736828	-0.854492	0.155762	-0.495117	0.142007	-0.197886	-0.028221	0.522144	-0.139673	-0.726587	-0.424179	101.399570	-61.313493	-150.001791
56832		13.576296	-16.417411	-1.814150	-15.051072	-14.467808	-5.201448	0.438156	-0.304279	2.395941	-0.845947	0.162598	-0.490723	0.137744	-0.162492	-0.018290	0.526407	-0.147985	-0.726559	-0.416062	102.509848	-62.632185	-150.981468
56833		14.474237	-11.986603	-1.973923	-12.327247	-11.934153	-1.896321	0.153128	-0.479176	2.837759	-0.844727	0.189209	-0.488770	0.146470	-0.117781	-0.019480	0.530693	-0.158929	-0.725955	-0.407549	103.880337	-64.166100	-152.410613
56834		16.017261	1.338032	-0.761386	-4.696719	-2.800615	5.320147	0.480836	-0.708961	2.721535	-0.847656	0.208984	-0.482178	0.159996	0.015576	-0.007011	0.534012	-0.169076	-0.726554	-0.397950	105.853416	-65.580651	-154.291643
56835		8.127414	26.490696	-3.079063	16.866638	12.873254	8.272264	-0.431276	-0.970088	2.003723	-0.841309	0.215820	-0.482178	0.078765	0.265638	-0.030977	0.534153	-0.179460	-0.726540	-0.393211	107.558980	-66.534181	-156.418914
56836		16.365671	23.223593	11.819038	2.601915	20.976013	12.549607	-1.438170	-0.203266	1.130286	-0.839355	0.222412	-0.480225	0.162219	0.233998	0.116677	0.534339	-0.187915	-0.723184	-0.395189	107.459440	-67.127931	-157.213057
56837		17.977927	-9.229527	9.930770	-18.878449	-0.477049	2.448210	-2.330098	0.484873	2.911451	-0.833496	0.249268	-0.480225	0.181328	-0.088501	0.099915	0.539626	-0.203715	-0.714412	-0.396130	106.688247	-68.816252	-157.814679
56838		19.712928	-10.936023	4.967397	-17.312276	-5.043137	4.596987	-2.284289	-0.068011	3.865887	-0.827881	0.275879	-0.478271	0.199169	-0.104946	0.050957	0.544591	-0.223884	-0.705924	-0.393659	107.257825	-70.934892	-159.820995
56839		15.037745	-3.688073	2.645800	-8.775174	-1.578294	3.118588	-1.209842	-0.287086	3.181347	-0.819580	0.296143	-0.482666	0.150899	-0.034321	0.026887	0.548509	-0.238920	-0.700658	-0.388758	108.759987	-72.630474	-162.116883
56840		12.531215	-8.829115	-7.830842	-5.690168	-12.480381	0.586870	-0.633644	-0.812090	2.825093	-0.817871	0.309326	-0.469727	0.126861	-0.086753	-0.077519	0.550349	-0.252219	-0.698167	-0.382183	111.741254	-73.999500	-165.613756
56841		15.033140	-8.862647	-3.155409	-8.966591	-8.558283	2.869219	-0.441870	-0.911020	2.866428	-0.816650	0.333740	-0.465332	0.151723	-0.086527	-0.030672	0.552179	-0.265029	-0.696160	-0.374458	115.639726	-75.306144	-169.889129
56842		13.971192	-1.080474	0.616097	-4.565890	-0.574362	3.436784	-0.126174	-0.937770	2.923231	-0.808350	0.351563	-0.463379	0.139819	-0.008757	0.006822	0.554166	-0.277390	-0.694522	-0.365506	120.637418	-76.540722	-175.121359
56843		12.456094	-7.314338	-0.224051	-8.468608	-4.531966	0.977833	-0.061730	-0.950926	2.555106	-0.807129	0.373779	-0.454590	0.125490	-0.071545	-0.001623	0.555602	-0.287902	-0.693500	-0.357038	126.064601	-77.475767	179.318671
56844		9.331452	-2.863626	-2.011327	-3.121463	-3.181542	-0.899120	0.196498	-0.994560	2.058504	-0.804932	0.378174	-0.450195	0.093701	-0.027654	-0.019675	0.556082	-0.296363	-0.693569	-0.349148	131.678028	-78.045113	173.684407
56845		10.440548	-2.566179	-2.778034	-2.574621	-3.438192	0.427151	0.406439	-0.655322	1.725106	-0.801025	0.391602	-0.446045	0.104712	-0.024703	-0.027488	0.557658	-0.301973	-0.693621	-0.341642	136.514951	-78.504478	169.045528
56846		10.487847	0.158367	0.350399	-2.068999	0.849585	0.440961	0.381249	-0.553468	1.712752	-0.799072	0.400391	-0.439453	0.104850	0.002475	0.003798	0.559221	-0.307895	-0.693164	-0.334659	141.539328	-78.914991	164.139165
56847		8.084676	0.348401	-1.051047	-0.580053	-0.168858	-1.675012	0.166588	-0.474371	1.469174	-0.799561	0.409424	-0.446045	0.080843	0.004087	-0.010315	0.560298	-0.313436	-0.692446	-0.329156	146.061018	-79.200779	159.628053
56848		8.538429	-2.065215	-2.269187	-1.834954	-2.447985	-1.271113	0.055118	-0.268638	1.128708	-0.795410	0.420654	-0.446045	0.085529	-0.020164	-0.022583	0.561305	-0.317739	-0.691471	-0.325340	149.485247	-79.419839	156.169807
56849		10.624109	-2.587162	-3.327639	-1.931962	-3.378180	0.934066	0.042357	-0.068000	0.974524	-0.795654	0.427246	-0.439453	0.106377	-0.025346	-0.033246	0.562737	-0.321226	-0.690133	-0.322268	152.345563	-79.662875	153.282872
56850		10.753968	-0.990456	-2.929932	-0.817875	-2.048202	1.157664	0.099288	-0.021130	0.805476	-0.800537	0.436035	-0.441895	0.107581	-0.009457	-0.029293	0.564119	-0.323869	-0.689016	-0.319587	154.784547	-79.860574	150.856531
56851		10.538590	0.102140	-1.767481	-0.504287	-0.439315	0.852613	0.094235	-0.042963	0.599429	-0.802979	0.438232	-0.448486	0.105386	0.001346	-0.017652	0.565098	-0.325866	-0.688273	-0.317420	156.753810	-79.983119	148.908305
56852		10.719099	0.339451	-1.019700	-0.720762	0.361477	0.929922	-0.007896	-0.102502	0.523496	-0.800781	0.444824	-0.444092	0.107187	0.003675	-0.010142	0.565563	-0.327963	-0.687657	-0.315763	158.518593	-80.045079	147.106073
56853		10.389928	0.713934	-1.023967	-0.333946	0.590109	0.629960	-0.126838	-0.196092	0.431894	-0.794434	0.451660	-0.439697	0.103894	0.007357	-0.010142	0.565379	-0.330246	-0.687260	-0.314576	160.087766	-80.030331	145.436070
56854		10.522719	0.401022	-0.029065	-1.151711	1.267111	0.577552	-0.253158	-0.286818	0.363428	-0.803467	0.451416	-0.437500	0.105220	0.004201	-0.000145	0.564546	-0.332771	-0.687032	-0.313907	161.430381	-79.945231	143.919690
56855		9.927959	0.957554	-0.322441	-0.441347	1.342107	0.066028	-0.478581	-0.463344	0.276533	-0.799072	0.453613	-0.435303	0.099273	0.009705	-0.003018	0.562606	-0.335926	-0.687082	-0.313920	162.551024	-79.743812	142.499515
56856		10.115850	1.540199	-1.630706	0.736593	0.686170	0.499843	-0.725304	-0.512001	0.247533	-0.792480	0.456055	-0.428711	0.101181	0.015469	-0.016104	0.560012	-0.339728	-0.686922	-0.314815	163.410120	-79.505744	141.197947
56857		9.437253	1.780925	-2.609816	1.560330	-0.009950	0.016337	-0.551085	-0.509489	0.196248	-0.792480	0.458252	-0.428711	0.094421	0.017830	-0.025907	0.557648	-0.342873	-0.687100	-0.315215	164.194762	-79.258237	140.075164
56858		9.208068	0.495448	-2.200776	0.295551	-0.392791	-0.345079	-0.444389	-0.457051	0.234782	-0.787842	0.453857	-0.422119	0.092125	0.005014	-0.021808	0.555683	-0.345748	-0.687228	-0.315266	165.041206	-79.041991	138.948337
56859		8.912554	1.536634	-2.312151	1.249523	0.103992	-0.562354	-0.371571	-0.429143	0.242407	-0.790039	0.451660	-0.428711	0.089156	0.015432	-0.022959	0.553961	-0.348415	-0.687369	-0.315052	165.917022	-78.839597	137.835746
56860		8.907953	1.799817	-2.631801	1.637021	0.024537	-0.494061	-0.323564	-0.405452	0.281096	-0.789551	0.438477	-0.437500	0.089107	0.018081	-0.026167	0.552445	-0.351025	-0.687450	-0.314641	166.852569	-78.651895	136.687100
56861		9.092302	1.795811	-3.163814	1.896113	-0.349212	-0.211267	-0.207606	-0.393213	0.366936	-0.807617	0.447021	-0.455078	0.090952	0.018092	-0.031478	0.551317	-0.353603	-0.687520	-0.313578	168.071285	-78.477690	135.318984
56862		9.274185	1.676819	-3.357032	1.884899	-0.502052	-0.000104	0.005696	-0.347616	0.402059	-0.812744	0.460205	-0.463867	0.092766	0.016956	-0.033409	0.550761	-0.355624	-0.687733	-0.311798	169.422338	-78.326933	133.937366
56863		10.020472	0.996116	-3.420149	1.269852	-0.768558	0.718030	0.355931	-0.252835	0.412710	-0.817871	0.479980	-0.453125	0.100227	0.010229	-0.034057	0.551177	-0.356580	-0.688204	-0.308916	170.945881	-78.223633	132.586203
56864		10.309905	2.043977	-2.612363	1.697405	0.578105	0.868164	0.716550	-0.223446	0.419453	-0.811523	0.489014	-0.435547	0.103085	0.020749	-0.025934	0.552328	-0.356501	-0.689132	-0.304857	172.636165	-78.130181	131.272990
56865		10.996821	0.937946	-2.369792	0.597230	0.329647	1.454958	0.997440	-0.177765	0.467487	-0.805176	0.495850	-0.437744	0.109967	0.009754	-0.023552	0.554207	-0.355747	-0.690257	-0.299739	174.599017	-78.056825	129.847515
56866		11.609816	-0.594704	-1.389736	-1.231105	0.415589	1.822770	1.182598	-0.191404	0.607158	-0.800537	0.493652	-0.431152	0.116129	-0.005513	-0.013820	0.556546	-0.354955	-0.691425	-0.293591	177.003371	-77.970966	128.076512
56867		11.636920	-0.056635	-0.955158	-0.970975	1.152076	1.765846	1.280845	-0.227224	0.777064	-0.796387	0.502441	-0.431396	0.116381	-0.000054	-0.009421	0.559166	-0.354525	-0.692496	-0.286521	179.904019	-77.849638	125.856996
56868		11.138802	0.688837	-0.346876	-0.583612	2.072676	1.143138	1.231444	-0.253852	0.911322	-0.789795	0.502686	-0.431152	0.111359	0.007416	-0.003283	0.561756	-0.354701	-0.693295	-0.279214	-176.947410	-77.687526	123.351516
56869		10.463657	1.674514	-0.392242	0.381506	2.598209	0.460994	1.074841	-0.285553	1.009572	-0.790039	0.509277	-0.433594	0.104556	0.017293	-0.003681	0.564072	-0.355693	-0.693745	-0.272071	-173.706294	-77.472574	120.659631
56870		10.261167	1.668195	-0.971864	0.809794	2.209456	0.359826	0.875383	-0.288647	1.115862	-0.792725	0.520264	-0.427002	0.102530	0.017296	-0.009496	0.566126	-0.357589	-0.693708	-0.265330	-170.437683	-77.215915	117.817951
56871		10.657710	1.761370	-1.303185	1.125246	2.200225	0.783462	0.753560	-0.274293	1.271169	-0.788818	0.535889	-0.433594	0.106480	0.018339	-0.012818	0.568197	-0.360341	-0.693149	-0.258554	-166.969073	-76.912743	114.698174
56872		11.071138	1.618827	-1.398880	1.133637	2.249254	1.178253	0.586868	-0.268593	1.441615	-0.775391	0.540527	-0.431396	0.110609	0.017026	-0.013791	0.570162	-0.364116	-0.692014	-0.251895	-163.370740	-76.546391	111.340890
56873		10.959676	1.866316	-1.985896	1.812174	2.062138	1.141858	0.403572	-0.317324	1.591345	-0.778320	0.556152	-0.427246	0.109475	0.019574	-0.019646	0.571786	-0.368979	-0.690462	-0.245312	-159.770730	-76.077541	107.869648
56874		11.261383	2.207725	-2.394238	2.437685	2.173407	1.445886	0.294785	-0.336355	1.742774	-0.770020	0.573975	-0.427246	0.112456	0.023093	-0.023720	0.573274	-0.374661	-0.688503	-0.238643	-156.192716	-75.516860	104.347354
56875		11.561456	0.888492	-3.088494	1.949033	1.077645	1.978456	0.202532	-0.282037	1.902341	-0.770508	0.584961	-0.422852	0.115566	0.010015	-0.030712	0.575043	-0.380735	-0.686052	-0.231731	-152.590309	-74.900444	100.782103
56876		11.850090	0.406641	-3.005159	1.676686	1.093724	2.254122	0.288415	-0.228984	2.091759	-0.751221	0.609863	-0.414307	0.118484	0.005349	-0.029909	0.577187	-0.387434	-0.682984	-0.224239	-148.846207	-74.190767	97.063330
56877		11.965442	0.432757	-2.371111	1.499175	1.799571	2.165989	0.421508	-0.193844	2.258475	-0.742920	0.623291	-0.416504	0.119618	0.005728	-0.023584	0.579933	-0.393945	-0.679680	-0.215687	-145.056041	-73.390327	93.403555
56878		12.487441	0.546216	-1.310184	1.140225	3.003300	2.337352	0.547704	-0.147296	2.378483	-0.734619	0.643311	-0.418701	0.124807	0.006982	-0.012992	0.583019	-0.400678	-0.675922	-0.206582	-141.328424	-72.495980	89.827023
56879		13.146197	0.774654	-1.127519	1.444858	3.671968	2.801335	0.638905	-0.049688	2.489359	-0.717529	0.663818	-0.421143	0.131354	0.009418	-0.011214	0.586735	-0.407097	-0.671760	-0.196857	-137.655893	-71.544491	86.382961
56880		13.716253	1.386062	-1.254043	2.280618	4.323630	3.138112	0.754158	0.074788	2.587532	-0.704834	0.686279	-0.425537	0.136963	0.015681	-0.012535	0.590998	-0.413572	-0.666914	-0.186826	-134.025862	-70.531119	82.995845
56881		14.026436	2.398413	-1.619632	3.591563	4.960080	3.133433	0.848209	0.104278	2.649778	-0.689941	0.710938	-0.429932	0.139921	0.025908	-0.016162	0.595580	-0.419646	-0.661921	-0.176187	-130.595262	-69.443576	79.889949
56882		14.459367	2.453965	-1.350880	3.785785	5.552996	3.292202	0.906586	0.128376	2.715629	-0.684082	0.728760	-0.434570	0.144234	0.026561	-0.013484	0.600220	-0.425883	-0.656531	-0.165308	-127.387079	-68.268528	77.001357
56883		14.820322	1.894333	-0.680508	3.267336	6.064662	3.462204	1.048495	0.195843	2.807372	-0.662354	0.749268	-0.441162	0.147911	0.021057	-0.006843	0.605393	-0.431656	-0.650811	-0.153680	-124.263081	-67.023716	74.296162
56884		15.319005	2.445902	-0.513087	3.955779	6.914891	3.507824	1.203435	0.326776	2.925304	-0.643066	0.773926	-0.449951	0.152802	0.026727	-0.005224	0.611203	-0.437331	-0.644311	-0.141550	-121.139760	-65.701939	71.633639
56885		15.912263	3.534400	-0.610029	5.251359	7.926848	3.439907	1.328133	0.496575	3.040778	-0.621582	0.798828	-0.458984	0.158545	0.037799	-0.006249	0.617803	-0.442593	-0.637037	-0.128900	-117.994807	-64.319819	69.022854
56886		16.361139	5.579756	-0.644566	7.185755	9.477791	2.747048	1.511630	0.616625	3.136376	-0.610840	0.814697	-0.469971	0.162689	0.058403	-0.006513	0.625012	-0.447549	-0.629027	-0.115694	-114.880035	-62.855124	66.506184
56887		17.021090	5.740514	-0.146044	7.438430	10.415299	2.791109	1.726014	0.746176	3.204577	-0.584717	0.839600	-0.483154	0.169256	0.060136	-0.001582	0.632982	-0.451688	-0.620447	-0.101775	-111.772536	-61.330768	64.123990
56888		16.680833	7.335988	0.296533	8.492154	11.711557	1.271002	2.249675	0.806689	3.294832	-0.556396	0.860352	-0.502930	0.165583	0.076060	0.003141	0.642083	-0.454386	-0.611430	-0.086119	-108.567178	-59.705013	61.916503
56889		15.758894	8.998687	-0.173467	9.955032	12.170463	-0.752145	2.597559	0.700439	3.371934	-0.538818	0.874023	-0.531494	0.156037	0.092643	-0.001091	0.651404	-0.456044	-0.602455	-0.068884	-105.510948	-57.963613	60.077758
56890		15.154609	6.426404	-0.247723	8.407700	10.624391	-0.462564	2.528997	0.515909	3.587940	-0.508057	0.890381	-0.549072	0.150355	0.066996	-0.002030	0.659770	-0.458425	-0.593280	-0.050687	-102.850167	-56.029889	58.626546
56891		16.950220	0.832318	-1.476018	6.752254	7.758090	3.765178	2.347262	0.426250	3.967838	-0.477295	0.913086	-0.566650	0.169259	0.011858	-0.014996	0.667215	-0.462310	-0.583179	-0.031565	-100.513371	-53.842338	57.407719
56892		19.765342	2.283488	-3.095779	10.198247	9.316450	4.836318	2.252761	0.595353	4.335830	-0.446289	0.925049	-0.586426	0.196999	0.027462	-0.031253	0.674605	-0.467300	-0.571313	-0.011844	-98.257531	-51.433970	56.186946
56893		22.101551	4.749017	-3.194929	12.978243	12.258118	4.415798	1.840099	0.826394	4.381401	-0.413330	0.943359	-0.597412	0.219767	0.052611	-0.032391	0.681296	-0.473508	-0.558200	0.006293	-96.264182	-48.993779	54.957316
56894		20.928575	5.447134	-5.160489	14.883649	11.120727	2.395327	1.064085	0.541050	4.187029	-0.382080	0.948486	-0.608154	0.207941	0.059110	-0.051862	0.684992	-0.481567	-0.546243	0.022302	-95.060298	-46.624185	54.148029
56895		18.107753	6.063947	-5.436879	14.597697	9.985394	-0.791790	-0.172265	-0.036972	3.871529	-0.353271	0.960205	-0.599365	0.179869	0.064082	-0.054390	0.683881	-0.492714	-0.536937	0.035198	-94.989615	-44.404260	53.901401
56896		13.405322	4.173464	-6.628013	12.808971	5.747635	-3.184749	-0.253742	-0.398222	3.309550	-0.331299	0.971680	-0.605957	0.133471	0.043863	-0.066069	0.681466	-0.502418	-0.530079	0.046870	-95.198083	-42.482421	53.984931
56897		10.207796	3.207726	-6.161633	10.706074	3.819946	-4.992458	0.938516	-0.225057	2.308530	-0.320068	0.971924	-0.621338	0.101766	0.033541	-0.061347	0.682594	-0.505322	-0.524762	0.057800	-94.680766	-41.146209	54.005064
56898		13.006993	4.853363	-0.825781	8.602708	9.806634	-4.992535	0.843744	-0.208017	2.190630	-0.306641	0.974365	-0.621338	0.129536	0.049988	-0.007914	0.683454	-0.508184	-0.519621	0.068074	-94.222843	-39.872793	54.035700
56899		7.732888	-2.246627	-7.253004	8.209670	-0.724092	-2.775288	0.992823	-0.398790	1.387591	-0.297607	0.979248	-0.647705	0.077625	-0.021568	-0.072484	0.684401	-0.508313	-0.517082	0.076416	-93.803620	-39.057179	54.259620
56900		9.652686	-3.821788	-7.026807	8.410294	-0.016369	-0.516788	2.920138	0.286756	1.028858	-0.288574	0.977295	-0.673828	0.096617	-0.036688	-0.070950	0.692042	-0.501118	-0.512272	0.086811	-91.982282	-38.463990	54.013914
56901		7.724351	11.618457	-1.846245	9.485967	9.484778	-14.068381	2.648115	0.210414	-0.046142	-0.290771	0.977295	-0.691406	0.077252	0.116398	-0.017003	0.699130	-0.491957	-0.510455	0.092909	-90.378513	-38.486707	53.862582
56902		4.279775	17.982930	-1.533870	9.874656	10.906131	-21.108326	1.092050	-0.509881	-1.552211	-0.319580	0.968018	-0.695801	0.044229	0.179570	-0.014246	0.701155	-0.484006	-0.515491	0.091585	-89.999023	-39.362450	54.245505
56903		2.005147	10.652722	-1.256462	5.900086	6.092583	-16.678792	0.410566	-0.652070	-2.311016	-0.333008	0.965576	-0.693848	0.021321	0.106311	-0.012278	0.701429	-0.476347	-0.523139	0.086115	-90.087778	-40.681116	54.736856
56904		0.408563	5.827424	-0.353985	2.695086	3.186954	-13.915036	0.046768	-0.400689	-2.401885	-0.350586	0.956299	-0.698242	0.004792	0.058220	-0.003517	0.701430	-0.469783	-0.530176	0.078826	-90.275086	-42.043925	55.052321
56905		1.334203	3.878119	0.487327	1.687268	3.231132	-11.754175	-0.150261	-0.320594	-2.608856	-0.372803	0.947021	-0.689453	0.013839	0.038606	0.004866	0.701150	-0.463299	-0.537438	0.070023	-90.550997	-43.532486	55.319614
56906		2.533707	3.650816	0.654409	1.976905	3.944211	-10.655320	-0.280423	-0.312770	-2.973511	-0.398926	0.928711	-0.691650	0.025866	0.036135	0.006533	0.700579	-0.456223	-0.545431	0.059625	-90.916662	-45.221083	55.604636
56907		3.118965	4.049317	0.934998	2.161147	4.691333	-10.376219	-0.439843	-0.315488	-3.414221	-0.425537	0.921631	-0.687256	0.031860	0.039974	0.009312	0.699585	-0.448364	-0.554370	0.047173	-91.408598	-47.168516	55.925437
56908		3.785596	5.360118	1.023212	2.933320	5.909527	-10.571894	-0.673940	-0.322911	-3.928670	-0.462891	0.896484	-0.678467	0.038883	0.052878	0.010115	0.697926	-0.439761	-0.564326	0.032339	-92.087721	-49.400079	56.310261
56909		5.041492	6.379025	0.941326	3.945442	7.168699	-9.978610	-0.846275	-0.327226	-4.409602	-0.491699	0.882568	-0.665283	0.051790	0.062698	0.009230	0.695636	-0.430182	-0.575153	0.015267	-92.946932	-51.911487	56.783067
56910		6.361316	6.163204	0.630381	4.549539	7.495035	-8.412744	-1.020269	-0.310134	-4.849262	-0.533203	0.854980	-0.656494	0.065073	0.060097	0.006095	0.692670	-0.419728	-0.586534	-0.003810	-94.003852	-54.661264	57.364970
56911		7.340524	5.117250	0.440806	4.439157	7.075445	-6.575761	-1.112363	-0.257833	-5.245768	-0.559326	0.832275	-0.638916	0.074708	0.049248	0.004226	0.689191	-0.408125	-0.598197	-0.024711	-95.232572	-57.641251	58.066019
56912		8.114110	3.684722	0.330042	3.873969	6.220378	-4.732972	-1.125836	-0.219100	-5.619727	-0.593750	0.791504	-0.638672	0.082130	0.034567	0.003191	0.685230	-0.395159	-0.610006	-0.046926	-96.655975	-60.818014	58.964795
56913		8.939760	2.363199	0.099780	3.331085	5.250225	-2.969620	-1.085020	-0.184632	-5.983612	-0.633057	0.761963	-0.629883	0.090050	0.020949	0.000962	0.680765	-0.380562	-0.621916	-0.070369	-98.351397	-64.199733	60.164195
56914		10.059038	1.813752	0.177143	2.901520	4.970989	-1.366310	-0.917502	-0.110612	-6.309009	-0.665283	0.723633	-0.616455	0.101095	0.014961	0.001754	0.676086	-0.364020	-0.633631	-0.094392	-100.342300	-67.743624	61.761293
56915		11.183958	2.158477	0.518209	2.665518	5.348762	-0.104561	-0.850442	-0.038363	-6.596557	-0.694824	0.676270	-0.612061	0.112470	0.017904	0.005122	0.670893	-0.345891	-0.645006	-0.119287	-102.951511	-71.438164	64.013929
56916		13.062280	2.885265	0.916075	2.608234	6.105962	1.833449	-0.887680	0.063009	-6.855535	-0.724609	0.633545	-0.600830	0.131513	0.024394	0.009005	0.665055	-0.326627	-0.655709	-0.145129	-106.708138	-75.233145	67.396331
56917		15.083289	3.071100	1.154847	2.187234	6.168117	4.163884	-1.044917	0.144810	-7.066076	-0.758545	0.579590	-0.596191	0.151802	0.025418	0.011297	0.658238	-0.306700	-0.665580	-0.172223	-113.013770	-79.070684	73.236141
56918		17.350455	2.408332	0.649025	1.610804	4.894829	6.937632	-1.192112	0.246809	-7.225626	-0.781494	0.534912	-0.589355	0.174232	0.017834	0.006157	0.650559	-0.286275	-0.674350	-0.200181	-125.608589	-82.757623	85.285989
56919		19.863885	1.772422	-0.085755	0.979710	3.201982	9.842627	-1.208018	0.392025	-7.324917	-0.797119	0.476807	-0.589111	0.199108	0.010430	-0.001325	0.642340	-0.264996	-0.681871	-0.228535	-157.754189	-85.641379	116.873536
56920		22.200832	1.049906	-0.971793	0.159215	1.005640	12.405743	-1.269380	0.471212	-7.374536	-0.817871	0.427490	-0.586670	0.222169	0.002244	-0.010273	0.633386	-0.243324	-0.688176	-0.256962	145.288264	-85.423772	173.242779
56921		24.376398	-0.864902	-2.035085	-1.554728	-2.488220	14.481543	-1.601806	0.411418	-7.377253	-0.829102	0.371826	-0.577637	0.243178	-0.017793	-0.020733	0.623033	-0.222030	-0.693344	-0.286018	116.591671	-82.290929	-158.799236
56922		27.155028	-3.858001	-2.681847	-4.627416	-6.701753	16.508419	-1.890258	0.321289	-7.230040	-0.840576	0.318359	-0.572998	0.269870	-0.048611	-0.026825	0.611282	-0.202359	-0.697160	-0.315204	105.690515	-78.490246	-148.853721
56923		31.493357	-8.533198	-1.883259	-10.404522	-11.432296	18.976327	-1.851812	0.334602	-6.891528	-0.845459	0.269531	-0.565918	0.311710	-0.096284	-0.018498	0.599453	-0.183074	-0.699766	-0.342736	100.106867	-74.675649	-144.174408
56924		32.416025	-12.281669	-3.260940	-13.479405	-16.476268	17.731577	-1.680839	0.174584	-6.335763	-0.846191	0.231689	-0.561279	0.320020	-0.133269	-0.031799	0.587360	-0.165665	-0.701766	-0.367543	97.069625	-71.112652	-142.011502
56925		29.380102	-15.921872	-7.130250	-13.639057	-22.052563	12.432901	-1.658913	-0.299843	-5.587918	-0.853760	0.196045	-0.556885	0.289295	-0.167926	-0.069498	0.574563	-0.151163	-0.703926	-0.389250	95.603713	-67.907788	-141.430890
56926		22.653099	-19.833959	-9.381824	-13.731170	-25.085526	3.473975	-1.741851	-0.933462	-4.597282	-0.852539	0.167236	-0.552246	0.222310	-0.204283	-0.091012	0.560854	-0.141872	-0.706452	-0.407726	95.262726	-65.247219	-142.153044
56927		17.018427	-25.359547	-7.964547	-17.224802	-26.029218	-5.140589	-1.687041	-1.285910	-3.393748	-0.854248	0.146973	-0.532471	0.166340	-0.257094	-0.076409	0.548226	-0.137023	-0.708874	-0.422102	95.423992	-63.242698	-143.380472
56928		12.492559	-28.949468	-6.921541	-19.159860	-25.910517	-11.689781	-1.436349	-1.133248	-2.236894	-0.860352	0.135742	-0.527832	0.122055	-0.291354	-0.066430	0.538469	-0.135525	-0.710386	-0.432475	95.611495	-61.916804	-144.525135
56929		13.087342	-28.358920	-7.479154	-18.980671	-25.860341	-11.362677	-0.991808	-0.718264	-0.957258	-0.855957	0.138184	-0.521240	0.129777	-0.284577	-0.072915	0.533213	-0.136364	-0.710785	-0.438034	95.697849	-61.337867	-145.266731
56930		14.122704	-27.237016	-8.021364	-18.449180	-25.792186	-10.009290	0.144461	-0.274594	0.106653	-0.854004	0.142578	-0.519043	0.141482	-0.272237	-0.080216	0.532592	-0.137074	-0.711736	-0.437021	96.080744	-61.394778	-145.615083
56931		14.721037	-23.983693	-5.604840	-17.986508	-22.271880	-7.869139	1.027584	-0.087838	0.941737	-0.852295	0.156006	-0.521484	0.148362	-0.238848	-0.057212	0.535073	-0.137944	-0.713536	-0.430738	96.876036	-61.935958	-145.850029
56932		13.684191	-20.452163	-3.256008	-16.593845	-18.225388	-6.878654	1.104437	-0.125151	1.735341	-0.855225	0.171387	-0.512695	0.138629	-0.203140	-0.033598	0.539119	-0.141558	-0.714991	-0.422018	97.892771	-62.924931	-146.289459
56933		14.164703	-14.998398	-3.231499	-13.041265	-15.043834	-3.518243	0.851184	-0.342022	2.316953	-0.846680	0.184814	-0.515137	0.143426	-0.148191	-0.032704	0.543392	-0.148340	-0.715998	-0.412393	99.171173	-64.221612	-147.172435
56934		15.051661	-6.975806	-1.482771	-9.042915	-8.852779	1.015564	0.780051	-0.449518	2.556169	-0.842773	0.202637	-0.515137	0.151424	-0.067769	-0.014755	0.547601	-0.156400	-0.716842	-0.402256	100.705806	-65.631774	-148.379375
56935		13.577931	15.305599	1.208875	4.749118	7.758734	8.553262	0.549724	-0.184337	2.513060	-0.845703	0.220459	-0.519531	0.133831	0.154712	0.012636	0.552432	-0.164335	-0.716413	-0.393148	101.908692	-67.036713	-149.346530
56936		15.397564	25.982282	10.609429	5.480011	21.468733	13.290426	-0.779177	0.073081	1.829016	-0.839600	0.231445	-0.513184	0.151627	0.261627	0.105022	0.555638	-0.173003	-0.713117	-0.390898	101.893844	-68.082542	-149.819555
56937		16.965151	-5.666469	4.224567	-11.977705	-3.380261	3.709377	-2.625416	-0.029001	2.895767	-0.840576	0.255859	-0.517578	0.170437	-0.053640	0.042988	0.558862	-0.190721	-0.705406	-0.392047	101.303359	-69.717161	-150.798315
56938		21.232532	-13.791493	3.146932	-18.027342	-9.418685	5.586726	-1.692855	0.066166	3.835973	-0.830322	0.280518	-0.517822	0.214925	-0.133537	0.032541	0.564892	-0.208923	-0.698063	-0.387243	101.483430	-71.891096	-152.021883
56939		16.001336	-4.939150	2.032458	-9.110823	-3.585773	3.923200	-0.541610	-0.417803	3.453527	-0.831543	0.311523	-0.511475	0.160791	-0.046564	0.020789	0.569539	-0.223316	-0.694462	-0.378785	103.312131	-73.785584	-154.253314
56940		10.685329	-4.971123	-4.717717	-3.400889	-7.898459	-0.475541	-0.577206	-0.998180	2.892037	-0.823242	0.329346	-0.496094	0.107792	-0.048292	-0.046500	0.570849	-0.236978	-0.692868	-0.371359	106.534281	-75.251634	-157.945410
56941		9.861394	-6.305318	-6.813196	-2.892098	-10.032879	-1.187716	-1.094579	-1.176509	2.627970	-0.825928	0.340332	-0.491699	0.099831	-0.062116	-0.067205	0.570373	-0.251367	-0.690988	-0.366095	110.350119	-76.480256	-162.515511
56942		13.449990	-5.086479	-0.200528	-6.671433	-4.027311	2.273348	-0.509444	-0.648775	2.867021	-0.813232	0.360596	-0.489746	0.135216	-0.048934	-0.001441	0.572685	-0.263997	-0.688193	-0.358787	114.340252	-77.869858	-166.912452
56943		12.661552	-4.670543	1.625054	-7.077608	-1.979274	1.621728	-0.364391	-0.673240	2.899616	-0.811768	0.378418	-0.480957	0.127219	-0.044834	0.016761	0.575141	-0.276127	-0.685572	-0.350655	119.550426	-79.188822	-172.420294
56944		11.472019	-3.435378	-1.433843	-3.898102	-3.376130	1.089787	0.027322	-0.857650	2.346868	-0.805420	0.394043	-0.483398	0.115173	-0.033002	-0.013850	0.576315	-0.285687	-0.684758	-0.342564	125.841850	-80.065389	-178.805651
56945		11.607700	-3.947161	-0.614536	-4.691813	-2.807708	1.177988	0.195352	-0.959231	1.821388	-0.801270	0.400635	-0.468018	0.116458	-0.038407	-0.005625	0.576543	-0.292850	-0.685248	-0.335071	132.316911	-80.540004	174.769282
56946		10.919025	-2.345191	-1.846827	-2.494232	-2.634343	0.909773	0.588500	-0.898196	1.595627	-0.799805	0.416260	-0.465820	0.109454	-0.022526	-0.018044	0.576979	-0.298224	-0.686420	-0.327087	138.892927	-80.819080	168.441483
56947		8.595400	-0.493255	-1.231569	-0.967568	-0.944601	-1.221353	0.570376	-0.711975	1.295249	-0.804443	0.420410	-0.468018	0.086027	-0.004341	-0.012022	0.577644	-0.301995	-0.687498	-0.320114	144.449289	-80.969039	163.181248
56948		8.261029	-0.996512	-1.258515	-1.241487	-1.179782	-1.573314	0.281497	-0.550306	1.192235	-0.800293	0.429443	-0.461670	0.082702	-0.009455	-0.012371	0.578075	-0.306266	-0.687688	-0.314827	149.397496	-81.082223	158.329383
56949		9.467792	-0.736429	-0.977598	-1.325510	-0.635157	-0.379994	-0.170574	-0.407089	1.092005	-0.802979	0.442627	-0.459473	0.094736	-0.006855	-0.009577	0.578284	-0.310947	-0.686965	-0.311414	153.561718	-81.185016	154.054302
56950		9.873611	-0.741567	-1.431636	-1.068568	-0.874936	0.095873	-0.903103	-0.442091	0.943268	-0.798340	0.440430	-0.452881	0.098801	-0.007014	-0.014066	0.576818	-0.317590	-0.685319	-0.311055	156.969696	-81.183753	150.076299
56951		10.263590	1.092772	-3.408233	1.533677	-1.234256	0.877296	-0.890267	-0.362894	0.666761	-0.799072	0.453857	-0.448486	0.102661	0.011119	-0.033945	0.575355	-0.322786	-0.683971	-0.311383	159.264173	-81.141889	147.278192
56952		11.476990	0.543061	-3.289023	0.884687	-1.314763	2.033085	-0.413204	-0.303183	0.546215	-0.792236	0.453857	-0.446289	0.114804	0.005676	-0.032728	0.574499	-0.326423	-0.683277	-0.310695	161.363139	-81.085288	144.908416
56953		11.258734	-0.026918	-1.628605	-0.487089	-0.288118	1.549159	-0.162805	-0.279617	0.527964	-0.796875	0.458252	-0.441895	0.112610	0.000015	-0.016129	0.574265	-0.328901	-0.683029	-0.309055	163.437164	-81.032357	142.755984
56954		10.653707	0.136313	-1.009704	-0.613566	0.305246	0.867651	0.025939	-0.276291	0.479992	-0.790527	0.467285	-0.441895	0.106547	0.001620	-0.009950	0.574104	-0.331002	-0.683033	-0.307095	165.467426	-80.954160	140.709736
56955		10.229707	0.841004	-0.954459	-0.005579	0.777042	0.466472	0.185232	-0.294948	0.408169	-0.786133	0.469482	-0.437500	0.102294	0.008628	-0.009386	0.574196	-0.332087	-0.683556	-0.304580	167.270168	-80.853039	139.033285
56956		10.665620	0.454866	-1.939709	0.225562	-0.137625	1.034189	0.349741	-0.295180	0.399061	-0.781738	0.469482	-0.439697	0.106675	0.004795	-0.019231	0.574373	-0.333006	-0.684233	-0.301709	169.139117	-80.733972	137.337256
56957		10.702145	1.149787	-1.906051	0.779739	0.365576	1.084513	0.363803	-0.303867	0.405456	-0.783936	0.471680	-0.437744	0.107027	0.011749	-0.018877	0.574704	-0.333593	-0.685041	-0.298578	170.958059	-80.609679	135.744664
56958		10.391083	0.501979	-1.592795	0.133017	0.249359	0.707932	0.276828	-0.312812	0.412668	-0.774902	0.471924	-0.439697	0.103925	0.005256	-0.015758	0.574707	-0.334788	-0.685625	-0.295883	172.745239	-80.464696	134.087932
56959		10.249919	1.505031	-1.361809	0.830226	1.073256	0.547769	0.252965	-0.322443	0.378096	-0.781494	0.467529	-0.446289	0.102492	0.015261	-0.013434	0.574732	-0.335630	-0.686354	-0.293178	174.320560	-80.311808	132.675469
56960		10.305827	2.486430	-1.313207	1.588722	1.765127	0.602540	0.215230	-0.329690	0.329897	-0.783447	0.460693	-0.461670	0.103038	0.025048	-0.012935	0.574441	-0.336737	-0.687024	-0.290899	175.701132	-80.138281	131.393991
56961		10.877469	0.605624	-1.280801	0.018455	0.784205	1.128563	0.263319	-0.314399	0.382089	-0.792969	0.471680	-0.470459	0.108783	0.006281	-0.012629	0.574368	-0.337874	-0.687624	-0.288297	177.251400	-79.969489	129.969573
56962		11.026577	0.198265	-1.756151	-0.018252	0.244555	1.351912	0.479751	-0.290924	0.441404	-0.800293	0.489258	-0.470703	0.110286	0.002268	-0.017396	0.574809	-0.338542	-0.688364	-0.284848	179.039762	-79.808587	128.426506
56963		11.054825	0.007118	-2.343457	0.208125	-0.260995	1.482849	0.711838	-0.297508	0.427971	-0.798584	0.504883	-0.472900	0.110582	0.000391	-0.023269	0.575603	-0.338513	-0.689462	-0.280593	-179.114235	-79.634907	126.961160
56964		10.865554	0.394585	-2.660730	0.758599	-0.226264	1.352807	0.953223	-0.301183	0.406734	-0.794678	0.513916	-0.459961	0.108687	0.004293	-0.026424	0.576737	-0.337701	-0.690931	-0.275585	-177.273146	-79.451793	125.638645
56965		10.661423	0.031326	-2.836938	0.642685	-0.542243	1.187649	1.199157	-0.302483	0.454444	-0.794434	0.509277	-0.457764	0.106656	0.000725	-0.028205	0.578464	-0.336019	-0.692742	-0.269403	-175.227152	-79.266101	124.294177
56966		10.528692	-0.173911	-2.269677	0.197892	-0.176672	0.955960	1.420665	-0.277190	0.639026	-0.785645	0.513916	-0.459961	0.105323	-0.001242	-0.022561	0.580730	-0.334598	-0.694327	-0.262121	-172.540900	-79.064942	122.382214
56967		10.333838	0.727120	-0.953963	0.139373	1.447137	0.488396	1.453144	-0.243908	0.874930	-0.792480	0.520508	-0.455566	0.103317	0.007792	-0.009358	0.583549	-0.333565	-0.695504	-0.253927	-169.244384	-78.849860	119.904005
56968		9.674812	2.370042	-0.802418	1.411372	2.617259	-0.272268	1.315429	-0.224989	1.054127	-0.779785	0.536377	-0.459961	0.096630	0.024262	-0.007757	0.586272	-0.333778	-0.696013	-0.245854	-165.622823	-78.586989	116.973929
56969		9.159053	3.863610	-1.225509	2.913410	3.312027	-0.820561	0.982816	-0.252196	1.236429	-0.777344	0.534180	-0.466553	0.091364	0.039261	-0.011948	0.588615	-0.335406	-0.695907	-0.238219	-161.893061	-78.249341	113.765110
56970		9.340676	3.320463	-1.857633	2.983576	2.644992	-0.548521	0.575452	-0.183198	1.438211	-0.771240	0.547607	-0.462158	0.093181	0.033928	-0.018394	0.590630	-0.339036	-0.694664	-0.231630	-158.027537	-77.861132	110.145374
56971		9.867362	2.728193	-2.077458	2.751627	2.314390	-0.004867	0.330376	-0.109866	1.623862	-0.773926	0.562988	-0.460205	0.098459	0.028116	-0.020674	0.592730	-0.343757	-0.692618	-0.225349	-154.032721	-77.422368	106.268692
56972		11.056160	1.142986	-2.028778	1.597925	1.676058	1.246025	0.248721	-0.072208	1.765755	-0.767822	0.578613	-0.458008	0.110462	0.012431	-0.020233	0.594864	-0.349313	-0.690015	-0.219081	-150.016351	-76.902469	102.289872
56973		12.237374	0.423015	-1.809501	1.017853	1.769999	2.395216	0.323448	-0.057802	1.899881	-0.757324	0.594482	-0.458008	0.122331	0.005422	-0.018052	0.597329	-0.354922	-0.687206	-0.212074	-145.993976	-76.292147	98.360452
56974		12.596087	0.404331	-1.584345	1.021204	2.171671	2.660103	0.423828	-0.035758	1.990526	-0.751221	0.612305	-0.462646	0.125915	0.005330	-0.015811	0.600026	-0.360625	-0.684159	-0.204558	-142.082911	-75.595699	94.573364
56975		12.644489	-0.701124	-1.653486	0.443954	1.584490	2.852029	0.521075	-0.002890	2.042893	-0.744873	0.621338	-0.464844	0.126508	-0.005676	-0.016549	0.603051	-0.366014	-0.680991	-0.196506	-138.350833	-74.838493	91.035770
56976		12.535357	-0.443551	-1.224945	0.547557	2.207477	2.583011	0.641542	0.033451	2.127528	-0.736816	0.643555	-0.467041	0.125389	-0.003062	-0.012282	0.606378	-0.371377	-0.677550	-0.187914	-134.741488	-74.002895	87.664692
56977		12.444551	-0.025522	-0.496506	0.563757	3.149591	2.223493	0.739606	0.042930	2.237464	-0.726318	0.663818	-0.469482	0.124437	0.001155	-0.004989	0.609990	-0.376628	-0.673926	-0.178568	-131.275537	-73.074554	84.505885
56978		12.679436	0.561364	0.639050	0.428389	4.579816	2.033251	0.798305	0.073790	2.344818	-0.715820	0.681641	-0.465088	0.126719	0.007074	0.006370	0.613772	-0.382108	-0.669911	-0.168808	-127.972877	-72.054808	81.517909
56979		12.951049	1.483487	0.441481	1.462731	5.312063	2.009302	0.817245	0.165611	2.444730	-0.705078	0.697510	-0.473877	0.129320	0.016399	0.004373	0.617922	-0.387620	-0.665370	-0.158761	-124.775411	-70.974236	78.650190
56980		13.282358	2.780495	-0.633263	3.395842	5.708693	2.037301	0.773838	0.225071	2.524925	-0.687988	0.717773	-0.476074	0.132451	0.029503	-0.006370	0.622102	-0.393524	-0.660301	-0.148763	-121.792441	-69.823195	75.948624
56981		14.011263	3.316935	-0.661379	4.109663	6.477836	2.389393	0.698266	0.282033	2.653786	-0.673096	0.742432	-0.478516	0.139646	0.035048	-0.006691	0.626334	-0.399883	-0.654658	-0.138644	-118.989646	-68.583685	73.386091
56982		14.707230	3.160663	-0.859669	4.497651	6.696312	2.913143	0.757107	0.335972	2.791101	-0.662598	0.760498	-0.482910	0.146597	0.033688	-0.008718	0.630795	-0.406478	-0.648445	-0.128035	-116.304071	-67.243601	70.950162
56983		15.139772	3.876807	-0.243792	4.910487	7.946536	2.718232	0.968942	0.476233	2.906046	-0.638672	0.781006	-0.498291	0.150807	0.040975	-0.002603	0.636095	-0.412525	-0.641570	-0.116594	-113.555939	-65.838440	68.564141
56984		16.102548	5.531016	0.225514	6.163901	9.888893	2.602181	1.159459	0.724420	3.033996	-0.619385	0.805908	-0.502930	0.160169	0.057732	0.002004	0.642466	-0.418195	-0.633560	-0.104655	-110.654201	-64.370955	66.091654
56985		16.552839	6.797322	-0.314683	7.825161	10.705996	2.204790	1.417969	0.980362	3.180078	-0.599854	0.824219	-0.527100	0.164403	0.070617	-0.003460	0.650075	-0.423233	-0.624360	-0.091934	-107.571801	-62.820437	63.551539
56986		16.441896	7.312733	-0.107131	8.326758	11.330230	1.416038	1.827091	1.049159	3.325731	-0.578125	0.844482	-0.540283	0.163166	0.075858	-0.001245	0.658591	-0.427215	-0.614595	-0.077572	-104.455191	-61.141460	61.201049
56987		16.380419	8.589539	-0.181640	9.467919	12.280691	0.268911	2.307514	1.098966	3.518407	-0.542725	0.863037	-0.555664	0.162250	0.088779	-0.001698	0.668082	-0.429997	-0.604174	-0.061184	-101.279416	-59.304611	59.059158
56988		14.964617	9.341724	-2.819123	11.771393	10.683245	-1.663286	2.266973	0.785841	3.750084	-0.525391	0.876953	-0.575439	0.147746	0.096515	-0.027692	0.676281	-0.433506	-0.593996	-0.043430	-98.667440	-57.253354	57.509314
56989		17.428811	3.138741	-5.089471	10.991605	6.861159	3.285607	1.383498	0.476457	4.436173	-0.490234	0.899658	-0.584229	0.173408	0.035593	-0.051072	0.681445	-0.441870	-0.582875	-0.025310	-96.966903	-54.761957	56.407296
56990		22.375302	1.816096	-5.658558	12.850190	8.580461	7.423903	1.172780	0.545629	5.017778	-0.448486	0.922852	-0.593018	0.223043	0.024097	-0.057065	0.685997	-0.452376	-0.569850	-0.005937	-95.466317	-51.924784	55.367881
56991		24.696456	4.133181	-4.629961	14.749386	12.335077	6.878514	0.853912	0.668984	4.972892	-0.413330	0.943604	-0.606201	0.245676	0.047651	-0.046928	0.689726	-0.463533	-0.556121	0.012068	-94.228245	-49.108751	54.389688
56992		23.273548	5.039570	-5.389956	15.827002	12.096413	4.300672	0.586185	0.460194	4.500990	-0.379883	0.950928	-0.614746	0.231396	0.055772	-0.054275	0.691873	-0.474027	-0.543888	0.028210	-93.419875	-46.540374	53.744756
56993		19.056170	5.574501	-5.000963	14.443078	10.643359	0.050653	-0.219403	-0.019680	4.080632	-0.351074	0.960205	-0.605957	0.189377	0.059562	-0.050055	0.690542	-0.485857	-0.534179	0.041788	-93.423298	-44.198046	53.563233
56994		13.898163	4.621606	-5.581762	12.456375	7.039778	-3.414748	-0.242497	-0.399739	3.536078	-0.326660	0.967285	-0.612549	0.138248	0.048597	-0.055599	0.687994	-0.496069	-0.526900	0.054375	-93.666786	-42.148950	53.707771
56995		10.156782	4.759814	-6.642102	11.780968	4.378967	-6.354749	0.966671	-0.322706	2.489380	-0.313232	0.974365	-0.627930	0.101069	0.049178	-0.066023	0.688762	-0.499243	-0.521506	0.066291	-93.208221	-40.707445	53.840765
56996		14.096940	5.681164	-1.906505	10.251891	10.320254	-5.015516	1.249240	-0.102742	2.326978	-0.299805	0.974609	-0.636719	0.140304	0.058564	-0.018631	0.690736	-0.501019	-0.515557	0.077876	-92.493622	-39.360156	53.833883
56997		10.243915	-1.089793	-4.498191	7.831376	3.179460	-2.402204	1.510004	-0.260308	1.579860	-0.286133	0.972900	-0.660645	0.102578	-0.009749	-0.044925	0.693148	-0.499816	-0.511866	0.087876	-91.730184	-38.444346	53.983693
56998		7.159089	-6.510561	-8.375296	7.576586	-3.628221	-0.158308	2.773204	-0.179763	0.836815	-0.272705	0.977783	-0.689209	0.071935	-0.063636	-0.084578	0.699130	-0.492304	-0.509093	0.098378	-90.223562	-37.950536	54.107719
56999		6.954688	5.815406	-3.536289	8.138691	5.323155	-10.150711	3.044977	0.059566	-0.026576	-0.285889	0.970947	-0.711182	0.069544	0.058674	-0.034493	0.706663	-0.481637	-0.507388	0.105882	-88.461587	-37.959967	54.066508
57000		4.237919	17.639131	-0.907997	8.613500	11.387264	-21.039893	1.508534	-0.463678	-1.239698	-0.299316	0.970703	-0.717773	0.043491	0.176185	-0.007651	0.709693	-0.472980	-0.511158	0.106506	-87.796951	-38.666020	54.379555
57001		2.143193	12.978460	-1.185503	6.299467	7.677859	-18.518881	0.476635	-0.650402	-2.308845	-0.316895	0.957031	-0.715576	0.022966	0.129553	-0.011473	0.710287	-0.465077	-0.518635	0.101060	-87.797383	-39.997743	54.797931
57002		0.248941	7.289919	-0.374199	2.927226	3.994418	-15.180924	0.107591	-0.447398	-2.548149	-0.339111	0.952148	-0.719971	0.003426	0.072862	-0.003696	0.710559	-0.457913	-0.526023	0.093387	-87.917798	-41.453776	55.068342
57003		-0.006674	5.340213	0.599929	1.397611	3.376824	-13.752206	-0.209552	-0.275781	-2.748247	-0.363281	0.936279	-0.715576	0.000659	0.053403	0.005944	0.710523	-0.451327	-0.533345	0.083688	-88.142598	-43.028858	55.211363
57004		1.803561	4.158526	1.030879	1.424790	4.076246	-11.533581	-0.521827	-0.227887	-3.127331	-0.385498	0.933594	-0.706787	0.018671	0.041323	0.010222	0.709913	-0.444781	-0.541336	0.071754	-88.525889	-44.811181	55.324748
57005		3.291286	3.733447	0.915750	1.996609	4.644330	-10.038727	-0.702565	-0.207964	-3.532236	-0.416260	0.915283	-0.704590	0.033556	0.036778	0.009062	0.708895	-0.437639	-0.550095	0.057757	-89.017137	-46.833179	55.436301
57006		4.141886	3.947353	0.605278	2.690284	5.066501	-9.374510	-0.845476	-0.182922	-3.941146	-0.442627	0.896973	-0.693604	0.042181	0.038673	0.005927	0.707495	-0.429749	-0.559472	0.041915	-89.596540	-49.079790	55.556519
57007		4.928291	4.728646	0.199737	3.661852	5.715659	-9.036386	-0.994481	-0.164189	-4.371181	-0.473389	0.878418	-0.682617	0.050299	0.046204	0.001807	0.705594	-0.420969	-0.569514	0.024000	-90.287863	-51.580712	55.702830
57008		5.803479	5.173812	-0.445570	4.703022	6.017619	-8.294447	-1.119532	-0.163585	-4.792218	-0.510742	0.857666	-0.671631	0.059255	0.050302	-0.004692	0.703097	-0.411224	-0.580112	0.004305	-91.107097	-54.312430	55.918343
57009		6.967637	4.974902	-1.187513	5.565264	5.898430	-6.824989	-1.221096	-0.160300	-5.218771	-0.543701	0.834717	-0.660645	0.070951	0.047835	-0.012115	0.699940	-0.400302	-0.591223	-0.017272	-92.075886	-57.295570	56.232523
57010		7.551974	4.892325	-1.762914	6.085472	5.578524	-5.825458	-1.395342	-0.143935	-5.699479	-0.582520	0.796387	-0.649658	0.076883	0.046621	-0.017905	0.695898	-0.388279	-0.602732	-0.040986	-93.274608	-60.540967	56.691699
57011		7.971597	4.184160	-2.061841	5.931028	4.817508	-4.627102	-1.567243	-0.068283	-6.189437	-0.619385	0.757813	-0.634277	0.080963	0.039186	-0.020905	0.690986	-0.374970	-0.614354	-0.067114	-94.731777	-64.073021	57.312038
57012		9.511779	3.250331	-2.444861	5.854479	4.122853	-2.349310	-1.685525	-0.035859	-6.575903	-0.656006	0.717041	-0.625244	0.096117	0.029146	-0.024687	0.685088	-0.360497	-0.625860	-0.094844	-96.585278	-67.807576	58.277216
57013		11.744315	2.369813	-2.554973	5.505477	3.624770	0.510197	-1.639231	-0.022018	-6.829348	-0.683838	0.680908	-0.609863	0.118159	0.019461	-0.025708	0.678365	-0.344605	-0.637077	-0.123296	-99.012784	-71.680327	59.852005
57014		13.940720	2.323569	-2.694070	5.421151	3.444486	3.058163	-1.510042	-0.025439	-7.004173	-0.715576	0.633789	-0.603027	0.140105	0.018132	-0.027073	0.670913	-0.327322	-0.647865	-0.151682	-102.486090	-75.608367	62.562256
57015		15.879206	1.635067	-3.056506	4.829919	2.337611	5.525313	-1.436403	-0.105131	-7.181003	-0.738770	0.588867	-0.593994	0.159253	0.010418	-0.030570	0.662287	-0.308815	-0.658440	-0.180181	-108.603771	-79.557875	67.969845
57016		17.902891	0.945206	-3.720738	4.212718	0.807843	7.983265	-1.248801	-0.129962	-7.354341	-0.772461	0.530518	-0.578369	0.179233	0.002631	-0.037122	0.652838	-0.288756	-0.668617	-0.208266	-121.703489	-83.350103	80.479193
57017		20.182956	0.729602	-4.057215	3.397556	-0.384798	10.496247	-1.049293	-0.142839	-7.473571	-0.784180	0.485840	-0.580322	0.201938	-0.000462	-0.040439	0.642661	-0.266930	-0.678356	-0.235729	-159.675818	-86.157742	118.011207
57018		22.753124	-1.037612	-4.189458	1.112507	-2.839013	13.138961	-1.065828	-0.233989	-7.511917	-0.802246	0.429932	-0.571289	0.226971	-0.019131	-0.041542	0.631129	-0.245079	-0.687365	-0.262950	141.297406	-85.217331	176.558229
57019		25.331103	-4.406293	-4.779785	-2.207757	-7.024592	15.274855	-1.097838	-0.353654	-7.444347	-0.818115	0.374268	-0.560059	0.251515	-0.053708	-0.047075	0.618401	-0.223062	-0.695703	-0.289520	118.004873	-81.732603	-160.622601
57020		26.836839	-7.404506	-4.117339	-6.281069	-10.148640	15.666449	-0.990954	-0.466785	-7.329291	-0.825195	0.329590	-0.551025	0.265505	-0.084012	-0.040152	0.604646	-0.201274	-0.703386	-0.314865	109.464988	-77.781450	-152.532573
57021		29.726404	-12.006051	-0.610739	-13.819995	-12.587789	16.231558	-0.785762	-0.669241	-7.017585	-0.832275	0.280762	-0.544189	0.292826	-0.130409	-0.004624	0.590138	-0.179754	-0.710802	-0.337914	105.642275	-73.827128	-149.039277
57022		29.546539	-13.472014	0.316839	-16.714827	-14.045121	14.219886	-0.533337	-0.725545	-6.502195	-0.842041	0.242676	-0.535156	0.290864	-0.144216	0.004605	0.575792	-0.159468	-0.717482	-0.358124	103.686023	-70.128848	-147.310382
57023		24.537134	-13.177028	-1.993361	-14.530958	-15.328111	8.444965	-1.028965	-0.959236	-5.872881	-0.847656	0.209229	-0.519531	0.241450	-0.138996	-0.018066	0.560803	-0.142939	-0.722751	-0.377755	102.512675	-66.727196	-146.674161
57024		19.158014	-12.876104	-4.307348	-11.771098	-16.004925	2.698604	-1.535258	-1.060583	-4.943303	-0.857666	0.175781	-0.512695	0.188536	-0.133767	-0.041054	0.546359	-0.131452	-0.726087	-0.396243	101.642564	-63.842217	-146.691039
57025		17.023785	-18.834147	-5.394078	-14.602445	-20.226600	-2.658724	-1.906206	-1.183315	-3.705342	-0.861328	0.153320	-0.488525	0.167012	-0.191952	-0.051128	0.533367	-0.125541	-0.727795	-0.412399	101.028548	-61.631507	-147.229222
57026		15.903742	-27.536405	-4.065251	-20.992022	-24.201329	-8.690704	-1.640196	-1.163876	-2.369992	-0.860596	0.135498	-0.488525	0.155981	-0.277541	-0.037469	0.523173	-0.123792	-0.728897	-0.423881	100.807089	-60.183716	-148.057661
57027		14.097292	-31.002486	-3.868381	-22.908577	-25.346180	-12.567487	-1.180658	-0.938963	-1.085738	-0.869385	0.133057	-0.475342	0.139460	-0.311003	-0.036193	0.516713	-0.124980	-0.729476	-0.430410	100.840087	-59.479154	-148.882350
57028		14.341679	-27.497683	-4.006666	-20.996451	-23.153066	-10.780926	-0.693988	-0.611029	0.128736	-0.865479	0.142090	-0.473145	0.143713	-0.275020	-0.038674	0.514345	-0.128673	-0.729451	-0.432197	101.052729	-59.496947	-149.597234
57029		15.172598	-22.627070	-2.784600	-19.232758	-19.366770	-7.584777	-0.460073	-0.455534	1.205888	-0.868164	0.153076	-0.466553	0.153149	-0.225413	-0.026979	0.515004	-0.135330	-0.728819	-0.430440	101.465262	-60.134076	-150.383319
57030		16.013435	-19.369688	-1.918800	-18.162954	-16.782610	-4.942085	-0.562794	-0.396730	2.073717	-0.857422	0.168701	-0.464600	0.162168	-0.192075	-0.018326	0.517632	-0.145297	-0.727159	-0.426832	101.973431	-61.263108	-151.342218
57031		16.382624	-14.801921	-3.642921	-14.283730	-15.234379	-1.774277	-0.473777	-0.489047	2.670072	-0.865234	0.195313	-0.460205	0.165871	-0.145899	-0.035678	0.521192	-0.157362	-0.725388	-0.421199	102.841089	-62.709561	-152.634855
57032		14.221624	-6.292028	-8.040640	-4.911716	-12.839382	1.027104	-0.402500	-0.485602	3.191657	-0.859375	0.219727	-0.458252	0.143392	-0.060799	-0.079935	0.525786	-0.171104	-0.723172	-0.413877	104.015506	-64.435407	-154.209955
57033		20.399985	24.673494	5.819557	5.633871	15.703809	18.122868	0.214131	0.277365	2.769610	-0.853271	0.237793	-0.471436	0.200638	0.249467	0.058182	0.532691	-0.180062	-0.720431	-0.405953	104.667272	-66.025546	-154.793007
57034		20.472787	6.479298	9.768709	-8.805817	8.163734	10.492726	-1.115950	0.075604	2.927106	-0.845215	0.260010	-0.460693	0.203782	0.068324	0.097235	0.537851	-0.193517	-0.715213	-0.402167	104.940517	-67.669580	-155.791643
57035		18.532364	-14.824976	3.892858	-19.217995	-8.406103	1.946523	-2.120855	-0.126122	4.358899	-0.846680	0.297607	-0.465332	0.188464	-0.143740	0.040587	0.543995	-0.215089	-0.706839	-0.397725	105.619783	-70.072685	-157.822564
57036		16.524139	-3.740499	2.753183	-9.406279	-1.912951	4.415391	-0.688137	-0.364784	4.103746	-0.834229	0.324463	-0.460938	0.165910	-0.033909	0.027955	0.550021	-0.232256	-0.701864	-0.388485	107.809891	-72.276372	-160.558447
57037		11.542466	0.791525	0.816492	-3.061671	0.100488	1.373174	-0.452724	-0.634166	3.492624	-0.826172	0.346680	-0.447998	0.115236	0.009948	0.008510	0.554023	-0.247013	-0.698539	-0.379587	110.890972	-74.057824	-164.044491
57038		8.162686	-6.572729	-5.760888	-3.811230	-9.014988	-2.941620	-0.860625	-1.138436	3.036093	-0.811035	0.360352	-0.452393	0.082940	-0.064721	-0.056859	0.554679	-0.262240	-0.696178	-0.372690	115.113114	-75.415887	-168.937462
57039		11.149728	-11.049687	-5.987061	-7.899019	-11.684259	-0.684940	-0.994857	-0.967772	3.147784	-0.800537	0.378418	-0.445801	0.113507	-0.109015	-0.058780	0.555856	-0.277757	-0.692761	-0.366001	119.921149	-76.772695	-174.470351
57040		15.692237	-6.251085	0.508968	-8.638560	-3.356190	4.317543	-0.162299	-0.402115	3.481245	-0.794678	0.398438	-0.446045	0.157968	-0.059763	0.005456	0.560531	-0.291072	-0.688605	-0.356239	125.638385	-78.336075	179.574637
57041		12.032293	-4.249061	3.277061	-7.574464	0.400756	0.958687	-0.333840	-0.898548	3.066029	-0.784180	0.420654	-0.441650	0.120806	-0.040586	0.033381	0.562439	-0.304092	-0.685981	-0.347306	133.165789	-79.379635	171.725107
57042		11.653338	-5.299571	-0.671750	-5.992658	-3.116617	1.082292	-0.845804	-1.424698	2.341976	-0.777588	0.423096	-0.430664	0.117186	-0.051651	-0.005664	0.560280	-0.317057	-0.684849	-0.341383	141.079800	-79.701850	163.179385
57043		10.485624	-5.253314	-1.848462	-5.029945	-3.843242	0.231504	-0.219784	-1.119643	1.904144	-0.769043	0.434326	-0.417480	0.105451	-0.051551	-0.017838	0.559440	-0.325985	-0.684572	-0.334844	147.972692	-79.821985	156.072124
57044		8.242024	-1.903290	-0.961051	-2.340403	-1.201823	-1.716193	0.063720	-0.995362	1.536763	-0.771484	0.438721	-0.424316	0.082610	-0.018396	-0.009206	0.558690	-0.332831	-0.684891	-0.328655	153.885854	-79.754885	150.095345
57045		8.190756	-0.228814	-2.639942	0.015084	-1.514903	-1.338392	0.101923	-0.803964	1.231990	-0.764893	0.443115	-0.411133	0.082025	-0.001770	-0.026071	0.558135	-0.338206	-0.685193	-0.323439	158.608959	-79.621222	145.351107
57046		10.019539	-1.066594	-1.771017	-1.371475	-0.970304	0.278969	0.049827	-0.618346	1.059912	-0.769775	0.449707	-0.417725	0.100304	-0.010130	-0.017403	0.557806	-0.342802	-0.685154	-0.319223	162.449351	-79.491041	141.469385
57047		11.029070	-1.274735	-2.290643	-1.350145	-1.286632	1.369123	0.070162	-0.509624	0.921389	-0.765625	0.456299	-0.411133	0.110406	-0.012231	-0.022630	0.557660	-0.346700	-0.685056	-0.315456	165.729629	-79.356137	138.170343
57048		11.185299	-1.814802	-3.316599	-1.207644	-2.310848	1.702734	0.118034	-0.403023	0.771758	-0.765869	0.463135	-0.411133	0.111988	-0.017697	-0.032951	0.557697	-0.349757	-0.684981	-0.312162	168.413009	-79.229993	135.502543
57049		11.289086	-1.121431	-3.536791	-0.478489	-2.006508	1.890062	0.218430	-0.280042	0.625011	-0.765625	0.460938	-0.419922	0.112974	-0.010823	-0.035222	0.558107	-0.351851	-0.684963	-0.309100	170.624227	-79.136825	133.375807
57050		11.810990	-0.831325	-2.620954	-0.759496	-0.960933	2.252110	0.264209	-0.165847	0.521008	-0.770264	0.463135	-0.419922	0.118153	-0.007971	-0.026122	0.558806	-0.353264	-0.684874	-0.306411	172.444836	-79.085786	131.670255
57051		11.172749	-0.852513	-1.522425	-1.254746	-0.119292	1.425017	0.267659	-0.102818	0.452628	-0.772705	0.471924	-0.419922	0.111754	-0.008252	-0.015178	0.559633	-0.354350	-0.684727	-0.303968	174.056500	-79.056017	130.182077
57052		10.697692	-0.993440	-1.847592	-1.094317	-0.495146	1.022359	0.358222	-0.071318	0.382974	-0.766357	0.476318	-0.422119	0.107002	-0.009696	-0.018455	0.560602	-0.354876	-0.684750	-0.301506	175.470621	-79.033633	128.945039
57053		10.523560	-0.395263	-2.896068	0.039751	-1.000475	1.063251	0.576880	-0.025186	0.294071	-0.775391	0.482910	-0.422363	0.105245	-0.003714	-0.028958	0.561994	-0.354430	-0.685121	-0.298581	176.761018	-79.028093	127.964322
57054		10.936824	0.188291	-2.519102	0.300748	-0.275618	1.404659	0.834901	0.069720	0.211693	-0.766602	0.483154	-0.428955	0.109357	0.002104	-0.025221	0.564022	-0.352812	-0.685751	-0.295210	177.916299	-79.071337	127.269125
57055		11.508017	1.185489	-1.739256	0.643414	1.032445	1.822813	0.953014	0.102790	0.112824	-0.778076	0.494141	-0.435547	0.115064	0.012003	-0.017395	0.566228	-0.350483	-0.686618	-0.291724	178.876250	-79.128795	126.844558
57056		11.689572	0.867122	-1.459448	0.229217	1.114596	1.944568	1.035246	0.077941	0.101185	-0.773438	0.489746	-0.437744	0.116886	0.008806	-0.014595	0.568448	-0.347892	-0.687682	-0.287978	179.829683	-79.171365	126.471996
57057		11.844737	-0.084885	-1.196642	-0.681114	0.801575	2.046083	1.126500	0.007538	0.160471	-0.771240	0.491943	-0.444336	0.118448	-0.000686	-0.011975	0.570667	-0.345352	-0.688951	-0.283581	-178.958300	-79.171316	125.891948
57058		11.555939	0.394371	-1.053144	-0.324984	1.184466	1.732687	1.202303	-0.061967	0.198675	-0.770996	0.485352	-0.459717	0.115559	0.004122	-0.010471	0.572798	-0.342799	-0.690439	-0.278722	-177.621488	-79.129172	125.226488
57059		11.005154	1.247501	-1.301923	0.579377	1.466727	1.227128	1.233894	-0.121781	0.193058	-0.779785	0.480957	-0.472656	0.110047	0.012661	-0.012874	0.574761	-0.340220	-0.692121	-0.273621	-176.277374	-79.049381	124.574304
57060		10.190731	1.760371	-1.591460	1.258438	1.483982	0.468195	1.195375	-0.147426	0.198250	-0.786621	0.487549	-0.490479	0.101901	0.017799	-0.015733	0.576541	-0.337778	-0.693793	-0.268621	-174.984807	-78.952668	123.949540
57061		9.684198	1.491196	-1.585565	1.113883	1.292983	-0.034724	1.112322	-0.147918	0.287933	-0.793945	0.500732	-0.505859	0.096832	0.015139	-0.015700	0.578294	-0.335889	-0.695175	-0.263605	-173.474872	-78.846925	123.056822
57062		9.542034	1.426141	-0.971632	0.714366	1.743336	-0.300665	0.996411	-0.100112	0.399662	-0.805664	0.516113	-0.501709	0.095396	0.014500	-0.009597	0.580132	-0.334635	-0.696061	-0.258776	-171.738430	-78.756088	121.862931
57063		8.733259	1.944112	-1.182233	1.349317	1.837532	-1.080586	0.664351	-0.229803	0.465722	-0.799805	0.533936	-0.497314	0.087300	0.019683	-0.011657	0.581050	-0.334748	-0.696761	-0.254656	-170.071999	-78.578279	120.547970
57064		8.597155	1.505912	-2.380928	1.815498	0.698053	-0.977304	0.395112	-0.307788	0.534618	-0.797607	0.538330	-0.488525	0.085967	0.015336	-0.023647	0.581310	-0.335964	-0.697224	-0.251171	-168.479678	-78.342811	119.148121
57065		8.909055	1.184256	-1.706515	1.135127	1.104964	-0.802912	0.148945	-0.268521	0.695470	-0.791260	0.545166	-0.477539	0.089071	0.012165	-0.016937	0.581597	-0.338143	-0.697066	-0.247997	-166.647820	-78.108838	117.394288
57066		8.546605	0.695228	-3.734775	2.138021	-0.709136	-0.735145	0.237117	-0.349765	0.779251	-0.786865	0.549561	-0.477539	0.085503	0.007330	-0.037190	0.581733	-0.340711	-0.697018	-0.244273	-164.669136	-77.798127	115.504233
57067		8.566951	0.295588	-3.425571	1.674079	-0.655356	-0.758310	0.266067	-0.421682	0.920011	-0.784912	0.553955	-0.466797	0.085727	0.003396	-0.034071	0.581916	-0.343554	-0.697026	-0.239790	-162.485834	-77.417295	113.449051
57068		8.857933	1.201676	-3.123283	2.190330	0.304126	-0.605579	0.348213	-0.353586	1.059851	-0.778320	0.558594	-0.471191	0.088569	0.012540	-0.031055	0.582534	-0.346764	-0.696605	-0.234842	-159.995366	-77.023307	111.094167
57069		9.202702	0.786548	-2.511485	1.516317	0.649902	-0.384372	0.391072	-0.262405	1.169757	-0.780762	0.562988	-0.462402	0.092012	0.008453	-0.024978	0.583732	-0.349920	-0.695815	-0.229465	-157.299465	-76.637615	108.576965
57070		9.836655	0.287535	-1.812737	0.718797	1.074799	0.109762	0.448440	-0.208982	1.310286	-0.776855	0.580811	-0.466797	0.098364	0.003560	-0.018017	0.585268	-0.353512	-0.694595	-0.223670	-154.371265	-76.213127	105.823205
57071		10.565513	0.821156	-1.579229	1.018761	1.869932	0.687867	0.423371	-0.167089	1.446874	-0.772949	0.593994	-0.458008	0.105605	0.009009	-0.015686	0.587099	-0.357410	-0.693005	-0.217524	-151.315245	-75.746550	102.942642
57072		11.144043	0.965148	-1.770173	1.336685	2.090062	1.237056	0.394588	-0.159365	1.568988	-0.762207	0.605469	-0.464844	0.111374	0.010560	-0.017593	0.588928	-0.361960	-0.691039	-0.211219	-148.236908	-75.206108	99.990503
57073		11.366439	1.334306	-1.962228	1.858141	2.385098	1.398108	0.386891	-0.179900	1.668575	-0.767090	0.618652	-0.464844	0.113565	0.014329	-0.019493	0.590796	-0.366722	-0.688950	-0.204508	-145.231834	-74.590680	97.123478
57074		11.801398	0.580837	-2.284849	1.639364	1.930503	1.952193	0.452651	-0.123305	1.790603	-0.752197	0.636719	-0.467041	0.117969	0.006916	-0.022761	0.592993	-0.371773	-0.686428	-0.197384	-142.163694	-73.916327	94.199433
57075		11.790825	-0.006110	-2.267139	1.357240	1.719555	1.992381	0.611328	-0.042685	1.938723	-0.745850	0.647949	-0.469238	0.117906	0.001151	-0.022644	0.595907	-0.376604	-0.683535	-0.189324	-138.935739	-73.185715	91.213786
57076		11.796948	0.240163	-1.343978	1.102157	2.700170	1.699077	0.729294	-0.036526	2.106631	-0.732910	0.659180	-0.471436	0.117938	0.003693	-0.013406	0.599097	-0.381751	-0.680289	-0.180433	-135.685593	-72.340995	88.242582
57077		11.984488	0.552591	0.081126	0.557355	4.132589	1.436533	0.718330	-0.032628	2.239001	-0.729248	0.683838	-0.473877	0.119773	0.006864	0.000854	0.602369	-0.387193	-0.676729	-0.171088	-132.567396	-71.400190	85.408245
57078		12.271450	0.740250	0.660705	0.504430	4.926931	1.458389	0.661852	0.009890	2.345534	-0.716553	0.701660	-0.476074	0.122617	0.008819	0.006629	0.605628	-0.393207	-0.672637	-0.161748	-129.614148	-70.379373	82.678315
57079		12.890545	0.840933	0.345009	1.035843	5.164213	1.987403	0.637258	0.058016	2.438821	-0.694824	0.722168	-0.471924	0.128791	0.009969	0.003443	0.609025	-0.399390	-0.668138	-0.152211	-126.809069	-69.294152	80.090416
57080		13.509102	1.451678	-0.424138	2.282707	5.434143	2.436090	0.662078	0.106166	2.515018	-0.686523	0.737793	-0.478516	0.134892	0.016228	-0.004261	0.612543	-0.405768	-0.663203	-0.142495	-124.147853	-68.143793	77.635720
57081		14.696706	1.621882	-0.306581	2.679853	6.266054	3.312094	0.796989	0.162329	2.625659	-0.671631	0.762695	-0.487305	0.146735	0.018159	-0.003115	0.616526	-0.411888	-0.657885	-0.132028	-121.519266	-66.921391	75.293828
57082		15.948170	2.930352	0.485310	3.466849	8.324614	3.671826	0.968054	0.311262	2.751682	-0.658691	0.776123	-0.489502	0.159066	0.031471	0.004754	0.621271	-0.417811	-0.651790	-0.120943	-118.807462	-65.635257	72.931703
57083		16.766364	4.448425	0.332974	5.054299	9.711558	3.645769	1.107243	0.519396	2.837266	-0.637207	0.801025	-0.496338	0.167019	0.046839	0.003150	0.626900	-0.423359	-0.644797	-0.109540	-115.999980	-64.315890	70.528129
57084		17.482180	5.657680	0.355733	6.319513	10.982397	3.498530	1.246250	0.723266	2.975668	-0.613037	0.814941	-0.511719	0.173967	0.059148	0.003290	0.633388	-0.428696	-0.636789	-0.097664	-113.097683	-62.924266	68.079568
57085		17.303628	7.187307	0.789039	7.356250	12.342026	2.238370	1.537195	0.900694	3.131287	-0.593506	0.835205	-0.522705	0.171918	0.074511	0.007680	0.640957	-0.433389	-0.627830	-0.084724	-110.056591	-61.433217	65.631032
57086		16.532276	8.059284	0.339399	8.421320	12.443559	0.798341	2.019444	1.032300	3.231591	-0.569336	0.853760	-0.549072	0.164010	0.083216	0.003377	0.649789	-0.436642	-0.618216	-0.070198	-106.862874	-59.851030	63.288252
57087		13.532803	10.137662	-2.267039	11.205669	10.874447	-2.942920	2.352075	0.834377	3.388695	-0.538818	0.874268	-0.560059	0.133489	0.103910	-0.022018	0.658526	-0.439179	-0.608756	-0.053689	-103.895282	-58.094488	61.391390
57088		15.273398	6.171824	-4.386327	11.065884	8.171409	0.254019	1.768028	0.495360	3.903555	-0.514648	0.888184	-0.573242	0.151377	0.065068	-0.043674	0.664778	-0.445103	-0.598851	-0.036478	-101.697321	-55.963250	59.972677
57089		19.881131	0.697354	-5.844315	10.732310	6.599603	6.651953	1.152478	0.322455	4.577466	-0.479492	0.913330	-0.577637	0.198483	0.011857	-0.058704	0.668929	-0.454882	-0.587600	-0.018492	-100.085967	-53.412635	58.799997
57090		23.627282	0.924707	-4.238402	11.429093	10.218016	8.678248	0.982861	0.425887	4.898874	-0.439697	0.927490	-0.590820	0.235858	0.015238	-0.042822	0.672622	-0.465901	-0.574905	-0.000128	-98.635339	-50.669813	57.667740
57091		23.719206	3.333615	-2.930361	12.377152	12.990158	6.319938	0.838247	0.395496	4.481306	-0.408691	0.939209	-0.597168	0.236306	0.038762	-0.029617	0.675506	-0.475923	-0.562955	0.016453	-97.479111	-48.150387	56.769314
57092		20.588522	3.637558	-4.222273	12.860912	11.029451	3.142324	0.767406	0.129981	3.984996	-0.371094	0.953125	-0.601563	0.205076	0.040629	-0.042206	0.677190	-0.484554	-0.552819	0.031817	-96.665411	-45.880788	56.250550
57093		16.730496	3.322934	-4.853273	12.006301	8.573774	0.026473	0.358363	-0.216844	3.738023	-0.353516	0.964600	-0.608154	0.166696	0.036436	-0.048288	0.676709	-0.493628	-0.544316	0.045996	-96.348217	-43.731347	56.082065
57094		11.057827	2.186602	-7.119971	11.126061	3.448727	-3.327742	0.943195	-0.372983	2.941542	-0.326416	0.962891	-0.616943	0.110370	0.023825	-0.070884	0.677220	-0.498388	-0.538000	0.059491	-95.845895	-42.019942	56.129836
57095		15.448002	5.612827	-2.589846	11.014737	10.830802	-3.631824	1.649583	-0.180134	2.503691	-0.315430	0.974365	-0.634521	0.153782	0.058267	-0.025285	0.679986	-0.499500	-0.531799	0.072854	-94.880539	-40.575582	56.088191
57096		11.414108	4.417636	-2.332279	8.612805	8.011179	-5.705212	1.059045	-0.147342	1.976289	-0.297607	0.977051	-0.645508	0.113713	0.045424	-0.023001	0.681430	-0.501159	-0.526910	0.082814	-94.275689	-39.427310	56.082493
57097		8.356082	-6.188091	-8.900492	8.284410	-2.872595	0.696519	2.056626	-0.238750	1.252981	-0.288330	0.970703	-0.665039	0.084049	-0.060436	-0.089531	0.685347	-0.497387	-0.523679	0.093093	-93.178004	-38.696663	56.198428
57098		8.515415	-1.331557	-5.780899	7.927933	1.536785	-3.294619	3.252026	0.182252	0.612771	-0.288330	0.970947	-0.695801	0.085140	-0.012112	-0.058090	0.693484	-0.487954	-0.519912	0.103303	-91.228460	-38.337128	56.050882
57099		6.650041	13.575348	-2.184846	9.536408	10.026451	-16.278311	2.369106	-0.119934	-0.553981	-0.301514	0.966309	-0.711182	0.066889	0.135814	-0.020200	0.699143	-0.478272	-0.520412	0.107826	-89.937306	-38.648764	56.144404
57100		4.051399	15.340119	-1.549950	8.347469	9.851381	-19.161316	1.038600	-0.470487	-1.666245	-0.312500	0.959473	-0.715576	0.041826	0.153134	-0.014606	0.701217	-0.470117	-0.525425	0.105887	-89.566096	-39.591992	56.490310
57101		2.219487	9.034604	-1.039292	4.946967	5.763330	-15.284261	0.509752	-0.489151	-2.155798	-0.325684	0.952393	-0.719971	0.023192	0.090126	-0.010107	0.702183	-0.462446	-0.531904	0.100802	-89.512168	-40.825446	56.846084
57102		0.639216	5.812293	-0.212742	2.497485	3.539871	-13.745498	0.253005	-0.286726	-2.255666	-0.345459	0.940918	-0.717773	0.007050	0.058049	-0.002044	0.703050	-0.455476	-0.537936	0.094275	-89.510899	-42.106595	57.054591
57103		1.162502	3.879111	0.667559	1.306340	3.307141	-11.862070	0.030097	-0.238946	-2.564581	-0.365479	0.933838	-0.713379	0.012113	0.038637	0.006696	0.703582	-0.448391	-0.544560	0.085864	-89.620324	-43.573428	57.228101
57104		2.444326	2.852082	0.626972	1.479698	3.493773	-10.137125	-0.121686	-0.249821	-2.930090	-0.389893	0.926758	-0.715576	0.024850	0.028163	0.006283	0.703767	-0.440778	-0.551974	0.075838	-89.830890	-45.240296	57.421319
57105		3.046604	3.121613	0.607459	1.828192	4.006216	-9.773849	-0.209853	-0.234562	-3.327911	-0.416016	0.908447	-0.708984	0.030973	0.030710	0.006078	0.703778	-0.432252	-0.560138	0.064040	-90.100418	-47.143730	57.615949
57106		3.552216	4.352433	0.583449	2.521283	5.047608	-10.064488	-0.248879	-0.205973	-3.785074	-0.444580	0.892334	-0.704590	0.036331	0.042849	0.005818	0.703707	-0.422479	-0.568996	0.050519	-90.394407	-49.299246	57.811366
57107		4.190006	5.454277	0.662695	3.138179	6.150883	-10.048983	-0.340454	-0.217070	-4.276648	-0.473145	0.874023	-0.697998	0.043046	0.053642	0.006581	0.703246	-0.411428	-0.578750	0.034931	-90.781856	-51.745064	58.048873
57108		5.271717	5.574124	0.427343	3.742302	6.654443	-8.948281	-0.474780	-0.232871	-4.725207	-0.508057	0.844482	-0.695801	0.054009	0.054485	0.004205	0.702186	-0.399367	-0.589183	0.017473	-91.306437	-54.436851	58.357546
57109		6.466112	4.809816	0.197274	3.918774	6.523089	-7.155211	-0.591984	-0.270947	-5.135282	-0.545166	0.819336	-0.689209	0.065865	0.046423	0.001922	0.700378	-0.386231	-0.600243	-0.001790	-92.012334	-57.370790	58.788950
57110		6.795528	3.633404	-0.086061	3.603774	5.546421	-5.860117	-0.715834	-0.330559	-5.579315	-0.579834	0.787598	-0.676025	0.068935	0.034417	-0.000873	0.697645	-0.371947	-0.611906	-0.022777	-92.977811	-60.543519	59.430179
57111		7.435581	2.895395	-0.229332	3.370708	4.984858	-4.569237	-0.798338	-0.317482	-6.040151	-0.616699	0.751465	-0.666992	0.075188	0.026682	-0.002284	0.694137	-0.356187	-0.623871	-0.045717	-94.205776	-63.983929	60.289327
57112		8.811725	2.612100	-0.207863	3.285812	4.999914	-2.835014	-0.819373	-0.272659	-6.416071	-0.642334	0.713135	-0.656006	0.088897	0.023269	-0.002057	0.689972	-0.339001	-0.635705	-0.069973	-95.740870	-67.620015	61.450675
57113		11.003230	3.001544	0.053850	3.360741	5.740532	-0.550593	-0.851574	-0.233666	-6.697718	-0.678711	0.670166	-0.646973	0.110954	0.026312	0.000550	0.685010	-0.320613	-0.647202	-0.095384	-97.812284	-71.413325	63.129276
57114		13.288241	2.943529	0.204416	3.112799	5.845210	2.076531	-0.885231	-0.174391	-6.936817	-0.706543	0.631836	-0.638184	0.133795	0.024814	0.002044	0.679282	-0.301197	-0.658079	-0.121613	-100.810828	-75.307315	65.721892
57115		15.622308	2.701052	0.332390	2.569150	5.506607	4.830847	-0.889481	-0.097755	-7.143881	-0.735840	0.578125	-0.631348	0.157053	0.021424	0.003297	0.672799	-0.280651	-0.668198	-0.148617	-105.754740	-79.279346	70.253889
57116		18.136760	2.884982	0.100526	2.349482	5.014284	7.693367	-0.833026	0.016983	-7.314595	-0.758789	0.531006	-0.622314	0.182261	0.022198	0.000888	0.665786	-0.258929	-0.677313	-0.175875	-115.840201	-83.201804	79.963341
57117		20.547167	2.189225	-0.319659	1.527129	3.349844	10.517864	-0.940443	0.060898	-7.407584	-0.783936	0.481689	-0.617676	0.206093	0.014250	-0.003338	0.657761	-0.236815	-0.685396	-0.203720	-148.022333	-86.505844	111.704918
57118		23.029166	-0.488399	-1.366215	-0.226006	-0.585631	13.248225	-1.291483	-0.027184	-7.410229	-0.797852	0.434814	-0.608643	0.229900	-0.013496	-0.013562	0.648123	-0.215647	-0.692441	-0.232290	140.939985	-86.163406	-177.893079
57119		25.644971	-2.945313	-2.326269	-2.226164	-4.545555	15.600456	-1.615264	-0.124542	-7.264781	-0.811523	0.385742	-0.604004	0.255165	-0.038924	-0.022815	0.636983	-0.195931	-0.698301	-0.261226	114.300788	-82.737177	-152.099814
57120		27.798357	-5.473279	-1.983139	-5.525737	-7.870495	16.904596	-1.932118	-0.347576	-7.034744	-0.827881	0.340820	-0.590576	0.275859	-0.064647	-0.018758	0.624271	-0.177965	-0.703293	-0.289816	105.830578	-78.885767	-144.651538
57121		30.212456	-10.810496	0.161091	-12.188633	-12.203438	17.239066	-1.861972	-0.406657	-6.772251	-0.837646	0.302979	-0.590332	0.298229	-0.118223	0.003289	0.610902	-0.160652	-0.707436	-0.317054	101.765386	-75.065131	-141.601773
57122		28.299542	-12.278412	-0.173508	-13.728048	-14.316403	13.807195	-1.735960	-0.396178	-6.415898	-0.847412	0.267334	-0.572510	0.278865	-0.131781	-0.000062	0.597611	-0.143918	-0.710640	-0.342258	99.291675	-71.421125	-140.064116
57123		24.529776	-12.406002	-4.375387	-10.864235	-17.206039	9.172478	-2.220925	-0.609881	-5.792091	-0.859619	0.229248	-0.565918	0.241689	-0.131565	-0.041580	0.583553	-0.131190	-0.712466	-0.366943	97.645792	-68.094704	-139.694976
57124		19.651359	-13.801130	-7.338510	-9.158003	-19.441026	3.168488	-2.714310	-0.959394	-4.858832	-0.869629	0.197998	-0.548096	0.193411	-0.143706	-0.070528	0.569227	-0.123626	-0.713172	-0.389979	96.561853	-65.276427	-140.214431
57125		17.774656	-20.878625	-8.387940	-13.126541	-24.400629	-2.439619	-2.847835	-1.243017	-3.585276	-0.873291	0.175537	-0.537109	0.174456	-0.213089	-0.079774	0.555803	-0.121567	-0.713155	-0.409530	95.942729	-63.165937	-141.364283
57126		15.661771	-27.559243	-7.571763	-17.951773	-27.152717	-8.233064	-2.294107	-1.213654	-2.262559	-0.881836	0.166504	-0.519531	0.153923	-0.278181	-0.071597	0.545388	-0.122458	-0.713080	-0.423170	95.706438	-61.817943	-142.586168
57127		13.555502	-30.261679	-8.079281	-19.125928	-28.188812	-11.897290	-1.531234	-0.884418	-1.076660	-0.875000	0.159912	-0.506104	0.134270	-0.303946	-0.077873	0.538986	-0.124773	-0.712854	-0.431005	95.646744	-61.162600	-143.526223
57128		12.732322	-28.864063	-9.698063	-17.174516	-28.095241	-12.045931	-0.519862	-0.568666	0.004645	-0.877197	0.157471	-0.503906	0.127604	-0.288888	-0.095867	0.536664	-0.127531	-0.713237	-0.432460	95.939785	-61.144636	-144.207247
57129		13.995523	-24.070973	-7.092380	-16.368931	-23.582998	-8.596108	0.368481	-0.356284	1.013407	-0.873291	0.173096	-0.501953	0.141299	-0.239865	-0.071115	0.537828	-0.131035	-0.714315	-0.428165	96.643823	-61.710706	-144.774426
57130		13.824943	-20.367711	-3.811235	-16.017764	-18.833189	-6.776139	0.389628	-0.281711	1.902929	-0.878662	0.195313	-0.504150	0.140232	-0.202275	-0.038311	0.541147	-0.137496	-0.714603	-0.421424	97.428115	-62.785221	-145.414720
57131		17.191903	-14.146329	-3.439688	-13.393039	-15.530118	-0.489116	0.240893	-0.540588	2.340897	-0.865967	0.217529	-0.495605	0.173651	-0.139396	-0.034098	0.544298	-0.146459	-0.714896	-0.413780	98.559908	-64.084041	-146.530315
57132		13.393919	-8.574345	-4.595710	-7.469791	-11.827155	-0.961874	-0.249812	-0.510521	3.062007	-0.869141	0.239746	-0.495605	0.135348	-0.083735	-0.045507	0.548578	-0.159238	-0.713415	-0.405887	99.632106	-65.782264	-147.878075
57133		16.276437	19.236830	-0.998187	8.199971	7.826944	12.713461	-0.235275	-0.195815	2.975622	-0.865234	0.257568	-0.498047	0.159888	0.194750	-0.010053	0.553695	-0.171006	-0.711009	-0.398302	100.452588	-67.456478	-148.922486
57134		22.468938	19.663143	12.217606	-1.504829	17.231014	17.418385	-0.958597	0.124788	2.435625	-0.857178	0.279785	-0.493652	0.222344	0.199931	0.121084	0.558139	-0.182170	-0.706586	-0.395009	100.363973	-68.853853	-149.424789
57135		19.504924	-10.066880	6.475222	-17.074984	-4.559335	4.722808	-2.418368	-0.021211	3.939045	-0.849609	0.313477	-0.502686	0.196964	-0.096009	0.065953	0.563516	-0.202941	-0.698071	-0.392380	100.123510	-71.086326	-150.647082
57136		16.848011	-12.464597	5.171661	-16.906769	-5.949811	2.214212	-1.530151	-0.451006	4.320566	-0.841553	0.337891	-0.489746	0.170996	-0.120567	0.053033	0.568730	-0.223275	-0.691741	-0.384952	101.506416	-73.481714	-153.024691
57137		10.031363	-3.346994	-4.596260	-2.158994	-6.794592	-0.750852	-0.963704	-1.008192	3.512719	-0.824463	0.358154	-0.483154	0.101113	-0.031918	-0.045298	0.570872	-0.240154	-0.688682	-0.377025	104.614820	-75.326956	-156.824347
57138		10.494805	-9.556670	-5.018295	-6.703068	-10.599035	-1.484356	-1.349938	-1.292083	3.116445	-0.818359	0.373779	-0.476563	0.106742	-0.094245	-0.048858	0.570594	-0.257246	-0.685937	-0.371129	108.796036	-76.837115	-161.934114
57139		14.511874	-6.494734	-0.102504	-8.029419	-4.699450	3.079081	-1.530187	-1.239164	3.516570	-0.801270	0.395996	-0.457031	0.146231	-0.062383	0.000363	0.570848	-0.275967	-0.681952	-0.364575	114.346735	-78.465493	-168.507018
57140		12.131627	-5.386300	2.018691	-7.703413	-1.768023	1.039612	-1.618680	-0.915797	3.475745	-0.779785	0.423096	-0.450439	0.122130	-0.051576	0.021169	0.571725	-0.294165	-0.676652	-0.358803	120.753956	-80.001508	-175.977890
57141		9.325627	-4.316714	-0.747068	-4.654551	-3.041110	-1.138743	-1.490248	-1.427912	2.595397	-0.775635	0.427490	-0.439453	0.093855	-0.042003	-0.006486	0.569366	-0.309727	-0.674141	-0.354154	128.925345	-80.768591	174.881107
57142		10.987955	-4.496056	-1.668272	-4.510472	-3.595859	0.696866	-0.900109	-1.393044	1.966222	-0.771240	0.431885	-0.426270	0.110427	-0.043949	-0.015716	0.566717	-0.321469	-0.673374	-0.349366	136.930667	-81.057965	166.246482
57143		10.925971	-4.245760	-0.343246	-4.944941	-2.095728	0.611829	-0.477070	-1.221425	1.893303	-0.764893	0.440918	-0.421875	0.109673	-0.041428	-0.002664	0.565225	-0.331237	-0.672924	-0.343476	144.928875	-81.208543	157.895970
57144		7.130041	0.059353	-1.777539	0.009243	-0.988509	-2.531054	-0.353264	-0.976084	1.473601	-0.760742	0.447754	-0.419922	0.071379	0.001088	-0.017429	0.563868	-0.338966	-0.672568	-0.338832	151.339908	-81.183489	151.198165
57145		9.363642	-0.815596	-2.374101	-0.667342	-1.679903	-0.288475	-0.409630	-0.778103	1.113170	-0.760742	0.447754	-0.411133	0.093771	-0.007682	-0.023360	0.562448	-0.345304	-0.672123	-0.335661	156.144687	-81.069955	146.094800
57146		10.590248	-1.427087	-1.734825	-1.636595	-1.245902	0.815930	-0.431272	-0.656496	0.988157	-0.760986	0.454346	-0.408936	0.106028	-0.013784	-0.016970	0.561148	-0.351042	-0.671485	-0.333153	160.176199	-80.933356	141.757233
57147		10.713021	-0.670515	-2.311762	-0.673204	-1.205976	1.080161	-0.450346	-0.568530	0.869514	-0.760986	0.456543	-0.406738	0.107223	-0.006291	-0.022798	0.559906	-0.356296	-0.670750	-0.331139	163.599941	-80.780086	138.025249
57148		11.265689	-1.301012	-3.165949	-0.800106	-2.103978	1.744301	-0.364449	-0.449427	0.746354	-0.759033	0.460938	-0.406738	0.112775	-0.012647	-0.031383	0.558980	-0.360669	-0.670026	-0.329429	166.398048	-80.642483	134.972699
57149		11.402453	-1.389316	-2.792000	-1.046160	-1.731787	1.834079	-0.249346	-0.381302	0.713645	-0.756836	0.463135	-0.402344	0.114126	-0.013521	-0.027685	0.558440	-0.364511	-0.669345	-0.327496	169.050269	-80.515439	132.136593
57150		11.503170	-0.888913	-2.065725	-0.957912	-0.769332	1.843654	-0.145337	-0.282074	0.653075	-0.748047	0.467773	-0.404541	0.115089	-0.008528	-0.020489	0.558298	-0.367671	-0.668657	-0.325604	171.397869	-80.418987	129.665994
57151		10.808846	-0.745520	-1.748291	-0.878668	-0.452930	1.117359	-0.031932	-0.215629	0.572355	-0.759521	0.474121	-0.400146	0.108128	-0.007149	-0.017365	0.558463	-0.370152	-0.668109	-0.323631	173.496992	-80.337562	127.515554
57152		10.618164	-0.109621	-1.875596	-0.207320	-0.207080	0.966417	0.176368	-0.150488	0.535535	-0.759766	0.480957	-0.406982	0.106198	-0.000795	-0.018677	0.559152	-0.371800	-0.667777	-0.321229	175.504563	-80.279474	125.575735
57153		10.163997	0.314255	-2.984184	0.809743	-0.942241	0.711910	0.407633	-0.086629	0.464682	-0.757813	0.489746	-0.402588	0.101645	0.003439	-0.029791	0.560378	-0.372477	-0.667763	-0.318323	177.405275	-80.243118	123.881328
57154		10.501112	1.181841	-2.293767	1.211642	0.177507	0.931223	0.501852	-0.037511	0.421366	-0.760010	0.485352	-0.409180	0.104990	0.012097	-0.022888	0.561855	-0.372645	-0.667836	-0.315356	179.166979	-80.226352	122.379790
57155		10.441236	0.468777	-1.981064	0.489942	0.093248	0.813453	0.510567	-0.031867	0.339443	-0.755859	0.498779	-0.413574	0.104407	0.004915	-0.019782	0.563245	-0.372520	-0.668052	-0.312555	-179.314693	-80.203981	121.132932
57156		11.178928	0.555337	-1.212274	0.133874	0.919073	1.407102	0.598841	-0.030017	0.293381	-0.753662	0.496582	-0.413574	0.111783	0.005754	-0.012089	0.564715	-0.371967	-0.668480	-0.309632	-177.934879	-80.179568	120.075147
57157		11.479979	-0.029043	-0.913834	-0.511054	0.932542	1.654435	0.584175	-0.086491	0.309337	-0.749268	0.501221	-0.415771	0.114804	-0.000086	-0.009089	0.566000	-0.371611	-0.669006	-0.306562	-176.499865	-80.116356	118.955283
57158		11.487762	-0.191665	-0.827902	-0.664380	0.952886	1.647735	0.659812	-0.147505	0.323069	-0.760254	0.496582	-0.426758	0.114887	-0.001704	-0.008200	0.567222	-0.371157	-0.669788	-0.303126	-175.038353	-80.014606	117.849616
57159		11.330144	-0.138994	-0.848952	-0.567732	0.981505	1.493344	0.729821	-0.203664	0.329367	-0.758057	0.498779	-0.442139	0.113312	-0.001173	-0.008379	0.568400	-0.370622	-0.670811	-0.299287	-173.536290	-79.873935	116.745599
57160		10.878426	0.427984	-1.335498	0.231648	0.867846	1.118909	0.780728	-0.237138	0.338964	-0.771729	0.503174	-0.450928	0.108792	0.004516	-0.013209	0.569551	-0.370000	-0.671978	-0.295224	-172.051616	-79.710326	115.685856
57161		10.311773	0.734942	-1.661535	0.735080	0.734297	0.606222	0.778589	-0.270392	0.357130	-0.783691	0.525146	-0.455566	0.103127	0.007598	-0.016447	0.570614	-0.369504	-0.673186	-0.291010	-170.544801	-79.519784	114.604164
57162		10.055887	0.489719	-1.651430	0.571851	0.619940	0.354724	0.783694	-0.261062	0.399641	-0.784180	0.538330	-0.457764	0.100570	0.005162	-0.016363	0.571756	-0.369099	-0.674285	-0.286707	-168.973221	-79.326790	113.456491
57163		9.806346	1.076351	-1.419112	0.973818	1.153431	0.039103	0.839699	-0.232739	0.438691	-0.780273	0.549561	-0.455566	0.098056	0.011038	-0.014031	0.573152	-0.368631	-0.675293	-0.282113	-167.264420	-79.137354	112.203381
57164		9.495011	1.204049	-1.582580	1.222855	1.098677	-0.252002	0.870272	-0.220023	0.450436	-0.766846	0.549805	-0.440186	0.094940	0.012323	-0.015668	0.574637	-0.368074	-0.676272	-0.277435	-165.568644	-78.948425	110.978282
57165		9.215625	0.964180	-2.085065	1.368152	0.569750	-0.431428	0.829730	-0.219288	0.506691	-0.767090	0.554199	-0.437988	0.092154	0.009961	-0.020709	0.576125	-0.367826	-0.677069	-0.272693	-163.769482	-78.742545	109.625477
57166		9.395093	0.209200	-2.245657	0.879797	0.099653	-0.191356	0.791242	-0.223096	0.627755	-0.769531	0.558594	-0.438232	0.093969	0.002475	-0.022342	0.577668	-0.368081	-0.677587	-0.267752	-161.746832	-78.507336	108.019007
57167		9.517750	0.261369	-2.181458	0.932246	0.271648	-0.093066	0.780986	-0.210709	0.769756	-0.769531	0.562988	-0.444824	0.095189	0.003065	-0.021703	0.579517	-0.368583	-0.677855	-0.262335	-159.432437	-78.248752	106.139687
57168		9.451591	0.815716	-2.216709	1.465878	0.635645	-0.202379	0.756596	-0.220244	0.888035	-0.769775	0.567383	-0.442627	0.094503	0.008660	-0.022031	0.581313	-0.369792	-0.677798	-0.256747	-156.936298	-77.935094	104.025957
57169		9.911394	0.426204	-1.936260	1.035162	0.799377	0.210026	0.714362	-0.210104	1.014127	-0.756592	0.576660	-0.442627	0.099111	0.004833	-0.019242	0.583305	-0.371302	-0.677475	-0.250835	-154.279322	-77.586051	101.750861
57170		10.466743	0.456121	-1.629446	0.934633	1.264215	0.672663	0.722970	-0.183307	1.147390	-0.763672	0.585205	-0.444824	0.104654	0.005220	-0.016180	0.585444	-0.373410	-0.676731	-0.244653	-151.426392	-77.184213	99.246115
57171		10.933533	0.734965	-1.654875	1.253282	1.618262	1.079028	0.726138	-0.181696	1.283942	-0.755127	0.596680	-0.451416	0.109300	0.008111	-0.016421	0.587818	-0.375752	-0.675766	-0.237951	-148.452070	-76.724195	96.641795
57172		11.290798	1.391259	-1.314558	1.661449	2.473503	1.244650	0.755327	-0.185761	1.395614	-0.750977	0.607666	-0.447266	0.112819	0.014749	-0.012986	0.590241	-0.378566	-0.674528	-0.230899	-145.445719	-76.189434	93.988887
57173		11.723113	0.938382	-1.413711	1.482969	2.353087	1.701275	0.750934	-0.159646	1.499206	-0.747070	0.618896	-0.451660	0.117167	0.010315	-0.014006	0.592901	-0.381506	-0.673031	-0.223498	-142.434302	-75.606849	91.346915
57174		11.708660	0.874367	-1.509087	1.630406	2.374662	1.669206	0.816923	-0.144143	1.622966	-0.743164	0.632324	-0.456055	0.117021	0.009755	-0.014968	0.595752	-0.384799	-0.671208	-0.215612	-139.392683	-74.946080	88.680256
57175		11.682512	0.797749	-1.359274	1.624485	2.577380	1.574992	0.866827	-0.139442	1.769949	-0.741455	0.647949	-0.451660	0.116757	0.009070	-0.013474	0.598887	-0.388233	-0.669142	-0.207025	-136.338572	-74.202117	86.044451
57176		11.581152	0.366276	-0.633878	0.986453	2.975576	1.359935	0.843599	-0.131316	1.930671	-0.728516	0.666016	-0.456299	0.115773	0.004807	-0.006244	0.602036	-0.392389	-0.666585	-0.198112	-133.339450	-73.353471	83.418627
57177		11.533931	0.927134	0.034685	1.145006	3.953851	1.001357	0.822618	-0.108684	2.071570	-0.720215	0.681641	-0.454102	0.115235	0.010464	0.000451	0.605345	-0.396867	-0.663634	-0.188794	-130.423843	-72.422253	80.875157
57178		11.853850	1.065653	-0.555999	1.830457	3.864618	1.307870	0.747667	-0.048341	2.194226	-0.705078	0.693115	-0.458496	0.118413	0.011977	-0.005488	0.608683	-0.402011	-0.660049	-0.179519	-127.624563	-71.416263	78.375342
57179		12.432061	0.943942	-1.118634	2.349151	3.737231	1.900795	0.677045	-0.033498	2.335542	-0.694336	0.708740	-0.465088	0.124201	0.010928	-0.011130	0.612016	-0.407645	-0.656022	-0.169991	-124.981443	-70.319287	75.999629
57180		13.256310	1.353978	-1.432688	3.156647	4.224553	2.507817	0.721179	-0.021850	2.457306	-0.686279	0.733398	-0.465332	0.132385	0.015219	-0.014260	0.615434	-0.413589	-0.651601	-0.160002	-122.473236	-69.129052	73.760421
57181		14.052450	1.590728	-1.168385	3.481464	5.043437	2.985686	0.848583	-0.002382	2.574808	-0.669189	0.755859	-0.467529	0.140304	0.017764	-0.011609	0.619208	-0.419322	-0.646909	-0.149194	-120.036114	-67.859626	71.673698
57182		14.296067	2.425423	-1.072394	4.316736	5.928131	2.741988	1.078428	0.072983	2.686191	-0.647217	0.769531	-0.474121	0.142613	0.026229	-0.010638	0.623623	-0.424679	-0.641749	-0.137480	-117.565087	-66.518430	69.657445
57183		14.853208	4.122120	-0.693256	5.617961	7.653087	2.350488	1.203872	0.172729	2.801286	-0.632324	0.787598	-0.480713	0.147929	0.043337	-0.006804	0.628599	-0.429754	-0.636014	-0.125143	-115.085778	-65.115452	67.703218
57184		15.779191	4.560972	-0.734078	6.394266	8.478873	2.738232	1.238031	0.363714	2.977801	-0.615234	0.812500	-0.485352	0.157076	0.047997	-0.007335	0.634172	-0.435151	-0.629125	-0.112564	-112.543300	-63.625777	65.664074
57185		15.751575	6.898484	-1.375941	8.756296	9.648352	1.492375	1.466716	0.493761	3.157798	-0.593262	0.826172	-0.496338	0.156366	0.071560	-0.013628	0.640574	-0.440190	-0.621375	-0.098946	-109.913249	-62.028907	63.646506
57186		15.758592	7.501842	-1.719644	9.699334	10.007453	0.832082	1.611174	0.573841	3.305744	-0.571777	0.851318	-0.518311	0.156267	0.077746	-0.017027	0.647400	-0.445041	-0.612914	-0.084548	-107.327812	-60.325893	61.743088
57187		15.420576	8.166917	-2.517485	10.906935	9.954378	-0.182421	1.762019	0.561536	3.568550	-0.542969	0.867432	-0.529297	0.152643	0.084622	-0.024868	0.654394	-0.450042	-0.603738	-0.068791	-104.841978	-58.438811	60.021118
57188		15.173534	8.170290	-4.242239	12.368195	8.953246	-0.767979	1.611451	0.370484	3.930815	-0.505615	0.888184	-0.544678	0.150008	0.085002	-0.042025	0.660310	-0.456504	-0.594060	-0.051830	-102.762786	-56.289223	58.642233
57189		17.939465	2.910703	-5.602618	11.327282	6.677214	3.925197	1.191483	0.159362	4.449820	-0.472656	0.904297	-0.553467	0.178638	0.033421	-0.055978	0.664450	-0.465714	-0.583495	-0.033920	-101.200614	-53.803911	57.561691
57190		21.110145	1.734656	-5.858243	12.362854	7.928436	6.532542	1.366751	0.057536	4.780549	-0.441895	0.925049	-0.562256	0.210583	0.022785	-0.058500	0.668370	-0.475062	-0.572187	-0.014120	-99.733968	-51.103435	56.692900
57191		22.461965	2.784808	-3.652440	12.322455	11.204908	5.939852	1.595579	0.067676	4.580883	-0.402100	0.945801	-0.577637	0.223887	0.033272	-0.036349	0.672444	-0.482774	-0.560996	0.005619	-98.294580	-48.508270	55.996715
57192		22.188335	3.193162	-2.374749	11.955286	12.584450	4.567197	1.682947	0.204020	4.179792	-0.371094	0.953125	-0.594971	0.221125	0.036758	-0.023678	0.676750	-0.488816	-0.549995	0.023956	-96.868672	-46.136879	55.361459
57193		18.976806	5.965086	-2.584455	12.590248	12.433097	-0.366411	1.519994	0.146873	3.781083	-0.341797	0.956055	-0.608154	0.188574	0.063418	-0.025511	0.680236	-0.494064	-0.539938	0.040579	-95.684173	-43.985286	54.908344
57194		15.567719	5.153159	-3.466919	11.655371	9.725941	-2.709363	1.102086	-0.173358	3.388694	-0.319824	0.967529	-0.616943	0.154802	0.054349	-0.034240	0.681651	-0.499441	-0.531811	0.055561	-94.983750	-42.030045	54.799088
57195		11.856619	2.703415	-6.052953	11.079561	4.873406	-3.647789	1.665564	-0.245099	2.441792	-0.306152	0.965820	-0.640869	0.118294	0.028982	-0.060148	0.684365	-0.500207	-0.526012	0.068921	-94.063588	-40.618425	54.839195
57196		14.606777	2.242332	-2.083365	9.024442	8.991112	-2.038724	2.085277	-0.341307	2.113919	-0.292969	0.975098	-0.667236	0.145853	0.024180	-0.020339	0.687832	-0.498547	-0.521080	0.082546	-92.977529	-39.384753	54.999641
57197		10.227114	-1.009728	-5.798802	8.811777	2.590761	-2.405029	2.076860	-0.456154	1.540041	-0.288086	0.968506	-0.680420	0.102474	-0.008707	-0.057850	0.691082	-0.495255	-0.517900	0.094380	-91.976496	-38.487094	55.287387
57198		9.815754	-3.541114	-7.865260	9.479777	0.003914	-0.819474	3.090324	-0.123361	0.247417	-0.281494	0.968750	-0.708984	0.098249	-0.034069	-0.079125	0.698167	-0.485189	-0.516161	0.103594	-90.267404	-38.331298	55.377385
57199		9.121937	10.569822	-1.929648	9.311664	10.253435	-12.421779	2.547944	-0.175633	-0.487033	-0.290039	0.959961	-0.719971	0.091493	0.105709	-0.017870	0.704041	-0.474977	-0.516593	0.108882	-88.895936	-38.606822	55.505646
57200		7.131833	16.301455	-0.702120	9.176143	12.881316	-17.995174	1.186619	-0.679907	-1.445584	-0.305420	0.955078	-0.733154	0.072515	0.162530	-0.005811	0.705807	-0.466761	-0.521719	0.108532	-88.524716	-39.431076	55.986994
57201		3.918039	9.785277	0.860210	4.239163	8.326289	-14.766573	0.381478	-0.752822	-2.040866	-0.321289	0.954834	-0.728760	0.040143	0.097430	0.008938	0.705751	-0.459722	-0.528908	0.104059	-88.654664	-40.607784	56.514880
57202		-0.104531	5.318099	1.327779	0.668026	3.639728	-13.857581	-0.042052	-0.658792	-2.278107	-0.343262	0.941162	-0.722168	-0.000483	0.053191	0.013264	0.705001	-0.453562	-0.536426	0.097480	-88.994710	-41.907950	56.985436
57203		-0.438123	3.335207	1.733673	-0.452853	2.580187	-12.543653	-0.313235	-0.527272	-2.663261	-0.358643	0.936279	-0.717773	-0.003982	0.033434	0.017274	0.704062	-0.447291	-0.544435	0.088417	-89.444333	-43.435392	57.370329
57204		1.831525	3.174881	1.576231	0.546531	3.826812	-10.800021	-0.479852	-0.433683	-2.995763	-0.382813	0.920410	-0.715576	0.018754	0.031508	0.015727	0.703006	-0.440674	-0.552783	0.077587	-89.961499	-45.140491	57.709116
57205		3.658948	4.182476	1.276249	1.888432	5.373083	-10.079125	-0.612012	-0.433365	-3.362419	-0.413818	0.906494	-0.708984	0.037259	0.041241	0.012716	0.701615	-0.433366	-0.561877	0.064997	-90.590874	-47.063373	58.082887
57206		4.332879	5.015875	0.879652	2.812055	6.064430	-9.942035	-0.796966	-0.472535	-3.775393	-0.442627	0.894775	-0.697998	0.044245	0.049364	0.008703	0.699613	-0.425416	-0.571842	0.050587	-91.400215	-49.208812	58.548793
57207		4.638724	5.131267	0.602719	3.213179	6.147539	-9.517211	-0.955038	-0.493551	-4.221839	-0.477539	0.871826	-0.687012	0.047442	0.050347	0.005901	0.697029	-0.416529	-0.582659	0.034097	-92.397538	-51.615002	59.120240
57208		5.221551	5.286361	0.298470	3.726793	6.359662	-8.835460	-1.087383	-0.437481	-4.687198	-0.512695	0.848877	-0.676025	0.053429	0.051636	0.002818	0.694049	-0.406567	-0.593934	0.015555	-93.545197	-54.271226	59.770281
57209		6.411595	4.969540	0.436914	3.786007	6.741522	-7.322752	-1.130710	-0.369771	-5.102022	-0.545898	0.832520	-0.658447	0.065348	0.048063	0.004214	0.690768	-0.395240	-0.605476	-0.004796	-94.828223	-57.169625	60.526555
57210		7.359560	4.076981	0.567450	3.409560	6.497332	-5.659443	-1.242490	-0.375030	-5.453373	-0.582520	0.794189	-0.654053	0.074661	0.038778	0.005569	0.686744	-0.382979	-0.617255	-0.026591	-96.403682	-60.245387	61.529977
57211		8.109379	3.082657	0.528156	2.954532	5.876400	-4.132729	-1.274039	-0.389039	-5.795395	-0.614990	0.762451	-0.640869	0.081932	0.028494	0.005254	0.681988	-0.369419	-0.629246	-0.049708	-98.358621	-63.508791	62.906393
57212		9.127338	2.454780	0.756902	2.405125	5.655072	-2.593562	-1.220426	-0.352023	-6.115428	-0.642578	0.719727	-0.627441	0.091954	0.021789	0.007592	0.676748	-0.354355	-0.641106	-0.073669	-100.756471	-66.918016	64.770065
57213		10.609974	2.490156	0.890306	2.249489	5.889031	-0.880448	-1.147280	-0.297301	-6.396670	-0.679443	0.683350	-0.616455	0.106811	0.021544	0.008931	0.671008	-0.337725	-0.652682	-0.098473	-103.858501	-70.462476	67.381068
57214		12.800883	2.961208	1.170333	2.167510	6.570420	1.415445	-1.072283	-0.198643	-6.639583	-0.702637	0.642822	-0.603027	0.128887	0.025405	0.011687	0.664881	-0.319674	-0.663637	-0.123803	-108.095770	-74.077367	71.176470
57215		14.777977	2.968280	1.177522	1.826839	6.434635	3.743024	-1.145126	-0.109756	-6.855405	-0.734619	0.600098	-0.598389	0.148676	0.024663	0.011706	0.658002	-0.300679	-0.673844	-0.150196	-114.712329	-77.715728	77.306955
57216		17.165912	2.591554	0.885217	1.313281	5.637186	6.574569	-1.230899	0.042508	-7.072006	-0.759521	0.544189	-0.584961	0.172435	0.019880	0.008681	0.650549	-0.280791	-0.682955	-0.177525	-126.389640	-81.221597	88.454624
57217		19.734190	1.963871	0.341811	0.602830	4.176473	9.563451	-1.277125	0.230921	-7.232906	-0.778076	0.501465	-0.582520	0.197884	0.012508	0.003095	0.642677	-0.259831	-0.690771	-0.205646	-150.834727	-84.126854	112.348807
57218		22.430985	0.406544	-0.504121	-0.708392	1.459214	12.563859	-1.314884	0.366074	-7.326456	-0.798584	0.450195	-0.575684	0.224248	-0.004186	-0.005442	0.634250	-0.238314	-0.697260	-0.234013	164.373279	-84.880862	156.564417
57219		24.637368	-2.788449	-1.589877	-3.091764	-3.018493	14.648564	-1.510555	0.361751	-7.291216	-0.812256	0.400879	-0.564453	0.245107	-0.036958	-0.016087	0.624721	-0.217118	-0.702541	-0.262715	129.756703	-82.686761	-169.508663
57220		26.549964	-5.754338	-2.830001	-5.390138	-7.574308	15.863607	-1.572875	0.339170	-7.114530	-0.826416	0.360840	-0.562256	0.263176	-0.067157	-0.028245	0.614449	-0.196570	-0.706652	-0.290611	114.191940	-79.313001	-154.676762
57221		29.211657	-9.848955	-2.407903	-9.947388	-12.014916	16.878747	-1.550718	0.270769	-6.796564	-0.835938	0.316162	-0.562012	0.288510	-0.108521	-0.023656	0.603592	-0.176904	-0.709799	-0.317124	106.527540	-75.709854	-147.754827
57222		30.291159	-12.905917	-3.374328	-12.572565	-16.337143	16.074692	-1.377876	0.121547	-6.294519	-0.850098	0.275879	-0.555176	0.298626	-0.138733	-0.032992	0.592523	-0.158558	-0.712428	-0.340915	102.381714	-72.244884	-144.270604
57223		27.924178	-15.531576	-5.987825	-12.825077	-20.547160	11.863890	-1.602086	-0.262515	-5.622707	-0.860107	0.240234	-0.543945	0.274798	-0.163555	-0.058227	0.580431	-0.143793	-0.714607	-0.362989	100.100232	-69.059179	-142.843637
57224		22.166332	-19.594336	-8.337347	-13.005991	-24.249173	3.876959	-1.969333	-0.786396	-4.736916	-0.863281	0.208984	-0.530518	0.217248	-0.201926	-0.080545	0.567430	-0.134080	-0.716462	-0.383051	98.965558	-66.320008	-142.843106
57225		16.671046	-24.309923	-7.797813	-15.386640	-25.725021	-4.241492	-1.975501	-1.149971	-3.636196	-0.867188	0.191162	-0.515137	0.162681	-0.246830	-0.074609	0.554832	-0.129019	-0.718194	-0.399641	98.565498	-64.168085	-143.669543
57226		13.655693	-27.179670	-5.649542	-18.193464	-25.014498	-9.237493	-1.596793	-1.140560	-2.380937	-0.875488	0.173096	-0.510742	0.133616	-0.273834	-0.053547	0.544903	-0.127279	-0.719599	-0.411167	98.541711	-62.733911	-144.671952
57227		12.329546	-28.870183	-5.043726	-19.565613	-24.984120	-11.786859	-1.197934	-0.798367	-1.180410	-0.875244	0.168701	-0.501953	0.121783	-0.289717	-0.048216	0.538812	-0.128047	-0.720011	-0.418174	98.530240	-62.005565	-145.443628
57228		13.701900	-28.331429	-6.270348	-19.168121	-25.727579	-10.445996	-0.441347	-0.423668	-0.103108	-0.871094	0.173096	-0.493164	0.137004	-0.283522	-0.061788	0.536808	-0.129866	-0.720271	-0.419740	98.714715	-61.922820	-145.945489
57229		14.169452	-25.003776	-4.512562	-18.458245	-22.447518	-8.500237	0.285495	-0.182534	0.790519	-0.869141	0.182129	-0.493164	0.142722	-0.249410	-0.045352	0.538005	-0.132443	-0.720822	-0.416444	99.211464	-62.365169	-146.328833
57230		15.462376	-20.573009	-2.163224	-17.645057	-18.280857	-5.179910	0.416376	-0.267340	1.478055	-0.869629	0.193115	-0.493164	0.156167	-0.204534	-0.021851	0.540399	-0.137319	-0.721385	-0.410750	100.022605	-63.186526	-146.979036
57231		13.045088	-15.881877	-3.514462	-12.770058	-15.677485	-4.725050	0.171112	-0.411734	2.172321	-0.863770	0.215332	-0.486816	0.132238	-0.157359	-0.035009	0.543485	-0.145656	-0.721294	-0.403910	101.061975	-64.380907	-148.033301
57232		13.941685	-3.837652	-7.414070	-2.584390	-10.977927	1.885954	-0.098542	-0.417576	2.828139	-0.864746	0.239746	-0.489014	0.140096	-0.036435	-0.073830	0.547581	-0.157067	-0.720073	-0.396206	102.224036	-65.931577	-149.382154
57233		20.010035	26.592564	5.949926	6.868292	17.411902	18.339808	0.301783	0.543119	2.591076	-0.858643	0.259766	-0.491455	0.196795	0.268400	0.059366	0.554883	-0.164613	-0.717067	-0.388357	102.440401	-67.463425	-149.433645
57234		21.912822	1.690486	7.193607	-10.636204	2.368329	10.583212	-1.718851	0.046664	2.850093	-0.848389	0.284424	-0.495850	0.218869	0.020642	0.071718	0.559109	-0.179602	-0.711131	-0.386566	102.275117	-69.076043	-150.321919
57235		20.525491	-14.186552	3.441618	-18.231404	-9.733276	4.580667	-1.813425	-0.000167	4.267295	-0.842773	0.313477	-0.496094	0.208215	-0.137124	0.035674	0.565602	-0.199921	-0.703578	-0.380926	102.725800	-71.477638	-151.908698
57236		14.585710	-3.998133	0.942911	-7.401942	-3.771798	2.859074	-0.749901	-0.615228	3.738926	-0.828125	0.338135	-0.489502	0.146540	-0.037209	0.010022	0.569717	-0.216442	-0.699993	-0.372271	105.020920	-73.485045	-154.771463
57237		10.229127	-4.730567	-5.142638	-2.761154	-8.034369	-0.797504	-0.635436	-1.030621	3.076291	-0.822021	0.355957	-0.474365	0.103267	-0.045884	-0.050749	0.571113	-0.231009	-0.698292	-0.364490	108.483046	-75.018188	-158.747153
57238		11.752736	-10.148971	-5.038470	-7.146176	-11.207234	-0.335186	-0.711370	-1.016202	2.972248	-0.802246	0.369629	-0.478760	0.119273	-0.099903	-0.049424	0.572096	-0.245353	-0.696344	-0.357231	112.588424	-76.420650	-163.409346
57239		14.753686	-8.256993	-0.566069	-9.032453	-6.408562	2.973530	-0.064911	-0.516417	3.349234	-0.796631	0.394043	-0.476563	0.148906	-0.080086	-0.005251	0.576173	-0.258157	-0.693474	-0.347094	117.343172	-78.050550	-168.318177
57240		11.746185	-3.521913	1.926180	-6.126973	-1.066665	0.929606	0.412265	-0.451487	3.221117	-0.781738	0.416504	-0.476807	0.117965	-0.033362	0.019458	0.580659	-0.268999	-0.691207	-0.335719	123.458106	-79.522886	-174.316318
57241		10.095795	-4.148751	0.432031	-5.203205	-2.343025	-0.498501	-0.065226	-1.033603	2.415471	-0.777344	0.416748	-0.474609	0.101425	-0.040263	0.004857	0.581077	-0.279276	-0.690774	-0.327393	130.814965	-80.282244	178.183068
57242		11.082813	-3.551289	-1.080739	-3.890528	-2.895212	0.821412	-0.257367	-1.181672	1.922816	-0.768799	0.427734	-0.461426	0.111224	-0.034458	-0.010106	0.579750	-0.288693	-0.691023	-0.320987	138.185936	-80.601157	170.553422
57243		10.484692	-3.350429	-1.768230	-3.148814	-3.103513	0.421083	0.090999	-0.959202	1.686752	-0.769043	0.434326	-0.457031	0.105208	-0.032610	-0.017193	0.579341	-0.295756	-0.691479	-0.314244	144.996629	-80.781055	163.720953
57244		6.851622	-0.197059	-1.066769	-0.531017	-0.596083	-2.921873	0.104240	-0.758895	1.317284	-0.766846	0.436768	-0.461426	0.068567	-0.001514	-0.010408	0.578927	-0.301304	-0.691839	-0.308899	150.502404	-80.820421	158.198362
57245		8.030071	1.825415	-1.775500	1.334179	0.284670	-1.499757	-0.123235	-0.579597	1.009400	-0.762695	0.443359	-0.459229	0.080258	0.018648	-0.017534	0.578391	-0.305978	-0.691801	-0.305374	154.603564	-80.800590	153.992755
57246		10.417214	-0.391393	-1.210406	-1.039798	-0.404929	0.622375	-0.481757	-0.496638	0.933807	-0.765137	0.449951	-0.452881	0.104219	-0.003456	-0.011837	0.577353	-0.311467	-0.691026	-0.303537	158.122923	-80.756824	150.142019
57247		10.679753	-0.473733	-2.616819	-0.256317	-1.434786	1.096220	-0.681239	-0.544216	0.806111	-0.765137	0.449951	-0.450684	0.106886	-0.004395	-0.025862	0.575734	-0.316959	-0.690309	-0.302557	161.090524	-80.632710	146.761518
57248		10.990754	-1.255888	-3.440711	-0.406935	-2.443207	1.504420	-0.567266	-0.504818	0.685314	-0.763184	0.454346	-0.441895	0.110036	-0.012279	-0.034094	0.574122	-0.321828	-0.689773	-0.301700	163.614137	-80.477155	143.868057
57249		11.713978	-0.941709	-2.703658	-0.681460	-1.518485	2.130641	-0.371524	-0.390018	0.649813	-0.765625	0.463135	-0.441895	0.117222	-0.009086	-0.026791	0.573275	-0.325610	-0.689304	-0.300325	165.923356	-80.366360	141.336013
57250		11.913658	0.574241	-2.332132	0.301476	-0.204568	2.335175	-0.245157	-0.346222	0.636107	-0.765869	0.465576	-0.441895	0.119158	0.006093	-0.023122	0.572633	-0.329134	-0.688851	-0.298743	168.193860	-80.254647	138.884461
57251		11.075089	-0.541058	-1.881189	-0.712126	-0.549185	1.398025	-0.102451	-0.256632	0.580853	-0.763916	0.476563	-0.437500	0.110790	-0.005098	-0.018667	0.572571	-0.331679	-0.688503	-0.296843	170.233102	-80.179233	136.783351
57252		10.630828	-0.355651	-1.113305	-0.928245	0.174276	0.840392	0.148302	-0.175600	0.541897	-0.770264	0.467529	-0.435303	0.106327	-0.003260	-0.011042	0.573013	-0.333491	-0.688287	-0.294451	172.243125	-80.126159	134.823814
57253		9.502789	0.688600	-3.042134	1.217986	-0.801457	0.082042	0.392671	-0.166859	0.424931	-0.766357	0.480957	-0.439697	0.095038	0.007148	-0.030328	0.573842	-0.333935	-0.688663	-0.291437	173.959561	-80.066981	133.338068
57254		10.727412	0.212278	-1.915839	0.057966	-0.010664	1.086358	0.613447	-0.048933	0.359192	-0.766602	0.489990	-0.448730	0.107275	0.002374	-0.019125	0.575216	-0.333593	-0.689056	-0.288173	175.562978	-80.056136	132.061353
57255		11.091918	1.022460	-1.189323	0.252792	1.132433	1.329311	0.736100	-0.014177	0.278675	-0.768799	0.485352	-0.446533	0.110906	0.010423	-0.011847	0.576911	-0.332324	-0.689719	-0.284644	176.941515	-80.063983	131.117603
57256		11.440382	-0.040903	-1.808836	-0.218089	0.074245	1.767584	0.831794	-0.062143	0.248469	-0.771240	0.494385	-0.455322	0.114410	-0.000192	-0.018054	0.578425	-0.330978	-0.690627	-0.280915	178.304159	-80.031957	130.212300
57257		12.373922	-1.776949	-0.986686	-2.144062	-0.222415	2.540382	1.034760	-0.062828	0.338385	-0.766602	0.487793	-0.461914	0.123772	-0.017509	-0.009919	0.580498	-0.329118	-0.691719	-0.276094	-179.952178	-80.003508	129.069995
57258		11.406599	-0.960597	-0.751715	-1.508415	0.373583	1.553193	1.214399	-0.125577	0.346624	-0.777588	0.483154	-0.472900	0.114087	-0.009363	-0.007503	0.582526	-0.327070	-0.693141	-0.270638	-178.075828	-79.925048	127.865395
57259		10.156397	0.222440	-1.171192	-0.171710	0.679739	0.389363	1.329249	-0.187635	0.272599	-0.787109	0.496338	-0.490479	0.101572	0.002440	-0.011601	0.584522	-0.324240	-0.695060	-0.264753	-176.429467	-79.815288	126.996139
57260		9.744765	1.376564	-1.364581	0.888324	1.276905	0.000447	1.200747	-0.186530	0.246346	-0.793945	0.500732	-0.501465	0.097443	0.013967	-0.013471	0.586131	-0.321939	-0.696748	-0.259514	-174.944379	-79.694276	126.180402
57261		9.450158	1.763708	-1.688090	1.431520	1.305332	-0.246478	1.026085	-0.191445	0.303199	-0.798828	0.513916	-0.505859	0.094491	0.017866	-0.016699	0.587613	-0.320081	-0.698179	-0.254567	-173.432641	-79.571972	125.270823
57262		9.618011	2.347726	-2.333019	2.288746	1.308413	0.011275	0.858048	-0.181003	0.361203	-0.797363	0.529541	-0.495117	0.096158	0.023750	-0.023142	0.588803	-0.319160	-0.699184	-0.250179	-171.844750	-79.438121	124.150193
57263		9.626486	1.573547	-2.372099	1.761155	0.824532	0.035676	0.712656	-0.190840	0.422351	-0.802002	0.533936	-0.488525	0.096254	0.016023	-0.023572	0.589881	-0.318689	-0.699977	-0.245988	-170.204383	-79.293997	122.918449
57264		9.062234	1.564908	-2.326601	1.805184	0.826063	-0.536661	0.654239	-0.235952	0.483346	-0.791016	0.538330	-0.484131	0.090611	0.015944	-0.023107	0.590680	-0.318851	-0.700669	-0.241856	-168.477299	-79.104734	121.536114
57265		8.668340	1.843259	-3.107534	2.601075	0.460508	-0.800676	0.569264	-0.248029	0.591896	-0.791016	0.542969	-0.488525	0.086667	0.018777	-0.030915	0.591489	-0.319518	-0.701142	-0.237590	-166.550038	-78.891502	119.919192
57266		8.473818	0.735672	-3.388038	2.040564	-0.455934	-0.899034	0.402420	-0.219337	0.814650	-0.784424	0.545166	-0.481934	0.084744	0.007770	-0.033772	0.592317	-0.321553	-0.700927	-0.233378	-164.152954	-78.645851	117.704662
57267		8.584253	1.541826	-2.544319	2.096560	0.789510	-1.008119	0.337691	-0.161279	1.055008	-0.780273	0.552002	-0.479736	0.085780	0.015914	-0.025347	0.593564	-0.324431	-0.700091	-0.228689	-161.201766	-78.374482	114.902180
57268		9.126658	0.797960	-2.612800	1.625252	0.416746	-0.434890	0.231794	-0.158836	1.205826	-0.773682	0.556396	-0.477539	0.091237	0.008560	-0.026046	0.594743	-0.328251	-0.698825	-0.223998	-158.071383	-78.041538	111.834285
57269		10.365016	-0.123526	-1.371262	0.097693	0.998030	0.595090	0.208144	-0.125306	1.361663	-0.774170	0.569824	-0.477783	0.103664	-0.000515	-0.013648	0.596196	-0.332535	-0.697175	-0.218899	-154.716096	-77.658271	108.533794
57270		11.328219	0.511674	-0.910629	0.282886	2.067771	1.370402	0.311206	-0.096744	1.471283	-0.767822	0.581055	-0.479980	0.113245	0.005964	-0.009043	0.597960	-0.336944	-0.695306	-0.213221	-151.241219	-77.217410	105.150688
57271		12.219797	0.182881	-1.094043	0.245682	2.038578	2.284190	0.401064	-0.072028	1.566172	-0.759277	0.592285	-0.486572	0.122182	0.002808	-0.010891	0.600070	-0.341270	-0.693282	-0.206908	-147.720002	-76.719790	101.781329
57272		12.208785	1.837193	-0.848991	1.407815	3.477110	1.980308	0.523822	-0.046193	1.623974	-0.759766	0.601074	-0.479980	0.121935	0.019385	-0.008412	0.602450	-0.345474	-0.691133	-0.200093	-144.250984	-76.167670	98.515937
57273		12.233236	0.650486	-0.799333	0.664033	2.854088	2.108872	0.555139	-0.007921	1.701507	-0.749023	0.616943	-0.491211	0.122271	0.007567	-0.007968	0.605089	-0.349693	-0.688740	-0.192923	-140.836572	-75.563788	95.331425
57274		12.094125	0.680263	-1.241130	1.155731	2.687661	2.007098	0.643198	0.028894	1.846562	-0.745361	0.634766	-0.489014	0.120870	0.007959	-0.012404	0.608052	-0.354171	-0.685978	-0.185121	-137.372225	-74.872934	92.123953
57275		12.357374	-0.025726	-1.022565	0.674252	2.591028	2.294227	0.711526	0.034287	2.033851	-0.736816	0.648193	-0.493408	0.123566	0.001036	-0.010245	0.611300	-0.358956	-0.682883	-0.176448	-133.891023	-74.063475	88.941197
57276		12.832623	0.140764	0.356281	0.011271	3.955673	2.400785	0.766584	0.013153	2.210696	-0.724121	0.666260	-0.500000	0.128301	0.002812	0.003563	0.614613	-0.364235	-0.679471	-0.167042	-130.526752	-73.118724	85.886273
57277		13.138011	0.821821	1.144661	0.135313	5.233024	2.319202	0.801862	0.050903	2.331190	-0.713379	0.681885	-0.495850	0.131276	0.009703	0.011450	0.618163	-0.369652	-0.675677	-0.157140	-127.297494	-72.088195	82.989740
57278		13.172857	1.759786	-0.161217	1.941484	5.205820	2.260773	0.756920	0.115407	2.413749	-0.705078	0.702148	-0.509033	0.131502	0.019192	-0.001617	0.621780	-0.375455	-0.671366	-0.147279	-124.270700	-70.992721	80.250244
57279		13.531591	2.556612	-1.410005	3.645346	5.236569	2.471750	0.634772	0.170471	2.537859	-0.692139	0.715820	-0.506836	0.134965	0.027325	-0.014130	0.625370	-0.381883	-0.666466	-0.137480	-121.446927	-69.814110	77.643223
57280		14.403008	2.587722	-1.557044	4.097111	5.675860	3.131504	0.600854	0.213304	2.682926	-0.670654	0.738281	-0.502441	0.143649	0.027853	-0.015642	0.628991	-0.388869	-0.660992	-0.127437	-118.792098	-68.533129	75.165351
57281		15.118543	3.317469	-0.888288	4.451004	7.090938	3.235521	0.768705	0.288680	2.818173	-0.655518	0.756348	-0.513672	0.150685	0.035335	-0.008968	0.633170	-0.395590	-0.655005	-0.116505	-116.153235	-67.166281	72.794127
57282		16.064734	3.865643	-0.193318	4.725623	8.504136	3.543357	0.953624	0.454447	2.981163	-0.636230	0.781250	-0.524658	0.160043	0.041055	-0.002105	0.638177	-0.402125	-0.648109	-0.104781	-113.421728	-65.711762	70.404439
57283		16.620203	6.198513	-0.232472	6.695322	10.465907	2.849002	1.151791	0.668362	3.112163	-0.619141	0.801514	-0.529053	0.165202	0.064575	-0.002511	0.644180	-0.408231	-0.640189	-0.092397	-110.571316	-64.188675	67.981077
57284		16.813041	7.847590	-0.224327	8.110802	11.856022	1.931784	1.416681	0.824435	3.228958	-0.590576	0.817627	-0.537842	0.166825	0.081193	-0.002364	0.651069	-0.413660	-0.631459	-0.079081	-107.662184	-62.582159	65.629155
57285		16.934624	8.267774	0.414391	8.235582	12.816411	1.286442	1.694970	1.017400	3.400910	-0.573486	0.840332	-0.555420	0.167929	0.085507	0.004004	0.658984	-0.418495	-0.621622	-0.064708	-104.644330	-60.860678	63.298986
57286		14.894774	10.524005	-2.564431	11.690355	11.732315	-1.760840	2.060037	0.904111	3.528236	-0.549316	0.860840	-0.577637	0.146943	0.108105	-0.025208	0.667071	-0.422391	-0.611758	-0.048506	-101.799598	-58.998053	61.369670
57287		14.945145	7.891883	-4.483072	11.881062	9.155595	-0.829091	1.862066	0.612643	3.943755	-0.518555	0.879150	-0.588623	0.147715	0.082259	-0.044529	0.673647	-0.428083	-0.601655	-0.030910	-99.520258	-56.832083	59.931681
57288		18.766672	0.070732	-5.812817	10.025814	5.632487	6.114153	1.210606	0.365901	4.690265	-0.478760	0.895508	-0.599365	0.187469	0.005459	-0.058448	0.677831	-0.438030	-0.590361	-0.012191	-97.937952	-54.194691	58.847160
57289		23.059888	0.743986	-5.204583	11.841262	9.164758	8.492047	1.281469	0.496973	5.060627	-0.439209	0.916504	-0.612549	0.230176	0.013604	-0.052544	0.682149	-0.448528	-0.577440	0.007679	-96.363088	-51.344102	57.783527
57290		23.489972	4.165951	-4.120949	13.497215	12.671335	5.784227	1.075661	0.579058	4.705553	-0.406006	0.930420	-0.621338	0.233709	0.047391	-0.041643	0.685811	-0.458430	-0.564668	0.025589	-95.041073	-48.681405	56.855539
57291		22.052268	4.587228	-4.439949	13.925473	12.376249	3.599592	0.730148	0.389754	4.152670	-0.379639	0.944336	-0.632324	0.219418	0.050599	-0.044649	0.687866	-0.467675	-0.553570	0.041002	-94.178236	-46.320390	56.243259
57292		18.224511	4.459994	-4.512153	12.780657	10.406558	0.222263	-0.027273	-0.082964	3.794153	-0.353271	0.960205	-0.627930	0.181374	0.048040	-0.045053	0.686628	-0.478261	-0.544856	0.054222	-94.091246	-44.135923	56.090819
57293		13.309542	4.462078	-6.861921	12.862335	6.319763	-3.588294	0.251945	-0.367028	3.203861	-0.328369	0.956543	-0.641113	0.132483	0.046833	-0.068318	0.685236	-0.486034	-0.538297	0.066777	-94.029373	-42.284295	56.200218
57294		13.137276	4.827788	-5.325104	11.791070	7.508424	-4.443116	1.407356	-0.133073	2.397866	-0.317139	0.961182	-0.656250	0.130814	0.050221	-0.052815	0.687385	-0.487665	-0.532371	0.079158	-93.220879	-40.895570	56.188589
57295		11.818903	3.380776	-2.615971	8.494588	7.681718	-4.637160	1.234884	-0.086302	1.983641	-0.297119	0.966064	-0.671631	0.117856	0.035138	-0.025895	0.689295	-0.488702	-0.527295	0.089458	-92.515261	-39.753516	56.179061
57296		10.143388	-2.804850	-6.842485	8.884810	1.173147	-1.023323	1.955854	-0.330056	1.267853	-0.288086	0.964111	-0.687012	0.101719	-0.026734	-0.068523	0.692542	-0.485212	-0.524391	0.099847	-91.536294	-39.008144	56.393489
57297		8.075003	-1.812727	-7.044662	8.670012	0.361882	-3.269516	2.931854	-0.046536	0.631366	-0.281250	0.966553	-0.713379	0.080821	-0.016837	-0.070681	0.699097	-0.476706	-0.521495	0.109808	-89.883431	-38.642450	56.422929
57298		6.737070	10.776340	-2.332421	8.457593	8.809880	-14.032468	2.446458	-0.132434	-0.234974	-0.287842	0.964355	-0.730957	0.067512	0.107958	-0.021960	0.704611	-0.467523	-0.521106	0.115737	-88.549097	-38.765511	56.521704
57299		4.012886	15.277082	-1.331387	7.762978	10.193388	-19.144838	1.063895	-0.605711	-1.385965	-0.301025	0.955322	-0.735352	0.041225	0.152555	-0.012378	0.706246	-0.459860	-0.525848	0.115019	-88.213977	-39.566271	56.942027
57300		2.316811	9.861413	-0.960188	4.967519	6.492367	-15.871202	0.464505	-0.700946	-2.120387	-0.323242	0.950439	-0.733154	0.024245	0.098383	-0.009289	0.706597	-0.452302	-0.532870	0.110421	-88.263601	-40.780404	57.422786
57301		-0.008408	6.123899	-0.213776	2.199757	3.401971	-14.409841	0.212415	-0.536461	-2.339506	-0.343018	0.936768	-0.735352	0.000638	0.061237	-0.002072	0.706844	-0.445055	-0.539910	0.103900	-88.389329	-42.127356	57.782308
57302		-0.055188	4.567581	0.606387	1.007656	2.975631	-13.183535	-0.025959	-0.433162	-2.667650	-0.354004	0.932129	-0.726563	0.000044	0.045679	0.006058	0.706892	-0.437772	-0.547315	0.095420	-88.606050	-43.649240	58.070608
57303		1.576405	4.053423	0.857533	1.279128	3.857650	-11.582331	-0.185757	-0.418669	-3.051776	-0.382813	0.918213	-0.722168	0.016362	0.040296	0.008572	0.706667	-0.429893	-0.555508	0.085001	-88.922304	-45.400818	58.356108
57304		2.722467	4.048128	0.657114	1.895564	4.469215	-10.626102	-0.376264	-0.453752	-3.464931	-0.413818	0.908691	-0.722168	0.027906	0.040014	0.006558	0.705918	-0.421434	-0.564608	0.072737	-89.388936	-47.377112	58.694998
57305		3.396509	4.173721	0.454455	2.368912	4.847608	-10.032095	-0.557606	-0.488629	-3.902941	-0.442383	0.894775	-0.708984	0.034760	0.041077	0.004514	0.704600	-0.412190	-0.574657	0.058370	-90.023330	-49.613250	59.102270
57306		4.053892	4.629386	0.137009	3.045933	5.343382	-9.591973	-0.666556	-0.498433	-4.327050	-0.477539	0.871826	-0.702393	0.041524	0.045407	0.001320	0.702846	-0.401958	-0.585362	0.042285	-90.786644	-52.077750	59.586685
57307		5.103743	4.816439	-0.087791	3.632158	5.876540	-8.580426	-0.774109	-0.524563	-4.726359	-0.508057	0.846924	-0.697998	0.052159	0.046937	-0.000925	0.700507	-0.390686	-0.596705	0.024413	-91.727475	-54.777392	60.193007
57308		6.565067	4.643044	-0.417332	4.204880	6.228316	-6.923963	-0.853740	-0.560771	-5.127344	-0.547607	0.821533	-0.676025	0.066823	0.044709	-0.004180	0.697518	-0.378279	-0.608562	0.005055	-92.882926	-57.687159	60.987366
57309		7.047620	4.566307	-0.732343	4.462489	6.084950	-6.058091	-0.942866	-0.587529	-5.592105	-0.584473	0.789795	-0.669434	0.071737	0.043634	-0.007323	0.693762	-0.364452	-0.620970	-0.016253	-94.341575	-60.863061	62.042847
57310		7.057241	4.404957	-0.625540	4.164068	5.829116	-5.539627	-1.153789	-0.545310	-6.148529	-0.616943	0.755859	-0.653809	0.071898	0.041816	-0.006306	0.689096	-0.349336	-0.633643	-0.040103	-96.238778	-64.329469	63.428007
57311		8.263699	3.908069	-0.783073	4.098740	5.557874	-3.775002	-1.425599	-0.471497	-6.611892	-0.648926	0.712891	-0.640625	0.083886	0.036265	-0.007899	0.683348	-0.333264	-0.646170	-0.066605	-98.802201	-68.050036	65.323597
57312		10.485678	3.430513	-0.817361	3.940378	5.505086	-1.066088	-1.535155	-0.338177	-6.930413	-0.683350	0.667725	-0.622803	0.105974	0.030582	-0.008239	0.676936	-0.316131	-0.657931	-0.094581	-102.199185	-71.907081	67.995001
57313		13.116368	3.472803	-0.855387	3.884259	5.672773	1.912616	-1.519685	-0.253635	-7.150553	-0.715332	0.627197	-0.618408	0.132302	0.029945	-0.008626	0.669822	-0.297732	-0.668934	-0.123375	-107.169213	-75.835903	72.247176
57314		15.744764	3.176901	-0.573812	3.119733	5.418494	4.989628	-1.477972	-0.179986	-7.361444	-0.738281	0.580078	-0.598389	0.158478	0.025905	-0.005802	0.661993	-0.278077	-0.679090	-0.152563	-115.559486	-79.722106	79.954460
57315		18.410430	2.657383	-0.363387	2.009441	4.597788	8.098071	-1.422805	-0.106990	-7.534821	-0.763672	0.535156	-0.589355	0.184932	0.019590	-0.003691	0.653374	-0.257151	-0.688333	-0.182136	-133.116097	-83.290163	96.858290
57316		21.213401	2.241462	-0.475136	0.932313	3.329064	11.236838	-1.459972	-0.081633	-7.652217	-0.792725	0.476807	-0.582520	0.212785	0.014245	-0.004788	0.643746	-0.235582	-0.696567	-0.211865	-174.280094	-85.307067	137.358197
57317		24.052309	0.233819	-0.839503	-1.206054	0.282650	14.217543	-1.717484	-0.060622	-7.650354	-0.799561	0.423340	-0.573486	0.240379	-0.006932	-0.008289	0.632799	-0.214627	-0.703391	-0.242366	139.666745	-83.851336	-177.429295
57318		26.964049	-4.282723	-2.357524	-4.299090	-5.731461	16.630847	-2.049300	-0.121754	-7.503872	-0.811768	0.385498	-0.564453	0.267790	-0.053136	-0.022902	0.620604	-0.194826	-0.708795	-0.272954	119.077062	-80.442086	-157.848229
57319		31.380154	-9.707253	-0.514178	-11.127446	-10.584922	19.219632	-1.965117	-0.057297	-7.196889	-0.832520	0.340576	-0.557617	0.310039	-0.108319	-0.004025	0.608117	-0.175629	-0.712787	-0.302130	109.720668	-76.665850	-149.489856
57320		34.631389	-11.841132	0.125014	-14.998759	-13.694874	20.626275	-1.499347	0.007935	-6.803082	-0.839844	0.298340	-0.550781	0.342021	-0.130082	0.002183	0.596194	-0.155944	-0.716023	-0.327942	104.622791	-72.951661	-145.106175
57321		32.760425	-14.857133	-1.871852	-16.246742	-18.226902	16.661160	-1.438087	-0.268398	-6.288769	-0.860596	0.257813	-0.541748	0.322739	-0.158899	-0.017165	0.583356	-0.138396	-0.718979	-0.351586	101.844911	-69.415789	-143.080907
57322		24.794758	-16.589475	-4.765790	-14.021139	-20.521110	7.355407	-1.695626	-0.742055	-5.448452	-0.868408	0.222168	-0.532959	0.243471	-0.172959	-0.045302	0.569712	-0.125121	-0.721618	-0.372880	100.424224	-66.282562	-142.602460
57323		17.459458	-20.922121	-6.019700	-14.252162	-22.764432	-2.242892	-2.288776	-1.165813	-4.252724	-0.871826	0.195557	-0.517334	0.170422	-0.213538	-0.056768	0.555820	-0.118800	-0.723100	-0.392527	99.637981	-63.778319	-143.222190
57324		14.563636	-25.711489	-5.325163	-17.333561	-24.448563	-8.014260	-2.405347	-1.252538	-2.935002	-0.875488	0.173096	-0.495361	0.142153	-0.259826	-0.049240	0.544012	-0.117425	-0.723442	-0.408528	99.111958	-62.014223	-144.185778
57325		12.662511	-27.780832	-5.295824	-18.505152	-24.801923	-11.398480	-2.217564	-0.950657	-1.682900	-0.884033	0.161865	-0.484375	0.124518	-0.279422	-0.049271	0.535732	-0.119476	-0.722390	-0.420558	98.566226	-60.986880	-145.027957
57326		13.883466	-28.049220	-7.423077	-18.214706	-26.496196	-10.685221	-1.585859	-0.575675	-0.444029	-0.884033	0.161621	-0.479980	0.138419	-0.281375	-0.071603	0.531774	-0.123443	-0.720814	-0.427089	98.178892	-60.699231	-145.631330
57327		15.265695	-24.785553	-7.179748	-17.153174	-24.518686	-7.938432	-0.404403	-0.309409	0.490313	-0.884521	0.170654	-0.475586	0.153375	-0.247624	-0.071060	0.531456	-0.127075	-0.720448	-0.427038	98.338011	-60.962817	-146.087909
57328		16.476382	-20.315054	-4.562034	-16.572952	-20.099400	-4.681691	0.176068	-0.348056	1.190113	-0.880371	0.179443	-0.479980	0.166048	-0.202125	-0.045510	0.532868	-0.131751	-0.720956	-0.422985	98.989457	-61.618943	-146.722038
57329		13.079392	-18.505496	-4.265888	-14.250165	-17.813344	-6.447959	0.108842	-0.315185	1.979775	-0.874512	0.206299	-0.473633	0.132684	-0.183725	-0.042551	0.535982	-0.139391	-0.720668	-0.417050	99.746437	-62.722433	-147.513664
57330		15.320250	-15.938292	-7.167796	-11.535619	-18.813450	-2.528207	-0.351502	-0.325558	2.951160	-0.868896	0.230713	-0.473633	0.155649	-0.157224	-0.071148	0.540678	-0.151746	-0.718647	-0.410106	100.516385	-64.366141	-148.604802
57331		23.128181	16.713121	3.720989	0.458696	8.197382	17.766376	0.770357	0.762856	3.453728	-0.858887	0.264160	-0.482666	0.228493	0.170950	0.036988	0.551019	-0.160630	-0.715409	-0.398455	100.833368	-66.407546	-148.473017
57332		21.890231	9.507184	7.631942	-5.804826	7.355036	13.424454	-0.967405	0.036613	3.188879	-0.853271	0.291016	-0.489502	0.217359	0.098913	0.075807	0.556666	-0.174722	-0.710696	-0.393073	101.066920	-68.217253	-149.332960
57333		20.275548	-11.792236	3.224790	-16.511586	-8.520585	4.858202	-1.691773	-0.109269	4.034378	-0.843018	0.320068	-0.482910	0.205057	-0.113522	0.033332	0.562616	-0.194080	-0.703956	-0.387612	101.473743	-70.487453	-150.809028
57334		15.949527	-8.981450	1.876681	-12.079095	-6.560838	2.417684	-0.256456	-0.459845	3.964532	-0.839600	0.342285	-0.476563	0.161189	-0.086606	0.019249	0.568333	-0.209721	-0.700737	-0.376806	103.589607	-72.659840	-153.199595
57335		10.195116	-2.649844	-3.106374	-2.567058	-5.279961	-0.531918	-0.115719	-0.920896	3.305108	-0.822266	0.362549	-0.478760	0.102512	-0.024825	-0.030578	0.571160	-0.223466	-0.699537	-0.366725	106.950670	-74.364604	-156.776859
57336		8.511271	-6.690935	-6.791869	-2.686743	-10.239387	-2.652770	-0.556867	-1.163787	2.963249	-0.814209	0.384766	-0.472168	0.086486	-0.065823	-0.067234	0.571837	-0.237639	-0.698407	-0.358828	111.090850	-75.764517	-161.397350
57337		13.275646	-6.332900	-1.807800	-6.565194	-6.260137	1.905108	-0.350455	-0.693009	3.129692	-0.803955	0.409424	-0.468018	0.133787	-0.061272	-0.017507	0.574584	-0.250886	-0.695924	-0.350142	115.399986	-77.271374	-166.033979
57338		12.642127	-3.264749	2.640390	-6.668741	-0.548400	1.705411	0.403530	-0.214207	3.245789	-0.786377	0.423096	-0.468018	0.126901	-0.030644	0.026476	0.579957	-0.261475	-0.693050	-0.339062	120.292556	-78.869586	-170.803382
57339		10.909234	-5.085993	1.004610	-6.476425	-2.665146	0.027653	0.263714	-0.769234	2.645095	-0.775879	0.438721	-0.465820	0.109713	-0.049425	0.010401	0.582117	-0.271234	-0.692179	-0.329333	126.937048	-79.902534	-177.405446
57340		11.261732	-4.407558	-0.455869	-4.985091	-3.126584	0.762185	0.255416	-1.083010	2.078903	-0.767090	0.443359	-0.459229	0.113090	-0.042896	-0.004002	0.582103	-0.279563	-0.692852	-0.320870	134.327600	-80.411146	175.236782
57341		9.782823	-3.795223	-1.668898	-3.428834	-3.490991	-0.381596	0.494645	-0.900839	1.602753	-0.764893	0.445557	-0.461426	0.098202	-0.037126	-0.016340	0.582285	-0.285152	-0.693977	-0.313096	140.838536	-80.660497	168.931764
57342		8.646291	-0.820555	-0.679666	-1.549108	-0.718410	-1.270067	0.422656	-0.716485	1.293884	-0.758545	0.452393	-0.459473	0.086537	-0.007632	-0.006503	0.582412	-0.289637	-0.694826	-0.306794	146.290895	-80.775823	163.646856
57343		8.730000	0.278321	-2.023974	0.168893	-0.921546	-0.895960	0.160271	-0.571629	1.089650	-0.756348	0.456787	-0.455078	0.087340	0.003275	-0.019988	0.582399	-0.293829	-0.695136	-0.302095	150.799238	-80.830813	159.186082
