// General information: 
//  MT Manager version: 2019.2.0 
//  XDA version: 2019.2.0 build 3853 rev 94535 built on 2019-09-09
// Device information: 
//  DeviceId: 00B40AC5
//  ProductCode: MTW2-3A7G6
//  Firmware Version: 4.3.5
//  Hardware Version: 1.1.0
// Device settings: 
//  Filter Profile: human(46.1)
//  Option Flags: Orientation Smoother Disabled, AHS Disabled, ICC Disabled
// Coordinate system: ENU
PacketCounter	SampleTimeFine	Acc_X	Acc_Y	Acc_Z	FreeAcc_E	FreeAcc_N	FreeAcc_U	Gyr_X	Gyr_Y	Gyr_Z	Mag_X	Mag_Y	Mag_Z	VelInc_X	VelInc_Y	VelInc_Z	Quat_q0	Quat_q1	Quat_q2	Quat_q3	Roll	Pitch	Yaw
56808		0.994265	4.476525	4.789800	5.377844	3.661610	-8.536974	-0.783108	7.079394	-1.247483	-0.588623	0.292480	0.430176	0.011905	0.044881	0.047324	-0.482865	0.519502	0.404970	0.577026	-14.558902	-82.147660	-87.448434
56809		1.467316	4.378603	5.130394	5.348009	3.778322	-7.632515	-0.516339	6.801539	-1.655852	-0.599365	0.279053	0.381836	0.016766	0.043784	0.050644	-0.490185	0.497532	0.391124	0.599335	-5.436538	-78.470816	-97.001192
56810		3.345181	4.594914	6.521205	5.735139	4.431075	-5.092901	-0.276520	6.507743	-2.028128	-0.604980	0.248047	0.327393	0.036012	0.045682	0.064005	-0.495910	0.474282	0.379122	0.620803	0.069457	-74.772925	-102.815979
56811		6.050206	4.617425	8.400846	5.807661	5.083345	-1.513189	-0.026200	6.393557	-2.336854	-0.606201	0.212646	0.284424	0.063679	0.045453	0.082000	-0.500396	0.449879	0.368524	0.641407	3.979546	-71.071997	-106.923571
56812		8.924105	4.201885	9.977059	5.095718	5.117996	2.212092	0.247740	6.554780	-2.613981	-0.607422	0.186035	0.240967	0.092985	0.040699	0.096815	-0.504382	0.422954	0.358518	0.661947	7.100724	-67.162048	-110.105248
56813		10.157815	3.560576	10.810641	3.949616	4.785247	4.120129	0.516063	6.847052	-2.875430	-0.613281	0.161621	0.188477	0.105695	0.033833	0.104623	-0.507855	0.393631	0.348805	0.682256	9.670599	-63.049576	-112.614484
56814		10.262692	2.488994	10.824862	2.257147	4.140328	4.552026	0.839779	7.057727	-3.045704	-0.610107	0.135254	0.134033	0.106721	0.022841	0.104629	-0.511088	0.361616	0.339419	0.702010	11.883838	-58.722377	-114.590099
56815		11.090321	2.377548	11.201199	1.308083	3.187890	5.747274	1.182646	7.053761	-3.120215	-0.595703	0.106689	0.077393	0.115109	0.021354	0.108132	-0.513835	0.328357	0.330943	0.720162	13.835078	-54.393951	-116.119177
56816		13.317994	3.120913	11.865817	0.684766	1.372453	8.225887	1.435263	6.937795	-3.140325	-0.574463	0.073730	0.025391	0.137651	0.028241	0.114144	-0.516011	0.294034	0.323116	0.736799	15.605712	-50.063043	-117.312560
56817		15.488699	4.546455	12.319072	0.475511	-0.981749	10.459007	1.535458	6.788687	-3.135079	-0.546875	0.054199	-0.024902	0.159633	0.042066	0.118157	-0.517294	0.259879	0.315647	0.751822	17.176257	-45.834462	-118.246472
56818		18.234995	7.536904	13.673880	1.379300	-3.684762	13.863566	1.408968	6.499844	-3.105116	-0.521484	0.034668	-0.050781	0.187805	0.071544	0.131207	-0.517385	0.226511	0.307867	0.765652	18.515886	-41.715286	-119.010502
56819		23.242134	10.301740	15.439912	0.962395	-7.892157	18.842863	0.953117	6.320525	-3.126915	-0.507324	0.017090	-0.076660	0.238719	0.098604	0.147397	-0.515884	0.194987	0.298529	0.778926	19.486921	-37.717780	-119.680336
56820		26.129064	10.559801	14.686266	-1.262115	-12.073067	19.549733	0.427385	6.289310	-3.319930	-0.490723	-0.004883	-0.102539	0.267440	0.100890	0.138735	-0.512442	0.164101	0.286933	0.792555	20.142290	-33.655073	-120.378529
56821		26.390092	8.300849	12.559766	-4.642893	-14.405793	16.524145	0.059320	5.968171	-3.657786	-0.501221	-0.027100	-0.135010	0.268949	0.078084	0.117645	-0.506237	0.135046	0.274719	0.806236	20.650401	-29.729373	-121.287223
56822		25.606293	-0.520647	9.403446	-13.122052	-13.755366	9.750446	0.171503	5.225610	-4.124930	-0.498047	-0.055908	-0.165039	0.258221	-0.010595	0.087298	-0.496625	0.107619	0.264739	0.819570	21.350600	-26.062707	-122.568131
56823		30.799775	0.084784	5.399847	-15.861224	-20.636332	7.508982	0.912134	4.495423	-4.199780	-0.489990	-0.091064	-0.194824	0.309031	-0.005860	0.047043	-0.485613	0.081416	0.259461	0.830801	22.448078	-22.785110	-123.966021
56824		34.889744	5.659811	0.582396	-13.761304	-28.789911	5.390227	0.688284	4.072829	-3.731364	-0.473145	-0.124268	-0.229004	0.349897	0.050072	-0.001115	-0.475486	0.057816	0.253776	0.840338	23.256235	-19.785765	-125.105978
56825		32.874873	4.827656	-6.910207	-13.105958	-30.678893	-3.596348	-0.139631	3.623861	-3.142583	-0.456543	-0.150635	-0.259033	0.328128	0.043066	-0.075083	-0.466702	0.039010	0.245423	0.848784	23.450520	-17.175604	-125.982336
56826		29.026420	-3.602741	-12.562691	-17.302729	-26.351786	-14.217482	-0.271918	2.867205	-2.728011	-0.440186	-0.172363	-0.282715	0.287895	-0.040140	-0.129713	-0.458492	0.024043	0.238024	0.855892	23.519453	-15.035676	-126.792476
56827		29.794640	-8.977473	-15.620866	-21.643806	-25.350493	-19.868954	0.651246	2.086784	-2.462196	-0.423340	-0.198975	-0.297363	0.295162	-0.092904	-0.159597	-0.450456	0.010778	0.236302	0.860892	24.094014	-13.382148	-127.627373
56828		29.935738	-8.223227	-18.355439	-20.576648	-26.626234	-22.785584	1.561986	1.258521	-1.940047	-0.411133	-0.225342	-0.291992	0.297385	-0.083677	-0.186080	-0.443626	-0.000462	0.240260	0.863406	25.149920	-12.261539	-128.356053
56829		29.819631	-4.488489	-17.814602	-17.671444	-28.020465	-21.183171	1.680522	0.255293	-1.079404	-0.417480	-0.238770	-0.289063	0.297726	-0.044991	-0.178904	-0.439248	-0.006496	0.246944	0.863735	26.215176	-11.871494	-128.862837
56830		28.377161	-2.489234	-14.047224	-16.107171	-26.336385	-17.278201	1.112663	-0.694048	-0.171787	-0.419678	-0.240967	-0.278076	0.284236	-0.024358	-0.139623	-0.437598	-0.006099	0.253283	0.862739	26.909074	-12.189713	-129.136605
56831		26.114334	-1.083055	-9.313078	-14.788421	-23.299105	-12.694615	0.479980	-1.370698	0.398165	-0.428711	-0.239014	-0.267090	0.261794	-0.010089	-0.091363	-0.437553	-0.000640	0.258367	0.861274	27.215385	-13.002630	-129.296465
56832		23.735598	1.253804	-4.566614	-12.670195	-20.507999	-7.650137	-0.031818	-1.699257	0.689967	-0.446777	-0.234863	-0.247314	0.237687	0.013351	-0.043650	-0.438305	0.007751	0.261992	0.859761	27.220504	-14.063226	-129.396195
56833		16.150326	8.414697	1.284226	-3.803231	-15.481365	-0.916366	-0.430251	-1.875104	0.690319	-0.454346	-0.212646	-0.234619	0.161083	0.084733	0.014172	-0.438775	0.017750	0.264221	0.858690	27.006837	-15.209536	-129.540333
56834		-8.895088	17.890245	2.253030	18.858089	-0.971145	-2.915608	-4.677007	-3.526626	1.385396	-0.487305	-0.168701	-0.218506	-0.090519	0.178716	0.016762	-0.439440	0.045117	0.251715	0.861102	24.376008	-17.393226	-129.711936
56835		-5.252167	10.748559	12.036572	10.385011	4.321440	2.888425	-5.233134	-5.647519	2.267279	-0.524902	-0.125000	-0.193604	-0.057075	0.109928	0.115941	-0.440556	0.083829	0.240889	0.860730	21.394919	-20.888969	-129.778307
56836		11.961724	-15.312786	8.711422	-19.686375	3.573014	-2.537303	-4.584392	-5.978167	1.461996	-0.548340	-0.094238	-0.161377	0.117978	-0.150157	0.094123	-0.437381	0.121460	0.233626	0.859863	18.937184	-24.408888	-130.210243
56837		19.661322	-16.984724	13.684914	-24.917801	2.446891	5.525039	-1.733664	-5.255134	-0.054845	-0.566650	-0.083496	-0.124268	0.192856	-0.168676	0.143416	-0.429784	0.147822	0.237615	0.858472	18.421701	-27.261181	-131.315081
56838		18.071682	-17.074566	15.504569	-23.316494	5.464170	7.065780	-1.070574	-4.534348	0.664927	-0.578613	-0.063721	-0.084961	0.177691	-0.169304	0.160006	-0.426323	0.170487	0.242261	0.854689	18.053961	-29.867082	-131.831948
56839		15.416497	-8.339781	12.424311	-14.426929	1.597695	6.025468	0.095508	-4.027856	0.885690	-0.587891	-0.052734	-0.043213	0.151989	-0.082782	0.127279	-0.425214	0.188621	0.250453	0.849051	18.247845	-32.228058	-132.108611
56840		30.056677	14.959751	18.301886	-2.423270	-15.458296	25.075807	-0.724045	-3.102932	1.091271	-0.588623	-0.030762	-0.012939	0.296860	0.151897	0.187097	-0.425205	0.204860	0.252938	0.844544	17.799112	-34.133817	-132.056568
56841		11.132082	4.244734	6.407079	-1.717185	-5.108820	2.594419	-1.058619	-1.739042	1.026422	-0.577881	-0.017334	0.008789	0.110538	0.043358	0.064806	-0.426221	0.215828	0.251102	0.841844	17.006878	-35.270432	-131.736718
56842		18.085673	-4.962593	15.093587	-11.483312	0.755852	11.331586	-0.749891	-1.503331	0.914844	-0.564941	-0.003906	0.017090	0.179937	-0.048232	0.152473	-0.427334	0.225092	0.250194	0.839120	16.390444	-36.270033	-131.424906
56843		10.835756	0.574577	8.565593	-3.864220	-1.638919	3.359021	-0.403340	0.245381	0.616467	-0.551514	0.000732	0.012451	0.108444	0.006252	0.085511	-0.429763	0.225783	0.247285	0.838556	15.878271	-36.243069	-130.955665
56844		7.938667	3.419961	10.026587	0.358163	-0.497248	3.411330	-0.598133	0.074772	0.455475	-0.540771	0.009766	0.005615	0.079346	0.034680	0.100133	-0.431068	0.227532	0.244137	0.838336	15.337153	-36.297282	-130.630307
56845		7.448366	1.877150	9.024817	-0.782172	-0.074382	2.012349	-0.399639	0.235679	0.302617	-0.531738	0.010010	-0.003174	0.074561	0.019064	0.090122	-0.432161	0.227863	0.241613	0.838414	14.955833	-36.222178	-130.378758
56846		6.201457	1.194285	8.625606	-0.740758	0.757878	0.825087	-0.240949	0.213688	0.150847	-0.516113	0.010254	-0.016602	0.062098	0.012094	0.086175	-0.432758	0.227884	0.240005	0.838563	14.727963	-36.151198	-130.236821
56847		6.188020	1.177916	8.751499	-0.717614	0.827505	0.914291	-0.036113	0.101152	0.032163	-0.518311	0.010254	-0.031982	0.061923	0.011805	0.087482	-0.432966	0.227666	0.239602	0.838630	14.679761	-36.109752	-130.196209
56848		7.291470	1.824379	7.507313	-0.968139	-0.929920	0.725415	0.039925	-0.010643	-0.009800	-0.513916	0.014648	-0.047852	0.072912	0.018225	0.075081	-0.432940	0.227827	0.239838	0.838532	14.701587	-36.139309	-130.205015
56849		7.178735	2.187562	7.530078	-0.603279	-1.024779	0.751763	0.081195	-0.051375	-0.014435	-0.515869	0.005859	-0.047363	0.071770	0.021840	0.075328	-0.432903	0.227938	0.240310	0.838385	14.755666	-36.175609	-130.223867
56850		6.361483	2.376765	7.870184	0.042651	-0.402271	0.574498	0.048895	-0.055589	0.019594	-0.518555	0.016846	-0.061279	0.063591	0.023755	0.078725	-0.432957	0.228305	0.240648	0.838161	14.775576	-36.234573	-130.220689
56851		5.896125	1.957889	8.164157	-0.010286	0.282265	0.442618	0.042906	-0.058705	0.038911	-0.525146	0.012451	-0.074219	0.058933	0.019573	0.081663	-0.433091	0.228594	0.240915	0.837936	14.786892	-36.282718	-130.204285
56852		5.502490	1.722451	8.336122	0.033994	0.759495	0.294596	0.054552	-0.099306	0.020279	-0.527588	0.016846	-0.081055	0.054982	0.017207	0.083393	-0.433101	0.229131	0.241369	0.837653	14.814503	-36.365898	-130.208593
56853		5.562690	1.815780	8.707195	0.148629	0.914228	0.637093	0.098379	-0.142666	-0.014242	-0.541260	0.021240	-0.079102	0.055566	0.018111	0.087121	-0.432975	0.229587	0.242111	0.837380	14.888397	-36.452752	-130.244128
56854		4.785121	1.369528	9.069681	0.245702	1.861060	0.361208	0.139852	-0.184388	-0.038576	-0.548096	0.025635	-0.081543	0.047770	0.013623	0.090750	-0.432733	0.230223	0.243173	0.837023	14.998328	-36.574036	-130.304714
56855		5.324673	1.814645	8.635178	0.262006	1.068087	0.434354	0.144615	-0.221624	-0.050892	-0.545898	0.030029	-0.081543	0.053156	0.018070	0.086424	-0.432409	0.230864	0.244320	0.836679	15.122946	-36.699014	-130.380667
56856		4.979205	1.809886	8.543092	0.424521	1.255576	0.152042	0.149886	-0.225925	-0.035539	-0.561768	0.029785	-0.077148	0.049699	0.018026	0.085501	-0.432141	0.231652	0.245506	0.836253	15.242505	-36.843076	-130.447511
56857		6.049633	2.258804	7.508492	0.067236	-0.229728	0.087836	0.102684	-0.207912	0.019161	-0.562012	0.036377	-0.066406	0.060416	0.022555	0.075159	-0.432077	0.232412	0.246367	0.835821	15.313268	-36.970820	-130.473314
56858		5.922592	1.842635	7.456771	-0.214566	0.048976	-0.115917	0.094462	-0.184294	0.062796	-0.563965	0.034180	-0.063965	0.059151	0.018410	0.074631	-0.432206	0.233263	0.247115	0.835297	15.355937	-37.106385	-130.464787
56859		5.656483	1.999321	7.677307	0.100787	0.286347	-0.074004	0.132308	-0.161077	0.088825	-0.566650	0.040771	-0.057617	0.056494	0.019967	0.076832	-0.432524	0.233848	0.247917	0.834731	15.409428	-37.218806	-130.433746
56860		5.287207	2.252005	7.893768	0.550060	0.534650	-0.078767	0.111233	-0.106880	0.129340	-0.559570	0.031982	-0.046143	0.052815	0.022510	0.078978	-0.433046	0.234421	0.248489	0.834129	15.424792	-37.321623	-130.364339
56861		4.736787	2.728254	8.205188	1.295311	0.830473	-0.074201	0.063483	-0.006110	0.186474	-0.546387	0.041016	-0.039795	0.047340	0.027301	0.082062	-0.433882	0.234629	0.248553	0.833617	15.379609	-37.363311	-130.235764
56862		4.614543	3.051714	8.426073	1.681471	0.883587	0.086686	0.017040	-0.008294	0.249699	-0.513184	0.056885	-0.049316	0.046104	0.030568	0.084265	-0.434916	0.235141	0.248376	0.832986	15.278478	-37.429385	-130.063512
56863		4.256706	2.650321	8.764916	1.604719	1.513300	0.041360	-0.028224	-0.078141	0.305890	-0.490723	0.117188	-0.064697	0.042492	0.026581	0.087662	-0.436052	0.235996	0.248073	0.832241	15.137935	-37.528501	-129.864971
56864		3.811383	2.815653	9.276595	2.089365	2.027980	0.188888	-0.047711	-0.176411	0.354744	-0.522461	0.187988	-0.076172	0.037982	0.028246	0.092793	-0.437236	0.237471	0.247867	0.831261	14.973239	-37.701930	-129.650056
56865		5.327100	2.161197	9.051221	0.768873	1.302799	0.802619	-0.079122	-0.287101	0.377876	-0.571777	0.189453	-0.042969	0.053100	0.021748	0.090580	-0.438348	0.239394	0.247721	0.830166	14.794560	-37.926455	-129.438380
56866		6.286293	1.296199	8.002013	-0.586725	0.515045	0.415709	-0.036015	-0.376304	0.362111	-0.570557	0.153809	-0.019531	0.062689	0.013090	0.080136	-0.439324	0.241675	0.247986	0.828909	14.653185	-38.210040	-129.252590
56867		6.528229	1.197208	7.852830	-0.775218	0.354421	0.433834	0.043887	-0.476396	0.296593	-0.558350	0.125244	-0.016357	0.065077	0.012051	0.078686	-0.440006	0.244009	0.248860	0.827601	14.598933	-38.526993	-129.130421
56868		6.463681	0.994317	7.981754	-0.851582	0.618534	0.452213	0.104206	-0.549469	0.220061	-0.542480	0.123047	-0.022949	0.064406	0.009972	0.080000	-0.440343	0.246518	0.250253	0.826257	14.617633	-38.885682	-129.075029
56869		6.037065	1.163340	8.266262	-0.412272	1.027869	0.429566	0.170228	-0.611376	0.144245	-0.542236	0.116455	-0.020508	0.060109	0.011606	0.082857	-0.440372	0.248936	0.252128	0.824945	14.718482	-39.255420	-129.085946
56870		5.941416	1.080923	8.066296	-0.443602	1.063223	0.197623	0.210730	-0.678464	0.084820	-0.535645	0.118896	-0.024902	0.059135	0.010749	0.080875	-0.440112	0.251568	0.254405	0.823586	14.875075	-39.665755	-129.152650
56871		5.530684	1.687430	8.401091	0.362389	1.302194	0.296054	0.267380	-0.742446	0.049417	-0.540039	0.114258	-0.029297	0.054990	0.016775	0.084238	-0.439694	0.254186	0.257080	0.822173	15.093571	-40.093937	-129.260050
56872		5.382954	1.621643	8.601797	0.442819	1.633660	0.322955	0.290872	-0.813757	0.040635	-0.544434	0.114258	-0.027100	0.053476	0.016102	0.086260	-0.439167	0.257130	0.260028	0.820611	15.337682	-40.571713	-129.389939
56873		5.412660	2.166229	8.843238	0.969530	1.603477	0.612298	0.305199	-0.903697	0.081354	-0.546631	0.112061	-0.031250	0.053717	0.021549	0.088709	-0.438703	0.260359	0.263162	0.818840	15.589346	-41.093115	-129.512844
56874		5.625942	2.278727	8.834422	1.000651	1.522617	0.749986	0.312243	-1.015118	0.141786	-0.546631	0.109863	-0.024658	0.055794	0.022689	0.088664	-0.438334	0.264198	0.266493	0.816728	15.830696	-41.696231	-129.617267
56875		6.418836	1.918160	8.143100	0.225848	0.888411	0.692036	0.318353	-1.166497	0.226972	-0.553223	0.111816	-0.024658	0.063690	0.019124	0.081834	-0.438108	0.268649	0.270050	0.814225	16.062313	-42.384532	-129.696078
56876		6.427293	2.416998	8.141623	0.713193	0.778445	0.785490	0.360778	-1.391949	0.282766	-0.564697	0.114014	-0.027100	0.063670	0.024113	0.081904	-0.437838	0.274081	0.274193	0.811170	16.323429	-43.216393	-129.785798
56877		5.930235	1.633089	8.261170	0.367108	1.654045	0.346464	0.406482	-1.653613	0.320428	-0.566895	0.111816	-0.015869	0.058590	0.016257	0.083131	-0.437399	0.280414	0.279017	0.807589	16.641462	-44.186937	-129.914169
56878		5.522684	1.011642	8.451114	0.137521	2.468436	0.027501	0.491391	-1.930921	0.300458	-0.577881	0.107178	0.001953	0.054392	0.009990	0.085064	-0.436571	0.287718	0.284798	0.803439	17.070193	-45.316035	-130.132442
56879		5.473282	0.924384	8.685277	0.217155	2.899868	0.075898	0.578076	-2.269227	0.218104	-0.582275	0.106934	0.017578	0.053733	0.009051	0.087493	-0.435003	0.295949	0.291744	0.798794	17.676199	-46.604147	-130.519621
56880		5.099967	1.524641	9.061417	1.079545	3.332113	0.095303	0.656168	-2.634088	0.163202	-0.595703	0.102295	0.035400	0.049788	0.014989	0.091325	-0.432729	0.305424	0.299830	0.793450	18.455843	-48.087722	-131.077383
56881		4.590136	2.081937	9.516228	1.997482	3.945324	0.005539	0.642768	-3.035865	0.185035	-0.599854	0.097900	0.062256	0.044430	0.020553	0.095911	-0.429826	0.316404	0.308633	0.787327	19.352808	-49.777622	-131.783226
56882		4.998505	1.863389	9.227648	1.693336	3.925788	-0.049699	0.669430	-3.434452	0.226792	-0.608887	0.095459	0.082275	0.048369	0.018378	0.093178	-0.426398	0.328948	0.318242	0.780192	20.397426	-51.691157	-132.645220
56883		5.074504	1.718444	8.888334	1.598847	4.015652	-0.378139	0.662498	-3.836355	0.245401	-0.622559	0.099609	0.115479	0.049006	0.016949	0.089891	-0.422241	0.342913	0.328543	0.772128	21.638761	-53.803395	-133.732082
56884		5.688115	1.783511	8.523957	1.484615	3.794658	-0.243343	0.646057	-4.357201	0.270101	-0.624268	0.088379	0.146729	0.054982	0.017632	0.086508	-0.417119	0.358881	0.339685	0.762778	23.155352	-56.188355	-135.138895
56885		4.841004	2.245265	9.203051	2.605611	4.878403	-0.726364	0.578104	-4.958516	0.345722	-0.637939	0.094727	0.197510	0.046069	0.022265	0.093257	-0.410901	0.377144	0.351505	0.751909	25.023756	-58.872947	-136.964486
56886		3.907511	3.364131	9.471906	4.258939	5.362792	-1.483517	0.378459	-5.650472	0.465876	-0.633057	0.085693	0.244385	0.036300	0.033547	0.095834	-0.403257	0.398412	0.363500	0.739269	27.325793	-61.913315	-139.368585
56887		5.237501	2.602559	8.344747	3.053047	4.719698	-1.315169	0.262076	-6.438505	0.483630	-0.635498	0.087891	0.299805	0.049590	0.026037	0.085108	-0.393630	0.422432	0.376296	0.724575	30.587794	-65.286428	-142.844952
56888		4.958018	4.472484	8.697634	5.236207	4.803368	-1.464239	0.208859	-7.312044	0.385605	-0.635254	0.085449	0.362061	0.046270	0.044724	0.088755	-0.381436	0.449070	0.390354	0.707437	35.693768	-68.934041	-148.259783
56889		8.731714	3.119786	8.324158	3.141447	4.925096	1.189940	0.348459	-8.243985	0.195619	-0.621582	0.083252	0.424316	0.083757	0.031132	0.086798	-0.366469	0.477636	0.406530	0.687239	44.388237	-72.642448	-157.252551
56890		18.474415	3.989579	8.908482	2.018763	5.189023	10.319285	0.468030	-8.940347	-0.516910	-0.605469	0.067627	0.500244	0.180618	0.039204	0.097314	-0.347261	0.506064	0.425315	0.665143	59.545837	-75.604190	-172.724869
56891		18.533089	1.450115	9.162051	0.495405	8.080342	9.257690	1.320227	-9.109446	-0.710756	-0.594238	0.069824	0.575684	0.180950	0.013211	0.100021	-0.328467	0.532082	0.446855	0.639781	81.196101	-77.003860	165.782301
56892		19.282621	2.257864	9.353778	1.777042	9.613757	9.384183	2.768250	-8.657091	0.377888	-0.565430	0.085449	0.641602	0.188489	0.021564	0.102064	-0.317352	0.555606	0.468419	0.609240	104.455804	-76.982661	143.549070
56893		21.027306	4.206271	8.855327	3.732429	10.341797	10.607931	3.703855	-8.543824	0.861357	-0.527588	0.096924	0.707764	0.206036	0.041197	0.098186	-0.309868	0.577227	0.490338	0.574769	125.565278	-75.335386	124.004389
56894		23.584969	9.032713	11.160601	9.358872	13.271722	12.506151	4.122783	-8.303669	0.839810	-0.494873	0.123779	0.764648	0.230522	0.088844	0.123095	-0.303486	0.596202	0.512047	0.538746	141.102073	-72.401953	110.297315
56895		23.345404	12.744859	17.785076	15.741287	20.047239	9.508541	4.005810	-8.355138	1.865874	-0.448975	0.159912	0.818848	0.224508	0.125848	0.189889	-0.298676	0.616798	0.529368	0.500122	153.380806	-68.934127	99.723016
56896		19.021873	11.965917	25.102559	17.919476	26.632075	0.386682	3.633539	-7.790768	2.676092	-0.398438	0.193604	0.868652	0.178616	0.117428	0.260283	-0.295656	0.637341	0.541252	0.461985	162.808811	-65.358312	91.754656
56897		12.966541	5.504800	25.255088	11.822610	26.347699	-8.425050	3.412880	-6.225899	2.985726	-0.365967	0.229492	0.891846	0.120907	0.052532	0.257317	-0.296306	0.654340	0.548415	0.428116	169.870119	-62.284045	86.065016
56898		23.991140	8.593330	21.105385	14.163760	27.614882	1.650435	4.014258	-4.144419	3.224482	-0.340576	0.271973	0.903564	0.234066	0.085414	0.217663	-0.304842	0.665740	0.552252	0.398595	176.040355	-60.160391	81.647637
56899		32.892371	15.306869	33.934989	23.605206	41.993210	2.315889	4.000671	0.878729	1.887256	-0.354980	0.298584	0.869385	0.328998	0.149364	0.340917	-0.324211	0.662990	0.552461	0.387451	-179.790088	-60.689579	79.485135
56900		18.781980	20.560474	28.441252	26.001099	29.983544	-6.785943	3.182188	4.874831	0.925729	-0.382568	0.318359	0.835205	0.193789	0.201982	0.282970	-0.349931	0.650596	0.547367	0.393271	-176.815705	-63.483154	78.179800
56901		2.166461	16.217365	18.369619	18.473530	14.998811	-16.042400	1.836646	6.183643	0.824758	-0.416748	0.331299	0.786133	0.026695	0.160585	0.184402	-0.374207	0.637197	0.537192	0.406662	-174.135387	-66.968426	76.384088
56902		-0.768310	13.767435	12.987471	15.039215	9.819184	-15.826901	0.827227	6.097776	0.806901	-0.443848	0.335449	0.745850	-0.004262	0.137113	0.130607	-0.394742	0.624995	0.524593	0.422328	-171.371638	-70.401264	73.924613
56903		-0.147489	12.275909	10.833646	13.391371	8.486335	-13.901166	-0.094224	5.919453	0.742388	-0.466797	0.346436	0.712158	0.001275	0.122811	0.108268	-0.411312	0.614414	0.510165	0.439374	-168.287637	-73.655887	70.623325
56904		1.505299	10.210443	9.680388	11.449548	8.172257	-11.337521	-0.746708	5.994116	0.528481	-0.489014	0.337402	0.670410	0.017666	0.102508	0.095918	-0.425342	0.603696	0.494301	0.458586	-164.534234	-76.953595	66.301319
56905		3.383688	7.927116	9.088421	9.394042	8.203376	-8.668223	-1.042907	6.311801	0.109892	-0.511719	0.341553	0.632568	0.036629	0.079759	0.089342	-0.437778	0.591471	0.477912	0.479699	-159.226116	-80.365772	60.277106
56906		4.516839	5.961491	8.153765	7.488499	7.513366	-6.673047	-1.033611	6.778232	-0.428313	-0.535889	0.330322	0.588379	0.048017	0.059929	0.079633	-0.449699	0.575924	0.461539	0.503055	-149.046157	-84.015345	49.410808
56907		4.036088	4.535428	7.096651	5.902875	6.374006	-6.389822	-0.853070	7.196585	-0.965557	-0.551514	0.323730	0.528809	0.043093	0.045448	0.069255	-0.461076	0.557201	0.445696	0.527533	-112.704526	-87.292017	12.491661
56908		2.558177	3.580958	6.154594	4.717252	5.338439	-7.269019	-0.619823	7.375026	-1.412180	-0.569092	0.310303	0.473877	0.028077	0.035806	0.060430	-0.471800	0.535431	0.430623	0.552523	-27.781855	-86.386902	-72.868902
56909		1.691317	2.581858	5.512677	3.575340	4.748935	-7.676636	-0.387682	7.264348	-1.732720	-0.579834	0.296875	0.425537	0.019122	0.025765	0.054409	-0.481246	0.512250	0.416767	0.576461	-5.602334	-82.621493	-95.363212
56910		1.700698	1.822491	5.531116	2.785938	4.732985	-7.238125	-0.123880	6.978411	-1.978664	-0.587891	0.272461	0.373047	0.019101	0.018077	0.054658	-0.489518	0.487750	0.404344	0.599147	2.032185	-78.618861	-103.164524
56911		2.741084	1.475573	6.460006	2.478468	5.274772	-5.637064	0.169540	6.617813	-2.177790	-0.584961	0.248291	0.318604	0.029686	0.014386	0.063655	-0.496456	0.462893	0.393734	0.619868	6.225166	-74.754291	-107.374613
56912		4.849858	1.612701	8.031940	2.540721	5.872077	-2.765482	0.444671	6.344345	-2.338564	-0.590820	0.221680	0.279541	0.051196	0.015363	0.078758	-0.502505	0.437016	0.384466	0.639290	9.225407	-70.935577	-110.242267
56913		7.607409	2.150608	10.093330	2.779890	6.335053	0.978524	0.627321	6.255345	-2.477790	-0.596680	0.197266	0.240479	0.079437	0.020224	0.098548	-0.507665	0.410516	0.375964	0.657575	11.539786	-67.163647	-112.338116
56914		10.167699	2.001143	11.563272	1.993352	6.071833	4.335063	0.736495	6.406890	-2.615935	-0.599854	0.164063	0.195068	0.105558	0.018230	0.112362	-0.512369	0.382159	0.367163	0.675739	13.422775	-63.217865	-113.942758
56915		11.409928	1.865392	12.523004	1.146738	5.562021	6.253262	0.827986	6.661132	-2.740575	-0.605713	0.135254	0.138428	0.118422	0.016543	0.121405	-0.516558	0.352339	0.357907	0.693489	14.959873	-59.142561	-115.158747
56916		11.913252	1.604613	13.018126	0.127111	4.802590	7.238634	0.883696	6.841567	-2.820182	-0.586914	0.113525	0.079346	0.123697	0.013760	0.126065	-0.520270	0.320773	0.347902	0.710907	16.244337	-54.893539	-116.082272
56917		13.077703	2.278097	13.639664	-0.238966	3.478901	8.893665	0.891054	6.878077	-2.876489	-0.572754	0.087158	0.020508	0.135668	0.020259	0.131880	-0.523052	0.288869	0.337562	0.727340	17.330624	-50.654505	-116.809027
56918		14.673268	3.760070	14.290118	-0.100301	1.536210	10.949730	0.783779	6.844448	-2.937012	-0.544434	0.054199	-0.020508	0.152035	0.034847	0.137898	-0.524727	0.256492	0.326380	0.743202	18.237908	-46.366771	-117.417947
56919		16.598595	5.806748	14.500219	0.309662	-1.298337	12.935233	0.545188	6.767601	-3.010351	-0.517090	0.039307	-0.066406	0.171612	0.055127	0.139411	-0.524906	0.224918	0.314304	0.758352	18.936135	-42.151593	-117.975352
56920		18.758938	8.511390	14.551494	1.101018	-4.824685	14.912128	0.183310	6.601111	-3.124332	-0.496094	0.017334	-0.083252	0.193553	0.081991	0.139267	-0.523316	0.194069	0.300829	0.773291	19.416995	-37.952017	-118.558171
56921		22.445630	10.865530	14.532531	0.830355	-9.613591	17.382741	-0.312507	6.376399	-3.336689	-0.480225	0.010986	-0.114258	0.230705	0.105060	0.137869	-0.519353	0.165183	0.285998	0.788157	19.655007	-33.879493	-119.274916
56922		25.139102	9.580085	12.998175	-2.526876	-13.751831	16.584840	-0.763306	6.043139	-3.710070	-0.475098	-0.009033	-0.133301	0.256881	0.091545	0.121919	-0.512429	0.137672	0.270031	0.803459	19.734895	-29.865813	-120.254332
56923		27.714846	1.251053	9.793727	-12.110094	-15.996573	11.698415	-0.596033	5.436555	-4.223218	-0.467285	-0.033203	-0.161377	0.279858	0.006896	0.090327	-0.502083	0.111669	0.256471	0.818331	20.036652	-26.123294	-121.631849
56924		32.064354	0.154275	4.993030	-15.950689	-22.154197	7.722348	0.166929	4.790744	-4.361737	-0.468506	-0.064209	-0.188965	0.321648	-0.005503	0.042230	-0.490216	0.085766	0.247282	0.831375	20.757077	-22.646893	-123.149680
56925		34.726404	3.978108	-1.674977	-14.446914	-29.351980	2.596648	0.167120	4.105745	-3.767691	-0.465332	-0.095215	-0.218994	0.347490	0.033254	-0.023853	-0.479511	0.063691	0.239447	0.841830	21.303049	-19.686264	-124.405889
56926		33.995248	5.573398	-9.190737	-12.589760	-33.038593	-5.233704	-0.800972	3.232738	-2.679064	-0.451172	-0.110596	-0.253906	0.339108	0.050804	-0.097603	-0.471740	0.048617	0.229001	0.850092	21.094450	-17.380446	-125.205998
56927		32.966475	-2.799841	-14.531639	-18.659420	-30.604581	-14.381723	-1.245869	2.350714	-1.738082	-0.442139	-0.116943	-0.260254	0.327663	-0.031772	-0.148985	-0.466682	0.039659	0.218566	0.856075	20.511985	-15.777615	-125.679009
56928		33.907107	-10.082410	-15.865300	-25.153242	-28.124370	-18.718942	-0.172886	1.774738	-1.485972	-0.430176	-0.132324	-0.281982	0.336884	-0.103471	-0.161560	-0.462195	0.030745	0.213885	0.860049	20.528392	-14.512905	-126.134129
56929		33.765354	-8.028551	-16.804427	-23.303284	-29.104316	-19.651374	1.126964	1.363965	-1.388276	-0.425293	-0.145508	-0.288086	0.335931	-0.081664	-0.170797	-0.457830	0.020881	0.215790	0.862201	21.286578	-13.508914	-126.613353
56930		30.065916	-3.057130	-17.255240	-17.037165	-28.712429	-19.629735	1.380216	0.608053	-0.853048	-0.429199	-0.163330	-0.282959	0.300002	-0.030656	-0.173677	-0.454936	0.014170	0.220380	0.862708	22.149118	-13.000954	-126.946772
56931		27.155873	-1.349558	-14.858025	-14.351363	-26.352202	-17.534181	0.696511	-0.448562	-0.065725	-0.431641	-0.158936	-0.276611	0.271887	-0.013069	-0.148017	-0.454206	0.014540	0.224418	0.862045	22.575773	-13.234186	-127.084020
56932		25.451311	-2.006205	-10.339652	-14.689986	-22.947381	-13.851681	0.144506	-1.233566	0.457265	-0.445068	-0.154785	-0.261230	0.255189	-0.019405	-0.101838	-0.454794	0.020098	0.227795	0.860737	22.662105	-13.992684	-127.115479
56933		21.829140	5.589576	-2.725664	-7.855982	-20.670567	-4.695802	-0.237040	-1.706822	0.719063	-0.461426	-0.141846	-0.241699	0.218311	0.056650	-0.025460	-0.455901	0.028892	0.230585	0.859157	22.521792	-15.063727	-127.111771
56934		3.355523	9.630623	-10.078128	7.178457	-11.490841	-14.502296	-3.547619	-3.240928	1.532468	-0.487305	-0.104248	-0.229736	0.034471	0.094767	-0.101918	-0.458089	0.052762	0.222462	0.859000	20.446881	-17.125142	-126.970599
56935		-6.448734	-3.785161	11.887663	-0.442690	11.979207	-2.498616	-2.937401	-5.580777	2.140995	-0.521973	-0.080566	-0.190674	-0.067383	-0.036829	0.117569	-0.460047	0.085896	0.221950	0.855404	18.731451	-20.558697	-126.882846
56936		18.598711	-0.609948	18.183675	-11.444785	-4.847060	13.039807	-2.509881	-5.549841	1.347113	-0.549805	-0.056396	-0.160645	0.180871	-0.002545	0.186950	-0.458343	0.116952	0.223319	0.852275	17.394002	-23.832504	-127.156131
56937		17.669362	-11.044517	11.981048	-18.760166	-1.401770	5.144419	-1.578196	-4.631455	0.842005	-0.563721	-0.041260	-0.125732	0.174303	-0.108737	0.124728	-0.455694	0.141297	0.226655	0.849121	16.634261	-26.521071	-127.504479
56938		17.432496	-10.940139	13.564108	-17.982979	0.194925	7.041558	-0.417596	-4.179678	0.753892	-0.572998	-0.030273	-0.086182	0.171847	-0.108462	0.139477	-0.453756	0.160946	0.233833	0.844704	16.531639	-28.954201	-127.808799
56939		13.098149	-2.637285	9.345807	-8.539374	-2.511957	3.847471	0.090379	-3.773203	0.873001	-0.580078	-0.019287	-0.053223	0.129301	-0.025849	0.095896	-0.453014	0.177757	0.242036	0.839404	16.659864	-31.178833	-127.968449
56940		17.893211	12.313698	13.611516	2.334849	-9.832660	13.743072	-0.285143	-3.594697	0.721684	-0.580811	-0.001709	-0.022949	0.176003	0.123973	0.139120	-0.451362	0.194492	0.248298	0.834742	16.610202	-33.287783	-128.195489
56941		26.054961	5.589952	11.757009	-7.259215	-12.663524	15.391198	-1.103848	-2.013202	1.063043	-0.572266	0.013916	-0.005615	0.259046	0.057936	0.119867	-0.452183	0.206778	0.247187	0.831668	15.797199	-34.575342	-127.878507
56942		11.561935	-4.024079	13.834180	-7.487845	2.697351	6.857813	-0.699184	-1.208272	0.849660	-0.559082	0.018555	-0.003662	0.114948	-0.039266	0.139176	-0.453476	0.214603	0.246142	0.829289	15.190831	-35.392485	-127.530686
56943		12.198846	-1.000314	11.818735	-5.295987	-0.342087	6.352977	-0.542808	0.204384	0.632881	-0.543457	0.023193	-0.003662	0.122139	-0.009296	0.118088	-0.455758	0.215852	0.242754	0.828712	14.605787	-35.382482	-127.063636
56944		6.544312	4.398644	9.606116	1.915720	-0.579733	2.452990	-0.574313	0.090981	0.390943	-0.534424	0.025635	-0.014893	0.065400	0.044390	0.095904	-0.456860	0.217444	0.239751	0.828563	14.104199	-35.408163	-126.779245
56945		7.757367	-0.386512	8.641061	-2.882405	0.242706	1.440162	-0.369462	0.236646	0.240329	-0.527832	0.025635	-0.026123	0.077680	-0.003612	0.086326	-0.457729	0.217684	0.237425	0.828690	13.770637	-35.319662	-126.574826
56946		6.125004	3.071321	8.436757	0.887446	-0.463811	1.009733	-0.187251	0.187480	0.124369	-0.518799	0.023682	-0.041504	0.061310	0.030830	0.084281	-0.458257	0.217670	0.236092	0.828783	13.586995	-35.252782	-126.456337
56947		7.148896	1.073954	7.748769	-1.422170	-0.627692	0.670009	-0.075744	0.108219	0.049295	-0.520996	0.023438	-0.045898	0.071528	0.010786	0.077445	-0.458500	0.217543	0.235484	0.828855	13.510052	-35.209045	-126.404367
56948		7.096258	1.813711	7.942838	-0.725708	-0.831928	0.935166	-0.004348	0.029469	0.013506	-0.516602	0.025879	-0.057129	0.070973	0.018144	0.079418	-0.458580	0.217634	0.235392	0.828812	13.490127	-35.215140	-126.387791
56949		7.015939	1.218240	7.587863	-1.249190	-0.711493	0.493450	-0.010052	0.019100	0.040384	-0.525635	0.025879	-0.068115	0.070164	0.012200	0.075871	-0.458753	0.217715	0.235270	0.828730	13.462782	-35.219816	-126.356540
56950		5.658426	1.947858	8.165347	0.126759	0.180192	0.308394	0.000207	0.014634	0.038049	-0.521240	0.028076	-0.074951	0.056587	0.019489	0.081649	-0.458922	0.217888	0.235205	0.828610	13.437119	-35.237679	-126.325617
56951		5.075245	2.226841	8.972775	0.770888	0.908912	0.666208	-0.008353	0.007236	0.057776	-0.521240	0.028076	-0.083740	0.050749	0.022287	0.089725	-0.459155	0.218034	0.235098	0.828473	13.404992	-35.251255	-126.284413
56952		5.263477	2.639841	8.684081	1.003829	0.423104	0.622806	-0.025893	-0.028739	0.089388	-0.530273	0.030273	-0.086182	0.052610	0.026433	0.086845	-0.459457	0.218505	0.234967	0.828218	13.348200	-35.299774	-126.225439
56953		5.235221	1.673740	8.576490	0.178219	0.830896	0.338321	-0.045252	-0.037131	0.098334	-0.532471	0.032471	-0.083984	0.052328	0.016783	0.085771	-0.459765	0.218967	0.234765	0.827982	13.282970	-35.343377	-126.163627
56954		4.580508	1.827145	8.981078	0.697298	1.433565	0.308476	-0.006868	-0.069109	0.066665	-0.536865	0.027832	-0.081543	0.045768	0.018290	0.089826	-0.459947	0.219532	0.234830	0.827714	13.249722	-35.410993	-126.126529
56955		5.041712	1.717909	8.749775	0.356762	1.054625	0.370097	0.018196	-0.152095	0.053359	-0.546143	0.034424	-0.081787	0.050346	0.017185	0.087538	-0.460002	0.220271	0.235204	0.827380	13.249243	-35.512748	-126.113878
56956		5.108769	1.853556	8.872967	0.473526	1.038584	0.529546	0.025636	-0.207416	0.052429	-0.548584	0.043213	-0.075439	0.050991	0.018538	0.088785	-0.459998	0.221313	0.235735	0.826953	13.253049	-35.655161	-126.108665
56957		5.708668	2.247694	8.051384	0.420055	-0.005440	0.301129	0.011829	-0.242783	0.094265	-0.550781	0.041016	-0.068848	0.056978	0.022499	0.080584	-0.460108	0.222489	0.236245	0.826431	13.240997	-35.812864	-126.082528
56958		5.696321	1.337718	7.911137	-0.362547	0.368153	0.013634	0.039263	-0.319048	0.106082	-0.555420	0.045410	-0.057861	0.056830	0.013392	0.079205	-0.460207	0.224021	0.237028	0.825737	13.241544	-36.024298	-126.058380
56959		4.474209	1.718485	9.013557	0.736334	1.686644	0.228666	0.130871	-0.462095	0.123229	-0.559814	0.038574	-0.048584	0.044523	0.017153	0.090250	-0.460307	0.225861	0.238500	0.824756	13.306792	-36.308120	-126.047924
56960		4.435066	1.709433	9.100112	0.783318	1.822296	0.260510	0.183663	-0.585868	0.121923	-0.552979	0.041016	-0.039795	0.044073	0.017038	0.091146	-0.460311	0.228175	0.240470	0.823544	13.409547	-36.670079	-126.056911
56961		4.749375	1.375174	8.739836	0.311309	1.618038	0.092717	0.232912	-0.668217	0.105801	-0.539551	0.043213	-0.033203	0.047194	0.013675	0.087572	-0.460199	0.230605	0.242852	0.822229	13.561823	-37.066445	-126.094233
56962		5.220312	1.637353	8.488074	0.302880	1.116113	0.219358	0.285004	-0.789738	0.088463	-0.513428	0.061279	-0.033936	0.051860	0.016275	0.085109	-0.459924	0.233473	0.245737	0.820715	13.759275	-37.536772	-126.163550
56963		5.130046	1.942044	8.747545	0.675859	1.283470	0.410013	0.324838	-0.881217	0.098086	-0.505859	0.103760	-0.041992	0.050905	0.019303	0.087732	-0.459610	0.236549	0.248986	0.819030	13.993104	-38.050344	-126.247220
56964		5.558378	2.277639	8.671291	0.788160	0.911077	0.666925	0.320351	-0.965604	0.134930	-0.538574	0.138672	-0.034424	0.055149	0.022674	0.087016	-0.459329	0.240100	0.252353	0.817121	14.214170	-38.624012	-126.320294
56965		6.478406	2.341742	7.981008	0.346125	-0.029990	0.724307	0.279285	-1.004875	0.188798	-0.560547	0.127441	-0.003174	0.064360	0.023367	0.080167	-0.459152	0.243887	0.255578	0.815094	14.400607	-39.218569	-126.368016
56966		6.740127	1.658150	7.348477	-0.426578	-0.189038	0.284845	0.262513	-1.048738	0.245803	-0.557617	0.109619	0.010742	0.066994	0.016567	0.073859	-0.459122	0.248034	0.258750	0.812856	14.552727	-39.853578	-126.382739
56967		6.788920	1.341139	7.380598	-0.672467	0.045422	0.282162	0.277421	-1.083740	0.235523	-0.552734	0.096191	0.013672	0.067472	0.013388	0.074191	-0.459004	0.252191	0.262076	0.810575	14.730164	-40.498394	-126.416916
56968		6.203432	1.566114	7.925466	-0.072456	0.767594	0.343729	0.281587	-1.057938	0.181167	-0.536865	0.092041	0.007080	0.061600	0.015605	0.079603	-0.458694	0.256231	0.265410	0.808395	14.928955	-41.128966	-126.485938
56969		5.474098	1.986918	8.333681	0.735483	1.399857	0.230333	0.274044	-1.041179	0.193254	-0.537109	0.096436	0.006836	0.054287	0.019807	0.083647	-0.458427	0.260152	0.268660	0.806218	15.124352	-41.743762	-126.549319
56970		5.259650	2.146156	8.635506	1.068165	1.767224	0.315327	0.273523	-1.078686	0.226040	-0.534668	0.096436	0.013672	0.052105	0.021402	0.086666	-0.458232	0.264335	0.271932	0.803868	15.304662	-42.391807	-126.595908
56971		5.271340	2.412328	8.721602	1.360482	1.814498	0.411208	0.286243	-1.146891	0.266962	-0.543701	0.096436	0.009033	0.052180	0.024068	0.087551	-0.458104	0.268734	0.275359	0.801311	15.489917	-43.075890	-126.632474
56972		5.695214	2.019962	8.447352	0.835864	1.665643	0.404888	0.297380	-1.265040	0.292940	-0.539307	0.098633	0.011230	0.056387	0.020156	0.084861	-0.457920	0.273676	0.279042	0.798465	15.681585	-43.836156	-126.674319
56973		5.920310	1.814245	8.138845	0.560237	1.537746	0.281964	0.324186	-1.395569	0.306051	-0.541504	0.094238	0.013672	0.058605	0.018100	0.081828	-0.457614	0.279012	0.283112	0.795355	15.911364	-44.663233	-126.742529
56974		6.310602	1.563730	8.001683	0.212818	1.468201	0.389893	0.353581	-1.565728	0.301598	-0.557373	0.100586	0.022217	0.062453	0.015590	0.080535	-0.457069	0.284999	0.287661	0.791906	16.186014	-45.589616	-126.854692
56975		7.075841	1.372260	7.651909	-0.271916	1.033776	0.644685	0.385868	-1.776991	0.294396	-0.561768	0.098389	0.026855	0.070055	0.013678	0.077170	-0.456195	0.291651	0.292824	0.788086	16.533418	-46.623982	-127.034910
56976		6.637057	1.286319	7.652196	-0.085206	1.496729	0.287313	0.407150	-2.037970	0.284484	-0.561768	0.098389	0.037842	0.065568	0.012800	0.077219	-0.454896	0.299302	0.298634	0.783777	16.950924	-47.805283	-127.295993
56977		6.529848	1.047648	7.503941	-0.197568	1.747311	0.033576	0.443798	-2.300638	0.263404	-0.570801	0.098145	0.053467	0.064416	0.010394	0.075807	-0.453110	0.307767	0.305197	0.778990	17.479499	-49.119004	-127.667170
56978		6.037974	0.528208	8.007606	-0.272601	2.817995	-0.177500	0.496066	-2.552320	0.177661	-0.582031	0.097900	0.071045	0.059347	0.005135	0.080851	-0.450627	0.316975	0.312596	0.773787	18.168343	-50.558193	-128.206183
56979		5.657737	0.784227	8.582815	0.317228	3.600556	-0.157761	0.553365	-2.856380	0.061693	-0.593018	0.091064	0.091309	0.055341	0.007620	0.086646	-0.447213	0.326927	0.321047	0.768146	19.094199	-52.130262	-128.990245
56980		5.419496	1.565946	8.644728	1.223887	3.735487	-0.268405	0.576786	-3.196768	0.044826	-0.597412	0.091064	0.117920	0.052800	0.015420	0.087343	-0.443134	0.338083	0.330273	0.761743	20.198310	-53.879138	-129.967930
56981		4.962340	1.976287	8.871399	1.930725	4.268009	-0.578143	0.568812	-3.608624	0.106104	-0.606201	0.084229	0.144775	0.048001	0.019535	0.089646	-0.438446	0.350770	0.340204	0.754312	21.486417	-55.843056	-131.148692
56982		5.153073	2.086693	8.517595	2.015765	4.183146	-0.763862	0.541601	-4.099600	0.172325	-0.612793	0.079590	0.176025	0.049752	0.020678	0.086264	-0.432976	0.365391	0.350831	0.745613	23.011607	-58.068810	-132.606083
56983		4.758152	2.312030	8.793943	2.590072	4.837422	-1.141423	0.485256	-4.658008	0.251396	-0.617188	0.077148	0.218262	0.045487	0.022963	0.089071	-0.426487	0.382129	0.362171	0.735472	24.893267	-60.576445	-134.474247
56984		4.714379	2.358966	9.275878	2.965100	5.631779	-1.251333	0.410952	-5.323380	0.215177	-0.621094	0.065918	0.256348	0.044627	0.023446	0.094017	-0.418271	0.401196	0.374459	0.723790	27.436516	-63.382085	-137.095052
56985		4.160511	3.923855	8.771874	4.650315	5.181166	-1.992753	0.330447	-6.166098	0.140345	-0.623535	0.070068	0.309326	0.038846	0.039120	0.089010	-0.407672	0.422969	0.388089	0.710131	31.178647	-66.513569	-141.018930
56986		6.201325	3.184201	7.739138	3.310595	4.483735	-1.015918	0.248750	-7.165123	0.020801	-0.623291	0.061035	0.363037	0.059185	0.031750	0.079585	-0.394109	0.447768	0.403243	0.693958	37.054247	-69.935498	-147.195303
56987		9.817394	3.883922	7.639702	3.217548	4.163569	2.105987	0.373040	-8.184556	0.010277	-0.618408	0.056641	0.436279	0.094936	0.038697	0.080399	-0.378120	0.475147	0.420298	0.674248	46.746410	-73.451642	-157.175467
56988		18.383769	5.838239	8.205212	3.377595	4.262411	10.424644	-0.230906	-8.701869	-1.305388	-0.593018	0.038818	0.501221	0.180416	0.057298	0.089887	-0.354525	0.501795	0.438618	0.655842	63.046452	-75.742260	-174.213280
56989		20.147928	6.328568	8.932664	4.262937	6.400009	11.781488	1.184617	-8.856895	-0.012131	-0.577637	0.047852	0.572021	0.197256	0.062708	0.098499	-0.337647	0.528276	0.457784	0.630359	84.115521	-77.199216	164.825590
56990		21.139753	4.928222	9.757162	3.933689	9.446559	11.664757	1.977162	-8.733284	1.440264	-0.546875	0.068115	0.644531	0.206500	0.049753	0.107153	-0.327076	0.555280	0.474433	0.599665	107.996912	-77.505247	141.522889
56991		19.819503	5.748891	11.712078	6.570729	12.388150	9.318742	2.902829	-8.339860	2.522820	-0.509766	0.097168	0.709961	0.192330	0.058153	0.126065	-0.322530	0.580998	0.489259	0.564837	130.852503	-76.394905	119.780308
56992		26.149707	9.429287	11.886447	10.330280	14.375332	14.682892	2.941192	-8.246642	1.927385	-0.474609	0.124023	0.773438	0.255352	0.094908	0.130873	-0.316030	0.603717	0.504718	0.530010	147.239312	-73.529156	104.565162
56993		23.784182	11.922553	18.465514	15.903435	20.797949	9.228960	3.212034	-8.382791	2.418397	-0.428467	0.155518	0.821045	0.228336	0.118935	0.196273	-0.310592	0.626363	0.518619	0.492175	159.374729	-69.837400	93.726920
56994		18.369220	11.482973	25.850572	18.290009	26.902478	-0.952051	3.289747	-7.903389	2.976231	-0.387451	0.200439	0.857178	0.171550	0.113094	0.267317	-0.307426	0.647782	0.529081	0.453807	168.401589	-65.957417	86.021799
56995		8.673584	3.655362	23.075093	9.617214	22.908404	-11.681646	3.539363	-6.387867	3.107054	-0.348145	0.236328	0.889404	0.078758	0.033696	0.233965	-0.308745	0.664600	0.536443	0.418585	175.178565	-62.576939	80.749893
56996		22.398533	4.602834	17.785986	10.176838	24.742166	1.287735	4.791024	-5.221748	3.324883	-0.307373	0.285645	0.898682	0.218464	0.045321	0.184704	-0.317422	0.676510	0.543021	0.383021	-178.468857	-59.651608	76.628800
56997		34.653028	16.786452	31.734605	25.592645	40.780405	3.281914	5.098219	-0.869280	2.144469	-0.313477	0.330078	0.879395	0.343366	0.163371	0.323046	-0.336230	0.675696	0.546696	0.362641	-173.537411	-59.059357	74.288213
56998		23.968908	23.209251	29.193857	29.274786	32.955710	-5.099651	4.218657	3.667889	0.822188	-0.338623	0.347656	0.843262	0.244108	0.226926	0.292312	-0.361931	0.663848	0.545138	0.362127	-169.786261	-61.092255	72.746366
56999		10.113168	22.100217	22.502532	25.046776	21.441123	-12.950661	2.174654	6.096767	0.501984	-0.372803	0.358398	0.798340	0.107424	0.218825	0.224202	-0.386425	0.649951	0.536095	0.375288	-166.605753	-64.443330	70.568100
57000		0.839686	16.183725	14.506840	17.195793	11.611176	-16.330472	0.452865	6.751424	0.394877	-0.404297	0.360352	0.765137	0.012975	0.161531	0.145048	-0.406587	0.636943	0.522273	0.395249	-163.594301	-68.156057	67.561831
57001		-1.014696	12.381090	10.576919	12.988321	8.049758	-15.527731	-0.758178	6.563273	0.382458	-0.431396	0.362305	0.729492	-0.006917	0.124196	0.105561	-0.421789	0.626225	0.505939	0.417087	-160.274170	-71.655301	63.562030
57002		0.158425	8.955192	8.804744	9.781701	7.226200	-12.946028	-1.415194	6.422796	0.353324	-0.456055	0.359863	0.691895	0.004237	0.090177	0.087303	-0.434191	0.616180	0.488026	0.440035	-155.869347	-75.032963	58.119992
57003		2.037294	6.052743	7.795340	7.233858	7.009839	-10.058503	-1.537445	6.525823	0.084653	-0.473877	0.355469	0.649658	0.022865	0.061130	0.076766	-0.445270	0.605086	0.469953	0.463411	-149.301212	-78.327188	50.464813
57004		3.068706	4.520169	6.969401	5.871990	6.433340	-8.223069	-1.318773	6.781512	-0.358456	-0.500488	0.341797	0.614746	0.033100	0.045597	0.068299	-0.456202	0.590887	0.452559	0.487774	-137.863068	-81.632276	38.090670
57005		3.656531	3.845175	6.504373	5.267266	5.905404	-7.016812	-0.987874	7.057857	-0.885800	-0.518311	0.339600	0.561523	0.038996	0.038599	0.063506	-0.466754	0.573613	0.436389	0.512517	-113.828279	-84.469673	13.316955
57006		3.505504	3.954397	6.155860	5.302326	5.262476	-6.652863	-0.682961	7.266586	-1.388629	-0.540283	0.326172	0.519775	0.037531	0.039496	0.060090	-0.476855	0.552918	0.421305	0.537953	-65.610950	-85.337064	-35.456943
57007		3.506064	4.478720	6.161385	5.777278	4.873254	-6.185227	-0.488503	7.304150	-1.818834	-0.564697	0.314697	0.464844	0.037682	0.044601	0.060160	-0.485620	0.530288	0.407318	0.563080	-28.038495	-83.117298	-73.485496
57008		4.121545	4.610769	6.292624	5.861949	4.559600	-5.052783	-0.388445	7.234180	-2.164217	-0.577881	0.303711	0.398682	0.043949	0.045762	0.061280	-0.492965	0.505813	0.394034	0.588112	-11.206769	-79.558167	-90.720134
57009		4.913660	4.699733	6.842904	5.909341	4.512452	-3.670025	-0.307669	7.116661	-2.443807	-0.587646	0.263672	0.346924	0.052097	0.046476	0.066538	-0.498638	0.480552	0.381504	0.612278	-2.797214	-75.679622	-99.508333
57010		5.938193	4.682095	7.925345	5.847623	4.783454	-1.883935	-0.214367	6.931588	-2.616205	-0.588867	0.230469	0.297119	0.062685	0.046099	0.077069	-0.503069	0.454258	0.369502	0.635641	2.313371	-71.669803	-104.951952
57011		7.893580	3.993476	8.591216	4.829498	4.346125	0.665116	-0.019041	6.818350	-2.730351	-0.596680	0.201660	0.249268	0.082337	0.038834	0.083140	-0.506578	0.427370	0.358258	0.657560	5.764440	-67.670412	-108.645316
57012		9.784542	3.554274	9.443312	3.877150	3.789399	3.151287	0.293954	6.806676	-2.853805	-0.593506	0.170654	0.208252	0.101476	0.033976	0.091071	-0.509737	0.398534	0.347733	0.678543	8.471416	-63.553403	-111.424275
57013		11.379289	3.078463	10.140848	2.688115	3.001535	5.202416	0.657954	6.865766	-2.958218	-0.590332	0.142090	0.149414	0.117621	0.028738	0.097511	-0.512566	0.368229	0.338132	0.698105	10.712828	-59.401393	-113.548664
57014		12.875252	3.592766	11.158530	2.301396	2.068578	7.318333	1.030918	6.891762	-3.021919	-0.571777	0.126953	0.092285	0.133015	0.033379	0.107226	-0.515250	0.335833	0.329267	0.716461	12.707620	-55.138199	-115.210119
57015		15.117120	4.858822	12.390930	2.252918	0.503386	10.190944	1.234315	6.918033	-3.037212	-0.557373	0.100586	0.042236	0.156048	0.045499	0.118854	-0.517435	0.302717	0.320741	0.733313	14.423048	-50.886589	-116.475494
57016		17.176421	6.597782	13.020194	2.364747	-1.883189	12.518991	1.225121	6.963571	-3.002213	-0.536377	0.076416	0.005371	0.177122	0.062571	0.124486	-0.519103	0.268646	0.311392	0.749264	15.837709	-46.540633	-117.416846
57017		18.298683	8.135487	12.925772	2.377988	-4.401145	13.485815	1.042509	6.883182	-2.927321	-0.510986	0.059082	-0.020508	0.188456	0.077970	0.123246	-0.519869	0.235499	0.301160	0.763924	16.919078	-42.293843	-118.112691
57018		20.928509	9.853273	13.556948	1.979511	-7.596888	15.818347	0.780606	6.577758	-2.915020	-0.501709	0.048096	-0.040039	0.215000	0.094914	0.128935	-0.519236	0.203466	0.290144	0.777697	17.770124	-38.153927	-118.730428
57019		26.071629	10.349390	13.827957	-0.709520	-12.653720	18.771053	0.515867	6.380740	-3.112054	-0.507813	0.028320	-0.077148	0.266519	0.099034	0.130096	-0.516578	0.172767	0.278584	0.791006	18.469952	-34.134666	-119.421227
57020		28.957348	8.958486	12.685114	-4.496792	-16.600025	18.177417	0.364630	6.249384	-3.616791	-0.515869	0.003906	-0.111816	0.294904	0.084063	0.117847	-0.510957	0.141636	0.266700	0.804819	19.189050	-30.034894	-120.372429
57021		29.533092	-0.738835	10.662049	-14.754686	-16.170190	12.699904	0.592456	5.898378	-4.364901	-0.511963	-0.042725	-0.158936	0.298043	-0.014173	0.097821	-0.501328	0.110567	0.256943	0.818795	20.173341	-26.020239	-121.751096
57022		33.162687	-4.425064	6.408702	-20.761217	-20.568271	7.673600	1.621440	5.648932	-4.882148	-0.494385	-0.097900	-0.203369	0.332033	-0.052821	0.054306	-0.489117	0.076750	0.251809	0.831544	21.752040	-21.960636	-123.341503
57023		34.611466	0.597776	1.109070	-17.847210	-26.660057	3.216239	1.627109	5.397660	-4.622220	-0.470459	-0.137451	-0.237549	0.346260	-0.002064	0.001751	-0.476996	0.044556	0.246994	0.842309	23.143547	-18.100827	-124.690714
57024		30.229245	3.149482	-7.707870	-12.791453	-28.470369	-6.866682	0.304771	4.682799	-3.810287	-0.440186	-0.170166	-0.276123	0.300907	0.025877	-0.084093	-0.466563	0.019180	0.237736	0.851723	23.593987	-14.744509	-125.669090
57025		24.838642	-1.853283	-16.409007	-12.504563	-25.358460	-19.304993	-1.231363	3.036601	-2.585841	-0.421875	-0.181152	-0.297852	0.245582	-0.022745	-0.167702	-0.458942	0.006135	0.225617	0.859320	23.048354	-12.570123	-126.361606
57026		30.198300	-11.956720	-17.782520	-23.545008	-24.742867	-24.112282	-1.150299	1.472898	-1.573028	-0.414795	-0.189941	-0.302002	0.299708	-0.122959	-0.179337	-0.453761	0.000529	0.217252	0.864235	22.495716	-11.424437	-126.876457
57027		37.285464	-15.851014	-17.683445	-30.920954	-27.877884	-24.673527	0.290144	0.888797	-1.295158	-0.407715	-0.200928	-0.310547	0.371027	-0.160658	-0.178718	-0.449119	-0.005285	0.216497	0.866829	22.754133	-10.678782	-127.375880
57028		32.251294	-8.586561	-17.885921	-22.232255	-27.448622	-23.453590	1.213948	0.363480	-1.002726	-0.400146	-0.222900	-0.312012	0.321754	-0.086390	-0.179968	-0.445112	-0.010721	0.220858	0.867745	23.529265	-10.253719	-127.829689
57029		26.810185	-2.671145	-15.227254	-15.001466	-25.192774	-19.715485	0.565529	-0.842055	-0.200427	-0.411377	-0.220947	-0.298584	0.268713	-0.026552	-0.151217	-0.443279	-0.008456	0.225183	0.867597	23.905182	-10.659096	-128.135250
57030		25.568667	-0.997372	-9.377702	-14.359956	-22.841697	-13.648815	-0.564827	-1.993986	0.427584	-0.429688	-0.210205	-0.288086	0.256625	-0.009686	-0.091194	-0.442884	0.001951	0.227143	0.867327	23.625889	-11.805006	-128.376802
57031		26.432331	11.139599	-8.485951	-5.892852	-29.220285	-7.326146	-2.909677	-3.626901	1.253381	-0.464844	-0.172852	-0.269531	0.265124	0.111852	-0.081681	-0.444045	0.025635	0.222489	0.867563	21.988149	-14.008760	-128.525202
57032		-10.714697	-1.833175	-8.532019	5.964628	5.422283	-21.033150	-4.223735	-5.747941	2.720780	-0.506592	-0.131104	-0.244385	-0.104366	-0.021603	-0.087913	-0.448582	0.063022	0.216450	0.864842	19.484376	-17.649807	-128.223397
57033		13.329321	0.355541	26.997849	-8.782365	2.058891	18.906123	-3.729612	-7.137036	2.721030	-0.550537	-0.093994	-0.203613	0.123443	0.010370	0.274351	-0.451043	0.105215	0.215285	0.859734	17.274349	-22.031689	-128.021705
57034		27.615737	-6.426770	11.758629	-20.781909	-11.054836	9.880463	-3.019544	-5.211411	0.991092	-0.573975	-0.072266	-0.179932	0.273261	-0.061052	0.125671	-0.447891	0.135514	0.213457	0.857593	15.674298	-25.064780	-128.352066
57035		12.743337	-9.405654	12.469021	-14.122186	2.139431	4.408215	-1.788793	-4.961468	0.318922	-0.603760	-0.054932	-0.145264	0.124423	-0.092718	0.128635	-0.442593	0.161175	0.216613	0.855110	14.931337	-27.864858	-128.993004
57036		15.520483	-12.631953	13.911695	-17.612434	3.330047	6.698130	-1.023217	-4.667716	0.595456	-0.615479	-0.039551	-0.112549	0.152266	-0.125137	0.143336	-0.439128	0.184110	0.222032	0.850866	14.535864	-30.551053	-129.393608
57037		13.671381	-7.118016	11.555071	-11.796168	1.049121	5.379436	-0.272045	-3.990647	0.963541	-0.638428	-0.024414	-0.077637	0.134711	-0.070368	0.118348	-0.438449	0.202803	0.228707	0.845178	14.398891	-32.912875	-129.436351
57038		30.664456	7.273966	17.133012	-7.440563	-13.565728	22.548552	-0.215315	-3.096296	1.222161	-0.645996	-0.000244	-0.040771	0.303491	0.074789	0.175965	-0.439795	0.217874	0.233298	0.839454	14.103618	-34.819841	-129.142050
57039		21.364219	8.090907	16.756712	-1.381950	-7.965277	17.340764	-1.030567	-0.348088	1.039089	-0.635498	0.019775	-0.019287	0.212923	0.082880	0.167514	-0.442609	0.222896	0.228605	0.837946	13.137106	-35.163799	-128.492543
57040		8.564490	-6.694394	11.106561	-8.051910	4.257978	2.779103	-1.093145	0.622917	0.795615	-0.626953	0.031006	-0.010742	0.086255	-0.065994	0.111160	-0.445420	0.223775	0.221756	0.838063	12.135256	-34.933456	-127.851257
57041		9.133876	2.771005	7.567230	-0.887493	-3.028945	1.951934	-0.526146	0.388500	0.332000	-0.613770	0.040039	-0.004395	0.091439	0.028060	0.075421	-0.446645	0.223775	0.218318	0.838314	11.668140	-34.764785	-127.567594
57042		8.428941	-0.382316	8.057634	-3.086051	-0.754702	1.413409	-0.240078	0.255354	0.134235	-0.595947	0.049072	-0.004883	0.084395	-0.003670	0.080473	-0.447215	0.223562	0.216587	0.838516	11.447805	-34.655564	-127.436788
57043		6.952680	1.096181	7.887573	-1.115005	-0.664052	0.678782	-0.126931	0.128062	0.103085	-0.580322	0.049316	-0.002441	0.069572	0.011048	0.078824	-0.447639	0.223509	0.215659	0.838543	11.320942	-34.605193	-127.347796
57044		6.964705	0.875066	7.799476	-1.314684	-0.619617	0.579250	-0.045954	0.008128	0.028918	-0.564941	0.056152	-0.009521	0.069649	0.008779	0.077990	-0.447716	0.223788	0.215410	0.838491	11.272055	-34.623014	-127.323247
57045		5.444267	1.707036	8.900673	0.355413	0.572756	0.738219	-0.024078	-0.036046	0.005774	-0.549072	0.054199	-0.011475	0.054426	0.017083	0.089014	-0.447670	0.224088	0.215389	0.838441	11.254644	-34.653815	-127.323158
57046		5.919122	1.109331	8.730672	-0.411122	0.473891	0.774931	-0.022410	-0.054506	0.000872	-0.540039	0.054443	-0.018311	0.059167	0.011103	0.087322	-0.447588	0.224548	0.215411	0.838356	11.234882	-34.703688	-127.326214
57047		6.383919	1.317432	8.426443	-0.517656	-0.099517	0.827666	0.012847	-0.072961	-0.023729	-0.521973	0.052246	-0.029297	0.063810	0.013161	0.084289	-0.447420	0.224888	0.215660	0.838291	11.252970	-34.751937	-127.351303
57048		6.239482	1.446403	8.339626	-0.348950	-0.107696	0.696319	0.052982	-0.091062	-0.047673	-0.515381	0.054688	-0.044678	0.062360	0.014427	0.083428	-0.447180	0.225279	0.216133	0.838192	11.298115	-34.816870	-127.392526
57049		6.595946	1.710973	8.002781	-0.363692	-0.648454	0.671855	0.074490	-0.143819	-0.035448	-0.510742	0.052490	-0.058105	0.065905	0.017068	0.080082	-0.446955	0.225766	0.216812	0.838006	11.361785	-34.903577	-127.435487
57050		5.901846	1.768473	8.389489	0.106168	0.014850	0.595544	0.108350	-0.186183	-0.036477	-0.510986	0.054932	-0.064697	0.058944	0.017629	0.083959	-0.446721	0.226444	0.217718	0.837713	11.442089	-35.023197	-127.482444
57051		5.761793	1.156521	8.495380	-0.321259	0.502895	0.499980	0.143889	-0.242805	-0.058615	-0.515625	0.063721	-0.084961	0.057518	0.011487	0.085032	-0.446368	0.227165	0.218934	0.837388	11.563005	-35.162725	-127.555566
57052		5.554258	1.166127	8.757655	-0.158488	0.818117	0.589793	0.190514	-0.314726	-0.080897	-0.515869	0.065918	-0.089600	0.055409	0.011555	0.087675	-0.445899	0.228147	0.220519	0.836955	11.719126	-35.349062	-127.651945
57053		5.336426	1.842184	8.910514	0.554197	0.748919	0.694460	0.198132	-0.397520	-0.056460	-0.520508	0.070313	-0.096436	0.053192	0.018318	0.089229	-0.445444	0.229395	0.222304	0.836384	11.884271	-35.575300	-127.747070
57054		4.578029	1.802372	9.156349	0.954094	1.451912	0.435581	0.230115	-0.511012	-0.017825	-0.529541	0.070313	-0.094238	0.045548	0.017914	0.091701	-0.445062	0.231175	0.224416	0.835533	12.056110	-35.878401	-127.830374
57055		4.667398	1.563377	9.452689	0.778878	1.759201	0.669678	0.306024	-0.779284	0.006243	-0.531982	0.079102	-0.105469	0.046305	0.015490	0.094732	-0.444558	0.233843	0.227425	0.834244	12.293492	-36.325522	-127.941717
57056		5.256582	1.374757	8.855021	0.239180	1.223776	0.501248	0.380943	-0.941208	-0.014048	-0.543457	0.085693	-0.092529	0.052149	0.013575	0.088822	-0.443868	0.237075	0.231109	0.832686	12.592976	-36.868614	-128.092353
57057		5.671042	1.039592	8.426109	-0.307290	0.985536	0.344767	0.462132	-1.084525	-0.040175	-0.552490	0.087646	-0.088135	0.056254	0.010189	0.084591	-0.442981	0.240603	0.235489	0.830917	12.975033	-37.479422	-128.292335
57058		5.908971	0.983232	8.457118	-0.441347	1.011199	0.492005	0.546815	-1.198283	-0.077322	-0.565918	0.087402	-0.081543	0.058585	0.009578	0.084950	-0.441896	0.244443	0.240490	0.828939	13.432476	-38.155663	-128.541443
57059		5.446628	1.390057	8.696009	0.198198	1.380785	0.447478	0.596545	-1.262241	-0.117386	-0.561523	0.092041	-0.066162	0.053924	0.013609	0.087342	-0.440603	0.248298	0.245893	0.826894	13.958568	-38.852315	-128.843182
57060		5.742379	2.129762	8.368980	0.643196	0.778616	0.508596	0.570499	-1.287825	-0.107170	-0.561523	0.092041	-0.057373	0.056894	0.021027	0.084118	-0.439273	0.252395	0.251201	0.824763	14.470620	-39.570202	-129.149729
57061		5.619654	1.776606	8.004449	0.356052	0.929409	0.077512	0.477604	-1.222369	-0.095221	-0.544189	0.107666	-0.051270	0.055714	0.017548	0.080428	-0.437929	0.256350	0.255974	0.822788	14.933275	-40.243726	-129.449890
57062		5.158229	1.529930	7.785046	0.353436	1.306824	-0.446744	0.496501	-1.252093	-0.101594	-0.529541	0.138916	-0.058838	0.051101	0.015079	0.078209	-0.436535	0.260442	0.260866	0.820705	15.415664	-40.938267	-129.767070
57063		5.698673	2.194121	7.908909	0.709733	0.881969	0.114890	0.479671	-1.251586	-0.084383	-0.549316	0.185303	-0.051758	0.056499	0.021727	0.079496	-0.435161	0.264503	0.265674	0.818591	15.897629	-41.625655	-130.086413
57064		5.737937	2.413558	7.523850	0.832946	0.627171	-0.103467	0.447813	-1.251615	-0.013181	-0.588135	0.204834	-0.030273	0.056908	0.023963	0.075649	-0.434026	0.268788	0.270224	0.816305	16.328717	-42.329552	-130.359790
57065		6.315260	2.374905	7.463398	0.548574	0.405004	0.225172	0.409913	-1.224661	0.061649	-0.598633	0.184570	-0.005127	0.062687	0.023615	0.075067	-0.433153	0.273062	0.274470	0.813930	16.712809	-43.022245	-130.585191
57066		7.139051	2.425372	6.425693	0.031223	-0.663253	0.071430	0.391960	-1.214771	0.150791	-0.595703	0.166748	0.008789	0.070980	0.024181	0.064736	-0.432625	0.277515	0.278466	0.811343	17.039275	-43.730136	-130.745377
57067		7.154158	2.988225	6.649147	0.605675	-0.663869	0.361480	0.363689	-1.179588	0.264953	-0.588867	0.164795	0.013184	0.071108	0.029855	0.066966	-0.432541	0.281965	0.282123	0.808586	17.296980	-44.430621	-130.821402
57068		6.786311	2.698780	7.306936	0.729411	0.243413	0.489555	0.315269	-1.109229	0.346356	-0.582031	0.164795	0.013184	0.067410	0.026989	0.073487	-0.432810	0.286407	0.285286	0.805766	17.467473	-45.113228	-130.818153
57069		6.590066	2.441191	7.121997	0.619358	0.438891	0.163983	0.278030	-1.038298	0.374038	-0.579834	0.164795	0.020020	0.065484	0.024435	0.071595	-0.433214	0.290604	0.288117	0.803034	17.597914	-45.754987	-130.782649
57070		6.698950	2.156626	7.300346	0.425297	0.734606	0.291790	0.238170	-1.021648	0.381873	-0.577637	0.166992	0.024170	0.066574	0.021606	0.073370	-0.433611	0.294889	0.290710	0.800319	17.691562	-46.395658	-130.733869
57071		6.704891	1.933571	7.258343	0.282415	0.896441	0.211953	0.222657	-1.040789	0.364782	-0.577881	0.169189	0.021973	0.066635	0.019376	0.072952	-0.433865	0.299183	0.293319	0.797631	17.797462	-47.037248	-130.708993
57072		6.332748	2.151705	7.678002	0.794989	1.393008	0.242738	0.217430	-1.105641	0.352784	-0.588867	0.166748	0.031006	0.062864	0.021544	0.077152	-0.433964	0.303783	0.296033	0.794830	17.913315	-47.718409	-130.707488
57073		6.482961	2.107803	7.646469	0.750464	1.417052	0.304996	0.208919	-1.188599	0.359996	-0.584473	0.169189	0.035400	0.064336	0.021114	0.076870	-0.433929	0.308667	0.298894	0.791892	18.045406	-48.439771	-130.728926
57074		6.470376	1.818390	7.390255	0.518441	1.475815	0.053401	0.210869	-1.357103	0.357410	-0.588867	0.166748	0.037598	0.064168	0.018221	0.074358	-0.433627	0.314254	0.302094	0.788639	18.209422	-49.258153	-130.796300
57075		7.059583	2.139070	7.172773	0.577882	1.012408	0.409872	0.250731	-1.582870	0.367974	-0.600342	0.168945	0.052979	0.069986	0.021429	0.072310	-0.433050	0.320583	0.305930	0.784921	18.450363	-50.195290	-130.928469
57076		7.092573	1.621304	7.232654	0.217647	1.422681	0.344583	0.268182	-1.790940	0.372474	-0.604736	0.171143	0.057373	0.070244	0.016247	0.072979	-0.432180	0.327728	0.310228	0.780752	18.745686	-51.251186	-131.121063
57077		6.747525	0.972135	7.462890	-0.058114	2.214811	0.049188	0.291815	-2.001900	0.308583	-0.609131	0.168701	0.072998	0.066709	0.009715	0.075313	-0.430717	0.335460	0.315174	0.776282	19.171240	-52.403340	-131.454207
57078		6.712504	0.505908	7.683169	-0.301063	2.794102	0.007835	0.329982	-2.237784	0.180557	-0.622314	0.159668	0.088867	0.066255	0.004992	0.077585	-0.428414	0.343835	0.320926	0.771522	19.787075	-53.661495	-131.997580
57079		6.152847	0.654519	8.027050	0.239196	3.464668	-0.291523	0.372163	-2.564569	0.070161	-0.628906	0.155029	0.113281	0.060490	0.006416	0.081063	-0.425154	0.353099	0.327710	0.766271	20.653548	-55.064164	-132.805654
57080		6.116765	1.239509	8.078243	0.892745	3.518759	-0.272101	0.412495	-2.963474	0.019437	-0.633301	0.154785	0.139893	0.059960	0.012233	0.081702	-0.421052	0.363700	0.335487	0.760188	21.768190	-56.665471	-133.875626
57081		5.748456	1.146318	7.908385	1.027099	3.841128	-0.808115	0.447316	-3.462145	0.007636	-0.637695	0.150391	0.168945	0.056103	0.011287	0.080088	-0.416002	0.375959	0.344413	0.752979	23.211516	-58.509947	-135.285697
57082		5.528381	1.353208	8.624148	1.638671	4.740560	-0.779563	0.409335	-4.044875	-0.038003	-0.642090	0.145752	0.206787	0.053527	0.013344	0.087363	-0.409578	0.390315	0.354330	0.744547	25.080846	-60.629615	-137.189686
57083		5.795352	1.502600	8.115955	1.700736	4.512422	-0.956084	0.387801	-4.723254	-0.108950	-0.641602	0.136719	0.244873	0.056023	0.014836	0.082527	-0.401422	0.406883	0.365559	0.734625	27.652449	-63.036975	-139.857992
57084		4.838278	1.889336	8.193019	2.597594	5.076290	-1.966392	0.332610	-5.568348	-0.182036	-0.641357	0.127686	0.298340	0.046094	0.018713	0.083266	-0.391100	0.426288	0.378139	0.722724	31.297980	-65.777266	-143.695044
57085		5.713449	2.480194	8.469852	3.154848	5.295695	-1.298098	0.338066	-6.589449	-0.415565	-0.632080	0.121094	0.349609	0.054354	0.024542	0.086562	-0.377621	0.448496	0.392922	0.708425	37.033612	-68.780818	-149.704138
57086		7.511578	3.755276	8.183614	3.916065	4.762942	0.158060	0.457761	-7.675033	-0.610054	-0.622559	0.107666	0.407959	0.072015	0.037138	0.084725	-0.361136	0.473378	0.410056	0.690904	46.194081	-71.858340	-159.155038
57087		15.357418	5.536828	9.212718	3.936470	5.107758	7.783230	0.120639	-8.276920	-1.879656	-0.612793	0.087646	0.479492	0.150098	0.053888	0.098421	-0.337607	0.497543	0.429488	0.673805	60.751955	-73.840285	-174.311831
57088		16.547837	5.513934	9.124502	4.004438	6.415267	8.354872	0.796244	-8.806682	-1.459354	-0.594482	0.078857	0.550781	0.161637	0.053567	0.098636	-0.315434	0.522311	0.450174	0.651948	79.210156	-74.804991	166.997946
57089		22.316022	6.436345	8.008601	3.585980	7.018503	13.448383	2.012038	-8.377234	0.217631	-0.560791	0.083496	0.612793	0.219459	0.063731	0.089975	-0.302214	0.546516	0.468945	0.624562	98.281119	-75.040724	148.448963
57090		20.641566	3.857931	9.466415	3.114411	10.753817	10.309543	2.921294	-8.117930	1.365152	-0.525635	0.105957	0.676514	0.202071	0.038500	0.103490	-0.295149	0.570192	0.486092	0.592859	117.119932	-74.371093	130.659884
57091		21.228126	4.804169	10.093954	4.945137	12.620834	9.973818	3.842910	-7.942036	1.532308	-0.501709	0.123779	0.735596	0.207662	0.047587	0.110166	-0.291005	0.591278	0.504333	0.557992	133.553187	-72.436506	115.816211
57092		22.940536	8.757016	13.928887	10.443254	16.910558	10.222634	4.363784	-7.845593	1.043903	-0.455322	0.150879	0.790283	0.223210	0.085550	0.150010	-0.286759	0.608887	0.524250	0.521716	145.808333	-69.390191	105.497294
57093		23.127919	11.801104	20.002040	15.801423	23.200970	7.084574	4.483647	-7.987093	1.695681	-0.416016	0.180176	0.838135	0.221995	0.115261	0.211617	-0.283536	0.627134	0.541652	0.482621	155.876955	-65.852047	97.390290
57094		16.614296	9.351136	23.563501	15.010612	25.446396	-3.078183	4.334885	-6.985814	2.219692	-0.374512	0.218262	0.869873	0.156722	0.090068	0.243197	-0.283342	0.643293	0.554494	0.445452	163.695571	-62.540302	91.464159
57095		12.280013	3.488613	18.711868	7.882513	21.099149	-7.443483	4.765018	-5.311882	2.459569	-0.337646	0.254395	0.893066	0.117356	0.031830	0.191067	-0.289161	0.654790	0.564318	0.411318	170.183189	-59.883877	87.175259
57096		31.538014	9.624429	23.567944	15.086266	34.189344	5.870199	5.262705	-2.970487	2.501572	-0.323486	0.301025	0.884766	0.310625	0.093822	0.242807	-0.303052	0.659969	0.570878	0.383013	175.920305	-58.382222	83.999934
57097		30.490025	20.937066	31.311524	26.812167	38.999721	0.600099	4.640671	1.968801	1.257254	-0.337891	0.325439	0.852783	0.306701	0.204002	0.314877	-0.326229	0.652590	0.572438	0.374186	179.705295	-59.527471	82.681648
57098		16.564899	21.370037	24.916300	24.862016	26.993166	-7.572040	2.873787	5.109370	0.966170	-0.372070	0.336182	0.810303	0.170970	0.210950	0.247885	-0.351972	0.640729	0.566009	0.381073	-177.562674	-62.469756	81.435372
57099		4.869775	16.303430	17.005902	18.013493	15.572533	-13.226389	1.197336	6.414580	1.025751	-0.399658	0.353760	0.778564	0.053304	0.162284	0.169372	-0.375663	0.629013	0.553412	0.396175	-175.173852	-66.091176	79.542610
57100		1.029014	12.711072	11.903509	13.723191	10.004784	-13.796203	-0.063991	6.531193	1.150712	-0.428955	0.353516	0.738525	0.013436	0.127220	0.118590	-0.395690	0.618884	0.537032	0.414740	-172.634821	-69.775944	76.759757
57101		0.313226	9.989149	9.273670	10.822584	7.692737	-12.903909	-0.962789	6.379865	1.254643	-0.449219	0.355469	0.711914	0.005449	0.100365	0.092105	-0.412174	0.610656	0.518250	0.434314	-169.347110	-73.265913	72.709771
57102		1.271133	7.560652	7.994281	8.495305	7.001060	-11.031003	-1.344578	6.331938	1.196657	-0.465088	0.359863	0.669678	0.014768	0.076224	0.078986	-0.426940	0.602260	0.498283	0.454665	-164.599143	-76.686802	66.996386
57103		3.440602	5.962486	7.599849	7.197706	7.137607	-8.273620	-1.347893	6.524703	0.892812	-0.482910	0.355469	0.629883	0.036583	0.060290	0.074424	-0.440874	0.592255	0.478332	0.475460	-157.056351	-80.048988	58.507306
57104		4.712519	4.939704	7.008297	6.327667	6.612672	-6.359187	-1.184408	6.938801	0.439387	-0.500977	0.357422	0.587646	0.049402	0.049911	0.068101	-0.454826	0.578837	0.458552	0.497807	-142.322406	-83.423707	42.942095
57105		3.900212	4.200801	6.229338	5.469730	5.579964	-6.559614	-0.919957	7.336313	-0.045511	-0.525635	0.354980	0.541016	0.041256	0.042280	0.060613	-0.468514	0.562241	0.439410	0.520863	-104.906820	-85.900057	4.850468
57106		2.490248	3.700601	5.519397	4.777073	4.691945	-7.466303	-0.618768	7.488829	-0.498808	-0.545654	0.345947	0.494873	0.027034	0.037109	0.054093	-0.481693	0.542450	0.421265	0.544294	-48.529594	-85.099894	-52.025105
57107		1.760720	3.237709	4.970736	4.183521	4.085778	-7.792567	-0.313374	7.398132	-0.910684	-0.559082	0.343750	0.432617	0.019575	0.032368	0.048957	-0.493572	0.520852	0.404786	0.566787	-23.088931	-81.893285	-77.799637
57108		1.676772	2.749596	5.061259	3.693860	4.095545	-7.455634	0.023158	7.146908	-1.304528	-0.567139	0.319336	0.373779	0.018740	0.027372	0.049969	-0.504167	0.497292	0.390251	0.588405	-11.864126	-78.159217	-89.171133
57109		2.901164	2.506112	6.072467	3.577164	4.635203	-5.656938	0.391258	6.817012	-1.693406	-0.570801	0.297363	0.325684	0.031269	0.024685	0.059733	-0.513114	0.472719	0.378202	0.608452	-5.323953	-74.445354	-95.671804
57110		5.136654	2.660265	7.647345	3.784813	5.139566	-2.659546	0.738087	6.604625	-2.034270	-0.572021	0.266357	0.280273	0.054121	0.025783	0.074812	-0.520934	0.446314	0.367975	0.627714	-0.525606	-70.682095	-100.249322
57111		7.145732	2.505542	9.075401	3.458517	5.327500	0.152309	1.030036	6.552248	-2.316176	-0.575684	0.239746	0.239014	0.074661	0.023743	0.088467	-0.527668	0.418614	0.359099	0.646046	3.245981	-66.905506	-103.663404
57112		9.042851	2.103348	10.317264	2.628515	5.127073	2.811211	1.302749	6.646811	-2.588986	-0.581543	0.213135	0.188965	0.094049	0.019172	0.100216	-0.533692	0.388479	0.350832	0.664209	6.486933	-62.940488	-106.409429
57113		10.163087	1.952127	11.384060	1.895695	4.801023	4.676718	1.505497	6.741185	-2.817569	-0.578369	0.186768	0.138916	0.105646	0.017211	0.110460	-0.538689	0.356950	0.343089	0.681683	9.268299	-58.902448	-108.607158
57114		11.649941	2.037190	12.309515	1.119519	3.904243	6.763177	1.638128	6.789415	-2.968342	-0.563721	0.153809	0.084717	0.120866	0.017612	0.119193	-0.542811	0.323728	0.335297	0.698664	11.695449	-54.722141	-110.378498
57115		12.897312	2.509520	12.914629	0.562972	2.595607	8.413864	1.660679	6.778195	-3.088984	-0.542480	0.125244	0.043701	0.133610	0.022006	0.124861	-0.545657	0.290221	0.327476	0.714696	13.782897	-50.553523	-111.810657
57116		13.920082	3.841990	13.086492	0.728001	0.744324	9.643013	1.571145	6.607947	-3.172891	-0.523926	0.107666	0.002197	0.144003	0.035155	0.126444	-0.547074	0.256594	0.319281	0.730020	15.591722	-46.383892	-113.018373
57117		16.385652	6.691735	14.234638	1.879248	-1.727341	12.751893	1.272491	6.276005	-3.215873	-0.509766	0.085693	-0.019287	0.169260	0.063339	0.137501	-0.546621	0.225000	0.310699	0.744343	17.059744	-42.424878	-114.078443
57118		22.067897	9.925969	16.190644	2.133643	-6.309020	18.523823	0.682462	6.107786	-3.306278	-0.511475	0.074707	-0.041016	0.227085	0.095003	0.155365	-0.544261	0.194799	0.299911	0.758872	18.092911	-38.470687	-115.063579
57119		26.498579	11.126747	15.278970	0.590169	-12.044693	20.412305	-0.009292	6.232176	-3.562014	-0.524170	0.052490	-0.062500	0.271498	0.106477	0.144391	-0.539722	0.165804	0.286213	0.774139	18.683236	-34.448238	-116.071294
57120		26.615597	9.169312	12.555244	-2.402646	-15.056253	16.968115	-0.599074	6.124648	-3.999350	-0.539307	0.030029	-0.108154	0.271594	0.086657	0.117025	-0.532153	0.137562	0.270329	0.790451	18.999025	-30.343606	-117.297032
57121		26.536232	-1.464514	8.807083	-13.028695	-15.265898	9.700914	-0.474889	5.493835	-4.606126	-0.542236	-0.014160	-0.157715	0.267220	-0.020588	0.080791	-0.520700	0.110893	0.256848	0.806600	19.510656	-26.511279	-118.950073
57122		31.587138	-1.662417	5.377224	-16.320599	-21.571533	7.430157	0.484337	4.970399	-4.901332	-0.531494	-0.062744	-0.204834	0.316541	-0.024495	0.045857	-0.507263	0.082951	0.248262	0.821078	20.551065	-22.835472	-120.778017
57123		32.305399	3.984750	-0.861677	-12.247365	-27.572833	2.419897	0.478448	4.547071	-4.655047	-0.511963	-0.111328	-0.236328	0.323559	0.032352	-0.015887	-0.493725	0.057342	0.240508	0.833728	21.424530	-19.457396	-122.448150
57124		29.150265	7.191194	-9.225341	-7.727562	-30.253537	-6.444135	-0.525755	3.644049	-3.919606	-0.488525	-0.139893	-0.275146	0.291087	0.065952	-0.097739	-0.481429	0.038510	0.230217	0.844833	21.551382	-16.662569	-123.839620
57125		28.203103	-0.034289	-16.187378	-12.834295	-29.072559	-16.695243	-1.289447	2.314432	-3.101123	-0.476318	-0.161865	-0.294189	0.280072	-0.005753	-0.165097	-0.470646	0.028351	0.219762	0.854045	21.139307	-14.790558	-125.058320
57126		30.006999	-9.603582	-19.005904	-21.687071	-26.623409	-23.027865	-0.347281	1.219454	-2.776884	-0.468750	-0.186035	-0.300049	0.297530	-0.100511	-0.191706	-0.460014	0.020764	0.215680	0.861068	21.247951	-13.543852	-126.326462
57127		33.981427	-9.876042	-19.325816	-24.463559	-29.154501	-23.126615	1.327225	0.456360	-2.597688	-0.460938	-0.214844	-0.303467	0.338061	-0.101870	-0.194700	-0.449413	0.013034	0.220601	0.865559	22.305389	-12.758729	-127.647189
57128		33.829152	-3.004791	-18.475362	-19.365206	-31.804436	-20.216403	1.926545	-0.076506	-1.989407	-0.462402	-0.239258	-0.295898	0.338053	-0.031631	-0.184924	-0.440794	0.006788	0.229152	0.867839	23.642075	-12.345054	-128.739376
57129		29.425436	-0.094894	-16.143230	-15.092828	-28.867018	-17.897455	1.131981	-0.855614	-0.947488	-0.470947	-0.255127	-0.281982	0.294935	-0.001436	-0.160179	-0.435726	0.007011	0.235982	0.868565	24.441115	-12.581438	-129.453034
57130		26.907104	-0.320398	-11.454239	-14.831158	-24.848403	-14.039579	0.056933	-1.734043	-0.131628	-0.486816	-0.248535	-0.275635	0.270048	-0.003349	-0.112205	-0.433090	0.014285	0.239983	0.868699	24.581676	-13.455290	-129.947298
57131		25.431017	10.695677	-6.739965	-6.583777	-27.248133	-5.259882	-1.989361	-2.985264	0.787773	-0.514648	-0.224609	-0.252197	0.254867	0.107308	-0.064664	-0.432714	0.032593	0.237718	0.869015	23.511312	-15.211019	-130.242596
57132		-4.013019	1.827492	-14.314348	5.599173	-4.436544	-22.974488	-3.922755	-4.925200	2.162396	-0.549805	-0.182861	-0.218262	-0.036758	0.015041	-0.144393	-0.435372	0.065103	0.230871	0.867705	21.241022	-18.301078	-130.169616
57133		4.909594	3.939577	23.976448	-1.059728	5.758324	14.267494	-4.032960	-6.762855	2.995991	-0.582520	-0.143311	-0.190918	0.040328	0.044888	0.240359	-0.438861	0.106703	0.226923	0.862856	18.819575	-22.539119	-129.865711
57134		25.878587	-10.259677	12.719273	-23.290273	-6.507279	8.938988	-3.184224	-5.516967	1.556476	-0.610596	-0.114990	-0.154053	0.255894	-0.098480	0.135869	-0.437376	0.139265	0.224364	0.859633	17.050438	-25.829627	-130.003872
57135		17.388175	-12.305607	15.106599	-19.060264	2.428341	7.869417	-1.593678	-4.916534	0.821948	-0.626709	-0.102051	-0.125732	0.170583	-0.121119	0.156257	-0.434131	0.164844	0.227623	0.855888	16.317846	-28.673129	-130.406184
57136		17.289471	-15.353193	13.119603	-21.029923	3.705592	6.021018	-0.534408	-4.280172	1.035094	-0.643066	-0.080078	-0.088867	0.170819	-0.152286	0.135275	-0.433139	0.185577	0.233719	0.850486	16.072155	-31.206723	-130.537738
57137		26.685504	5.131605	16.281527	-8.309317	-10.550675	18.876024	-0.571650	-3.635786	1.591905	-0.657227	-0.060303	-0.047607	0.263416	0.053896	0.167473	-0.435037	0.204187	0.237643	0.844142	15.544614	-33.469501	-130.170647
57138		21.903873	12.267925	11.943722	0.328819	-13.206466	14.649313	-0.696481	-1.449197	1.340155	-0.653809	-0.029297	-0.017578	0.217337	0.124558	0.120585	-0.438235	0.213556	0.236466	0.840493	14.783599	-34.488429	-129.536689
57139		16.484105	-8.277253	16.530268	-12.929092	3.202872	11.069101	-1.456221	0.443626	1.256855	-0.645752	-0.007080	-0.002930	0.165719	-0.080528	0.165528	-0.442459	0.216447	0.228026	0.839872	13.423654	-34.427318	-128.614090
57140		9.121864	2.971061	8.030317	-0.863425	-2.824294	2.344527	-0.644347	0.662928	0.605831	-0.632813	0.006592	0.001221	0.091393	0.030245	0.079904	-0.445051	0.215952	0.223190	0.839929	12.755335	-34.154733	-128.097880
57141		7.104863	0.633067	9.359822	-1.543552	0.319512	1.849250	-0.472757	0.505302	0.327769	-0.617432	0.017822	0.007324	0.071274	0.006668	0.093403	-0.446473	0.215335	0.219730	0.840245	12.314188	-33.922790	-127.800051
57142		7.802901	1.663298	7.826011	-1.255532	-1.589475	1.177998	-0.290990	0.384158	0.273250	-0.597412	0.024658	0.011719	0.078156	0.016853	0.078086	-0.447725	0.214848	0.217352	0.840322	12.003642	-33.759720	-127.556932
57143		6.132443	1.071999	8.468141	-0.787396	0.117653	0.667363	-0.209876	0.329490	0.188010	-0.575195	0.029297	0.007080	0.061454	0.010867	0.084569	-0.448642	0.214227	0.215536	0.840459	11.783138	-33.607097	-127.382594
57144		6.296250	1.459676	8.012015	-0.608211	-0.474180	0.452349	-0.133214	0.225706	0.130544	-0.559326	0.027344	0.002686	0.063043	0.014691	0.080039	-0.449288	0.213899	0.214327	0.840507	11.630526	-33.514999	-127.260075
57145		5.430164	1.770485	8.445169	0.171424	0.159957	0.379819	-0.100842	0.141395	0.108199	-0.537109	0.036621	-0.001953	0.054352	0.017777	0.084404	-0.449782	0.213736	0.213476	0.840501	11.517718	-33.457974	-127.166797
57146		5.835766	1.689562	8.464783	-0.089642	-0.074719	0.606031	-0.083152	0.130381	0.106751	-0.530518	0.036621	-0.008789	0.058404	0.016962	0.084603	-0.450278	0.213669	0.212716	0.840445	11.410375	-33.416240	-127.074000
57147		6.087910	1.662707	8.542760	-0.219166	-0.201260	0.804159	-0.077346	0.094873	0.091813	-0.514648	0.034668	-0.019775	0.060912	0.016688	0.085392	-0.450678	0.213632	0.212086	0.840399	11.320868	-33.383215	-126.998381
57148		6.248724	1.526336	8.262355	-0.453070	-0.405955	0.640670	-0.072002	0.088753	0.105951	-0.508057	0.039307	-0.039795	0.062516	0.015326	0.082590	-0.451137	0.213713	0.211467	0.840288	11.223530	-33.364484	-126.911991
57149		6.505932	1.639152	8.087584	-0.507772	-0.742506	0.656975	-0.062489	0.082830	0.099764	-0.501465	0.041504	-0.051025	0.065085	0.016449	0.080844	-0.451573	0.213701	0.210918	0.840195	11.140620	-33.338909	-126.832792
57150		5.615746	1.460239	8.588684	-0.122029	0.209114	0.549541	-0.009099	0.058470	0.075684	-0.508301	0.043701	-0.068848	0.056177	0.014628	0.085870	-0.451939	0.213737	0.210665	0.840052	11.092850	-33.333789	-126.770928
57151		5.718668	1.547874	8.630553	-0.088496	0.116355	0.654602	0.012212	0.001986	0.054975	-0.503906	0.046143	-0.077637	0.057183	0.015489	0.086306	-0.452182	0.213848	0.210659	0.839895	11.075214	-33.348624	-126.732596
57152		4.522227	1.609717	9.046898	0.637363	1.119793	0.347427	0.052236	-0.069197	0.044315	-0.503906	0.048340	-0.073486	0.045187	0.016084	0.090489	-0.452347	0.214247	0.210985	0.839622	11.083396	-33.411683	-126.708649
57153		5.063813	2.292163	8.900451	0.930081	0.346470	0.633801	0.030075	-0.142825	0.088518	-0.512939	0.050293	-0.086670	0.050564	0.022931	0.089044	-0.452596	0.214961	0.211346	0.839214	11.073969	-33.511633	-126.666766
57154		4.583377	2.472571	9.173865	1.387753	0.746627	0.617910	0.008552	-0.250533	0.151095	-0.515381	0.057129	-0.089111	0.045700	0.024756	0.091797	-0.452971	0.216329	0.211784	0.838550	11.030440	-33.687972	-126.594553
57155		4.746729	1.892836	9.009078	0.809128	0.862293	0.477084	0.025492	-0.333733	0.176540	-0.526855	0.059082	-0.082764	0.047300	0.018959	0.090172	-0.453381	0.217946	0.212461	0.837738	10.998871	-33.904885	-126.517950
57156		4.607311	1.165812	9.037480	0.291760	1.373034	0.301258	0.109865	-0.514210	0.161476	-0.533691	0.063477	-0.084961	0.045831	0.011645	0.090499	-0.453625	0.220194	0.213907	0.836649	11.028337	-34.230131	-126.473003
57157		4.934054	0.770582	8.756127	-0.226964	1.252204	0.186738	0.197207	-0.675301	0.148268	-0.534180	0.074463	-0.076660	0.049039	0.007656	0.087735	-0.453733	0.222818	0.216106	0.835330	11.130972	-34.636059	-126.460992
57158		5.336444	0.825378	8.606701	-0.369588	0.951683	0.296277	0.261974	-0.884937	0.145806	-0.540527	0.070068	-0.067627	0.052977	0.008180	0.086313	-0.453670	0.226244	0.219036	0.833679	11.282243	-35.167635	-126.477753
57159		5.244512	0.901813	8.625548	-0.219677	1.079885	0.262176	0.308596	-1.023028	0.119730	-0.538574	0.076660	-0.058838	0.051998	0.008916	0.086536	-0.453386	0.230025	0.222511	0.831877	11.489420	-35.765694	-126.536226
57160		5.405053	1.295460	8.404132	0.041632	0.763307	0.234036	0.334574	-1.160392	0.115151	-0.531738	0.074463	-0.050049	0.053554	0.012845	0.084375	-0.452947	0.234385	0.226388	0.829850	11.720826	-36.447954	-126.618085
57161		5.313326	1.573515	8.483244	0.383038	0.852762	0.276786	0.350073	-1.237663	0.122406	-0.519043	0.094727	-0.048340	0.052597	0.015619	0.085186	-0.452449	0.238950	0.230501	0.827685	11.974856	-37.166282	-126.713247
57162		5.343896	1.533152	8.253177	0.340395	0.840539	0.096844	0.344518	-1.308394	0.144509	-0.509277	0.136963	-0.052246	0.052886	0.015227	0.082905	-0.451937	0.243911	0.234698	0.825335	12.219971	-37.934081	-126.805459
57163		5.169942	1.670839	8.462715	0.632007	1.138807	0.159256	0.341581	-1.322400	0.159759	-0.546631	0.176514	-0.027100	0.051125	0.016604	0.084995	-0.451443	0.248867	0.238902	0.822916	12.468935	-38.703725	-126.897086
57164		5.046477	1.846265	8.409870	0.885326	1.227224	0.051900	0.318329	-1.333408	0.174770	-0.573242	0.167236	-0.002441	0.049886	0.018372	0.084462	-0.450951	0.253999	0.242986	0.820418	12.696242	-39.488245	-126.981615
57165		5.958624	1.816637	7.849036	0.382046	0.452634	0.190329	0.288796	-1.321068	0.208833	-0.576904	0.146973	0.020508	0.059047	0.018114	0.078908	-0.450550	0.259103	0.246884	0.817874	12.900248	-40.262780	-127.047280
57166		6.809147	1.764474	7.232398	-0.115692	-0.309258	0.270707	0.270085	-1.315660	0.237316	-0.567871	0.140381	0.027588	0.067593	0.017627	0.072794	-0.450232	0.264319	0.250626	0.815238	13.075763	-41.044573	-127.091817
57167		6.619059	1.746074	7.288209	0.028939	-0.029193	0.186091	0.256750	-1.280064	0.248196	-0.560791	0.136230	0.029785	0.065701	0.017449	0.073326	-0.449959	0.269352	0.254226	0.812622	13.243988	-41.801032	-127.129121
57168		6.541466	1.913284	7.552544	0.328241	0.229662	0.352472	0.236516	-1.230383	0.266620	-0.556152	0.131592	0.041016	0.064923	0.019130	0.075948	-0.449783	0.274310	0.257578	0.810002	13.380909	-42.538912	-127.143308
57169		6.619413	1.725011	7.492687	0.180383	0.346143	0.325306	0.231220	-1.232968	0.277924	-0.552002	0.138428	0.045410	0.065706	0.017255	0.075353	-0.449618	0.279223	0.260906	0.807345	13.518147	-43.272938	-127.155531
57170		6.661739	1.616070	7.792127	0.197413	0.690108	0.540620	0.233414	-1.252690	0.271603	-0.549805	0.138428	0.047607	0.066106	0.016159	0.078355	-0.449391	0.284258	0.264266	0.804617	13.657410	-44.023661	-127.175116
57171		6.421403	1.647413	7.644700	0.362579	0.833244	0.265135	0.236172	-1.312715	0.282817	-0.547607	0.142822	0.047363	0.063687	0.016474	0.076886	-0.449108	0.289463	0.267763	0.801758	13.809459	-44.802685	-127.204115
57172		5.925281	1.665438	8.221544	0.789875	1.628809	0.296599	0.233059	-1.399017	0.282793	-0.550049	0.149414	0.058105	0.058652	0.016641	0.082647	-0.448688	0.295071	0.271408	0.798718	13.967158	-45.635946	-127.249308
57173		6.201095	1.382360	7.906241	0.425044	1.517003	0.206749	0.245111	-1.522645	0.270864	-0.556641	0.145020	0.058350	0.061388	0.013810	0.079548	-0.448039	0.301047	0.275400	0.795479	14.167525	-46.529845	-127.337444
57174		6.444146	1.571698	7.733294	0.529316	1.324796	0.275090	0.248920	-1.691700	0.270951	-0.558838	0.145020	0.062744	0.063763	0.015707	0.077894	-0.447139	0.307727	0.279744	0.791905	14.393785	-47.523160	-127.462478
57175		6.744430	1.534674	7.463707	0.395882	1.149716	0.290174	0.253845	-1.859806	0.276971	-0.565918	0.149170	0.078125	0.066725	0.015344	0.075279	-0.445991	0.314983	0.284473	0.788005	14.661883	-48.604419	-127.632141
57176		6.943707	1.167240	7.430544	0.079288	1.362141	0.332510	0.252653	-2.039578	0.269675	-0.570068	0.144775	0.080566	0.068659	0.011671	0.075023	-0.444521	0.322966	0.289557	0.783742	14.967940	-49.788974	-127.855427
57177		6.557047	1.001186	7.889115	0.300032	2.166848	0.259340	0.271292	-2.208329	0.217216	-0.574707	0.149170	0.100342	0.064683	0.009975	0.079622	-0.442569	0.331397	0.295164	0.779222	15.374869	-51.052665	-128.186318
57178		6.691123	1.109134	7.597768	0.374875	2.046374	0.156968	0.275579	-2.423142	0.169537	-0.583496	0.140137	0.116211	0.065975	0.011042	0.076796	-0.440072	0.340592	0.301273	0.774318	15.876005	-52.430748	-128.633182
57179		6.425478	1.293764	7.864360	0.824029	2.529593	0.072877	0.266111	-2.709825	0.179408	-0.590088	0.139893	0.134033	0.063170	0.012889	0.079522	-0.437079	0.350821	0.307936	0.768805	16.470996	-53.960499	-129.190248
57180		6.351779	1.589157	7.617720	1.178167	2.498430	-0.155464	0.266844	-3.064522	0.232732	-0.599121	0.139648	0.153809	0.062322	0.015862	0.077159	-0.433667	0.362468	0.315187	0.762370	17.150407	-55.694172	-129.843516
57181		6.056369	1.365200	7.429301	1.179088	2.846694	-0.634758	0.257356	-3.485921	0.284855	-0.605957	0.139648	0.184814	0.059237	0.013640	0.075351	-0.429639	0.375674	0.323165	0.754880	17.974711	-57.657586	-130.657681
57182		5.751518	1.897133	7.759692	2.027102	3.311379	-0.768096	0.167707	-3.986626	0.405905	-0.610107	0.135010	0.222900	0.055915	0.019020	0.078738	-0.424954	0.391066	0.331503	0.746048	18.884749	-59.911751	-131.617710
57183		5.802836	1.624399	7.652613	1.941502	3.643481	-0.991529	0.000012	-4.601551	0.515133	-0.612793	0.143799	0.255859	0.056205	0.016390	0.077833	-0.419112	0.409061	0.340185	0.735723	19.971706	-62.506357	-132.861717
57184		6.003098	2.127584	7.967497	2.682229	3.993830	-0.819590	-0.174159	-5.279164	0.568668	-0.607910	0.139160	0.302490	0.057840	0.021513	0.081202	-0.411717	0.429781	0.349287	0.723724	21.423362	-65.463933	-134.595089
57185		5.736073	2.953885	8.745117	4.065043	4.795992	-0.950175	-0.350392	-6.043611	0.649463	-0.605957	0.143555	0.355469	0.054588	0.029874	0.089077	-0.402544	0.453383	0.358902	0.709641	23.548157	-68.816378	-137.121661
57186		7.893918	2.969534	7.964962	3.604370	4.060328	0.436409	-0.428906	-6.884107	0.660864	-0.600830	0.130127	0.406982	0.076039	0.030124	0.082236	-0.391321	0.479681	0.369480	0.693007	27.128504	-72.556897	-141.180162
57187		16.566441	4.155646	8.394805	3.265145	3.220157	8.653425	-1.229335	-7.843360	-1.371037	-0.584473	0.112549	0.463135	0.162493	0.040976	0.090110	-0.368790	0.506412	0.383550	0.678550	37.312358	-75.965643	-152.488909
57188		11.515296	4.957805	10.760847	6.597619	6.668339	3.782205	-0.504936	-9.005613	-0.291017	-0.561768	0.108154	0.536621	0.110231	0.049695	0.112522	-0.348883	0.536899	0.398740	0.656526	54.690349	-79.483817	-170.560044
57189		17.166677	6.333030	8.999252	6.840314	5.483695	8.589670	0.275257	-9.227677	0.928177	-0.535156	0.114990	0.605225	0.166976	0.063982	0.097858	-0.333866	0.568044	0.412809	0.628847	84.354054	-81.919258	159.561508
57190		18.194371	5.027613	9.121550	6.603120	7.593032	8.570255	0.786187	-9.330239	1.539230	-0.497314	0.126221	0.671387	0.177030	0.051270	0.099753	-0.321308	0.598658	0.425969	0.597428	122.669325	-81.511065	121.322370
57191		22.573853	-0.371467	8.878133	2.386528	11.693714	11.300014	2.234587	-8.491233	1.784817	-0.468994	0.155273	0.732422	0.221729	-0.002786	0.098219	-0.314882	0.623693	0.440503	0.563750	147.971473	-78.703340	96.953033
57192		12.962077	4.297916	11.372273	8.611423	11.296884	0.857033	4.077716	-7.691611	2.626592	-0.427734	0.193604	0.781982	0.124541	0.042240	0.119445	-0.317742	0.644130	0.455405	0.526063	164.070835	-75.264181	82.834622
57193		28.707824	5.699123	12.527889	11.477295	17.183231	14.392975	3.726377	-8.258332	1.583397	-0.388184	0.220459	0.827637	0.281103	0.056740	0.138030	-0.314722	0.662913	0.472732	0.487874	172.309860	-70.803104	76.455879
57194		25.094269	9.634719	22.419089	18.856300	25.120081	5.604748	4.125024	-8.380277	1.760739	-0.340088	0.260986	0.864014	0.240373	0.093702	0.236364	-0.312545	0.680284	0.489557	0.447061	178.233936	-66.102812	72.629488
57195		20.078526	6.534914	25.801571	16.161034	28.348859	-3.017626	4.292978	-6.796366	1.790275	-0.303223	0.296875	0.887207	0.191274	0.061437	0.265971	-0.314196	0.692626	0.503260	0.410219	-177.254488	-62.190166	70.347954
57196		20.977640	4.852714	19.835576	12.736426	24.951626	-1.325551	4.805048	-4.622702	2.137752	-0.268799	0.339600	0.892334	0.204600	0.045872	0.204249	-0.323436	0.699480	0.512618	0.378603	-172.729205	-59.457050	68.316375
57197		36.030673	14.377826	31.679114	26.416763	40.256299	3.968141	4.961027	-0.549527	1.482307	-0.276855	0.375000	0.866699	0.358388	0.138507	0.321257	-0.342017	0.696114	0.517538	0.361392	-168.566921	-58.998514	66.776238
57198		26.021506	22.434575	30.324031	31.125928	33.204612	-4.482566	3.710665	4.068094	0.448519	-0.306396	0.388184	0.837402	0.265871	0.219327	0.301971	-0.366206	0.683222	0.515485	0.365206	-165.083202	-61.232705	65.208457
57199		9.305018	19.933725	21.729981	23.843790	19.312430	-13.620058	1.626495	5.943625	0.368705	-0.342773	0.398926	0.805908	0.099118	0.197756	0.216027	-0.387522	0.670074	0.506073	0.380418	-161.872387	-64.428235	62.644298
57200		2.630444	14.323208	14.439614	16.239113	11.462753	-14.853489	-0.045201	6.222663	0.328673	-0.369629	0.396484	0.766113	0.030543	0.143312	0.143457	-0.403632	0.658672	0.492549	0.400784	-158.796315	-67.757136	59.251272
57201		2.540938	9.490736	11.303946	11.298633	9.482421	-12.399084	-0.994339	6.161751	0.188271	-0.398926	0.398438	0.730469	0.028775	0.095491	0.111714	-0.415660	0.648535	0.477270	0.422899	-155.464719	-70.960271	55.080196
57202		2.936432	5.286710	9.403665	7.193862	8.546576	-10.224633	-1.189707	6.256582	-0.123831	-0.418945	0.386963	0.699707	0.032312	0.053402	0.092740	-0.426344	0.636954	0.461875	0.446309	-151.207198	-74.236668	49.907098
57203		4.207585	2.438974	8.197958	4.573483	8.099855	-7.738621	-0.862431	6.536977	-0.600801	-0.445801	0.384521	0.664307	0.044796	0.024607	0.080439	-0.437071	0.622534	0.447685	0.470104	-144.984687	-77.594637	42.981889
57204		4.256106	1.186227	7.195251	3.209252	7.197547	-6.786150	-0.350908	6.927871	-1.105607	-0.474609	0.377686	0.613525	0.045083	0.011742	0.070399	-0.448709	0.603932	0.434836	0.494817	-133.950406	-81.078427	31.558464
57205		3.578859	1.013368	6.519045	2.780948	6.303177	-6.838768	0.091852	7.173238	-1.515045	-0.501465	0.370850	0.571533	0.038170	0.009821	0.063854	-0.460488	0.582351	0.423264	0.519293	-110.709065	-84.064024	8.182992
57206		3.212313	1.553903	6.364165	3.164610	5.813343	-6.746462	0.323598	7.245893	-1.770583	-0.528076	0.357422	0.518799	0.034535	0.015139	0.062444	-0.471937	0.558390	0.412214	0.543650	-65.124289	-85.013954	-37.396583
57207		3.418833	1.816511	6.221134	3.306298	5.370596	-6.085661	0.357111	7.232732	-1.894587	-0.545654	0.350586	0.468018	0.036577	0.017717	0.060949	-0.482321	0.533669	0.401131	0.567149	-28.841870	-82.879329	-73.661085
57208		3.399427	1.320950	6.179859	2.690193	5.165658	-5.623791	0.354879	7.155270	-1.965896	-0.562988	0.326172	0.404541	0.036303	0.012752	0.060550	-0.491798	0.507939	0.389767	0.590097	-12.398537	-79.370282	-90.082481
57209		4.050013	0.508943	6.537583	1.820893	5.248005	-4.472411	0.463106	6.996450	-2.022157	-0.568848	0.303955	0.352051	0.042801	0.004515	0.063916	-0.500281	0.481959	0.378820	0.611498	-4.358869	-75.573238	-98.045009
57210		5.398650	0.189813	7.295916	1.398012	5.297952	-2.577049	0.704329	6.842444	-2.100739	-0.583496	0.275146	0.295410	0.056454	0.001061	0.071060	-0.508273	0.454694	0.368574	0.631716	0.628201	-71.649304	-102.813876
57211		6.683850	0.179483	8.376779	1.204050	5.407035	-0.639761	0.974580	6.748685	-2.189997	-0.582520	0.246338	0.256592	0.069625	0.000642	0.081454	-0.515653	0.426658	0.359259	0.650383	4.132694	-67.742063	-105.956799
57212		8.490123	0.253476	9.607408	0.888523	5.214851	1.866103	1.219400	6.723407	-2.310051	-0.577393	0.222168	0.206299	0.088083	0.000955	0.093157	-0.522554	0.396914	0.350465	0.668259	6.954896	-63.735027	-108.278588
57213		9.540122	0.369462	10.642425	0.491898	4.913044	3.601506	1.402498	6.782182	-2.457976	-0.578369	0.191162	0.152100	0.098966	0.001762	0.103125	-0.528632	0.366102	0.342088	0.685196	9.321973	-59.698309	-110.056577
57214		10.391100	0.748360	11.987860	0.261781	4.716333	5.347033	1.493203	6.775127	-2.593150	-0.568604	0.164795	0.104248	0.107970	0.005224	0.116311	-0.533765	0.333935	0.333671	0.701603	11.395720	-55.566517	-111.492137
57215		12.037823	1.708058	13.410334	0.275520	3.847102	7.868877	1.457240	6.752311	-2.711686	-0.547607	0.140625	0.058594	0.125023	0.014449	0.130046	-0.537563	0.301696	0.325078	0.717168	13.166984	-51.465539	-112.659906
57216		13.629279	3.057667	14.297836	0.425792	2.219545	10.042907	1.307147	6.708723	-2.842110	-0.533203	0.116455	0.021729	0.141396	0.027676	0.138479	-0.539921	0.268969	0.315642	0.732469	14.686991	-47.295923	-113.670090
57217		15.535550	4.090464	14.393400	-0.004709	-0.336186	11.749676	1.074683	6.567107	-3.003309	-0.523682	0.096680	0.000244	0.160556	0.037764	0.138927	-0.540357	0.237191	0.305697	0.747198	15.970472	-43.222047	-114.614206
57218		17.735424	5.786915	14.121596	-0.043777	-3.681936	13.288467	0.793323	6.299222	-3.228520	-0.525146	0.076660	-0.016846	0.182585	0.054404	0.135740	-0.538548	0.206094	0.295107	0.761842	17.082004	-39.188986	-115.607237
57219		22.620436	7.967770	14.648900	-0.717016	-8.669993	16.903562	0.373932	6.002242	-3.510562	-0.540283	0.061035	-0.056152	0.231814	0.075375	0.139731	-0.534081	0.177012	0.283827	0.776445	17.964390	-35.313718	-116.716121
57220		26.854816	7.770301	12.966329	-3.647205	-14.248110	17.261064	-0.112039	5.835699	-3.837605	-0.554688	0.025391	-0.088135	0.273602	0.072554	0.121686	-0.527051	0.148779	0.270860	0.791655	18.585234	-31.404504	-117.959418
57221		29.488292	3.510397	10.372061	-9.739935	-17.755192	14.249143	-0.450201	5.461589	-4.133263	-0.562500	-0.014404	-0.142090	0.298211	0.029184	0.095536	-0.517437	0.122756	0.257619	0.806736	19.023136	-27.688633	-119.377135
57222		33.548368	0.415035	6.017700	-15.239113	-23.114151	10.061343	-0.349422	5.068488	-4.146396	-0.552002	-0.052002	-0.185059	0.336856	-0.002729	0.051652	-0.506749	0.097528	0.245338	0.820673	19.445958	-24.124838	-120.805019
57223		36.493817	1.378218	-0.002354	-16.360097	-29.302103	4.576005	-0.406284	4.710689	-3.672013	-0.528320	-0.087158	-0.228271	0.364973	0.007069	-0.008639	-0.497034	0.074773	0.233432	0.832392	19.657127	-20.887154	-121.973825
57224		35.856735	3.094072	-7.890475	-14.543480	-33.330817	-3.914998	-0.923506	4.194965	-2.833009	-0.505127	-0.111084	-0.269531	0.357192	0.025486	-0.086533	-0.489625	0.056071	0.220004	0.841856	19.380968	-18.049926	-122.742515
57225		32.628564	-2.915143	-15.317124	-17.538888	-31.181981	-15.068307	-1.131263	3.420620	-2.054913	-0.491211	-0.124268	-0.295654	0.323276	-0.033370	-0.158537	-0.484317	0.042261	0.207411	0.848900	18.872508	-15.822390	-123.234536
57226		29.752426	-11.165074	-18.875942	-22.624297	-26.144049	-22.877627	-0.081368	2.460391	-1.758883	-0.468018	-0.145996	-0.308105	0.294175	-0.114325	-0.192346	-0.479327	0.030058	0.201360	0.853696	18.955344	-14.143760	-123.746900
57227		31.785424	-10.309755	-18.377904	-23.031290	-27.599304	-22.545693	1.363915	1.572488	-1.746297	-0.458252	-0.170410	-0.309326	0.315484	-0.104591	-0.186976	-0.473620	0.018408	0.203669	0.856658	19.888720	-12.971269	-124.409934
57228		30.822472	-4.088280	-17.635165	-17.450464	-29.264728	-20.619183	1.663427	0.845570	-1.446316	-0.452881	-0.190430	-0.313232	0.307175	-0.041631	-0.177996	-0.468404	0.009334	0.208844	0.858426	20.972496	-12.220381	-125.031665
57229		28.122009	-0.605084	-16.215284	-13.414299	-28.148762	-18.859858	0.785852	-0.226760	-0.864688	-0.454834	-0.199219	-0.303955	0.281376	-0.006631	-0.161859	-0.464487	0.007655	0.212797	0.859599	21.529360	-12.171798	-125.553133
57230		24.173629	-0.685811	-14.404213	-11.787845	-24.252525	-17.884793	-0.463068	-1.613374	-0.297509	-0.470947	-0.186279	-0.288818	0.242877	-0.007549	-0.142069	-0.461457	0.015382	0.214535	0.860695	21.370780	-12.972063	-126.062315
57231		28.298153	7.246204	-20.903382	-7.269943	-33.829757	-19.447164	-2.951556	-3.776361	0.855628	-0.512451	-0.160156	-0.272217	0.286569	0.070641	-0.204697	-0.460726	0.039446	0.210428	0.861334	19.751524	-15.179935	-126.373266
57232		-10.242445	-9.882320	1.611051	-2.453187	13.337191	-14.422424	-2.804119	-6.057182	2.428557	-0.544922	-0.129395	-0.229004	-0.101670	-0.099851	0.014419	-0.463967	0.074606	0.211724	0.856938	18.084485	-18.925019	-126.174340
57233		24.209735	-0.901698	29.507726	-15.285220	-4.650089	24.854195	-2.607103	-5.914118	2.405969	-0.579834	-0.096680	-0.197021	0.233286	-0.002267	0.302122	-0.466765	0.108580	0.213259	0.851388	16.469231	-22.579917	-125.843130
57234		18.699662	-7.926115	9.425256	-16.636019	-5.652366	4.062808	-1.661425	-4.370189	1.716270	-0.596191	-0.072510	-0.171143	0.185535	-0.076856	0.098963	-0.468363	0.132961	0.215396	0.846500	15.398084	-25.269125	-125.560526
57235		15.062456	-5.386417	13.479666	-11.940258	-1.634654	7.283514	-0.534356	-4.479204	0.925786	-0.614746	-0.061768	-0.133789	0.147800	-0.052809	0.138270	-0.466976	0.154221	0.222959	0.841688	15.170720	-27.894507	-125.744663
57236		13.964427	-1.299098	11.912806	-7.505815	-2.961961	6.723758	-0.271498	-3.853061	0.945400	-0.630859	-0.046631	-0.101074	0.137374	-0.012174	0.121806	-0.466356	0.172235	0.230037	0.836618	15.036314	-30.181950	-125.803084
57237		18.970444	7.740691	14.341021	-1.589121	-8.712441	13.574482	-0.633605	-3.603078	0.988318	-0.647461	-0.024658	-0.064209	0.186696	0.078795	0.146544	-0.465712	0.189978	0.234904	0.831770	14.658383	-32.332466	-125.781321
57238		29.156288	2.113243	13.487341	-10.996691	-13.183047	17.421612	-1.015741	-1.582915	1.012541	-0.634766	-0.002441	-0.038574	0.290370	0.023297	0.137060	-0.467067	0.200263	0.233393	0.829018	13.849270	-33.371405	-125.376075
57239		13.218004	-5.000767	14.373829	-8.995850	1.460789	8.166902	-0.928076	0.078175	0.852664	-0.628662	0.019775	-0.017090	0.132446	-0.048776	0.143915	-0.469748	0.203187	0.228514	0.828151	12.993302	-33.451156	-124.793758
57240		8.389892	3.237398	9.894767	0.075021	-1.621608	3.459130	-0.650267	0.226313	0.492225	-0.617920	0.035645	-0.006592	0.083930	0.032902	0.098746	-0.471374	0.204525	0.224790	0.827916	12.409996	-33.406751	-124.427227
57241		6.792043	0.016608	8.477857	-2.102548	0.078897	0.844655	-0.431026	0.322910	0.199778	-0.604736	0.042236	0.002197	0.068057	0.000417	0.084668	-0.472116	0.204517	0.222048	0.828235	12.059651	-33.260108	-124.245576
57242		7.381821	1.976610	7.891903	-0.723581	-1.588181	1.033254	-0.134567	0.184557	0.099554	-0.580322	0.049316	0.008545	0.073881	0.019856	0.078838	-0.472590	0.204370	0.220957	0.828294	11.921082	-33.188819	-124.149729
57243		6.768529	0.785862	8.038735	-1.446254	-0.557450	0.610815	-0.109869	0.077609	0.081412	-0.564697	0.056152	0.010498	0.067713	0.007930	0.080357	-0.472896	0.204487	0.220244	0.828280	11.818246	-33.164805	-124.083357
57244		6.287909	1.879533	8.296787	-0.222498	-0.584468	0.747427	-0.012009	0.013342	0.039726	-0.553711	0.058594	0.008301	0.062881	0.018813	0.082963	-0.473056	0.204696	0.220126	0.828168	11.785155	-33.182609	-124.051950
57245		5.290993	1.687207	8.690478	0.131867	0.414446	0.491512	0.004642	-0.007941	0.029376	-0.531250	0.058838	-0.000488	0.052904	0.016878	0.086907	-0.473169	0.204839	0.220142	0.828063	11.773573	-33.200405	-124.032447
57246		5.716654	1.255151	8.847555	-0.418546	0.406879	0.779481	0.002439	-0.021238	0.042978	-0.522217	0.056641	-0.007080	0.057154	0.012563	0.088482	-0.473320	0.205160	0.220163	0.827892	11.750233	-33.237888	-124.003685
57247		6.638496	2.128084	8.253631	-0.158340	-0.959477	0.947198	-0.004484	-0.015555	0.078850	-0.513184	0.056885	-0.018311	0.066370	0.021309	0.082541	-0.473620	0.205411	0.220109	0.827673	11.715772	-33.265706	-123.952023
57248		6.417816	2.132208	8.056417	-0.066587	-0.917574	0.665583	-0.024748	-0.001047	0.106917	-0.504150	0.057129	-0.031494	0.064166	0.021366	0.080562	-0.474029	0.205783	0.219904	0.827401	11.651712	-33.299252	-123.877481
57249		6.158597	1.258158	8.131902	-0.690768	-0.302176	0.437709	-0.039665	0.029083	0.107220	-0.501953	0.057129	-0.044922	0.061591	0.012631	0.081308	-0.474459	0.205964	0.219569	0.827198	11.583159	-33.305205	-123.800510
57250		5.498020	2.362091	8.671828	0.664894	-0.043072	0.702271	-0.008063	-0.016595	0.090499	-0.504150	0.057129	-0.060303	0.054962	0.023649	0.086722	-0.474800	0.206343	0.219487	0.826930	11.535832	-33.345559	-123.739062
57251		5.482619	2.076778	8.524710	0.410488	0.020840	0.525294	0.030968	-0.100004	0.060848	-0.506592	0.059326	-0.069336	0.054777	0.020771	0.085278	-0.474970	0.206838	0.219799	0.826626	11.534515	-33.418574	-123.710899
57252		4.293507	0.379102	9.192226	-0.428374	2.002898	0.131145	0.050625	-0.161814	0.033698	-0.504395	0.063721	-0.082764	0.042860	0.003775	0.091958	-0.474976	0.207614	0.220364	0.826277	11.552921	-33.533724	-123.707588
57253		5.172764	2.430750	8.848257	0.926892	0.294681	0.675957	0.038580	-0.250746	0.045691	-0.513428	0.065918	-0.080566	0.051611	0.024302	0.088552	-0.474924	0.208697	0.221080	0.825843	11.573015	-33.689625	-123.710396
57254		4.788105	2.764147	9.200999	1.460464	0.642429	0.802351	0.096302	-0.357188	0.067185	-0.515625	0.063721	-0.080566	0.047707	0.027613	0.092109	-0.474899	0.210204	0.222259	0.825158	11.620012	-33.917857	-123.711551
57255		3.939088	1.260665	9.156247	0.540779	1.928278	0.032695	0.214715	-0.547961	0.058372	-0.522949	0.074707	-0.087646	0.039136	0.012520	0.091683	-0.474749	0.212107	0.224392	0.824179	11.759815	-34.241984	-123.747859
57256		5.739549	0.491194	8.374870	-1.048613	0.655840	0.276513	0.212089	-0.719744	0.065393	-0.531738	0.070068	-0.085205	0.057092	0.004842	0.083960	-0.474426	0.214824	0.226906	0.822973	11.903799	-34.672724	-123.802930
57257		6.216802	1.208964	8.219263	-0.636860	0.005689	0.543955	0.362106	-0.906750	0.029102	-0.534180	0.076660	-0.074463	0.061793	0.011949	0.082495	-0.473895	0.217815	0.230521	0.821487	12.171489	-35.194216	-123.914313
57258		5.764105	0.197853	7.979880	-1.332289	0.726250	-0.084421	0.421713	-1.025384	0.002791	-0.543213	0.078857	-0.065674	0.057231	0.001811	0.080097	-0.473170	0.221209	0.234677	0.819819	12.490816	-35.787931	-124.063354
57259		5.576582	1.772241	8.493658	0.228656	0.578150	0.482624	0.453105	-1.145488	-0.040362	-0.538574	0.076660	-0.058838	0.055282	0.017518	0.085294	-0.472146	0.224869	0.239293	0.818078	12.867963	-36.433084	-124.268832
57260		5.884436	2.029029	8.240371	0.301019	0.237476	0.507139	0.478090	-1.181052	-0.028871	-0.531982	0.081055	-0.050293	0.058359	0.020084	0.082797	-0.471136	0.228714	0.244062	0.816183	13.257377	-37.107834	-124.476629
57261		4.928269	1.696520	8.589766	0.510790	1.352801	0.130040	0.448630	-1.152421	-0.000967	-0.521729	0.105713	-0.057617	0.048787	0.016772	0.086217	-0.470222	0.232443	0.248612	0.814281	13.628408	-37.759827	-124.670008
57262		5.249954	2.423190	8.213671	0.980120	0.716576	0.158413	0.390160	-1.179535	0.072656	-0.527832	0.154541	-0.050537	0.052005	0.024090	0.082491	-0.469489	0.236591	0.252881	0.812192	13.935709	-38.445097	-124.819960
57263		5.552636	2.784502	8.140031	1.185904	0.442068	0.348129	0.398192	-1.165730	0.143682	-0.566406	0.167236	-0.020020	0.055030	0.027722	0.081777	-0.469052	0.240656	0.257067	0.809933	14.226407	-39.122900	-124.925506
57264		5.332396	2.219585	7.823339	0.775507	0.736946	-0.147282	0.352040	-1.100779	0.219677	-0.582031	0.162598	-0.004395	0.052868	0.022116	0.078564	-0.468934	0.244739	0.260802	0.807580	14.445741	-39.783712	-124.966610
57265		6.832179	2.785558	7.054989	0.543056	-0.840613	0.346458	0.302050	-1.050014	0.290400	-0.570313	0.145020	0.013916	0.067910	0.027847	0.070949	-0.469090	0.248734	0.264132	0.805184	14.606424	-40.417759	-124.952924
57266		7.228648	2.534927	6.827881	0.168009	-1.031382	0.395456	0.227114	-0.983799	0.394729	-0.560791	0.136230	0.018799	0.071899	0.025414	0.068662	-0.469646	0.252850	0.266856	0.802675	14.660409	-41.038681	-124.848870
57267		6.554008	2.695151	7.513160	0.767610	-0.132548	0.485793	0.182171	-0.925281	0.465320	-0.552002	0.140625	0.025391	0.065129	0.027035	0.075458	-0.470492	0.256841	0.269176	0.800134	14.652091	-41.628967	-124.683635
57268		6.660229	1.990035	7.371465	0.138520	0.082974	0.317980	0.099737	-0.919304	0.519475	-0.547607	0.138428	0.025391	0.066211	0.020036	0.074030	-0.471445	0.261148	0.271065	0.797537	14.559653	-42.232069	-124.471779
57269		6.426576	1.833134	7.688429	0.215698	0.585695	0.355042	0.094072	-0.924728	0.516509	-0.545654	0.147461	0.029541	0.063862	0.018460	0.077189	-0.472356	0.265398	0.272950	0.794948	14.468713	-42.829090	-124.262791
57270		6.217693	1.267392	7.809276	-0.117901	1.109491	0.187560	0.120288	-1.001433	0.451701	-0.543457	0.154053	0.031494	0.061756	0.012767	0.078410	-0.472926	0.269873	0.275187	0.792326	14.426523	-43.467407	-124.111981
57271		5.806875	1.336662	8.251987	0.247309	1.728628	0.214840	0.156890	-1.093508	0.397211	-0.532471	0.160889	0.029053	0.057590	0.013416	0.082846	-0.473187	0.274463	0.277862	0.789656	14.451001	-44.140830	-124.022629
57272		5.419192	1.359860	8.676521	0.559020	2.354779	0.219258	0.171677	-1.246259	0.351387	-0.541260	0.151855	0.033691	0.053626	0.013618	0.087112	-0.473058	0.279623	0.280995	0.786809	14.522520	-44.900194	-123.995837
57273		5.968950	1.410401	8.268166	0.379071	1.849275	0.307329	0.227226	-1.435630	0.295534	-0.550293	0.156250	0.040283	0.059073	0.014097	0.083123	-0.472495	0.285228	0.284871	0.783736	14.692952	-45.748797	-124.057435
57274		6.451205	1.305532	7.879437	0.095919	1.481430	0.346132	0.244058	-1.664752	0.253542	-0.548340	0.162842	0.042236	0.063837	0.013040	0.079344	-0.471438	0.291684	0.289380	0.780337	14.929513	-46.725051	-124.202561
57275		6.946127	1.290805	7.476067	-0.106644	1.086603	0.415261	0.291048	-1.936341	0.242852	-0.554932	0.160645	0.057861	0.068717	0.012882	0.075447	-0.469971	0.298976	0.294719	0.776454	15.259914	-47.842384	-124.430124
57276		6.599936	0.521028	7.776777	-0.533977	1.995794	0.189124	0.317408	-2.211410	0.177659	-0.563721	0.156006	0.071289	0.065129	0.005144	0.078499	-0.467837	0.307213	0.300851	0.772164	15.701318	-49.107268	-124.787526
57277		6.569792	0.130277	8.152401	-0.720623	2.670882	0.285931	0.375449	-2.501950	0.065571	-0.568359	0.155762	0.080078	0.064671	0.001170	0.082340	-0.464849	0.316154	0.308035	0.767513	16.338359	-50.505428	-125.344489
57278		6.599363	1.111130	8.128230	0.244947	2.528529	0.404616	0.429054	-2.830352	-0.006882	-0.581543	0.151123	0.100342	0.064835	0.010933	0.082229	-0.461085	0.326127	0.316221	0.762264	17.159630	-52.073398	-126.092323
57279		5.757558	1.706989	8.467338	1.261418	3.277992	-0.044714	0.434210	-3.214366	0.040323	-0.583740	0.146729	0.126953	0.056201	0.016896	0.085621	-0.456786	0.337482	0.325185	0.756113	18.115516	-53.845499	-126.982509
57280		5.589445	2.014885	8.541438	1.739095	3.616124	-0.213479	0.421541	-3.670349	0.133208	-0.594727	0.139893	0.153809	0.054301	0.020004	0.086463	-0.451946	0.350697	0.334857	0.748750	19.197357	-55.877908	-128.019653
57281		5.182337	2.073863	8.373600	2.039014	3.974909	-0.795900	0.408470	-4.181107	0.227632	-0.596924	0.144043	0.184814	0.050034	0.020624	0.084837	-0.446393	0.365814	0.345366	0.740024	20.493707	-58.185554	-129.289797
57282		5.334042	1.732627	8.461881	1.870400	4.478423	-0.897381	0.309260	-4.832745	0.308483	-0.603760	0.141602	0.227051	0.051248	0.017274	0.085901	-0.439616	0.383561	0.356600	0.729695	22.085993	-60.844366	-130.940189
57283		4.813421	2.690079	8.724284	3.184951	4.950409	-1.336746	0.191882	-5.571390	0.331747	-0.605469	0.130371	0.269531	0.045635	0.026893	0.088563	-0.431066	0.403988	0.368774	0.717623	24.259855	-63.864238	-133.273222
57284		4.610992	2.556141	8.944469	3.426345	5.679158	-1.827104	0.050318	-6.488518	0.329639	-0.598877	0.134766	0.327148	0.043134	0.025611	0.090883	-0.420154	0.427670	0.382041	0.703288	27.475369	-67.306486	-136.778799
57285		6.301639	4.472940	8.423360	4.857463	4.590887	-0.541958	-0.002478	-7.540494	0.169256	-0.596191	0.125732	0.380615	0.059745	0.044782	0.086527	-0.406015	0.454283	0.397237	0.686281	32.988801	-71.102557	-142.677886
57286		16.573033	5.576085	8.769322	3.707997	3.490056	9.069536	-0.691001	-8.396103	-1.388328	-0.582275	0.110352	0.445557	0.162245	0.054945	0.094364	-0.382636	0.481417	0.414657	0.670736	44.283496	-74.393705	-154.916820
57287		13.992134	5.409943	9.788623	5.008090	6.148770	6.242633	-0.127861	-9.311136	-0.941232	-0.556885	0.092529	0.521484	0.135419	0.053520	0.104228	-0.359422	0.510475	0.433844	0.649623	62.503947	-77.186980	-173.775919
57288		21.349247	6.877873	8.009756	4.854212	5.368279	12.869106	0.902956	-9.342330	0.737029	-0.532471	0.103760	0.587646	0.209179	0.069163	0.090250	-0.343456	0.540303	0.451154	0.621748	87.266278	-79.042348	161.462337
57289		22.078789	3.280299	9.362485	2.919951	9.728099	12.149724	2.028051	-8.518851	1.733815	-0.512939	0.128418	0.653564	0.216237	0.033677	0.103241	-0.334729	0.566739	0.466944	0.590532	114.509826	-79.098308	134.912968
57290		18.240641	4.614143	11.385800	6.292247	12.105391	7.427338	3.393857	-7.803708	2.870728	-0.473633	0.159912	0.709961	0.177093	0.046689	0.121628	-0.334264	0.590288	0.481365	0.555082	138.914702	-77.720557	111.995439
57291		28.198025	9.932037	12.597106	11.835384	15.171497	16.293681	3.037619	-7.977828	2.077111	-0.445557	0.188965	0.762207	0.275582	0.100164	0.138569	-0.329426	0.611842	0.496524	0.520185	154.861120	-74.510054	97.369458
57292		24.431686	11.850527	20.004964	16.962375	22.247863	9.004218	3.131568	-8.193487	2.341823	-0.397217	0.220459	0.810059	0.234419	0.118035	0.211642	-0.324427	0.633204	0.510432	0.482969	165.722671	-70.532671	87.867776
57293		16.692956	10.052429	25.137607	16.908538	25.949207	-2.616883	3.247420	-7.186267	2.736117	-0.357910	0.254150	0.842041	0.156362	0.098550	0.258733	-0.322642	0.651777	0.520816	0.447035	173.443974	-66.752387	81.576375
57294		11.541106	0.976100	19.049471	6.137732	21.278474	-7.276857	3.999362	-5.634564	2.793419	-0.325684	0.298828	0.864990	0.109866	0.007468	0.193807	-0.327048	0.664724	0.529326	0.413515	179.616191	-63.634241	77.299433
57295		30.842567	8.740869	23.178559	16.216591	32.103177	6.648386	4.856848	-4.030749	2.867881	-0.298096	0.339355	0.865723	0.302403	0.086011	0.240022	-0.338198	0.672362	0.536106	0.382285	-174.645291	-61.245350	73.962898
57296		29.563220	19.580847	29.900766	27.182767	36.056002	0.788626	4.803287	0.900857	1.431777	-0.314697	0.367920	0.842529	0.295612	0.190691	0.302297	-0.359441	0.666083	0.538724	0.370016	-170.275939	-61.666774	72.118170
57297		18.493202	23.170386	26.094670	27.935805	27.787064	-7.140407	3.397740	4.245692	0.639289	-0.340088	0.387695	0.801758	0.189738	0.227873	0.260846	-0.383183	0.653652	0.535053	0.373669	-166.685832	-63.967501	70.267519
57298		7.282292	20.051444	19.484066	22.326300	18.042139	-13.074125	1.456671	5.960243	0.473265	-0.369629	0.391846	0.772705	0.078141	0.199280	0.194019	-0.404659	0.640552	0.524513	0.388368	-163.336447	-67.225890	67.504018
57299		0.753250	14.760045	13.459555	15.714763	11.032221	-15.368696	-0.072518	6.308704	0.362861	-0.394287	0.394043	0.737305	0.011503	0.147668	0.134221	-0.421418	0.629141	0.510194	0.407787	-159.916002	-70.582462	63.791256
57300		-0.432789	10.922496	10.230898	11.645798	8.234162	-14.362670	-1.051072	6.156828	0.316391	-0.427734	0.384766	0.710938	-0.001362	0.109757	0.101805	-0.434329	0.619121	0.493797	0.429199	-155.866636	-73.820468	58.906502
57301		0.609683	7.122815	8.487182	8.055891	7.326129	-11.944598	-1.398815	6.113858	0.216054	-0.445801	0.386719	0.668701	0.008599	0.071827	0.084133	-0.445292	0.609331	0.476618	0.450849	-150.171530	-76.881373	52.190594
57302		1.690252	4.288585	7.340715	5.429170	6.755505	-9.853028	-1.217403	6.253499	-0.111423	-0.468262	0.384277	0.639893	0.019205	0.043319	0.072568	-0.456087	0.597157	0.460008	0.473056	-141.246353	-79.926332	42.372923
57303		2.399732	2.865936	6.548441	4.105115	6.170405	-8.430827	-0.761524	6.493392	-0.561713	-0.490234	0.370850	0.598145	0.026184	0.028835	0.064548	-0.467128	0.581990	0.444841	0.495173	-125.349975	-82.732341	25.855117
57304		2.511278	2.701105	6.260542	3.944126	5.767922	-7.824602	-0.267160	6.710692	-1.052406	-0.512451	0.364014	0.553955	0.027335	0.026954	0.061677	-0.478482	0.563085	0.431258	0.517693	-93.777756	-84.690587	-6.044553
57305		2.647804	3.328863	6.233527	4.553953	5.458117	-7.283325	0.073865	6.864582	-1.494939	-0.532471	0.354980	0.510010	0.028844	0.033056	0.061384	-0.489286	0.541643	0.418983	0.540070	-51.263194	-84.299723	-48.699271
57306		2.960618	3.987856	6.440714	5.200886	5.311018	-6.515921	0.196734	6.935471	-1.865555	-0.556885	0.345947	0.452637	0.032186	0.039524	0.063360	-0.499073	0.517915	0.407263	0.562873	-23.927084	-81.709511	-76.107304
57307		3.581397	4.188866	6.968055	5.416260	5.427116	-5.328889	0.171716	6.934005	-2.151199	-0.567139	0.319336	0.395996	0.038648	0.041424	0.068409	-0.507218	0.493329	0.395761	0.585431	-10.500567	-78.263867	-89.637215
57308		4.627817	3.774200	7.607066	4.967042	5.526361	-3.625982	0.135030	6.922558	-2.397197	-0.581787	0.286133	0.343750	0.049321	0.037112	0.074424	-0.513965	0.467364	0.384168	0.608133	-2.813051	-74.437179	-97.457298
57309		5.622483	3.119621	8.541953	4.228871	5.788460	-1.883733	0.192522	6.872117	-2.585876	-0.584961	0.252930	0.291748	0.059511	0.030360	0.083442	-0.519375	0.440774	0.372893	0.630015	2.062123	-70.515443	-102.454528
57310		7.432725	2.314294	9.621122	3.162956	5.742598	0.680977	0.378162	6.829413	-2.715112	-0.586182	0.219727	0.248535	0.077858	0.021923	0.093635	-0.524103	0.412611	0.361984	0.651180	5.594845	-66.463008	-106.009501
57311		9.640682	1.668305	10.696930	1.994834	5.235648	3.553739	0.700081	6.915865	-2.849143	-0.583008	0.195313	0.205078	0.100249	0.014906	0.103601	-0.528391	0.382899	0.351780	0.671149	8.367388	-62.340271	-108.640988
57312		11.435771	1.699550	11.756943	1.279029	4.435409	6.012839	1.032189	7.078286	-2.981351	-0.580078	0.173340	0.143799	0.118653	0.014655	0.113500	-0.532471	0.350563	0.341871	0.690438	10.743609	-58.011796	-110.689497
57313		13.027683	2.446122	12.523483	1.028433	3.066816	8.128957	1.258331	7.246762	-3.082378	-0.563232	0.138184	0.100830	0.135050	0.021636	0.120540	-0.535978	0.316741	0.332071	0.708613	12.760944	-53.596594	-112.259482
57314		14.113826	3.326305	13.074285	0.791058	1.510750	9.631730	1.319175	7.325473	-3.169279	-0.542236	0.114014	0.061768	0.146298	0.030131	0.125652	-0.538601	0.281395	0.321727	0.726097	14.497227	-49.043323	-113.507239
57315		15.515964	4.401077	13.246771	0.509011	-0.731049	11.033544	1.202304	7.232523	-3.239224	-0.532715	0.103271	0.026611	0.160495	0.040665	0.126978	-0.539718	0.246558	0.310933	0.742451	15.932237	-44.567382	-114.534309
57316		16.485403	5.375643	12.890686	0.138688	-3.190423	11.550936	0.993137	6.935089	-3.341810	-0.545410	0.080811	0.005127	0.170056	0.050322	0.123325	-0.538934	0.212413	0.299643	0.758053	17.150308	-40.166966	-115.489882
57317		20.155221	7.434776	14.309070	-0.194866	-6.631097	15.126292	0.731036	6.384021	-3.505866	-0.558105	0.058594	-0.038330	0.207242	0.070240	0.136797	-0.535615	0.180946	0.288754	0.772655	18.196775	-36.081813	-116.511286
57318		27.516476	8.522500	15.702443	-3.188204	-12.928023	20.163731	0.341225	6.137670	-3.853726	-0.572754	0.025146	-0.083740	0.281382	0.079584	0.148591	-0.529552	0.150307	0.276779	0.787639	19.051123	-31.999562	-117.681302
57319		30.255735	2.088417	14.556376	-11.577931	-15.348282	17.783244	0.066114	6.010978	-4.435144	-0.575439	-0.025635	-0.139648	0.307111	0.014060	0.136383	-0.520080	0.120313	0.264284	0.803241	19.807044	-27.916039	-119.125350
57320		32.454371	-2.916925	9.216356	-18.058518	-19.455516	11.201338	0.554884	5.715234	-4.795851	-0.562256	-0.081055	-0.193115	0.326170	-0.037217	0.082761	-0.508336	0.089206	0.254200	0.817936	20.824489	-23.851477	-120.724277
57321		35.825295	-0.440941	4.116992	-18.227381	-26.154323	7.034059	0.633291	5.071626	-4.442753	-0.540527	-0.129395	-0.233398	0.358925	-0.012490	0.032042	-0.496603	0.061253	0.245752	0.830205	21.718021	-20.229848	-122.146798
57322		36.964776	4.525772	-3.700461	-14.517096	-32.968539	0.311938	-0.337618	4.513439	-3.665430	-0.512451	-0.157959	-0.270020	0.369432	0.038413	-0.045413	-0.486608	0.038612	0.234023	0.840806	21.855053	-17.018736	-123.189900
57323		32.720572	3.267096	-12.371144	-12.647024	-32.757664	-10.860066	-1.800010	3.653229	-2.735908	-0.487305	-0.170898	-0.302734	0.325266	0.027062	-0.129925	-0.478888	0.024512	0.218040	0.850014	21.016214	-14.507396	-123.912070
57324		30.531185	-8.441444	-17.552375	-20.684925	-27.327609	-21.504100	-1.800358	2.576988	-2.112041	-0.462158	-0.181396	-0.331299	0.302098	-0.089215	-0.178642	-0.472407	0.015424	0.204347	0.857226	20.130771	-12.680493	-124.542438
57325		31.929044	-13.736235	-18.816246	-25.801964	-25.759572	-25.070830	-0.141829	1.708646	-2.035457	-0.447998	-0.205811	-0.341309	0.316247	-0.140726	-0.190774	-0.465380	0.006446	0.199855	0.862228	20.207380	-11.369328	-125.317276
57326		30.760055	-8.210033	-18.770736	-20.768254	-27.042369	-24.070540	1.129372	0.915476	-1.789485	-0.445313	-0.214600	-0.336670	0.305991	-0.083776	-0.189580	-0.458582	-0.001966	0.202574	0.865253	21.000107	-10.509078	-126.106031
57327		28.771740	-1.744948	-16.315376	-15.021669	-27.643416	-20.168312	0.882195	-0.131864	-0.951124	-0.447021	-0.232422	-0.327148	0.287740	-0.018098	-0.163043	-0.454320	-0.004290	0.206691	0.866518	21.600876	-10.391406	-126.651118
57328		24.856864	0.868688	-14.277794	-11.254484	-25.115162	-17.876180	-0.383123	-1.665357	-0.001071	-0.462891	-0.223877	-0.312012	0.249746	0.008415	-0.140718	-0.452586	0.003822	0.208782	0.866926	21.444577	-11.280410	-127.008338
57329		32.487242	4.877318	-22.505390	-11.657580	-36.176341	-21.683129	-2.839364	-3.928255	1.321488	-0.508789	-0.195557	-0.290771	0.328900	0.047797	-0.219303	-0.454019	0.028742	0.205284	0.866545	19.832858	-13.663391	-127.095916
57330		-6.503699	-12.371369	-13.164945	-4.840453	5.934355	-27.416029	-2.989085	-6.064233	2.919788	-0.550537	-0.160645	-0.243408	-0.059211	-0.126574	-0.131626	-0.459707	0.064863	0.205572	0.861512	17.991180	-17.503648	-126.622962
57331		26.829177	0.358282	32.387410	-16.384255	-6.381879	28.382684	-1.893842	-6.827192	2.385620	-0.589600	-0.132324	-0.202393	0.256941	0.009816	0.332702	-0.462030	0.101114	0.212197	0.855147	16.854833	-21.655016	-126.482162
57332		24.942015	0.433529	13.809322	-13.280553	-12.224526	12.255410	-1.948132	-4.481152	1.740202	-0.611084	-0.101563	-0.163574	0.246186	0.007868	0.143569	-0.463573	0.126701	0.213286	0.850621	15.632865	-24.412054	-126.222613
57333		13.626879	-8.861817	11.875473	-14.363465	0.222773	4.288045	-0.798192	-4.540832	0.931582	-0.631592	-0.093018	-0.130615	0.133930	-0.087508	0.122164	-0.462057	0.148910	0.219775	0.846184	15.257856	-27.071878	-126.420500
57334		16.574750	-4.327831	12.396324	-11.599627	-3.212002	7.571091	-0.394567	-3.928383	0.921495	-0.638916	-0.075439	-0.100098	0.163465	-0.042273	0.127273	-0.461246	0.167578	0.226461	0.841359	15.067644	-29.399488	-126.509771
57335		13.487293	5.458940	12.531160	-1.196298	-5.054609	8.672865	-0.415352	-3.552593	1.013607	-0.655273	-0.058105	-0.067627	0.132340	0.055528	0.127563	-0.461055	0.184689	0.232026	0.836351	14.804465	-31.525819	-126.467159
57336		30.174959	9.586968	14.524878	-5.349820	-16.890980	20.177809	-1.179118	-2.022552	1.085149	-0.653809	-0.035889	-0.046143	0.299735	0.098366	0.147712	-0.462111	0.197282	0.230748	0.833240	13.922982	-32.821814	-126.094083
57337		14.634494	-5.208172	15.965563	-9.754540	1.484308	10.158041	-1.112100	-0.140823	0.888881	-0.647705	-0.011475	-0.038086	0.146459	-0.050542	0.160043	-0.464538	0.201548	0.225565	0.832288	12.973312	-33.028656	-125.525754
57338		6.410430	0.259848	10.555607	-1.526575	1.401931	2.364541	-0.689448	0.325364	0.658120	-0.650635	0.001953	-0.025391	0.064266	0.003173	0.105441	-0.466932	0.202734	0.221293	0.831807	12.304138	-32.951465	-125.036814
57339		8.774144	0.557105	7.908826	-2.693660	-1.913198	1.541998	-0.524593	0.375184	0.229481	-0.637451	0.015381	-0.014648	0.087883	0.005879	0.078908	-0.467762	0.202740	0.218009	0.832206	11.887376	-32.778733	-124.829269
57340		7.388464	0.940800	8.172344	-1.638518	-1.035958	1.073253	-0.112299	0.220469	0.065593	-0.628906	0.028809	0.002686	0.073972	0.009478	0.081637	-0.468151	0.202361	0.216975	0.832350	11.773206	-32.685272	-124.752736
57341		7.200980	1.172803	7.937636	-1.376082	-1.166277	0.816603	-0.090876	0.149920	0.025947	-0.615723	0.037842	0.013428	0.072068	0.011773	0.079317	-0.468325	0.202067	0.216228	0.832518	11.696552	-32.614098	-124.713772
57342		6.533397	1.309414	8.162677	-0.904099	-0.653768	0.665115	-0.018656	0.050674	-0.007230	-0.597900	0.037842	0.017822	0.065355	0.013099	0.081609	-0.468320	0.202099	0.216055	0.832558	11.674964	-32.607699	-124.709536
57343		5.991820	2.039020	8.222441	-0.003999	-0.588726	0.546918	0.012073	0.005379	-0.017951	-0.582520	0.047119	0.024170	0.059922	0.020380	0.082224	-0.468259	0.202118	0.216119	0.832571	11.683855	-32.612503	-124.719814
57344		5.680116	1.333477	8.568613	-0.418831	0.152881	0.544156	0.043379	-0.031735	-0.026173	-0.564697	0.051758	0.019531	0.056789	0.013309	0.085698	-0.468149	0.202328	0.216418	0.832504	11.710794	-32.650247	-124.739593
57345		5.330909	1.998993	8.905961	0.369657	0.277694	0.747471	0.065990	-0.076336	-0.029800	-0.548828	0.047363	0.015381	0.053278	0.019953	0.089087	-0.468005	0.202548	0.216909	0.832404	11.760965	-32.699502	-124.769094
57346		5.617035	2.134589	8.809912	0.340785	-0.021622	0.845900	0.044123	-0.123667	0.001251	-0.528809	0.052246	0.004150	0.056116	0.021327	0.088139	-0.467910	0.203168	0.217397	0.832179	11.785429	-32.791818	-124.783415
57347		7.159656	1.938963	7.786684	-0.699777	-1.545988	0.806772	0.018354	-0.127342	0.034179	-0.526367	0.047852	-0.009033	0.071544	0.019395	0.077914	-0.467928	0.203781	0.217745	0.831928	11.789129	-32.877147	-124.777419
57348		6.723934	1.561256	8.029948	-0.776189	-0.919609	0.707802	0.041406	-0.117634	0.029609	-0.515137	0.045654	-0.017822	0.067190	0.015606	0.080342	-0.467954	0.204412	0.218180	0.831645	11.801510	-32.969493	-124.772073
57349		5.698083	1.746651	8.730891	-0.024242	0.103171	0.757845	0.054240	-0.116687	0.009692	-0.512695	0.045898	-0.033447	0.056929	0.017446	0.087347	-0.467918	0.204870	0.218677	0.831422	11.833888	-33.045975	-124.781004
57350		4.899460	1.814455	8.992908	0.457974	0.785390	0.547947	0.081942	-0.160864	0.007306	-0.512939	0.050293	-0.057861	0.048922	0.018109	0.089976	-0.467844	0.205562	0.219404	0.831100	11.881019	-33.159982	-124.796755
57351		4.897148	2.133468	8.845354	0.721671	0.579712	0.478916	0.094720	-0.245290	0.027692	-0.512939	0.045898	-0.062256	0.048860	0.021300	0.088524	-0.467783	0.206479	0.220351	0.830657	11.940066	-33.310678	-124.811974
57352		4.697725	1.728221	8.974726	0.494081	1.012374	0.401613	0.137283	-0.362323	0.036703	-0.519287	0.041504	-0.066406	0.046811	0.017229	0.089844	-0.467666	0.207906	0.221747	0.829995	12.024185	-33.540662	-124.836999
57353		4.365870	1.859774	9.170819	0.807418	1.339002	0.394091	0.198650	-0.572019	0.058578	-0.523926	0.043457	-0.066650	0.043391	0.018519	0.091851	-0.467474	0.209968	0.223855	0.829018	12.157864	-33.878074	-124.879209
57354		4.792738	1.420869	8.750459	0.186323	1.085680	0.204585	0.289301	-0.782852	0.079387	-0.528564	0.047852	-0.071289	0.047579	0.014101	0.087712	-0.467215	0.212823	0.226814	0.827630	12.348592	-34.348072	-124.938484
