// General information: 
//  MT Manager version: 2019.2.0 
//  XDA version: 2019.2.0 build 3853 rev 94535 built on 2019-09-09
// Device information: 
//  DeviceId: 00B40A23
//  ProductCode: MTW2-3A7G6
//  Firmware Version: 4.3.5
//  Hardware Version: 1.1.0
// Device settings: 
//  Filter Profile: human(46.1)
//  Option Flags: Orientation Smoother Disabled, AHS Disabled, ICC Disabled
// Coordinate system: ENU
PacketCounter	SampleTimeFine	Acc_X	Acc_Y	Acc_Z	FreeAcc_E	FreeAcc_N	FreeAcc_U	Gyr_X	Gyr_Y	Gyr_Z	Mag_X	Mag_Y	Mag_Z	VelInc_X	VelInc_Y	VelInc_Z	Quat_q0	Quat_q1	Quat_q2	Quat_q3	Roll	Pitch	Yaw
34116		15.898954	-3.509037	13.757491	0.000000	0.000000	11.498887	-1.108548	6.806752	0.852247	-0.733398	0.204590	-0.350098	0.163697	-0.033656	0.132246	0.187902	-0.435571	-0.003274	-0.880318	-14.278637	-50.184705	-149.188870
34117		17.661766	-4.512756	14.949037	0.000000	0.000000	13.757734	-0.980436	6.761427	1.006429	-0.691162	0.212158	-0.381592	0.181761	-0.043508	0.143619	0.226768	-0.441880	-0.009116	-0.867891	-16.853604	-50.456581	-142.727829
34118		20.027053	-5.257378	16.338765	-0.154821	0.768073	16.546339	-0.863503	6.708595	1.263508	-0.646240	0.210938	-0.410645	0.205927	-0.050598	0.156764	0.309154	-0.422739	-0.047758	-0.850549	-15.766739	-48.473635	-132.916060
34119		22.811405	-5.995761	17.011646	-2.612479	-1.168116	19.121523	-0.756734	6.676224	1.560600	-0.610596	0.220703	-0.437500	0.234081	-0.057522	0.162589	0.315601	-0.395643	-0.030897	-0.861921	-16.003300	-44.549776	-133.187687
34120		24.974187	-3.543412	15.853495	-4.264665	-6.033925	19.042945	-0.703848	6.632728	1.938840	-0.576660	0.214600	-0.457520	0.255141	-0.032439	0.150250	0.322738	-0.369752	-0.014239	-0.871161	-16.409900	-40.799754	-133.204828
34121		25.833473	3.879020	14.379283	-2.551291	-14.313461	16.214834	-1.170326	6.484089	2.593406	-0.545898	0.228760	-0.473633	0.262270	0.042982	0.135088	0.332128	-0.343355	0.006121	-0.878499	-17.356606	-36.813228	-132.764869
34122		25.736603	1.959040	11.659514	-5.806222	-13.933055	14.144987	-1.967986	6.176698	3.037542	-0.523926	0.244629	-0.496338	0.260449	0.024624	0.108356	0.335484	-0.332111	0.014761	-0.881439	-17.717172	-35.139401	-132.675003
34123		27.214091	-3.749697	8.280571	-12.628860	-12.552278	12.679106	-1.872910	5.702817	3.326452	-0.493164	0.263184	-0.514648	0.274925	-0.032210	0.075310	0.346413	-0.309683	0.038092	-0.884671	-19.296527	-31.435892	-131.753802
34124		27.222606	-9.464497	3.181597	-18.043406	-8.023304	11.414266	-0.352028	5.102215	3.445789	-0.466553	0.270264	-0.539307	0.274498	-0.089880	0.024993	0.341924	-0.337841	0.014314	-0.876782	-18.369751	-35.636226	-131.440834
34125		27.688382	-1.990716	-2.600933	-17.701920	-16.352158	4.202270	1.528926	4.366979	3.306328	-0.450928	0.268555	-0.565918	0.276502	-0.015103	-0.032178	0.358548	-0.315712	0.020655	-0.878261	-18.181678	-32.666178	-130.215445
34126		41.368303	14.781758	-14.114567	-18.925116	-38.535611	7.084735	1.038486	3.969167	2.584049	-0.419678	0.275879	-0.583984	0.408822	0.153879	-0.148503	0.340732	-0.407336	-0.016877	-0.847169	-20.453970	-44.560775	-127.724581
34127		44.348643	26.889401	-26.660446	-21.952950	-53.742532	-4.342170	-2.271480	3.350077	1.442332	-0.402588	0.300537	-0.593506	0.436965	0.268954	-0.277015	0.342419	-0.397044	0.001392	-0.851530	-21.830083	-42.472502	-127.616395
34128		28.420672	10.495903	-29.296765	-24.517116	-29.439427	7.744512	-4.336162	1.420804	0.752967	-0.396973	0.329590	-0.578613	0.281724	0.099610	-0.297173	0.239773	-0.575011	-0.129199	-0.771478	-14.046945	-71.654219	-135.304407
34129		17.693995	-14.882426	-21.596725	-29.435420	-1.245715	1.717750	-1.630106	-1.252872	-0.295779	-0.412109	0.318115	-0.569336	0.178061	-0.150835	-0.213630	0.233123	-0.581576	-0.125257	-0.769242	-15.030750	-72.391613	-135.252042
34130		22.523952	-9.829814	-7.102511	-7.784451	8.762169	12.925232	2.449589	-2.724999	-1.279744	-0.440674	0.297607	-0.568848	0.225559	-0.098886	-0.069162	0.141528	-0.746176	-0.237655	-0.605567	161.311306	-76.165069	50.027807
34131		28.271100	5.689535	2.402836	9.586980	1.989409	17.416833	3.576130	-2.420430	-1.389538	-0.450684	0.266357	-0.574707	0.282769	0.054449	0.028439	0.147750	-0.749131	-0.255317	-0.593116	162.129653	-74.598515	51.299616
34132		15.216794	3.391725	6.034662	11.860200	6.078656	0.278311	2.532758	-2.278498	-1.581862	-0.463379	0.246094	-0.563232	0.151722	0.031934	0.062490	0.108162	-0.819284	-0.309083	-0.470683	167.966398	-56.940908	47.881601
34133		-9.201774	-7.548645	2.361783	-6.452146	3.124899	-19.601302	2.605848	-2.660116	-1.831107	-0.484863	0.221191	-0.551514	-0.093000	-0.074926	0.021406	0.110393	-0.821129	-0.324087	-0.456649	168.396342	-55.234148	49.162607
34134		1.411431	-3.236101	17.763189	8.893884	10.798621	-21.311057	3.407243	-3.416871	-2.023332	-0.501953	0.194092	-0.535156	0.010735	-0.035503	0.177248	0.099257	-0.850137	-0.356590	-0.374511	172.001391	-45.036652	48.831865
34135		-0.647984	6.408694	18.714082	14.369475	3.233281	-23.030663	2.982720	-3.567491	-1.106880	-0.528076	0.173584	-0.521240	-0.009483	0.061335	0.187918	0.103473	-0.853121	-0.368548	-0.354473	173.354867	-42.928524	49.343983
34136		3.813220	2.569628	11.893114	9.734551	5.303611	-16.110861	1.982874	-4.541020	-0.131156	-0.548096	0.168701	-0.499023	0.035432	0.024486	0.120003	0.092358	-0.862167	-0.378013	-0.324413	173.646614	-38.992781	49.600993
34137		22.923768	3.766926	13.013225	20.701472	16.252891	-5.791560	1.303976	-4.984939	0.614687	-0.572754	0.165771	-0.472168	0.225780	0.037493	0.136034	0.089524	-0.870522	-0.379652	-0.300069	174.883466	-36.186065	48.798666
34138		29.010554	4.935087	13.612880	25.122419	18.874923	-1.829290	0.596391	-3.929656	0.895233	-0.581787	0.167969	-0.452148	0.287131	0.050223	0.141939	0.079825	-0.869591	-0.371650	-0.315143	173.101292	-37.403516	48.620098
34139		13.576979	0.721087	11.731575	13.362449	11.932611	-11.042695	0.562742	-3.259980	0.299614	-0.593262	0.176514	-0.432373	0.133823	0.007078	0.119528	0.076675	-0.874940	-0.372484	-0.299760	173.708548	-35.567742	48.141202
34140		13.862359	-0.593757	11.901222	13.044835	12.799018	-9.426523	0.816876	-2.965066	-0.003585	-0.588867	0.180908	-0.423584	0.136839	-0.006432	0.121024	0.075898	-0.862958	-0.358763	-0.347609	170.989402	-40.874365	48.512562
34141		13.930987	-3.069039	9.578264	10.138575	13.801407	-8.415878	1.015081	-2.526399	0.097165	-0.595703	0.185303	-0.423584	0.138102	-0.031115	0.097375	0.075908	-0.867058	-0.361034	-0.334818	171.800284	-39.451464	48.157139
34142		14.816856	3.313202	10.020302	14.982730	9.361732	-5.478285	0.782902	-1.903818	-0.207523	-0.598145	0.187500	-0.419189	0.147239	0.032583	0.101736	0.087270	-0.850445	-0.346022	-0.386517	170.154493	-45.874569	48.454921
34143		8.164596	4.805821	10.216497	13.011987	4.937215	-10.478005	0.286517	-1.355585	-0.346885	-0.598145	0.191895	-0.419189	0.081034	0.047770	0.102784	0.085470	-0.852318	-0.348634	-0.380398	170.253882	-45.075382	48.545776
34144		6.715562	-0.891325	10.646576	9.321000	8.415570	-11.052892	0.133705	-1.138436	-0.291936	-0.602783	0.194092	-0.423828	0.066535	-0.009082	0.106840	0.086242	-0.834084	-0.327247	-0.435632	166.870350	-51.550099	49.205863
34145		6.687693	-0.925575	10.509779	9.169529	8.379550	-11.131362	0.291641	-0.926972	-0.325120	-0.609619	0.196289	-0.430420	0.066374	-0.009517	0.105392	0.085232	-0.835435	-0.329634	-0.431423	166.961126	-50.990603	49.303698
34146		7.396469	2.400477	10.016893	11.305726	5.578945	-8.447664	0.284994	-0.696814	-0.278613	-0.612549	0.209473	-0.448486	0.073648	0.023759	0.100460	0.089085	-0.816666	-0.307919	-0.479903	164.007913	-57.003378	50.040844
34147		7.735861	1.632338	9.301932	10.449058	6.041190	-7.981056	0.059636	-0.525725	-0.151409	-0.617188	0.213867	-0.450684	0.077126	0.016237	0.093227	0.088156	-0.817664	-0.308913	-0.477730	164.041313	-56.689925	50.041760
34148		5.944140	0.351484	9.039812	9.036799	5.799942	-8.444723	-0.037613	-0.400654	-0.044787	-0.619385	0.216064	-0.461914	0.059261	0.003519	0.090516	0.087435	-0.799524	-0.283231	-0.522394	160.421756	-62.234636	50.905265
34149		5.243740	0.066314	9.462546	9.017512	5.957730	-9.332267	-0.114540	-0.328590	0.010578	-0.630859	0.222412	-0.464111	0.052282	0.000720	0.094711	0.086539	-0.800446	-0.283033	-0.521238	160.486127	-62.059258	50.758232
34150		5.838624	-1.235527	9.175153	8.439915	6.702001	-7.902087	-0.133845	-0.319997	0.016611	-0.640137	0.229004	-0.477539	0.058240	-0.012289	0.091853	0.084546	-0.783309	-0.256307	-0.559987	156.673488	-67.017660	51.802432
34151		6.169970	-0.314223	8.589661	8.504515	5.760460	-7.275017	-0.112956	-0.298470	0.019440	-0.651611	0.235596	-0.477783	0.061572	-0.003088	0.085990	0.083776	-0.784217	-0.256041	-0.558954	156.791480	-66.864976	51.603853
34152		6.519285	1.520797	8.581220	9.425433	3.721614	-5.842559	-0.174398	-0.288100	0.094164	-0.667725	0.241943	-0.482178	0.065062	0.015314	0.085893	0.081457	-0.768193	-0.228361	-0.592533	152.920942	-71.363119	52.732539
34153		6.281474	0.925196	8.904659	9.416624	4.288871	-6.271721	-0.258623	-0.274771	0.210093	-0.674561	0.248291	-0.486816	0.062682	0.009433	0.089121	0.080772	-0.769350	-0.226899	-0.591687	153.300876	-71.277173	52.175057
34154		5.461280	-0.321071	8.635483	8.508043	4.546992	-6.430658	-0.255416	-0.271401	0.266292	-0.677246	0.255127	-0.489014	0.054500	-0.003028	0.086433	0.076384	-0.754256	-0.198342	-0.621227	148.781142	-75.336604	53.809055
34155		5.175789	-0.975777	8.359622	7.982435	4.954779	-6.754100	-0.227933	-0.301061	0.245435	-0.695313	0.259033	-0.493652	0.051644	-0.009599	0.083685	0.075988	-0.755520	-0.196823	-0.620223	149.447945	-75.260784	52.984663
34156		5.205207	-1.734937	8.262880	7.672386	5.130616	-6.180812	-0.159292	-0.321125	0.216125	-0.706543	0.261230	-0.484619	0.051938	-0.017227	0.082726	0.071213	-0.741327	-0.169072	-0.645583	144.203309	-78.889263	55.454801
34157		4.480359	-1.134002	8.370242	7.920958	4.471034	-6.865028	-0.132029	-0.330883	0.203709	-0.713623	0.267578	-0.487061	0.044677	-0.011239	0.083784	0.071101	-0.742613	-0.168008	-0.644394	145.166374	-78.802072	54.396086
34158		4.177913	-1.920100	8.648310	7.974754	4.780242	-6.732516	-0.174569	-0.378854	0.185573	-0.716064	0.274170	-0.484863	0.041633	-0.019087	0.086579	0.065848	-0.729409	-0.140694	-0.666207	138.596961	-82.055924	58.239624
34159		4.379196	-1.768825	8.804709	8.205213	4.687652	-6.567809	-0.110588	-0.430279	0.142877	-0.727295	0.276367	-0.478271	0.043615	-0.017608	0.088151	0.065617	-0.730977	-0.139946	-0.664667	140.115780	-81.922214	56.641847
34160		5.444896	-2.186271	8.235794	7.645693	4.549802	-5.006708	-0.113665	-0.520047	0.095854	-0.729492	0.276123	-0.464844	0.054245	-0.021790	0.082512	0.059878	-0.718747	-0.113577	-0.683314	130.471699	-84.785166	63.633209
34161		5.491975	-1.606808	8.199482	7.785672	3.977920	-4.961468	-0.052696	-0.562017	0.056412	-0.745361	0.280273	-0.464844	0.054694	-0.016031	0.082153	0.059562	-0.720712	-0.113362	-0.681305	133.253517	-84.594333	60.809078
34162		4.843319	-1.755038	8.525065	8.042647	3.666191	-5.220391	-0.018047	-0.619616	0.018367	-0.750244	0.284668	-0.458252	0.048170	-0.017538	0.085402	0.053758	-0.709342	-0.088614	-0.697203	114.981519	-87.008984	76.578196
34163		4.840620	-1.905303	8.640561	8.154785	3.842034	-5.289531	0.060330	-0.679511	-0.048687	-0.761475	0.286621	-0.449463	0.048108	-0.019091	0.086564	0.053501	-0.711668	-0.089179	-0.694775	121.129501	-86.800999	70.455867
34164		5.309729	-1.695507	8.081987	7.614633	3.112970	-4.454250	0.103127	-0.704408	-0.125797	-0.766113	0.291016	-0.438477	0.052802	-0.017030	0.080997	0.047706	-0.700855	-0.067133	-0.708533	73.093818	-88.307327	116.222625
34165		5.798683	-1.438220	8.013447	7.616434	2.883008	-4.017318	0.123106	-0.685699	-0.185263	-0.772705	0.288574	-0.436035	0.057698	-0.014485	0.080324	0.047250	-0.703188	-0.068381	-0.706129	86.766637	-88.271246	102.614322
34166		5.393471	-1.191011	8.252013	7.807301	2.277577	-4.115138	0.114174	-0.634481	-0.235620	-0.777100	0.286133	-0.422607	0.053658	-0.012021	0.082684	0.041661	-0.692503	-0.049469	-0.718510	20.406815	-87.799669	166.983755
34167		5.308471	-1.374453	8.183127	7.748954	2.476020	-4.257940	0.100159	-0.593120	-0.285888	-0.781738	0.292725	-0.420654	0.052822	-0.013861	0.081981	0.040834	-0.694538	-0.050942	-0.716488	28.448057	-88.041845	158.994663
34168		5.497735	-1.226811	8.011689	7.483415	2.018819	-3.826048	0.091559	-0.558168	-0.355476	-0.784180	0.294922	-0.414063	0.054732	-0.012402	0.080264	0.035899	-0.684575	-0.036849	-0.727125	4.228836	-86.550800	-178.328961
34169		5.645889	-1.180931	7.768340	7.267187	1.978066	-3.738752	0.043345	-0.537971	-0.426487	-0.788330	0.285889	-0.402588	0.056224	-0.011946	0.077832	0.034397	-0.686439	-0.038562	-0.725349	9.068148	-86.828806	176.848526
34170		5.687655	-1.077332	7.957560	7.353589	1.708068	-3.500814	0.008746	-0.516891	-0.483201	-0.797363	0.285889	-0.395996	0.056644	-0.010914	0.079722	0.030182	-0.678231	-0.029710	-0.733628	1.940345	-85.509948	-177.082235
34171		5.756407	-0.785335	7.769097	7.215838	1.430865	-3.488458	-0.041108	-0.498738	-0.518377	-0.801758	0.285645	-0.386963	0.057350	-0.007986	0.077836	0.028067	-0.679984	-0.031392	-0.732017	6.067166	-85.774319	178.755363
34172		5.711430	-0.902562	7.713288	7.056366	1.450570	-3.406975	-0.049164	-0.470400	-0.553584	-0.808350	0.281006	-0.384766	0.056907	-0.009164	0.077269	0.024802	-0.673477	-0.027085	-0.738295	4.121761	-84.742750	-179.912033
34173		5.889716	-0.340922	7.786877	7.183174	0.927456	-3.256622	-0.042771	-0.474502	-0.592003	-0.814941	0.278809	-0.380127	0.058702	-0.003566	0.078009	0.022409	-0.675148	-0.028979	-0.736772	8.170380	-84.976757	175.998402
34174		6.227645	-0.264955	7.427039	6.709902	0.808834	-2.860177	-0.081424	-0.475308	-0.600146	-0.819336	0.276367	-0.369141	0.062091	-0.002806	0.074419	0.020022	-0.670168	-0.028235	-0.741402	8.535189	-84.187357	175.380786
34175		5.560374	0.624146	7.893198	7.328868	-0.022428	-3.496290	-0.102405	-0.461458	-0.574315	-0.823730	0.271729	-0.362305	0.055439	0.006123	0.079057	0.017484	-0.671803	-0.029826	-0.739923	12.188175	-84.388221	171.650605
34176		5.440901	0.767780	8.167737	7.556075	-0.113082	-3.504155	-0.137736	-0.482517	-0.495357	-0.832275	0.260498	-0.353027	0.054231	0.007600	0.081803	0.016414	-0.667908	-0.031674	-0.743388	13.381375	-83.757175	170.521695
34177		5.711667	0.763964	7.972776	7.363505	-0.102960	-3.290425	-0.140938	-0.532460	-0.403353	-0.841064	0.260254	-0.344238	0.056919	0.007581	0.079874	0.014360	-0.669830	-0.032541	-0.741662	16.106739	-83.993315	167.699466
34178		5.979644	1.100973	8.207921	7.541600	-0.334989	-2.931555	-0.159340	-0.646966	-0.289464	-0.841064	0.255859	-0.339600	0.059546	0.010989	0.082263	0.015010	-0.667181	-0.036383	-0.743855	17.661023	-83.546908	166.510802
34179		5.837297	1.053598	8.516125	7.905571	-0.269003	-3.094238	-0.198259	-0.780073	-0.153651	-0.852051	0.253418	-0.323975	0.058048	0.010576	0.085378	0.013636	-0.670062	-0.036216	-0.741296	19.610944	-83.942204	164.434924
34180		5.451604	0.806695	8.725824	8.115014	0.094610	-3.437147	-0.217959	-0.964225	-0.043074	-0.858887	0.255371	-0.308350	0.054096	0.008151	0.087511	0.015807	-0.668997	-0.041200	-0.741954	21.504355	-83.737436	163.122930
34181		5.795872	0.855459	8.816765	8.243024	0.046219	-3.171276	-0.233112	-1.196135	0.052497	-0.865723	0.257568	-0.295166	0.057428	0.008673	0.088502	0.014975	-0.673450	-0.040253	-0.737984	23.630961	-84.381808	160.850578
34182		6.180481	0.885156	8.697021	8.101857	0.149454	-2.815865	-0.259609	-1.448972	0.161147	-0.876953	0.259521	-0.275146	0.061165	0.009014	0.087403	0.018163	-0.674452	-0.045779	-0.736674	26.527732	-84.481856	158.661187
34183		5.751073	1.635225	8.949761	8.562892	-0.626607	-3.322059	-0.385463	-1.718858	0.270838	-0.885742	0.254639	-0.250488	0.056717	0.016602	0.089955	0.017467	-0.680852	-0.043600	-0.730913	30.042970	-85.422981	154.910663
34184		5.060710	-0.103065	10.082155	9.622600	1.331176	-4.076820	-0.401726	-2.020297	0.346817	-0.892822	0.263428	-0.224121	0.049587	-0.000741	0.101328	0.021127	-0.684095	-0.049344	-0.727415	35.936473	-85.809911	149.779850
34185		4.851653	-0.476450	10.124237	9.770667	1.640210	-4.511452	-0.476231	-2.400434	0.367259	-0.896973	0.260986	-0.186279	0.047305	-0.004435	0.101826	0.020240	-0.692913	-0.046605	-0.719229	47.763024	-86.981199	137.657231
34186		5.135438	-1.228626	9.794423	9.412671	2.501509	-4.432270	-0.477504	-2.776645	0.272323	-0.899414	0.265381	-0.153076	0.050004	-0.011983	0.098674	0.022961	-0.698914	-0.052364	-0.712917	67.588601	-87.360920	118.519337
34187		5.191426	-1.596224	10.075548	9.823158	2.846896	-4.674088	-0.464321	-3.162652	0.147700	-0.910645	0.267090	-0.102051	0.050324	-0.015689	0.101596	0.021034	-0.710188	-0.050549	-0.701880	108.624529	-87.515310	77.179535
34188		5.455973	-2.045565	9.819216	9.613567	3.407445	-4.682053	-0.365919	-3.632203	0.012876	-0.915283	0.271484	-0.064453	0.052766	-0.020271	0.099199	0.022306	-0.719138	-0.056672	-0.692193	131.300964	-86.460890	55.104881
34189		5.741761	-1.362208	9.436846	9.535042	2.675437	-4.734886	-0.360699	-4.216040	-0.122033	-0.914795	0.266846	-0.006592	0.055403	-0.013485	0.095575	0.019387	-0.733572	-0.056320	-0.676997	149.935075	-84.523361	36.209296
34190		5.407166	-1.994659	10.406088	10.539200	3.509784	-5.560338	-0.415712	-4.773646	-0.255899	-0.912354	0.262207	0.044678	0.051542	-0.019796	0.105353	0.018458	-0.746080	-0.062283	-0.662680	155.559235	-82.360338	31.001171
34191		5.972405	-2.236298	10.641182	11.039530	3.787721	-5.611408	-0.363547	-5.331385	-0.410940	-0.907959	0.264404	0.106689	0.056813	-0.022286	0.107993	0.014073	-0.763380	-0.063080	-0.642709	161.037667	-79.431671	25.243819
34192		4.612780	-1.443393	9.292534	9.735139	2.842444	-7.200011	-0.410889	-6.046257	-0.533770	-0.896240	0.257813	0.179932	0.043252	-0.014359	0.094292	0.011131	-0.779155	-0.069218	-0.622899	162.887589	-76.460831	23.672216
34193		7.445988	-0.559158	12.816601	14.096681	2.542401	-5.971858	-0.671919	-6.913074	-0.596455	-0.880371	0.260254	0.237549	0.069956	-0.005368	0.130655	0.004258	-0.800037	-0.069791	-0.595862	165.241673	-72.557381	20.831406
34194		6.982381	-4.234110	12.079152	13.007449	6.115851	-7.384975	-1.027051	-7.342278	-0.676822	-0.859619	0.249268	0.317627	0.065181	-0.041937	0.123458	-0.002422	-0.818052	-0.074961	-0.570233	165.649670	-68.843366	20.332411
34195		15.785489	-6.111071	15.486114	19.434814	9.247590	-1.885590	-0.969851	-7.887442	-0.920397	-0.841309	0.240479	0.384277	0.151298	-0.061046	0.161211	-0.011965	-0.839523	-0.075805	-0.537878	166.430190	-64.330372	18.877117
34196		12.705054	-7.646238	12.035178	15.358898	10.156481	-4.763829	-1.137135	-7.813516	-1.356146	-0.809082	0.223145	0.453369	0.121692	-0.076595	0.125612	-0.021888	-0.856556	-0.080847	-0.509212	165.995028	-60.319170	18.948665
34197		16.291088	-4.049836	15.733891	21.192679	7.249721	-4.579186	-1.467441	-7.682261	-1.599779	-0.778809	0.201416	0.518066	0.156378	-0.040581	0.163728	-0.035331	-0.874620	-0.083056	-0.476333	165.469189	-55.827711	18.577338
34198		18.797624	-6.103700	16.058388	22.963834	9.656217	-4.562291	-1.421864	-7.473163	-1.884988	-0.737549	0.179688	0.567139	0.181214	-0.061590	0.167877	-0.047852	-0.888367	-0.087251	-0.448221	164.624507	-52.000724	18.752387
34199		16.757258	-0.083123	16.096078	22.826707	3.252365	-6.976967	-1.021397	-6.921768	-2.034627	-0.705322	0.160156	0.618652	0.161856	-0.001656	0.166636	-0.059934	-0.902153	-0.092285	-0.417146	163.980337	-47.867652	18.829006
34200		14.613970	-3.678254	19.097926	23.380381	6.145325	-12.494281	-1.394012	-6.547397	-1.941286	-0.677490	0.142822	0.660889	0.139423	-0.036804	0.195874	-0.071981	-0.911359	-0.098147	-0.393205	162.972282	-44.633813	19.325816
34201		15.723224	-5.144178	24.251721	27.495188	7.171663	-17.171744	-1.344677	-5.619514	-1.987236	-0.645020	0.118896	0.687988	0.149820	-0.051304	0.247142	-0.084737	-0.920520	-0.102490	-0.367366	162.090265	-41.221100	19.489191
34202		-8.977065	-2.195075	17.130387	5.144036	-1.797174	-28.496319	-2.030920	-4.455826	-1.922982	-0.612549	0.090576	0.717285	-0.093754	-0.019335	0.169450	-0.098718	-0.923594	-0.109169	-0.353994	160.418165	-39.222920	20.519254
34203		28.603729	-2.972903	14.064462	30.029149	9.114232	-3.503228	-2.579024	-4.344238	-2.386067	-0.600098	0.059814	0.735596	0.282520	-0.031244	0.147204	-0.117181	-0.928345	-0.113436	-0.334030	158.621924	-36.413241	21.038113
34204		30.841272	-8.763140	25.095999	38.123720	14.026700	-12.569018	-2.338108	-0.620574	-1.974330	-0.619385	0.037109	0.720703	0.306764	-0.087716	0.252939	-0.130781	-0.923558	-0.122821	-0.338899	156.189394	-36.431403	23.088077
34205		16.859778	-12.877485	20.553317	24.256768	14.140140	-18.987680	-1.459990	1.992326	-1.528623	-0.643555	0.016846	0.703613	0.169657	-0.128572	0.204786	-0.138876	-0.918190	-0.128696	-0.347963	154.401648	-37.102805	24.677052
34206		-0.674035	-11.851561	14.124152	7.705105	8.535504	-24.240919	-0.534300	2.909962	-1.024291	-0.674805	0.011719	0.681641	-0.005287	-0.118108	0.141641	-0.139836	-0.908751	-0.135819	-0.369013	152.765635	-39.249399	26.874166
34207		-4.401061	-9.229650	10.596792	3.257841	5.376349	-23.129002	0.046790	2.566786	-0.611057	-0.690430	0.009277	0.652832	-0.042928	-0.092189	0.106502	-0.138995	-0.903553	-0.140465	-0.380188	151.964873	-40.390349	28.166340
34208		-0.737653	-5.571400	9.763215	5.965989	3.553666	-18.682846	0.206117	2.241160	-0.143450	-0.717529	0.008789	0.633057	-0.006322	-0.055810	0.097649	-0.135308	-0.897059	-0.140402	-0.396565	151.376351	-42.336991	29.074921
34209		3.947190	-3.567488	10.160592	9.700851	3.424302	-14.882753	-0.029659	2.513524	0.458222	-0.735840	0.015137	0.601807	0.040826	-0.035567	0.101104	-0.132756	-0.892302	-0.139977	-0.408141	150.925100	-43.725525	29.711187
34210		5.941398	-4.321259	10.666147	11.398219	4.862219	-13.576107	-0.239252	3.269039	1.021093	-0.758301	0.014893	0.571045	0.061366	-0.042776	0.105720	-0.128110	-0.883814	-0.134209	-0.429474	150.265552	-46.449203	30.266666
34211		4.658507	-5.663018	10.206693	10.226877	5.816320	-14.229213	-0.094504	4.073676	1.404810	-0.788086	0.030029	0.526367	0.049047	-0.056243	0.101111	-0.122747	-0.875742	-0.130377	-0.448342	149.694334	-48.873328	30.965965
34212		3.002351	-5.353258	8.878026	8.459054	5.236808	-13.994591	0.317368	4.648336	1.598578	-0.813721	0.049561	0.479492	0.032502	-0.053419	0.087959	-0.113484	-0.863929	-0.123325	-0.474909	149.090960	-52.427735	31.751271
34213		2.494351	-3.298749	7.887650	7.688917	3.373730	-12.778881	0.692154	5.008194	1.680530	-0.836914	0.067139	0.432617	0.027183	-0.033037	0.078100	-0.103376	-0.853158	-0.120507	-0.496902	148.580391	-55.382011	32.873594
34214		2.993044	-0.722593	7.582987	8.013785	1.223916	-10.929421	0.782928	5.263810	1.689663	-0.855469	0.078125	0.374756	0.031973	-0.007256	0.074978	-0.091622	-0.838670	-0.113846	-0.524669	147.734930	-59.225327	34.132895
34215		3.692705	1.373540	7.530870	8.470718	-0.462444	-9.309061	0.566022	5.519230	1.621858	-0.878418	0.091064	0.327881	0.038875	0.013834	0.074293	-0.081815	-0.825022	-0.111011	-0.548016	146.376157	-62.385399	36.060168
34216		4.179381	2.578230	7.750091	8.900611	-1.421794	-8.104762	0.136450	5.794885	1.481407	-0.890381	0.106445	0.272217	0.043823	0.026050	0.076268	-0.072838	-0.806404	-0.105750	-0.577255	143.431514	-66.290675	39.293649
34217		4.556911	2.781660	7.838122	9.008644	-1.481514	-7.250376	-0.349270	6.027834	1.285585	-0.901855	0.110840	0.214355	0.047722	0.028254	0.076915	-0.067314	-0.789174	-0.101703	-0.601938	139.343735	-69.451558	43.488470
34218		4.948563	2.206504	7.998411	9.009808	-0.772903	-6.417204	-0.740845	6.183240	1.068777	-0.909180	0.119873	0.140869	0.051805	0.022630	0.078323	-0.062155	-0.766274	-0.098526	-0.631866	131.402202	-72.963056	51.578041
34219		5.517138	1.668844	8.219716	9.052702	-0.127303	-5.478304	-0.969113	6.259014	0.850765	-0.911621	0.122070	0.083252	0.057632	0.017322	0.080336	-0.060065	-0.746226	-0.094100	-0.656266	121.655010	-75.498346	61.125248
34220		6.412055	1.958709	8.783982	9.344645	-0.136636	-3.919686	-1.104001	6.280244	0.664877	-0.916504	0.131104	0.018555	0.066767	0.020283	0.085660	-0.056657	-0.720342	-0.092851	-0.685037	104.761519	-77.527800	78.188955
34221		7.897173	2.504481	9.510116	9.722038	-0.373748	-1.789715	-1.295883	6.301173	0.526614	-0.905518	0.131592	-0.048096	0.081844	0.025862	0.092387	-0.056565	-0.698261	-0.088252	-0.708127	87.393345	-78.217684	95.188045
34222		9.355743	2.509867	10.122229	9.586123	-0.000153	0.401290	-1.532888	6.349110	0.453854	-0.892090	0.134277	-0.108154	0.096644	0.026075	0.097989	-0.054306	-0.669671	-0.087305	-0.735506	66.411490	-77.320224	116.279020
34223		10.666507	1.450068	10.730168	9.300970	1.211315	2.143622	-1.707976	6.408608	0.447133	-0.874268	0.132568	-0.170166	0.109992	0.015640	0.103682	-0.055552	-0.645464	-0.081219	-0.757425	51.744307	-75.640418	130.351970
34224		11.902599	0.332367	11.608121	8.883153	2.595724	3.999657	-1.701303	6.441543	0.534523	-0.845459	0.144287	-0.230469	0.122669	0.004613	0.112133	-0.052519	-0.614518	-0.079507	-0.783127	39.168159	-72.580857	143.044252
34225		12.938541	0.017183	12.642580	8.671596	2.974569	5.778201	-1.592037	6.451535	0.693304	-0.812256	0.149658	-0.281982	0.133368	0.001613	0.122157	-0.052101	-0.588770	-0.072793	-0.803328	31.055206	-69.778994	150.647929
34226		13.858067	-0.284035	13.772725	8.123547	3.402608	7.625920	-1.522649	6.409190	0.921198	-0.774414	0.159424	-0.328857	0.142906	-0.001163	0.133206	-0.046663	-0.556662	-0.069241	-0.826533	24.177696	-66.026840	157.692679
34227		15.220487	-1.194771	15.109970	7.655225	4.311560	9.784344	-1.464505	6.312860	1.233373	-0.729980	0.169189	-0.375977	0.156939	-0.009907	0.146273	-0.043430	-0.530354	-0.061192	-0.844449	19.162687	-62.923331	162.317694
34228		17.366971	-2.838509	16.605250	6.402638	6.019052	12.725588	-1.293617	6.192207	1.620135	-0.687744	0.178955	-0.405273	0.178918	-0.025898	0.160739	-0.034732	-0.498327	-0.054832	-0.864556	14.587339	-59.076591	167.102600
34229		20.875816	-4.983930	17.951581	4.263293	8.147093	16.608307	-0.964212	6.154956	2.044927	-0.649902	0.188721	-0.425537	0.214643	-0.046819	0.173200	-0.026589	-0.471844	-0.046609	-0.880048	11.014502	-55.895078	170.682373
34230		24.492757	-7.758758	17.919989	0.046122	10.538708	19.679413	-0.427106	6.258350	2.453463	-0.602295	0.180908	-0.454590	0.251300	-0.074159	0.171563	-0.013929	-0.439384	-0.038702	-0.897357	7.617514	-51.951665	174.505899
34231		26.781600	-8.770872	15.789402	-5.105897	10.843967	20.177298	0.285857	6.385369	2.864949	-0.577637	0.181396	-0.474609	0.273892	-0.084031	0.149091	0.000795	-0.411038	-0.034112	-0.910979	5.325081	-48.499366	177.699935
34232		27.217896	-1.549365	12.075372	-10.123415	2.397774	18.123545	0.822847	6.296586	3.469295	-0.546631	0.186523	-0.510498	0.276018	-0.011200	0.112051	0.016347	-0.378913	-0.024568	-0.924962	2.659822	-44.568589	-179.065246
34233		25.519274	0.982419	8.883328	-12.574499	-1.347827	14.080214	0.339472	5.955915	4.307083	-0.513428	0.202881	-0.528809	0.257398	0.015210	0.081212	0.037626	-0.351611	-0.017474	-0.935227	0.474257	-41.222617	-175.570622
34234		25.631828	-5.595059	4.317801	-17.479457	3.708931	9.868489	0.410400	5.283475	4.822921	-0.491699	0.218750	-0.555664	0.258588	-0.049811	0.036259	0.056790	-0.324286	-0.003302	-0.944247	-2.218926	-37.791315	-172.356823
34235		23.889197	-2.507093	0.496555	-18.992046	-0.620851	4.881675	1.630522	4.400048	4.997259	-0.462646	0.223877	-0.573730	0.239449	-0.019103	-0.000471	0.083062	-0.302937	-0.001645	-0.949382	-3.308801	-35.133239	-168.952058
34236		36.549020	13.442183	-8.391255	-32.211520	-19.839397	2.648562	1.309967	3.859971	4.612208	-0.431641	0.237793	-0.589844	0.360555	0.143352	-0.089984	0.100023	-0.282772	0.008590	-0.953919	-4.964136	-32.531568	-166.579035
34237		46.641214	25.719306	-21.381964	-44.840312	-35.604257	-5.931297	-1.844969	3.537801	3.248971	-0.410645	0.271729	-0.599609	0.458268	0.262645	-0.224381	0.112725	-0.266581	0.023750	-0.956903	-7.023604	-30.320014	-164.657575
34238		35.489383	15.560758	-29.273936	-41.591817	-23.154763	-19.419038	-4.411040	2.266517	1.994773	-0.391357	0.298584	-0.591309	0.349989	0.152550	-0.300112	0.114824	-0.258592	0.049785	-0.957845	-10.186106	-28.943685	-163.692813
34239		19.039199	-7.672784	-25.993548	-30.691487	3.988203	-21.607246	-2.901093	-0.230246	0.520628	-0.405273	0.309570	-0.587158	0.190896	-0.079989	-0.258571	0.113612	-0.261194	0.064216	-0.956424	-12.024547	-29.014647	-163.329238
34240		17.008685	-12.315420	-13.355229	-23.349892	8.586138	-10.428039	1.124248	-2.419832	-1.127943	-0.426758	0.286865	-0.577637	0.170996	-0.123371	-0.132180	0.107992	-0.275105	0.057505	-0.953597	-11.354883	-30.814423	-163.939184
34241		25.783416	-1.211648	-1.102224	-21.937159	-4.690283	3.000306	3.248747	-2.842518	-1.887732	-0.446045	0.261963	-0.570313	0.257829	-0.014408	-0.007579	0.104248	-0.287361	0.037871	-0.951379	-9.013503	-32.607601	-164.852022
34242		22.025459	4.513643	3.816153	-14.849440	-8.947016	5.001227	2.771701	-2.140684	-1.754392	-0.460693	0.235107	-0.565186	0.220206	0.042648	0.041121	0.095390	-0.300019	0.025009	-0.948822	-7.287245	-34.371589	-166.261601
34243		11.618757	-8.000196	1.539544	-9.670029	5.717465	-1.143136	2.115988	-2.565751	-1.770506	-0.480469	0.218994	-0.555908	0.115269	-0.081192	0.016023	0.090469	-0.311341	0.011089	-0.945917	-5.479898	-35.944372	-167.294692
34244		-13.339134	-10.643603	3.697062	10.974844	12.829831	-14.260638	2.519820	-3.414684	-1.445294	-0.499756	0.196289	-0.539795	-0.134748	-0.105901	0.033341	0.083271	-0.330091	-0.000814	-0.940269	-3.909210	-38.380736	-168.516990
34245		2.717792	-4.112257	17.533360	8.381194	4.926628	5.586478	2.811222	-4.041757	-0.459863	-0.523926	0.182617	-0.517090	0.023537	-0.043643	0.175232	0.085708	-0.347810	-0.016469	-0.933494	-2.182775	-40.706203	-168.698487
34246		4.787812	0.713493	15.199679	6.780777	0.015084	4.624526	2.206140	-4.448852	0.995889	-0.543945	0.177734	-0.499023	0.044450	0.005677	0.153079	0.089341	-0.370377	-0.022253	-0.924307	-1.979281	-43.524218	-168.168034
34247		13.670175	0.888194	12.994009	-0.222186	-1.398916	9.013403	1.892610	-5.038549	1.492744	-0.562012	0.181641	-0.468018	0.133305	0.008634	0.133410	0.099149	-0.392829	-0.030474	-0.913743	-1.844567	-46.380152	-166.824072
34248		29.386990	12.800318	14.556465	-5.900438	-15.173412	21.396907	1.260074	-4.565132	1.247454	-0.577637	0.181396	-0.447998	0.289632	0.128870	0.153019	0.103671	-0.415142	-0.032640	-0.903241	-2.376951	-49.175349	-165.817164
34249		22.540051	10.987685	12.466347	-2.200157	-12.433437	15.180983	0.479076	-3.524082	0.296758	-0.584717	0.187744	-0.426025	0.222991	0.109904	0.128870	0.105415	-0.430784	-0.036007	-0.895554	-2.407484	-51.184746	-165.420147
34250		13.169461	1.833410	10.243565	0.543203	-2.153167	6.823751	0.344471	-3.199286	-0.394059	-0.593750	0.189697	-0.410400	0.130069	0.017898	0.104556	0.103759	-0.446218	-0.040547	-0.887963	-1.970451	-53.212833	-165.683259
34251		15.223448	-6.584378	10.783721	-1.595986	6.044014	8.956888	0.726929	-2.874993	-0.109552	-0.604980	0.193848	-0.401611	0.150630	-0.066323	0.109770	0.104301	-0.458527	-0.045504	-0.881364	-1.537142	-54.860341	-165.704076
34252		17.518605	-2.089567	10.715645	-1.419201	1.556249	10.721144	0.994979	-2.285548	-0.148355	-0.604980	0.191650	-0.403809	0.173931	-0.021564	0.109043	0.104998	-0.469263	-0.051256	-0.875295	-0.910987	-56.330546	-165.831520
34253		9.461727	5.198626	9.898094	4.236708	-4.406357	3.497160	0.482643	-1.543573	-0.495216	-0.607422	0.196045	-0.406006	0.093977	0.051513	0.099833	0.103565	-0.475614	-0.055337	-0.871782	-0.214805	-57.216829	-166.333243
34254		8.216330	-1.724838	9.918808	3.484628	2.621405	2.428576	0.281282	-1.358425	-0.416707	-0.607178	0.191650	-0.414795	0.081451	-0.017559	0.099718	0.102017	-0.482187	-0.058591	-0.868133	0.363079	-58.120333	-166.797189
34255		8.422173	-1.715663	10.334860	3.839743	2.766686	2.768495	0.313515	-0.827484	-0.453075	-0.612061	0.200439	-0.419434	0.083754	-0.017509	0.103669	0.100564	-0.485473	-0.061464	-0.866271	0.972602	-58.590536	-167.302233
34256		4.830487	-0.916242	10.667186	6.202585	2.543008	-0.167867	0.244268	-0.466886	-0.434411	-0.616699	0.202637	-0.428223	0.048035	-0.009397	0.106773	0.098931	-0.487920	-0.063751	-0.864918	1.525915	-58.940816	-167.811877
34257		5.974696	1.399855	10.016948	5.651576	0.090526	0.485224	0.289018	-0.321343	-0.440605	-0.621338	0.209229	-0.443848	0.059616	0.013722	0.100285	0.097628	-0.489017	-0.066233	-0.864259	2.121368	-59.115962	-168.313290
34258		6.663026	1.036159	8.916820	4.330293	0.199287	0.492062	0.205211	-0.256843	-0.362598	-0.628174	0.211426	-0.457275	0.066534	0.010149	0.089264	0.096463	-0.490241	-0.068244	-0.863540	2.613783	-59.299919	-168.740274
34259		7.215865	0.087141	7.944582	3.035922	0.902833	0.442097	0.151842	-0.214548	-0.306490	-0.644043	0.211182	-0.461670	0.072075	0.000701	0.079524	0.095439	-0.490982	-0.069752	-0.863112	3.006685	-59.413252	-169.095903
34260		6.994379	-0.765647	8.273678	3.236405	1.865982	0.385595	0.156913	-0.182563	-0.289970	-0.653076	0.215332	-0.470703	0.069857	-0.007823	0.082794	0.094624	-0.491722	-0.071478	-0.862639	3.421157	-59.528850	-169.437258
34261		5.665724	-1.347581	8.680941	4.110189	2.681548	-0.582810	0.233986	-0.153927	-0.323611	-0.662354	0.221924	-0.481689	0.056568	-0.013669	0.086837	0.093749	-0.492152	-0.073353	-0.862332	3.879393	-59.604228	-169.813308
34262		5.877475	-1.163895	8.670505	4.042673	2.525419	-0.412906	0.287109	-0.149983	-0.353458	-0.675537	0.212891	-0.490479	0.058689	-0.011867	0.086732	0.092869	-0.492543	-0.075522	-0.862017	4.398204	-59.676500	-170.225511
34263		5.991846	0.617385	8.547394	4.303426	0.804860	-0.316695	0.286887	-0.144930	-0.336226	-0.675781	0.219482	-0.492676	0.059867	0.005951	0.085526	0.092073	-0.492900	-0.077652	-0.861709	4.902434	-59.742817	-170.619174
34264		6.217324	0.963263	8.282197	4.053853	0.430371	-0.244055	0.218425	-0.158252	-0.236459	-0.698242	0.214600	-0.494873	0.062119	0.009469	0.082882	0.091529	-0.493255	-0.079189	-0.861424	5.262827	-59.802838	-170.897588
34265		5.184845	1.100142	9.056169	5.255071	0.584221	-0.749025	0.136209	-0.183003	-0.143401	-0.704834	0.214600	-0.501465	0.051773	0.010903	0.090617	0.091176	-0.493918	-0.080211	-0.860987	5.498227	-59.898696	-171.079639
34266		4.442236	-0.287804	8.894927	5.165917	1.975194	-1.545410	0.115896	-0.199865	-0.098272	-0.709229	0.212158	-0.501221	0.044332	-0.002951	0.088992	0.091132	-0.494369	-0.081210	-0.860639	5.696601	-59.968172	-171.199657
34267		4.949355	-0.319899	8.827524	4.864813	1.970681	-1.153959	0.124762	-0.223880	-0.107722	-0.722900	0.218506	-0.497070	0.049393	-0.003281	0.088329	0.090888	-0.495225	-0.082113	-0.860087	5.896608	-60.088724	-171.348096
34268		5.609820	-0.283056	8.801284	4.531973	1.899482	-0.600418	0.109496	-0.225790	-0.103051	-0.734131	0.213867	-0.490234	0.055997	-0.002908	0.088075	0.090781	-0.495656	-0.083027	-0.859762	6.087238	-60.154129	-171.472687
34269		5.555027	0.249510	8.236516	4.229880	1.273395	-0.910592	0.086370	-0.231324	-0.092767	-0.740967	0.220459	-0.494629	0.055456	0.002434	0.082430	0.090502	-0.496566	-0.083731	-0.859197	6.253515	-60.279352	-171.607328
34270		5.082955	0.312986	8.562009	4.756205	1.335832	-1.161884	0.057028	-0.236758	-0.050073	-0.747803	0.220215	-0.492432	0.050729	0.003093	0.085681	0.090491	-0.496991	-0.084258	-0.858901	6.357151	-60.340577	-171.669375
34271		4.928773	0.461004	9.158333	5.387430	1.353456	-1.007912	0.030048	-0.272367	-0.024785	-0.752441	0.224609	-0.488037	0.049164	0.004590	0.091651	0.090346	-0.498130	-0.084570	-0.858226	6.429388	-60.493238	-171.732721
34272		5.724098	0.143408	8.370414	4.273260	1.429250	-0.727199	0.020159	-0.327775	-0.027060	-0.761475	0.224609	-0.488037	0.057104	0.001418	0.083798	0.090370	-0.498843	-0.084984	-0.857768	6.505440	-60.591821	-171.775100
34273		5.237265	0.156139	8.434948	4.595691	1.475208	-1.134844	0.005280	-0.347594	-0.030922	-0.766357	0.235596	-0.477051	0.052226	0.001551	0.084440	0.090104	-0.500311	-0.085239	-0.856915	6.579774	-60.786811	-171.856957
34274		4.656309	0.392685	8.993939	5.000723	2.530000	-1.367684	-0.026216	-0.398301	-0.028122	-0.766357	0.235596	-0.477051	0.046384	0.003932	0.090031	0.179708	-0.489467	-0.137812	-0.842101	6.636459	-60.914338	-159.812362
34275		4.355583	0.059780	9.120411	5.123305	2.941835	-1.611849	-0.066861	-0.437466	-0.016525	-0.775391	0.239746	-0.461670	0.043356	0.000625	0.091299	0.179175	-0.491350	-0.137961	-0.841093	6.667125	-61.161342	-159.891274
34276		4.582984	1.181923	9.055850	5.483902	1.874225	-1.397050	-0.164628	-0.516354	0.022921	-0.782471	0.246094	-0.452881	0.045594	0.011899	0.090667	0.178849	-0.492801	-0.137714	-0.840354	6.607771	-61.343981	-159.892304
34277		5.557544	0.668580	8.480715	4.422891	1.942133	-0.872796	-0.203429	-0.573665	0.061601	-0.780029	0.241699	-0.446045	0.055330	0.006789	0.084959	0.178213	-0.495427	-0.137217	-0.839025	6.495213	-61.673672	-159.896933
34278		5.860338	1.034401	8.294049	4.337880	1.485145	-0.692295	-0.270564	-0.598032	0.118178	-0.784912	0.252930	-0.444092	0.058349	0.010491	0.083101	0.178087	-0.497239	-0.136503	-0.838096	6.300878	-61.895148	-159.787838
34279		5.254212	0.783005	8.024825	4.345739	1.692891	-1.394496	-0.316438	-0.614170	0.162787	-0.791748	0.259277	-0.437500	0.052289	0.008000	0.080397	0.177564	-0.500196	-0.135316	-0.836639	6.015336	-62.254124	-159.669947
34280		5.533829	0.237689	8.373266	4.303754	2.266973	-1.030353	-0.374720	-0.632522	0.202533	-0.789551	0.261475	-0.424316	0.055071	0.002590	0.083902	0.177601	-0.502196	-0.134103	-0.835627	5.682934	-62.490170	-159.451830
34281		6.090842	0.146185	7.835556	3.667724	2.025529	-0.814900	-0.422343	-0.636422	0.215636	-0.801270	0.270264	-0.415527	0.060657	0.001693	0.078545	0.177015	-0.505365	-0.132358	-0.834118	5.269755	-62.864029	-159.259222
34282		5.873767	-0.323686	7.743329	3.532543	2.427645	-1.083871	-0.448147	-0.633768	0.219808	-0.801270	0.272461	-0.408936	0.058495	-0.002999	0.077626	0.176947	-0.507387	-0.130774	-0.833154	4.861039	-63.093224	-159.004544
34283		4.901674	-0.392682	8.282541	4.414809	2.841177	-1.736936	-0.457307	-0.638100	0.200388	-0.803711	0.281250	-0.395752	0.048756	-0.003688	0.082990	0.176205	-0.510570	-0.128921	-0.831654	4.430015	-63.465995	-158.815417
34284		5.071596	-0.854251	8.512067	4.378421	3.299639	-1.515256	-0.466331	-0.654135	0.149424	-0.810547	0.278809	-0.389160	0.050443	-0.008306	0.085306	0.175750	-0.512607	-0.127355	-0.830739	4.065362	-63.695269	-158.635414
34285		5.674941	-1.181111	7.893240	3.565315	3.240942	-1.286991	-0.455739	-0.684727	0.068528	-0.812744	0.281006	-0.382568	0.056483	-0.011612	0.079153	0.174431	-0.515884	-0.125884	-0.829211	3.778571	-64.088402	-158.606911
34286		5.812130	-0.677089	7.927428	3.799676	2.761059	-1.151171	-0.449952	-0.744664	-0.001799	-0.819580	0.280762	-0.366943	0.057826	-0.006593	0.079505	0.173249	-0.518162	-0.124655	-0.828224	3.569217	-64.355958	-158.616417
34287		5.628695	-0.753729	7.955766	3.943502	2.866993	-1.340793	-0.468816	-0.819786	-0.048431	-0.826416	0.285156	-0.358154	0.055958	-0.007364	0.079805	0.171323	-0.521920	-0.123545	-0.826429	3.418655	-64.822122	-158.747198
34288		5.308454	-0.210762	7.896129	4.304151	2.390918	-1.668362	-0.461327	-0.909322	-0.087541	-0.833252	0.287109	-0.346924	0.052724	-0.001948	0.079206	0.169617	-0.524794	-0.122517	-0.825113	3.297733	-65.174408	-158.875571
34289		5.705055	-0.557373	8.248615	4.387375	2.784410	-1.216470	-0.462071	-1.029877	-0.087605	-0.846436	0.280273	-0.335693	0.056622	-0.005408	0.082791	0.167411	-0.529365	-0.121709	-0.822759	3.215697	-65.759682	-159.076503
34290		5.496833	-0.066059	8.216918	4.714460	2.352582	-1.447560	-0.426170	-1.145805	-0.055615	-0.848633	0.282227	-0.315674	0.054496	-0.000500	0.082483	0.165800	-0.533119	-0.120911	-0.820777	3.087305	-66.239518	-159.173888
34291		5.464759	0.048755	8.687905	5.274684	2.436702	-1.351940	-0.431170	-1.299584	0.007076	-0.857666	0.284424	-0.298096	0.054082	0.000677	0.087230	0.163892	-0.538794	-0.120194	-0.817553	2.920561	-66.982291	-159.261467
34292		5.084762	0.289602	9.155100	5.997878	2.444509	-1.578475	-0.396948	-1.470623	0.098187	-0.871094	0.283936	-0.277832	0.050171	0.003103	0.091916	0.162859	-0.543808	-0.119434	-0.814546	2.627675	-67.640539	-159.147502
34293		5.382698	0.426177	9.063654	6.004916	2.254972	-1.436637	-0.367789	-1.672720	0.201310	-0.877930	0.286133	-0.251221	0.053062	0.004483	0.091074	0.161676	-0.551013	-0.118743	-0.810028	2.230534	-68.601915	-158.946724
34294		6.080919	0.452410	8.640982	5.545154	1.993794	-1.030820	-0.369985	-1.928550	0.299751	-0.880371	0.290283	-0.231445	0.059965	0.004775	0.086982	0.161377	-0.557768	-0.118069	-0.805551	1.669568	-69.509101	-158.502117
34295		5.846895	0.456361	9.228020	6.316412	2.254871	-1.177645	-0.444108	-2.241071	0.371470	-0.895996	0.294434	-0.191406	0.057421	0.004877	0.092917	0.160303	-0.567327	-0.117041	-0.799215	0.904888	-70.796529	-157.959811
34296		5.660858	0.217374	8.993035	6.256270	2.426122	-1.570518	-0.595042	-2.612165	0.393356	-0.895996	0.291992	-0.158203	0.055423	0.002553	0.090652	0.159436	-0.576792	-0.115920	-0.792751	-0.024596	-72.076427	-157.239078
34297		5.222042	-1.149153	10.193373	7.146576	4.196337	-1.825057	-0.589182	-2.965867	0.387192	-0.903076	0.302979	-0.114014	0.050723	-0.011091	0.102726	0.157536	-0.589167	-0.114816	-0.784144	-1.141311	-73.772320	-156.424220
34298		5.797204	-1.710344	9.258636	6.186132	4.339298	-1.741416	-0.598734	-3.401149	0.329074	-0.902832	0.298340	-0.073975	0.056414	-0.016731	0.093605	0.155956	-0.601337	-0.114510	-0.775216	-2.291121	-75.477315	-155.477092
34299		6.224309	-1.118985	8.892893	6.288426	3.666638	-1.684088	-0.562511	-3.853981	0.219325	-0.903076	0.307129	-0.025146	0.060526	-0.010870	0.090137	0.152880	-0.616717	-0.114650	-0.763638	-3.616738	-77.674999	-154.445916
34300		5.445508	-0.581712	9.703277	7.658198	3.594274	-2.562951	-0.713199	-4.341050	0.149163	-0.898193	0.302490	0.030273	0.052336	-0.005429	0.098204	0.149595	-0.631996	-0.115009	-0.751648	-5.295802	-79.894742	-153.051422
34301		4.836343	-1.976226	10.372504	8.178326	5.227004	-3.436897	-0.861648	-4.873132	0.053056	-0.898438	0.311279	0.090088	0.045821	-0.019299	0.104946	0.144226	-0.650783	-0.115210	-0.736483	-8.112292	-82.663569	-150.702340
34302		4.831211	-1.655307	10.425407	8.642888	5.001609	-3.894910	-0.762989	-5.466667	-0.092027	-0.882324	0.304688	0.147949	0.045431	-0.016173	0.105584	0.139138	-0.669299	-0.116857	-0.720433	-13.106654	-85.479223	-146.019026
34303		5.295022	0.198258	10.823806	9.997620	3.441184	-4.034309	-1.013225	-6.217904	-0.105622	-0.868652	0.302734	0.216553	0.049554	0.002510	0.109802	0.131668	-0.691997	-0.117826	-0.699944	-49.976797	-88.706645	-109.699477
34304		8.398361	-1.854437	11.904462	10.705083	5.737171	-1.561323	-1.362853	-6.890639	-0.093686	-0.850342	0.298340	0.285400	0.079806	-0.017758	0.121965	0.123552	-0.714555	-0.118288	-0.678346	-161.879074	-87.034896	1.578481
34305		10.492588	-4.617141	12.919948	11.527093	8.772346	-0.412255	-1.456547	-7.462519	-0.165850	-0.829834	0.296387	0.352051	0.099964	-0.045295	0.133324	0.113287	-0.740138	-0.118462	-0.652172	-173.916656	-82.855339	12.817061
34306		13.098837	-8.601011	12.273126	10.728454	12.540799	1.306107	-1.670683	-7.582801	-0.432198	-0.797852	0.281250	0.423340	0.126009	-0.085230	0.128287	0.102265	-0.762984	-0.119096	-0.627067	-178.011320	-78.885307	16.107679
34307		17.297797	-6.962094	15.819719	16.346714	12.503697	3.381355	-1.574098	-7.665804	-0.883713	-0.770264	0.268311	0.494385	0.166428	-0.069084	0.165206	0.088850	-0.786693	-0.121356	-0.598742	178.815191	-74.497268	18.439669
34308		16.843948	-7.823520	14.048382	15.281203	13.015970	1.979799	-1.631603	-7.716209	-1.480890	-0.726807	0.251221	0.550049	0.162259	-0.078268	0.147463	0.074459	-0.807046	-0.125066	-0.572268	176.066889	-70.444589	20.395153
34309		16.406659	-6.821401	15.606650	17.680837	12.656316	-0.527325	-1.489993	-7.217547	-1.612708	-0.694580	0.236084	0.601318	0.157732	-0.068309	0.162345	0.059271	-0.826659	-0.129904	-0.544285	173.812735	-66.244958	21.900387
34310		20.566933	-3.570285	17.488115	22.425742	10.821685	1.199148	-0.946209	-6.675730	-1.918716	-0.662354	0.214355	0.643799	0.199328	-0.036786	0.181778	0.047177	-0.841426	-0.136057	-0.520831	172.165465	-62.787843	23.156005
34311		8.303702	-0.645075	19.614206	20.216341	6.347828	-12.033397	-1.302104	-6.374515	-2.143171	-0.630127	0.199219	0.688477	0.076664	-0.006007	0.198694	0.031758	-0.856373	-0.143102	-0.495115	170.242250	-58.991972	24.502143
34312		12.558874	-2.879703	23.668550	24.963458	9.950592	-11.774144	-1.713664	-5.229682	-1.625728	-0.609131	0.177490	0.715332	0.119111	-0.027735	0.240098	0.018313	-0.865868	-0.146161	-0.478095	168.729932	-56.437930	25.224399
34313		-5.289504	3.191839	13.465436	9.082672	-2.355639	-21.274712	-3.233518	-4.714664	-2.390209	-0.582764	0.137939	0.738281	-0.055637	0.034730	0.132818	-0.004848	-0.875264	-0.149138	-0.460051	165.819498	-53.502854	26.515032
34314		35.723027	-0.964128	18.970049	34.127878	12.986338	7.606179	-3.787303	-3.188942	-2.675371	-0.578857	0.091309	0.750488	0.354004	-0.010725	0.195559	-0.028185	-0.877713	-0.152399	-0.453432	162.275284	-51.940906	28.386792
34315		27.934066	-11.459408	23.499436	31.332260	21.163874	-3.962905	-3.046450	0.163136	-2.643457	-0.591309	0.064453	0.737793	0.278018	-0.114680	0.236514	-0.047414	-0.874714	-0.157083	-0.456017	158.679772	-51.524459	30.742672
34316		13.186584	-14.029867	17.940113	18.339023	18.654964	-12.683604	-1.796515	2.443751	-2.423916	-0.628662	0.043701	0.714111	0.132355	-0.140291	0.179046	-0.056767	-0.863534	-0.164430	-0.473338	155.055996	-53.017473	34.152586
34317		1.125417	-12.742680	13.213367	8.731138	13.121257	-19.290713	-0.509112	3.264692	-2.114090	-0.655273	0.030029	0.685547	0.012067	-0.127215	0.132265	-0.061271	-0.853752	-0.173245	-0.487174	152.164614	-54.156822	37.382274
34318		-3.968304	-9.377574	9.595795	4.322209	8.034786	-20.420413	0.269768	3.139560	-1.780129	-0.688721	0.020508	0.661621	-0.039005	-0.093556	0.096448	-0.059596	-0.841422	-0.181113	-0.505623	149.520783	-56.026677	40.788626
34319		-2.585410	-5.373335	8.209552	4.806941	4.753480	-17.379012	0.500269	2.806264	-1.328471	-0.713135	0.013428	0.628418	-0.025057	-0.053771	0.082316	-0.058298	-0.833162	-0.188779	-0.516532	147.555746	-57.002950	43.487963
34320		0.882367	-2.626353	8.355927	7.124681	3.650421	-13.474262	0.200552	2.802080	-0.669319	-0.735596	0.012939	0.608643	0.009905	-0.026379	0.083399	-0.054557	-0.822223	-0.190867	-0.533426	145.383388	-58.910659	46.100082
34321		3.790045	-2.676053	8.949956	8.713008	4.927928	-11.003646	-0.300048	3.195641	0.071717	-0.760254	0.010498	0.575439	0.039334	-0.026613	0.088919	-0.052539	-0.813571	-0.190616	-0.546815	143.445557	-60.425694	48.145609
34322		4.351874	-4.878263	8.966767	8.368923	7.236482	-10.661087	-0.501946	3.802355	0.699908	-0.785400	0.016602	0.535645	0.045384	-0.048402	0.088938	-0.047074	-0.800226	-0.185317	-0.568401	140.698108	-63.157538	50.837505
34323		3.773600	-6.329424	8.456172	7.376182	8.367873	-10.979252	-0.254756	4.356927	1.123224	-0.812500	0.018555	0.493408	0.039921	-0.062967	0.083788	-0.040848	-0.788612	-0.181075	-0.586204	138.190684	-65.475100	53.456997
34324		3.552160	-5.945766	7.829065	6.797660	7.926635	-10.264638	0.221030	4.768358	1.401301	-0.833496	0.036133	0.444336	0.037789	-0.059284	0.077342	-0.029637	-0.772168	-0.174501	-0.610269	134.399483	-68.767115	57.564786
34325		3.880300	-4.048599	7.482010	6.872981	6.272380	-8.903179	0.625909	5.084375	1.555640	-0.856445	0.046875	0.397705	0.041000	-0.040405	0.073670	-0.018024	-0.757816	-0.171093	-0.629378	130.478934	-71.394560	62.114653
34326		4.579800	-1.527082	7.322908	7.230522	4.098112	-7.013317	0.732065	5.367561	1.612220	-0.875488	0.068848	0.339355	0.047862	-0.015155	0.071907	-0.003821	-0.738271	-0.164622	-0.654095	123.140436	-74.696523	70.035165
34327		4.732596	0.312322	7.278122	7.429926	2.407685	-6.011949	0.527918	5.642305	1.576682	-0.896484	0.086426	0.281494	0.049328	0.003317	0.071417	0.007933	-0.720795	-0.160562	-0.674249	113.846694	-77.042825	79.927134
34328		4.996448	1.249581	7.517080	7.600757	1.570188	-5.040560	0.138452	5.860302	1.477981	-0.905762	0.090820	0.217041	0.052044	0.012824	0.073675	0.019812	-0.697624	-0.152513	-0.699762	96.107227	-79.230197	97.953190
34329		5.562026	1.390765	7.656417	7.457392	1.502342	-4.016585	-0.272934	6.013284	1.340975	-0.910889	0.106445	0.152344	0.057792	0.014393	0.074829	0.028132	-0.677290	-0.146209	-0.720493	77.012921	-79.798598	117.206252
34330		6.226827	0.915672	8.052482	7.224669	1.989599	-2.865240	-0.588729	6.110613	1.175049	-0.911133	0.108887	0.094482	0.064632	0.009765	0.078546	0.036565	-0.651109	-0.136709	-0.745674	53.712827	-78.821647	140.430282
34331		7.087165	0.954848	8.579560	7.166911	2.024202	-1.491281	-0.781409	6.177065	0.996395	-0.911377	0.115723	0.030029	0.073425	0.010239	0.083515	0.041944	-0.628565	-0.129351	-0.765778	39.501460	-76.788391	154.505945
34332		8.173640	1.524910	9.285703	7.075577	1.482280	0.338446	-0.984981	6.221457	0.844874	-0.904785	0.118164	-0.030029	0.084503	0.016051	0.090179	0.047880	-0.599973	-0.119323	-0.789621	27.503331	-73.522093	166.218952
34333		9.577163	1.623703	9.876688	6.604812	1.357001	2.285938	-1.206049	6.267272	0.731169	-0.889404	0.120850	-0.101074	0.098739	0.017177	0.095602	0.050868	-0.575628	-0.110802	-0.808571	21.090651	-70.415029	172.232892
34334		10.720307	0.716380	10.351808	5.524440	1.997827	3.898946	-1.377968	6.328699	0.645905	-0.871582	0.121338	-0.158936	0.110380	0.008214	0.100004	0.054894	-0.544861	-0.099709	-0.830766	15.320862	-66.383848	177.503939
34335		11.883057	-0.065730	11.024796	4.632335	2.564752	5.504887	-1.412482	6.359999	0.636915	-0.851807	0.130859	-0.212402	0.122255	0.000489	0.106395	0.056838	-0.518838	-0.090303	-0.848188	11.945356	-62.924648	-179.658520
34336		13.066680	-0.331493	11.890083	3.599461	2.488737	7.303429	-1.376917	6.367427	0.730572	-0.823242	0.145020	-0.275146	0.134372	-0.002029	0.114679	0.061093	-0.486483	-0.078663	-0.867994	8.527767	-58.664964	-176.745875
34337		13.871390	-0.473608	12.695434	2.759984	2.299345	8.647635	-1.362330	6.351760	0.890812	-0.794189	0.145508	-0.317383	0.142668	-0.003262	0.122490	0.064115	-0.459402	-0.068596	-0.883252	6.250699	-55.118005	-174.960847
34338		14.336111	-1.145311	13.779282	1.868762	2.486901	9.856788	-1.372045	6.274342	1.102696	-0.751953	0.157715	-0.371094	0.147647	-0.009722	0.133276	0.069704	-0.426408	-0.055740	-0.900117	3.713766	-50.841766	-172.909451
34339		15.427090	-2.164597	15.081121	0.806608	3.024765	11.638698	-1.301542	6.108918	1.383075	-0.700928	0.176514	-0.405029	0.158923	-0.019596	0.146136	0.074824	-0.399513	-0.044772	-0.912571	1.855778	-47.380635	-171.439593
34340		17.747840	-3.295556	16.742368	-1.326646	3.289247	14.546586	-1.143599	5.964471	1.714938	-0.660645	0.175049	-0.423096	0.182637	-0.030467	0.162207	0.083131	-0.367116	-0.031398	-0.925921	-0.227556	-43.240459	-169.649068
34341		21.370766	-5.033454	18.294440	-4.648434	3.886388	18.111244	-0.896782	5.945007	2.065327	-0.618408	0.187256	-0.450195	0.219521	-0.047286	0.176693	0.091941	-0.340081	-0.020963	-0.935656	-1.738639	-39.810606	-168.146239
34342		24.873716	-6.464593	17.725189	-9.868912	3.508082	19.591803	-0.476640	6.076531	2.424982	-0.589355	0.189941	-0.470215	0.254726	-0.061171	0.169721	0.103838	-0.306454	-0.008824	-0.946164	-3.308758	-35.573315	-166.412360
34343		26.876481	-0.476322	15.046455	-13.404488	-4.011939	17.625161	-0.036230	6.164157	2.972806	-0.548828	0.190918	-0.488281	0.273261	-0.000697	0.142088	0.118059	-0.277238	-0.000886	-0.953520	-4.309414	-31.932076	-164.650299
34344		26.003303	0.364193	11.492357	-15.918223	-6.165987	12.917020	-0.322138	6.094897	3.647191	-0.529053	0.200195	-0.504150	0.263246	0.008600	0.106922	0.134770	-0.243371	0.012627	-0.960442	-5.822000	-27.650929	-162.590798
34345		26.047144	-4.772478	6.345316	-20.661853	-2.657444	7.714997	-0.093485	5.651479	4.065388	-0.498535	0.220947	-0.538086	0.263023	-0.042368	0.056064	0.153741	-0.215863	0.021830	-0.963997	-6.827848	-24.171610	-160.413588
34346		24.343153	-8.233611	1.013732	-23.212873	-0.134628	1.246918	1.188252	4.894059	4.243923	-0.475830	0.219238	-0.555908	0.245249	-0.077179	0.003681	0.173702	-0.186890	0.027788	-0.966503	-7.280892	-20.585502	-158.298900
34347		26.216651	4.537890	-3.242020	-22.355068	-13.869251	-4.702608	2.177982	3.936318	4.245994	-0.453613	0.221924	-0.578125	0.260421	0.051307	-0.037020	0.195627	-0.165267	0.024647	-0.966338	-6.782756	-18.044987	-156.032995
34348		38.811746	20.253755	-12.443496	-29.896434	-34.159283	-13.024253	0.458253	3.519079	3.707104	-0.425049	0.238037	-0.589844	0.382008	0.209951	-0.130717	0.211382	-0.144611	0.032167	-0.966111	-7.347728	-15.415835	-154.320866
34349		39.973960	24.375426	-22.605175	-31.260645	-38.682475	-24.946293	-3.260186	2.963902	2.722324	-0.412842	0.273682	-0.590576	0.392960	0.245342	-0.235900	0.221631	-0.133221	0.053014	-0.964532	-9.549849	-13.502801	-152.985234
34350		26.752328	5.785619	-25.871233	-28.057850	-15.378847	-29.678120	-4.623534	1.343551	1.744068	-0.405029	0.302734	-0.584717	0.265288	0.054148	-0.261780	0.226355	-0.130126	0.078675	-0.962102	-12.434348	-12.402144	-152.165145
34351		16.351476	-11.847107	-20.317750	-24.969676	5.005812	-22.926122	-2.107745	-0.975833	0.270803	-0.411865	0.309326	-0.578125	0.164662	-0.120375	-0.201114	0.226657	-0.137056	0.087892	-0.960269	-13.704643	-12.907554	-151.880904
34352		18.676920	-10.363205	-8.511531	-22.904038	1.545217	-11.107280	1.348413	-2.538358	-1.130013	-0.433594	0.286621	-0.570801	0.187248	-0.104123	-0.083442	0.221846	-0.148154	0.079098	-0.960510	-12.990671	-14.448609	-152.335616
34353		25.492007	0.061500	1.220970	-21.420072	-11.438350	-1.962265	2.640035	-2.558033	-1.637704	-0.452637	0.259521	-0.570068	0.254729	-0.001661	0.015457	0.216906	-0.158094	0.062365	-0.961285	-11.312130	-16.074768	-152.966798
34354		22.043607	4.447769	4.677287	-15.573449	-13.639546	0.136055	1.745589	-1.888844	-1.411765	-0.461426	0.250488	-0.563232	0.220284	0.042500	0.049231	0.209969	-0.166571	0.052471	-0.961985	-10.315076	-17.364067	-153.795446
34355		10.436485	-10.409871	5.592118	-10.972910	4.953613	0.366189	0.569438	-1.613366	-0.851867	-0.476807	0.241211	-0.556396	0.103466	-0.104701	0.056461	0.206763	-0.173915	0.047338	-0.961645	-9.886573	-18.355610	-154.129969
34356		-3.699092	-16.723926	-1.192361	-3.622990	16.781128	-9.654024	3.316163	-2.799218	-0.770449	-0.482666	0.221191	-0.546875	-0.037437	-0.166862	-0.015214	0.204412	-0.185377	0.029431	-0.960721	-8.102654	-20.130465	-154.536137
34357		4.791007	1.422915	10.128846	0.349255	-2.813567	1.119341	3.071450	-3.737701	-0.258602	-0.508789	0.200684	-0.530762	0.046021	0.012602	0.102362	0.206511	-0.200141	0.010622	-0.957697	-6.390857	-22.269416	-154.403840
34358		3.562013	-0.301459	16.915879	3.716965	0.142143	7.070656	2.442315	-3.523406	0.951471	-0.520264	0.204834	-0.517578	0.032654	-0.004925	0.169699	0.211289	-0.215643	-0.001690	-0.953337	-5.535692	-24.322654	-153.813118
34359		2.170470	1.664675	12.742296	4.321907	-0.961182	2.443538	2.150054	-4.038197	1.506059	-0.544678	0.197510	-0.492920	0.019005	0.015423	0.127995	0.220695	-0.232536	-0.014567	-0.947105	-4.812139	-26.545105	-152.630157
34360		12.853574	6.850617	13.694136	-0.915567	-9.468317	7.768413	1.884047	-4.747316	1.381377	-0.558105	0.195068	-0.472900	0.124756	0.068064	0.140575	0.227308	-0.253895	-0.025457	-0.939798	-4.442508	-29.261273	-151.645885
34361		25.550141	13.759675	13.482350	-6.723009	-20.475808	13.836608	1.244182	-4.169829	0.811197	-0.578369	0.198975	-0.455078	0.252046	0.137760	0.140959	0.232118	-0.272083	-0.034994	-0.933203	-4.107122	-31.605094	-150.901358
34362		18.410790	8.384379	10.491316	-4.449078	-12.906398	8.432999	0.484855	-3.415375	-0.002152	-0.578613	0.203369	-0.444092	0.182279	0.083582	0.108239	0.231507	-0.288270	-0.040777	-0.928247	-3.979318	-33.645371	-150.788341
34363		14.714013	-0.884743	11.212571	-5.080555	-2.675289	7.794369	0.453220	-3.139689	-0.412285	-0.587646	0.205566	-0.432861	0.145337	-0.009406	0.114396	0.229584	-0.302164	-0.047090	-0.923997	-3.640308	-35.451979	-150.928835
34364		12.729563	-5.268697	11.049478	-5.331154	2.303033	6.865183	0.823313	-2.596675	-0.199100	-0.592041	0.205322	-0.428467	0.125796	-0.053271	0.111916	0.229005	-0.313984	-0.054191	-0.919801	-3.168576	-37.043773	-150.976639
34365		11.556496	-2.009656	9.367447	-3.689480	-0.275464	4.735228	1.057826	-2.279782	-0.297782	-0.598633	0.203125	-0.424072	0.114457	-0.020767	0.094875	0.228667	-0.323121	-0.062116	-0.916213	-2.481280	-38.352819	-151.109992
34366		11.924553	0.803218	9.380169	-2.439812	-2.639918	4.948692	0.877920	-1.613927	-0.741786	-0.605469	0.205078	-0.428467	0.118511	0.007177	0.094793	0.225730	-0.330144	-0.068950	-0.913946	-1.706436	-39.389962	-151.642148
34367		8.690231	-2.929355	9.651135	-1.692335	2.171446	3.212764	0.760342	-1.182671	-0.889843	-0.614502	0.205078	-0.432861	0.086197	-0.030046	0.096909	0.222510	-0.334342	-0.075213	-0.912715	-0.860617	-40.074889	-152.284396
34368		7.613616	-2.455780	10.535656	-0.179925	2.575906	3.161441	0.748344	-0.484613	-0.945021	-0.616455	0.198242	-0.448242	0.075762	-0.025311	0.105447	0.218826	-0.336186	-0.080494	-0.912477	-0.017596	-40.447583	-153.022043
34369		5.916728	0.169368	10.437979	2.080015	0.937572	1.967841	0.690067	-0.172602	-0.964281	-0.620850	0.193848	-0.463623	0.059083	0.001048	0.104435	0.215521	-0.335794	-0.085439	-0.912959	0.849154	-40.538557	-153.748504
34370		6.971798	2.089831	9.691266	1.765439	-1.238076	2.113882	0.647131	-0.074232	-0.887487	-0.629883	0.191406	-0.470215	0.069773	0.020275	0.097005	0.212096	-0.335759	-0.089665	-0.913368	1.613810	-40.645658	-154.451465
34371		8.052648	2.731840	8.683672	0.686261	-2.373813	2.087207	0.484874	-0.078836	-0.675452	-0.634033	0.184814	-0.485596	0.080583	0.026836	0.086934	0.209796	-0.335270	-0.093084	-0.913737	2.224061	-40.673974	-154.962239
34372		7.477210	2.059287	8.535561	0.676864	-1.556680	1.594476	0.320826	-0.075539	-0.491813	-0.650146	0.191162	-0.496582	0.074790	0.020272	0.085417	0.207805	-0.335614	-0.095355	-0.913831	2.633146	-40.769653	-155.356196
34373		6.132314	1.647441	9.169931	1.764455	-0.513898	1.188650	0.243463	-0.070972	-0.334837	-0.661133	0.188721	-0.505371	0.061318	0.016260	0.091741	0.206657	-0.335495	-0.097091	-0.913952	2.938519	-40.797103	-155.610704
34374		5.296939	1.510194	9.398463	2.411285	-0.018342	0.810619	0.184516	-0.106728	-0.234213	-0.672852	0.201904	-0.503418	0.052937	0.014953	0.094027	0.205715	-0.336128	-0.098455	-0.913786	3.158364	-40.904989	-155.803910
34375		5.733487	0.494046	8.835398	1.337293	0.606716	0.628801	0.145683	-0.150196	-0.179263	-0.681885	0.199463	-0.507813	0.057273	0.004825	0.088401	0.205074	-0.336547	-0.099565	-0.913656	3.333866	-40.981270	-155.944907
34376		5.536731	1.569141	8.499039	1.767362	-0.376069	0.291085	0.102764	-0.173949	-0.131830	-0.688721	0.203857	-0.519043	0.055304	0.015611	0.085047	0.204487	-0.337515	-0.100489	-0.913329	3.464458	-41.118755	-156.059846
34377		5.715117	2.311489	8.523108	1.998657	-1.072445	0.458832	-0.006428	-0.211730	-0.032604	-0.699707	0.194580	-0.516602	0.057065	0.023108	0.085291	0.204229	-0.338442	-0.100719	-0.913019	3.482339	-41.234907	-156.093152
34378		5.387659	2.154832	8.789570	2.336912	-0.738697	0.430349	-0.123636	-0.246824	0.082571	-0.708984	0.201172	-0.512207	0.053759	0.021625	0.087949	0.204294	-0.339982	-0.100412	-0.912466	3.388886	-41.412133	-156.041417
34379		5.616246	1.261893	8.915800	1.892962	0.026194	0.629629	-0.191503	-0.299913	0.142919	-0.724609	0.200928	-0.507568	0.056020	0.012744	0.089230	0.204477	-0.341588	-0.099590	-0.911915	3.214424	-41.584603	-155.944261
34380		5.730487	-0.261774	7.915031	0.601604	1.031656	-0.110711	-0.190943	-0.323526	0.146757	-0.729492	0.211914	-0.507813	0.057179	-0.002500	0.079245	0.204751	-0.343487	-0.099007	-0.911203	3.058260	-41.798835	-155.839598
34381		5.248973	-0.431181	8.255786	1.091101	1.433391	-0.187179	-0.169609	-0.319116	0.123926	-0.734131	0.216064	-0.503418	0.052361	-0.004209	0.082645	0.204873	-0.345146	-0.098336	-0.910621	2.904852	-41.981324	-155.755927
34382		4.769572	-0.750944	8.699010	1.571947	2.007425	-0.195793	-0.135077	-0.279333	0.107602	-0.743408	0.220459	-0.501221	0.047578	-0.007425	0.087062	0.205049	-0.346736	-0.097962	-0.910018	2.791484	-42.163243	-155.680238
34383		4.419888	-0.395726	9.139746	2.255265	1.933883	-0.096681	-0.113894	-0.260746	0.089585	-0.748047	0.227051	-0.497070	0.044081	-0.003885	0.091457	0.205138	-0.348053	-0.097544	-0.909540	2.685007	-42.311127	-155.619453
34384		5.063217	-0.394009	8.629096	1.550564	1.572157	-0.046588	-0.123537	-0.262006	0.078736	-0.750488	0.231445	-0.490479	0.050521	-0.003867	0.086360	0.205179	-0.349487	-0.097184	-0.909019	2.585305	-42.474448	-155.566133
34385		5.571316	-0.210522	8.514317	1.252649	1.213165	0.214101	-0.149628	-0.281608	0.071615	-0.757568	0.240234	-0.488281	0.055594	-0.002022	0.085223	0.205114	-0.350926	-0.096656	-0.908536	2.467323	-42.633656	-155.518977
34386		5.191622	-0.373492	8.434682	1.420567	1.449030	-0.111218	-0.133152	-0.291747	0.050599	-0.764160	0.237793	-0.481689	0.051794	-0.003666	0.084425	0.204976	-0.352455	-0.096288	-0.908014	2.372641	-42.807827	-155.488519
34387		5.121339	-0.554770	8.537327	1.481554	1.664470	-0.093825	-0.178262	-0.295406	0.025380	-0.771240	0.244385	-0.477295	0.051088	-0.005465	0.085454	0.204642	-0.353962	-0.095725	-0.907562	2.262223	-42.973738	-155.476881
34388		5.111716	-0.361161	8.670398	1.687630	1.534749	-0.002885	-0.167888	-0.310842	0.002569	-0.773438	0.246338	-0.470703	0.050982	-0.003538	0.086786	0.204195	-0.355557	-0.095256	-0.907089	2.168576	-43.152730	-155.484818
34389		5.308044	0.821089	8.739919	2.153589	0.434488	0.207734	-0.212622	-0.359023	-0.017779	-0.775635	0.248535	-0.461914	0.052924	0.008299	0.087486	0.203573	-0.357364	-0.094678	-0.906579	2.062335	-43.354123	-155.508084
34390		4.869164	0.498184	8.657404	2.296632	0.823839	-0.171415	-0.374769	-0.425684	0.002680	-0.780518	0.255127	-0.453125	0.048507	0.005145	0.086668	0.202716	-0.359645	-0.093388	-0.906003	1.852122	-43.593777	-155.516629
34391		4.476241	1.837169	9.111215	3.467131	-0.132176	-0.097369	-0.301306	-0.480731	0.088180	-0.780518	0.255127	-0.446533	0.044535	0.018529	0.091192	0.202355	-0.362139	-0.092339	-0.905197	1.638071	-43.866826	-155.457239
34392		5.057470	0.412710	8.993003	2.455653	0.926686	0.173954	-0.436554	-0.568501	0.137207	-0.789795	0.266113	-0.439941	0.050316	0.004358	0.090064	0.201986	-0.365119	-0.090728	-0.904245	1.325015	-44.184033	-155.354354
34393		5.489244	0.375507	8.139277	1.695982	0.550089	-0.151361	-0.409135	-0.620121	0.137635	-0.789795	0.263916	-0.435547	0.054637	0.003959	0.081554	0.201586	-0.368367	-0.089240	-0.903164	1.019494	-44.537065	-155.253174
34394		5.690862	0.263692	8.325007	1.707362	0.635677	0.109079	-0.454936	-0.678713	0.161367	-0.794434	0.270264	-0.420166	0.056623	0.002872	0.083436	0.201257	-0.371826	-0.087622	-0.901977	0.679700	-44.912573	-155.124384
34395		5.292188	-0.041931	8.325827	1.913613	1.017328	-0.188190	-0.437614	-0.709438	0.177984	-0.799072	0.276855	-0.409180	0.052626	-0.000190	0.083446	0.200940	-0.375512	-0.086019	-0.900674	0.329092	-45.316111	-154.983932
34396		5.542496	0.014284	8.190666	1.770634	0.838800	-0.119023	-0.451201	-0.733152	0.159829	-0.803711	0.279053	-0.402344	0.055124	0.000372	0.082108	0.200591	-0.379172	-0.084472	-0.899364	-0.014257	-45.718328	-154.847500
34397		5.593593	-0.456385	7.964285	1.476337	1.170293	-0.253576	-0.460502	-0.769696	0.150187	-0.805908	0.278809	-0.389160	0.055632	-0.004338	0.079868	0.200073	-0.383125	-0.082876	-0.897952	-0.369602	-46.155206	-154.720672
34398		5.652222	-0.364847	7.852513	1.489054	1.028165	-0.301241	-0.463050	-0.808468	0.113005	-0.817383	0.283203	-0.384766	0.056206	-0.003434	0.078761	0.199451	-0.387081	-0.081425	-0.896525	-0.701102	-46.596802	-154.613340
34399		5.495486	-0.244257	7.725933	1.642194	0.921542	-0.517348	-0.479247	-0.854914	0.086073	-0.822021	0.289551	-0.367188	0.054625	-0.002233	0.077499	0.198565	-0.391393	-0.079950	-0.894981	-1.037231	-47.081980	-154.529470
34400		4.777298	-0.227916	8.415109	2.639993	1.316359	-0.593934	-0.498604	-0.892546	0.096979	-0.828613	0.285156	-0.358154	0.047398	-0.002046	0.084368	0.197758	-0.395718	-0.078438	-0.893391	-1.389503	-47.568488	-154.424487
34401		5.234665	-0.431148	8.303770	2.300551	1.329192	-0.353302	-0.503310	-0.968389	0.087802	-0.837646	0.284912	-0.340332	0.051946	-0.004079	0.083300	0.196779	-0.400541	-0.076961	-0.891584	-1.751225	-48.117886	-154.326035
34402		5.474022	-0.525435	8.128043	2.099894	1.292324	-0.313984	-0.491362	-1.055386	0.078202	-0.851074	0.289063	-0.326904	0.054312	-0.005033	0.081580	0.195838	-0.405520	-0.075669	-0.889649	-2.100537	-48.692633	-154.220394
34403		5.118638	-0.517584	8.530319	2.707549	1.508580	-0.345547	-0.464199	-1.165858	0.106920	-0.860107	0.288818	-0.306885	0.050691	-0.004950	0.085611	0.194934	-0.411165	-0.074516	-0.887351	-2.468618	-49.353772	-154.085623
34404		5.290117	-0.471529	8.848244	2.970715	1.517348	-0.046935	-0.449299	-1.297545	0.130209	-0.864502	0.288574	-0.282471	0.052329	-0.004482	0.088833	0.194212	-0.417136	-0.073526	-0.884801	-2.849410	-50.060677	-153.909321
34405		5.546974	-0.552488	8.589575	2.748159	1.456450	-0.056700	-0.438226	-1.460727	0.162829	-0.873779	0.294922	-0.260498	0.054845	-0.005291	0.086310	0.193482	-0.424043	-0.072652	-0.881745	-3.268492	-50.887551	-153.692003
34406		6.046446	-0.476525	8.605844	2.663131	1.271783	0.293483	-0.414396	-1.667957	0.199544	-0.875977	0.292725	-0.231445	0.059749	-0.004526	0.086568	0.192996	-0.431555	-0.072020	-0.878251	-3.715173	-51.797284	-153.408069
34407		6.341248	-0.358181	8.621770	2.744576	1.117069	0.477621	-0.387789	-1.900844	0.247185	-0.882813	0.301270	-0.202881	0.062593	-0.003336	0.086822	0.192558	-0.440316	-0.071603	-0.874023	-4.218921	-52.870077	-153.052858
34408		5.615536	-0.492848	9.367144	3.836518	1.695867	0.282897	-0.392106	-2.163915	0.306489	-0.891846	0.301025	-0.171631	0.055145	-0.004659	0.094281	0.192393	-0.449902	-0.071312	-0.869188	-4.802489	-54.050906	-152.587134
34409		5.493362	-0.542486	9.461522	4.184723	1.848897	0.139951	-0.413578	-2.476445	0.315449	-0.898682	0.307617	-0.136230	0.053765	-0.005143	0.095297	0.191941	-0.461111	-0.071169	-0.863406	-5.474832	-55.443998	-152.054482
34410		5.446185	-0.477799	9.126684	4.226154	1.755080	-0.208667	-0.495663	-2.799683	0.294851	-0.889648	0.307617	-0.100830	0.053184	-0.004472	0.092029	0.191233	-0.473346	-0.071064	-0.856927	-6.240639	-56.974251	-151.450933
34411		7.059872	-1.289043	8.885621	3.251779	2.072014	0.938064	-0.641866	-3.216467	0.238958	-0.889648	0.309570	-0.049805	0.069172	-0.012520	0.090017	0.189575	-0.487734	-0.070802	-0.849214	-7.168538	-58.784638	-150.790111
34412		5.114512	-1.014444	9.590813	5.132782	2.604783	-0.537577	-0.583554	-3.572241	0.207439	-0.889893	0.318359	-0.005615	0.049431	-0.009811	0.096830	0.187934	-0.503023	-0.071231	-0.840580	-8.154166	-60.742950	-150.010623
34413		5.740237	-0.992200	9.473453	5.135167	2.487081	-0.267634	-0.659502	-4.074882	0.118336	-0.887451	0.318359	0.041016	0.055462	-0.009574	0.095910	0.185288	-0.520676	-0.071963	-0.830293	-9.322191	-63.036374	-149.115449
34414		5.121577	-1.158740	10.323594	6.413387	3.153512	-0.699555	-0.805324	-4.610905	0.048752	-0.880371	0.311768	0.094482	0.048820	-0.011156	0.104425	0.181914	-0.539954	-0.072795	-0.818571	-10.768497	-65.569744	-147.993344
34415		4.833294	-2.123188	10.351470	6.603945	4.229929	-1.240265	-0.826395	-5.192674	-0.068106	-0.871826	0.322754	0.147461	0.045616	-0.020816	0.104809	0.177458	-0.561718	-0.074282	-0.804652	-12.572151	-68.487536	-146.549605
34416		5.812650	-0.418349	10.838477	7.829573	2.747838	-0.727732	-0.866207	-5.933611	-0.164439	-0.851074	0.316406	0.209717	0.054874	-0.003755	0.110062	0.172344	-0.585489	-0.076533	-0.788443	-15.003800	-71.737347	-144.461559
34417		7.477451	-1.205423	12.366223	9.100351	3.829617	0.804644	-1.297975	-6.577985	-0.160618	-0.839844	0.318604	0.273926	0.070644	-0.011299	0.126106	0.165304	-0.612118	-0.077499	-0.769402	-19.204701	-75.364359	-140.859367
34418		11.226427	-5.492039	13.672223	8.905661	7.871858	4.389365	-1.393391	-7.179009	-0.244313	-0.814697	0.312256	0.344971	0.107187	-0.054081	0.141010	0.157547	-0.639737	-0.078888	-0.748126	-26.300422	-79.132117	-134.363511
34419		12.858547	-9.456079	13.272171	8.081177	11.553364	5.416816	-1.508880	-7.323769	-0.549726	-0.787598	0.305908	0.411621	0.123337	-0.093877	0.138013	0.147672	-0.667624	-0.080704	-0.725230	-39.986206	-82.837608	-121.390743
34420		15.655065	-6.884879	15.477252	11.983326	9.906286	7.217861	-1.392027	-7.387907	-1.026798	-0.757324	0.284180	0.471680	0.150330	-0.068526	0.160881	0.136536	-0.693867	-0.084318	-0.701995	-72.162469	-85.716882	-89.855892
34421		17.370565	-7.159563	15.754576	13.420484	10.610615	7.743282	-1.454004	-7.397703	-1.506432	-0.725342	0.271240	0.522949	0.167170	-0.071693	0.164332	0.122993	-0.719649	-0.089416	-0.677483	-132.824600	-85.631379	-29.886211
34422		16.324575	-5.473777	16.930329	16.071301	9.837365	5.279892	-1.362885	-6.772403	-1.649406	-0.700195	0.262695	0.574219	0.156930	-0.054869	0.175063	0.109782	-0.741483	-0.094500	-0.655149	-161.640699	-82.891179	-1.716256
34423		19.137574	-3.468658	17.290519	18.289895	8.472633	6.640308	-0.913533	-6.181876	-1.881722	-0.676514	0.234131	0.616699	0.185576	-0.035643	0.178863	0.097259	-0.760926	-0.101815	-0.633377	-173.920089	-79.644177	10.171300
34424		8.271904	-0.077407	19.008315	19.514228	5.593872	-5.627275	-1.419289	-6.048568	-2.063410	-0.642090	0.214844	0.648193	0.076917	-0.000227	0.192471	0.082707	-0.778427	-0.107743	-0.612864	179.195578	-76.400196	16.393669
34425		9.364812	-3.827759	22.530155	22.326088	10.067338	-6.648797	-1.906587	-4.914819	-1.465544	-0.623047	0.190430	0.684082	0.087796	-0.036771	0.227863	0.068124	-0.793173	-0.109587	-0.595169	175.467198	-73.551581	19.121430
34426		-0.389730	1.284924	12.049843	11.383537	1.398718	-13.740566	-2.990600	-4.377974	-2.547096	-0.610596	0.157471	0.707031	-0.006351	0.014718	0.120167	0.046931	-0.804415	-0.112110	-0.581503	170.247633	-71.095895	22.845060
34427		33.537580	-1.733645	22.131382	30.379354	10.593215	14.319284	-3.298291	-2.496322	-2.727473	-0.609131	0.121826	0.720947	0.332332	-0.018184	0.225770	0.024329	-0.810650	-0.114032	-0.573804	164.963461	-69.367038	26.450832
34428		22.149176	-10.137215	23.412238	26.441474	17.365175	2.052260	-2.394824	0.471037	-2.760398	-0.628174	0.088135	0.699707	0.220643	-0.101612	0.234818	0.007778	-0.806588	-0.118377	-0.579087	159.275452	-69.392162	31.128570
34429		6.233644	-12.109648	16.165690	14.568203	15.284829	-10.798525	-1.544752	2.074272	-2.547684	-0.649658	0.063232	0.684814	0.062476	-0.120642	0.161942	-0.004596	-0.798981	-0.124071	-0.588401	153.496608	-69.901132	36.347230
34430		-1.922384	-12.193488	12.656248	9.115252	13.166317	-17.303729	-0.484047	2.377450	-2.257896	-0.676025	0.045166	0.656494	-0.019088	-0.121412	0.127084	-0.010812	-0.788997	-0.131407	-0.600082	147.988457	-70.749289	41.935086
34431		-2.791518	-8.458246	10.149014	7.334592	8.976766	-16.737858	0.337717	2.168443	-1.887039	-0.696045	0.035889	0.641113	-0.027611	-0.084493	0.101648	-0.013710	-0.781164	-0.139961	-0.608280	143.559157	-71.172873	46.824636
34432		-0.042457	-4.682804	9.386941	8.014471	5.933334	-13.069539	0.479968	2.150357	-1.335323	-0.716064	0.028809	0.619385	0.000270	-0.047053	0.093756	-0.013556	-0.772175	-0.146058	-0.618246	139.404734	-71.957871	51.482549
34433		2.312372	-2.695812	9.735580	9.205193	4.730862	-10.336934	0.153309	2.463463	-0.636754	-0.747314	0.023926	0.590576	0.024234	-0.027109	0.097041	-0.013125	-0.764019	-0.149139	-0.627583	135.640481	-72.756863	55.524085
34434		3.145179	-3.077655	9.743833	9.239815	5.353540	-9.298990	-0.284546	3.005229	0.068105	-0.767578	0.023682	0.562012	0.032922	-0.030627	0.096995	-0.010919	-0.752940	-0.147390	-0.641278	130.787457	-74.253080	60.393562
34435		2.759941	-4.934433	9.252596	8.300419	6.973682	-9.624011	-0.449567	3.551627	0.658883	-0.792480	0.025391	0.526611	0.029400	-0.049042	0.092125	-0.007872	-0.741864	-0.143630	-0.654940	125.396219	-75.810729	65.706310
34436		2.707444	-6.012883	8.646110	7.446914	7.908891	-9.345645	-0.229562	4.017535	1.056559	-0.815430	0.036377	0.484131	0.029121	-0.059880	0.085959	-0.001525	-0.727567	-0.138209	-0.671969	117.275039	-77.791128	73.880980
34437		3.175460	-5.555043	8.144201	6.987027	7.497509	-8.322244	0.163789	4.413122	1.303462	-0.838379	0.047119	0.439697	0.033902	-0.055400	0.080664	0.006507	-0.713423	-0.134007	-0.687770	107.102483	-79.446973	84.350654
34438		3.569303	-3.752661	7.893382	6.941990	5.800303	-7.115504	0.475180	4.760813	1.434024	-0.863770	0.064453	0.390625	0.037825	-0.037446	0.077961	0.017134	-0.695927	-0.129237	-0.706180	90.733871	-80.868853	101.185619
34439		3.753552	-1.378480	7.655636	6.989596	3.497293	-6.139079	0.507245	5.078216	1.474682	-0.877930	0.075439	0.334961	0.039563	-0.013690	0.075534	0.027388	-0.678632	-0.125408	-0.723174	71.782729	-81.267593	120.658590
34440		3.941489	0.098680	7.639619	7.020943	2.058074	-5.300264	0.264580	5.339130	1.441623	-0.896729	0.093018	0.279053	0.041427	0.001180	0.075310	0.037625	-0.657921	-0.119561	-0.742583	50.466217	-80.442341	142.341410
34441		4.390074	0.688483	7.675630	6.859460	1.480536	-4.390678	-0.093845	5.532435	1.357472	-0.908447	0.104004	0.223389	0.045953	0.007228	0.075501	0.045656	-0.637912	-0.113648	-0.760307	35.552641	-78.636407	157.447150
34442		5.136464	0.578997	7.928204	6.587812	1.573515	-3.203951	-0.418024	5.673800	1.223014	-0.910889	0.108643	0.161133	0.053548	0.006277	0.077771	0.052994	-0.614657	-0.105781	-0.779871	24.214643	-75.910723	168.776300
34443		6.097969	0.315609	8.412543	6.364939	1.828910	-1.802249	-0.637756	5.795466	1.081554	-0.913574	0.115479	0.103271	0.063363	0.003759	0.082301	0.058301	-0.592497	-0.098379	-0.797414	17.497929	-73.019235	175.365225
34444		6.934232	0.381842	8.909052	6.067861	1.672578	-0.434744	-0.761816	5.898309	0.929855	-0.925049	0.122070	0.036621	0.071909	0.004483	0.086979	0.063475	-0.567011	-0.089856	-0.816331	12.364930	-69.577247	-179.715142
34445		7.710642	1.102228	9.557928	5.973837	0.875793	0.935457	-0.892715	5.970723	0.814738	-0.916504	0.126709	-0.014648	0.079865	0.011763	0.093171	0.066931	-0.542993	-0.081956	-0.833044	9.140664	-66.297426	-176.789997
34446		8.620161	1.582407	10.026509	5.405678	0.175229	2.354243	-1.097655	6.027662	0.745645	-0.905273	0.127197	-0.076660	0.089107	0.016693	0.097518	0.070387	-0.515764	-0.072395	-0.850760	6.308363	-62.594797	-174.378444
34447		9.554528	1.160717	10.568769	4.629857	0.328323	3.704906	-1.302954	6.071751	0.696874	-0.894531	0.138672	-0.141357	0.098650	0.012623	0.102644	0.072163	-0.490359	-0.062873	-0.866249	4.268760	-59.162013	-172.899783
34448		10.555579	0.591678	11.152834	3.603631	0.522736	5.114439	-1.409134	6.083087	0.685982	-0.881348	0.141357	-0.201416	0.108858	0.007057	0.108203	0.074514	-0.461831	-0.052025	-0.882300	2.316522	-55.356015	-171.560372
34449		11.262139	0.495169	11.823754	2.842807	0.263336	6.269734	-1.445563	6.047207	0.730853	-0.850098	0.144287	-0.263916	0.116105	0.006210	0.114720	0.075944	-0.435618	-0.041672	-0.895954	0.789888	-51.898264	-170.694344
34450		12.161070	0.421341	12.822519	2.004245	-0.100895	7.747466	-1.499402	5.966479	0.805827	-0.828369	0.158203	-0.310791	0.125341	0.005656	0.124484	0.078484	-0.406686	-0.030091	-0.909693	-0.780218	-48.128379	-169.789591
34451		13.440263	-0.078923	14.110946	0.997200	-0.104357	9.646016	-1.565121	5.879554	0.924888	-0.788086	0.163574	-0.353271	0.138471	0.000928	0.137075	0.080363	-0.380463	-0.018760	-0.921107	-2.145371	-44.741486	-169.144514
34452		15.159893	-1.014630	15.804740	-0.426961	0.121720	12.102960	-1.554875	5.824367	1.081150	-0.752930	0.179932	-0.395996	0.156163	-0.008104	0.153612	0.083894	-0.351438	-0.006377	-0.932423	-3.577741	-41.029516	-168.378349
34453		17.719347	-1.538321	17.375184	-2.649103	-0.294352	14.904496	-1.446354	5.866466	1.278661	-0.703857	0.192139	-0.440918	0.182277	-0.012997	0.168554	0.087467	-0.324525	0.005087	-0.941811	-4.805142	-37.617819	-167.750690
34454		20.014320	-2.639999	18.361332	-5.574917	-0.360552	16.893572	-1.294555	6.014141	1.500718	-0.659424	0.204102	-0.463623	0.205730	-0.023707	0.177641	0.093162	-0.293880	0.017104	-0.951138	-6.027801	-33.769510	-166.980473
34455		21.853715	-4.580127	18.089980	-9.092685	0.406730	17.439483	-1.017894	6.172373	1.725623	-0.612305	0.200684	-0.486084	0.224363	-0.042984	0.174258	0.099302	-0.264653	0.027357	-0.958827	-6.975088	-30.137713	-166.294280
34456		23.530754	-1.302627	15.654125	-12.818290	-4.005834	15.083146	-0.574613	6.199623	2.106442	-0.576416	0.203613	-0.508545	0.240125	-0.010078	0.149178	0.108397	-0.232282	0.036944	-0.965883	-7.793559	-26.148939	-165.380866
34457		23.556646	0.931294	13.116843	-14.871275	-6.946267	11.592051	-0.690949	6.069373	2.729390	-0.538818	0.217773	-0.522217	0.239240	0.012998	0.123904	0.119598	-0.202665	0.046731	-0.970793	-8.664784	-22.477103	-164.228652
34458		24.535946	-3.163171	9.195106	-19.294728	-3.988866	7.740761	-0.514005	5.657989	3.210397	-0.507568	0.222900	-0.538086	0.248293	-0.027437	0.085028	0.133691	-0.172459	0.056769	-0.974250	-9.524848	-18.714723	-162.799797
34459		24.720990	-7.822253	4.198849	-23.107887	-0.139835	2.666524	0.431593	5.088496	3.549099	-0.485352	0.227783	-0.560547	0.249505	-0.073889	0.035497	0.149845	-0.146243	0.061114	-0.975922	-9.744971	-15.493499	-161.212898
34460		23.736180	-3.305661	0.319563	-22.582431	-4.647201	-3.277383	1.775141	4.319430	3.699592	-0.458252	0.226074	-0.578369	0.237910	-0.028655	-0.002206	0.167595	-0.120923	0.059462	-0.976603	-9.234216	-12.489277	-159.512059
34461		31.028260	11.708042	-6.062003	-25.887206	-21.533141	-11.400109	1.437656	3.615941	3.663132	-0.438477	0.235596	-0.596436	0.306911	0.123181	-0.065319	0.185220	-0.100878	0.057681	-0.975802	-8.760432	-10.108192	-157.728485
34462		40.232759	22.980066	-16.103332	-31.593588	-35.135321	-22.965871	-1.479214	3.228776	2.999070	-0.412354	0.260498	-0.601563	0.396146	0.234541	-0.169185	0.197730	-0.084439	0.070253	-0.974083	-9.896565	-7.857988	-156.369337
34463		36.670939	16.038957	-24.330754	-31.746510	-26.271881	-32.075989	-4.461522	2.340621	2.264572	-0.397949	0.296387	-0.593506	0.361995	0.158962	-0.251120	0.205983	-0.076569	0.095239	-0.970895	-12.579056	-6.283401	-155.350525
34464		22.302717	-4.241239	-24.364030	-26.446956	-1.394936	-30.001335	-3.893953	0.430415	1.315137	-0.398682	0.316162	-0.584961	0.222797	-0.045686	-0.243252	0.210641	-0.077432	0.115251	-0.967653	-14.891502	-5.814098	-154.678134
34465		17.090208	-13.793820	-17.174599	-24.261705	8.130574	-20.883284	-0.241522	-1.770894	-0.065431	-0.416504	0.311523	-0.580322	0.172368	-0.138200	-0.170057	0.211246	-0.086235	0.114542	-0.966860	-15.055375	-6.797531	-154.451342
34466		23.072553	-5.109245	-5.866563	-23.940117	-4.248326	-11.101268	2.518611	-2.864119	-1.143591	-0.442383	0.281982	-0.566406	0.231246	-0.051697	-0.056005	0.207528	-0.098121	0.099494	-0.968197	-13.651140	-8.551903	-154.778525
34467		25.117105	3.881714	2.152654	-20.473363	-14.250315	-4.495174	2.849234	-2.656424	-1.395797	-0.452881	0.261719	-0.563477	0.251112	0.036721	0.025395	0.203450	-0.108643	0.082257	-0.969556	-11.945939	-10.206755	-155.227462
34468		18.965704	-8.499031	1.079127	-19.832536	-0.039369	-3.508278	3.236955	-2.827309	-1.734028	-0.476318	0.230225	-0.553955	0.188745	-0.086818	0.012069	0.196880	-0.120266	0.063357	-0.970958	-10.033439	-12.040247	-156.014463
34469		-3.275640	-4.039853	4.725047	2.712056	4.748983	-5.401738	4.024905	-3.182722	-2.052098	-0.490967	0.200928	-0.548828	-0.033913	-0.040987	0.045896	0.190277	-0.132305	0.039446	-0.971974	-7.523216	-14.015351	-156.921200
34470		8.614657	5.952778	18.474170	-0.362782	-8.816164	9.500282	3.698953	-3.179464	-1.448790	-0.508057	0.178467	-0.530518	0.083596	0.055469	0.187135	0.185044	-0.145174	0.018270	-0.971776	-5.326152	-15.985350	-157.689459
34471		4.618404	8.051274	19.569067	4.616030	-8.480220	9.573411	2.528665	-3.001627	-0.132465	-0.521240	0.173584	-0.519043	0.043283	0.077995	0.197352	0.186482	-0.157350	0.003124	-0.969771	-3.896976	-17.699256	-157.623340
34472		5.803698	5.798307	14.374005	1.640749	-6.542947	5.299459	1.742285	-3.517962	0.651131	-0.539063	0.168945	-0.503418	0.055305	0.056905	0.145228	0.190330	-0.173338	-0.007671	-0.966266	-3.115869	-19.749111	-157.171112
34473		19.618522	10.380772	13.472629	-8.275190	-15.587741	9.229668	0.886154	-3.808210	0.996932	-0.550781	0.179688	-0.485840	0.193048	0.104166	0.138883	0.195739	-0.190844	-0.014693	-0.961795	-2.869256	-21.891942	-156.438109
34474		22.656942	10.080421	12.652191	-10.462649	-16.339063	10.150581	0.079392	-3.183005	0.768677	-0.560059	0.188477	-0.477051	0.224128	0.101618	0.130142	0.198923	-0.206690	-0.017380	-0.957814	-3.064931	-23.756810	-155.889863
34475		12.332930	4.719176	9.942361	-4.416208	-7.758029	4.098370	-0.298924	-2.688178	0.160583	-0.569336	0.197021	-0.468262	0.121941	0.047440	0.100998	0.199141	-0.219805	-0.018437	-0.954824	-3.318203	-25.283199	-155.693745
34476		8.775990	-1.778191	9.854132	-3.682467	-0.359666	2.977302	-0.290567	-2.605691	-0.040815	-0.580566	0.201172	-0.457275	0.086462	-0.017655	0.099699	0.198281	-0.233157	-0.019910	-0.951802	-3.506215	-26.854959	-155.627382
34477		11.174997	-6.104913	9.347004	-7.227111	2.781641	3.954642	0.246347	-2.379346	0.174652	-0.581055	0.210205	-0.457520	0.110681	-0.061068	0.094716	0.199158	-0.244186	-0.023218	-0.948773	-3.461301	-28.203346	-155.420449
34478		10.264002	-3.283907	9.069142	-5.258953	0.610609	3.239053	0.592645	-2.038290	0.198003	-0.594482	0.212158	-0.461914	0.101742	-0.033009	0.091634	0.200343	-0.253953	-0.027888	-0.945829	-3.225721	-29.443598	-155.233237
34479		13.247986	-0.252498	11.410295	-5.125672	-2.744916	6.678341	0.585632	-1.511185	-0.255139	-0.603760	0.216309	-0.459717	0.131609	-0.003029	0.115091	0.199673	-0.260419	-0.032476	-0.944065	-2.833660	-30.309723	-155.347857
34480		5.450784	0.094385	10.121378	0.662432	-0.317773	1.659932	0.404841	-1.003831	-0.444420	-0.612793	0.216309	-0.472900	0.054001	0.000618	0.101487	0.197660	-0.265376	-0.035988	-0.942980	-2.475843	-30.978425	-155.636841
34481		5.654322	-2.145552	10.115150	-0.298989	1.772979	1.834488	0.420008	-0.956205	-0.411482	-0.626465	0.220459	-0.479736	0.056014	-0.021784	0.101375	0.196112	-0.269342	-0.039441	-0.942040	-2.106648	-31.529092	-155.885724
34482		8.728315	0.457229	9.609280	-1.839843	-1.667406	2.937378	0.464042	-0.761998	-0.442758	-0.635254	0.218018	-0.486328	0.086926	0.004156	0.096434	0.194238	-0.273013	-0.042968	-0.941217	-1.701950	-32.047465	-156.190455
34483		6.729616	1.212772	8.816563	-0.342990	-1.732260	1.204177	0.346257	-0.621476	-0.391075	-0.646729	0.219971	-0.488525	0.067045	0.011844	0.088395	0.192745	-0.275467	-0.045717	-0.940679	-1.369581	-32.403285	-156.442789
34484		6.729643	-0.433543	8.958987	-0.858420	-0.109220	1.367213	0.272314	-0.551409	-0.360747	-0.662354	0.219727	-0.492920	0.067041	-0.004579	0.089769	0.191087	-0.278294	-0.048063	-0.940068	-1.090045	-32.792558	-156.699415
34485		5.540705	-1.346080	8.590129	-0.448102	1.118605	0.426904	0.272637	-0.425991	-0.386334	-0.673828	0.226318	-0.508545	0.055198	-0.013685	0.086000	0.189557	-0.279893	-0.050271	-0.939788	-0.794431	-33.034145	-156.957035
34486		5.674384	-0.393921	8.847221	-0.019535	0.308624	0.700694	0.240795	-0.401608	-0.376842	-0.687012	0.217041	-0.499268	0.056558	-0.004153	0.088581	0.187811	-0.281991	-0.052321	-0.939399	-0.522693	-33.329790	-157.231757
34487		5.797993	-0.540214	8.605683	-0.272975	0.407995	0.566382	0.208971	-0.364172	-0.388911	-0.698242	0.218994	-0.508301	0.057812	-0.005605	0.086156	0.186193	-0.283355	-0.054175	-0.939206	-0.258095	-33.533906	-157.495746
34488		5.265618	-0.926276	9.172844	0.307729	1.109944	0.741877	0.285431	-0.300009	-0.403940	-0.709473	0.214355	-0.501465	0.052499	-0.009500	0.091794	0.184419	-0.284874	-0.056365	-0.938967	0.053562	-33.763306	-157.792657
34489		5.064652	0.148444	9.369334	0.978210	0.277570	0.790279	0.360060	-0.262227	-0.397880	-0.720703	0.216553	-0.503662	0.050526	0.001215	0.093762	0.183000	-0.285611	-0.058846	-0.938869	0.411732	-33.906611	-158.066447
34490		5.578875	0.889509	9.342801	0.862894	-0.512750	1.059076	0.344519	-0.256035	-0.328734	-0.729492	0.211914	-0.507813	0.055683	0.008642	0.093514	0.181688	-0.286832	-0.061155	-0.938604	0.731508	-34.101856	-158.313513
34491		6.029977	1.072392	8.810090	0.315898	-0.886329	0.875754	0.273968	-0.237728	-0.242872	-0.738525	0.209473	-0.503418	0.060208	0.010530	0.088187	0.180879	-0.287577	-0.062987	-0.938411	0.982903	-34.229992	-158.482669
34492		5.733219	0.950122	8.642897	0.429364	-0.678287	0.571324	0.187837	-0.229168	-0.179186	-0.740723	0.211670	-0.503418	0.057242	0.009369	0.086503	0.180095	-0.288806	-0.064349	-0.938092	1.160165	-34.404434	-158.624288
34493		5.086353	0.233775	8.832566	0.768262	0.252162	0.350283	0.133211	-0.231372	-0.145069	-0.754395	0.213623	-0.496582	0.050763	0.002242	0.088386	0.179544	-0.289677	-0.065375	-0.937858	1.294049	-34.529246	-158.727009
34494		5.132824	-0.290105	8.715064	0.495999	0.726085	0.267446	0.134165	-0.220682	-0.150438	-0.756592	0.213623	-0.496582	0.051230	-0.002998	0.087205	0.178847	-0.290878	-0.066447	-0.937544	1.432085	-34.693705	-158.847254
34495		5.392150	-0.388884	8.829226	0.332421	0.791966	0.504481	0.121282	-0.211315	-0.138754	-0.765625	0.217773	-0.489990	0.053825	-0.003980	0.088347	0.178314	-0.291667	-0.067389	-0.937333	1.557443	-34.806748	-158.946273
34496		6.255818	0.211261	8.107423	-0.462773	-0.158821	0.418185	0.118662	-0.214914	-0.121219	-0.765381	0.211182	-0.485596	0.062472	0.002027	0.081143	0.177733	-0.292828	-0.068323	-0.937014	1.674565	-34.963475	-159.046822
34497		5.324524	0.941979	8.335965	0.656023	-0.491002	0.089570	0.070761	-0.203274	-0.065104	-0.774658	0.217529	-0.485596	0.053164	0.009373	0.083417	0.177474	-0.293648	-0.068914	-0.936763	1.742191	-35.072886	-159.095012
34498		4.889622	0.405158	8.960294	1.139469	0.295101	0.334919	0.018834	-0.224699	-0.029889	-0.774658	0.219727	-0.470215	0.048796	0.004036	0.089658	0.177189	-0.294945	-0.069262	-0.936383	1.767255	-35.233424	-159.130750
34499		4.807493	-0.297882	8.697601	0.821779	0.921207	0.052656	0.026810	-0.259625	-0.029076	-0.776855	0.219727	-0.476807	0.047962	-0.002997	0.087038	0.177014	-0.296080	-0.069644	-0.936030	1.796196	-35.375715	-159.155234
34500		4.433026	-0.007479	8.908721	1.354253	0.825624	0.010824	0.041017	-0.270058	-0.052105	-0.779297	0.221924	-0.468018	0.044210	-0.000105	0.089147	0.176652	-0.297525	-0.070163	-0.935602	1.843596	-35.557380	-159.206767
34501		4.912801	-0.323799	8.677693	0.771204	0.942015	0.089867	0.044945	-0.293755	-0.077541	-0.786377	0.230713	-0.459229	0.048999	-0.003277	0.086848	0.176264	-0.298785	-0.070731	-0.935230	1.903626	-35.718292	-159.266574
34502		5.003107	-0.289942	8.608508	0.707039	0.887842	0.083438	0.040285	-0.304795	-0.100549	-0.783936	0.223877	-0.461182	0.049898	-0.002942	0.086161	0.175667	-0.300341	-0.071337	-0.934798	1.970810	-35.914658	-159.353069
34503		4.710990	0.521906	8.751370	1.331678	0.270021	0.046619	0.019999	-0.328100	-0.111050	-0.792725	0.223877	-0.452393	0.046969	0.005184	0.087591	0.175071	-0.301771	-0.071869	-0.934409	2.031725	-36.094470	-159.438167
34504		5.933188	0.574751	8.499798	0.325958	-0.167454	0.562534	-0.030025	-0.387282	-0.092278	-0.792969	0.226074	-0.447998	0.059170	0.005733	0.085112	0.174385	-0.303744	-0.072202	-0.933871	2.057227	-36.334491	-159.520649
34505		5.891781	1.757492	8.243291	0.693482	-1.302556	0.364541	-0.100066	-0.445853	-0.043267	-0.797119	0.223633	-0.434570	0.058738	0.017603	0.082555	0.173881	-0.305851	-0.072173	-0.933280	2.023380	-36.583077	-159.561128
34506		5.692882	0.780957	8.524009	0.689795	-0.266117	0.440635	-0.252525	-0.534967	0.026216	-0.797363	0.228027	-0.432373	0.056700	0.007925	0.085382	0.173380	-0.308723	-0.071438	-0.932484	1.875994	-36.907869	-159.560244
34507		4.762240	1.266391	8.625388	1.680706	-0.437485	-0.031916	-0.277314	-0.583441	0.082819	-0.803955	0.223389	-0.421143	0.047365	0.012803	0.086375	0.173140	-0.311665	-0.070506	-0.931620	1.687587	-37.237651	-159.512219
34508		5.007016	0.556901	8.716765	1.359192	0.169253	0.161571	-0.347864	-0.657327	0.123621	-0.808838	0.232178	-0.423584	0.049780	0.005752	0.087322	0.172922	-0.315189	-0.069299	-0.930565	1.444795	-37.630997	-159.438522
34509		5.107567	0.354474	7.976820	0.867246	0.142897	-0.375021	-0.365833	-0.694737	0.132859	-0.817627	0.229736	-0.410156	0.050796	0.003725	0.079938	0.172732	-0.318735	-0.067971	-0.929490	1.181657	-38.024873	-159.352160
34510		5.087910	-0.003836	8.157879	0.933207	0.515789	-0.257565	-0.393144	-0.747323	0.137304	-0.817627	0.229736	-0.394531	0.050574	0.000157	0.081768	0.172482	-0.322685	-0.066612	-0.928271	0.904038	-38.466545	-159.263193
34511		5.430554	-0.469140	8.083831	0.553887	0.827031	-0.113826	-0.411917	-0.800492	0.109810	-0.829102	0.233887	-0.383545	0.053984	-0.004495	0.081064	0.172070	-0.326743	-0.065197	-0.927028	0.621020	-38.920168	-159.188905
34512		4.979919	-0.297777	8.488432	1.271530	0.878987	-0.088923	-0.436652	-0.860201	0.083574	-0.831299	0.236084	-0.376953	0.049435	-0.002771	0.085104	0.171453	-0.331206	-0.063806	-0.925654	0.337633	-39.423290	-159.133756
34513		5.012518	-0.124653	8.434100	1.375289	0.688125	-0.122017	-0.465834	-0.960507	0.067338	-0.851563	0.238037	-0.354736	0.049720	-0.001033	0.084583	0.170695	-0.336022	-0.062345	-0.924157	0.038712	-39.967918	-159.084513
34514		5.507589	-0.104157	8.831871	1.378168	0.621162	0.485854	-0.465169	-1.058813	0.065089	-0.858154	0.235596	-0.339111	0.054608	-0.000818	0.088611	0.169876	-0.341381	-0.061012	-0.922431	-0.258485	-40.581512	-159.034943
34515		4.811766	0.397806	9.025890	2.289721	0.381154	0.156692	-0.484366	-1.185375	0.116827	-0.869629	0.244141	-0.319336	0.047579	0.004225	0.090532	0.169233	-0.347242	-0.059568	-0.920453	-0.599911	-41.254331	-158.938240
34516		4.647347	0.405954	9.569212	2.882244	0.538904	0.421214	-0.481580	-1.351355	0.175033	-0.878418	0.235107	-0.296875	0.045822	0.004331	0.095993	0.168805	-0.353938	-0.058218	-0.918065	-0.971729	-42.030933	-158.789384
34517		5.153237	0.479763	9.221466	2.496624	0.254445	0.459656	-0.497755	-1.560723	0.247537	-0.889648	0.241455	-0.274658	0.050805	0.005091	0.092601	0.168611	-0.361537	-0.056794	-0.915224	-1.405176	-42.916189	-158.570677
34518		6.162363	0.523599	8.670076	1.653763	-0.175927	0.706335	-0.487549	-1.796981	0.339724	-0.894287	0.241211	-0.241455	0.060832	0.005552	0.087236	0.168802	-0.370241	-0.055508	-0.911782	-1.891882	-43.939480	-158.259490
34519		6.044135	1.149604	9.023552	2.396153	-0.643077	0.823006	-0.479835	-2.038933	0.480181	-0.894531	0.252197	-0.208252	0.059489	0.011857	0.090817	0.169536	-0.380008	-0.054133	-0.907701	-2.482388	-45.090506	-157.810204
34520		5.401114	0.959800	9.738877	3.476177	-0.120043	0.809662	-0.537045	-2.350272	0.613276	-0.898926	0.251953	-0.177246	0.052832	0.010024	0.097988	0.170714	-0.391230	-0.052594	-0.902790	-3.210669	-46.415111	-157.207231
34521		4.989400	0.446838	9.689869	3.802045	0.468958	0.400233	-0.656020	-2.709182	0.663190	-0.903564	0.256348	-0.135010	0.048560	0.004950	0.097547	0.171703	-0.404108	-0.050626	-0.897024	-4.103907	-47.934111	-156.502685
34522		5.804113	-0.703020	9.488276	3.076605	1.296361	0.819911	-0.793435	-3.137085	0.641710	-0.899414	0.269531	-0.088867	0.056565	-0.006468	0.095804	0.172259	-0.418887	-0.048568	-0.890226	-5.129588	-49.688674	-155.720878
34523		5.091460	-1.390430	10.102879	4.067458	2.296496	0.584072	-0.748490	-3.483763	0.588067	-0.901855	0.273926	-0.046631	0.049184	-0.013378	0.101946	0.172444	-0.435069	-0.046980	-0.882480	-6.209426	-51.635822	-154.880092
34524		5.139030	-2.177123	9.855894	3.970128	3.009483	0.358482	-0.779050	-3.913921	0.477018	-0.892822	0.278320	-0.002441	0.049499	-0.021265	0.099623	0.172006	-0.452918	-0.045974	-0.873594	-7.346064	-53.818207	-153.990392
34525		5.494707	-1.445892	9.436412	4.127224	2.200302	0.158935	-0.748606	-4.367498	0.335442	-0.890381	0.278320	0.059570	0.052892	-0.014013	0.095587	0.170738	-0.472560	-0.045672	-0.863394	-8.543102	-56.264174	-153.054148
34526		5.258052	-1.454493	9.761940	4.955495	2.430727	-0.088115	-0.926371	-4.866000	0.210094	-0.883789	0.284912	0.114990	0.050199	-0.014035	0.098926	0.168401	-0.494105	-0.045402	-0.851727	-9.953093	-58.978941	-151.993435
34527		4.419608	-3.093775	9.945453	5.427806	4.313049	-0.872777	-0.923105	-5.431947	0.050627	-0.874756	0.284912	0.163818	0.041479	-0.030464	0.100747	0.165047	-0.517795	-0.045885	-0.838178	-11.560068	-62.025348	-150.756040
34528		6.112999	-1.525726	10.662380	6.403792	2.759438	0.420127	-0.908526	-6.152042	-0.129290	-0.852051	0.280762	0.230469	0.057802	-0.014805	0.108504	0.160778	-0.543847	-0.047530	-0.822266	-13.464289	-65.458109	-149.196080
34529		7.097613	-2.354513	12.383123	7.999820	3.927542	1.578397	-1.281555	-6.745308	-0.162061	-0.834229	0.285400	0.296875	0.066725	-0.022796	0.126277	0.154938	-0.572205	-0.048079	-0.803905	-16.366522	-69.211376	-146.848898
34530		10.345377	-6.062649	13.385105	7.717071	7.280534	4.687164	-1.209058	-7.223195	-0.321619	-0.808838	0.274414	0.363525	0.098426	-0.059962	0.137831	0.148492	-0.601455	-0.049775	-0.783406	-20.334138	-73.166178	-143.370821
34531		13.076216	-9.072855	13.146464	7.126624	9.932150	6.815877	-1.180727	-7.464122	-0.634931	-0.788330	0.270264	0.430176	0.125436	-0.090335	0.136747	0.140499	-0.630933	-0.052548	-0.761198	-26.131125	-77.237939	-138.079167
34532		15.318783	-8.251344	15.692630	10.669905	9.900480	8.541723	-1.009088	-7.461778	-1.084912	-0.753906	0.255127	0.485840	0.146736	-0.082509	0.162898	0.131262	-0.659000	-0.057275	-0.738383	-35.301200	-81.198453	-129.330722
34533		16.826906	-8.544364	15.785330	11.889443	10.580228	8.941302	-0.970751	-7.726311	-1.671158	-0.719727	0.242432	0.539063	0.161279	-0.086023	0.164592	0.119587	-0.687118	-0.064205	-0.713754	-56.840258	-85.018804	-108.210926
34534		14.505119	-4.589231	15.412725	13.803615	7.389778	5.142094	-0.994537	-7.193704	-1.752104	-0.685303	0.225098	0.594727	0.138975	-0.046344	0.159429	0.107694	-0.711985	-0.070753	-0.690271	-113.194727	-86.527431	-52.300644
34535		20.441739	-2.295293	19.455946	19.616469	6.470234	9.543614	-0.559788	-6.832398	-2.008778	-0.650635	0.203369	0.635010	0.197373	-0.024402	0.201450	0.096292	-0.734664	-0.079589	-0.666830	-159.014295	-84.336979	-6.679846
34536		6.857715	-3.715525	20.866351	20.034364	8.726531	-5.510558	-0.959022	-6.659318	-2.292201	-0.620850	0.188477	0.677490	0.061154	-0.036877	0.210960	0.082671	-0.755495	-0.087845	-0.643954	-175.709078	-80.942862	9.602971
34537		13.074749	-5.261269	25.398565	25.367712	11.527810	-1.622902	-1.179219	-5.464751	-1.759868	-0.595215	0.168701	0.699951	0.123278	-0.052207	0.257731	0.070123	-0.772447	-0.092902	-0.624322	177.914657	-77.833785	15.399718
34538		-1.055183	-0.582858	12.730167	11.715422	3.188187	-13.818943	-2.310431	-5.029708	-2.595342	-0.571533	0.135742	0.729492	-0.013811	-0.004195	0.127036	0.051089	-0.786804	-0.097355	-0.607331	171.622326	-74.938794	20.533218
34539		37.988966	-2.042710	24.558385	32.456735	10.552127	19.944486	-2.692825	-2.942895	-2.529731	-0.572510	0.104736	0.747803	0.375948	-0.021840	0.251423	0.031375	-0.794947	-0.099840	-0.597584	166.251337	-73.010876	24.514624
34540		26.638932	-11.155670	25.967670	29.373532	18.580273	7.518433	-2.090365	0.497217	-2.348697	-0.593994	0.075439	0.728760	0.265722	-0.111962	0.260184	0.016746	-0.791787	-0.102855	-0.601842	160.518592	-73.039531	29.291638
34541		8.205827	-13.254265	18.505805	17.235386	16.910931	-8.252217	-1.152697	2.472515	-2.164532	-0.626953	0.057129	0.702637	0.082911	-0.132371	0.184800	0.006946	-0.783179	-0.107721	-0.612355	154.159525	-73.876138	35.235051
34542		-2.175657	-11.376833	13.508533	10.508736	12.688596	-16.536415	-0.269484	2.947724	-1.992852	-0.656006	0.047607	0.674072	-0.020892	-0.113375	0.135550	0.001896	-0.772082	-0.114383	-0.625141	147.322344	-74.962251	42.192159
34543		-4.727903	-7.371185	10.237007	7.723695	7.834556	-17.587320	0.161078	2.676968	-1.853140	-0.677979	0.038330	0.663330	-0.046585	-0.073361	0.102938	-0.001735	-0.762518	-0.121988	-0.635359	140.701392	-75.586178	49.132150
34544		-1.304168	-3.888166	9.527633	8.347265	4.997819	-13.409453	0.026370	2.476238	-1.507060	-0.713623	0.024414	0.628174	-0.012153	-0.038800	0.095425	-0.004406	-0.752724	-0.127443	-0.645868	134.050163	-76.215183	56.004771
34545		1.984877	-3.076595	9.807250	9.236222	4.925835	-9.917044	-0.450714	2.685709	-0.921327	-0.735596	0.012939	0.606445	0.021023	-0.030640	0.097865	-0.007356	-0.743342	-0.129490	-0.656217	127.470598	-76.825967	62.504058
34546		3.751364	-5.182268	10.051750	9.247428	7.357115	-8.291061	-0.777473	3.210544	-0.256129	-0.760498	0.010498	0.566650	0.039057	-0.051482	0.100099	-0.008491	-0.731509	-0.127569	-0.669738	119.275315	-77.869661	70.439358
34547		3.463602	-7.889218	9.607641	8.272290	9.837033	-8.658812	-0.613352	3.795673	0.318717	-0.787598	0.012207	0.535645	0.036579	-0.078541	0.095636	-0.007234	-0.718803	-0.124476	-0.683941	109.603438	-78.943046	79.951973
34548		2.987814	-8.673107	8.853266	7.294677	10.400685	-8.751785	-0.035914	4.283920	0.789667	-0.817139	0.020752	0.489014	0.032107	-0.086591	0.087876	-0.001483	-0.703394	-0.121085	-0.700409	96.264928	-80.053105	93.474626
34549		3.113095	-6.811006	8.236345	6.842154	8.555936	-7.843250	0.583582	4.650939	1.181154	-0.833252	0.029297	0.435547	0.033434	-0.068156	0.081405	0.007532	-0.687582	-0.118963	-0.716255	80.718817	-80.666522	109.578817
34550		3.449938	-3.826258	7.853372	6.740193	5.678250	-6.568482	0.851565	4.961540	1.520573	-0.856445	0.049072	0.386475	0.036722	-0.038320	0.077478	0.019328	-0.669293	-0.115842	-0.733658	61.804139	-80.589458	129.202478
34551		3.828304	-1.307890	7.721699	6.785463	3.268662	-5.425727	0.754581	5.255174	1.766574	-0.884277	0.066406	0.330811	0.040408	-0.013017	0.076125	0.031379	-0.650664	-0.112133	-0.750385	44.849186	-79.588267	146.847890
34552		3.780982	0.159414	7.683289	6.760607	1.792769	-4.871438	0.429066	5.504560	1.903381	-0.891602	0.079834	0.274902	0.039888	0.001804	0.075758	0.043449	-0.629469	-0.105908	-0.768547	30.282763	-77.622479	161.913421
34553		4.329326	0.684791	7.814634	6.587239	1.267136	-3.874498	0.047150	5.686982	1.931892	-0.906250	0.108643	0.214355	0.045423	0.007262	0.076876	0.054023	-0.608303	-0.098713	-0.785687	20.393600	-75.136040	172.112017
34554		5.063201	0.844906	8.228253	6.450112	1.075182	-2.652551	-0.248456	5.840425	1.869740	-0.910889	0.108643	0.150146	0.052923	0.009038	0.080748	0.063946	-0.584679	-0.089750	-0.803745	13.034720	-72.053412	179.598879
34555		6.133094	1.264106	8.878547	6.376222	0.610781	-1.039022	-0.462761	5.978317	1.715419	-0.914063	0.131104	0.094238	0.063834	0.013384	0.086872	0.072148	-0.561243	-0.080906	-0.820521	8.255398	-68.859408	-175.613927
34556		7.392820	2.013898	9.631309	6.189642	-0.276626	0.819190	-0.672009	6.118102	1.526420	-0.916748	0.137695	0.029541	0.076668	0.021036	0.093926	0.079467	-0.535225	-0.070999	-0.837961	4.650892	-65.268589	-172.144476
34557		8.523392	2.827427	10.311391	5.836937	-1.322340	2.479125	-0.899616	6.255422	1.313878	-0.910400	0.144775	-0.028320	0.088210	0.029303	0.100255	0.084754	-0.509514	-0.061177	-0.854090	2.194175	-61.728351	-169.977299
34558		9.559721	3.079179	10.645697	4.881008	-1.988894	3.838202	-1.140794	6.385994	1.073773	-0.890381	0.149902	-0.099609	0.098757	0.031911	0.103157	0.088896	-0.481181	-0.050290	-0.870651	0.217580	-57.867794	-168.460567
34559		10.404350	2.236708	11.049999	3.739556	-1.593801	4.977349	-1.302943	6.481555	0.811177	-0.877441	0.156982	-0.157471	0.107453	0.023503	0.106903	0.090883	-0.453433	-0.039743	-0.885754	-1.175182	-54.143201	-167.682683
34560		11.453305	1.237520	11.660237	2.417001	-1.100642	6.358815	-1.326043	6.525656	0.574685	-0.850586	0.157471	-0.221924	0.118215	0.013467	0.112698	0.092277	-0.423327	-0.029106	-0.900795	-2.299071	-50.177559	-167.225557
34561		12.638587	0.597788	12.563568	1.182042	-0.951744	7.950018	-1.252824	6.542622	0.441823	-0.821533	0.162842	-0.282227	0.130389	0.007032	0.121372	0.092526	-0.394214	-0.019478	-0.914142	-3.104487	-46.413864	-167.109562
34562		13.858014	-0.010067	13.943731	0.007842	-0.868624	9.823400	-1.204788	6.534212	0.432588	-0.790527	0.167969	-0.331299	0.143034	0.001027	0.134808	0.093338	-0.363031	-0.009622	-0.927040	-3.879686	-42.445272	-166.994092
34563		15.432155	-0.632323	15.333565	-1.588692	-0.882644	11.871254	-1.182590	6.527808	0.533856	-0.741455	0.175781	-0.378174	0.159230	-0.005016	0.148224	0.093938	-0.333096	-0.000106	-0.938202	-4.583808	-38.685301	-166.954748
34564		17.046882	-1.449447	16.804475	-3.522535	-0.853113	13.888418	-1.178204	6.493326	0.752462	-0.687500	0.176758	-0.416260	0.175855	-0.012871	0.162472	0.096062	-0.301322	0.010200	-0.948616	-5.393115	-34.730554	-166.747576
34565		19.615629	-3.054077	18.268497	-6.547259	-0.333966	16.352123	-1.182377	6.458533	1.021363	-0.647217	0.177734	-0.440918	0.202070	-0.028463	0.176395	0.098751	-0.270981	0.020458	-0.957287	-6.206493	-30.982302	-166.498937
34566		23.090400	-5.641566	18.879141	-11.330779	0.738799	18.332495	-1.089147	6.461604	1.329681	-0.609131	0.180664	-0.458984	0.237211	-0.053851	0.181493	0.103443	-0.238692	0.031169	-0.965067	-7.063024	-27.017325	-166.065082
34567		26.262312	-7.928018	17.858880	-16.708648	1.502312	18.288429	-0.819351	6.504674	1.680468	-0.579834	0.176758	-0.476807	0.268901	-0.076329	0.170227	0.109508	-0.207272	0.040489	-0.971291	-7.755825	-23.189614	-165.541056
34568		28.608713	-3.414601	14.784444	-20.863492	-4.207837	14.586001	-0.464393	6.460123	2.246515	-0.546387	0.182129	-0.497070	0.291020	-0.030566	0.138570	0.118816	-0.174150	0.049222	-0.976285	-8.369920	-19.168291	-164.706443
34569		28.466156	3.653100	11.355722	-21.614543	-11.777601	8.796881	-1.004947	6.303983	3.338638	-0.515381	0.196045	-0.521973	0.287378	0.041854	0.104325	0.132615	-0.142981	0.060762	-0.978917	-9.360533	-15.296682	-163.310374
34570		27.771896	-2.379020	6.041848	-24.740910	-6.517181	2.776910	-1.295198	5.777367	4.290353	-0.491211	0.209961	-0.548828	0.279731	-0.017446	0.052483	0.150908	-0.113007	0.074534	-0.979235	-10.588217	-11.468259	-161.412096
34571		26.059782	-7.908903	0.399093	-26.462516	-1.313236	-3.524119	0.132955	4.896968	4.888858	-0.462891	0.232666	-0.573975	0.262419	-0.072688	-0.002470	0.173007	-0.086979	0.080313	-0.977780	-10.898911	-8.181135	-159.150258
34572		34.961726	5.577001	-7.451769	-31.563253	-17.157242	-14.042801	1.410425	4.046344	4.887791	-0.438477	0.235596	-0.594238	0.346510	0.064821	-0.081114	0.195513	-0.063124	0.079614	-0.975424	-10.414266	-5.279478	-156.850326
34573		47.810962	23.662474	-20.759842	-37.238871	-37.872134	-31.142778	-0.453583	3.694283	3.779662	-0.410156	0.262695	-0.603760	0.469582	0.245069	-0.216875	0.212269	-0.043958	0.086622	-0.972371	-10.797696	-2.792180	-155.107116
34574		41.303546	22.749093	-30.745976	-31.504867	-32.552450	-43.221184	-3.810047	2.623894	2.419110	-0.397705	0.291992	-0.604492	0.406173	0.226451	-0.317140	0.221775	-0.033819	0.108734	-0.968426	-13.040269	-0.989711	-154.089552
34575		22.306531	-0.522701	-28.629208	-23.712021	-3.267213	-37.097837	-3.909919	0.200347	0.858029	-0.396484	0.316406	-0.596191	0.222814	-0.009869	-0.286353	0.225120	-0.036644	0.128033	-0.965187	-15.288071	-0.750100	-153.641429
34576		17.190917	-14.097650	-16.967635	-23.702108	8.482127	-21.995127	-0.223515	-2.284649	-0.923871	-0.418213	0.300293	-0.584473	0.173177	-0.141963	-0.167545	0.221824	-0.048522	0.126523	-0.965625	-15.430077	-2.153440	-153.833090
34577		25.981291	-4.672282	-2.786082	-25.697434	-6.648419	-9.897811	2.711251	-3.081929	-1.938249	-0.439453	0.266602	-0.581543	0.259741	-0.048893	-0.024511	0.215021	-0.061540	0.109536	-0.968494	-13.842698	-4.134509	-154.462833
34578		26.731107	4.469136	3.510789	-21.740454	-15.869922	-5.093648	2.899945	-2.407866	-1.862319	-0.456543	0.241699	-0.574219	0.267255	0.041656	0.038945	0.207543	-0.071384	0.092646	-0.971209	-12.160352	-5.750808	-155.262054
34579		12.383005	-9.712500	5.532668	-13.933786	2.927037	-1.120844	2.571031	-2.274695	-1.554025	-0.480469	0.221191	-0.569092	0.122436	-0.098792	0.055462	0.201938	-0.080403	0.077252	-0.973031	-10.618091	-7.196238	-155.881541
34580		-11.031884	-9.555288	1.236602	6.645595	12.995781	-8.614583	3.850262	-3.043941	-1.563642	-0.494873	0.185547	-0.561768	-0.111215	-0.094879	0.008847	0.196293	-0.092423	0.055122	-0.974622	-8.370393	-9.120742	-156.556581
34581		3.662818	1.952934	16.660553	0.964631	-4.013766	6.851484	3.551095	-3.878751	-0.682192	-0.516602	0.167236	-0.541260	0.033444	0.016442	0.167585	0.195619	-0.107928	0.033700	-0.974140	-6.317650	-11.366758	-156.661332
34582		2.156927	5.107381	18.346279	4.369442	-5.607226	7.983786	2.735786	-4.108129	0.726206	-0.545654	0.159912	-0.518799	0.017606	0.048623	0.184528	0.200610	-0.125564	0.017125	-0.971440	-4.939659	-13.714552	-156.069545
34583		8.435153	4.858490	13.436800	-1.889928	-7.337702	4.946149	1.996873	-4.893776	1.392451	-0.561279	0.161621	-0.494141	0.080688	0.047797	0.136852	0.208982	-0.147098	0.003409	-0.966787	-4.069952	-16.439295	-155.016956
34584		26.023767	12.988845	13.715745	-12.844554	-21.500830	10.350735	1.310172	-4.866809	1.452829	-0.581787	0.170166	-0.463379	0.255836	0.130828	0.144274	0.216532	-0.169602	-0.006675	-0.961407	-3.680135	-19.208357	-153.991846
34585		24.552196	11.165060	11.312545	-12.089561	-19.216866	8.623407	0.365003	-3.898300	0.746553	-0.593262	0.174316	-0.447754	0.242834	0.112348	0.118081	0.220269	-0.187873	-0.011992	-0.957101	-3.683175	-21.402015	-153.382743
34586		13.182462	3.865472	10.376385	-5.408649	-7.772207	4.564363	0.069347	-3.475411	-0.128925	-0.606689	0.174072	-0.423340	0.130020	0.038534	0.106047	0.219267	-0.204946	-0.016293	-0.953758	-3.674802	-23.458326	-153.342345
34587		16.607273	-5.223951	12.554834	-10.774948	-0.445265	8.744871	0.511078	-3.134538	-0.134608	-0.602295	0.180664	-0.418945	0.164044	-0.052675	0.127996	0.218878	-0.219233	-0.022279	-0.950543	-3.398501	-25.247820	-153.304117
34588		15.642553	-6.463730	10.468381	-10.954538	1.057239	6.768055	0.922460	-2.526855	0.082013	-0.615967	0.182617	-0.405762	0.155115	-0.065061	0.106350	0.219759	-0.230832	-0.029362	-0.947397	-2.941466	-26.761868	-153.181291
34589		14.218495	3.681355	10.493264	-5.190376	-7.285777	5.865123	0.677216	-1.790423	-0.366896	-0.611328	0.180420	-0.410156	0.141304	0.036195	0.106324	0.218542	-0.238442	-0.034935	-0.945603	-2.471509	-27.788752	-153.361771
34590		7.544743	2.382666	9.451349	-0.751572	-3.463758	1.992532	0.295413	-1.382454	-0.481610	-0.615967	0.182617	-0.412354	0.074848	0.023506	0.095067	0.216127	-0.245222	-0.038432	-0.944287	-2.182648	-28.667940	-153.658758
34591		8.398319	-2.915123	10.259445	-3.221704	1.260116	3.314254	0.330390	-0.989138	-0.501235	-0.611572	0.187256	-0.421387	0.083401	-0.029531	0.102959	0.213985	-0.249374	-0.041651	-0.943551	-1.847037	-29.236757	-153.962602
34592		6.709977	-1.915637	10.953025	-1.075600	1.259759	3.068189	0.470033	-0.662509	-0.559562	-0.614014	0.191650	-0.419189	0.066682	-0.019601	0.109706	0.211564	-0.252508	-0.045295	-0.943095	-1.412227	-29.698983	-154.337907
34593		6.039310	1.647677	9.765817	0.437730	-1.845936	1.631070	0.382948	-0.455287	-0.535580	-0.618652	0.196045	-0.437012	0.060214	0.016128	0.097826	0.209431	-0.254066	-0.048235	-0.943007	-1.021607	-29.958706	-154.683658
34594		7.594428	0.274218	8.252835	-2.025662	-1.392203	1.133446	0.278849	-0.379447	-0.470585	-0.623291	0.196045	-0.450439	0.075794	0.002449	0.082676	0.207268	-0.256035	-0.050568	-0.942830	-0.715090	-30.248870	-155.009834
34595		6.718583	-1.238051	8.357630	-1.913581	0.391386	0.803656	0.332273	-0.290150	-0.468568	-0.634766	0.204590	-0.457031	0.067035	-0.012677	0.083653	0.205424	-0.256879	-0.053012	-0.942870	-0.370159	-30.410119	-155.317422
34596		5.480326	-1.088216	8.863321	-0.634034	0.876617	0.608723	0.396084	-0.215482	-0.498867	-0.643311	0.195557	-0.470215	0.054680	-0.011194	0.088670	0.203322	-0.257918	-0.055759	-0.942884	0.017795	-30.600395	-155.667233
34597		5.587583	-0.862086	9.212824	-0.469656	0.773345	0.958634	0.415542	-0.177345	-0.504169	-0.645752	0.197754	-0.479004	0.055772	-0.008953	0.092159	0.201444	-0.258130	-0.058525	-0.943061	0.425621	-30.693424	-156.001726
34598		6.023299	-0.338807	9.043759	-0.673580	0.180411	1.036176	0.416695	-0.168871	-0.488395	-0.659424	0.199707	-0.483643	0.060148	-0.003724	0.090481	0.199429	-0.258891	-0.061290	-0.943105	0.823937	-30.848426	-156.347599
34599		6.692782	1.319574	8.243549	-0.905736	-1.675570	0.716439	0.374102	-0.171790	-0.415722	-0.677246	0.197266	-0.489990	0.066884	0.012902	0.082517	0.197913	-0.259140	-0.063741	-0.943193	1.180087	-30.935276	-156.625289
34600		5.820268	1.825830	8.729575	0.217366	-1.679479	0.701428	0.231675	-0.180286	-0.275456	-0.683838	0.194824	-0.489990	0.058149	0.018077	0.087369	0.196677	-0.260170	-0.065377	-0.943056	1.403168	-31.092861	-156.829708
34601		5.382781	1.741299	8.922437	0.621590	-1.377521	0.643522	0.154668	-0.212727	-0.157424	-0.695313	0.201416	-0.496826	0.053747	0.017302	0.089295	0.196080	-0.260911	-0.066498	-0.942898	1.546429	-31.205040	-156.936823
34602		5.134100	0.722631	9.135949	0.528279	-0.285973	0.674725	0.079445	-0.243470	-0.084389	-0.708984	0.201172	-0.503418	0.051233	0.007168	0.091425	0.195564	-0.262407	-0.067257	-0.942536	1.621240	-31.396821	-157.012057
34603		5.129544	0.368079	8.317073	0.023303	-0.128439	-0.034942	0.078420	-0.272375	-0.071117	-0.719971	0.198730	-0.500977	0.051183	0.003630	0.083242	0.195254	-0.263532	-0.067964	-0.942235	1.692094	-31.544339	-157.063169
34604		5.827065	0.126969	8.578219	-0.468498	-0.056241	0.547522	0.059946	-0.283113	-0.050005	-0.729004	0.200684	-0.496582	0.058149	0.001229	0.085865	0.194876	-0.265207	-0.068627	-0.941795	1.745437	-31.755108	-157.115171
34605		5.111482	0.244460	8.648872	0.194556	0.105591	0.234249	0.037965	-0.259812	-0.026941	-0.736084	0.205078	-0.492188	0.051003	0.002421	0.086555	0.194725	-0.266327	-0.069072	-0.941478	1.777820	-31.896166	-157.136770
34606		4.836436	0.606262	8.906572	0.708600	-0.057994	0.315499	0.021365	-0.266167	0.004727	-0.747559	0.211426	-0.496582	0.048246	0.006054	0.089131	0.194566	-0.267949	-0.069459	-0.941022	1.789641	-32.094678	-157.151032
34607		5.022558	0.447507	8.616496	0.385627	-0.031318	0.163314	-0.002896	-0.297375	0.020487	-0.749756	0.215820	-0.492432	0.050097	0.004481	0.086239	0.194570	-0.269300	-0.069685	-0.940619	1.782146	-32.258123	-157.141495
34608		5.371854	0.125505	8.645131	0.034553	0.169394	0.364781	-0.009280	-0.343651	0.026318	-0.756836	0.222412	-0.483643	0.053570	0.001266	0.086543	0.194457	-0.271289	-0.069974	-0.940049	1.769980	-32.497527	-157.141338
34609		5.080602	0.116729	8.785573	0.357253	0.318231	0.325529	-0.010846	-0.355402	0.001116	-0.765625	0.219971	-0.476807	0.050650	0.001172	0.087946	0.194337	-0.272912	-0.070245	-0.939584	1.765570	-32.693890	-157.146088
34610		4.875832	0.028806	8.498166	0.380534	0.413297	-0.031192	-0.020319	-0.368681	-0.026743	-0.767822	0.217773	-0.472412	0.048602	0.000290	0.085071	0.193957	-0.274982	-0.070573	-0.939034	1.766642	-32.943405	-157.181855
34611		5.417870	-0.087688	8.487974	-0.056460	0.354776	0.250986	-0.048963	-0.398062	-0.049297	-0.774658	0.221924	-0.465820	0.054009	-0.000869	0.084988	0.193531	-0.276823	-0.070775	-0.938566	1.759710	-33.163342	-157.221962
34612		5.709103	0.839944	8.343690	0.067129	-0.607044	0.313682	-0.096086	-0.449316	-0.043020	-0.777100	0.226318	-0.461426	0.056905	0.008427	0.083561	0.192942	-0.279311	-0.070839	-0.937945	1.724251	-33.455740	-157.270189
34613		5.445082	1.271576	8.491253	0.563669	-0.875587	0.300798	-0.239945	-0.495925	0.001608	-0.781738	0.230713	-0.452637	0.054240	0.012818	0.085032	0.192453	-0.281811	-0.070168	-0.937348	1.589796	-33.732658	-157.277009
34614		5.018735	1.280771	8.753027	1.086619	-0.685154	0.276569	-0.289455	-0.521512	0.080576	-0.788574	0.232666	-0.447998	0.049954	0.012955	0.087642	0.192161	-0.284839	-0.069231	-0.936562	1.397844	-34.065838	-157.238562
34615		5.024972	1.336171	8.721401	1.148673	-0.758605	0.247294	-0.396401	-0.531358	0.155349	-0.791016	0.239258	-0.432617	0.050007	0.013574	0.087320	0.192153	-0.287704	-0.067642	-0.935804	1.112938	-34.365043	-157.137132
34616		5.604051	1.061832	7.854372	0.224769	-0.917307	-0.151857	-0.462790	-0.545465	0.215454	-0.793457	0.243652	-0.428467	0.055814	0.010860	0.078671	0.192252	-0.291019	-0.065737	-0.934894	0.767775	-34.709713	-156.999214
34617		5.745730	0.412620	8.014766	0.011710	-0.356225	0.051013	-0.499994	-0.573985	0.259691	-0.795898	0.250244	-0.421875	0.057221	0.004401	0.080301	0.192562	-0.294209	-0.063551	-0.933982	0.378137	-35.032944	-156.820085
34618		5.482244	-0.095475	8.187549	0.177794	0.209495	0.037391	-0.487395	-0.590875	0.277062	-0.802734	0.254639	-0.410889	0.054581	-0.000679	0.082039	0.192903	-0.297752	-0.061488	-0.932926	-0.010289	-35.400226	-156.631722
34619		5.607379	-0.682413	8.051148	-0.145266	0.649356	-0.000143	-0.507173	-0.624508	0.243397	-0.805176	0.259033	-0.406494	0.055830	-0.006552	0.080703	0.193102	-0.301171	-0.059340	-0.931926	-0.403274	-35.750432	-156.456997
34620		5.627623	-0.899573	7.964247	-0.210057	0.801966	-0.054574	-0.491329	-0.655564	0.179110	-0.812256	0.265381	-0.391113	0.056023	-0.008749	0.079848	0.192950	-0.304964	-0.057455	-0.930842	-0.760829	-36.151190	-156.330189
34621		5.605917	-0.898367	7.975717	-0.107852	0.792763	-0.055395	-0.495174	-0.691073	0.105428	-0.814697	0.269775	-0.386719	0.055788	-0.008756	0.079972	0.192498	-0.308630	-0.055634	-0.929837	-1.095381	-36.539017	-156.245660
34622		5.371740	-0.926664	8.061880	0.187298	0.902617	-0.124663	-0.498777	-0.726446	0.046658	-0.823486	0.269531	-0.375488	0.053426	-0.009053	0.080836	0.191682	-0.312698	-0.053968	-0.928744	-1.408247	-36.978940	-156.206140
34623		4.955670	-0.791949	8.396743	0.816117	0.976243	-0.113647	-0.491371	-0.777588	0.006856	-0.832520	0.269531	-0.364258	0.049230	-0.007711	0.084178	0.190747	-0.316723	-0.052398	-0.927662	-1.703590	-37.417103	-156.184527
34624		5.198279	-0.797107	8.281900	0.667290	0.874431	-0.064011	-0.478258	-0.862195	-0.023748	-0.834717	0.267090	-0.351074	0.051624	-0.007779	0.083061	0.189588	-0.321350	-0.051052	-0.926382	-1.980748	-37.933329	-156.186996
34625		5.114196	-0.136824	8.428981	1.163943	0.323390	-0.026922	-0.460323	-0.977946	-0.031688	-0.845947	0.271240	-0.337646	0.050729	-0.001182	0.084541	0.188461	-0.326249	-0.049875	-0.924963	-2.248108	-38.486858	-156.182351
34626		5.280156	0.045934	8.730734	1.405802	0.172828	0.291793	-0.447633	-1.121084	0.013547	-0.852539	0.266602	-0.326416	0.052311	0.000659	0.087600	0.187451	-0.332015	-0.048846	-0.923170	-2.533942	-39.147915	-156.142948
34627		4.863931	0.167364	9.291841	2.209270	0.318979	0.436206	-0.433959	-1.298420	0.094245	-0.856934	0.266602	-0.310791	0.048034	0.001898	0.093228	0.186856	-0.338375	-0.047881	-0.921029	-2.857531	-39.881418	-156.026321
34628		5.315651	0.515072	8.728005	1.833880	-0.251928	0.250650	-0.433410	-1.514929	0.186840	-0.868408	0.270752	-0.286621	0.052488	0.005390	0.087668	0.186569	-0.345926	-0.046996	-0.918324	-3.236379	-40.759133	-155.829318
34629		6.007083	0.804830	9.031625	1.828658	-0.653343	0.889129	-0.432931	-1.762855	0.300661	-0.879883	0.281494	-0.260010	0.059259	0.008334	0.090823	0.186790	-0.354426	-0.046109	-0.915077	-3.690351	-41.749856	-155.518174
34630		6.176166	0.750817	9.050544	1.920376	-0.628937	0.982365	-0.436585	-2.034494	0.428697	-0.882080	0.281494	-0.233398	0.060820	0.007838	0.091110	0.187472	-0.364331	-0.045279	-0.911080	-4.235873	-42.909876	-155.079883
34631		6.030167	0.677231	9.262304	2.373426	-0.445787	0.993500	-0.512973	-2.360324	0.537077	-0.893311	0.283447	-0.197998	0.059184	0.007171	0.093308	0.188447	-0.375604	-0.044151	-0.906344	-4.925841	-44.226286	-154.506361
34632		5.467392	0.271113	9.559353	3.067057	0.197315	0.765270	-0.624083	-2.707349	0.588025	-0.898193	0.289795	-0.160400	0.053365	0.003169	0.096312	0.189316	-0.388637	-0.042812	-0.900715	-5.759720	-45.750907	-153.828514
34633		5.393676	0.003349	9.261748	3.122557	0.430017	0.430674	-0.752123	-3.089822	0.585502	-0.905029	0.296143	-0.120361	0.052496	0.000539	0.093435	0.189816	-0.403286	-0.041185	-0.894223	-6.748862	-47.467111	-153.061503
34634		6.556283	-1.256857	9.086376	2.192654	1.240343	1.176702	-0.821105	-3.503386	0.554124	-0.909668	0.300537	-0.073975	0.063991	-0.012014	0.092044	0.189894	-0.419828	-0.039774	-0.886624	-7.857204	-49.425812	-152.201889
34635		4.898704	-0.857481	9.557492	4.030484	1.538808	0.058991	-0.751329	-3.917185	0.519397	-0.903076	0.309326	-0.025391	0.047124	-0.008089	0.096541	0.189813	-0.437872	-0.039042	-0.877904	-9.046509	-51.595057	-151.219829
34636		5.601789	-0.957139	9.389459	3.905229	1.457306	0.339317	-0.886845	-4.403755	0.439507	-0.900879	0.311523	0.027832	0.053952	-0.009031	0.095139	0.188909	-0.458038	-0.038412	-0.867778	-10.438983	-54.043613	-150.102633
34637		4.458262	-1.011307	10.331492	5.664853	2.149585	-0.278513	-1.075548	-4.904123	0.365207	-0.891846	0.313721	0.092285	0.042049	-0.009475	0.104419	0.187039	-0.480205	-0.037507	-0.856162	-12.151389	-56.751125	-148.772327
34638		4.848549	-2.090253	10.312211	5.584305	3.130841	-0.158759	-1.127201	-5.467585	0.250291	-0.885010	0.318115	0.147461	0.045666	-0.020258	0.104512	0.184336	-0.504502	-0.037239	-0.842681	-14.167546	-59.768444	-147.152438
34639		6.275390	-1.405604	11.174072	6.536674	2.446002	1.024804	-1.206812	-6.121312	0.173167	-0.869141	0.318115	0.216309	0.059306	-0.013322	0.113673	0.180802	-0.531140	-0.037319	-0.826927	-16.753102	-63.115807	-144.998017
34640		7.898062	-3.251140	12.185448	6.938963	4.164042	2.671701	-1.444921	-6.724304	0.175933	-0.848877	0.318359	0.280518	0.074849	-0.031550	0.124648	0.176378	-0.559896	-0.036994	-0.808727	-20.394399	-66.730259	-141.883124
34641		10.918712	-7.083841	13.766695	7.149355	7.640373	5.976071	-1.439359	-7.116449	0.013592	-0.825928	0.312012	0.356201	0.104191	-0.069820	0.141939	0.170981	-0.589522	-0.037365	-0.788564	-25.276216	-70.480713	-137.529497
34642		13.938837	-9.000678	13.334984	6.638889	8.973142	8.307254	-1.424430	-7.424077	-0.309381	-0.796631	0.307861	0.411621	0.134158	-0.089240	0.139033	0.164109	-0.619412	-0.038998	-0.766731	-32.003462	-74.289960	-131.324443
34643		11.991404	-7.782124	11.796254	7.130219	8.197179	5.197816	-1.400441	-7.439247	-0.833878	-0.769043	0.297119	0.482666	0.115081	-0.077459	0.122847	0.155015	-0.648418	-0.042265	-0.744136	-41.607559	-77.993904	-122.265789
34644		20.599816	-6.739325	17.606613	13.380310	7.755592	13.429415	-1.267713	-7.511333	-1.216885	-0.732422	0.280029	0.536133	0.198774	-0.067468	0.184051	0.144737	-0.676450	-0.047215	-0.720581	-57.828966	-81.318247	-106.524168
34645		14.468546	-5.954003	14.895109	12.625661	7.767840	5.893399	-1.245908	-7.330347	-1.643157	-0.697998	0.267090	0.589600	0.138600	-0.059745	0.154478	0.132778	-0.702837	-0.053531	-0.696796	-86.777403	-83.556778	-78.058153
34646		17.884070	-3.151912	18.293762	17.779619	6.128594	7.808476	-0.824300	-6.604827	-1.722802	-0.667969	0.249756	0.634277	0.172393	-0.032253	0.188834	0.122140	-0.725296	-0.060980	-0.674766	-122.111887	-83.568355	-42.984832
34647		7.581073	-2.822627	20.515163	19.874225	7.536782	-3.952923	-1.130066	-6.544982	-2.029566	-0.633545	0.232666	0.672119	0.068759	-0.027779	0.207637	0.109135	-0.746969	-0.068466	-0.652257	-149.527840	-81.640611	-16.004656
34648		8.927932	-3.154674	22.830148	22.555705	8.442708	-4.274846	-1.520676	-5.481108	-1.603928	-0.612549	0.210693	0.705811	0.082728	-0.030479	0.230863	0.096478	-0.764486	-0.072420	-0.633253	-162.721440	-79.173101	-3.498526
34649		0.947790	2.148699	14.146510	14.148467	1.099419	-11.863075	-2.869995	-4.951935	-2.502902	-0.591064	0.177734	0.730957	0.006262	0.023424	0.141320	0.075754	-0.780231	-0.075234	-0.616312	-173.647708	-76.687897	5.988824
34650		37.961902	-1.401300	22.871810	30.503357	7.378613	21.510480	-3.078634	-2.784436	-2.803450	-0.582764	0.140137	0.740479	0.376171	-0.015725	0.234205	0.054274	-0.788285	-0.077739	-0.607961	177.986972	-75.224528	12.815403
34651		25.876785	-9.760144	24.660791	28.026898	15.554911	8.776506	-2.459120	0.702778	-2.843834	-0.608887	0.115234	0.727783	0.258241	-0.098241	0.246905	0.036208	-0.785531	-0.081251	-0.612396	170.220097	-75.465234	19.385770
34652		9.035735	-11.960013	17.802866	17.083881	15.302510	-5.862949	-1.570768	2.696753	-2.753351	-0.639160	0.083496	0.697510	0.091110	-0.119454	0.177742	0.023030	-0.775712	-0.086789	-0.624666	161.598614	-76.685276	27.369450
34653		-0.575522	-10.469991	12.778644	10.567957	12.048099	-13.862897	-0.653547	3.235569	-2.607117	-0.667969	0.067383	0.673584	-0.005044	-0.104213	0.128213	0.013760	-0.764341	-0.094453	-0.637708	151.907549	-77.809986	36.919337
34654		-4.041642	-8.140760	9.483613	7.311775	8.789659	-16.279694	-0.173581	3.078336	-2.435381	-0.700928	0.046875	0.641113	-0.039936	-0.080837	0.095524	0.007136	-0.752611	-0.102863	-0.650343	141.375069	-78.630856	47.591171
34655		-1.566413	-5.609635	8.277605	6.995077	6.453670	-13.256227	-0.036487	2.849888	-2.086910	-0.723145	0.037598	0.625732	-0.015067	-0.055922	0.083004	0.001687	-0.742114	-0.110466	-0.661106	131.245076	-78.993264	57.894239
