// General information: 
//  MT Manager version: 2019.2.0 
//  XDA version: 2019.2.0 build 3853 rev 94535 built on 2019-09-09
// Device information: 
//  DeviceId: 00B40AC7
//  ProductCode: MTW2-3A7G6
//  Firmware Version: 4.3.5
//  Hardware Version: 1.1.0
// Device settings: 
//  Filter Profile: human(46.1)
//  Option Flags: Orientation Smoother Disabled, AHS Disabled, ICC Disabled
// Coordinate system: ENU
PacketCounter	SampleTimeFine	Acc_X	Acc_Y	Acc_Z	FreeAcc_E	FreeAcc_N	FreeAcc_U	Gyr_X	Gyr_Y	Gyr_Z	Mag_X	Mag_Y	Mag_Z	VelInc_X	VelInc_Y	VelInc_Z	Quat_q0	Quat_q1	Quat_q2	Quat_q3	Roll	Pitch	Yaw
34116		16.392944	0.766096	-0.860034	0.000000	-0.000000	6.617614	-0.430866	-1.839347	6.462829	-0.753906	-0.429199	0.131592	0.163638	0.012936	-0.007118	-0.454735	-0.579928	0.430518	-0.521108	118.822671	-84.844054	-16.422495
34117		18.873835	1.153339	-0.976638	0.000000	0.000000	9.117927	-0.247154	-1.957150	6.529795	-0.782471	-0.372070	0.147705	0.188312	0.017676	-0.007941	-0.430807	-0.604429	0.394513	-0.541693	114.192418	-84.124613	-5.707522
34118		21.473106	2.153270	-1.179217	-0.315224	0.141990	11.793337	-0.059457	-2.052466	6.544478	-0.795166	-0.319336	0.155273	0.213980	0.028541	-0.009601	-0.407559	-0.607812	0.396636	-0.554202	133.796919	-85.565640	-23.168807
34119		23.838735	3.588573	-1.668314	-2.877851	-0.946425	14.156940	0.144150	-2.182249	6.479405	-0.810547	-0.257813	0.164795	0.237221	0.043595	-0.014061	-0.384605	-0.600949	0.420138	-0.560734	-173.249324	-85.650634	-76.174379
34120		25.295486	5.893024	-1.333825	-6.199299	-3.195380	15.236601	0.382448	-2.358996	6.374474	-0.814209	-0.209473	0.181152	0.251038	0.066974	-0.010246	-0.360891	-0.593869	0.442304	-0.566961	-142.969916	-83.048002	-106.389899
34121		26.365155	8.120208	1.342342	-8.659536	-7.687065	15.257114	0.468995	-2.280638	6.311012	-0.811279	-0.160889	0.193359	0.260739	0.089425	0.016611	-0.336365	-0.586889	0.463575	-0.572292	-131.155248	-79.610497	-118.063100
34122		25.563420	6.615400	3.468689	-6.940987	-9.551100	14.054506	0.687278	-2.133984	6.034991	-0.819580	-0.112549	0.207520	0.253095	0.073692	0.037641	-0.324691	-0.585131	0.471525	-0.574336	-128.682461	-78.048531	-120.272981
34123		24.955723	7.724372	3.923111	-8.796930	-11.190646	12.436507	1.309534	-1.921228	5.617927	-0.809814	-0.068359	0.219727	0.246866	0.083934	0.042146	-0.300051	-0.579260	0.487099	-0.580657	-123.733970	-74.798835	-124.589767
34124		24.155415	11.185019	1.703612	-11.953260	-9.386293	12.103853	1.847976	-1.649088	4.979376	-0.806641	-0.028809	0.223145	0.238516	0.117638	0.020081	-0.315634	-0.584766	0.462157	-0.587227	-122.607885	-78.104499	-124.532467
34125		20.717946	23.282588	-1.038810	-24.243720	-11.743463	5.887549	2.172762	-1.674474	4.527726	-0.796875	0.015381	0.235352	0.201901	0.237519	-0.006119	-0.292010	-0.582444	0.471495	-0.594291	-119.200603	-75.385407	-126.753143
34126		15.143140	35.466946	0.738919	-31.735676	-16.422008	4.704271	0.841138	-1.621116	3.601256	-0.797363	0.028564	0.246094	0.144939	0.357280	0.010081	-0.355530	-0.614160	0.409318	-0.573467	-159.890775	-84.532856	-85.673463
34127		9.895663	36.341336	5.508167	-30.841498	-20.892061	-1.987204	-0.452990	-1.189461	1.702936	-0.788574	0.035156	0.243652	0.095530	0.364361	0.054832	-0.349584	-0.613245	0.417938	-0.571882	-154.107487	-83.522859	-91.748983
34128		11.802228	24.268054	7.477978	-13.637092	-14.745439	9.700183	-0.547494	-0.334696	-0.236329	-0.790527	0.028564	0.239502	0.118184	0.242745	0.074313	-0.483316	-0.663121	0.278865	-0.498909	95.509950	-68.628037	17.967972
34129		16.813381	18.420757	4.768042	-7.855462	-9.317785	12.462934	-0.259362	0.456057	-1.626455	-0.790039	0.013184	0.239746	0.169732	0.182893	0.047057	-0.488851	-0.663601	0.273007	-0.496111	94.508146	-67.722491	18.887012
34130		13.798084	17.153440	3.660365	-1.754730	-3.396959	12.173276	0.251264	0.758772	-2.344261	-0.793945	-0.004395	0.242432	0.140116	0.169855	0.036289	-0.593523	-0.673434	0.125460	-0.422466	84.931989	-45.883978	28.532971
34131		7.974810	17.545208	4.091549	-4.914260	-5.601766	8.425084	0.779663	0.752827	-2.693206	-0.784424	-0.028564	0.225342	0.082254	0.174195	0.041290	-0.596996	-0.675776	0.112497	-0.417453	85.082311	-44.309190	28.951429
34132		10.706491	12.248475	-1.664742	1.299790	4.643938	5.812724	0.933805	0.406191	-2.783363	-0.791016	-0.030762	0.227539	0.108723	0.121056	-0.016300	-0.657075	-0.665854	0.003704	-0.353378	82.603766	-28.389599	31.484699
34133		10.927738	1.023336	-3.788942	6.019041	8.236764	-4.268370	0.837331	0.234784	-2.767405	-0.794678	-0.054932	0.234863	0.109362	0.008879	-0.037979	-0.659113	-0.668172	-0.007760	-0.345047	83.116793	-26.799565	31.412944
34134		16.552526	-12.075271	-2.905136	15.978274	11.648382	-15.913887	0.671833	0.520294	-2.486547	-0.791992	-0.068115	0.230713	0.163931	-0.122698	-0.029889	-0.677875	-0.665334	-0.063344	-0.306274	83.533454	-18.763986	31.840706
34135		18.018321	-20.833823	1.664048	22.046464	9.101831	-23.689202	0.518224	0.761746	-1.985219	-0.791748	-0.076904	0.222168	0.178163	-0.210154	0.015416	-0.678910	-0.665255	-0.073319	-0.301897	83.729404	-17.585136	32.164437
34136		19.456300	-7.929707	8.786342	22.591634	2.862017	-9.991671	0.202395	1.131366	-2.253788	-0.786621	-0.098877	0.218262	0.194145	-0.081575	0.086683	-0.680207	-0.661461	-0.070753	-0.307867	83.054594	-18.121373	32.627103
34137		20.955092	8.821859	7.837431	18.063567	3.613365	5.645889	0.440868	0.742669	-3.122844	-0.794922	-0.118896	0.218750	0.211182	0.084758	0.077781	-0.683203	-0.660626	-0.084276	-0.299506	83.242472	-16.294122	32.845917
34138		18.781507	11.866489	0.657598	10.568716	8.254368	7.910264	1.198686	0.295571	-3.622641	-0.787598	-0.138428	0.221436	0.189933	0.115196	0.006994	-0.690874	-0.648956	-0.050051	-0.314713	80.657647	-19.835016	32.095911
34139		13.959248	5.077111	-3.425917	7.768871	9.764318	-1.057179	1.570752	0.188277	-3.495552	-0.789063	-0.166992	0.228760	0.140422	0.048589	-0.034004	-0.691103	-0.653091	-0.064505	-0.302799	81.626567	-17.839501	31.882692
34140		9.325144	3.366122	-1.809336	5.141131	5.811326	-3.382069	1.690334	0.204365	-3.242751	-0.779297	-0.188721	0.229492	0.093764	0.032296	-0.017912	-0.683736	-0.655586	-0.031766	-0.318909	81.415323	-22.006104	31.016948
34141		7.658978	7.099331	-1.627970	2.691739	4.649598	-0.711189	1.723153	0.119879	-3.202056	-0.778809	-0.206299	0.236572	0.077705	0.069892	-0.015721	-0.683061	-0.660668	-0.045414	-0.308029	82.475628	-20.179953	30.814331
34142		8.855219	9.280102	-2.717431	1.919378	5.550271	1.909780	1.813375	-0.014158	-3.140895	-0.771729	-0.223633	0.248047	0.089999	0.091636	-0.026334	-0.671204	-0.668863	-0.023070	-0.318709	83.487329	-23.289431	29.959676
34143		9.410364	6.438149	-0.932106	4.640140	4.543813	-0.395265	0.905355	0.137895	-2.849480	-0.773193	-0.243408	0.250732	0.095002	0.063074	-0.009099	-0.672626	-0.671278	-0.034502	-0.309468	84.046931	-21.657877	29.852855
34144		8.113404	3.491151	-1.650896	4.229771	4.633759	-3.380410	0.242054	0.196856	-2.546497	-0.770508	-0.260986	0.249023	0.081554	0.033895	-0.016548	-0.663391	-0.676490	-0.016653	-0.319368	84.705202	-24.205058	29.293141
34145		9.750214	3.741448	-1.928008	5.451545	5.657564	-2.667760	-0.172859	0.188171	-2.306266	-0.767578	-0.282715	0.251709	0.097907	0.036270	-0.019404	-0.667598	-0.675379	-0.024801	-0.312348	84.612975	-22.879369	29.276071
34146		11.717081	3.753867	0.631801	7.947021	3.996086	-1.289129	-0.636394	0.243772	-2.126596	-0.762695	-0.298096	0.254395	0.117569	0.036310	0.006058	-0.660804	-0.678225	-0.007220	-0.321397	84.931178	-25.240376	28.713039
34147		11.151342	3.343097	1.230752	8.070642	3.364044	-2.028899	-0.534267	0.075267	-1.934928	-0.764404	-0.315674	0.252686	0.111835	0.032383	0.012178	-0.665689	-0.676235	-0.013172	-0.315263	84.651578	-24.132412	28.649540
34148		10.882207	1.678161	0.050091	7.847028	4.241113	-3.357043	-0.118117	-0.042476	-1.704129	-0.761475	-0.337646	0.259766	0.108960	0.015854	0.000514	-0.658811	-0.679360	0.007302	-0.323085	85.068299	-26.654187	27.724570
34149		10.504910	1.159902	-1.160985	7.348553	5.270749	-4.221413	0.130234	-0.040127	-1.486623	-0.759033	-0.343994	0.266602	0.105134	0.010825	-0.011582	-0.660750	-0.679890	0.002174	-0.318048	85.189844	-25.807451	27.618405
34150		10.139225	2.640274	-1.802792	5.924172	5.276181	-2.735285	0.121278	-0.006288	-1.290276	-0.754395	-0.352783	0.271240	0.101560	0.025759	-0.018009	-0.651284	-0.683506	0.020562	-0.328977	85.773562	-28.457035	27.092900
34151		10.243615	3.161642	-0.307472	6.485541	3.918612	-2.223016	0.054039	0.009152	-1.163357	-0.753906	-0.368164	0.273926	0.102618	0.031021	-0.003071	-0.653003	-0.683775	0.016467	-0.325220	85.827820	-27.791898	27.043485
34152		10.433656	3.150071	1.338146	7.064632	2.322937	-1.733790	0.098863	-0.014309	-1.053097	-0.753418	-0.379150	0.271973	0.104500	0.030944	0.013404	-0.642662	-0.687086	0.030600	-0.337582	86.420504	-30.213647	26.965362
34153		10.740631	2.965256	0.548042	7.130467	3.213941	-1.857794	0.129404	-0.034735	-0.947275	-0.753418	-0.383301	0.278809	0.107544	0.029140	0.005518	-0.643804	-0.687698	0.027238	-0.334434	86.525328	-29.673168	26.903900
34154		10.743489	2.497571	-0.940160	6.466257	4.439063	-2.000786	0.011693	-0.008561	-0.853581	-0.748535	-0.394287	0.281250	0.107541	0.024517	-0.009396	-0.635617	-0.689067	0.043724	-0.345349	86.849707	-32.108261	26.561396
34155		10.294331	2.453649	-1.874778	5.813523	5.149108	-2.383187	-0.174869	-0.010345	-0.772826	-0.746094	-0.405273	0.285889	0.103038	0.024122	-0.018764	-0.637547	-0.688693	0.041396	-0.342816	86.768536	-31.666503	26.525392
34156		9.998943	2.477061	-1.945786	5.277071	4.995688	-2.256507	-0.325043	0.002048	-0.718278	-0.743652	-0.414063	0.286133	0.100077	0.024380	-0.019499	-0.629441	-0.688910	0.052620	-0.355582	86.877597	-33.791327	26.832771
34157		9.735814	1.692250	-1.779641	5.605419	4.933580	-3.100344	-0.390640	0.033057	-0.639561	-0.745605	-0.420654	0.286377	0.097409	0.016576	-0.017845	-0.631927	-0.687786	0.051007	-0.353578	86.654956	-33.424427	26.830646
34158		9.773090	0.650126	-2.114425	5.944474	5.237174	-3.677409	-0.402853	0.014535	-0.570258	-0.738525	-0.431396	0.288818	0.097747	0.006180	-0.021164	-0.627162	-0.688227	0.069911	-0.357943	86.979412	-35.477519	25.668765
34159		10.137678	0.395055	-2.213482	6.346301	5.523981	-3.726811	-0.328305	-0.008090	-0.529016	-0.738525	-0.435791	0.295654	0.101388	0.003646	-0.022137	-0.629233	-0.687394	0.068704	-0.356140	86.806244	-35.175143	25.642941
34160		10.344899	1.438884	-2.230561	5.863479	5.090123	-2.479701	-0.244418	-0.077773	-0.520760	-0.735840	-0.448975	0.293701	0.103495	0.014092	-0.022283	-0.624864	-0.688747	0.090106	-0.356445	87.482778	-37.128886	23.768582
34161		10.529903	2.034845	-2.077774	5.760704	4.900984	-1.930372	-0.293462	-0.061181	-0.547008	-0.737793	-0.453369	0.295898	0.105360	0.020030	-0.020775	-0.626819	-0.688183	0.088937	-0.354392	87.351648	-36.817408	23.707054
34162		10.146929	1.495590	-2.033173	5.759629	4.510503	-2.341915	-0.382613	-0.032409	-0.543602	-0.735352	-0.459961	0.291748	0.101513	0.014641	-0.020343	-0.623386	-0.689020	0.110920	-0.352615	88.100499	-38.624218	21.535309
34163		9.914110	1.377536	-2.151817	5.660822	4.598204	-2.627372	-0.558574	0.005137	-0.528587	-0.726074	-0.473145	0.294434	0.099176	0.013453	-0.021559	-0.626240	-0.687558	0.110067	-0.350673	87.786779	-38.321494	21.525164
34164		9.816492	2.184780	-2.250127	5.026206	4.200640	-1.857107	-0.805511	0.049927	-0.533523	-0.730469	-0.479492	0.296631	0.098217	0.021495	-0.022613	-0.624461	-0.686720	0.131884	-0.347951	88.351369	-39.986255	19.314991
34165		9.255867	2.314843	-1.879652	4.699462	3.723264	-2.156674	-0.996810	0.073583	-0.545155	-0.725586	-0.490723	0.285889	0.092614	0.022802	-0.018945	-0.628870	-0.683828	0.131515	-0.345839	87.753972	-39.672706	19.356012
34166		9.092437	1.965058	-1.711433	4.797746	3.319599	-2.367938	-1.081764	0.074396	-0.552045	-0.718506	-0.503906	0.284180	0.090972	0.019306	-0.017253	-0.628329	-0.681902	0.152479	-0.341998	88.210022	-41.149949	17.132877
34167		9.080006	1.413843	-1.902388	5.131052	3.628587	-2.843488	-1.108285	0.083858	-0.551182	-0.711670	-0.510498	0.281982	0.090830	0.013782	-0.019139	-0.633102	-0.678684	0.152229	-0.339701	87.543493	-40.832645	17.180957
34168		9.156887	1.561912	-2.366946	4.945168	3.820906	-2.543843	-1.031125	0.084104	-0.531167	-0.708984	-0.521484	0.280029	0.091600	0.015253	-0.023787	-0.632577	-0.676590	0.171726	-0.335533	88.030597	-42.167248	15.023313
34169		9.189085	1.942870	-2.479706	4.738367	3.917182	-2.291647	-0.889255	0.059461	-0.529268	-0.706543	-0.530273	0.273682	0.091934	0.019075	-0.024910	-0.636515	-0.674123	0.171238	-0.333293	87.501106	-41.862975	15.053187
34170		9.143870	1.290483	-2.263638	5.166121	3.535584	-2.656555	-0.731395	0.044895	-0.535693	-0.697266	-0.539063	0.269531	0.091468	0.012577	-0.022703	-0.635091	-0.672914	0.189314	-0.328643	88.220049	-43.059704	12.862709
34171		9.097547	1.518229	-1.982530	5.082474	3.245784	-2.557771	-0.584091	0.016942	-0.562393	-0.698975	-0.552246	0.265381	0.091016	0.014868	-0.019877	-0.637991	-0.671558	0.188327	-0.326359	87.886585	-42.737415	12.860972
34172		9.230982	1.904335	-1.777711	4.916187	2.780820	-2.060556	-0.556743	0.027070	-0.619666	-0.687988	-0.554443	0.263428	0.092366	0.018708	-0.017842	-0.636192	-0.670785	0.204604	-0.321628	88.701065	-43.774405	10.754850
34173		9.248221	1.922650	-1.167321	5.074497	2.203142	-2.067755	-0.584177	0.047266	-0.715992	-0.678467	-0.567383	0.261475	0.092547	0.018861	-0.011751	-0.639343	-0.669577	0.202990	-0.318908	88.350687	-43.363706	10.777605
34174		9.394323	1.939815	-0.655784	5.188353	1.505170	-1.859005	-0.617162	0.066071	-0.839534	-0.673828	-0.578613	0.252930	0.094021	0.018983	-0.006648	-0.638219	-0.668525	0.216687	-0.314322	89.021916	-44.174989	8.942902
34175		9.600778	1.000591	0.182051	6.170446	0.810649	-2.431834	-0.571498	0.094603	-0.952015	-0.662354	-0.587158	0.250977	0.096055	0.009554	0.001747	-0.641717	-0.667573	0.214099	-0.310977	88.653017	-43.628644	9.002705
34176		9.997819	0.514904	0.743606	6.792875	0.171248	-2.423432	-0.501787	0.144751	-1.049335	-0.650635	-0.602539	0.247070	0.100009	0.004643	0.007352	-0.640595	-0.666653	0.224011	-0.308270	89.137042	-44.268309	7.726812
34177		10.598224	0.309269	0.845404	7.453409	0.173332	-2.226644	-0.359933	0.202631	-1.184161	-0.643555	-0.617920	0.249512	0.106007	0.002480	0.008342	-0.643834	-0.666501	0.219966	-0.304744	88.830641	-43.588003	7.871228
34178		11.481847	0.760972	1.039839	7.720272	-0.046223	-1.216966	-0.169243	0.290042	-1.326360	-0.625488	-0.626709	0.245361	0.114881	0.006857	0.010226	-0.641990	-0.666321	0.224708	-0.305567	89.118938	-44.085619	7.429985
34179		12.091624	0.650506	0.896555	8.332205	0.214493	-0.983200	-0.003966	0.380732	-1.476064	-0.613770	-0.639648	0.241455	0.120977	0.005613	0.008735	-0.644667	-0.667366	0.218569	-0.302085	88.922367	-43.236426	7.711440
34180		12.183402	0.722922	0.679223	8.255011	0.479858	-0.810451	0.114611	0.447262	-1.618662	-0.602539	-0.646240	0.243896	0.121902	0.006239	0.006523	-0.642226	-0.667782	0.218243	-0.306569	88.981021	-43.611408	8.122231
34181		12.407518	1.355259	0.892928	8.162033	0.316591	-0.333393	0.167334	0.515115	-1.781126	-0.582031	-0.661621	0.237549	0.124212	0.012440	0.008620	-0.644931	-0.669444	0.210377	-0.302739	88.819161	-42.585569	8.499468
34182		12.630442	1.537055	0.770498	8.125271	0.601131	-0.009765	0.242652	0.593201	-1.935244	-0.559326	-0.676758	0.240234	0.126467	0.014138	0.007348	-0.642469	-0.669977	0.205680	-0.309936	88.621012	-42.811235	9.624278
34183		13.312440	1.857496	0.493555	8.552780	1.033714	0.516361	0.370285	0.669066	-2.065874	-0.538818	-0.687500	0.238525	0.133322	0.017190	0.004522	-0.645079	-0.672213	0.196025	-0.305904	88.512414	-41.618523	10.101672
34184		13.666872	0.885377	-0.356733	9.241793	2.277129	0.040771	0.438047	0.726388	-2.142471	-0.522705	-0.702881	0.236572	0.136739	0.007398	-0.004047	-0.642248	-0.672877	0.187825	-0.315398	88.163223	-41.736716	11.781514
34185		13.910773	1.903867	-1.757558	8.686400	3.713611	0.721568	0.370333	0.751114	-2.200569	-0.493652	-0.709229	0.243652	0.139239	0.017540	-0.018065	-0.645133	-0.674901	0.177414	-0.311185	88.036715	-40.462491	12.296755
34186		14.281394	2.320336	-2.366909	8.432430	4.609733	1.258873	0.216288	0.748497	-2.272932	-0.484375	-0.715576	0.243652	0.142976	0.021605	-0.024180	-0.643190	-0.674585	0.168683	-0.320606	87.515290	-40.507098	14.069850
34187		14.597893	1.846109	-2.726225	9.102563	5.219778	0.856209	0.021827	0.743462	-2.353040	-0.464111	-0.726563	0.239746	0.146080	0.016746	-0.027803	-0.647465	-0.675397	0.158309	-0.315541	87.224588	-39.140987	14.543296
34188		15.258875	1.364804	-2.391226	9.853271	5.352955	0.895251	-0.141583	0.746145	-2.439886	-0.445801	-0.739746	0.235596	0.152649	0.011769	-0.024490	-0.647088	-0.674039	0.150752	-0.322836	86.611139	-39.072818	16.045478
34189		16.210660	1.583985	-2.178734	10.710388	5.495746	1.372548	-0.290425	0.779454	-2.557675	-0.425293	-0.754883	0.236084	0.162205	0.013734	-0.022440	-0.652723	-0.673708	0.140067	-0.316941	86.165396	-37.582390	16.495902
34190		17.096652	0.277502	-2.194850	12.076141	6.148789	0.842334	-0.451456	0.809052	-2.657590	-0.407227	-0.763672	0.225342	0.170892	0.000453	-0.022643	-0.653795	-0.671349	0.133169	-0.322657	85.443422	-37.399028	17.818603
34191		17.903773	-0.824127	-2.461840	13.513433	6.906075	0.033883	-0.633361	0.833009	-2.740270	-0.384521	-0.776855	0.221191	0.178797	-0.010772	-0.025332	-0.660825	-0.669688	0.122257	-0.316041	84.826282	-35.794416	18.245033
34192		18.663596	-1.140000	-2.024704	14.309069	6.997060	0.187013	-0.852342	0.848945	-2.812636	-0.357422	-0.787842	0.208496	0.186362	-0.014111	-0.020982	-0.663382	-0.665978	0.116557	-0.320642	83.946597	-35.572019	19.399478
34193		19.747242	-1.706093	-2.292608	15.640153	7.777931	-0.170172	-1.328596	0.871163	-2.855047	-0.339355	-0.794189	0.201904	0.197099	-0.020032	-0.023659	-0.672801	-0.661750	0.106278	-0.313258	82.970760	-33.890300	19.776079
34194		20.594550	-5.150557	-4.894807	17.479497	11.005366	-2.889737	-1.975558	0.862641	-2.940644	-0.312012	-0.807617	0.180420	0.204942	-0.055010	-0.049302	-0.679026	-0.654242	0.103138	-0.316629	81.524862	-33.667407	20.763175
34195		19.522904	-4.519951	-6.729929	16.037841	12.442933	-3.915875	-2.307300	0.739036	-3.214462	-0.289307	-0.820801	0.158691	0.194212	-0.049104	-0.067467	-0.691904	-0.646764	0.093748	-0.306882	80.122907	-31.782090	20.910927
34196		18.616581	-4.417502	-7.651643	15.126747	13.015605	-4.678980	-2.229704	0.506433	-3.508070	-0.264404	-0.831787	0.136719	0.185149	-0.048281	-0.076463	-0.699371	-0.639952	0.093819	-0.304204	78.972380	-31.371183	20.960102
34197		17.680515	-4.208819	-6.531693	14.843882	11.601209	-5.570387	-2.019929	0.405705	-3.596219	-0.237305	-0.840576	0.123779	0.175870	-0.045915	-0.065223	-0.711342	-0.633822	0.083948	-0.291917	77.923174	-29.306321	20.745901
34198		17.287610	-3.217764	-6.102718	14.318597	10.876690	-5.007312	-1.696361	0.296446	-3.459456	-0.210205	-0.851563	0.106445	0.172189	-0.035678	-0.060990	-0.716697	-0.630359	0.087416	-0.285222	77.451708	-29.004990	19.965515
34199		17.824687	-3.890781	-5.691384	15.436013	10.557721	-5.878355	-0.974615	0.343864	-3.207012	-0.187744	-0.858154	0.100098	0.177492	-0.042036	-0.057020	-0.724389	-0.627688	0.077457	-0.274350	77.007507	-27.169866	19.722963
34200		16.977017	-3.529439	-1.621092	15.601558	6.195109	-5.176317	-0.145428	0.489313	-2.769234	-0.169678	-0.864746	0.095947	0.169219	-0.037652	-0.016599	-0.723688	-0.630069	0.081875	-0.269417	77.485741	-27.258593	18.820152
34201		15.988501	-0.619905	-1.698185	13.470275	6.181941	-3.550074	-0.693109	0.395150	-2.572621	-0.154053	-0.866943	0.078369	0.159753	-0.008314	-0.017271	-0.729431	-0.628025	0.073271	-0.261048	77.139959	-25.771370	18.705238
34202		14.172753	-0.983336	-1.636952	12.166601	5.418525	-4.605409	-1.736376	0.400427	-2.355660	-0.140137	-0.878174	0.056641	0.141564	-0.011645	-0.016557	-0.732940	-0.624275	0.080422	-0.258092	76.630763	-26.112157	18.029778
34203		5.900244	2.341660	-0.442305	3.864559	2.305224	-5.313670	-2.628983	0.298850	-1.824711	-0.133301	-0.882813	0.021240	0.059205	0.022815	-0.004814	-0.743524	-0.614909	0.077017	-0.251251	75.166911	-25.057070	17.931545
34204		6.168676	7.696738	-4.840575	0.709819	7.223486	-1.564698	-3.022078	-0.141777	-1.830641	-0.117676	-0.876465	-0.003174	0.062418	0.075656	-0.049512	-0.750118	-0.606741	0.088580	-0.247673	74.023927	-25.685893	17.039680
34205		13.195353	-3.994308	-3.739314	12.696436	6.428797	-8.579628	-2.052396	0.028839	-1.135963	-0.119629	-0.885498	-0.027344	0.131717	-0.041073	-0.036995	-0.757710	-0.599469	0.087565	-0.242577	72.928291	-25.057870	16.852423
34206		8.260681	-6.491076	-4.027655	9.730661	4.837312	-12.729596	-1.348290	-0.084569	-0.239846	-0.122314	-0.874756	-0.036377	0.082546	-0.065279	-0.039802	-0.757321	-0.597422	0.102385	-0.243042	72.769047	-26.453657	15.934167
34207		5.339647	-8.735084	-0.853977	8.784090	0.621024	-15.103816	-1.036759	-0.048019	0.410559	-0.130859	-0.881592	-0.049561	0.053578	-0.087284	-0.008074	-0.759880	-0.593336	0.105056	-0.243923	72.152730	-26.686958	15.984200
34208		3.871056	-6.597435	0.683663	6.774617	-0.861387	-13.325631	-0.324405	-0.288950	0.833944	-0.146729	-0.875244	-0.054199	0.038975	-0.065801	0.007000	-0.755005	-0.594047	0.121004	-0.249867	72.427062	-28.658216	15.434770
34209		2.974011	-2.235848	0.779055	3.770526	-0.431672	-10.030276	0.141833	-0.576612	1.112550	-0.166748	-0.877441	-0.052002	0.029841	-0.022198	0.007861	-0.752828	-0.594617	0.126311	-0.252440	72.576813	-29.366285	15.293754
34210		2.723725	-0.790359	-0.318131	2.655663	0.789128	-9.127773	0.345362	-0.796566	1.414850	-0.177979	-0.870850	-0.054443	0.027305	-0.007705	-0.003086	-0.744868	-0.597030	0.142721	-0.261452	73.176033	-31.655172	14.913968
34211		2.828269	-2.280469	-1.456619	3.463631	1.687256	-10.503488	0.717446	-0.900845	1.884576	-0.202393	-0.873047	-0.041016	0.028561	-0.022484	-0.014519	-0.739572	-0.599499	0.150760	-0.266283	73.705124	-32.838137	14.692996
34212		2.776489	-4.277372	-1.953680	4.593546	1.941211	-12.037692	1.291628	-0.934346	2.454426	-0.231689	-0.864502	-0.034668	0.028378	-0.042301	-0.019679	-0.727082	-0.604241	0.168484	-0.279029	74.811578	-35.605850	14.396298
34213		3.276553	-3.669344	-1.499575	4.686785	1.736888	-11.022336	1.703639	-0.932371	2.984703	-0.263184	-0.857910	-0.019531	0.033377	-0.036070	-0.015150	-0.716868	-0.609124	0.178493	-0.288459	75.849788	-37.396413	14.292237
34214		3.581210	-2.036132	-0.850667	3.934055	1.360002	-9.207666	1.823970	-0.969862	3.410478	-0.297119	-0.846924	-0.002197	0.036193	-0.019669	-0.008513	-0.700752	-0.614085	0.197453	-0.304727	77.227220	-40.616138	14.072384
34215		3.737377	-0.799406	-0.687945	3.183239	1.311045	-8.016487	1.697721	-1.071148	3.771654	-0.331055	-0.831543	0.014893	0.037551	-0.007229	-0.006742	-0.688572	-0.617801	0.210160	-0.316264	78.327116	-42.859070	13.881754
34216		4.101448	-0.554667	-0.730464	3.135528	1.391228	-7.385095	1.392075	-1.160899	4.089024	-0.369385	-0.812012	0.023193	0.041157	-0.004656	-0.007100	-0.671728	-0.619771	0.231444	-0.333316	79.588937	-46.393553	13.491677
34217		4.788302	-0.958262	-0.830973	3.767847	1.561755	-7.002646	1.078760	-1.240483	4.446669	-0.409912	-0.801025	0.038330	0.048130	-0.008470	-0.008059	-0.659347	-0.620140	0.247532	-0.345566	80.492495	-49.026920	13.106194
34218		5.770114	-1.273992	-0.714707	4.436814	1.526410	-6.151348	0.785318	-1.315135	4.795902	-0.448975	-0.766113	0.046143	0.058030	-0.011324	-0.006813	-0.642045	-0.618345	0.271544	-0.362893	81.630146	-52.889560	12.459291
34219		6.890347	-0.872631	-0.377040	4.596831	1.246331	-4.744653	0.445372	-1.411464	5.107562	-0.494141	-0.746582	0.049805	0.069121	-0.006955	-0.003300	-0.629253	-0.615182	0.290967	-0.375406	82.437833	-55.901013	11.780223
34220		8.182998	-0.470240	0.056198	4.605635	0.799684	-3.080889	-0.003095	-1.471781	5.357444	-0.537354	-0.718262	0.057861	0.081910	-0.002509	0.001165	-0.611908	-0.609092	0.317444	-0.392179	83.510159	-60.024569	10.756660
34221		9.321718	0.039490	0.624150	4.372254	0.161651	-1.559296	-0.496439	-1.544905	5.555899	-0.574219	-0.678955	0.058838	0.093106	0.002999	0.006956	-0.599813	-0.601528	0.339935	-0.403525	84.227449	-63.285566	9.619013
34222		10.310570	0.360704	1.167510	3.919863	-0.537985	-0.215083	-0.964468	-1.633525	5.697101	-0.613281	-0.642090	0.057861	0.102846	0.006598	0.012489	-0.582970	-0.590997	0.368225	-0.418664	85.454763	-67.545909	7.960957
34223		11.101904	-0.019818	1.595414	4.013946	-1.114982	0.598994	-1.262862	-1.733242	5.805165	-0.647949	-0.602783	0.058838	0.110817	0.003125	0.016902	-0.571075	-0.579972	0.392901	-0.427942	86.749455	-70.933683	5.803461
34224		12.203603	-0.477892	1.711814	3.984463	-1.435731	1.767411	-1.242757	-1.872947	5.919494	-0.687256	-0.561279	0.060059	0.121937	-0.001057	0.018275	-0.552454	-0.567539	0.421109	-0.441997	89.745063	-75.236923	2.333311
34225		13.871783	-0.593480	1.967171	3.762332	-1.956473	3.551323	-1.060835	-1.998168	6.065757	-0.719727	-0.519775	0.065430	0.138605	-0.001620	0.021073	-0.537558	-0.555954	0.445968	-0.450621	94.655587	-78.671274	-3.328502
34226		16.011511	-1.082833	2.227151	3.551764	-2.561080	5.783239	-0.778750	-2.077110	6.178623	-0.752686	-0.460449	0.077148	0.160103	-0.005790	0.023964	-0.514718	-0.543712	0.472034	-0.465432	107.040500	-82.770694	-15.754927
34227		18.539934	-1.189048	2.115327	2.890224	-2.932998	8.422816	-0.339667	-2.152957	6.285484	-0.778809	-0.412354	0.086914	0.185408	-0.006025	0.023163	-0.495643	-0.532710	0.495194	-0.474700	135.032073	-85.298113	-44.081711
34228		21.143359	-0.651796	1.851800	0.999872	-3.272743	11.140054	0.152138	-2.174921	6.362282	-0.796143	-0.355225	0.096436	0.211281	0.000190	0.020815	-0.467890	-0.521858	0.517151	-0.491221	-166.075322	-85.298090	-102.316783
34229		23.345957	0.556900	1.242085	-1.661876	-3.394036	13.261094	0.733293	-2.164361	6.404166	-0.815674	-0.302246	0.128174	0.232970	0.012983	0.014983	-0.444376	-0.512025	0.536828	-0.502171	-140.136925	-82.460890	-127.968553
34230		24.935729	1.986461	0.422441	-4.991979	-3.388313	14.462394	1.348409	-2.148246	6.345684	-0.824219	-0.242920	0.142090	0.248495	0.027718	0.007066	-0.412731	-0.503132	0.553355	-0.519913	-126.554506	-78.505330	-140.164992
34231		25.777412	3.276655	-0.458164	-7.957815	-3.325865	14.698148	2.098461	-2.144819	6.220444	-0.833008	-0.178955	0.156006	0.256615	0.040787	-0.001425	-0.385097	-0.495523	0.567648	-0.532853	-121.256716	-74.858020	-144.370777
34232		26.341784	5.954662	1.403811	-12.082750	-6.207851	13.565273	3.010196	-2.033173	6.095191	-0.830078	-0.132568	0.179199	0.261278	0.067284	0.017676	-0.350473	-0.489235	0.577319	-0.551833	-116.280386	-70.842842	-147.133928
34233		25.045492	5.773095	3.994627	-12.367471	-9.211371	11.129422	3.570378	-1.659862	5.767753	-0.831787	-0.077637	0.193359	0.248317	0.064163	0.043121	-0.320815	-0.483119	0.584139	-0.567851	-112.893527	-67.440452	-148.567671
34234		24.353000	8.142465	1.422060	-15.749980	-7.636127	9.024443	4.326040	-1.474872	5.221938	-0.822021	-0.031250	0.203125	0.241177	0.087383	0.017853	-0.287310	-0.479113	0.584911	-0.588032	-109.158393	-64.101627	-149.362675
34235		21.834538	20.710091	-2.025035	-27.433327	-6.631989	0.810913	4.475414	-1.683505	4.795533	-0.812256	0.010498	0.213379	0.213425	0.212614	-0.013723	-0.257396	-0.476187	0.585330	-0.603640	-106.730498	-61.189069	-149.208394
34236		19.198774	34.380842	-1.554267	-38.081531	-10.122726	-9.617860	2.509731	-1.635363	4.179716	-0.811035	0.041504	0.221436	0.184841	0.347867	-0.009663	-0.232306	-0.472228	0.588740	-0.613531	-105.471133	-58.538209	-148.721666
34237		10.448629	40.694386	0.381500	-38.632969	-11.217376	-21.933822	-0.050716	-1.241265	2.513454	-0.802490	0.052734	0.236572	0.099336	0.408215	0.004339	-0.221028	-0.468525	0.596220	-0.613313	-105.966421	-56.957617	-148.170204
34238		9.266783	30.290669	2.208686	-28.798980	-10.343441	-18.292109	-0.871427	-0.493678	0.607327	-0.797852	0.048096	0.225586	0.091695	0.303279	0.020993	-0.220851	-0.467163	0.601277	-0.609467	-106.856718	-56.618530	-147.874863
34239		16.381815	18.943320	2.626588	-22.592223	-10.582424	-6.391025	-0.700010	0.382711	-0.994566	-0.802246	0.043701	0.216797	0.164807	0.188705	0.025290	-0.226652	-0.468198	0.600658	-0.607149	-107.191548	-57.225962	-147.953696
34240		17.315794	15.407293	1.238929	-20.439108	-8.726162	-3.116992	-0.146981	0.783965	-2.030732	-0.794678	0.021729	0.213135	0.174757	0.152313	0.011594	-0.237328	-0.471784	0.595775	-0.605102	-107.324481	-58.621034	-148.128137
34241		9.061022	16.136257	2.042967	-17.111396	-7.328085	-10.179914	0.549029	0.791901	-2.474192	-0.800781	0.001709	0.208984	0.092678	0.160168	0.020506	-0.245845	-0.477362	0.587291	-0.605619	-106.983313	-60.107783	-148.158805
34242		6.735974	15.851090	1.679662	-15.993815	-6.392519	-11.475236	0.819218	0.674862	-2.793509	-0.802734	-0.011475	0.205078	0.069622	0.157479	0.017211	-0.256268	-0.484659	0.577464	-0.604953	-106.889924	-61.928693	-147.953880
34243		9.696414	7.301255	-5.146413	-11.650724	0.955314	-3.717136	1.037581	0.263237	-2.692780	-0.797607	-0.033203	0.209961	0.097870	0.071965	-0.051217	-0.262621	-0.492910	0.567409	-0.605076	-106.883274	-63.447255	-147.292095
34244		12.456869	-2.820564	-3.782598	-3.141861	1.264824	3.069745	0.859887	0.275844	-2.770438	-0.794678	-0.048584	0.206055	0.124111	-0.029764	-0.038123	-0.271859	-0.501004	0.558228	-0.602884	-107.358205	-65.177520	-146.525676
34245		17.135998	-14.791582	-0.133656	7.289850	-0.249360	11.616663	0.993812	0.578425	-2.422344	-0.801025	-0.061768	0.208496	0.169546	-0.149966	-0.002570	-0.278251	-0.507322	0.548335	-0.603763	-106.996540	-66.599828	-146.297855
34246		17.617033	-17.895716	4.199724	11.685618	-3.277205	12.568685	1.177226	0.720533	-2.121912	-0.798340	-0.075195	0.202148	0.174404	-0.181054	0.040305	-0.285244	-0.512594	0.538832	-0.604602	-106.471348	-68.006706	-146.355739
34247		18.103056	-0.084133	5.337602	-3.677226	-8.649739	6.553480	1.552607	0.629430	-2.574933	-0.800293	-0.088379	0.202637	0.181163	-0.003585	0.052785	-0.290701	-0.519777	0.526584	-0.606658	-105.742815	-69.522622	-146.182726
34248		21.507194	13.064672	2.975881	-16.699192	-10.603812	6.021693	1.764913	0.302730	-3.371069	-0.797363	-0.112305	0.211914	0.217276	0.126729	0.030561	-0.297530	-0.530673	0.511178	-0.607090	-105.723722	-71.534609	-145.085754
34249		17.852552	11.068793	0.424469	-14.223780	-6.974315	3.986033	1.645073	0.059034	-3.578259	-0.791992	-0.138672	0.214844	0.180469	0.107431	0.005084	-0.304110	-0.541979	0.496511	-0.606014	-106.483582	-73.512429	-143.300935
34250		12.179838	5.652893	-1.278524	-8.157380	-2.683752	0.588098	1.496143	-0.065079	-3.372728	-0.791260	-0.164795	0.217773	0.122734	0.054558	-0.012332	-0.310531	-0.553272	0.481897	-0.604347	-107.796393	-75.471946	-140.989359
34251		8.193904	5.107273	-0.614834	-6.345906	-2.477770	-2.943645	1.227604	-0.181898	-3.314074	-0.783936	-0.182373	0.227051	0.082776	0.049742	-0.005765	-0.316652	-0.563622	0.469234	-0.601566	-110.033637	-77.233560	-137.963461
34252		8.221587	7.705680	-3.854135	-9.710012	-0.470287	-2.934545	1.466714	-0.272359	-3.421714	-0.781006	-0.208496	0.234375	0.083573	0.075914	-0.037869	-0.322657	-0.575123	0.454809	-0.598561	-113.464153	-79.108478	-133.578033
34253		9.676778	7.347698	-2.673873	-8.864034	-1.666893	-1.244361	1.248990	-0.181695	-3.240559	-0.778076	-0.228271	0.237061	0.097967	0.072061	-0.026197	-0.328292	-0.584960	0.441984	-0.595564	-117.795528	-80.737647	-128.452343
34254		7.727419	4.240457	-1.857823	-5.271934	-0.919054	-2.566789	0.437019	-0.035829	-2.844495	-0.781982	-0.250000	0.246582	0.077871	0.041340	-0.018473	-0.336171	-0.592288	0.432176	-0.591108	-123.698820	-82.214252	-122.290355
34255		8.450909	4.953502	-3.043101	-6.264558	-0.151466	-1.692200	0.160231	-0.007580	-2.676996	-0.774658	-0.271973	0.249268	0.085163	0.048422	-0.030389	-0.343552	-0.598307	0.423756	-0.586882	-131.026634	-83.431991	-114.812552
34256		10.348589	2.344700	-1.920526	-3.287816	-0.209247	0.454720	-0.431057	0.156718	-2.480898	-0.767334	-0.291504	0.251953	0.103751	0.022120	-0.019335	-0.353296	-0.602504	0.417384	-0.581345	-141.334877	-84.529233	-104.793044
34257		10.616007	2.010529	0.256525	-1.892456	-1.964605	0.644941	-0.687313	0.115909	-2.171789	-0.771240	-0.309326	0.250244	0.106372	0.018959	0.002437	-0.361889	-0.605443	0.412615	-0.576389	-153.040617	-85.261961	-93.436435
34258		11.069441	2.253734	1.364469	-1.464492	-3.010863	1.062036	-0.465672	-0.086142	-1.991342	-0.766113	-0.328857	0.250732	0.110906	0.021466	0.013642	-0.369594	-0.609085	0.408134	-0.570825	-168.181919	-85.598563	-78.599206
34259		10.604763	2.413441	0.461949	-1.780432	-2.152707	0.708327	0.133334	-0.330052	-1.782410	-0.759033	-0.346436	0.257813	0.106249	0.023185	0.004810	-0.373578	-0.613883	0.402926	-0.566779	178.592277	-85.501870	-65.256985
34260		9.582414	2.325007	-1.207688	-2.201768	-0.492904	-0.138304	0.692926	-0.480205	-1.669050	-0.756592	-0.350586	0.269043	0.096042	0.022490	-0.011768	-0.375730	-0.620061	0.396541	-0.563122	166.944511	-85.086258	-53.210036
34261		9.615511	2.271599	-2.536071	-2.533209	0.735234	0.040766	0.915653	-0.385075	-1.478611	-0.756104	-0.367920	0.280518	0.096369	0.022119	-0.025073	-0.376268	-0.625770	0.390094	-0.560947	159.186914	-84.627399	-44.894335
34262		9.725396	3.106242	-1.836103	-2.856909	-0.253875	0.156039	0.893834	-0.264830	-1.318734	-0.749268	-0.374512	0.287354	0.097480	0.030501	-0.018095	-0.377187	-0.630887	0.383946	-0.558835	152.749835	-84.133551	-37.968532
34263		10.590949	3.275526	-0.352290	-2.193892	-1.718487	0.922929	0.782178	-0.149450	-1.204444	-0.748779	-0.387451	0.294189	0.106107	0.032130	-0.003317	-0.377780	-0.635073	0.378240	-0.557583	147.969881	-83.717867	-32.710810
34264		11.042285	3.601376	0.348331	-2.007708	-2.496441	1.356856	0.632973	-0.106521	-1.102008	-0.742188	-0.389648	0.303223	0.110617	0.035393	0.003655	-0.379135	-0.638767	0.373186	-0.555848	143.695137	-83.260053	-28.097310
34265		11.028468	2.710269	0.040096	-1.220209	-1.805181	1.332964	0.392121	-0.046589	-1.018980	-0.743896	-0.402832	0.305664	0.110421	0.026539	0.000479	-0.380614	-0.641529	0.368931	-0.554494	140.279763	-82.879918	-24.430350
34266		10.337142	2.506022	-1.325482	-1.592962	-0.413556	0.779015	-0.047402	-0.015562	-0.933753	-0.737061	-0.411377	0.308105	0.103488	0.024574	-0.013253	-0.383693	-0.643343	0.365929	-0.552255	136.877329	-82.474802	-21.051566
34267		10.057864	2.953747	-1.778986	-2.137256	-0.137829	0.601836	-0.590567	0.053035	-0.869639	-0.738770	-0.422363	0.310791	0.100701	0.029047	-0.017903	-0.388078	-0.643643	0.364663	-0.549672	133.764447	-82.146719	-18.251741
34268		9.829220	3.228811	-1.407624	-2.170925	-0.509120	0.387664	-0.976318	0.095453	-0.813748	-0.738281	-0.439941	0.306641	0.098416	0.031818	-0.014279	-0.393994	-0.643078	0.364447	-0.546258	130.503150	-81.790684	-15.554561
34269		10.037075	2.317019	-1.044900	-1.105254	-0.386538	0.474758	-1.098063	0.118177	-0.728922	-0.733643	-0.444580	0.300293	0.100448	0.022746	-0.010634	-0.399715	-0.641903	0.364869	-0.543193	127.727516	-81.510170	-13.384929
34270		10.208731	1.887658	-0.989806	-0.600739	-0.199873	0.596912	-0.936970	0.104390	-0.652320	-0.729004	-0.453125	0.298340	0.102143	0.018497	-0.010039	-0.405034	-0.641030	0.365050	-0.540155	125.275458	-81.198927	-11.480880
34271		10.170375	1.090929	-1.123891	0.117404	0.293981	0.472702	-0.697419	0.063239	-0.545249	-0.726563	-0.464111	0.305176	0.101729	0.010593	-0.011308	-0.408846	-0.640433	0.365062	-0.537979	123.566003	-80.962609	-10.154829
34272		10.362869	2.346942	-1.315526	-1.008120	0.002965	0.846166	-0.564003	0.026373	-0.500600	-0.723877	-0.470703	0.301025	0.103685	0.023173	-0.013235	-0.412368	-0.640205	0.364884	-0.535676	122.104600	-80.686978	-9.033619
34273		10.476694	2.755291	-1.259702	-1.290106	-0.174569	1.015260	-0.570314	-0.000329	-0.495445	-0.723633	-0.481689	0.299072	0.104835	0.027257	-0.012675	-0.415510	-0.639927	0.364831	-0.533613	120.891319	-80.445782	-8.134795
34274		10.082115	1.874272	-1.127022	-0.445399	0.089645	0.493885	-0.666805	-0.027529	-0.479191	-0.718994	-0.488281	0.301270	0.100867	0.018463	-0.011318	-0.419189	-0.639556	0.365141	-0.530962	119.715023	-80.159087	-7.364837
34275		10.182285	0.955530	-1.005791	0.504507	0.351994	0.445232	-0.709477	-0.059853	-0.470039	-0.714355	-0.494873	0.294922	0.101848	0.009280	-0.010061	-0.422586	-0.639078	0.365650	-0.528489	118.735157	-79.908282	-6.782532
34276		10.417220	1.144423	-0.218704	0.716078	-0.433012	0.636022	-0.687420	-0.070436	-0.453289	-0.711670	-0.505859	0.299561	0.104199	0.011201	-0.002189	-0.426144	-0.638693	0.366193	-0.525714	117.813906	-79.622209	-6.281672
34277		10.524838	1.849041	-0.244584	0.126333	-0.651577	0.855502	-0.655511	-0.092514	-0.456671	-0.704834	-0.512207	0.299805	0.105291	0.018242	-0.002457	-0.429258	-0.638368	0.366658	-0.523244	117.046198	-79.366538	-5.882703
34278		10.432307	2.204365	0.045087	-0.062697	-1.026258	0.800368	-0.596717	-0.084394	-0.475105	-0.704834	-0.516846	0.293213	0.104375	0.021797	0.000430	-0.432471	-0.638236	0.366824	-0.520637	116.233534	-79.070387	-5.422925
34279		10.013039	1.387055	-0.639259	0.417681	-0.068088	0.307303	-0.542118	-0.069242	-0.470208	-0.699951	-0.529785	0.298096	0.100165	0.013618	-0.006395	-0.435289	-0.638100	0.366888	-0.518406	115.507873	-78.811659	-4.999867
34280		9.832076	2.000631	-0.809136	-0.186482	-0.100894	0.251196	-0.502666	-0.081829	-0.491728	-0.695068	-0.536621	0.291504	0.098373	0.019744	-0.008101	-0.438178	-0.638178	0.366680	-0.516018	114.770963	-78.511578	-4.549512
34281		9.878326	2.138433	-0.703830	-0.217571	-0.227330	0.314026	-0.516771	-0.081164	-0.528918	-0.688232	-0.545166	0.298584	0.098842	0.021105	-0.007053	-0.441033	-0.638218	0.366507	-0.513653	114.075417	-78.217420	-4.141521
34282		9.711697	2.195446	-1.028643	-0.353199	0.086655	0.190440	-0.508481	-0.049781	-0.575110	-0.681152	-0.553955	0.289795	0.097182	0.021649	-0.010318	-0.444176	-0.638327	0.365974	-0.511183	113.230249	-77.882414	-3.580973
34283		9.523146	1.360543	-1.333399	0.335316	0.683160	-0.130754	-0.456561	-0.034078	-0.616918	-0.674316	-0.560547	0.292236	0.095275	0.013281	-0.013348	-0.447138	-0.638522	0.365252	-0.508869	112.424600	-77.550063	-3.024016
34284		9.421985	1.423210	-1.907687	0.136458	1.231209	-0.174031	-0.467909	-0.030915	-0.641726	-0.660645	-0.573730	0.288330	0.094268	0.013885	-0.019095	-0.450337	-0.638760	0.364403	-0.506352	111.584335	-77.182934	-2.447572
34285		9.743835	2.376524	-2.316458	-0.731409	1.330979	0.368135	-0.525631	-0.037253	-0.695053	-0.655762	-0.586670	0.288574	0.097524	0.023365	-0.023208	-0.453697	-0.638929	0.363601	-0.503709	110.749554	-76.804876	-1.899758
34286		10.002586	2.912032	-2.135272	-1.025006	1.023224	0.722618	-0.627821	-0.028842	-0.781786	-0.648682	-0.595459	0.286621	0.100142	0.028662	-0.021429	-0.457781	-0.639004	0.362828	-0.500467	109.813165	-76.358744	-1.333539
34287		10.424019	2.342281	-1.643137	-0.158655	0.781776	0.967342	-0.743457	0.001911	-0.887484	-0.635010	-0.606445	0.280273	0.104342	0.022899	-0.016518	-0.462366	-0.638894	0.361849	-0.497088	108.706702	-75.880099	-0.632432
34288		10.485122	1.128499	-1.273591	1.191486	0.854169	0.707909	-0.794052	0.047837	-1.007924	-0.628174	-0.610840	0.273682	0.104903	0.010706	-0.012804	-0.467670	-0.638747	0.360655	-0.493167	107.484219	-75.319543	0.123052
34289		10.909809	0.676063	-0.792534	1.970117	0.586322	0.952181	-0.775788	0.126663	-1.185483	-0.612305	-0.619629	0.267334	0.109130	0.006083	-0.008019	-0.473282	-0.638740	0.358484	-0.489392	106.050786	-74.691153	1.146983
34290		11.346730	-0.105157	-0.248022	3.092860	0.359639	1.101690	-0.647066	0.222602	-1.367945	-0.598389	-0.639404	0.270264	0.113454	-0.001836	-0.002601	-0.479222	-0.639093	0.355308	-0.485451	104.534217	-73.953861	2.307185
34291		11.687916	-0.248921	0.236232	3.600445	0.018401	1.312005	-0.476726	0.313580	-1.551859	-0.580322	-0.647949	0.263916	0.116859	-0.003391	0.002186	-0.485046	-0.639923	0.350749	-0.481875	102.956636	-73.133882	3.667446
34292		12.002117	-0.537855	0.706211	4.251574	-0.251250	1.443249	-0.267974	0.400546	-1.733260	-0.564209	-0.663330	0.264160	0.119982	-0.006409	0.006830	-0.490813	-0.641326	0.344888	-0.478388	101.416787	-72.205196	5.111434
34293		12.301374	-0.116297	0.860779	4.184924	-0.397559	1.780494	-0.085452	0.481627	-1.890340	-0.550537	-0.674316	0.260254	0.123016	-0.002322	0.008312	-0.496410	-0.643192	0.337839	-0.475128	99.942330	-71.193017	6.612958
34294		12.850290	1.246525	0.579593	3.259394	-0.352479	2.687933	0.099542	0.553797	-2.053092	-0.532227	-0.687256	0.260498	0.128637	0.011142	0.005446	-0.501821	-0.645567	0.329460	-0.472096	98.543377	-70.085072	8.175291
34295		13.538972	1.817195	0.193308	3.114098	0.044201	3.489031	0.207985	0.621707	-2.197811	-0.507080	-0.702637	0.256592	0.135584	0.016681	0.001530	-0.507323	-0.648198	0.320301	-0.468904	97.257903	-68.887745	9.675101
34296		14.099549	2.565654	-0.558982	2.702532	0.765285	4.251209	0.225425	0.659708	-2.327561	-0.491211	-0.713379	0.261475	0.141262	0.024020	-0.006028	-0.512959	-0.650911	0.310292	-0.465732	96.018613	-67.613372	11.182067
34297		14.001419	0.754091	-1.301229	4.327266	2.158211	3.412608	0.170199	0.661637	-2.406302	-0.462158	-0.719727	0.259521	0.140047	0.005867	-0.013470	-0.518989	-0.653488	0.300350	-0.461946	94.921419	-66.278119	12.480545
34298		14.324375	2.212666	-1.626902	3.368555	2.280723	4.193382	0.000851	0.651561	-2.500616	-0.446045	-0.730713	0.253174	0.143451	0.020334	-0.016736	-0.525580	-0.655681	0.290258	-0.457819	93.828142	-64.887210	13.712895
34299		14.985313	1.925037	-1.491564	4.242107	2.498655	4.548284	-0.148323	0.636272	-2.614388	-0.425781	-0.741455	0.255615	0.150039	0.017279	-0.015406	-0.532921	-0.657568	0.280336	-0.452782	92.813466	-63.413988	14.746021
34300		15.613578	1.301021	-1.423527	5.393908	2.893519	4.679384	-0.326782	0.640043	-2.696825	-0.403076	-0.754639	0.253906	0.156245	0.010880	-0.014754	-0.540842	-0.658948	0.270366	-0.447415	91.778586	-61.896281	15.722195
34301		16.607387	0.525242	-1.742728	6.750604	3.755543	5.000300	-0.585797	0.625529	-2.736770	-0.380371	-0.765381	0.251953	0.166069	0.002928	-0.017958	-0.549678	-0.659595	0.260947	-0.441242	90.731614	-60.337569	16.534651
34302		17.884831	-0.963475	-1.417910	9.045598	4.237377	5.120677	-0.883047	0.611958	-2.762255	-0.348877	-0.774170	0.239014	0.178648	-0.012167	-0.014676	-0.559312	-0.659325	0.252046	-0.434664	89.610339	-58.772364	17.264627
34303		19.047711	-0.592704	-0.802406	9.879351	3.964124	6.013531	-1.266461	0.649640	-2.779452	-0.328369	-0.787354	0.228516	0.190342	-0.008626	-0.008594	-0.570273	-0.657793	0.243795	-0.427389	88.335716	-57.174592	17.912228
34304		20.094579	-1.415606	-2.154025	11.099225	5.860114	6.089233	-1.974598	0.679621	-2.765481	-0.316650	-0.802734	0.208984	0.200648	-0.017148	-0.022063	-0.583270	-0.653948	0.236947	-0.419529	86.710676	-55.599441	18.524221
34305		20.948678	-3.927088	-3.693647	13.593049	8.202079	4.878261	-2.544324	0.664679	-2.915396	-0.291992	-0.811768	0.184814	0.208757	-0.042789	-0.037102	-0.598374	-0.648461	0.230775	-0.410111	84.888715	-53.906853	18.970142
34306		19.074371	-6.079918	-7.717243	13.710761	12.195196	1.304189	-2.617637	0.494010	-3.210928	-0.269043	-0.827148	0.165527	0.189534	-0.064856	-0.076810	-0.613718	-0.643147	0.224361	-0.399216	83.267120	-52.082709	19.133086
34307		19.219262	-4.885388	-7.178595	13.518111	11.556541	1.519843	-2.040232	0.332219	-3.532671	-0.237549	-0.838135	0.150391	0.191162	-0.052968	-0.071578	-0.627568	-0.640051	0.216015	-0.387079	82.181820	-50.052070	19.025582
34308		18.139386	-3.704707	-7.920760	12.299893	11.926657	0.766553	-1.380223	0.188484	-3.492964	-0.217285	-0.840332	0.139404	0.180629	-0.040752	-0.079105	-0.638714	-0.639033	0.207453	-0.375027	81.630994	-48.100363	18.683396
34309		17.671559	-2.857455	-7.288323	11.955463	11.162305	0.482984	-0.924840	0.135342	-3.377269	-0.192383	-0.851318	0.124268	0.176146	-0.031889	-0.072860	-0.648038	-0.639230	0.197941	-0.363664	81.327558	-46.176434	18.374634
34310		17.073802	-2.451694	-6.252436	11.864748	9.989928	-0.013460	0.026151	0.017329	-3.033825	-0.174561	-0.855469	0.128906	0.170335	-0.027095	-0.062543	-0.653315	-0.642302	0.189070	-0.353386	81.663123	-44.507649	17.872228
34311		17.003978	-1.813766	-1.074678	12.730488	4.928661	0.541373	0.292596	0.149069	-2.601703	-0.154297	-0.859863	0.126953	0.169777	-0.020332	-0.010902	-0.657052	-0.645398	0.179702	-0.345619	81.953434	-43.021290	17.695143
34312		16.093923	-1.251846	-0.074659	12.177693	3.728745	0.105643	-1.026649	0.252372	-2.530557	-0.138672	-0.862061	0.111572	0.160763	-0.014558	-0.000878	-0.664765	-0.643920	0.173487	-0.336685	81.496206	-41.624981	17.454058
34313		12.308058	-0.644760	-1.493929	8.997393	4.268760	-2.399680	-1.925584	0.343373	-2.229347	-0.129395	-0.871094	0.085205	0.122972	-0.007964	-0.015079	-0.674937	-0.638805	0.168399	-0.328680	80.398864	-40.333941	17.445181
34314		3.975865	7.519488	-2.234868	-2.424032	2.968592	-1.897603	-3.115957	0.112645	-1.772941	-0.120117	-0.880371	0.047852	0.040408	0.074478	-0.023535	-0.687603	-0.629607	0.168359	-0.320080	78.770963	-39.388718	17.171756
34315		10.631497	5.591022	-5.369836	3.430432	7.763272	0.240756	-3.540301	-0.179139	-1.749004	-0.104248	-0.880615	0.014648	0.106842	0.054017	-0.054570	-0.701257	-0.619072	0.169110	-0.310468	76.993393	-38.431881	16.772535
34316		11.096896	-5.397496	-3.965565	11.284934	6.047660	-7.794971	-2.391199	-0.003088	-0.882155	-0.106445	-0.885254	-0.005127	0.110729	-0.054933	-0.039001	-0.709836	-0.611576	0.171202	-0.304626	75.798352	-37.999547	16.443422
34317		6.428344	-5.775608	-4.162872	8.057865	5.044505	-11.090613	-1.714896	-0.124269	-0.083200	-0.120117	-0.874756	-0.027588	0.064285	-0.058137	-0.041091	-0.715069	-0.605728	0.174003	-0.302479	74.879083	-37.972836	16.340857
34318		4.648014	-7.267267	-1.114216	8.085367	1.442690	-12.676750	-1.580097	-0.078111	0.542675	-0.128906	-0.877197	-0.045166	0.046681	-0.072631	-0.010550	-0.718787	-0.599885	0.179426	-0.302141	74.021462	-38.348095	16.221306
34319		2.957101	-6.343803	1.001514	6.466140	-0.971184	-12.502715	-1.050997	-0.229779	0.996564	-0.139648	-0.883789	-0.056152	0.029875	-0.063236	0.010382	-0.720203	-0.595545	0.184832	-0.304090	73.392290	-38.934512	16.264805
34320		2.224496	-3.150367	1.523370	3.881004	-1.339297	-10.393766	-0.613865	-0.446975	1.314535	-0.162109	-0.881836	-0.056152	0.022417	-0.031310	0.015380	-0.719397	-0.592895	0.192167	-0.306621	73.119838	-39.797475	16.117848
34321		2.289605	-1.648795	0.841956	2.861524	-0.514589	-9.347523	-0.367050	-0.667717	1.630801	-0.180176	-0.875488	-0.065186	0.023001	-0.016285	0.008526	-0.717309	-0.591007	0.199967	-0.310150	72.988967	-40.804262	15.995309
34322		2.533585	-2.163427	-0.370177	3.288588	0.647325	-9.765429	-0.016755	-0.810806	2.005765	-0.200439	-0.866943	-0.067871	0.025566	-0.021379	-0.003597	-0.713163	-0.590223	0.209508	-0.314868	73.114936	-42.106504	15.782875
34323		2.720752	-3.382423	-1.506227	4.196222	1.671174	-10.655108	0.537743	-0.878227	2.431962	-0.231689	-0.862549	-0.059082	0.027682	-0.033449	-0.015032	-0.706760	-0.590923	0.218960	-0.321492	73.498897	-43.587244	15.671628
34324		3.191810	-3.422936	-1.757739	4.544008	2.033964	-10.267234	1.107167	-0.895617	2.900806	-0.265381	-0.858154	-0.046143	0.032488	-0.033663	-0.017620	-0.697506	-0.593051	0.229515	-0.330301	74.198107	-45.393545	15.574645
34325		3.798243	-2.358434	-1.524948	4.165272	2.036979	-8.911003	1.402351	-0.925103	3.318428	-0.296875	-0.845215	-0.033203	0.038436	-0.022842	-0.015234	-0.686680	-0.595557	0.240234	-0.340691	75.008244	-47.368900	15.565828
34326		3.994109	-1.607909	-1.340036	3.675483	1.948226	-8.073036	1.574759	-0.988567	3.695360	-0.335205	-0.834229	-0.018311	0.040294	-0.015232	-0.013324	-0.674100	-0.598083	0.252504	-0.352318	75.965983	-49.628088	15.486720
34327		4.345724	-1.200355	-1.383541	3.476425	2.064417	-7.385888	1.602948	-1.077013	4.035624	-0.367188	-0.814453	-0.003418	0.043760	-0.011012	-0.013691	-0.660664	-0.600136	0.265323	-0.364642	76.956592	-52.022122	15.394039
34328		4.999327	-1.165628	-1.361642	3.702439	2.126448	-6.655013	1.557209	-1.155309	4.366113	-0.410156	-0.796875	0.018311	0.050308	-0.010455	-0.013411	-0.646041	-0.601396	0.279926	-0.377618	78.029261	-54.674793	15.160846
34329		5.966852	-0.842778	-1.388702	3.789946	2.253430	-5.477672	1.404813	-1.235888	4.704539	-0.453125	-0.775146	0.030762	0.059928	-0.006924	-0.013569	-0.630992	-0.601488	0.295331	-0.390950	79.070734	-57.458860	14.876219
34330		7.028912	-0.307900	-1.244396	3.645564	2.156831	-4.059861	1.144026	-1.332194	4.988861	-0.496338	-0.749023	0.036621	0.070416	-0.001254	-0.011986	-0.615335	-0.600065	0.312799	-0.404280	80.167126	-60.474941	14.349633
34331		8.116993	0.218520	-0.962851	3.403929	1.865932	-2.617189	0.788758	-1.436622	5.237781	-0.532959	-0.716064	0.055664	0.081141	0.004347	-0.009031	-0.599896	-0.596975	0.331229	-0.417172	81.235958	-63.571279	13.651699
34332		9.421663	0.462665	-0.543443	3.368378	1.404227	-1.098597	0.345283	-1.513218	5.455102	-0.573975	-0.685547	0.056885	0.094081	0.007203	-0.004711	-0.584454	-0.591800	0.351794	-0.429450	82.393872	-66.854843	12.579020
34333		10.515567	0.770267	-0.155971	3.037696	0.898939	0.243533	-0.150942	-1.549291	5.633186	-0.615234	-0.653076	0.055908	0.104891	0.010659	-0.000754	-0.569823	-0.584522	0.373171	-0.440884	83.542446	-70.168769	11.252459
34334		11.355153	0.853323	0.210440	2.675582	0.359541	1.250109	-0.575044	-1.598419	5.747839	-0.649902	-0.609131	0.063477	0.113222	0.011798	0.002979	-0.555281	-0.575302	0.396169	-0.451376	85.091359	-73.602345	9.264490
34335		12.308916	0.576053	0.479619	2.570124	-0.085317	2.245970	-0.783206	-1.691003	5.850127	-0.687012	-0.563232	0.075439	0.122804	0.009377	0.005803	-0.540713	-0.565082	0.419278	-0.460996	87.506958	-77.012652	6.304743
34336		13.589686	0.433823	0.748459	2.255541	-0.592720	3.601062	-0.802347	-1.802248	5.961167	-0.721924	-0.519531	0.072021	0.135612	0.008417	0.008679	-0.524833	-0.554166	0.443083	-0.470243	92.375840	-80.495969	0.872551
34337		15.256224	0.255006	0.901580	1.864262	-1.044596	5.319550	-0.733898	-1.895235	6.050422	-0.750244	-0.471436	0.079590	0.152297	0.007197	0.010439	-0.508167	-0.543007	0.466327	-0.479009	103.187477	-83.801445	-10.460419
34338		17.034201	-0.467621	0.968512	1.786345	-1.479958	7.094058	-0.577254	-1.989482	6.122484	-0.774170	-0.416504	0.089111	0.170271	0.000569	0.011383	-0.489733	-0.531637	0.489455	-0.487808	135.789979	-86.447941	-43.482141
34339		19.152539	-0.630481	0.769364	0.934134	-1.781984	9.256391	-0.246186	-2.078421	6.203640	-0.793457	-0.368164	0.105713	0.191504	-0.000353	0.009687	-0.469901	-0.520633	0.511378	-0.496615	-164.042437	-86.115632	-103.895339
34340		21.421504	-0.067740	0.577904	-0.943785	-2.238483	11.474637	0.179799	-2.130108	6.275444	-0.813232	-0.306641	0.121582	0.214018	0.006034	0.008063	-0.447624	-0.509951	0.532144	-0.506365	-136.380091	-83.141221	-131.521983
34341		23.578617	1.050988	0.330368	-3.618314	-2.748375	13.345800	0.636637	-2.153869	6.261618	-0.821777	-0.253906	0.135742	0.235249	0.017866	0.005888	-0.424162	-0.499882	0.551029	-0.516306	-126.443905	-79.620181	-141.197318
34342		25.168502	2.588212	-0.192954	-6.864212	-3.050267	14.343795	1.164918	-2.198994	6.177436	-0.830322	-0.194336	0.156494	0.250725	0.033637	0.001012	-0.398464	-0.490713	0.567855	-0.527227	-121.345189	-75.923877	-145.674419
34343		26.554351	5.380569	1.560866	-11.200913	-5.723348	14.229880	1.781583	-2.142368	6.090606	-0.836426	-0.143799	0.168457	0.263553	0.061694	0.018965	-0.371724	-0.482336	0.582058	-0.538871	-117.999785	-72.281564	-148.089646
34344		25.463245	4.206290	3.860689	-10.896102	-8.396140	12.358376	2.367548	-1.863324	5.844316	-0.831055	-0.095215	0.187012	0.252890	0.048991	0.041521	-0.344198	-0.474490	0.592894	-0.552144	-115.048614	-68.767764	-149.729855
34345		24.559693	5.781883	2.964920	-13.264608	-8.041131	10.302575	3.430134	-1.633597	5.406266	-0.828125	-0.049072	0.192627	0.243666	0.063880	0.032706	-0.316097	-0.468611	0.598745	-0.567442	-112.171965	-65.552727	-150.717509
34346		22.850681	11.141569	-0.050273	-18.839875	-5.901253	6.198223	4.019291	-1.518921	4.775684	-0.820557	-0.004883	0.204834	0.225744	0.116785	0.003530	-0.288003	-0.464852	0.600393	-0.583519	-109.477841	-62.664175	-151.078480
34347		20.652204	25.638796	-1.045692	-31.493739	-6.999783	-3.194351	3.492296	-1.620328	4.356978	-0.817383	0.030273	0.221680	0.200922	0.260917	-0.004284	-0.262179	-0.461324	0.602418	-0.596267	-107.632631	-60.000296	-150.900374
34348		16.291813	34.949995	0.998284	-37.114360	-9.939163	-13.199756	1.415593	-1.523516	3.352274	-0.809082	0.052490	0.223389	0.156936	0.352076	0.013680	-0.244348	-0.457537	0.607817	-0.601260	-107.253755	-57.912091	-150.403461
34349		8.833209	34.878017	2.343536	-33.056919	-9.416724	-20.699544	-0.302913	-1.029992	1.746278	-0.809326	0.056885	0.225342	0.085162	0.349568	0.023350	-0.236635	-0.454924	0.613956	-0.600088	-107.834130	-56.778202	-149.920030
34350		11.328857	23.522904	2.045315	-24.705125	-8.109845	-12.933391	-0.698759	-0.217198	0.114483	-0.813477	0.050293	0.223389	0.113132	0.235364	0.019754	-0.237862	-0.454271	0.616827	-0.597147	-108.450208	-56.717187	-149.764533
34351		16.598697	16.999809	1.175432	-21.925633	-7.772146	-4.838483	-0.637696	0.500724	-1.179716	-0.811035	0.041260	0.219238	0.167014	0.169050	0.010797	-0.244358	-0.455637	0.615447	-0.594903	-108.727737	-57.447356	-149.868915
34352		14.755560	14.827748	0.308120	-19.381995	-6.031576	-4.750442	-0.153954	0.698123	-1.976032	-0.805908	0.023682	0.212891	0.149020	0.146812	0.002449	-0.253606	-0.459300	0.610819	-0.592982	-108.884665	-58.707581	-149.919927
34353		9.324666	15.614868	1.160317	-17.364887	-5.519236	-9.493130	0.286735	0.663367	-2.395972	-0.809814	0.008301	0.208984	0.095146	0.155000	0.011512	-0.262044	-0.464971	0.603585	-0.592301	-108.862559	-60.127610	-149.754522
34354		8.493925	13.976961	1.079619	-15.570981	-5.047155	-8.963318	0.453142	0.541459	-2.722329	-0.804688	-0.013672	0.209473	0.086860	0.138571	0.010878	-0.271687	-0.472004	0.595490	-0.590584	-109.104629	-61.774154	-149.331076
34355		10.671336	8.793861	-0.482484	-12.133312	-3.383826	-4.088901	0.549391	0.333449	-2.870131	-0.811035	-0.029053	0.209717	0.107953	0.086408	-0.004765	-0.279817	-0.480253	0.586585	-0.589048	-109.489088	-63.387553	-148.543161
34356		12.558955	0.155860	-1.023357	-5.026543	-1.931427	1.580021	0.578656	0.216186	-2.590037	-0.810547	-0.046631	0.212402	0.125585	-0.000038	-0.010368	-0.287744	-0.487865	0.578676	-0.586792	-110.096876	-64.900353	-147.656701
34357		14.536259	-5.542761	-1.348906	-0.339471	-0.982355	5.767686	1.297999	0.325650	-2.829300	-0.807617	-0.066162	0.212891	0.144537	-0.057386	-0.014093	-0.293774	-0.496896	0.567435	-0.587204	-110.200804	-66.484739	-146.726430
34358		14.967736	-14.468707	1.748624	8.805483	-2.110842	9.013229	1.507362	0.458176	-2.294172	-0.813965	-0.075195	0.206543	0.148042	-0.146516	0.016046	-0.298985	-0.504166	0.556889	-0.588472	-109.969852	-67.877073	-146.174094
34359		16.579764	-14.662333	4.253737	9.506483	-4.333596	10.156721	1.871886	0.746175	-2.181549	-0.811523	-0.083984	0.206787	0.164336	-0.148807	0.040536	-0.302719	-0.510781	0.544713	-0.592243	-108.929696	-69.196286	-146.139058
34360		16.928199	-0.702516	3.994934	-3.012837	-6.888960	5.886297	2.589842	0.520180	-2.489161	-0.811035	-0.101318	0.211670	0.169276	-0.009645	0.039395	-0.305354	-0.519978	0.529733	-0.596461	-107.973825	-70.700584	-145.618543
34361		18.807669	10.759450	2.534774	-13.941537	-8.695728	4.536181	2.653790	0.203774	-2.993553	-0.808350	-0.114502	0.209717	0.189682	0.104416	0.026555	-0.307849	-0.531240	0.513627	-0.599333	-107.692619	-72.367469	-144.311778
34362		15.541418	10.992082	0.584555	-13.446713	-6.474576	2.016599	2.249352	-0.023968	-3.186014	-0.805420	-0.140869	0.219238	0.157137	0.107352	0.007081	-0.311685	-0.543077	0.498068	-0.599873	-108.369154	-74.161623	-142.264232
34363		12.427105	5.313549	-1.404441	-7.854115	-2.418414	1.008077	1.915234	-0.145284	-3.122025	-0.802734	-0.156006	0.235107	0.125092	0.051318	-0.013456	-0.315424	-0.554175	0.483998	-0.599286	-109.743028	-75.823945	-139.705748
34364		9.301318	2.443979	-1.825780	-4.494515	-0.575234	-1.136115	1.717099	-0.234439	-3.140418	-0.802002	-0.179932	0.240234	0.093404	0.023130	-0.017946	-0.319883	-0.565316	0.470168	-0.597525	-112.096048	-77.521465	-136.289447
34365		7.141126	4.851052	-4.677778	-7.231258	1.499640	-3.342360	1.865286	-0.331346	-3.086986	-0.799316	-0.195313	0.247314	0.072230	0.047833	-0.046210	-0.322991	-0.576448	0.456331	-0.595942	-115.295774	-79.064275	-131.930508
34366		6.837638	6.828520	-5.609122	-9.216460	1.567939	-3.694175	1.548982	-0.366247	-2.904864	-0.791992	-0.217041	0.254395	0.069465	0.067713	-0.055439	-0.326804	-0.586754	0.443769	-0.593285	-119.948991	-80.496846	-126.340578
34367		6.983525	4.688657	-4.643768	-6.760234	1.458854	-3.142945	0.753509	-0.086818	-2.588939	-0.789063	-0.236816	0.261719	0.070456	0.046152	-0.046232	-0.332041	-0.593930	0.434048	-0.590422	-124.866405	-81.722422	-120.926579
34368		7.477140	3.443545	-3.770562	-5.155211	1.136749	-2.456613	0.581271	0.085077	-2.365762	-0.786377	-0.254150	0.264160	0.075157	0.033657	-0.037639	-0.338091	-0.599837	0.425280	-0.587389	-130.865651	-82.858954	-114.615303
34369		10.219978	2.852451	-1.112142	-3.484471	-1.268763	0.190590	0.224926	0.185936	-2.199616	-0.785889	-0.269775	0.262451	0.102495	0.027411	-0.011185	-0.344242	-0.604308	0.417690	-0.584675	-137.618914	-83.836665	-107.686695
34370		12.861406	5.567597	1.707402	-4.633455	-5.090351	2.513745	-0.388338	0.151003	-2.175223	-0.778564	-0.291504	0.267334	0.129222	0.054306	0.016870	-0.352703	-0.607791	0.412175	-0.579916	-147.893907	-84.676109	-97.668819
34371		13.113080	5.072885	2.186887	-3.754091	-5.211573	2.884099	-0.595577	-0.014693	-2.200913	-0.777832	-0.311279	0.272461	0.131677	0.049347	0.021730	-0.360832	-0.611276	0.407220	-0.574729	-161.160156	-85.213422	-84.693743
34372		11.029011	2.912627	1.729595	-1.750824	-3.643606	0.993257	0.049857	-0.232385	-1.976589	-0.770752	-0.326416	0.274902	0.110551	0.028030	0.017431	-0.366381	-0.616155	0.401440	-0.570056	-175.661267	-85.305803	-70.167805
34373		10.203060	1.219657	1.107592	-0.286457	-2.274739	0.264882	0.837388	-0.320807	-1.667520	-0.770508	-0.337158	0.290771	0.102109	0.011298	0.011288	-0.367885	-0.621920	0.394493	-0.567671	173.472650	-85.102535	-58.782164
34374		10.395278	1.682821	-0.153773	-1.045505	-1.309904	0.584734	1.124859	-0.252102	-1.437641	-0.770020	-0.348145	0.293213	0.104072	0.016088	-0.001315	-0.368362	-0.627661	0.387154	-0.566094	164.643824	-84.782309	-49.302459
34375		11.012894	3.010514	-0.686643	-2.286060	-1.423456	1.303265	0.847223	-0.162440	-1.283820	-0.758789	-0.354492	0.308838	0.110325	0.029426	-0.006651	-0.369003	-0.632145	0.381022	-0.564846	158.054237	-84.458445	-42.196078
34376		10.434019	3.058287	0.334747	-1.784186	-2.300276	0.668625	0.599830	-0.151108	-1.146940	-0.760742	-0.363281	0.311279	0.104511	0.029973	0.003517	-0.370416	-0.635996	0.375824	-0.563079	152.345859	-84.072743	-36.137723
34377		10.677920	3.176530	1.087422	-1.418127	-3.018626	0.872179	0.410938	-0.145823	-1.031448	-0.758057	-0.376465	0.316162	0.106933	0.031192	0.011017	-0.371725	-0.639093	0.371659	-0.561471	148.185255	-83.707229	-31.716431
34378		11.072987	3.236666	0.863069	-1.412668	-2.838877	1.312781	0.183117	-0.143556	-0.936004	-0.755859	-0.382813	0.325195	0.110873	0.031840	0.008740	-0.373797	-0.641722	0.368177	-0.559387	144.389483	-83.309174	-27.800104
34379		10.485403	3.351095	-0.567256	-2.111496	-1.554787	0.893327	-0.165467	-0.142510	-0.852913	-0.744141	-0.395996	0.329834	0.105000	0.033059	-0.005625	-0.376440	-0.643373	0.366173	-0.557029	141.476252	-82.949915	-24.961153
34380		10.443316	4.451420	-2.367328	-3.794051	-0.389151	1.138793	-0.697203	-0.101887	-0.821895	-0.739258	-0.409180	0.325928	0.104627	0.044002	-0.023774	-0.381039	-0.643994	0.365360	-0.553708	138.217861	-82.569606	-22.079551
34381		9.733131	3.176759	-2.291226	-2.625150	0.211060	0.343017	-1.241277	-0.023670	-0.774551	-0.739014	-0.417725	0.328369	0.097456	0.031247	-0.023096	-0.387119	-0.643090	0.366345	-0.549877	135.160038	-82.255913	-19.712059
34382		9.402504	1.867228	-1.893215	-1.239642	0.506874	-0.133665	-1.442165	0.002903	-0.684586	-0.738770	-0.428955	0.324219	0.094088	0.018213	-0.019066	-0.393920	-0.641658	0.367871	-0.545686	132.130597	-81.935550	-17.498404
34383		9.864725	0.311048	-1.645695	0.398558	0.965660	0.138492	-1.359554	0.022703	-0.580719	-0.731689	-0.441895	0.322266	0.098654	0.002712	-0.016487	-0.399890	-0.639967	0.369669	-0.542103	129.773854	-81.693493	-15.904240
34384		10.421742	1.100208	-1.960769	-0.289639	0.955440	0.801948	-1.180383	0.034265	-0.518939	-0.735840	-0.446533	0.317871	0.104242	0.010616	-0.019689	-0.405418	-0.638573	0.370966	-0.538745	127.556962	-81.434979	-14.362770
34385		10.686745	2.101385	-2.144360	-1.174324	0.768778	1.198672	-1.043631	0.085030	-0.471487	-0.735352	-0.464111	0.311768	0.106907	0.020649	-0.021597	-0.410164	-0.637090	0.372100	-0.536119	125.650096	-81.247929	-13.038621
34386		9.824164	1.519583	-2.413860	-0.808937	1.322865	0.298955	-1.017644	0.017323	-0.422195	-0.730713	-0.470703	0.309814	0.098271	0.014865	-0.024223	-0.414860	-0.635827	0.373337	-0.533137	123.992987	-81.015540	-11.974176
34387		9.824968	2.055513	-1.943257	-1.074738	0.724181	0.328888	-0.973444	-0.033396	-0.412897	-0.728271	-0.475098	0.307617	0.098295	0.020257	-0.019515	-0.418981	-0.634656	0.374689	-0.530353	122.726893	-80.808219	-11.256670
34388		9.470649	1.194145	-1.210342	-0.019290	0.402217	-0.199064	-0.927034	-0.073379	-0.412897	-0.725586	-0.492676	0.308105	0.094735	0.011690	-0.012123	-0.423184	-0.633750	0.375948	-0.527199	121.549906	-80.545292	-10.632647
34389		9.949169	2.099780	-0.884059	-0.618990	-0.219941	0.372836	-0.902404	-0.130410	-0.397859	-0.718750	-0.497070	0.305908	0.099539	0.020760	-0.008870	-0.426836	-0.632922	0.377344	-0.524245	120.717611	-80.312338	-10.312795
34390		10.800952	1.896230	-0.299778	-0.040451	-0.700896	1.135055	-0.916189	-0.154058	-0.375812	-0.714111	-0.503662	0.301758	0.108047	0.018746	-0.003001	-0.430720	-0.632138	0.378850	-0.520917	119.924007	-80.043473	-10.070022
34391		11.149841	0.203414	1.038437	2.071793	-1.381179	1.106955	-0.812155	-0.109041	-0.378695	-0.706787	-0.519043	0.295654	0.111496	0.001865	0.010437	-0.434056	-0.631382	0.380005	-0.518216	119.166096	-79.824698	-9.772724
34392		10.404578	0.890731	0.108997	1.043312	-0.707332	0.554163	-0.736740	-0.115629	-0.362781	-0.702148	-0.525391	0.302246	0.104061	0.008723	0.001118	-0.437339	-0.630836	0.380918	-0.515443	118.423313	-79.577660	-9.464716
34393		10.310675	1.513474	-0.086883	0.423518	-0.713443	0.575750	-0.624807	-0.100629	-0.415792	-0.695313	-0.534180	0.300293	0.103138	0.014918	-0.000864	-0.440181	-0.630515	0.381440	-0.513026	117.739600	-79.341121	-9.133259
34394		10.159333	1.523409	-0.046649	0.448884	-0.733982	0.424234	-0.513953	-0.076629	-0.477092	-0.690674	-0.536377	0.298340	0.101629	0.014990	-0.000466	-0.443074	-0.630555	0.381285	-0.510596	116.903352	-79.049553	-8.591506
34395		9.930469	1.129643	-0.684599	0.627396	0.017972	0.185551	-0.401781	-0.048519	-0.519526	-0.687988	-0.551758	0.294189	0.099335	0.011025	-0.006844	-0.445567	-0.630774	0.380783	-0.508526	116.125275	-78.771564	-8.033070
34396		9.860330	2.002730	-1.166515	-0.286941	0.225627	0.309774	-0.370155	-0.041151	-0.573979	-0.674561	-0.556152	0.290039	0.098663	0.019723	-0.011682	-0.448280	-0.631207	0.379853	-0.506294	115.230763	-78.439770	-7.342104
34397		9.861562	2.251334	-1.434642	-0.536582	0.427033	0.380761	-0.420979	-0.049553	-0.643459	-0.671875	-0.569336	0.290283	0.098691	0.022166	-0.014369	-0.451134	-0.631605	0.379002	-0.503896	114.371874	-78.093964	-6.711102
34398		9.812156	2.153532	-1.571777	-0.420309	0.618471	0.327672	-0.526338	-0.041528	-0.724391	-0.660645	-0.575928	0.288330	0.098202	0.021138	-0.015753	-0.454700	-0.631943	0.378013	-0.501001	113.328361	-77.680582	-5.960152
34399		9.981654	2.133047	-1.510852	-0.266414	0.596899	0.484786	-0.642721	-0.026676	-0.831703	-0.653564	-0.584473	0.286377	0.099906	0.020866	-0.015163	-0.458753	-0.632110	0.377056	-0.497807	112.197098	-77.236022	-5.178363
34400		10.311825	0.586501	-1.142784	1.450713	0.733233	0.450867	-0.730533	0.029327	-0.936507	-0.637451	-0.599854	0.284668	0.103142	0.005340	-0.011463	-0.463599	-0.632158	0.375764	-0.494220	110.818953	-76.719698	-4.204998
34401		10.582977	0.020383	-1.061825	2.167412	0.855282	0.565022	-0.762263	0.101103	-1.078468	-0.628174	-0.608643	0.275879	0.105823	-0.000407	-0.010671	-0.468848	-0.632152	0.374001	-0.490600	109.280316	-76.159848	-3.071395
34402		10.828438	0.124263	-1.045460	2.257559	0.860749	0.795057	-0.685182	0.183330	-1.272134	-0.612061	-0.626221	0.271973	0.108280	0.000518	-0.010556	-0.474597	-0.632492	0.371155	-0.486781	107.553123	-75.481763	-1.704379
34403		11.179982	-0.533106	-0.797649	3.160451	0.866400	0.919085	-0.521550	0.282491	-1.454098	-0.596191	-0.632813	0.267822	0.111746	-0.006165	-0.008119	-0.480290	-0.633245	0.367149	-0.483244	105.774628	-74.730758	-0.173183
34404		11.419044	-0.145849	-0.501299	3.096919	0.557816	1.176491	-0.371618	0.348342	-1.619069	-0.580322	-0.645752	0.268311	0.114165	-0.002392	-0.005208	-0.486097	-0.634487	0.362005	-0.479675	104.007010	-73.870102	1.436132
34405		11.637112	0.480077	-0.399525	2.776460	0.390793	1.498685	-0.271472	0.419762	-1.793261	-0.564209	-0.663330	0.261963	0.116399	0.003752	-0.004245	-0.491993	-0.636038	0.355936	-0.476139	102.283507	-72.924970	3.072368
34406		11.997696	0.977579	-0.199473	2.671306	0.185662	1.924642	-0.164339	0.482619	-1.950353	-0.545898	-0.674072	0.262451	0.120059	0.008603	-0.002292	-0.498051	-0.637946	0.348836	-0.472529	100.617468	-71.873573	4.721717
34407		12.713412	1.465773	0.018911	2.721785	-0.005255	2.691918	-0.033963	0.553509	-2.093109	-0.520996	-0.687256	0.258301	0.127278	0.013326	-0.000165	-0.504036	-0.640166	0.340846	-0.468999	99.069184	-70.746886	6.335692
34408		13.166485	1.177238	-0.236484	3.310499	0.479967	2.977967	0.077734	0.603961	-2.197433	-0.502930	-0.697998	0.260986	0.131776	0.010326	-0.002758	-0.509960	-0.642667	0.331978	-0.465522	97.639587	-69.544168	7.909474
34409		13.378934	1.594277	-0.928824	3.084071	1.204819	3.280399	0.126317	0.618921	-2.278733	-0.487061	-0.708740	0.265625	0.133930	0.014423	-0.009693	-0.515845	-0.645285	0.322765	-0.461881	96.386179	-68.292342	9.330402
34410		13.748928	2.102970	-1.059842	3.002724	1.387669	3.738226	0.079632	0.636971	-2.367299	-0.459961	-0.717529	0.266113	0.137691	0.019405	-0.011029	-0.522042	-0.647803	0.313168	-0.457984	95.199512	-66.975923	10.672347
34411		13.964909	3.057949	-1.451976	2.430732	1.710322	4.245522	-0.007674	0.658863	-2.477967	-0.437256	-0.730469	0.264160	0.139965	0.028846	-0.014982	-0.528726	-0.650100	0.303419	-0.453604	94.077806	-65.592083	11.892756
34412		14.738875	1.027986	-1.109046	4.918076	2.157660	3.995479	-0.132195	0.660277	-2.556218	-0.419189	-0.737061	0.260010	0.147466	0.008388	-0.011583	-0.535897	-0.652077	0.293562	-0.448810	92.993446	-64.152290	13.014432
34413		15.575729	1.685389	-1.346214	4.967509	2.504701	4.894147	-0.302272	0.669965	-2.641576	-0.401123	-0.747803	0.262451	0.155915	0.014774	-0.014008	-0.543739	-0.653579	0.283811	-0.443434	91.924968	-62.657422	14.015694
34414		16.832718	0.719994	-1.359737	6.700599	3.118168	5.388222	-0.536978	0.668523	-2.709933	-0.374023	-0.756592	0.251709	0.168357	0.004881	-0.014175	-0.552364	-0.654412	0.274253	-0.437520	90.823292	-61.117490	14.923579
34415		18.186898	-0.543664	-1.623751	8.701713	4.072053	5.723424	-0.841522	0.678592	-2.750504	-0.355713	-0.771729	0.250000	0.181714	-0.008006	-0.016824	-0.562000	-0.654303	0.265196	-0.430946	89.647601	-59.543987	15.721784
34416		19.229164	-0.728711	-1.387947	9.821680	4.266877	6.234725	-1.172373	0.696415	-2.804472	-0.324219	-0.782715	0.237061	0.192114	-0.010066	-0.014495	-0.572673	-0.653134	0.256552	-0.423844	88.359619	-57.940091	16.451061
34417		19.590570	-1.936686	-2.226483	11.192524	5.609337	5.540857	-1.799287	0.689719	-2.786348	-0.319092	-0.798340	0.224365	0.195531	-0.022296	-0.022748	-0.585251	-0.650000	0.249259	-0.415753	86.821670	-56.329284	17.054712
34418		21.137389	-3.888431	-3.973093	13.608283	8.103430	5.247148	-2.379144	0.666759	-2.957244	-0.287598	-0.804932	0.195801	0.210631	-0.042477	-0.039943	-0.599755	-0.645197	0.242643	-0.406373	85.075399	-54.630324	17.529102
34419		19.824325	-6.414039	-7.864440	14.506923	12.158970	1.919275	-2.259450	0.518798	-3.291177	-0.271484	-0.822510	0.183105	0.196939	-0.068275	-0.078401	-0.614234	-0.641229	0.235018	-0.395358	83.630947	-52.725432	17.715112
34420		19.306946	-4.872514	-7.527748	13.586325	11.565456	1.795953	-1.579731	0.319407	-3.580223	-0.235596	-0.829102	0.172363	0.192029	-0.052763	-0.075179	-0.626515	-0.639818	0.225863	-0.383534	82.813870	-50.696023	17.602412
34421		17.803979	-3.794297	-7.879844	12.248904	11.544906	0.680590	-0.780775	0.172213	-3.502287	-0.213135	-0.835693	0.161377	0.177268	-0.041359	-0.078794	-0.635818	-0.640893	0.215586	-0.372175	82.552592	-48.694037	17.358564
34422		17.070546	-2.328476	-6.319298	11.408748	9.768625	0.729785	-0.178342	0.086891	-3.387342	-0.192871	-0.842041	0.163818	0.170250	-0.026227	-0.063244	-0.642568	-0.643741	0.205201	-0.361380	82.700076	-46.801122	17.008060
34423		16.600202	-0.913856	-3.838998	10.929984	7.172825	1.151101	0.275174	0.008521	-3.092086	-0.168213	-0.848389	0.164063	0.165833	-0.011651	-0.038412	-0.647197	-0.647705	0.194705	-0.351717	83.079428	-45.043439	16.699710
34424		16.911373	-1.445261	-1.099273	12.385607	4.642574	0.879230	0.021862	0.155898	-2.724767	-0.156738	-0.854980	0.157715	0.168887	-0.016753	-0.011126	-0.651862	-0.650137	0.185883	-0.343286	83.224548	-43.527776	16.494083
34425		15.903400	-0.196181	-1.185321	11.092771	4.478272	0.734400	-1.066945	0.231747	-2.671812	-0.132080	-0.857422	0.140137	0.158974	-0.004150	-0.012019	-0.660060	-0.648677	0.178261	-0.334308	82.665412	-41.993210	16.417384
34426		11.213229	-0.774791	-1.595858	8.282337	3.968790	-3.139744	-1.805944	0.295847	-2.313061	-0.127197	-0.866455	0.113770	0.112008	-0.009188	-0.016046	-0.669793	-0.644260	0.173329	-0.325981	81.673571	-40.709383	16.346347
34427		4.387816	7.863825	-3.955288	-2.638659	4.588206	-1.523330	-2.838590	-0.087106	-1.961445	-0.111328	-0.875244	0.087646	0.044660	0.077631	-0.040640	-0.681954	-0.636500	0.171910	-0.316629	80.237967	-39.608442	16.050663
34428		12.028909	0.520963	-4.178408	7.984502	6.630299	-2.416663	-3.332492	-0.115771	-1.839470	-0.109131	-0.873535	0.047607	0.120350	0.003407	-0.041781	-0.695076	-0.626865	0.172301	-0.306957	78.576821	-38.635562	15.648431
34429		9.761921	-6.448644	-3.715701	10.994441	5.436124	-9.310736	-2.371667	-0.031815	-1.041836	-0.104492	-0.878174	0.027832	0.097286	-0.065428	-0.036369	-0.704019	-0.619516	0.172778	-0.301173	77.330733	-38.056678	15.466873
34430		6.010491	-6.672119	-2.873446	8.475254	3.653407	-11.741582	-1.906882	-0.086539	-0.296728	-0.111084	-0.878418	0.008057	0.060018	-0.067080	-0.028070	-0.710076	-0.613253	0.175680	-0.298077	76.346641	-37.958094	15.283990
34431		4.736849	-7.164197	-0.301426	8.156058	0.722309	-12.422308	-1.530246	-0.133129	0.314158	-0.117676	-0.883301	-0.009521	0.047483	-0.071588	-0.002435	-0.714157	-0.607724	0.179398	-0.297436	75.493629	-38.152377	15.245701
34432		3.715857	-4.605306	0.861767	5.874316	-0.486497	-10.819836	-1.005947	-0.305409	0.730006	-0.130859	-0.881104	-0.018555	0.037313	-0.045873	0.008906	-0.715627	-0.603992	0.184804	-0.298192	75.001438	-38.661072	15.109999
34433		2.623149	-2.230963	1.061866	3.525991	-0.718283	-9.620531	-0.733474	-0.486425	1.026776	-0.153320	-0.879395	-0.029785	0.026319	-0.022135	0.010764	-0.715841	-0.601130	0.190742	-0.299718	74.674459	-39.302979	14.961981
34434		2.729965	-2.067249	0.253828	3.422165	0.085873	-9.544720	-0.494652	-0.655963	1.412527	-0.162354	-0.875000	-0.036377	0.027436	-0.020473	0.002679	-0.714333	-0.599022	0.198584	-0.302431	74.539806	-40.243469	14.736134
34435		2.721365	-3.066985	-0.822774	4.006393	1.023369	-10.437289	-0.103283	-0.754551	1.852795	-0.186768	-0.877441	-0.031982	0.027527	-0.030420	-0.008109	-0.711051	-0.597924	0.206982	-0.306678	74.596680	-41.383061	14.558837
34436		2.895233	-3.653457	-1.647005	4.492552	1.809706	-10.804364	0.406129	-0.823767	2.317375	-0.209229	-0.868652	-0.034668	0.029440	-0.036162	-0.016423	-0.705136	-0.598214	0.216670	-0.313014	74.948661	-42.848522	14.390066
34437		3.282271	-3.082264	-1.897150	4.358171	2.195466	-10.052135	0.821552	-0.875909	2.729097	-0.240723	-0.860107	-0.026123	0.033322	-0.030292	-0.018951	-0.697375	-0.599457	0.226619	-0.320878	75.502102	-44.489768	14.270567
34438		3.598468	-2.498678	-1.817722	4.143963	2.238687	-9.255869	1.198132	-0.945629	3.141188	-0.276855	-0.851318	-0.017578	0.036456	-0.024308	-0.018153	-0.687313	-0.601513	0.237835	-0.330482	76.300811	-46.428300	14.121623
34439		4.030062	-2.012259	-1.794092	4.023779	2.332533	-8.443462	1.468017	-1.027873	3.542390	-0.312744	-0.840576	-0.004639	0.040739	-0.019272	-0.017876	-0.675682	-0.603924	0.249556	-0.341251	77.261281	-48.540186	13.960089
34440		4.670215	-1.830181	-1.709344	4.215429	2.360665	-7.636595	1.564079	-1.089567	3.908409	-0.346680	-0.825195	0.016846	0.047139	-0.017250	-0.016975	-0.662504	-0.606039	0.262774	-0.353206	78.346327	-50.922282	13.718902
34441		5.354833	-1.507379	-1.677446	4.256156	2.422985	-6.687245	1.564138	-1.163718	4.275335	-0.387451	-0.809814	0.034180	0.053949	-0.013793	-0.016573	-0.648497	-0.607490	0.276756	-0.365806	79.479061	-53.455780	13.419978
34442		6.119292	-0.729583	-1.544342	3.893161	2.345413	-5.374550	1.438634	-1.241346	4.602398	-0.430176	-0.794678	0.042480	0.061432	-0.005774	-0.015108	-0.633509	-0.607837	0.292509	-0.378998	80.685873	-56.237854	12.956256
34443		7.110793	-0.086274	-1.379533	3.656089	2.206042	-3.962165	1.155909	-1.320346	4.874977	-0.473633	-0.763916	0.054688	0.071189	0.000950	-0.013324	-0.618609	-0.606665	0.309225	-0.391996	81.860729	-59.114958	12.350279
34444		8.286519	0.046420	-1.050133	3.832199	1.878834	-2.633624	0.805085	-1.386570	5.100154	-0.514404	-0.737793	0.064941	0.082887	0.002619	-0.009919	-0.603510	-0.603715	0.327764	-0.404815	83.084315	-62.178145	11.477101
34445		9.478968	0.282321	-0.601042	3.809022	1.378077	-1.218439	0.429676	-1.436152	5.313806	-0.551025	-0.709473	0.072998	0.094710	0.005352	-0.005320	-0.588868	-0.598978	0.347150	-0.417069	84.311590	-65.296330	10.383780
34446		10.460320	0.601363	-0.223335	3.462472	0.867514	0.039155	0.004403	-1.479184	5.506352	-0.592529	-0.667969	0.071777	0.104398	0.008890	-0.001460	-0.574247	-0.592197	0.368296	-0.428837	85.710361	-68.575222	8.867826
34447		11.188138	0.665289	0.067834	3.130328	0.409289	0.939955	-0.395613	-1.537348	5.650648	-0.638184	-0.633057	0.081787	0.111624	0.009812	0.001520	-0.560218	-0.583695	0.390137	-0.439602	87.387967	-71.862037	6.845136
34448		12.052741	0.527055	0.276652	2.903939	0.008790	1.898249	-0.640999	-1.639333	5.780921	-0.675049	-0.595947	0.083008	0.120280	0.008761	0.003729	-0.545581	-0.573865	0.413240	-0.449726	90.039587	-75.256652	3.703067
34449		13.416468	0.257123	0.340360	2.800476	-0.275198	3.310118	-0.772474	-1.741106	5.904746	-0.709961	-0.550049	0.092773	0.133974	0.006545	0.004550	-0.530653	-0.563194	0.436475	-0.459031	94.468609	-78.602710	-1.295753
34450		14.939075	0.144884	0.520862	2.385923	-0.760747	4.922416	-0.827389	-1.826404	5.993654	-0.740234	-0.501953	0.098145	0.149202	0.005948	0.006553	-0.514591	-0.551728	0.460230	-0.467954	103.308711	-81.901301	-10.731678
34451		16.409808	0.050831	0.572782	1.754814	-1.183223	6.467408	-0.832300	-1.918550	6.064919	-0.768555	-0.453613	0.105713	0.163917	0.005510	0.007285	-0.498010	-0.539833	0.483612	-0.476116	123.251602	-84.705055	-31.282665
34452		18.075892	0.055474	0.428027	0.817632	-1.501836	8.184158	-0.671147	-2.018153	6.123163	-0.794678	-0.403076	0.117676	0.180573	0.006104	0.006089	-0.479676	-0.527781	0.506784	-0.484281	167.663943	-85.845926	-76.196095
34453		20.019774	0.621189	0.388096	-0.879668	-2.032165	10.094137	-0.388961	-2.096519	6.183823	-0.816406	-0.348145	0.133789	0.199823	0.012405	0.005957	-0.460153	-0.515970	0.528806	-0.492340	-153.438127	-84.114250	-115.451739
34454		21.988906	0.894453	0.412884	-2.545804	-2.708765	11.878123	-0.117881	-2.124678	6.185580	-0.831543	-0.293457	0.138916	0.219412	0.015740	0.006454	-0.438911	-0.504217	0.549861	-0.500775	-136.311054	-80.996295	-132.756762
34455		23.517560	1.031195	0.374194	-4.219282	-3.340601	13.102845	0.289914	-2.167652	6.133492	-0.837646	-0.242676	0.159912	0.234653	0.017506	0.006309	-0.416623	-0.493146	0.569069	-0.509306	-128.465966	-77.553933	-140.568040
34456		25.016804	3.271366	1.399992	-8.077545	-5.111787	13.573279	0.938011	-2.197248	6.077620	-0.850830	-0.178955	0.169189	0.248847	0.040215	0.016916	-0.391907	-0.483080	0.586063	-0.519204	-123.756729	-73.945374	-144.836383
34457		25.134139	2.699823	3.966902	-8.795194	-8.185578	12.774709	1.493576	-1.976346	5.950395	-0.843506	-0.128174	0.187988	0.249986	0.034140	0.042381	-0.366850	-0.473444	0.600132	-0.530201	-120.259907	-70.451418	-147.608385
34458		25.085195	4.148360	3.789203	-11.394094	-8.527825	11.590801	2.511931	-1.769227	5.601428	-0.847412	-0.073242	0.204102	0.249217	0.047980	0.040677	-0.340128	-0.465687	0.609668	-0.543832	-117.086168	-67.108330	-149.421979
34459		23.798301	8.012283	1.886839	-15.730047	-7.038854	8.544374	3.177495	-1.540929	5.009450	-0.837646	-0.029053	0.214111	0.235721	0.085713	0.022023	-0.314243	-0.459785	0.615033	-0.558197	-114.274795	-64.137143	-150.508676
34460		21.111166	16.989972	-0.858424	-23.927458	-4.874394	1.960340	3.321003	-1.583795	4.431071	-0.830078	0.010742	0.228760	0.207322	0.174614	-0.004059	-0.288896	-0.455652	0.618082	-0.571748	-112.011267	-61.421008	-150.864145
34461		18.596884	29.200467	-0.081617	-33.877669	-6.604514	-7.171754	2.126839	-1.633310	3.954747	-0.824219	0.039307	0.236816	0.180129	0.295581	0.003802	-0.267604	-0.451034	0.623201	-0.580152	-110.866516	-58.967945	-150.778586
34462		13.244981	34.925654	1.968144	-35.960150	-8.080557	-16.182622	0.439307	-1.500849	2.718857	-0.818359	0.063477	0.240723	0.127530	0.350967	0.021420	-0.254044	-0.447431	0.630014	-0.581678	-111.014319	-57.206132	-150.314316
34463		9.134017	30.536588	3.486091	-29.813003	-8.071683	-18.420076	-0.518225	-0.904854	1.052103	-0.813965	0.061523	0.245117	0.089575	0.305930	0.034477	-0.249274	-0.446070	0.635014	-0.579345	-111.713228	-56.453939	-149.833811
34464		14.064132	20.285084	2.916350	-23.505921	-8.039320	-9.020066	-0.630350	-0.032355	-0.493217	-0.813477	0.050537	0.243164	0.141136	0.202594	0.028548	-0.252400	-0.446882	0.635893	-0.576394	-112.300098	-56.736748	-149.621603
34465		17.495169	16.451411	1.341316	-22.111225	-7.154414	-3.614055	-0.244560	0.524013	-1.608447	-0.815430	0.039307	0.241211	0.176301	0.163116	0.012752	-0.259226	-0.450153	0.632327	-0.574741	-112.554453	-57.701260	-149.485466
34466		12.543535	15.589326	1.421012	-18.985147	-5.806963	-6.947087	0.419837	0.662284	-2.287524	-0.812744	0.021729	0.235107	0.127254	0.154415	0.014116	-0.267505	-0.455953	0.625182	-0.574191	-112.618640	-59.102439	-149.203526
34467		9.168791	17.105743	1.417532	-18.762826	-5.152008	-10.079817	0.812918	0.576893	-2.685740	-0.814209	0.001953	0.231201	0.094015	0.169747	0.014598	-0.275126	-0.463725	0.615897	-0.574400	-112.646818	-60.648110	-148.632204
34468		10.862652	12.004703	-3.792521	-15.868123	-0.252372	-4.851083	0.995332	0.267903	-2.739968	-0.815918	-0.015625	0.233887	0.110209	0.118732	-0.037479	-0.282189	-0.472683	0.606385	-0.573793	-113.013420	-62.211429	-147.656426
34469		12.769784	4.748992	-2.268065	-9.607884	-1.498461	-0.004766	0.858217	0.321025	-2.971505	-0.815430	-0.035400	0.229980	0.128349	0.045683	-0.022688	-0.289613	-0.481918	0.596381	-0.572895	-113.510072	-63.846495	-146.547262
34470		17.200567	-9.455110	1.251918	2.763019	-4.091947	9.224662	0.952773	0.639751	-2.675332	-0.816895	-0.055176	0.234863	0.170758	-0.096897	0.011514	-0.297662	-0.489337	0.586431	-0.572753	-113.662082	-65.457596	-145.886471
34471		18.229551	-17.767686	7.096434	11.726038	-8.446804	12.311511	0.938573	0.954432	-2.257217	-0.820801	-0.072754	0.226318	0.180606	-0.180049	0.069259	-0.304591	-0.494571	0.576757	-0.574435	-113.150269	-66.859969	-145.857834
34472		18.001024	-5.411964	9.774637	1.487450	-12.419560	7.286485	1.201315	0.988453	-2.395600	-0.827148	-0.085938	0.219971	0.179819	-0.056857	0.096521	-0.311843	-0.500500	0.565774	-0.576327	-112.553824	-68.398888	-145.806453
34473		20.847482	6.892642	7.881922	-10.670162	-12.987777	6.363382	1.207039	0.693353	-3.053269	-0.819580	-0.114502	0.220703	0.209762	0.065256	0.078495	-0.319527	-0.508945	0.553502	-0.576639	-112.670023	-70.164915	-144.942639
34474		18.123837	9.825872	2.340484	-13.361533	-7.595388	4.124060	1.402976	0.264138	-3.410790	-0.812256	-0.136475	0.225830	0.182908	0.094983	0.023838	-0.326804	-0.519997	0.539914	-0.575582	-113.729147	-72.081349	-142.966247
34475		13.149902	5.520307	-0.566869	-8.360034	-3.016702	1.354516	1.359424	0.093360	-3.277622	-0.811523	-0.158203	0.232910	0.132378	0.053076	-0.005365	-0.332892	-0.530711	0.527251	-0.574052	-115.332282	-73.810775	-140.474689
34476		8.683097	1.408605	0.020441	-3.056184	-1.849857	-1.774507	1.398670	0.049442	-3.088351	-0.806396	-0.177979	0.235840	0.087035	0.012741	0.000275	-0.338496	-0.541189	0.514514	-0.572548	-117.346674	-75.474071	-137.550273
34477		6.296198	3.167600	-1.398287	-4.459554	-0.506541	-4.201667	1.533869	-0.052594	-2.967992	-0.812500	-0.201904	0.245117	0.063427	0.030843	-0.013728	-0.342649	-0.551490	0.502117	-0.571252	-119.893826	-76.951555	-134.022723
34478		7.082305	6.070715	-4.983723	-8.212223	1.953603	-3.441819	1.836941	-0.154193	-2.851071	-0.807373	-0.219482	0.247803	0.071721	0.060143	-0.049228	-0.345656	-0.562364	0.488859	-0.570338	-123.193697	-78.358451	-129.567920
34479		7.961768	6.565433	-6.016653	-8.986861	2.547989	-2.367285	1.507019	-0.145612	-2.602669	-0.811279	-0.239014	0.259277	0.080510	0.065061	-0.059616	-0.348435	-0.571678	0.477447	-0.569053	-127.069625	-79.529636	-124.739019
34480		10.239630	4.624635	-3.558457	-6.437969	0.454940	0.048373	0.601770	0.149971	-2.365480	-0.801758	-0.256592	0.259766	0.102908	0.045138	-0.035525	-0.354241	-0.578059	0.468502	-0.566451	-131.511855	-80.683722	-119.909823
34481		9.667346	2.391074	-1.983172	-3.583732	-0.196994	-0.314152	0.106932	0.193336	-2.130839	-0.801270	-0.271973	0.258057	0.096902	0.022890	-0.019913	-0.360390	-0.582656	0.461678	-0.563457	-136.383356	-81.639275	-114.917833
34482		10.801124	5.008863	-0.861934	-5.562025	-2.137525	0.530703	-0.294502	0.149550	-2.037240	-0.793945	-0.291748	0.256348	0.108507	0.048972	-0.008773	-0.367795	-0.586510	0.456161	-0.559152	-142.926032	-82.499208	-108.521106
34483		12.668110	4.706577	0.058147	-4.849107	-3.028276	2.432513	-0.908038	0.230741	-2.086460	-0.791260	-0.313721	0.259033	0.127163	0.045742	0.000225	-0.376785	-0.588912	0.452134	-0.553887	-150.885255	-83.263347	-101.024529
34484		10.494600	1.087730	-0.943054	-1.451273	-0.606878	0.662553	-0.855982	0.092888	-1.989291	-0.783691	-0.335693	0.255371	0.105043	0.009792	-0.009523	-0.385469	-0.591636	0.448305	-0.548090	-160.910033	-83.802412	-91.465097
34485		9.260295	-0.446033	-1.100857	0.145086	0.198976	-0.479895	-0.161997	-0.080540	-1.744115	-0.781250	-0.348633	0.264404	0.092564	-0.005277	-0.010967	-0.390525	-0.595428	0.443734	-0.544110	-170.171544	-84.007306	-82.244342
34486		9.242728	-0.158465	-1.319486	-0.040658	0.359520	-0.481999	0.555361	-0.144219	-1.530786	-0.778564	-0.364014	0.264893	0.092421	-0.002256	-0.013134	-0.393136	-0.600403	0.437799	-0.541564	-178.839573	-84.011684	-73.242294
34487		9.378180	1.566027	-1.759273	-1.685426	0.251780	-0.294684	0.800364	-0.133407	-1.424381	-0.775879	-0.372559	0.273926	0.093902	0.015062	-0.017469	-0.394277	-0.605433	0.431610	-0.540101	173.955009	-83.900062	-65.535413
34488		9.746817	1.407238	-1.585283	-1.333723	0.116373	0.071659	0.878575	-0.135708	-1.332940	-0.766846	-0.381104	0.285156	0.097570	0.013492	-0.015727	-0.395322	-0.610501	0.425348	-0.538599	167.131274	-83.683110	-58.198971
34489		10.462276	1.950693	-0.434842	-1.312348	-1.199188	0.689301	0.854903	-0.129565	-1.227903	-0.761963	-0.392090	0.290039	0.104743	0.018882	-0.004199	-0.395725	-0.615131	0.419548	-0.537582	161.806383	-83.422919	-52.347159
34490		10.937968	2.345976	0.072310	-1.344600	-1.837767	1.139991	0.800940	-0.139770	-1.144333	-0.766113	-0.405273	0.296875	0.109511	0.022830	0.000892	-0.396420	-0.619586	0.414038	-0.536224	156.894735	-83.091924	-46.971228
34491		10.975777	3.646863	0.010856	-2.452562	-2.224047	1.269031	0.608066	-0.140617	-1.096165	-0.754883	-0.411621	0.308105	0.109955	0.035866	0.000295	-0.397170	-0.623423	0.409288	-0.534867	152.944746	-82.752719	-42.639724
34492		10.766460	3.940137	-0.548675	-2.806174	-1.772405	1.174812	0.263826	-0.085341	-1.053063	-0.748047	-0.413574	0.312744	0.107872	0.038841	-0.005389	-0.399339	-0.626434	0.405327	-0.532746	148.890288	-82.387497	-38.424570
34493		10.080196	3.160630	-1.131766	-2.245054	-0.868234	0.535538	-0.255708	0.005551	-0.981414	-0.749756	-0.431396	0.308594	0.100955	0.031097	-0.011360	-0.402753	-0.627888	0.402924	-0.530282	145.275941	-82.084816	-34.924528
34494		9.718809	2.666235	-1.392090	-1.814847	-0.371021	0.190800	-0.697190	0.080539	-0.901222	-0.745117	-0.437988	0.300049	0.097301	0.026175	-0.014052	-0.407831	-0.628185	0.401630	-0.527021	141.473327	-81.780386	-31.511672
34495		9.808748	2.101566	-1.068491	-1.087315	-0.426475	0.207534	-0.961122	0.142065	-0.835125	-0.742188	-0.457520	0.304932	0.098166	0.020554	-0.010854	-0.413321	-0.627513	0.401247	-0.523826	138.078998	-81.533921	-28.637482
34496		9.952856	2.311385	-0.669951	-1.053825	-0.816541	0.339783	-0.969817	0.148087	-0.784656	-0.735107	-0.468506	0.300781	0.099613	0.022690	-0.006884	-0.419039	-0.626784	0.400872	-0.520433	134.752692	-81.249217	-25.859138
34497		10.471702	1.847130	-0.261488	-0.349644	-1.025657	0.768520	-0.814238	0.160009	-0.740786	-0.728271	-0.475098	0.298828	0.104782	0.018072	-0.002773	-0.423827	-0.626135	0.400333	-0.517745	131.997400	-81.004145	-23.542514
34498		10.128892	1.121375	-0.937693	0.147735	-0.081147	0.419728	-0.602208	0.141772	-0.665882	-0.721436	-0.483887	0.296875	0.101319	0.010848	-0.009482	-0.428025	-0.625914	0.399348	-0.515312	129.523102	-80.731660	-21.406236
34499		10.037605	1.514379	-1.737314	-0.415505	0.598540	0.460276	-0.483994	0.100733	-0.621580	-0.727783	-0.494873	0.297119	0.100414	0.014790	-0.017460	-0.431333	-0.625854	0.398436	-0.513330	127.634357	-80.489777	-19.772781
34500		9.773647	1.518971	-1.633322	-0.360715	0.551774	0.190523	-0.475521	0.074160	-0.606994	-0.716309	-0.505859	0.297363	0.097776	0.014854	-0.016405	-0.434818	-0.625930	0.397453	-0.511053	125.778345	-80.199740	-18.186569
34501		9.756053	2.335973	-1.915106	-1.155537	0.605065	0.316636	-0.547772	0.033167	-0.584841	-0.711670	-0.510254	0.295410	0.097625	0.023022	-0.019231	-0.438084	-0.625810	0.396952	-0.508795	124.281018	-79.936819	-16.984955
34502		9.865494	1.926668	-1.575904	-0.585808	0.434270	0.335779	-0.584644	0.002716	-0.555313	-0.708984	-0.521240	0.282227	0.098708	0.018946	-0.015816	-0.441618	-0.625698	0.396577	-0.506164	122.831714	-79.635446	-15.874881
34503		10.057663	2.001724	-1.047090	-0.416941	-0.074888	0.486834	-0.581503	-0.031965	-0.521306	-0.701904	-0.532227	0.291504	0.100630	0.019724	-0.010512	-0.444685	-0.625523	0.396490	-0.503759	121.724467	-79.373703	-15.087509
34504		10.421985	2.634630	-0.551658	-0.750650	-0.722403	0.900750	-0.610840	-0.059982	-0.511590	-0.697266	-0.538818	0.289551	0.104288	0.026063	-0.005565	-0.448041	-0.625396	0.396453	-0.500963	120.621032	-79.068609	-14.342954
34505		10.835584	2.866862	0.015329	-0.686371	-1.324957	1.295962	-0.636253	-0.060838	-0.536783	-0.685791	-0.549805	0.278809	0.108432	0.028378	0.000096	-0.451246	-0.625181	0.396506	-0.498307	119.624778	-78.785653	-13.699137
34506		10.840639	2.488276	0.100672	-0.240862	-1.272779	1.234610	-0.688842	-0.062786	-0.581897	-0.689941	-0.558594	0.281006	0.108478	0.024571	0.000956	-0.454982	-0.624999	0.396418	-0.495197	118.479625	-78.441739	-12.952633
34507		10.699801	1.117370	0.213885	1.118582	-0.979776	0.844163	-0.641458	-0.041690	-0.622860	-0.671875	-0.569580	0.274902	0.107032	0.010847	0.002126	-0.458437	-0.624870	0.396155	-0.492375	117.410269	-78.115828	-12.235737
34508		10.262404	0.832589	-0.303113	1.239624	-0.365594	0.406476	-0.608286	-0.035275	-0.640696	-0.660400	-0.578125	0.272949	0.102651	0.007988	-0.003038	-0.462074	-0.624893	0.395579	-0.489401	116.274978	-77.747069	-11.444633
34509		10.101472	1.605606	-0.982805	0.376993	0.118892	0.455069	-0.588080	-0.017396	-0.723438	-0.657959	-0.584717	0.270752	0.101073	0.015662	-0.009866	-0.465638	-0.625000	0.394797	-0.486509	115.165565	-77.369839	-10.653472
34510		10.150784	1.330546	-1.345701	0.646729	0.568858	0.476975	-0.568047	0.014527	-0.808368	-0.648926	-0.591309	0.268799	0.101559	0.012857	-0.013501	-0.469611	-0.625292	0.393464	-0.483385	113.882237	-76.922271	-9.681809
34511		10.146753	1.482931	-1.573808	0.538274	0.785059	0.518122	-0.563872	0.033560	-0.906481	-0.634766	-0.611084	0.264893	0.101531	0.014325	-0.015796	-0.473620	-0.625660	0.391912	-0.480248	112.619822	-76.453177	-8.716423
34512		10.386224	1.133966	-1.693677	1.003928	1.017869	0.674591	-0.568356	0.063402	-1.022291	-0.621094	-0.622070	0.260742	0.103913	0.010760	-0.017001	-0.478163	-0.626208	0.389792	-0.476746	111.205231	-75.895286	-7.606187
34513		10.751161	1.009609	-1.378426	1.395304	0.774528	0.955720	-0.588244	0.123468	-1.140403	-0.609619	-0.635010	0.259033	0.107558	0.009442	-0.013879	-0.482950	-0.626716	0.387323	-0.473252	109.721707	-75.308333	-6.422430
34514		11.259725	0.813590	-0.877154	1.953299	0.374343	1.334298	-0.559562	0.183284	-1.291676	-0.589355	-0.641602	0.250488	0.112638	0.007384	-0.008896	-0.488277	-0.627460	0.384037	-0.469463	108.091999	-74.616279	-5.078029
34515		11.874090	0.335004	-0.475565	2.799188	0.144467	1.740383	-0.485369	0.283226	-1.445453	-0.580078	-0.650391	0.246094	0.118754	0.002480	-0.004931	-0.493718	-0.628366	0.379942	-0.465878	106.395532	-73.873875	-3.604220
34516		12.195571	0.032717	-0.076908	3.424956	-0.101186	1.891803	-0.407173	0.349395	-1.588260	-0.563965	-0.665771	0.242188	0.121952	-0.000643	-0.000981	-0.499485	-0.629581	0.374910	-0.462152	104.656707	-73.028234	-2.040862
34517		12.323417	0.461610	0.585599	3.380491	-0.751834	2.037445	-0.331347	0.416733	-1.740049	-0.545898	-0.678711	0.242676	0.123280	0.003553	0.005593	-0.505307	-0.631025	0.369145	-0.458480	102.970772	-72.117525	-0.472750
34518		12.601337	1.228673	1.035349	3.053416	-1.248035	2.454713	-0.241506	0.505614	-1.925417	-0.525391	-0.689697	0.238525	0.126150	0.011085	0.010021	-0.511491	-0.632812	0.362189	-0.454692	101.252037	-71.081737	1.192464
34519		13.069721	1.240793	1.663733	3.553422	-1.733484	2.816116	-0.048782	0.626262	-2.071212	-0.502686	-0.700439	0.236572	0.130868	0.011057	0.016225	-0.517456	-0.634976	0.354127	-0.451264	99.618498	-69.980020	2.895444
34520		13.456991	1.424667	0.825156	3.599014	-0.798771	3.233476	0.091734	0.671299	-2.160151	-0.491211	-0.713623	0.234863	0.134740	0.012788	0.007806	-0.523254	-0.637513	0.345119	-0.447968	98.118062	-68.802668	4.563031
34521		14.312856	2.091746	-0.187661	3.362579	0.230563	4.254960	0.153053	0.713650	-2.257417	-0.466309	-0.722168	0.237305	0.143345	0.019302	-0.002373	-0.529014	-0.640165	0.335693	-0.444571	96.774373	-67.573548	6.104804
34522		14.554203	2.519730	-1.394792	3.106150	1.502910	4.616509	0.077241	0.730136	-2.335677	-0.446045	-0.730957	0.237549	0.145771	0.023501	-0.014471	-0.535175	-0.642640	0.325892	-0.440904	95.474654	-66.277343	7.578662
34523		14.406017	1.496751	-1.988006	4.124825	2.470613	3.992990	-0.103086	0.720448	-2.384216	-0.423340	-0.743896	0.238037	0.144152	0.013239	-0.020406	-0.541892	-0.644610	0.316509	-0.436639	94.253167	-64.951617	8.854957
34524		14.792636	1.468493	-2.141597	4.578772	2.840271	4.205873	-0.326348	0.743243	-2.466611	-0.405273	-0.754883	0.233887	0.148011	0.012824	-0.021988	-0.549474	-0.645963	0.307070	-0.431878	92.976642	-63.560894	10.076079
34525		15.326912	1.085242	-2.033970	5.487987	3.052266	4.357003	-0.547177	0.746875	-2.536887	-0.378174	-0.761230	0.231934	0.153312	0.008851	-0.020938	-0.557813	-0.646683	0.297982	-0.426443	91.713959	-62.126523	11.142849
34526		16.148594	0.933886	-2.230243	6.290634	3.558817	4.828636	-0.826888	0.758942	-2.613732	-0.366943	-0.770020	0.223389	0.161503	0.007134	-0.022948	-0.567130	-0.646588	0.289033	-0.420413	90.377760	-60.634262	12.135104
34527		17.337953	-1.127916	-2.244506	8.970291	4.296655	4.608326	-1.123998	0.793032	-2.688281	-0.337402	-0.785400	0.212891	0.173115	-0.013736	-0.023059	-0.577493	-0.645545	0.280426	-0.413684	88.966494	-59.091868	13.022270
34528		18.634551	-1.147488	-1.676978	10.135500	4.113269	5.409066	-1.384820	0.837480	-2.786724	-0.319336	-0.787598	0.201904	0.186088	-0.014188	-0.017457	-0.588794	-0.643630	0.271778	-0.406446	87.467270	-57.484358	13.861190
34529		19.402774	-3.430825	-2.487562	12.664868	5.567212	4.435199	-1.803043	0.859811	-2.814903	-0.298828	-0.800781	0.186768	0.193409	-0.037261	-0.025381	-0.601395	-0.640304	0.263816	-0.398418	85.829984	-55.845984	14.584347
34530		20.797519	-5.252512	-4.253390	14.996023	7.901319	4.002506	-2.136620	0.867123	-2.992107	-0.271729	-0.816162	0.160645	0.206969	-0.056083	-0.042846	-0.615159	-0.635968	0.255825	-0.389459	84.106599	-54.106933	15.205167
34531		20.668223	-6.287395	-7.393391	15.665683	11.187011	2.465055	-1.920779	0.810424	-3.315967	-0.253418	-0.824951	0.149902	0.205294	-0.066997	-0.074137	-0.628639	-0.632601	0.246483	-0.379308	82.682440	-52.166752	15.609605
34532		20.611798	-6.352001	-7.591170	16.134615	11.454220	1.642794	-1.351748	0.648075	-3.629219	-0.215332	-0.833740	0.141357	0.204668	-0.067757	-0.076128	-0.640361	-0.631458	0.235590	-0.368368	81.801063	-50.080280	15.755516
34533		18.965575	-3.887748	-7.440304	13.711248	10.919041	1.273019	-0.717081	0.465473	-3.645030	-0.197021	-0.844727	0.133057	0.188728	-0.042590	-0.074695	-0.649772	-0.632488	0.223875	-0.357261	81.437021	-47.975804	15.693596
34534		18.358205	-3.953591	-7.324517	13.788714	10.765070	0.199710	-0.243737	0.404480	-3.528049	-0.170166	-0.848877	0.130859	0.182697	-0.042854	-0.073564	-0.657049	-0.634822	0.212054	-0.346872	81.387491	-45.977265	15.574944
34535		17.789689	-2.433979	-5.779865	12.894619	9.143540	0.478222	0.373958	0.354632	-3.172990	-0.152344	-0.850830	0.135498	0.177379	-0.027048	-0.058162	-0.661654	-0.638717	0.200146	-0.337929	81.668944	-44.149754	15.480215
34536		18.125011	-4.674246	-1.907872	15.599729	5.607852	-0.914177	0.922575	0.535302	-2.685752	-0.134277	-0.857422	0.135742	0.180549	-0.049080	-0.019785	-0.663541	-0.643504	0.188583	-0.331743	82.135390	-42.626785	15.573844
34537		16.551106	0.045949	-2.060838	11.477705	5.334781	1.048855	-0.495406	0.497832	-2.667398	-0.120850	-0.861816	0.124756	0.165445	-0.001799	-0.021018	-0.669963	-0.643489	0.179157	-0.323999	81.790110	-41.074233	15.666053
34538		12.861129	-1.090225	-1.626223	9.856799	4.276977	-2.478966	-1.372761	0.585874	-2.373498	-0.104980	-0.864014	0.107178	0.128421	-0.012540	-0.016556	-0.678482	-0.640026	0.172156	-0.316847	80.913058	-39.731402	15.814246
34539		5.156200	9.441459	-3.446272	-2.808671	4.403273	0.203092	-2.591616	0.126855	-1.975270	-0.095703	-0.873291	0.076416	0.052466	0.093442	-0.035711	-0.689920	-0.632649	0.169492	-0.308282	79.526546	-38.604469	15.658606
34540		13.675229	3.068905	-5.626602	7.592036	8.459968	0.130237	-3.056587	0.105117	-1.915778	-0.093262	-0.877930	0.047852	0.137003	0.028512	-0.056785	-0.702323	-0.623510	0.168189	-0.299483	77.918837	-37.568401	15.433380
34541		10.907345	-6.297096	-4.979333	11.666041	6.825598	-8.959958	-2.038403	0.162842	-0.951947	-0.086426	-0.882568	0.023682	0.108730	-0.063993	-0.049233	-0.710192	-0.616870	0.167696	-0.294918	76.772713	-37.016535	15.397597
34542		6.927482	-6.742941	-4.865030	8.978893	5.708537	-11.791528	-1.838945	0.042908	-0.141825	-0.099854	-0.883057	-0.000732	0.069216	-0.067922	-0.048042	-0.715868	-0.610436	0.170324	-0.293071	75.742618	-36.988989	15.366069
34543		4.313390	-7.777500	-1.180693	8.090190	1.352973	-13.446613	-1.799441	-0.006865	0.452330	-0.110840	-0.885498	-0.016113	0.043310	-0.077779	-0.011106	-0.720657	-0.603594	0.174364	-0.293129	74.664531	-37.241367	15.444309
34544		3.102159	-5.568175	0.292987	5.949310	-0.216488	-12.108726	-1.380724	-0.261931	0.839456	-0.126709	-0.874756	-0.031982	0.031251	-0.055529	0.003354	-0.723114	-0.598314	0.180380	-0.294262	73.910267	-37.806134	15.393177
34545		2.569255	-2.818223	0.582731	3.819357	-0.356865	-10.222370	-1.151559	-0.512371	1.117776	-0.142090	-0.879395	-0.042969	0.025834	-0.028004	0.006055	-0.724423	-0.593875	0.187269	-0.295726	73.329966	-38.504235	15.264715
34546		2.774379	-2.327575	-0.197838	3.596030	0.470458	-9.840848	-0.908569	-0.729079	1.462643	-0.162354	-0.873047	-0.058594	0.027920	-0.023080	-0.001772	-0.724006	-0.590312	0.196066	-0.298170	72.957823	-39.489167	15.040863
34547		2.952737	-3.571535	-1.234828	4.498734	1.335250	-10.801097	-0.429443	-0.848334	1.905713	-0.186768	-0.873291	-0.061035	0.029918	-0.035458	-0.012146	-0.721556	-0.588121	0.205396	-0.302132	72.832566	-40.676665	14.853485
34548		3.186004	-5.071245	-1.565681	5.703131	1.517878	-11.680248	0.322452	-0.890186	2.379457	-0.211426	-0.868896	-0.054443	0.032530	-0.050303	-0.015594	-0.715791	-0.588168	0.215558	-0.308604	73.115873	-42.191503	14.717077
34549		3.642349	-4.272497	-1.284935	5.517343	1.459091	-10.586876	0.995890	-0.925522	2.838535	-0.240479	-0.866943	-0.045898	0.037084	-0.042138	-0.012890	-0.707392	-0.590028	0.225660	-0.317081	73.727928	-43.902563	14.656642
34550		3.885137	-2.903179	-0.836359	4.722592	1.244923	-9.206844	1.446327	-1.014433	3.253323	-0.276855	-0.847168	-0.031006	0.039359	-0.028334	-0.008371	-0.696433	-0.592992	0.236954	-0.327407	74.627062	-45.917923	14.570093
34551		4.159269	-2.315877	-0.922998	4.423039	1.453794	-8.458119	1.747544	-1.139782	3.633908	-0.312744	-0.838379	-0.013672	0.042056	-0.022317	-0.009189	-0.683796	-0.596506	0.248790	-0.338684	75.734589	-48.098826	14.425234
34552		4.542460	-2.194435	-1.052088	4.491500	1.667459	-7.915825	1.910539	-1.239682	4.023607	-0.357910	-0.825439	0.001465	0.045917	-0.020924	-0.010440	-0.669270	-0.599963	0.262149	-0.351284	77.020959	-50.570893	14.185895
34553		5.154898	-1.935053	-1.258073	4.535400	1.976132	-7.088922	1.998494	-1.327580	4.428170	-0.396240	-0.807861	0.025146	0.052041	-0.018077	-0.012421	-0.653541	-0.602987	0.276287	-0.364632	78.426298	-53.212879	13.855660
34554		6.015662	-1.193744	-1.241882	4.257955	2.056493	-5.715469	1.935441	-1.395546	4.804991	-0.432861	-0.781494	0.041992	0.060503	-0.010368	-0.012103	-0.636471	-0.604968	0.292115	-0.378929	79.937824	-56.132151	13.375291
34555		7.163147	-0.394967	-1.099876	3.969531	1.969731	-4.065856	1.706226	-1.468127	5.123644	-0.478271	-0.753174	0.052246	0.071778	-0.002021	-0.010495	-0.619206	-0.605457	0.308943	-0.393140	81.478370	-59.166307	12.709626
34556		8.301854	0.202592	-0.754488	3.704864	1.598182	-2.516666	1.328259	-1.517431	5.410039	-0.528564	-0.720215	0.071045	0.082976	0.004318	-0.006892	-0.601615	-0.603887	0.327681	-0.407437	83.066402	-62.420306	11.774414
34557		9.642677	0.667187	-0.389345	3.496236	1.160288	-0.869492	0.845624	-1.551129	5.665106	-0.564941	-0.691895	0.081299	0.096212	0.009414	-0.003111	-0.584710	-0.600042	0.347590	-0.421004	84.655999	-65.744046	10.546629
34558		10.790726	1.088016	-0.121708	3.051934	0.736215	0.567391	0.215247	-1.541050	5.858121	-0.613281	-0.648193	0.088867	0.107532	0.014035	-0.000373	-0.568429	-0.593382	0.369444	-0.433933	86.311602	-69.225076	8.900298
34559		11.645847	1.032848	0.095353	2.796828	0.343993	1.532681	-0.372488	-1.534330	6.005243	-0.647949	-0.608887	0.092285	0.116067	0.013821	0.001821	-0.553391	-0.584273	0.392256	-0.445555	88.164455	-72.706137	6.715676
34560		12.514972	0.670842	0.494413	2.718564	-0.242066	2.427291	-0.776920	-1.565657	6.129173	-0.684814	-0.569580	0.095703	0.124822	0.010559	0.005886	-0.538272	-0.573202	0.416384	-0.456429	90.936021	-76.289885	3.391722
34561		13.687248	0.306595	0.790181	2.585095	-0.759162	3.631047	-0.980276	-1.632153	6.244195	-0.717529	-0.519287	0.098633	0.136617	0.007377	0.008988	-0.523141	-0.560983	0.440691	-0.466276	95.782076	-79.811996	-2.132967
34562		15.374525	0.123503	0.988627	2.161724	-1.262898	5.386456	-1.036277	-1.723284	6.342610	-0.748291	-0.464600	0.097168	0.153509	0.006162	0.011186	-0.506761	-0.547905	0.465477	-0.475737	106.703474	-83.259258	-13.752809
34563		17.427569	0.165229	0.800734	1.306325	-1.481816	7.518530	-0.907946	-1.848238	6.449632	-0.771973	-0.418457	0.111328	0.174017	0.007309	0.009592	-0.489309	-0.534675	0.489725	-0.484633	136.630470	-85.944265	-44.321316
34564		19.868001	0.385197	0.483817	-0.025857	-1.704445	9.987808	-0.675987	-1.958650	6.553744	-0.796143	-0.357178	0.118652	0.198351	0.010377	0.006754	-0.469707	-0.521305	0.513648	-0.493744	-166.187791	-85.796194	-101.994929
34565		22.487762	0.889336	-0.102767	-1.968083	-1.785943	12.530907	-0.383518	-2.064992	6.606287	-0.815674	-0.304443	0.130371	0.224415	0.016313	0.001265	-0.448806	-0.508220	0.536358	-0.502599	-137.937285	-82.886661	-130.589916
34566		24.698265	2.180880	-0.919656	-5.008277	-1.744110	14.420240	0.018276	-2.199741	6.590856	-0.822021	-0.242920	0.139893	0.246167	0.029932	-0.006483	-0.425576	-0.495711	0.557884	-0.511782	-127.382549	-79.184476	-141.234242
34567		26.391023	3.854888	-1.558964	-8.538609	-1.931045	15.423328	0.504694	-2.373694	6.466132	-0.832764	-0.185547	0.162842	0.262639	0.047089	-0.012355	-0.400899	-0.484523	0.577340	-0.520764	-122.611707	-75.364993	-145.825761
34568		27.329917	6.559226	-0.124504	-12.917379	-4.204310	14.786474	1.192514	-2.527714	6.287335	-0.827637	-0.136963	0.183838	0.271041	0.074130	0.002616	-0.373710	-0.474957	0.594374	-0.530544	-119.774802	-71.480824	-148.052918
34569		26.728413	6.167362	5.613399	-13.427642	-10.427723	12.428270	1.790583	-2.223655	6.074776	-0.829346	-0.084229	0.195557	0.264607	0.069215	0.059683	-0.346518	-0.465876	0.607875	-0.541639	-117.282924	-67.812448	-149.615057
34570		26.036642	6.990701	6.056004	-15.040941	-11.386234	10.370933	2.991795	-1.937683	5.554174	-0.824219	-0.033447	0.209961	0.257699	0.076147	0.064174	-0.318115	-0.459099	0.615830	-0.555684	-114.650544	-64.427136	-150.598584
34571		23.634128	15.378832	1.728371	-23.092062	-7.754289	4.485856	3.978907	-1.898695	4.946496	-0.818848	0.006104	0.217773	0.232251	0.159152	0.022633	-0.289210	-0.455215	0.618817	-0.571141	-112.122208	-61.392501	-150.876858
34572		21.167110	32.337811	-0.057691	-37.754844	-7.565906	-6.539517	2.989118	-1.840128	4.443923	-0.811279	0.048096	0.225586	0.204382	0.327915	0.006205	-0.263714	-0.450835	0.622815	-0.582498	-110.492019	-58.617635	-150.762650
34573		13.660582	42.654974	0.620010	-42.975396	-7.793502	-19.745223	0.687325	-1.465665	2.916266	-0.807129	0.059082	0.234131	0.130310	0.428454	0.008641	-0.249059	-0.446859	0.629239	-0.585102	-110.418400	-56.756869	-150.383533
34574		8.201557	35.214905	2.127443	-33.507942	-7.090255	-21.594646	-0.613875	-0.723155	0.938117	-0.802734	0.059082	0.231934	0.080287	0.352592	0.020485	-0.245580	-0.445218	0.634086	-0.582586	-111.086661	-56.118605	-150.031761
34575		14.477568	21.915572	2.546413	-25.119521	-8.082599	-9.583656	-0.488024	0.105328	-0.852875	-0.802246	0.043701	0.225830	0.145722	0.218597	0.024854	-0.249470	-0.447004	0.633478	-0.580222	-111.548161	-56.594046	-149.813015
34576		17.698914	18.135657	1.231654	-23.647003	-7.344169	-4.287530	-0.315059	0.641851	-2.071584	-0.803711	0.026123	0.219482	0.178893	0.179529	0.011461	-0.258603	-0.451271	0.628997	-0.577790	-111.919860	-57.865454	-149.637906
34577		11.049330	17.130669	2.037206	-19.496085	-6.243589	-9.042631	0.277905	0.761664	-2.601727	-0.803223	0.008545	0.217773	0.112786	0.169821	0.020182	-0.267852	-0.457564	0.621287	-0.576968	-112.010811	-59.409478	-149.344674
34578		7.542009	17.803011	2.215123	-18.508192	-5.659035	-11.844876	0.562121	0.678243	-2.903228	-0.807129	-0.011230	0.213867	0.078069	0.176847	0.022388	-0.277547	-0.465346	0.612096	-0.575985	-112.208707	-61.144073	-148.807967
34579		10.575156	10.623021	-2.238348	-14.176884	-1.541997	-4.682913	0.490319	0.382682	-3.045648	-0.797607	-0.031006	0.212158	0.107311	0.104659	-0.022330	-0.286304	-0.474183	0.602999	-0.574084	-112.802095	-62.838560	-147.817499
34580		12.200683	-2.032864	-1.746294	-3.050176	-1.005612	2.258470	0.360176	0.365740	-2.959326	-0.803467	-0.052979	0.214844	0.121656	-0.022099	-0.017724	-0.295633	-0.482548	0.594417	-0.571329	-113.633995	-64.534733	-146.731452
34581		17.819432	-15.112201	0.696204	7.784529	-2.885599	12.037477	0.833254	0.670333	-2.776062	-0.803223	-0.066406	0.201904	0.176094	-0.153602	0.005733	-0.303502	-0.490057	0.584289	-0.571259	-113.782852	-66.143952	-146.042122
34582		18.787989	-21.795488	6.266518	15.305612	-7.104624	14.322535	1.194886	0.965462	-2.325501	-0.802490	-0.083984	0.204590	0.185621	-0.220488	0.060453	-0.310536	-0.495917	0.573665	-0.573186	-113.227454	-67.637116	-145.957436
34583		18.707627	-7.572423	8.893286	3.276046	-11.229186	8.883196	1.867179	0.936412	-2.569876	-0.800049	-0.096924	0.204834	0.186487	-0.078943	0.087332	-0.315904	-0.503431	0.560416	-0.576798	-112.348103	-69.200898	-145.752335
34584		20.778662	10.144529	5.179497	-13.994749	-10.919228	5.882616	2.389018	0.484915	-3.278907	-0.797119	-0.116943	0.198730	0.209532	0.097395	0.052468	-0.320961	-0.515028	0.544202	-0.579287	-112.271637	-71.090952	-144.387983
34585		16.704338	13.967017	0.390241	-17.062854	-6.496109	2.055876	2.618525	0.064194	-3.556758	-0.796631	-0.136475	0.214844	0.169493	0.136604	0.005650	-0.324606	-0.528592	0.527231	-0.580732	-113.089861	-72.984322	-141.950645
34586		12.470635	7.095316	-1.880634	-9.831309	-2.156691	0.583083	2.222806	-0.058476	-3.371779	-0.789063	-0.160400	0.219971	0.125886	0.069040	-0.017995	-0.328669	-0.541330	0.511597	-0.580695	-114.684585	-74.793713	-138.973282
34587		8.968644	4.969470	-1.344863	-6.693046	-1.585249	-2.091156	1.856951	-0.058849	-3.257715	-0.788574	-0.182129	0.231445	0.090485	0.048347	-0.012969	-0.332884	-0.552787	0.497402	-0.579833	-116.908070	-76.458883	-135.579730
34588		8.288058	8.586665	-4.141863	-10.602611	0.053494	-2.946320	1.772692	-0.138652	-3.298666	-0.785645	-0.201904	0.234131	0.084314	0.084846	-0.040605	-0.337540	-0.564423	0.483053	-0.578060	-120.334324	-78.136441	-131.041584
34589		9.777946	9.838890	-4.710312	-11.939579	-0.159889	-1.327196	1.461088	-0.215618	-3.234070	-0.780762	-0.217041	0.245605	0.099407	0.097130	-0.046284	-0.342181	-0.575231	0.469998	-0.575434	-125.124827	-79.628999	-125.306709
34590		9.663302	6.839905	-2.000986	-7.947982	-1.732094	-0.981638	0.142737	0.029119	-2.896607	-0.775635	-0.241211	0.248535	0.097607	0.067004	-0.019976	-0.350595	-0.582303	0.460984	-0.570526	-131.234850	-80.995322	-119.055375
34591		7.890017	4.786396	-2.891916	-5.975127	0.085240	-2.209380	-0.400458	0.035691	-2.657776	-0.770508	-0.258789	0.246826	0.079521	0.046752	-0.029028	-0.359385	-0.587570	0.454290	-0.564999	-138.598436	-82.089158	-111.843156
34592		9.540243	2.404501	-2.066709	-3.324948	-0.024737	-0.325435	-0.588664	0.077321	-2.435422	-0.767578	-0.282959	0.247314	0.095677	0.022820	-0.020772	-0.368616	-0.591935	0.448472	-0.559114	-147.712663	-82.999865	-103.026478
34593		10.940233	1.323639	0.569679	-1.248203	-2.224436	0.922966	-0.566897	-0.009632	-2.224272	-0.766846	-0.304688	0.250000	0.109540	0.012035	0.005667	-0.376458	-0.595863	0.443468	-0.553681	-157.689475	-83.580719	-93.308188
34594		10.302849	2.185513	0.455593	-1.868271	-2.260795	0.312877	-0.013699	-0.260785	-2.078893	-0.761963	-0.320068	0.257080	0.103242	0.020783	0.004689	-0.382107	-0.601283	0.437621	-0.548580	-168.996880	-83.794523	-81.972631
34595		10.315113	1.627726	-1.558899	-1.793440	-0.164307	0.590896	0.690035	-0.399801	-1.909300	-0.757080	-0.335205	0.270752	0.103331	0.015345	-0.015329	-0.384367	-0.607842	0.430735	-0.545214	-178.741884	-83.682732	-71.771554
34596		9.428555	1.251688	-2.478093	-1.596512	0.924642	-0.158682	1.077896	-0.290554	-1.698475	-0.759033	-0.348389	0.275635	0.094424	0.011848	-0.024579	-0.385502	-0.614476	0.423009	-0.543020	172.760756	-83.457384	-62.629382
34597		9.787781	1.790478	-2.606100	-1.998434	0.826255	0.243187	1.219564	-0.119311	-1.455673	-0.754395	-0.352539	0.289063	0.098021	0.017350	-0.025896	-0.385431	-0.620199	0.415442	-0.542405	166.533935	-83.239746	-55.656822
34598		10.400954	3.305952	-1.467974	-2.838499	-0.822205	0.795308	1.052285	0.004325	-1.301514	-0.756348	-0.365479	0.300293	0.104222	0.032458	-0.014510	-0.386107	-0.625034	0.408401	-0.541721	160.727594	-83.007416	-49.233844
34599		11.096438	4.427127	0.218779	-3.079300	-2.848474	1.375721	0.830631	0.029376	-1.212938	-0.751465	-0.374268	0.300537	0.111230	0.043588	0.002353	-0.386840	-0.629017	0.402298	-0.541155	155.983382	-82.766557	-43.973132
34600		11.085017	3.565077	0.954890	-1.864271	-3.175400	1.275096	0.639353	0.038475	-1.115662	-0.742188	-0.385010	0.312012	0.111048	0.035001	0.009640	-0.388316	-0.632519	0.396836	-0.540047	151.457635	-82.469984	-39.070294
34601		10.693769	2.793368	0.294984	-1.321701	-2.211255	0.939476	0.436956	0.006850	-1.003113	-0.742188	-0.391602	0.312012	0.107076	0.027390	0.003006	-0.389645	-0.635329	0.392470	-0.538982	148.014831	-82.183770	-35.343645
34602		10.761802	3.147683	-0.664187	-1.893159	-1.435467	1.165470	0.001504	0.029367	-0.914371	-0.739258	-0.406982	0.310303	0.107759	0.030984	-0.006657	-0.392530	-0.637180	0.389325	-0.536980	144.508483	-81.869990	-31.826515
34603		10.077138	3.358910	-1.380304	-2.353636	-0.761470	0.609209	-0.535780	0.054462	-0.864123	-0.737061	-0.413574	0.314941	0.100911	0.033116	-0.013920	-0.396653	-0.637655	0.387903	-0.534410	141.358266	-81.596663	-28.953300
34604		10.050399	3.633186	-1.111879	-2.421605	-1.042018	0.603448	-0.974655	0.103942	-0.830117	-0.736572	-0.422363	0.310791	0.100648	0.035859	-0.011347	-0.402533	-0.637175	0.387466	-0.530891	137.859385	-81.293512	-26.002773
34605		9.583613	1.850452	-0.710831	-0.629224	-0.646707	-0.067926	-1.094755	0.095559	-0.713794	-0.729736	-0.431152	0.308838	0.095898	0.018123	-0.007254	-0.408087	-0.636086	0.387901	-0.527629	135.084516	-81.051837	-23.829282
34606		10.229102	1.347560	-0.592252	0.037215	-0.560875	0.506461	-1.009554	0.078772	-0.594775	-0.729248	-0.442139	0.304688	0.102328	0.013141	-0.006030	-0.413362	-0.635087	0.388321	-0.524408	132.590804	-80.795257	-21.911336
34607		10.516254	1.575201	-1.238605	-0.299603	-0.014591	0.888558	-0.865148	0.055612	-0.507816	-0.726807	-0.448730	0.304688	0.105199	0.015431	-0.012483	-0.417539	-0.634130	0.388861	-0.521850	130.772577	-80.599487	-20.571047
34608		10.172053	1.867012	-1.677211	-0.709665	0.355755	0.634270	-0.769516	0.038796	-0.458206	-0.729004	-0.455322	0.300537	0.101760	0.018372	-0.016863	-0.421578	-0.633424	0.389146	-0.519241	129.022916	-80.370618	-19.264002
34609		10.009479	2.226568	-2.028820	-1.134719	0.608124	0.560628	-0.756850	0.000052	-0.447545	-0.726318	-0.470703	0.305420	0.100144	0.021965	-0.020372	-0.425129	-0.632693	0.389693	-0.516822	127.664774	-80.169869	-18.325884
34610		9.988687	2.088223	-1.829384	-0.884513	0.504871	0.504465	-0.840789	-0.031004	-0.418715	-0.717285	-0.475098	0.303223	0.099933	0.020596	-0.018365	-0.429131	-0.631902	0.390435	-0.513913	126.267486	-79.925520	-17.417331
34611		9.762997	2.419365	-1.529405	-1.088255	0.157481	0.301616	-0.929877	-0.065522	-0.413899	-0.721436	-0.483887	0.296875	0.097685	0.023920	-0.015374	-0.432995	-0.630875	0.391655	-0.510998	125.136801	-79.711372	-16.809738
34612		10.158207	2.516337	-0.958845	-0.881162	-0.400211	0.651711	-0.947052	-0.095008	-0.425102	-0.714600	-0.488281	0.292480	0.101640	0.024902	-0.009659	-0.437195	-0.629991	0.392779	-0.507639	123.934948	-79.438024	-16.161231
34613		10.473392	2.088843	-0.406647	-0.215960	-0.782829	0.843809	-0.938892	-0.102626	-0.411149	-0.711914	-0.503662	0.292969	0.104779	0.020654	-0.004110	-0.440985	-0.628998	0.394089	-0.504567	122.970917	-79.209382	-15.727522
34614		10.530309	1.520080	-0.175080	0.445940	-0.815478	0.787534	-0.903824	-0.127246	-0.381934	-0.709229	-0.514648	0.293213	0.105333	0.014992	-0.001752	-0.444841	-0.628164	0.395283	-0.501276	122.022855	-78.944971	-15.309663
34615		10.208113	1.207015	-0.204283	0.712023	-0.671452	0.421874	-0.910450	-0.165400	-0.342288	-0.697754	-0.523438	0.293457	0.102103	0.011886	-0.002013	-0.448223	-0.627222	0.396856	-0.498191	121.389609	-78.728611	-15.195802
34616		10.058016	1.877317	0.105990	0.177173	-1.142722	0.354020	-0.915472	-0.201841	-0.344468	-0.699951	-0.530029	0.291504	0.100611	0.018605	0.001076	-0.451832	-0.626436	0.398333	-0.494729	120.720688	-78.461701	-15.065856
34617		10.097489	1.396023	0.252858	0.715295	-1.146589	0.294025	-0.831041	-0.139090	-0.423415	-0.699463	-0.541016	0.285156	0.101002	0.013757	0.002541	-0.455197	-0.625739	0.399375	-0.491677	119.985651	-78.212348	-14.801404
34618		9.747671	0.782319	-0.667424	1.048495	-0.067325	-0.067408	-0.655813	-0.088717	-0.487611	-0.688232	-0.545410	0.278564	0.097498	0.007564	-0.006656	-0.458531	-0.625514	0.399476	-0.488774	119.044988	-77.908522	-14.237893
34619		9.902793	1.768544	-1.817795	-0.080411	0.791361	0.378699	-0.539205	-0.067866	-0.546878	-0.683350	-0.556396	0.283203	0.099082	0.017366	-0.018191	-0.461413	-0.625532	0.399238	-0.486228	118.202952	-77.615086	-13.692301
34620		9.850661	1.794197	-2.258446	-0.148018	1.235903	0.375807	-0.533678	-0.051554	-0.614519	-0.667480	-0.565186	0.274658	0.098567	0.017579	-0.022606	-0.464718	-0.625721	0.398556	-0.483387	117.174141	-77.255505	-12.964924
34621		9.730876	2.164017	-2.412168	-0.485272	1.323099	0.346289	-0.586257	-0.037963	-0.706940	-0.666992	-0.580566	0.272949	0.097389	0.021225	-0.024166	-0.468178	-0.625853	0.397847	-0.480453	116.132821	-76.883949	-12.241057
34622		10.009391	1.813027	-2.185322	0.054461	1.209951	0.520891	-0.687135	-0.000659	-0.823032	-0.655762	-0.584717	0.268555	0.100167	0.017643	-0.021914	-0.472537	-0.625940	0.396773	-0.476947	114.800558	-76.424379	-11.291889
34623		10.190461	0.350062	-1.744588	1.678383	1.157348	0.329018	-0.765694	0.052287	-0.955276	-0.646484	-0.595703	0.269043	0.101915	0.002947	-0.017485	-0.477305	-0.625890	0.395480	-0.473326	113.344142	-75.937038	-10.243764
34624		10.490877	-0.011992	-1.668513	2.228087	1.193486	0.504887	-0.747554	0.117041	-1.129132	-0.636963	-0.611084	0.262695	0.104896	-0.000775	-0.016744	-0.482760	-0.626103	0.393303	-0.469308	111.642157	-75.332764	-8.944780
34625		11.257411	-0.381035	-0.961920	3.046405	0.606449	1.056966	-0.627891	0.205061	-1.325627	-0.618652	-0.628662	0.256592	0.112535	-0.004587	-0.009721	-0.488225	-0.626696	0.390122	-0.465504	109.868840	-74.664284	-7.481286
34626		11.717758	-0.305101	-0.268073	3.393533	-0.037923	1.410078	-0.486749	0.297480	-1.535291	-0.611816	-0.637451	0.254639	0.117145	-0.003957	-0.002846	-0.494082	-0.627837	0.385589	-0.461545	107.958001	-73.858151	-5.799429
34627		12.068388	-0.732102	0.333488	4.183363	-0.464069	1.526342	-0.320117	0.383545	-1.715619	-0.591064	-0.655029	0.246338	0.120621	-0.008351	0.003116	-0.499764	-0.629444	0.379981	-0.457876	106.102490	-72.982692	-4.054775
34628		12.445126	0.380513	0.732294	3.530891	-0.999328	2.107529	-0.184646	0.454499	-1.882499	-0.577393	-0.667969	0.248779	0.124496	0.002640	0.007037	-0.505652	-0.631530	0.373200	-0.454100	104.267299	-71.984920	-2.249832
34629		12.708529	1.024689	1.313206	3.348965	-1.592713	2.456089	-0.038958	0.538039	-2.038530	-0.552490	-0.676514	0.247070	0.127216	0.008953	0.012788	-0.511378	-0.633979	0.365472	-0.450548	102.544558	-70.920237	-0.456261
34630		13.234666	1.458163	1.109931	3.333752	-1.353478	3.054370	0.106413	0.616979	-2.169834	-0.530029	-0.687500	0.242920	0.132528	0.013139	0.010698	-0.517146	-0.636821	0.356606	-0.447047	100.896448	-69.753520	1.356063
34631		13.707952	2.269880	0.571344	2.920321	-0.849196	3.756702	0.190585	0.660642	-2.271335	-0.516113	-0.700439	0.250000	0.137343	0.021135	0.005281	-0.522756	-0.639843	0.347215	-0.443586	99.425246	-68.539322	3.047227
34632		13.893165	2.028073	-0.111508	3.362142	0.031953	3.819289	0.159032	0.683675	-2.347498	-0.489014	-0.711426	0.241455	0.139152	0.018649	-0.001575	-0.528696	-0.642797	0.337375	-0.439853	98.030368	-67.251345	4.653152
34633		14.149822	2.379813	-0.674446	3.327379	0.679689	4.144090	0.062797	0.696997	-2.424542	-0.472900	-0.726563	0.246338	0.141748	0.022083	-0.007231	-0.534959	-0.645469	0.327576	-0.435755	96.739575	-65.925047	6.098932
34634		14.267433	2.536764	-1.181508	3.443359	1.324605	4.250301	-0.039320	0.718260	-2.508229	-0.445801	-0.737305	0.244385	0.142934	0.023574	-0.012333	-0.541752	-0.647871	0.317459	-0.431262	95.474535	-64.525018	7.471458
34635		14.738449	0.925795	-1.125969	5.387896	1.820552	3.861739	-0.192988	0.723674	-2.560768	-0.432129	-0.748291	0.238037	0.147445	0.007359	-0.011801	-0.548999	-0.649795	0.307593	-0.426325	94.270749	-63.098349	8.689701
34636		15.336772	1.703454	-1.442501	5.242017	2.206264	4.603891	-0.424546	0.727242	-2.613668	-0.407471	-0.757080	0.233887	0.153519	0.014997	-0.015016	-0.557064	-0.651047	0.297843	-0.420841	93.032493	-61.619392	9.817869
34637		16.239392	0.240963	-1.567021	7.234616	2.900264	4.521287	-0.752086	0.740844	-2.643927	-0.382324	-0.772217	0.232178	0.162347	0.000203	-0.016275	-0.566121	-0.651266	0.288726	-0.414726	91.727786	-60.123507	10.818132
34638		17.401620	-0.808354	-1.284169	9.106250	3.144171	4.757443	-1.177166	0.759980	-2.677260	-0.364258	-0.778809	0.221436	0.173836	-0.010489	-0.013445	-0.576558	-0.650148	0.280156	-0.407923	90.259397	-58.591472	11.746773
34639		18.953793	-2.003291	-1.277976	11.273018	3.719008	5.152435	-1.543304	0.788959	-2.743311	-0.341553	-0.796387	0.208740	0.189187	-0.022731	-0.013358	-0.588198	-0.647847	0.272076	-0.400364	88.680472	-57.015621	12.567617
34640		19.748092	-3.805773	-2.519400	13.328066	5.504423	4.429864	-1.935495	0.834716	-2.796291	-0.323486	-0.801025	0.184570	0.196814	-0.041059	-0.025629	-0.601090	-0.644177	0.264323	-0.392251	86.937300	-55.398447	13.339211
34641		20.317757	-5.890255	-5.196625	15.259804	8.626600	3.117296	-2.080740	0.806100	-2.997755	-0.298340	-0.816406	0.173828	0.202049	-0.062479	-0.052145	-0.614630	-0.640192	0.256280	-0.383020	85.262509	-53.653526	13.931728
34642		20.194146	-5.383767	-6.737022	14.974895	10.166548	2.617644	-1.705619	0.685233	-3.348774	-0.271240	-0.825195	0.156494	0.200765	-0.057782	-0.067578	-0.627201	-0.637793	0.246678	-0.372812	84.001538	-51.719515	14.297988
34643		19.628312	-5.399217	-8.175356	14.881652	11.575509	1.400966	-1.132675	0.497456	-3.552323	-0.241943	-0.838135	0.154785	0.195074	-0.057928	-0.081919	-0.637936	-0.637583	0.235859	-0.361797	83.281983	-49.665259	14.389194
34644		18.531271	-2.887569	-6.455597	13.000186	9.590052	1.693989	-0.658126	0.386230	-3.585385	-0.221680	-0.842529	0.145996	0.184628	-0.032403	-0.064810	-0.646759	-0.638894	0.224470	-0.350900	82.938715	-47.623529	14.352036
34645		17.961396	-3.000046	-7.711303	12.914748	10.806769	0.553887	-0.141707	0.274723	-3.387465	-0.199219	-0.851074	0.141846	0.178965	-0.033090	-0.077336	-0.653368	-0.641664	0.212978	-0.340614	82.944851	-45.678157	14.232054
34646		17.216466	-3.131326	-5.359577	13.196328	8.429879	-0.341298	0.297216	0.246635	-3.116039	-0.178955	-0.853271	0.139893	0.171583	-0.033910	-0.053857	-0.657761	-0.645457	0.201870	-0.331639	83.201235	-43.922225	14.117255
34647		17.075846	-2.855172	-1.736952	13.745644	4.902488	-0.338468	0.881973	0.314272	-2.537057	-0.163330	-0.859619	0.148926	0.170351	-0.030637	-0.017769	-0.659378	-0.650338	0.191169	-0.325170	83.694539	-42.457725	14.134985
34648		15.993671	-2.126011	-0.965813	12.825817	3.981631	-0.819341	-0.726592	0.442321	-2.560050	-0.147461	-0.861816	0.133545	0.159625	-0.023340	-0.009929	-0.666092	-0.649620	0.182832	-0.317628	83.216028	-41.013843	14.239080
34649		10.811101	0.250541	-1.545929	7.559106	3.545983	-2.769064	-1.472705	0.505603	-2.182849	-0.131592	-0.870850	0.111816	0.108089	0.001210	-0.015745	-0.674743	-0.645850	0.176383	-0.310626	82.262412	-39.736812	14.408672
34650		4.572642	10.287152	-4.072460	-3.810998	4.753312	0.492068	-2.857127	0.119102	-1.877485	-0.124512	-0.879883	0.081055	0.046661	0.101840	-0.042212	-0.686700	-0.637602	0.174638	-0.302339	80.712657	-38.710910	14.284622
34651		13.145573	3.570916	-5.581638	6.994225	8.082689	0.308963	-3.249481	0.004526	-1.727509	-0.122314	-0.882568	0.052246	0.131751	0.033659	-0.056377	-0.699556	-0.627839	0.174000	-0.293535	78.986325	-37.736479	14.065731
34652		10.099966	-5.454516	-4.008466	10.721728	5.589080	-8.535339	-2.433106	0.157376	-0.791558	-0.115234	-0.887207	0.028076	0.100750	-0.055427	-0.039493	-0.708248	-0.619780	0.174892	-0.289260	77.614378	-37.321641	14.041535
34653		6.065448	-6.729080	-4.451603	8.438857	5.023474	-12.143996	-2.089355	-0.002818	0.021803	-0.130859	-0.885254	0.003662	0.060662	-0.067744	-0.043809	-0.714648	-0.612332	0.177984	-0.287487	76.416481	-37.334517	14.042988
