// General information: 
//  MT Manager version: 2019.2.0 
//  XDA version: 2019.2.0 build 3853 rev 94535 built on 2019-09-09
// Device information: 
//  DeviceId: 00B40AC7
//  ProductCode: MTW2-3A7G6
//  Firmware Version: 4.3.5
//  Hardware Version: 1.1.0
// Device settings: 
//  Filter Profile: human(46.1)
//  Option Flags: Orientation Smoother Disabled, AHS Disabled, ICC Disabled
// Coordinate system: ENU
PacketCounter	SampleTimeFine	Acc_X	Acc_Y	Acc_Z	FreeAcc_E	FreeAcc_N	FreeAcc_U	Gyr_X	Gyr_Y	Gyr_Z	Mag_X	Mag_Y	Mag_Z	VelInc_X	VelInc_Y	VelInc_Z	Quat_q0	Quat_q1	Quat_q2	Quat_q3	Roll	Pitch	Yaw
62027		12.397365	0.965983	-1.047616	0.000000	0.000000	2.666075	-0.326845	0.231938	-2.072907	-0.366699	-0.649170	0.404053	0.124052	0.008357	-0.010634	-0.367529	-0.643864	0.357838	-0.567726	141.837863	-83.777752	-23.655008
62028		13.120110	0.337508	-0.185670	0.000000	-0.000000	3.312795	-0.473677	0.272079	-2.245465	-0.355225	-0.655762	0.413086	0.131225	0.001897	-0.002041	-0.357676	-0.618213	0.354382	-0.603567	137.089987	-88.783556	-17.557611
62029		14.347157	-0.769086	-0.060744	1.508616	0.080514	4.475188	-0.414637	0.295603	-2.431488	-0.328369	-0.662109	0.408936	0.143363	-0.009436	-0.000801	-0.370527	-0.630650	0.355107	-0.582142	131.472161	-85.874771	-13.257730
62030		15.744837	-1.409045	-1.114708	1.988585	1.504430	5.836447	-0.310818	0.273217	-2.621420	-0.303467	-0.670898	0.400391	0.157230	-0.016170	-0.011338	-0.379589	-0.633878	0.347208	-0.577544	119.147323	-84.733155	-1.070982
62031		16.424247	-2.029043	-1.445480	2.828722	2.300010	6.393859	-0.301732	0.161678	-2.811203	-0.287598	-0.677246	0.405029	0.163924	-0.022618	-0.014554	-0.388337	-0.638515	0.338627	-0.571686	112.363666	-83.247285	5.650146
62032		17.909891	-2.924189	-0.409270	4.699582	2.064705	7.597322	-0.525268	0.068712	-3.008755	-0.265137	-0.683838	0.396240	0.178631	-0.031942	-0.004073	-0.398685	-0.642318	0.330350	-0.565108	107.366587	-81.637988	10.386882
62033		18.794718	-3.912498	-0.051166	6.074238	2.293397	8.252860	-0.764239	0.025729	-3.206724	-0.244873	-0.694580	0.394531	0.187288	-0.042133	-0.000379	-0.404656	-0.643587	0.328272	-0.560613	106.041766	-80.851929	11.305225
62034		20.136209	-3.795784	-0.548858	6.515828	2.982885	9.391001	-1.096979	-0.022762	-3.381520	-0.215576	-0.698975	0.381348	0.200682	-0.041384	-0.005245	-0.417563	-0.646880	0.320460	-0.551809	102.774053	-78.971652	13.985423
62035		22.281206	-4.259647	-0.653629	6.834200	3.061420	11.609087	-1.770534	-0.064754	-3.441860	-0.201904	-0.709961	0.379639	0.222036	-0.046477	-0.006064	-0.416192	-0.640004	0.333142	-0.553349	104.091561	-80.262737	11.657124
62036		25.301229	-7.651362	-0.878971	11.011880	5.063844	13.692388	-2.489913	0.051799	-3.459063	-0.179199	-0.725342	0.355713	0.251635	-0.080976	-0.007865	-0.433720	-0.640296	0.328779	-0.542044	100.296130	-78.331451	14.067379
62037		22.744109	-10.785104	-1.893701	11.545522	6.168829	11.768922	-2.293919	0.173146	-3.633426	-0.165283	-0.740723	0.349365	0.225414	-0.112168	-0.017863	-0.417586	-0.623184	0.361022	-0.554009	107.246264	-82.754762	5.791566
62038		22.554788	-9.681121	-2.623614	11.026956	6.616429	11.255809	-1.127947	0.190750	-3.696886	-0.145020	-0.747559	0.332031	0.223681	-0.101104	-0.025888	-0.431606	-0.626857	0.352162	-0.544746	102.164418	-80.732203	10.272783
62039		20.553199	-6.068969	-4.781900	4.165404	5.751780	10.963515	0.589842	0.624742	-3.570266	-0.135986	-0.749268	0.354248	0.204256	-0.064201	-0.048644	-0.386702	-0.606438	0.395742	-0.571037	160.720234	-87.039157	-47.929062
62040		20.578058	-2.039495	-4.761837	1.007862	4.592424	10.879049	1.470098	0.686130	-3.430966	-0.111572	-0.744629	0.358643	0.205229	-0.023565	-0.048489	-0.393328	-0.614001	0.379744	-0.569290	129.942638	-86.212968	-16.257708
62041		17.384816	-1.981161	-5.311138	-0.987763	3.874428	8.029792	1.225702	0.299344	-3.397635	-0.113770	-0.753418	0.374268	0.173402	-0.022433	-0.053503	-0.350738	-0.605461	0.413861	-0.582339	-142.887643	-84.550872	-102.651951
62042		14.900244	-0.189720	-4.196935	-1.681918	2.613166	5.352837	0.896176	0.230758	-3.265888	-0.091309	-0.753174	0.372070	0.148898	-0.004141	-0.042156	-0.357961	-0.613031	0.400901	-0.579081	-160.811073	-85.563407	-84.148082
62043		10.853697	7.423433	-4.108344	-8.856454	-0.959144	0.695220	0.016594	0.167383	-3.336346	-0.086670	-0.761963	0.372314	0.109721	0.072414	-0.041169	-0.333803	-0.614566	0.423066	-0.576107	-145.751114	-82.118168	-99.134231
62044		9.272620	4.911188	-6.587726	-7.303247	2.698517	-0.175918	-1.195036	0.158078	-3.003785	-0.066162	-0.770752	0.352783	0.093394	0.047317	-0.066237	-0.346417	-0.618389	0.416959	-0.568977	-157.747759	-83.016987	-87.727474
62045		11.788075	-3.076554	-4.567660	1.253042	3.387491	2.686687	-1.594920	-0.089548	-1.891401	-0.068115	-0.779785	0.344238	0.117601	-0.032241	-0.045371	-0.344630	-0.630351	0.428736	-0.547789	-167.751329	-80.439167	-78.812813
62046		12.047920	-4.545094	-3.737702	3.223294	3.229994	2.794893	-1.757419	-0.059147	-1.682157	-0.065430	-0.795410	0.320313	0.120100	-0.046788	-0.036934	-0.354624	-0.631044	0.428318	-0.540897	-174.480464	-80.554676	-73.011147
62047		8.227389	-6.052411	-1.849137	5.342757	2.255455	-1.204189	-2.023841	0.024460	-0.925022	-0.071777	-0.802246	0.300537	0.081990	-0.061087	-0.017885	-0.350226	-0.634824	0.445467	-0.525260	-173.446338	-78.216092	-75.445527
62048		6.007585	-5.698101	-1.327731	5.204169	2.007744	-3.551221	-2.464059	-0.046980	-0.285759	-0.087158	-0.809326	0.271729	0.059997	-0.057224	-0.012559	-0.358666	-0.631221	0.451080	-0.519082	-175.651254	-78.204848	-74.635323
62049		3.726899	-4.949713	-0.443187	4.651604	1.120566	-5.851453	-2.502016	-0.123713	0.119236	-0.095703	-0.820557	0.250000	0.037301	-0.049525	-0.003789	-0.350418	-0.625809	0.472796	-0.511893	-168.837652	-76.420941	-82.939506
62050		2.337440	-3.305875	0.249002	3.290986	0.200291	-7.449818	-2.301831	-0.169791	0.480055	-0.117676	-0.825439	0.223389	0.023451	-0.032971	0.002890	-0.355966	-0.621032	0.480454	-0.506726	-169.121606	-76.272868	-84.004498
62051		1.545023	-2.350953	0.847101	2.482934	-0.545220	-8.339894	-1.971688	-0.216203	0.854695	-0.128662	-0.828125	0.199219	0.015541	-0.023358	0.008719	-0.345008	-0.612580	0.499570	-0.506108	-161.613209	-74.747150	-92.490283
62052		1.020460	-2.238441	1.228224	2.468167	-0.844095	-8.943257	-1.478537	-0.290629	1.237626	-0.150879	-0.832764	0.190430	0.010324	-0.022229	0.012462	-0.345662	-0.607645	0.507579	-0.503636	-160.231991	-74.357932	-94.802132
62053		0.860609	-2.413689	1.206093	2.597286	-0.780337	-8.996491	-0.894602	-0.374472	1.644946	-0.166504	-0.832764	0.181396	0.008781	-0.024011	0.012185	-0.331770	-0.599012	0.521891	-0.508667	-153.037547	-72.880307	-102.203533
62054		1.176666	-2.749475	1.157730	2.864950	-0.784043	-8.603752	-0.297597	-0.449283	2.089374	-0.197754	-0.831055	0.176758	0.012027	-0.027353	0.011645	-0.326156	-0.594175	0.529620	-0.509982	-150.257122	-72.084971	-105.297835
62055		1.798331	-2.669480	1.213450	2.676314	-1.060621	-7.929990	0.212699	-0.517747	2.520488	-0.226807	-0.824707	0.174316	0.018286	-0.026479	0.012153	-0.307475	-0.585305	0.540491	-0.520334	-143.066204	-70.302006	-111.906339
62056		2.465150	-2.181108	1.255429	2.081070	-1.451934	-7.369181	0.545277	-0.587033	2.908888	-0.256104	-0.815918	0.174072	0.024929	-0.021484	0.012568	-0.296690	-0.579743	0.548426	-0.524502	-139.804867	-68.999548	-115.051221
62057		2.971661	-1.774692	1.117158	1.449835	-1.602066	-6.887140	0.740647	-0.637556	3.274690	-0.289795	-0.809570	0.178223	0.029967	-0.017299	0.011202	-0.274986	-0.570148	0.557048	-0.537598	-133.493256	-66.835795	-120.327597
62058		3.206197	-1.359448	0.983799	0.877713	-1.700169	-6.741272	0.851063	-0.673016	3.604746	-0.325684	-0.796631	0.179932	0.032267	-0.013056	0.009890	-0.260948	-0.562986	0.565863	-0.542910	-130.550195	-65.042853	-123.016206
62059		3.624958	-1.201374	0.595357	0.348075	-1.565986	-6.296602	0.892649	-0.696696	3.929922	-0.359619	-0.783691	0.188477	0.036456	-0.011326	0.006029	-0.238164	-0.552598	0.573146	-0.556254	-125.566376	-62.594840	-126.816999
62060		4.170748	-1.365998	0.205828	0.063030	-1.446311	-5.664821	0.955537	-0.687358	4.268068	-0.400391	-0.761719	0.198730	0.041979	-0.012776	0.002140	-0.221626	-0.543281	0.582958	-0.562039	-123.079988	-60.352792	-129.023232
62061		5.049176	-1.490710	-0.114458	-0.458414	-1.530122	-4.795409	1.033878	-0.659062	4.608487	-0.445557	-0.744385	0.209229	0.050821	-0.013733	-0.001050	-0.197977	-0.531695	0.589715	-0.574753	-119.174914	-57.638423	-131.720017
62062		6.089418	-1.147046	-0.313044	-1.441437	-1.952304	-4.103267	1.120181	-0.628346	4.923477	-0.486572	-0.720459	0.215088	0.061161	-0.009950	-0.002997	-0.178935	-0.519921	0.600015	-0.581073	-117.016279	-54.980047	-133.542323
62063		7.123833	-0.949161	-0.452861	-2.389743	-2.403484	-3.460103	1.118182	-0.588079	5.199071	-0.527588	-0.687744	0.220703	0.071465	-0.007611	-0.004365	-0.155173	-0.507066	0.606466	-0.592456	-113.995967	-52.096148	-135.424698
62064		8.446396	-0.938536	-0.569313	-3.370082	-3.016811	-2.596766	1.068203	-0.539161	5.445265	-0.566650	-0.655029	0.228760	0.084692	-0.007052	-0.005507	-0.134641	-0.492785	0.617289	-0.598322	-112.238101	-49.105260	-136.906774
62065		10.098068	-0.408456	-0.496016	-4.918605	-4.055571	-1.956750	0.976493	-0.469961	5.646549	-0.618896	-0.620117	0.240967	0.101053	-0.001208	-0.004733	-0.112669	-0.478857	0.623588	-0.607568	-109.985318	-46.252573	-138.264735
62066		11.464645	0.831341	-0.375420	-6.907791	-5.195411	-2.228333	0.929186	-0.466123	5.810033	-0.658203	-0.576416	0.241943	0.114348	0.011655	-0.003438	-0.091295	-0.462475	0.634666	-0.612357	-108.615002	-43.022340	-139.456606
62067		12.581705	1.880162	0.258481	-8.308429	-6.571026	-2.766763	0.759981	-0.431194	5.936046	-0.695313	-0.530518	0.251709	0.125179	0.022513	0.002936	-0.072574	-0.448710	0.640290	-0.619210	-107.007714	-40.438250	-140.440474
62068		13.397199	2.633798	0.833301	-9.420849	-7.710386	-3.579038	0.585665	-0.404912	5.980106	-0.732178	-0.489014	0.252686	0.133088	0.030301	0.008688	-0.051419	-0.430831	0.651748	-0.622066	-106.067331	-37.087505	-141.405901
62069		14.215541	2.770862	1.149014	-10.102425	-8.464000	-3.703724	0.686240	-0.441845	5.965071	-0.764893	-0.445068	0.262451	0.141220	0.031890	0.011907	-0.036514	-0.419024	0.655114	-0.627623	-104.822199	-35.017043	-142.091513
62070		15.501273	3.890306	1.557162	-11.739741	-9.721648	-4.768678	1.185945	-0.517360	5.970822	-0.791016	-0.388184	0.267578	0.153720	0.043411	0.016219	-0.013584	-0.401114	0.663690	-0.631220	-103.775734	-31.628757	-142.758839
62071		17.075500	6.971548	2.095851	-14.309152	-11.479706	-6.995836	1.754182	-0.513173	5.918298	-0.819824	-0.326660	0.281494	0.168541	0.074535	0.022033	0.000593	-0.392473	0.660931	-0.639637	-102.123794	-30.085767	-143.097962
62072		18.753825	10.624812	2.895897	-16.993356	-13.548519	-10.533134	1.941681	-0.349449	5.700754	-0.834473	-0.287109	0.289307	0.184362	0.111244	0.030347	0.023787	-0.374570	0.665606	-0.645059	-100.765929	-26.844723	-143.611908
62073		20.007017	13.137188	2.430869	-19.132188	-14.370681	-12.279668	2.057875	-0.202602	5.267703	-0.849609	-0.225830	0.294189	0.196497	0.136318	0.025895	0.032040	-0.371034	0.657642	-0.654839	-99.008615	-26.346244	-143.743057
62074		22.180375	15.032153	1.185452	-21.974445	-14.772029	-14.068636	2.138547	-0.138066	4.690149	-0.862061	-0.184082	0.297607	0.218191	0.155327	0.013649	0.051804	-0.355600	0.659100	-0.660645	-97.638095	-23.675894	-144.085915
62075		23.584264	18.154324	-0.281575	-24.864483	-15.226418	-15.784253	1.997358	-0.072499	3.990307	-0.872314	-0.142334	0.301025	0.232159	0.186215	-0.000887	0.051706	-0.360387	0.646691	-0.670252	-96.071807	-24.596494	-143.923668
62076		20.247787	21.750774	-1.205442	-23.964927	-13.236787	-21.427160	1.357565	0.253384	3.470181	-0.882324	-0.109619	0.293457	0.198649	0.221053	-0.010815	0.064952	-0.347904	0.648347	-0.674084	-95.145762	-22.631968	-144.293430
62077		15.292766	22.192940	-2.314793	-21.269806	-10.319033	-22.958680	0.651542	0.462817	2.775650	-0.878662	-0.083252	0.294922	0.149775	0.224097	-0.022769	0.053055	-0.359071	0.637319	-0.679763	-94.438681	-24.868715	-144.270208
62078		13.687552	20.996500	-4.285019	-20.450143	-7.432427	-22.969100	0.286783	0.454736	2.002125	-0.883301	-0.072510	0.290283	0.134667	0.211382	-0.042856	0.058922	-0.351050	0.640025	-0.680925	-94.118349	-23.744257	-144.649215
62079		11.948755	19.188441	-6.080475	-19.925643	-5.177388	-20.952490	0.274962	0.447317	1.345718	-0.884033	-0.052734	0.289795	0.118056	0.192766	-0.060805	0.040302	-0.368156	0.628164	-0.684286	-93.876065	-26.950092	-144.496713
62080		11.259821	17.733492	-7.245628	-19.367247	-3.480700	-20.135014	0.455148	0.402654	0.757096	-0.884277	-0.046143	0.285156	0.111780	0.177924	-0.072277	0.042465	-0.364304	0.628074	-0.686296	-93.485248	-26.532080	-144.785716
62081		10.289062	17.171832	-6.421540	-18.420845	-4.015123	-19.114444	0.704319	0.287272	0.229208	-0.886475	-0.048340	0.282959	0.102602	0.172061	-0.063757	0.022728	-0.384339	0.614465	-0.688622	-93.350488	-30.092425	-144.402867
62082		8.618731	18.211620	-4.340074	-16.491801	-5.262792	-20.997640	0.910193	0.131333	-0.318730	-0.888672	-0.046143	0.276367	0.086449	0.182174	-0.042628	0.022976	-0.384758	0.610726	-0.691699	-92.790964	-30.278904	-144.478504
62083		7.646367	18.333957	-2.946293	-15.547561	-6.573253	-20.691243	0.844429	-0.028187	-0.858191	-0.892822	-0.059326	0.287842	0.077254	0.183131	-0.028679	0.005594	-0.407324	0.595787	-0.692166	-92.882000	-33.862812	-143.570792
62084		14.501774	11.981491	-8.624977	-20.319268	-3.641081	-11.266765	0.852313	-0.388287	-0.707028	-0.884033	-0.054932	0.287598	0.145607	0.119666	-0.085457	0.006038	-0.410744	0.591376	-0.693922	-92.556877	-34.257014	-143.279386
62085		8.189518	6.881912	-9.281599	-14.112550	1.174855	-9.987763	1.401077	-0.249316	-0.924066	-0.881348	-0.067871	0.299072	0.082329	0.069087	-0.092230	-0.004555	-0.432613	0.575189	-0.694250	-92.593173	-37.295353	-141.856286
62086		25.055011	-19.152253	4.224199	-3.429362	-9.151193	20.467625	-0.994339	0.854835	-0.869402	-0.885498	-0.076904	0.285889	0.249895	-0.192400	0.042128	-0.012183	-0.432111	0.576722	-0.693198	-92.804758	-37.816138	-142.443862
62087		18.094298	-26.127743	11.204982	9.950117	-8.454392	21.253758	-0.908427	0.651412	-1.303655	-0.882813	-0.094482	0.284180	0.179603	-0.261940	0.112652	-0.026776	-0.448733	0.568565	-0.688953	-93.710972	-40.448152	-141.534393
62088		15.703578	6.507512	3.289057	-10.854047	-12.404630	-4.515347	2.002576	-0.278169	-2.425193	-0.882324	-0.105225	0.291260	0.157760	0.062830	0.033746	-0.029844	-0.456798	0.556191	-0.693611	-92.771148	-41.826594	-141.218844
62089		19.872389	13.235549	-0.134812	-18.509131	-14.474836	-5.574045	1.515742	-0.572777	-2.372546	-0.877197	-0.131348	0.307373	0.200276	0.129988	0.000215	-0.037274	-0.475856	0.538258	-0.694586	-92.598255	-44.521134	-139.770469
62090		18.116404	5.926820	0.801323	-12.573687	-11.443939	-1.158615	0.339088	-0.714555	-2.380353	-0.865479	-0.151123	0.305664	0.181822	0.057092	0.008760	-0.042809	-0.484770	0.531507	-0.693300	-92.881315	-45.864044	-139.097728
62091		11.894075	4.748769	2.277693	-7.301632	-9.230782	-4.273921	-0.658335	-0.392988	-2.638886	-0.855713	-0.172852	0.308350	0.119509	0.045988	0.022858	-0.056434	-0.501819	0.520382	-0.688618	-93.921015	-48.578079	-137.783173
62092		5.768987	1.139881	-2.876319	-5.290007	-0.854069	-6.052561	0.386149	-0.664420	-2.324205	-0.853027	-0.188232	0.317627	0.057913	0.010782	-0.028550	-0.061736	-0.510226	0.513369	-0.687248	-94.250163	-49.879462	-137.056477
62093		7.970958	5.707939	-3.121628	-9.105052	-3.862344	-6.977730	1.259069	-0.782010	-2.112542	-0.845947	-0.205566	0.335938	0.080428	0.056426	-0.030546	-0.066728	-0.525464	0.498126	-0.686517	-94.516283	-51.994984	-135.460269
62094		11.633739	7.539884	0.437797	-9.394956	-9.081759	-5.161385	0.345390	-0.314541	-2.074591	-0.838867	-0.220947	0.333984	0.117104	0.074179	0.004691	-0.072156	-0.531797	0.491566	-0.685820	-94.677695	-53.165589	-135.007906
62095		7.996701	-0.745256	-1.550956	-3.800454	-1.804606	-2.797935	0.354222	-0.407508	-1.573825	-0.831787	-0.233887	0.345459	0.079937	-0.008054	-0.015361	-0.077949	-0.542921	0.481241	-0.683790	-95.251452	-54.836469	-133.759861
62096		10.032048	0.463898	-0.952396	-4.865920	-3.691401	-1.784064	0.644443	-0.436808	-1.457701	-0.829102	-0.249023	0.348145	0.100371	0.003938	-0.009291	-0.080132	-0.548155	0.475234	-0.683563	-95.352524	-55.645206	-133.187437
62097		10.206846	3.318810	0.196639	-5.741582	-6.111879	-3.111206	0.371080	-0.399668	-1.421918	-0.822021	-0.260010	0.354980	0.102297	0.032457	0.002231	-0.084654	-0.557685	0.466031	-0.681642	-95.952086	-57.054342	-131.963078
62098		9.508418	2.134995	-0.813523	-5.314679	-4.428001	-2.900706	0.438845	-0.612516	-1.227951	-0.812988	-0.266357	0.359619	0.095237	0.020783	-0.007798	-0.086188	-0.562806	0.461357	-0.680419	-96.363887	-57.716457	-131.175720
62099		10.336195	1.848477	-1.042113	-5.379024	-4.424678	-1.886388	0.686118	-0.776617	-1.179787	-0.805908	-0.281494	0.377686	0.103508	0.017909	-0.009957	-0.088293	-0.572009	0.452624	-0.678337	-97.124447	-58.865660	-129.663544
62100		9.596329	0.927620	-0.959443	-4.365627	-3.671370	-1.981256	0.746158	-0.838966	-1.160252	-0.796631	-0.294434	0.386963	0.096054	0.008754	-0.009158	-0.088195	-0.577792	0.447130	-0.677092	-97.638587	-59.463448	-128.566911
62101		10.210809	-0.297787	-1.254053	-3.793199	-2.960295	-0.714955	0.555925	-0.739116	-1.173978	-0.789795	-0.301025	0.395996	0.102134	-0.003543	-0.012172	-0.090656	-0.586023	0.439331	-0.674794	-98.515782	-60.522057	-127.083343
62102		11.037447	0.394396	-0.830778	-4.055925	-3.974680	-0.303706	0.181225	-0.576227	-1.142677	-0.778076	-0.316406	0.391846	0.110418	0.003321	-0.007986	-0.092714	-0.590548	0.435622	-0.672971	-99.176478	-61.118489	-126.207734
62103		11.486786	1.472421	-0.484102	-4.441919	-4.981755	-0.336478	-0.172465	-0.453772	-1.090671	-0.770996	-0.324951	0.396729	0.114956	0.014093	-0.004593	-0.097664	-0.596619	0.430856	-0.669978	-100.233018	-62.079924	-125.066232
62104		10.815999	1.939571	-0.454633	-4.442183	-4.992701	-1.078085	-0.521577	-0.366944	-1.003900	-0.759521	-0.342529	0.401611	0.108264	0.018841	-0.004397	-0.101793	-0.599747	0.429779	-0.667257	-101.129579	-62.606472	-124.391456
62105		10.044743	1.220687	0.176901	-3.198900	-4.629259	-1.401120	-0.703251	-0.339137	-0.921754	-0.756836	-0.353271	0.404053	0.100499	0.011750	0.001898	-0.108564	-0.603969	0.427815	-0.663634	-102.349452	-63.446697	-123.521247
62106		10.455831	1.812645	-0.156042	-3.853787	-4.878045	-1.211135	-0.636215	-0.336127	-0.842544	-0.747314	-0.370850	0.404541	0.104636	0.017681	-0.001441	-0.112562	-0.606533	0.427556	-0.660790	-103.309852	-63.874923	-122.856387
62107		10.348961	1.222603	-0.955777	-3.897624	-3.841430	-0.893014	-0.576404	-0.338570	-0.738035	-0.745117	-0.377441	0.409180	0.103550	0.011817	-0.009417	-0.118990	-0.609555	0.426380	-0.657635	-104.396245	-64.581895	-122.175692
62108		10.404375	1.269049	-1.737699	-4.418581	-3.310956	-0.735563	-0.594122	-0.300880	-0.691699	-0.726563	-0.392578	0.402832	0.104113	0.012279	-0.017257	-0.122435	-0.611660	0.426398	-0.655032	-105.305470	-64.921097	-121.546833
62109		10.100593	1.075691	-2.012070	-4.316217	-2.812268	-0.830016	-0.611922	-0.217500	-0.660703	-0.724121	-0.401367	0.407471	0.101062	0.010362	-0.020043	-0.128849	-0.613922	0.425620	-0.652185	-106.303314	-65.569390	-120.996993
62110		9.357788	-0.164936	-2.215504	-3.381733	-1.620589	-0.955995	-0.595800	-0.119902	-0.619019	-0.710205	-0.416748	0.399170	0.093585	-0.002005	-0.022093	-0.132442	-0.615241	0.425734	-0.650144	-107.016274	-65.889797	-120.589413
62111		9.740653	0.172254	-2.036518	-3.485559	-2.013849	-0.710366	-0.630168	-0.046735	-0.612130	-0.709961	-0.425537	0.408203	0.097416	0.001360	-0.020347	-0.138513	-0.617038	0.424855	-0.647747	-107.888041	-66.500783	-120.130812
62112		9.827694	0.322449	-1.737177	-3.353898	-2.306290	-0.694724	-0.787480	0.021037	-0.610602	-0.694092	-0.434326	0.395264	0.098284	0.002856	-0.017394	-0.142966	-0.617715	0.425500	-0.645708	-108.566550	-66.837176	-119.883292
62113		9.964547	0.856138	-1.802921	-3.724625	-2.543636	-0.705972	-0.928225	0.055743	-0.612448	-0.684814	-0.445068	0.397705	0.099666	0.008172	-0.018096	-0.149776	-0.619041	0.425398	-0.642956	-109.542984	-67.437381	-119.460685
62114		10.356229	1.677951	-1.349035	-4.043159	-3.434431	-0.661523	-1.054391	0.087103	-0.661635	-0.670898	-0.462646	0.393799	0.103611	0.016365	-0.013622	-0.155351	-0.619368	0.426664	-0.640474	-110.347454	-67.811093	-119.244063
62115		10.113720	1.132800	-0.673661	-3.083963	-3.442140	-0.720677	-1.108392	0.118235	-0.701095	-0.666260	-0.471436	0.385254	0.101172	0.010936	-0.006858	-0.163039	-0.620451	0.426792	-0.637423	-111.440418	-68.457644	-118.804330
62116		9.630210	0.793162	-0.882261	-2.843387	-2.872222	-0.991496	-1.112296	0.144327	-0.686696	-0.654785	-0.478027	0.380859	0.096322	0.007551	-0.008935	-0.168985	-0.620537	0.428078	-0.634924	-112.256233	-68.853951	-118.612710
62117		9.633118	0.666452	-0.947816	-2.726031	-2.661005	-0.889303	-1.025035	0.171876	-0.652431	-0.647705	-0.491211	0.381348	0.096344	0.006301	-0.009594	-0.176634	-0.621002	0.428284	-0.632242	-113.208252	-69.479316	-118.323241
62118		9.668064	0.919283	-1.280029	-3.094619	-2.504958	-0.862656	-0.863287	0.169260	-0.625309	-0.638428	-0.506592	0.370605	0.096698	0.008835	-0.012921	-0.181653	-0.621035	0.428914	-0.630357	-113.849151	-69.846876	-118.167287
62119		9.439028	1.107808	-1.515587	-3.287952	-2.274127	-1.058444	-0.696221	0.171900	-0.603743	-0.635742	-0.519775	0.375488	0.094410	0.010740	-0.015275	-0.188115	-0.621529	0.428290	-0.628396	-114.612655	-70.436138	-117.888106
62120		9.518143	1.843962	-1.489020	-3.815180	-2.678093	-1.182262	-0.521361	0.156791	-0.593273	-0.617920	-0.517334	0.375488	0.095224	0.018118	-0.015012	-0.191936	-0.621813	0.427932	-0.627203	-115.085943	-70.782705	-117.703080
62121		9.241838	1.245381	-1.443856	-3.225185	-2.220959	-1.227090	-0.403546	0.163304	-0.564685	-0.613037	-0.530762	0.364746	0.092441	0.012164	-0.014539	-0.197115	-0.622633	0.426372	-0.625844	-115.735004	-71.339527	-117.339891
62122		9.445960	0.792536	-1.299921	-2.783273	-2.093435	-0.901194	-0.296272	0.152339	-0.529526	-0.606445	-0.532715	0.369141	0.094470	0.007656	-0.013083	-0.200021	-0.622991	0.425496	-0.625161	-116.066510	-71.650952	-117.169358
62123		9.946308	1.506253	-1.183424	-3.283337	-2.654356	-0.605507	-0.157658	0.157327	-0.521924	-0.592529	-0.543701	0.367432	0.099493	0.014794	-0.011924	-0.204115	-0.624036	0.423230	-0.624334	-116.603150	-72.173612	-116.758827
62124		10.027921	2.047383	-1.381835	-3.808097	-2.779618	-0.623985	-0.161881	0.169556	-0.540575	-0.588135	-0.543701	0.371826	0.100322	0.020191	-0.013920	-0.206668	-0.624484	0.421872	-0.623965	-116.861348	-72.494322	-116.585233
62125		9.978857	1.719053	-1.158869	-3.348882	-2.687774	-0.569514	-0.168641	0.151293	-0.563696	-0.576660	-0.556641	0.372070	0.099828	0.016899	-0.011679	-0.210863	-0.625641	0.419462	-0.623026	-117.502703	-73.034296	-116.066431
62126		10.704362	1.425239	-0.653132	-2.868547	-3.064738	0.158255	-0.185742	0.140013	-0.603397	-0.560791	-0.561035	0.370117	0.107081	0.013923	-0.006619	-0.213619	-0.626272	0.418001	-0.622435	-117.906854	-73.378077	-115.755483
62127		10.503147	0.739975	-0.246908	-1.989071	-2.873157	0.122745	-0.209312	0.121843	-0.622888	-0.553955	-0.569580	0.376953	0.105052	0.007070	-0.002541	-0.218216	-0.627437	0.415666	-0.621230	-118.715227	-73.940507	-115.113762
62128		10.592633	1.343796	-0.643301	-2.669780	-2.871765	0.139613	-0.284580	0.095007	-0.662747	-0.549072	-0.580566	0.372803	0.105967	0.013078	-0.006502	-0.221366	-0.628206	0.414362	-0.620208	-119.359439	-74.299335	-114.613557
62129		11.159585	1.581017	-0.759232	-2.916178	-2.961402	0.691491	-0.403576	0.101922	-0.730479	-0.533447	-0.584961	0.368652	0.111649	0.015387	-0.007681	-0.227215	-0.629076	0.412593	-0.618388	-120.452675	-74.910530	-113.852724
62130		11.021210	1.544499	-0.993864	-2.951625	-2.659787	0.630156	-0.501728	0.101534	-0.803195	-0.521973	-0.595947	0.371094	0.110268	0.014977	-0.010033	-0.231486	-0.629843	0.411496	-0.616752	-121.443908	-75.335550	-113.124602
62131		11.057433	1.990270	-0.775199	-3.097401	-2.983605	0.595587	-0.525944	0.102626	-0.907904	-0.508301	-0.604492	0.366943	0.110659	0.019380	-0.007860	-0.238369	-0.630796	0.409595	-0.614418	-122.954557	-76.027865	-112.027123
62132		11.056301	0.892573	-0.200480	-1.800541	-2.769677	0.778090	-0.486853	0.101037	-0.982901	-0.501221	-0.617676	0.367432	0.110604	0.008377	-0.002082	-0.243130	-0.631909	0.407862	-0.612558	-124.314493	-76.529253	-110.914435
62133		11.105243	0.334634	0.355959	-0.927364	-2.816005	0.900581	-0.397732	0.059861	-1.044200	-0.476318	-0.626221	0.367676	0.111069	0.002773	0.003520	-0.250182	-0.633135	0.405365	-0.610105	-126.243647	-77.261809	-109.360728
62134		11.532177	1.054583	1.031890	-1.067257	-3.776517	1.131056	-0.285686	0.013285	-1.143067	-0.469482	-0.632813	0.370117	0.115380	0.009901	0.010297	-0.254599	-0.635044	0.402592	-0.608127	-128.171232	-77.788516	-107.554251
62135		11.863029	1.006548	1.836925	-0.481110	-4.352280	1.409756	-0.164851	-0.020915	-1.271874	-0.451660	-0.637207	0.367920	0.118689	0.009326	0.018374	-0.262205	-0.636494	0.399411	-0.605471	-130.785390	-78.582853	-105.304593
62136		12.154561	0.678498	2.322858	0.179369	-4.541578	1.716786	-0.075584	0.004666	-1.439470	-0.431152	-0.647949	0.368408	0.121591	0.005919	0.023223	-0.266809	-0.639240	0.395040	-0.603431	-133.642185	-79.196101	-102.437476
62137		12.249252	-0.254553	2.228201	1.023845	-3.820052	1.995334	0.046442	0.093187	-1.643947	-0.417725	-0.654297	0.377441	0.122476	-0.003557	0.022224	-0.276414	-0.640117	0.390985	-0.600813	-137.206716	-80.173409	-99.337916
62138		12.508318	-0.542883	1.062544	0.782156	-2.612994	2.452617	0.166968	0.211635	-1.836122	-0.392822	-0.663086	0.375488	0.125037	-0.006586	0.010488	-0.281800	-0.643275	0.384295	-0.599253	-141.438761	-80.952028	-94.951033
62139		12.861685	-0.428607	-0.565499	-0.042204	-1.163309	3.015632	0.291672	0.236087	-2.009180	-0.375000	-0.665039	0.380127	0.128558	-0.005569	-0.005814	-0.292883	-0.643806	0.379016	-0.596725	-147.102059	-82.039776	-89.779853
62140		12.872363	0.232112	-1.291789	-0.785884	-0.750459	3.080456	0.309211	0.225288	-2.168757	-0.354736	-0.671387	0.377930	0.128724	0.000945	-0.013061	-0.298770	-0.647658	0.370757	-0.594823	-154.595913	-82.759753	-82.041245
62141		13.002019	0.418683	-1.040896	-0.578741	-0.826266	3.198305	0.195668	0.203266	-2.341278	-0.339111	-0.675537	0.395996	0.130047	0.002675	-0.010538	-0.310579	-0.648921	0.364511	-0.591248	-165.481435	-83.598582	-71.642216
62142		14.041439	-0.274359	-0.598916	0.540499	-0.726252	4.214630	0.118038	0.238159	-2.551993	-0.309814	-0.684326	0.387451	0.140357	-0.004531	-0.006159	-0.318152	-0.652999	0.355480	-0.588223	-178.536308	-83.939393	-58.442517
62143		15.361207	-1.074336	-1.149103	1.299889	0.352337	5.569526	0.173188	0.276148	-2.750430	-0.303223	-0.679688	0.402832	0.153429	-0.012844	-0.011713	-0.330909	-0.654764	0.347692	-0.583861	164.600059	-84.093531	-42.033812
62144		15.919953	-2.207972	-1.956542	2.213526	1.874192	6.115828	0.074644	0.161864	-2.909567	-0.260498	-0.694824	0.392334	0.158840	-0.024385	-0.019703	-0.339408	-0.659404	0.337641	-0.579644	150.077517	-83.532133	-27.384307
62145		17.752579	-0.463572	-1.617368	1.547432	0.892983	7.928976	-0.254758	-0.036258	-3.137459	-0.249268	-0.694580	0.401123	0.177427	-0.007440	-0.016133	-0.353408	-0.662039	0.330123	-0.572561	136.442421	-82.502936	-14.384302
62146		20.238531	-2.483622	-2.828489	3.454796	3.214791	10.223738	-0.251783	-0.237049	-3.272420	-0.215820	-0.694580	0.392334	0.201976	-0.028179	-0.028011	-0.363174	-0.667585	0.320383	-0.565500	128.256591	-81.021706	-6.259915
62147		21.596371	-7.609704	-2.205131	8.914065	5.677979	10.618419	0.411190	-0.547717	-3.180778	-0.209229	-0.694336	0.405762	0.214777	-0.079474	-0.021623	-0.373342	-0.672953	0.311494	-0.557424	122.737078	-79.366567	-0.938309
62148		23.664739	-4.197533	-0.743876	7.835945	2.923795	12.730330	-0.064360	-0.547961	-3.312827	-0.177734	-0.705078	0.399414	0.235928	-0.045890	-0.006777	-0.381889	-0.679425	0.301502	-0.549216	119.226760	-77.576360	2.606122
62149		26.063047	-7.612442	-0.124626	12.252349	4.457626	14.002906	-1.612776	-0.321469	-3.385339	-0.168213	-0.718506	0.388672	0.259293	-0.080525	-0.000191	-0.399522	-0.679844	0.297814	-0.538053	114.553477	-75.824627	5.857949
62150		21.913676	-10.692283	-2.386575	13.422797	8.088837	9.017145	-1.405273	-0.301264	-3.442835	-0.145752	-0.727051	0.384521	0.217286	-0.110837	-0.022768	-0.413045	-0.682857	0.290438	-0.527964	111.479693	-73.940711	8.207422
62151		19.807661	-3.483143	-4.294093	6.583467	6.315957	8.616576	-0.874528	-0.381942	-3.396009	-0.132080	-0.733643	0.378174	0.197526	-0.038375	-0.042401	-0.427992	-0.683748	0.286230	-0.517092	108.871694	-72.199941	9.642551
62152		20.528757	-0.087735	-5.320212	4.102018	5.910380	10.135851	-0.412972	-0.330457	-3.203086	-0.114014	-0.742432	0.374023	0.205325	-0.004275	-0.052856	-0.437159	-0.688213	0.277013	-0.508447	107.474614	-70.396593	10.867476
62153		16.249266	-0.641796	-4.985990	3.830927	5.828890	5.699689	-0.327618	-0.114910	-3.257673	-0.093750	-0.746582	0.369873	0.162387	-0.009145	-0.049753	-0.448577	-0.689905	0.270483	-0.499649	105.739009	-68.762281	11.956833
62154		14.482081	0.423339	-4.582735	2.937873	5.087298	4.200857	-0.459384	0.068598	-3.256608	-0.084473	-0.757568	0.361328	0.144847	0.001770	-0.045883	-0.458332	-0.693014	0.260204	-0.491891	104.196847	-66.969207	13.337289
62155		11.197457	7.493207	-5.555923	-4.104792	2.787938	3.889764	-0.922354	0.012443	-3.313083	-0.068604	-0.768799	0.350586	0.113189	0.072806	-0.055905	-0.470491	-0.693693	0.253577	-0.482832	102.580029	-65.296957	14.201221
62156		11.875486	-0.307248	-7.965264	1.816725	8.607716	1.463535	-2.178629	0.156429	-2.713721	-0.063721	-0.777588	0.328613	0.118628	-0.005551	-0.079694	-0.484728	-0.691526	0.249015	-0.474154	100.493448	-63.790917	15.129462
62157		13.454210	-2.728348	-6.034386	5.574846	8.161612	1.464125	-2.454841	-0.092677	-2.093545	-0.054443	-0.784668	0.302246	0.134269	-0.029427	-0.059929	-0.496780	-0.688534	0.248215	-0.466391	98.962819	-62.731370	15.388373
62158		11.572148	-3.292729	-3.347048	6.548870	5.749585	-0.868016	-2.486111	0.121014	-1.631380	-0.062744	-0.802490	0.278320	0.115425	-0.034283	-0.033120	-0.509240	-0.684025	0.248065	-0.459617	97.158008	-61.815121	15.817992
62159		8.616670	-4.081375	-1.429543	6.710926	3.865409	-4.070930	-2.672131	-0.035757	-1.026990	-0.058105	-0.813721	0.252197	0.085957	-0.041441	-0.013729	-0.518654	-0.679147	0.250937	-0.454739	95.805342	-61.398304	15.863627
62160		6.134324	-3.349131	-0.692221	5.334827	2.533786	-6.012137	-2.670761	-0.210632	-0.598540	-0.068604	-0.825195	0.221436	0.061249	-0.033763	-0.006408	-0.528773	-0.673388	0.255497	-0.449076	94.437901	-61.045471	15.677844
62161		3.863425	-2.716503	-0.052045	4.015168	1.360709	-7.730734	-2.414385	-0.315948	-0.189970	-0.075195	-0.827637	0.199219	0.038609	-0.027205	-0.000131	-0.535250	-0.668151	0.262121	-0.445392	93.594855	-61.137261	15.194756
62162		2.938002	-2.511528	0.602507	3.637907	0.495796	-8.462828	-2.007148	-0.375169	0.219182	-0.092773	-0.839111	0.175293	0.029396	-0.025021	0.006332	-0.540950	-0.663293	0.268310	-0.442069	92.847690	-61.250082	14.734974
62163		2.167089	-2.502344	1.053478	3.402182	-0.093168	-9.116962	-1.461063	-0.467344	0.621080	-0.097168	-0.837158	0.161865	0.021723	-0.024878	0.010768	-0.542645	-0.659286	0.276634	-0.440854	92.715640	-61.826970	13.933940
62164		1.313922	-2.420849	1.346216	3.018992	-0.533614	-9.813182	-0.863343	-0.589836	1.028301	-0.128174	-0.841797	0.155273	0.013223	-0.024082	0.013605	-0.542396	-0.656804	0.283517	-0.440492	92.913245	-62.398391	13.150684
62165		0.708092	-2.508575	1.360660	2.823100	-0.619730	-10.352776	-0.285522	-0.702876	1.444840	-0.141602	-0.837402	0.148438	0.007214	-0.025014	0.013668	-0.538632	-0.654656	0.293360	-0.441861	93.754740	-63.451957	11.865818
62166		0.490140	-2.082362	1.379788	2.371050	-0.768779	-10.329712	0.266736	-0.807364	1.860890	-0.168457	-0.837646	0.144043	0.005039	-0.020796	0.013790	-0.532437	-0.654395	0.301018	-0.444597	95.018510	-64.479290	10.629446
62167		0.655423	-1.655082	1.363827	2.067721	-0.854975	-9.962333	0.608971	-0.869327	2.230397	-0.192871	-0.840088	0.152832	0.006679	-0.016518	0.013617	-0.524172	-0.653118	0.312427	-0.448408	96.816002	-65.959531	8.751296
62168		0.953118	-1.880074	1.162668	2.335117	-0.580047	-9.738279	0.857677	-0.904710	2.596348	-0.226563	-0.831299	0.156738	0.009722	-0.018725	0.011590	-0.514085	-0.653272	0.321319	-0.453550	98.970654	-67.361615	6.939990
62169		1.373840	-2.241042	0.970762	2.757491	-0.293101	-9.410126	1.127698	-0.922772	2.966553	-0.255859	-0.822754	0.160889	0.014025	-0.022258	0.009646	-0.502579	-0.651495	0.334356	-0.459538	101.779528	-69.204488	4.239447
62170		1.880123	-2.335763	0.806502	2.961107	-0.092172	-8.883277	1.397012	-0.932592	3.318848	-0.287354	-0.813965	0.173828	0.019149	-0.023098	0.007992	-0.488759	-0.651488	0.344240	-0.467094	105.237453	-70.928764	1.413032
62171		2.529625	-2.386953	0.773664	3.163154	-0.070983	-8.174573	1.630604	-0.915672	3.670474	-0.316650	-0.807373	0.189209	0.025694	-0.023463	0.007661	-0.474007	-0.648757	0.358475	-0.475318	109.808213	-73.052314	-2.854983
62172		3.321886	-2.503042	0.753072	3.423463	-0.044039	-7.334127	1.793739	-0.847325	4.022947	-0.357422	-0.783447	0.203857	0.033683	-0.024423	0.007452	-0.456993	-0.647649	0.369177	-0.485198	115.503022	-74.993806	-7.708537
62173		4.406431	-2.056587	0.528125	3.085394	-0.075690	-6.018436	1.945004	-0.746726	4.358585	-0.400635	-0.761475	0.220947	0.044480	-0.019651	0.005253	-0.439782	-0.642738	0.384413	-0.495687	123.463478	-77.241670	-15.270949
62174		5.561789	-1.160154	0.336817	2.254458	-0.321866	-4.597211	1.990008	-0.633627	4.649534	-0.439209	-0.737549	0.233398	0.055857	-0.010339	0.003438	-0.420507	-0.639540	0.395688	-0.507536	133.918506	-79.100126	-24.785541
62175		6.377255	-0.805834	0.302275	1.764848	-0.602407	-3.654408	2.035923	-0.498559	4.954959	-0.479980	-0.715576	0.257080	0.063939	-0.006507	0.003111	-0.401743	-0.631679	0.411617	-0.519764	149.805054	-80.886871	-40.278527
62176		7.621596	-0.497765	-0.075143	1.178411	-0.620288	-2.292375	2.193853	-0.365572	5.269866	-0.527832	-0.680664	0.264893	0.076313	-0.002960	-0.000652	-0.380207	-0.625933	0.423122	-0.533495	170.186839	-81.734879	-59.620413
62177		8.925870	1.114956	-0.086539	-0.710379	-1.521335	-0.976303	2.301380	-0.249085	5.531056	-0.567139	-0.643311	0.279297	0.088906	0.013620	-0.000607	-0.359228	-0.615325	0.438777	-0.547545	-164.891831	-81.524079	-84.026936
62178		9.943116	1.924410	0.279100	-1.798179	-2.516975	-0.166428	2.061711	-0.076230	5.748052	-0.610596	-0.606201	0.287109	0.098823	0.022060	0.003047	-0.336819	-0.606341	0.450746	-0.561900	-145.295439	-80.078783	-102.675997
62179		10.863634	2.552598	0.081585	-3.102844	-2.931297	0.496746	1.875990	0.027853	5.922329	-0.650146	-0.549316	0.301025	0.107818	0.028718	0.001060	-0.316221	-0.592069	0.466898	-0.575729	-130.034769	-77.695658	-117.656360
62180		12.231235	3.541504	0.052980	-4.751297	-3.780959	1.377868	1.700425	0.113024	6.028389	-0.691406	-0.516602	0.306641	0.121172	0.039073	0.000783	-0.293948	-0.580071	0.479438	-0.589280	-120.637688	-74.907896	-126.321989
62181		14.065165	4.876012	0.121201	-6.957481	-4.936251	2.384793	1.675034	0.147234	6.041085	-0.724365	-0.461670	0.318359	0.139095	0.052966	0.001541	-0.273409	-0.563849	0.494601	-0.602239	-113.523629	-71.731954	-133.215898
62182		15.988055	6.975836	0.165439	-9.900535	-6.495682	2.993627	1.885848	0.128038	5.988051	-0.759277	-0.411377	0.323730	0.157699	0.074483	0.002241	-0.250249	-0.550958	0.505382	-0.615150	-108.820267	-68.557704	-137.065750
62183		17.450986	10.207857	0.429113	-13.722481	-8.521219	2.348109	2.026561	0.176875	5.879568	-0.787842	-0.358887	0.333252	0.171415	0.107099	0.005207	-0.228840	-0.535029	0.516918	-0.627831	-104.816737	-65.284978	-140.528449
62184		19.086106	12.551359	0.180570	-16.914061	-9.941946	1.882729	1.947021	0.325368	5.594367	-0.807129	-0.306152	0.331787	0.187256	0.130762	0.002755	-0.206815	-0.521544	0.525170	-0.639857	-101.834568	-62.208720	-142.608640
62185		21.146231	15.077462	-0.430191	-20.569928	-11.138422	1.471988	1.857638	0.396944	5.042674	-0.826416	-0.262451	0.335205	0.207564	0.156075	-0.003283	-0.188622	-0.507364	0.532452	-0.650768	-99.267245	-59.453468	-144.547039
62186		22.780651	19.015340	-1.128701	-25.059103	-12.740577	-0.252733	1.522650	0.422523	4.287913	-0.836670	-0.218750	0.331787	0.223637	0.195059	-0.010290	-0.171886	-0.495879	0.537836	-0.659767	-97.430696	-57.058016	-145.680372
62187		21.431551	23.776579	-1.976870	-28.695815	-13.467966	-4.954710	0.596870	0.487376	3.528738	-0.851074	-0.185791	0.330811	0.210028	0.241555	-0.019567	-0.161349	-0.486141	0.543028	-0.665398	-96.296158	-55.304423	-146.610681
62188		16.872619	24.198746	-3.153046	-27.535902	-11.040988	-9.877200	-0.598224	0.581965	3.043369	-0.858154	-0.170654	0.319336	0.164925	0.244420	-0.032743	-0.154240	-0.475399	0.551877	-0.667560	-95.915148	-53.606276	-147.500146
62189		13.675116	22.379744	-4.664045	-25.356377	-7.910493	-11.825318	-1.259830	0.441512	2.432644	-0.861084	-0.148682	0.318848	0.133913	0.225137	-0.048354	-0.150593	-0.470278	0.558344	-0.666642	-96.231582	-52.672219	-147.660368
62190		12.272604	20.969588	-5.787285	-24.190053	-5.610941	-12.490293	-1.393052	0.296616	1.712768	-0.863525	-0.137939	0.307617	0.120839	0.210325	-0.059517	-0.148980	-0.463431	0.566756	-0.664699	-96.669902	-51.716498	-148.115840
62191		11.180507	19.266941	-6.246213	-22.587420	-4.341435	-12.299912	-0.929105	0.237829	1.087308	-0.867920	-0.140137	0.312012	0.110681	0.192980	-0.063490	-0.146910	-0.466205	0.567160	-0.662873	-97.232121	-51.694043	-147.389407
62192		10.953693	18.169325	-5.717434	-21.449088	-4.242409	-11.988557	-0.151878	0.194042	0.427779	-0.879395	-0.133545	0.307373	0.109092	0.181883	-0.057418	-0.146399	-0.464237	0.568515	-0.663207	-97.141353	-51.465168	-147.616361
62193		10.095875	18.361334	-4.478705	-20.491309	-5.593684	-12.630419	0.655175	-0.026601	-0.227505	-0.863770	-0.129150	0.313965	0.101174	0.183644	-0.044172	-0.142682	-0.475561	0.559130	-0.663970	-97.285071	-52.285914	-145.970935
62194		9.651765	18.563303	-2.808039	-19.574710	-7.156868	-13.165555	1.131736	-0.202317	-0.720464	-0.868164	-0.137939	0.314209	0.097214	0.185438	-0.026933	-0.141818	-0.479045	0.553789	-0.666124	-96.852583	-52.681786	-145.698718
62195		8.204614	17.380188	-0.431562	-16.621003	-8.989568	-13.347487	1.152740	-0.235499	-1.142013	-0.861084	-0.150879	0.321045	0.083041	0.173350	-0.003218	-0.138504	-0.495441	0.539333	-0.666689	-97.119884	-54.096895	-143.387688
62196		12.450545	11.378993	-6.218552	-17.187883	-3.458838	-5.840812	1.312400	-0.491435	-0.911306	-0.861084	-0.148682	0.327637	0.125175	0.113624	-0.061133	-0.136965	-0.500430	0.533020	-0.668356	-96.845872	-54.581518	-142.799497
62197		5.714987	-1.562247	-10.121017	-6.953451	7.012914	-3.487825	1.615330	-0.394298	-0.691554	-0.856445	-0.155029	0.330078	0.057297	-0.015003	-0.101220	-0.130043	-0.517071	0.517163	-0.669529	-97.113603	-55.780993	-140.105080
62198		17.563437	-20.593418	-2.876439	5.451211	4.958920	16.389024	-0.267260	0.406935	-0.311328	-0.863037	-0.159668	0.330078	0.175255	-0.206246	-0.028846	-0.132832	-0.516340	0.516984	-0.669684	-96.957402	-55.987289	-140.478773
62199		23.069685	-16.731205	9.459353	7.944350	-8.498606	17.869057	-0.704621	0.906047	-1.149472	-0.855713	-0.181641	0.322021	0.230159	-0.168304	0.094142	-0.135888	-0.528124	0.506704	-0.667736	-97.619969	-57.458722	-138.882467
62200		23.451804	8.634712	6.894245	-11.594009	-17.718774	5.142513	0.658564	0.305679	-2.638427	-0.852783	-0.199219	0.320068	0.235733	0.083016	0.068860	-0.143725	-0.534189	0.497280	-0.668355	-97.278690	-58.981188	-138.840111
62201		22.333851	10.914487	5.292161	-12.807006	-17.140290	3.901977	0.534154	-0.328611	-2.398991	-0.841064	-0.218750	0.325195	0.224537	0.106314	0.053576	-0.147389	-0.550910	0.481386	-0.665614	-98.378729	-61.079246	-136.286712
62202		14.409903	1.720228	2.894377	-4.443876	-7.950798	1.849668	-0.374228	-0.619757	-2.164281	-0.831543	-0.236084	0.334473	0.144184	0.015697	0.029360	-0.154128	-0.557873	0.477091	-0.661367	-99.603090	-62.249540	-135.139450
62203		3.378546	-0.921673	-1.276815	-1.113331	0.387562	-6.276569	0.004097	-0.625476	-2.097798	-0.826416	-0.262451	0.339600	0.033726	-0.009570	-0.012663	-0.159311	-0.572745	0.464189	-0.656591	-101.516449	-64.160634	-132.270374
62204		5.928779	8.101385	-0.455598	-7.961009	-5.793302	-7.801279	1.015039	-0.604178	-2.049506	-0.821533	-0.275391	0.351074	0.060127	0.080422	-0.003966	-0.161726	-0.580257	0.455431	-0.655537	-102.161587	-65.240031	-130.913660
62205		11.145331	7.936067	1.779790	-7.535452	-9.215685	-2.837743	0.464411	-0.198422	-1.788209	-0.805420	-0.292725	0.353760	0.112139	0.078318	0.018092	-0.165695	-0.592629	0.441450	-0.653038	-103.628468	-66.971406	-128.341284
62206		7.202268	1.324530	-2.640767	-4.349086	-0.899826	-3.419268	0.631680	-0.356427	-1.303263	-0.807617	-0.294922	0.360352	0.072154	0.012858	-0.026238	-0.167295	-0.597179	0.435803	-0.652277	-104.170107	-67.648392	-127.362040
62207		11.530017	1.505294	-2.681496	-5.244390	-2.262737	0.664549	0.571695	-0.241174	-1.239534	-0.791748	-0.305664	0.367188	0.115423	0.014414	-0.026634	-0.169471	-0.607859	0.423203	-0.650143	-105.764985	-69.040261	-124.687393
62208		10.854732	0.793381	-0.492665	-3.062151	-3.255387	0.123196	0.095650	-0.141742	-1.133777	-0.791016	-0.329834	0.367920	0.108593	0.007321	-0.004846	-0.172571	-0.610794	0.419553	-0.648942	-106.395004	-69.643258	-123.955636
62209		10.548375	0.917631	-0.956143	-3.137347	-2.821435	-0.054610	0.201720	-0.209423	-0.998401	-0.783936	-0.336426	0.368164	0.105538	0.008659	-0.009442	-0.175317	-0.620013	0.408990	-0.646200	-108.377239	-70.858414	-121.165699
62210		11.365446	2.456413	-1.360571	-4.580423	-3.633701	0.329958	0.063284	-0.149012	-1.011362	-0.774902	-0.347412	0.368408	0.113787	0.023993	-0.013513	-0.178091	-0.622614	0.405769	-0.644971	-109.122991	-71.381100	-120.339355
62211		10.114903	0.422985	-0.891778	-2.340126	-2.329291	-0.201083	0.118393	-0.251121	-0.903339	-0.772461	-0.353760	0.370850	0.101178	0.003778	-0.008788	-0.180991	-0.631129	0.396034	-0.641931	-111.507414	-72.485268	-117.258200
62212		10.246412	0.119109	-2.313437	-3.002033	-1.092665	0.194725	0.041152	-0.240278	-0.878352	-0.753906	-0.373535	0.373535	0.102496	0.000746	-0.023011	-0.183212	-0.633675	0.393336	-0.640450	-112.500052	-72.901811	-116.193941
62213		10.628748	1.513671	-1.676047	-3.419765	-2.461045	0.203206	-0.220236	-0.109510	-0.962596	-0.751465	-0.382080	0.380371	0.106368	0.014606	-0.016719	-0.187766	-0.641057	0.384590	-0.637087	-115.278508	-73.996406	-112.967365
62214		10.077613	0.638919	-0.783839	-2.042650	-2.365365	-0.178746	-0.201190	-0.106040	-0.894663	-0.742188	-0.393066	0.374023	0.100807	0.005930	-0.007791	-0.191065	-0.642924	0.382450	-0.635512	-116.379328	-74.432938	-111.943352
62215		10.550179	0.566870	-1.441055	-2.269235	-1.865641	0.437853	-0.118768	-0.084349	-0.819059	-0.730713	-0.401611	0.383301	0.105530	0.005228	-0.014369	-0.195107	-0.649526	0.374089	-0.632540	-119.360824	-75.392744	-108.518524
62216		10.804249	0.702059	-1.622531	-2.442070	-1.828933	0.701489	-0.270651	-0.041976	-0.805830	-0.723633	-0.417236	0.376953	0.108073	0.006563	-0.016212	-0.198466	-0.650900	0.372355	-0.631104	-120.496289	-75.782559	-107.506442
62217		10.536929	0.597688	-1.154836	-1.833268	-1.938307	0.463462	-0.350085	-0.016706	-0.769007	-0.716797	-0.421387	0.377197	0.105392	0.005551	-0.011550	-0.203364	-0.656519	0.365077	-0.627968	-123.884181	-76.663899	-103.858743
62218		9.845043	1.006762	-0.795370	-1.795239	-2.258490	-0.312849	-0.300949	-0.002432	-0.729713	-0.705078	-0.438965	0.377686	0.098486	0.009696	-0.007967	-0.206649	-0.657552	0.363616	-0.626661	-125.077606	-77.009473	-102.810375
62219		9.857034	1.022435	-0.828459	-1.661271	-2.154605	-0.247631	-0.297722	0.002490	-0.669249	-0.698242	-0.445313	0.382324	0.098604	0.009882	-0.008301	-0.211317	-0.662489	0.356816	-0.623807	-128.718461	-77.777788	-98.941842
62220		9.880489	0.801376	-0.963686	-1.545063	-1.872201	-0.153376	-0.251091	0.016442	-0.598834	-0.686768	-0.456299	0.378174	0.098827	0.007706	-0.009655	-0.214058	-0.663242	0.355585	-0.622775	-129.848183	-78.051061	-97.933824
62221		10.322034	1.310931	-0.969054	-1.779617	-2.200781	0.246696	-0.202222	0.038305	-0.574472	-0.682129	-0.460693	0.378174	0.103256	0.012803	-0.009723	-0.218376	-0.667550	0.349106	-0.620333	-133.638392	-78.719133	-93.921197
62222		10.505176	0.643532	-0.971810	-1.252063	-1.750532	0.535499	-0.169129	0.040554	-0.533650	-0.668701	-0.467285	0.378418	0.105066	0.006147	-0.009745	-0.220679	-0.668174	0.347792	-0.619585	-134.737799	-78.956301	-92.899557
62223		11.440535	1.179132	-1.156240	-1.619103	-2.049751	1.447409	-0.228572	-0.017082	-0.521986	-0.657227	-0.475830	0.376465	0.114437	0.011479	-0.011566	-0.225002	-0.672125	0.341969	-0.616993	-138.977177	-79.507659	-88.503839
62224		9.740851	0.420403	-1.159504	-1.026623	-1.196914	-0.121527	-0.258310	-0.044778	-0.502894	-0.652588	-0.482422	0.383301	0.097421	0.003944	-0.011578	-0.227358	-0.672834	0.341112	-0.615829	-140.420593	-79.676136	-87.186958
62225		10.119445	0.495924	-1.109368	-0.905461	-1.264301	0.260110	-0.256872	-0.063078	-0.503330	-0.638916	-0.493408	0.383545	0.101210	0.004690	-0.011068	-0.231758	-0.676508	0.335797	-0.613078	-145.124227	-80.114448	-82.384972
62226		10.122499	1.421910	-0.874362	-1.387737	-2.021091	0.149263	-0.267386	-0.077554	-0.506355	-0.638916	-0.493164	0.390137	0.101264	0.013951	-0.008723	-0.234099	-0.677288	0.334979	-0.611774	-146.820637	-80.241538	-80.819024
62227		9.947128	0.882632	-0.532983	-0.631018	-1.794845	0.005082	-0.284473	-0.053528	-0.491520	-0.622559	-0.510742	0.379639	0.099494	0.008574	-0.005316	-0.238696	-0.680535	0.330088	-0.609047	-151.833143	-80.587679	-75.767561
62228		9.643978	0.460476	-0.605388	-0.341006	-1.381642	-0.244018	-0.291590	-0.040702	-0.472583	-0.618408	-0.508545	0.388428	0.096452	0.004368	-0.006041	-0.241074	-0.681093	0.329401	-0.607857	-153.537579	-80.692610	-74.209677
62229		9.839359	0.980111	-1.068781	-0.909140	-1.337332	0.000605	-0.264955	-0.026270	-0.464477	-0.606934	-0.517334	0.382080	0.098417	0.009558	-0.010688	-0.245683	-0.683826	0.324931	-0.605345	-158.596447	-80.953263	-69.153974
62230		9.688434	1.352817	-1.390171	-1.372797	-1.296347	-0.114072	-0.293031	-0.010124	-0.470567	-0.600098	-0.519287	0.393311	0.096916	0.013280	-0.013916	-0.248108	-0.684263	0.324206	-0.604249	-160.386222	-81.043480	-67.512108
62231		9.278920	1.477711	-1.760825	-1.631633	-0.968230	-0.443452	-0.309575	0.008326	-0.496084	-0.588623	-0.532471	0.389160	0.092825	0.014520	-0.017635	-0.252942	-0.686549	0.320113	-0.601829	-165.569618	-81.230877	-62.388190
62232		9.024090	1.292934	-1.920167	-1.582580	-0.656558	-0.655336	-0.271926	0.013920	-0.505102	-0.582031	-0.530029	0.393555	0.090272	0.012675	-0.019225	-0.255433	-0.686974	0.319163	-0.600796	-167.563087	-81.306796	-60.529229
62233		9.319856	1.707943	-2.008211	-1.827417	-0.825046	-0.336970	-0.332457	0.037844	-0.583165	-0.568115	-0.545410	0.389648	0.093244	0.016774	-0.020128	-0.260404	-0.689030	0.315124	-0.598435	-172.952983	-81.416065	-55.218613
62234		9.075633	1.414558	-1.659140	-1.358161	-0.811458	-0.613912	-0.319037	0.025494	-0.595095	-0.561279	-0.549805	0.394043	0.090796	0.013849	-0.016625	-0.263339	-0.689477	0.313978	-0.597237	-175.398252	-81.465797	-52.930921
62235		8.712986	0.131140	-1.861802	-0.467217	0.301478	-0.919422	-0.004388	-0.222783	-0.617048	-0.547607	-0.562744	0.396729	0.087154	0.001042	-0.018521	-0.266611	-0.692547	0.309520	-0.594555	179.533169	-81.323743	-47.761555
62236		9.254003	1.226708	-2.302663	-1.458383	-0.147305	-0.310338	0.309753	-0.339335	-0.709725	-0.529785	-0.564697	0.403564	0.092622	0.011974	-0.022851	-0.267138	-0.695066	0.306574	-0.592902	177.096714	-81.117622	-45.116915
62237		9.868991	0.647130	-1.746804	-0.472063	-0.180299	0.217826	0.292537	-0.246045	-0.814228	-0.518311	-0.573486	0.406006	0.098737	0.006095	-0.017337	-0.269602	-0.698696	0.300885	-0.590429	172.244984	-80.858769	-39.987465
62238		10.100039	0.444735	-2.257937	-0.559646	0.345098	0.525298	0.203405	-0.130296	-0.878572	-0.509033	-0.582031	0.410645	0.101033	0.004026	-0.022509	-0.271304	-0.700675	0.297371	-0.589084	169.354546	-80.704386	-36.941435
62239		9.872302	0.626354	-2.291828	-0.631530	0.347741	0.315824	0.014612	-0.067063	-0.894559	-0.497803	-0.586426	0.406250	0.098757	0.005824	-0.022885	-0.274978	-0.703293	0.292285	-0.586802	164.715259	-80.446213	-32.186012
62240		9.946777	0.690854	-1.643647	-0.167057	-0.115425	0.290542	-0.239617	-0.001769	-0.924602	-0.477539	-0.590820	0.404297	0.099498	0.006429	-0.016443	-0.278545	-0.704317	0.289718	-0.585161	161.574041	-80.291027	-29.139441
62241		9.851252	2.088979	-1.342590	-0.901245	-1.177047	0.237930	-0.517180	0.078597	-0.984408	-0.468262	-0.603760	0.409180	0.098608	0.020370	-0.013518	-0.284333	-0.705689	0.285933	-0.582581	156.867688	-80.011312	-24.621786
62242		10.289854	3.404923	-0.387354	-1.105791	-2.700755	0.632712	-0.866259	0.194629	-1.093987	-0.458984	-0.616943	0.398438	0.103079	0.033468	-0.004120	-0.290865	-0.705442	0.284294	-0.580454	152.892519	-79.845119	-21.088827
62243		10.642882	1.932542	0.690363	0.837294	-2.396695	0.724653	-1.141168	0.291679	-1.204067	-0.443115	-0.623535	0.389893	0.106553	0.018723	0.006640	-0.299776	-0.705282	0.281542	-0.577447	147.503188	-79.522304	-16.262145
62244		10.983413	1.412035	1.111079	1.617526	-2.262499	0.963524	-1.203980	0.342754	-1.291401	-0.420410	-0.636719	0.376953	0.109941	0.013476	0.010840	-0.308238	-0.704282	0.279921	-0.574995	142.954841	-79.260008	-12.336893
62245		11.442165	1.633264	1.260466	1.725204	-2.382115	1.435716	-1.177579	0.390125	-1.376809	-0.413330	-0.645508	0.375000	0.114555	0.015617	0.012288	-0.318028	-0.703555	0.276932	-0.571995	137.646654	-78.814118	-7.658494
62246		11.290189	1.282756	1.051440	1.907024	-1.850925	1.284808	-1.125958	0.386077	-1.460785	-0.386475	-0.649902	0.355225	0.113012	0.012061	0.010227	-0.326705	-0.702657	0.274368	-0.569438	133.261007	-78.382458	-3.843064
62247		11.451232	1.580220	1.380240	2.026215	-2.129411	1.451872	-1.004232	0.366212	-1.564919	-0.377197	-0.660889	0.360107	0.114657	0.014974	0.013516	-0.336459	-0.702108	0.270619	-0.566220	128.571184	-77.741426	0.273171
62248		11.133984	0.480688	1.234582	2.810538	-1.180457	0.977378	-0.706210	0.344319	-1.659730	-0.350342	-0.667480	0.349121	0.111396	0.003926	0.012139	-0.344107	-0.702166	0.266182	-0.563649	124.899321	-77.094716	3.620384
62249		11.447057	-0.043367	0.624868	3.043669	-0.210115	1.237923	-0.346569	0.304811	-1.754503	-0.339111	-0.669434	0.353760	0.114470	-0.001427	0.006076	-0.352028	-0.702810	0.260317	-0.560686	121.309427	-76.261585	6.976853
62250		11.892111	0.775559	-0.210808	2.161671	0.111053	1.908189	-0.099553	0.256822	-1.849431	-0.310059	-0.671631	0.349365	0.118983	0.006654	-0.002264	-0.357900	-0.704296	0.253615	-0.558171	118.641025	-75.414370	9.669652
62251		12.209714	0.852008	-0.268807	2.319373	0.303327	2.203927	-0.014139	0.211158	-1.946661	-0.305664	-0.673584	0.360596	0.122169	0.007331	-0.002818	-0.364932	-0.705815	0.246470	-0.554890	115.999375	-74.405475	12.256753
62252		12.352955	1.652229	-0.334481	1.893617	0.045306	2.509804	0.013826	0.175694	-2.076068	-0.278809	-0.673584	0.351807	0.123689	0.015239	-0.003452	-0.370858	-0.707877	0.238752	-0.551700	113.946835	-73.366738	14.401053
62253		12.483994	1.677881	0.045950	2.346080	-0.066127	2.562794	0.028998	0.147242	-2.213596	-0.270020	-0.671143	0.358398	0.125016	0.015396	0.000370	-0.378213	-0.709786	0.230737	-0.547649	111.871238	-72.168788	16.448859
62254		12.989113	0.354839	1.143185	4.350595	0.106504	2.483777	0.000990	0.108101	-2.347394	-0.238525	-0.675293	0.356445	0.129927	0.002024	0.011362	-0.384753	-0.712154	0.222164	-0.543548	110.245059	-70.932876	18.163305
62255		15.407872	-0.066295	1.382081	5.807537	0.651449	4.510456	0.064904	0.157324	-2.528221	-0.227539	-0.670898	0.358643	0.154065	-0.002615	0.013699	-0.392719	-0.714189	0.213047	-0.538811	108.505402	-69.547245	19.891483
62256		16.130751	-1.298504	0.477535	6.672101	2.462954	4.730917	0.213725	0.217282	-2.673121	-0.198486	-0.675049	0.361084	0.161120	-0.015144	0.004585	-0.399371	-0.716809	0.202460	-0.534507	107.108079	-68.123973	21.520722
62257		16.342660	-0.604576	-0.941662	5.694193	3.487188	5.145005	0.248436	0.120479	-2.846029	-0.189697	-0.670410	0.376465	0.163313	-0.008359	-0.009524	-0.407344	-0.719290	0.191964	-0.529002	105.814839	-66.549150	22.893579
62258		18.317513	-1.689176	-1.249978	7.339045	4.987843	6.348407	0.016116	0.013080	-3.032780	-0.165283	-0.670410	0.365479	0.182890	-0.019666	-0.012513	-0.415291	-0.722119	0.180946	-0.522816	104.788860	-64.871938	24.028859
62259		20.157915	-3.979151	-2.304623	9.419449	7.809747	6.852581	-0.362721	-0.089005	-3.206197	-0.149414	-0.676758	0.372314	0.200917	-0.043058	-0.022881	-0.425824	-0.723939	0.171176	-0.515058	103.634400	-63.065264	24.912214
62260		22.149866	-4.870401	-4.459103	10.024110	10.747921	8.024624	-0.633605	-0.276680	-3.304929	-0.131592	-0.681152	0.367920	0.220713	-0.052496	-0.044123	-0.436348	-0.726030	0.161389	-0.506394	102.743886	-61.182331	25.508469
62261		23.622390	-7.174346	-5.585475	12.084323	13.555500	7.818152	-0.398976	-0.460382	-3.248751	-0.106689	-0.687500	0.368164	0.235143	-0.075680	-0.055164	-0.446166	-0.728505	0.152222	-0.497035	102.194471	-59.318688	25.756254
62262		23.062018	-8.215999	-4.159815	13.862987	13.144820	6.050295	-0.336031	-0.505134	-3.403508	-0.091064	-0.694092	0.368408	0.229281	-0.086139	-0.040875	-0.455413	-0.731494	0.141744	-0.487262	101.801676	-57.347929	25.991123
62263		21.866725	-4.601204	-4.566962	11.180964	11.484052	6.411751	-0.215264	-0.484047	-3.475810	-0.075195	-0.696045	0.361816	0.217933	-0.049853	-0.045089	-0.464346	-0.734352	0.131145	-0.477400	101.467258	-55.381447	26.191062
62264		22.150999	1.423538	-3.805800	8.445468	8.033370	9.455749	-0.318449	-0.359729	-3.187151	-0.054932	-0.708984	0.368896	0.221767	0.010642	-0.037678	-0.472842	-0.736467	0.121000	-0.468397	101.066553	-53.547137	26.458822
62265		19.396711	-0.982044	-3.757473	8.947047	8.819892	5.466189	-0.296990	-0.192881	-3.086635	-0.039063	-0.715576	0.362549	0.193820	-0.012868	-0.037370	-0.480798	-0.737916	0.111192	-0.460380	100.612119	-51.847160	26.806694
62266		17.003615	-2.909132	-3.284474	9.398734	9.022783	1.960210	-0.465149	0.085051	-3.135697	-0.031738	-0.735352	0.356445	0.169537	-0.031828	-0.032845	-0.489734	-0.738252	0.100454	-0.452828	99.890585	-50.084746	27.391983
62267		15.249436	3.722476	-2.043869	5.471330	4.467598	4.352778	-0.709209	0.277504	-3.326556	-0.004639	-0.744141	0.347900	0.153056	0.034609	-0.020777	-0.499555	-0.737448	0.089442	-0.445662	98.965087	-48.302536	28.103202
62268		12.285970	10.824056	-4.016704	-1.117402	2.138709	6.872055	-1.478079	0.241457	-3.592688	0.002441	-0.759766	0.332764	0.124725	0.105710	-0.041104	-0.513038	-0.734685	0.078848	-0.436822	97.646411	-46.282511	28.744612
62269		13.181911	0.284877	-5.146133	5.041955	8.602122	0.231722	-2.194424	0.328974	-2.713294	0.020752	-0.766357	0.308838	0.131752	0.000495	-0.051692	-0.526608	-0.729354	0.073060	-0.430569	96.037292	-44.831388	29.285747
62270		14.839866	-3.212015	-5.382927	8.114419	11.071155	-1.381407	-1.888045	0.087556	-2.001032	0.016846	-0.786377	0.295898	0.148041	-0.034109	-0.053578	-0.537796	-0.724855	0.069569	-0.424877	94.800356	-43.691612	29.507570
62271		12.300629	-6.353465	-1.650581	10.421586	8.391179	-5.892269	-1.747049	0.394110	-1.574854	0.017090	-0.793213	0.271729	0.122468	-0.064643	-0.016186	-0.546803	-0.720014	0.066510	-0.422093	93.575143	-42.887540	29.953213
62272		9.504214	-6.112382	-0.114737	9.406376	5.952537	-7.865806	-1.633740	0.262500	-0.979653	0.012939	-0.804443	0.252197	0.094740	-0.061596	-0.000770	-0.554827	-0.715285	0.065690	-0.419784	92.472900	-42.331818	30.198217
62273		6.797518	-3.918412	1.171004	7.161074	2.992027	-8.170137	-1.518814	0.161030	-0.583245	0.009033	-0.817871	0.239258	0.067870	-0.039292	0.011953	-0.560746	-0.711089	0.066474	-0.418924	91.554787	-42.092931	30.379849
62274		4.099372	-1.821163	1.700915	4.539509	0.735079	-8.446281	-1.313295	0.066227	-0.228952	-0.001953	-0.818115	0.221436	0.040979	-0.018146	0.017115	-0.565917	-0.707328	0.068204	-0.418058	90.765073	-41.959421	30.435051
62275		2.964095	-1.155342	1.879950	3.520730	-0.098380	-8.694829	-1.012082	0.022928	0.159367	-0.015137	-0.829346	0.212891	0.029652	-0.011434	0.018854	-0.568550	-0.704467	0.071149	-0.418825	90.206519	-42.144335	30.471670
62276		2.348763	-1.222018	1.774895	3.106371	-0.231395	-9.136577	-0.562345	-0.066192	0.594369	-0.028320	-0.831543	0.208496	0.023518	-0.012100	0.017791	-0.569271	-0.702789	0.074588	-0.420065	89.918570	-42.481741	30.420358
62277		1.670011	-1.652146	1.337555	2.702051	0.031070	-9.886748	-0.049317	-0.189576	1.045548	-0.052734	-0.836182	0.204102	0.016773	-0.016431	0.013395	-0.566722	-0.702681	0.079391	-0.422803	90.010067	-43.170946	30.271810
62278		1.360784	-2.285636	0.715488	2.571482	0.677189	-10.531414	0.499529	-0.298553	1.509594	-0.074951	-0.834229	0.201660	0.013769	-0.022771	0.007118	-0.561652	-0.704105	0.084463	-0.426203	90.461950	-44.032103	30.031176
62279		1.518352	-1.963505	0.456275	2.350065	0.857127	-10.146283	0.968826	-0.378051	1.924762	-0.101807	-0.832031	0.214844	0.015363	-0.019510	0.004497	-0.553591	-0.706755	0.090789	-0.431035	91.260074	-45.218077	29.690391
62280		1.991411	-1.148117	0.102086	1.958622	1.030979	-9.184224	1.281560	-0.445522	2.320295	-0.126465	-0.830078	0.212402	0.020043	-0.011256	0.000993	-0.543823	-0.710145	0.097432	-0.436414	92.299307	-46.535915	29.265257
62281		2.554200	-0.026272	-0.222760	1.413680	1.038899	-7.942930	1.483334	-0.502495	2.711276	-0.164551	-0.827881	0.232178	0.025548	0.000100	-0.002164	-0.532008	-0.713812	0.105739	-0.443011	93.559534	-48.155844	28.705348
62282		2.916847	0.806979	-0.190344	1.076871	0.729700	-7.073618	1.486822	-0.550590	3.088112	-0.193848	-0.817139	0.234131	0.029044	0.008532	-0.001761	-0.519504	-0.717247	0.114896	-0.449968	94.923492	-49.894063	28.026908
62283		3.088377	1.002605	-0.214600	0.969969	0.636846	-6.772662	1.377628	-0.579037	3.450886	-0.231934	-0.812744	0.249268	0.030710	0.010571	-0.001985	-0.506055	-0.719947	0.126179	-0.457891	96.373956	-51.908035	27.174446
62284		3.368572	0.740414	-0.360752	1.137078	0.869472	-6.654346	1.297309	-0.583768	3.793266	-0.270264	-0.799805	0.255371	0.033547	0.008064	-0.003459	-0.492243	-0.722026	0.138295	-0.466100	97.914291	-54.020094	26.175930
62285		3.803393	0.646016	-0.518562	1.245641	1.055030	-6.279275	1.260827	-0.576975	4.106063	-0.306396	-0.784424	0.266113	0.037905	0.007271	-0.005032	-0.477287	-0.723375	0.152053	-0.475190	99.644147	-56.369601	24.949902
62286		4.572125	0.811991	-0.498851	1.409806	1.009423	-5.476531	1.184199	-0.570600	4.395196	-0.351318	-0.769531	0.265381	0.045542	0.009151	-0.004806	-0.462018	-0.724026	0.166438	-0.484380	101.556491	-58.782079	23.488331
62287		5.628129	0.817841	-0.227473	1.891930	0.835011	-4.510451	0.986067	-0.537512	4.666561	-0.392090	-0.751953	0.280273	0.056076	0.009499	-0.002079	-0.446235	-0.723408	0.182587	-0.494183	103.690854	-61.395582	21.681167
62288		6.464391	0.831361	0.243600	2.312883	0.393691	-3.727798	0.694168	-0.472165	4.906773	-0.430908	-0.723877	0.272949	0.064408	0.009887	0.002621	-0.431047	-0.721422	0.199597	-0.503894	105.990049	-64.041581	19.542134
62289		7.200076	1.043195	0.674621	2.448063	-0.197232	-2.932203	0.392269	-0.400388	5.114088	-0.482910	-0.699951	0.283203	0.071689	0.012254	0.006913	-0.415915	-0.717777	0.218331	-0.513947	108.646268	-66.840558	16.863529
62290		7.983925	1.021159	1.342115	2.832963	-0.894004	-2.213549	0.064749	-0.301976	5.311966	-0.521484	-0.671631	0.275635	0.079510	0.012322	0.013545	-0.401573	-0.712639	0.237759	-0.523790	111.718047	-69.636021	13.596802
62291		8.498830	1.072692	1.897353	2.919459	-1.617709	-1.699618	-0.145035	-0.241090	5.473877	-0.569092	-0.647949	0.274902	0.084629	0.013060	0.019067	-0.387155	-0.705935	0.258626	-0.533741	115.745404	-72.521542	9.222146
62292		9.153087	0.891709	2.634825	3.269762	-2.385687	-1.146034	-0.252831	-0.169540	5.598922	-0.608154	-0.613037	0.271729	0.091210	0.011507	0.026412	-0.372752	-0.698386	0.279270	-0.543436	121.195453	-75.296366	3.400881
62293		10.104028	0.235975	3.177838	3.876400	-2.777766	-0.353554	-0.156388	-0.103072	5.691027	-0.646973	-0.578125	0.270752	0.100902	0.005257	0.031827	-0.357606	-0.689681	0.300417	-0.553360	129.345823	-77.999584	-5.136180
62294		11.237381	0.073109	3.439214	3.896946	-3.274797	0.778245	0.335862	-0.098439	5.779859	-0.684082	-0.530029	0.267090	0.112274	0.003919	0.034452	-0.340177	-0.681590	0.319450	-0.563620	142.123170	-80.283014	-17.946330
62295		12.675874	1.084535	3.684566	2.861941	-4.522851	2.300981	1.046002	-0.092307	5.888283	-0.721436	-0.484131	0.285889	0.126353	0.014377	0.036973	-0.320103	-0.673179	0.337584	-0.574805	162.287183	-81.897288	-37.865528
62296		14.038882	3.037423	3.771886	0.856840	-6.258954	3.625394	1.739824	0.006037	5.964809	-0.754150	-0.433838	0.291016	0.139408	0.034212	0.038001	-0.296980	-0.665561	0.352469	-0.587024	-172.163430	-82.202086	-62.648897
62297		15.586190	6.222266	3.119370	-2.701180	-8.244342	4.885518	2.303334	0.109767	5.952556	-0.777832	-0.385498	0.291992	0.153943	0.066460	0.031858	-0.272662	-0.656793	0.366369	-0.600044	-148.149662	-81.114385	-85.751848
62298		17.065648	9.136070	2.061502	-6.304223	-9.903758	5.712306	2.477019	0.277263	5.852416	-0.811035	-0.324219	0.305664	0.167921	0.096039	0.021551	-0.247360	-0.648293	0.377576	-0.613160	-131.453436	-79.054934	-101.255072
62299		18.229311	10.171235	-0.114217	-9.211454	-9.599615	6.269999	2.373481	0.458560	5.650347	-0.825928	-0.271484	0.311035	0.179322	0.106814	-0.000308	-0.224250	-0.637628	0.389092	-0.625899	-119.962667	-76.578602	-111.823113
62300		20.355537	11.081430	-2.176569	-12.085556	-9.637782	7.588402	2.217886	0.543147	5.314146	-0.847900	-0.212402	0.307129	0.200454	0.116405	-0.021043	-0.201532	-0.627818	0.398306	-0.637637	-112.504890	-73.983736	-118.217940
62301		22.192440	13.265710	-3.659578	-15.685312	-10.819109	8.038004	1.828841	0.581299	4.846994	-0.860596	-0.166504	0.306152	0.218513	0.138312	-0.035987	-0.182736	-0.616785	0.407995	-0.647862	-107.182783	-71.494398	-122.892819
62302		22.019053	16.132376	-4.418083	-18.880799	-12.451529	6.092063	1.257163	0.563179	4.268828	-0.872803	-0.131348	0.305176	0.216553	0.166248	-0.043759	-0.166153	-0.607254	0.416455	-0.655897	-103.763197	-69.225353	-125.758367
62303		19.232477	17.480126	-4.931673	-20.119254	-12.347632	2.121827	0.695330	0.555434	3.679419	-0.878174	-0.100830	0.304443	0.188927	0.178469	-0.049228	-0.154420	-0.597326	0.425519	-0.662034	-101.301468	-67.267362	-128.151011
62304		16.392608	17.688822	-5.040260	-19.962211	-11.716368	-1.374437	0.481878	0.541959	3.029448	-0.883545	-0.070313	0.290283	0.161084	0.179464	-0.050411	-0.144107	-0.589394	0.432489	-0.666934	-99.603104	-65.619389	-129.702661
62305		14.308639	18.718566	-4.787461	-20.168973	-11.883751	-4.335221	0.481871	0.538035	2.313393	-0.884033	-0.052734	0.287598	0.140779	0.188938	-0.047802	-0.137370	-0.582312	0.437660	-0.671190	-98.155428	-64.412547	-131.130078
62306		12.390651	19.071442	-4.993922	-20.083048	-11.360122	-6.683344	0.376287	0.423549	1.638776	-0.884521	-0.032959	0.280518	0.122232	0.191814	-0.049839	-0.131716	-0.577550	0.440848	-0.674345	-97.191066	-63.517188	-131.963664
62307		11.329061	17.830160	-5.262246	-19.136416	-10.087973	-7.367592	0.367359	0.274447	1.078677	-0.889160	-0.028564	0.282471	0.112254	0.179005	-0.052449	-0.128767	-0.574211	0.442632	-0.676592	-96.486096	-63.000035	-132.618194
62308		10.376011	16.890209	-4.959996	-18.001075	-9.497914	-7.998412	0.423034	0.202555	0.565504	-0.885010	-0.019775	0.277832	0.103232	0.169299	-0.049347	-0.126106	-0.572551	0.442678	-0.678467	-95.950464	-62.693333	-132.948068
62309		9.079904	16.647694	-4.390906	-17.038034	-9.385817	-9.118717	0.551373	0.125305	0.068709	-0.889648	-0.015381	0.282227	0.090714	0.166628	-0.043507	-0.125571	-0.572356	0.440775	-0.679969	-95.483780	-62.756092	-133.184497
62310		8.175468	16.785336	-4.161943	-16.650485	-9.414839	-9.981492	0.580098	-0.009542	-0.394881	-0.891602	-0.026611	0.278076	0.082088	0.167811	-0.041129	-0.125251	-0.573628	0.437662	-0.680966	-95.203196	-62.983721	-133.126615
62311		8.460658	16.402548	-4.371172	-16.580672	-9.200700	-9.412976	0.403789	-0.139270	-0.771067	-0.882568	-0.030762	0.291504	0.085269	0.163785	-0.043322	-0.127310	-0.576290	0.433833	-0.680787	-95.230757	-63.524356	-132.879987
62312		17.837969	12.040311	-7.433733	-18.469534	-7.482223	1.201450	0.125042	-0.492672	-0.836044	-0.882324	-0.035156	0.287109	0.179063	0.119702	-0.073822	-0.128745	-0.579862	0.431294	-0.679095	-95.822503	-63.976891	-132.140640
62313		6.630034	5.211143	-11.534431	-13.270427	3.165240	-5.566291	0.811575	-0.592273	-0.600048	-0.884277	-0.043701	0.302979	0.066798	0.052378	-0.114935	-0.127880	-0.584177	0.426649	-0.678494	-96.189559	-64.401190	-131.229781
62314		23.763110	-16.495462	-1.116840	3.674819	3.165507	18.726726	-0.565448	0.448150	-1.177238	-0.888428	-0.054932	0.287598	0.236629	-0.166381	-0.011230	-0.134498	-0.584801	0.424818	-0.677826	-96.125765	-65.102330	-131.658824
62315		21.463806	-21.650821	11.852261	16.920175	-2.322469	18.084178	-1.413578	0.759899	-1.465676	-0.878906	-0.076660	0.290527	0.213500	-0.217235	0.119244	-0.145549	-0.585054	0.424097	-0.675773	-96.274111	-66.089698	-132.353121
62316		16.399820	3.003776	3.749006	-3.873460	-9.389925	3.929114	1.250127	-0.258724	-2.654313	-0.875732	-0.103027	0.302246	0.164327	0.027622	0.037880	-0.150316	-0.592411	0.412237	-0.675659	-96.291490	-67.588203	-131.555501
62317		18.546078	8.206567	-1.264467	-10.983054	-9.382467	4.477793	1.698617	-0.799418	-2.533399	-0.871094	-0.111572	0.309082	0.186528	0.079807	-0.011216	-0.152976	-0.601764	0.399236	-0.674603	-96.918335	-69.075317	-129.872502
62318		13.616484	0.629372	0.847910	-2.810478	-4.688969	2.702441	0.878891	-0.908670	-2.310486	-0.863525	-0.137695	0.322998	0.136185	0.004681	0.009121	-0.156319	-0.610069	0.389965	-0.671794	-98.283578	-70.321882	-127.880345
62319		6.199162	3.180059	2.265772	-1.814472	-5.290515	-5.080719	0.282283	-0.623968	-2.501223	-0.856689	-0.150879	0.330078	0.062311	0.030990	0.022896	-0.163510	-0.617388	0.381573	-0.668205	-99.858512	-71.780574	-126.094759
62320		6.755759	3.750349	-0.795066	-4.324850	-3.581348	-4.445712	0.568985	-0.526742	-2.242921	-0.849121	-0.172607	0.334961	0.067993	0.036765	-0.007667	-0.168252	-0.623856	0.373137	-0.665781	-101.208074	-72.992099	-124.337191
62321		9.500236	3.833015	-2.831481	-6.120586	-2.820653	-1.594252	0.975870	-0.639082	-1.896158	-0.844482	-0.181152	0.341797	0.095450	0.037563	-0.027826	-0.171246	-0.630415	0.364285	-0.663738	-102.686081	-74.075848	-122.274256
62322		12.953427	6.460266	-0.389296	-6.508024	-7.060249	1.025660	0.430029	-0.412240	-1.865592	-0.839355	-0.203125	0.344727	0.130137	0.063398	-0.003488	-0.175344	-0.635526	0.357297	-0.661589	-104.173178	-75.063935	-120.476345
62323		10.982584	3.631247	-0.627334	-4.293769	-4.427146	-0.006708	0.024521	-0.386215	-1.686720	-0.834473	-0.216309	0.347168	0.110139	0.035385	-0.006056	-0.181057	-0.639938	0.351964	-0.658649	-106.068176	-76.034402	-118.564455
62324		11.893389	1.155921	-0.717259	-2.604212	-2.769747	1.538387	-0.102641	-0.372856	-1.543354	-0.827637	-0.224854	0.356201	0.119031	0.010637	-0.006956	-0.185828	-0.643775	0.347674	-0.655854	-108.050259	-76.820383	-116.586313
62325		10.885604	2.166493	-0.943809	-3.205644	-3.004172	0.423386	-0.166848	-0.427391	-1.471183	-0.822510	-0.242432	0.361084	0.109031	0.020856	-0.009223	-0.191345	-0.647655	0.343681	-0.652544	-110.529006	-77.626089	-114.204835
62326		10.545994	3.236298	-0.769305	-3.663644	-3.723760	-0.066271	-0.387438	-0.405110	-1.391782	-0.819580	-0.264404	0.359619	0.105697	0.031613	-0.007541	-0.196460	-0.650987	0.340798	-0.649212	-113.155547	-78.283218	-111.746539
62327		10.632051	1.486842	-1.071073	-2.532427	-2.231467	0.434454	-0.598229	-0.335787	-1.306308	-0.810547	-0.272949	0.364258	0.106432	0.014142	-0.010575	-0.202961	-0.653771	0.338633	-0.645536	-116.101370	-78.969447	-109.154651
62328		9.894080	0.851148	-0.478338	-1.504841	-2.009876	-0.192884	-0.402528	-0.383042	-1.194442	-0.803223	-0.290283	0.371338	0.098998	0.007911	-0.004610	-0.207501	-0.656614	0.336392	-0.642372	-119.024755	-79.477822	-106.413943
62329		9.842413	0.158936	-0.495266	-0.906164	-1.450721	-0.106157	-0.225354	-0.448856	-1.111352	-0.796387	-0.299072	0.373779	0.098442	0.001037	-0.004733	-0.211912	-0.659735	0.333769	-0.639094	-122.402383	-79.972620	-103.175380
62330		10.915954	0.597109	-0.829709	-1.383677	-1.651467	0.937187	-0.291830	-0.416990	-1.042344	-0.791748	-0.307861	0.376221	0.109206	0.005390	-0.008078	-0.215527	-0.662493	0.331682	-0.636112	-125.645778	-80.337026	-100.053595
62331		10.662693	2.297811	0.286348	-1.690959	-3.510162	0.379130	-0.099883	-0.426577	-1.049499	-0.782227	-0.322998	0.376709	0.106739	0.022420	0.003080	-0.219315	-0.665507	0.328844	-0.633137	-129.348906	-80.735448	-96.420388
62332		10.097650	1.540749	0.111883	-1.156576	-2.741634	-0.040593	0.119107	-0.471757	-0.888763	-0.781982	-0.333984	0.379150	0.101041	0.014958	0.001366	-0.220975	-0.668591	0.326004	-0.630775	-132.630238	-80.945427	-93.027927
62333		10.972860	1.447125	-0.572683	-1.469682	-2.293503	0.929975	0.142282	-0.446350	-0.814434	-0.765869	-0.349121	0.392822	0.109799	0.014028	-0.005472	-0.223207	-0.671461	0.323250	-0.628354	-136.112813	-81.164440	-89.492049
62334		11.037091	1.192533	-0.516527	-1.154347	-2.141488	1.031071	-0.053897	-0.376599	-0.753167	-0.763672	-0.349121	0.392822	0.110424	0.011508	-0.004961	-0.225165	-0.673802	0.321289	-0.626151	-139.168864	-81.298393	-86.431474
62335		10.550178	0.100636	-0.664131	-0.392053	-1.170161	0.686548	-0.168195	-0.326284	-0.667775	-0.758789	-0.362061	0.402100	0.105515	0.000649	-0.006470	-0.228165	-0.675661	0.319890	-0.623774	-142.364185	-81.452993	-83.372358
62336		10.291737	0.806373	-1.156220	-1.173280	-1.244426	0.433350	-0.159227	-0.263170	-0.660591	-0.751709	-0.375244	0.397949	0.102958	0.007715	-0.011433	-0.230363	-0.677359	0.318434	-0.621867	-145.113558	-81.557669	-80.685101
62337		10.029594	1.364590	-0.984435	-1.391649	-1.671017	0.121829	-0.179270	-0.173810	-0.633961	-0.738037	-0.386230	0.400391	0.100347	0.013319	-0.009769	-0.233500	-0.678647	0.317015	-0.620014	-148.043772	-81.724507	-77.901366
62338		9.824594	1.287156	-1.006549	-1.303898	-1.539332	-0.059607	-0.183753	-0.109864	-0.581244	-0.737793	-0.392822	0.400635	0.098288	0.012577	-0.010023	-0.235772	-0.679698	0.315720	-0.618663	-150.373373	-81.843070	-75.654351
62339		10.066312	1.015478	-0.949249	-1.008856	-1.381108	0.204169	-0.133156	-0.045293	-0.519143	-0.719727	-0.403564	0.403320	0.100691	0.009887	-0.009476	-0.238573	-0.680440	0.314400	-0.617444	-152.796494	-82.005600	-73.357079
62340		10.219258	0.630726	-1.041262	-0.748227	-1.038132	0.398949	-0.082775	-0.040064	-0.474455	-0.726318	-0.403564	0.407715	0.102209	0.006061	-0.010395	-0.240278	-0.681216	0.313068	-0.616603	-154.685667	-82.107222	-71.497862
62341		10.263163	0.430861	-1.272155	-0.717683	-0.700887	0.489257	-0.095887	-0.033757	-0.427763	-0.708496	-0.405518	0.412109	0.102643	0.004083	-0.012706	-0.242660	-0.681809	0.311936	-0.615588	-156.853910	-82.228656	-69.436398
62342		10.446482	0.415744	-1.421953	-0.763978	-0.579303	0.694660	-0.085387	-0.080597	-0.422504	-0.705811	-0.418701	0.407959	0.104479	0.003931	-0.014179	-0.244148	-0.682618	0.310835	-0.614660	-158.702265	-82.279190	-67.620771
62343		10.339111	0.565835	-1.453494	-0.853719	-0.609711	0.590641	-0.081648	-0.075168	-0.456871	-0.694580	-0.423096	0.408203	0.103409	0.005416	-0.014498	-0.246460	-0.683399	0.309602	-0.613489	-161.120318	-82.361177	-65.295744
62344		9.686326	-0.401283	-1.023082	0.148420	-0.150613	-0.066522	-0.018666	-0.143643	-0.455922	-0.689941	-0.431885	0.417236	0.096861	-0.004235	-0.010161	-0.247722	-0.684528	0.308257	-0.612400	-163.198594	-82.364356	-63.210040
62345		9.357224	-0.386299	-1.261187	0.002772	0.075424	-0.363264	0.100240	-0.186607	-0.455006	-0.676270	-0.440430	0.417480	0.093575	-0.004070	-0.012527	-0.249192	-0.685868	0.306607	-0.611131	-165.663900	-82.357762	-60.728996
62346		9.148155	-0.230791	-1.986640	-0.578547	0.529931	-0.481395	0.100495	-0.177769	-0.490008	-0.671875	-0.438232	0.424072	0.091493	-0.002522	-0.019786	-0.250094	-0.687292	0.304820	-0.610056	-167.838185	-82.324189	-58.477430
62347		9.574135	0.487647	-2.904724	-1.649138	0.675223	0.044466	-0.056875	-0.105643	-0.508106	-0.664795	-0.446777	0.433350	0.095769	0.004625	-0.028998	-0.252317	-0.688279	0.303344	-0.608761	-170.502376	-82.338538	-55.878908
62348		9.336893	1.329585	-3.185156	-2.423134	0.348211	-0.163982	-0.073015	-0.165134	-0.519240	-0.646729	-0.457764	0.427002	0.093429	0.013042	-0.031779	-0.253920	-0.689481	0.301966	-0.607418	-172.853771	-82.288908	-53.548801
62349		9.116476	0.831513	-2.872439	-1.812034	0.522161	-0.405451	-0.018184	-0.152302	-0.545326	-0.642334	-0.459717	0.433594	0.091209	0.008064	-0.028656	-0.255930	-0.690765	0.300229	-0.605975	-175.628872	-82.242563	-50.799174
62350		8.977519	0.163807	-2.903829	-1.316821	1.043723	-0.526605	0.002313	-0.115645	-0.525243	-0.637451	-0.468506	0.436035	0.089796	0.001403	-0.028986	-0.257362	-0.691911	0.298534	-0.604898	-177.880965	-82.194059	-48.525208
62351		8.629121	-0.283196	-3.342559	-1.276071	1.729780	-0.807469	0.051083	-0.168631	-0.519329	-0.628662	-0.463867	0.442627	0.086312	-0.003048	-0.033354	-0.258914	-0.693332	0.296635	-0.603541	179.598017	-82.102143	-45.976286
62352		8.647358	0.051891	-3.758268	-1.758495	1.812698	-0.728320	0.076777	-0.198211	-0.516051	-0.612549	-0.483643	0.436523	0.086512	0.000310	-0.037497	-0.259933	-0.694799	0.294849	-0.602290	177.520860	-81.981480	-43.834913
62353		9.147715	1.138728	-3.747542	-2.434870	1.033269	-0.219723	-0.157549	-0.126509	-0.536818	-0.605713	-0.483643	0.438721	0.091531	0.011112	-0.037426	-0.262179	-0.695902	0.293379	-0.600759	174.962900	-81.879958	-41.348512
62354		9.397815	1.041265	-3.571464	-2.170210	0.986534	0.009488	-0.332113	-0.056920	-0.527967	-0.592041	-0.499023	0.437012	0.094015	0.010105	-0.035705	-0.264858	-0.696415	0.292591	-0.599372	172.670972	-81.814952	-39.225818
62355		8.449681	1.197851	-2.851614	-1.849023	0.489773	-1.020383	-0.379915	-0.025090	-0.558113	-0.591797	-0.501221	0.437012	0.084533	0.011688	-0.028528	-0.267970	-0.696994	0.291503	-0.597844	169.983557	-81.735650	-36.719940
62356		9.432708	3.362260	-1.460465	-2.331187	-2.032219	-0.176871	-0.577607	0.105186	-0.591336	-0.573730	-0.511963	0.433105	0.094418	0.033301	-0.014751	-0.271925	-0.696768	0.291003	-0.596564	167.258569	-81.727546	-34.301158
62357		9.609563	2.332151	0.093402	-0.477431	-2.405055	-0.232566	-0.739309	0.136653	-0.642568	-0.569092	-0.516357	0.433105	0.096170	0.023016	0.000783	-0.276741	-0.696481	0.290456	-0.594949	163.982139	-81.691054	-31.404408
62358		10.481799	2.045980	1.882190	1.058389	-3.521473	0.389049	-0.893582	0.164288	-0.693495	-0.550781	-0.533936	0.422607	0.104904	0.020180	0.018645	-0.282173	-0.695758	0.290445	-0.593246	160.661321	-81.659308	-28.566081
62359		11.132654	2.985876	3.189019	1.333799	-5.089656	0.926825	-1.049611	0.163266	-0.803902	-0.541260	-0.549316	0.425293	0.111472	0.029577	0.031644	-0.288681	-0.695052	0.290312	-0.591003	156.660720	-81.560370	-25.136097
62360		11.561654	2.597545	4.217054	2.362479	-5.549608	1.224640	-1.260394	0.204784	-0.908963	-0.527832	-0.553711	0.414307	0.115777	0.025714	0.041889	-0.296058	-0.693932	0.290551	-0.588547	152.429143	-81.441146	-21.588143
62361		11.506709	0.573491	3.918451	3.701748	-3.922750	1.095852	-1.405590	0.205468	-0.973109	-0.513916	-0.571289	0.401611	0.115134	0.005449	0.039027	-0.304548	-0.692578	0.290985	-0.585588	147.792986	-81.252885	-17.757200
62362		11.798621	0.180858	2.186264	2.984680	-2.291201	1.582979	-1.334252	0.207661	-1.036136	-0.497803	-0.584473	0.395264	0.118017	0.001342	0.021730	-0.312516	-0.691427	0.290954	-0.582758	143.434408	-81.013846	-14.120076
62363		11.903183	0.498173	0.850608	1.993483	-1.367390	1.883989	-1.094193	0.232791	-1.168792	-0.486328	-0.595215	0.397705	0.119068	0.004332	0.008343	-0.320636	-0.690532	0.289878	-0.579939	138.791871	-80.688425	-10.124309
62364		11.639085	-0.242865	-0.009132	2.086365	-0.116049	1.639783	-0.852062	0.216418	-1.284951	-0.466064	-0.604004	0.386963	0.116372	-0.003177	-0.000205	-0.327630	-0.690386	0.287534	-0.577364	134.582678	-80.271044	-6.351830
62365		11.491277	-0.400265	-0.771542	1.829677	0.700783	1.543540	-0.534305	0.186569	-1.370905	-0.445557	-0.612793	0.385010	0.114874	-0.004811	-0.007810	-0.334306	-0.690703	0.284234	-0.574787	130.588699	-79.755010	-2.685213
62366		11.496923	-0.399157	-0.700287	1.989935	0.759812	1.513804	-0.215281	0.142348	-1.454014	-0.432373	-0.614746	0.396240	0.114931	-0.004835	-0.007080	-0.339445	-0.691987	0.279563	-0.572516	127.295884	-79.155325	0.538207
62367		11.659986	-0.065473	-0.703928	1.888823	0.681545	1.694709	-0.044446	0.109664	-1.553594	-0.411865	-0.625732	0.389893	0.116586	-0.001562	-0.007103	-0.344760	-0.693531	0.274333	-0.569997	124.208866	-78.458271	3.584056
62368		12.055644	1.006734	-0.583834	1.355105	0.063379	2.222639	0.010061	0.085036	-1.696831	-0.398193	-0.632080	0.398926	0.120634	0.009044	-0.005889	-0.349688	-0.695614	0.268241	-0.567350	121.513653	-77.664791	6.344234
62369		12.381081	0.964242	-0.291395	1.798539	0.009958	2.478231	-0.045820	0.062341	-1.829107	-0.364746	-0.634033	0.394775	0.123891	0.008509	-0.002955	-0.355644	-0.697567	0.262113	-0.564105	118.889151	-76.765153	8.934941
62370		12.456039	0.771656	0.004980	2.321267	0.046964	2.449159	-0.111105	0.063471	-1.967911	-0.355957	-0.635986	0.399170	0.124628	0.006490	0.000006	-0.361671	-0.699741	0.255414	-0.560643	116.537500	-75.780411	11.289671
62371		13.844351	-0.296848	0.160603	3.767023	0.816952	3.488241	-0.143288	0.111916	-2.149349	-0.326416	-0.646973	0.399658	0.138402	-0.004455	0.001531	-0.368849	-0.701647	0.248335	-0.556751	114.123184	-74.683566	13.625314
62372		15.183639	-1.829198	-0.955016	4.838782	2.926292	4.428550	-0.019112	0.164104	-2.375343	-0.312988	-0.655518	0.408691	0.151597	-0.020094	-0.009673	-0.375728	-0.704059	0.239712	-0.552872	111.935734	-73.464168	15.888105
62373		15.946168	-2.430250	-2.275960	4.979242	4.645302	4.985280	0.091968	0.107029	-2.623979	-0.277100	-0.657471	0.402344	0.159112	-0.026381	-0.022857	-0.383255	-0.706788	0.230295	-0.548207	109.980370	-72.074083	17.912836
62374		16.886816	-2.059609	-2.860437	4.944848	5.247346	5.858378	-0.071086	-0.033234	-2.883715	-0.268066	-0.664063	0.402588	0.168552	-0.023038	-0.028568	-0.391354	-0.709994	0.220316	-0.542413	108.384276	-70.503590	19.554381
62375		19.010387	-4.992840	-4.553198	7.148510	8.864633	6.840910	0.129230	-0.273481	-3.071057	-0.236816	-0.665771	0.416016	0.189370	-0.052811	-0.045306	-0.399261	-0.714095	0.209845	-0.535373	107.347173	-68.777237	20.675129
62376		19.851577	-8.576035	-4.808024	10.251790	11.584153	6.043847	1.367500	-0.697072	-3.072252	-0.221191	-0.665527	0.427002	0.197338	-0.088469	-0.047990	-0.401833	-0.721812	0.196552	-0.528095	107.757268	-66.974857	21.077800
62377		21.193384	-3.608457	-0.664392	10.160039	5.817216	8.229202	0.922136	-0.808107	-3.417850	-0.189941	-0.669678	0.429443	0.211301	-0.039671	-0.005967	-0.406846	-0.728920	0.183581	-0.519086	107.905061	-64.974812	21.457625
62378		25.253975	-2.507031	0.101667	12.072608	5.520155	11.815333	-1.118443	-0.604359	-3.479537	-0.178467	-0.678711	0.416504	0.252048	-0.029449	0.001935	-0.419349	-0.731285	0.174976	-0.508678	106.722489	-62.964829	22.059897
62379		25.788330	-7.528468	-2.317004	14.966132	10.800643	9.843280	-1.945286	-0.411937	-3.561000	-0.155762	-0.691650	0.405762	0.256532	-0.080077	-0.021877	-0.435246	-0.731058	0.168060	-0.497867	104.965956	-60.954362	22.739184
62380		21.353863	-6.613051	-3.204001	12.469209	10.449425	5.847781	-1.399084	-0.437321	-3.644648	-0.141846	-0.707031	0.399658	0.212352	-0.070227	-0.031093	-0.449001	-0.732025	0.159115	-0.487052	103.688541	-58.865383	23.288407
62381		21.927067	-1.474116	-4.638588	9.052117	9.215836	8.560018	-1.062438	-0.478648	-3.505941	-0.119385	-0.718018	0.393311	0.219075	-0.018827	-0.045769	-0.461036	-0.733326	0.150298	-0.476539	102.762392	-56.877295	23.623507
62382		19.047675	-2.193371	-4.643155	8.624880	9.293961	5.299281	-1.077326	-0.241000	-3.597932	-0.103271	-0.729004	0.382568	0.190094	-0.025605	-0.046071	-0.473315	-0.733992	0.140177	-0.466455	101.697840	-54.829642	24.163296
62383		17.006908	-1.251030	-3.984234	7.754546	8.084554	3.646276	-1.108401	-0.104497	-3.668547	-0.091797	-0.739990	0.378418	0.169820	-0.015847	-0.039672	-0.485711	-0.733960	0.129856	-0.456645	100.589085	-52.793733	24.731168
62384		14.509782	3.904855	-3.357562	3.870736	4.720521	4.320908	-1.612200	0.030166	-3.650582	-0.071289	-0.753418	0.352295	0.145770	0.036119	-0.033897	-0.499903	-0.732200	0.120016	-0.446739	99.185977	-50.732401	25.340734
62385		14.674833	-4.088035	-5.801417	7.994844	10.851619	-0.646755	-2.317739	0.160922	-3.020828	-0.066162	-0.775391	0.339600	0.146055	-0.043759	-0.057636	-0.514990	-0.727684	0.114006	-0.438479	97.459438	-49.075369	25.858155
62386		14.596161	-6.306583	-3.068681	11.020273	9.589317	-2.825749	-2.108871	0.012682	-2.509389	-0.054688	-0.782227	0.311035	0.145150	-0.065209	-0.030016	-0.528120	-0.723559	0.109427	-0.430788	96.051316	-47.644697	26.124885
62387		11.597505	-7.004280	-0.037812	11.342502	6.379400	-6.043314	-1.686118	0.071737	-1.843086	-0.063232	-0.793457	0.300293	0.115323	-0.071108	0.000177	-0.537912	-0.719915	0.106446	-0.425491	94.948535	-46.648163	26.330845
62388		8.676804	-6.127313	1.651607	9.931170	3.618193	-7.853795	-1.470770	-0.091690	-1.290893	-0.060791	-0.800293	0.284912	0.086363	-0.061708	0.017008	-0.545895	-0.716806	0.105146	-0.420871	94.098416	-45.902952	26.340547
62389		6.589213	-4.082446	1.529109	7.362888	2.228252	-8.011482	-1.382504	-0.265667	-0.890969	-0.064697	-0.811279	0.276367	0.065689	-0.041010	0.015661	-0.552334	-0.714012	0.105972	-0.416993	93.438980	-45.442038	26.157591
62390		5.181631	-3.126785	0.898389	5.617776	1.938722	-8.358432	-1.160134	-0.361594	-0.394366	-0.071289	-0.815918	0.260986	0.051738	-0.031317	0.009259	-0.557112	-0.711757	0.107956	-0.413974	92.969621	-45.201131	25.882297
62391		4.018311	-3.715164	0.868596	5.246823	1.768495	-9.596307	-0.821156	-0.346482	0.153503	-0.084473	-0.822754	0.250000	0.040196	-0.037085	0.008908	-0.559344	-0.710040	0.111651	-0.412931	92.710989	-45.340543	25.570945
62392		2.537038	-3.755144	1.253634	4.522191	0.959187	-10.672281	-0.354443	-0.386993	0.653740	-0.102295	-0.822998	0.241211	0.025468	-0.037446	0.012652	-0.559048	-0.709477	0.115761	-0.413168	92.750588	-45.700436	25.230264
62393		1.618451	-3.072671	1.282533	3.538554	0.409368	-10.820926	0.093168	-0.471391	1.126536	-0.131104	-0.827393	0.245605	0.016327	-0.030641	0.012849	-0.555968	-0.709957	0.121429	-0.414868	93.122522	-46.393935	24.762738
62394		1.286270	-2.242978	1.149498	2.752684	0.140387	-10.452776	0.337698	-0.498374	1.573984	-0.146729	-0.827637	0.241211	0.013010	-0.022347	0.011489	-0.551198	-0.710949	0.127674	-0.417649	93.675827	-47.273620	24.268896
62395		1.532954	-1.606028	0.883393	2.379580	0.215956	-9.790556	0.447206	-0.497513	2.010037	-0.173584	-0.823242	0.245361	0.015468	-0.015925	0.008837	-0.544964	-0.711774	0.135841	-0.421828	94.337626	-48.464863	23.687075
62396		1.749807	-1.278465	0.631113	2.179105	0.371444	-9.356683	0.515064	-0.506504	2.413778	-0.202637	-0.817139	0.240723	0.017635	-0.012589	0.006323	-0.537669	-0.712551	0.144691	-0.426904	95.097376	-49.815750	23.072280
62397		2.086969	-1.289255	0.499563	2.314328	0.563357	-9.042395	0.593683	-0.497664	2.801302	-0.234131	-0.808350	0.247070	0.021035	-0.012614	0.005010	-0.529084	-0.712954	0.155333	-0.433172	95.973976	-51.447080	22.338402
62398		2.440881	-1.100785	0.228147	2.243389	0.793974	-8.564524	0.744793	-0.487218	3.179519	-0.270020	-0.804199	0.251221	0.024574	-0.010627	0.002301	-0.519109	-0.713415	0.166299	-0.440352	97.025770	-53.222034	21.548442
62399		3.051570	-0.736718	0.007348	2.183952	0.937782	-7.762136	0.826695	-0.463371	3.561085	-0.308350	-0.791260	0.250732	0.030640	-0.006823	0.000115	-0.507784	-0.713316	0.178966	-0.448672	98.244679	-55.269591	20.588081
62400		3.726705	-0.789715	-0.060469	2.478697	1.099675	-7.136775	0.794471	-0.409289	3.950359	-0.337646	-0.780518	0.256836	0.037414	-0.007157	-0.000558	-0.495636	-0.712573	0.192252	-0.457847	99.573385	-57.466018	19.538781
62401		4.421815	-0.980031	-0.145422	2.827094	1.303605	-6.520427	0.712015	-0.360238	4.324098	-0.380615	-0.756592	0.262939	0.044419	-0.008836	-0.001407	-0.482675	-0.710622	0.207477	-0.467968	101.051876	-59.926698	18.243811
62402		5.274623	-1.002006	-0.240953	3.066975	1.431422	-5.638583	0.595778	-0.316199	4.653655	-0.430420	-0.737061	0.264404	0.052964	-0.008782	-0.002353	-0.469227	-0.707779	0.223301	-0.478551	102.712783	-62.495496	16.738204
62403		6.104037	-0.754604	-0.287885	3.032456	1.333267	-4.623237	0.429958	-0.273497	4.942624	-0.473389	-0.713135	0.270264	0.061206	-0.006029	-0.002809	-0.455371	-0.703459	0.240937	-0.489624	104.651209	-65.270486	14.811327
62404		6.964055	-0.186360	-0.300836	2.684802	1.002993	-3.456730	0.250224	-0.272174	5.184417	-0.516602	-0.689209	0.265137	0.069662	-0.000054	-0.002914	-0.441337	-0.698217	0.259075	-0.500595	107.019630	-68.083068	12.388695
62405		7.772106	-0.146664	0.072438	2.813679	0.515749	-2.585318	-0.009081	-0.222974	5.404252	-0.557617	-0.656738	0.264160	0.077722	0.000634	0.000811	-0.427338	-0.691212	0.278962	-0.511653	110.011174	-71.039592	9.147440
62406		8.431389	0.027404	0.016629	2.499250	0.285478	-1.766381	-0.069999	-0.250160	5.590318	-0.603271	-0.626221	0.263184	0.084262	0.002630	0.000271	-0.412783	-0.683640	0.298864	-0.522423	114.211203	-73.952250	4.702678
62407		9.327763	0.240291	0.307413	2.280051	-0.319906	-0.766447	-0.004352	-0.286894	5.741545	-0.640137	-0.586914	0.266602	0.093153	0.005079	0.003208	-0.397171	-0.675174	0.319580	-0.533164	120.673702	-76.858763	-2.024057
62408		10.423112	0.531818	0.785670	2.023035	-1.188492	0.385609	0.223574	-0.308154	5.845574	-0.681396	-0.547852	0.260986	0.104004	0.008352	0.008025	-0.380192	-0.666817	0.339170	-0.543850	130.833216	-79.481551	-12.269670
62409		11.155258	1.589087	1.186434	0.876070	-2.415837	1.220571	0.642799	-0.340791	5.883275	-0.716309	-0.499512	0.279541	0.111001	0.019123	0.012112	-0.361328	-0.658278	0.358160	-0.554827	147.574153	-81.606130	-28.918227
62410		12.052084	2.903013	1.293431	-0.678316	-3.577011	2.105967	1.258754	-0.359980	5.927227	-0.751221	-0.451416	0.280518	0.119568	0.032500	0.013347	-0.339954	-0.650642	0.374642	-0.566339	171.944660	-82.608353	-52.786500
62411		13.569865	4.666574	1.385935	-2.683979	-5.106056	3.397303	1.943864	-0.356543	5.977358	-0.772949	-0.400879	0.296875	0.134201	0.050553	0.014578	-0.315984	-0.642938	0.389629	-0.578770	-161.075401	-82.078965	-78.942922
62412		15.522485	7.805742	1.014901	-6.181001	-7.137091	4.804918	2.463440	-0.266864	5.947879	-0.808350	-0.339600	0.303955	0.152801	0.082491	0.011352	-0.290194	-0.635690	0.401821	-0.591798	-140.877635	-80.269280	-97.947878
62413		17.694910	10.877865	0.517980	-9.800092	-9.250664	5.997581	2.608595	-0.122573	5.763092	-0.823486	-0.282471	0.313477	0.173715	0.113735	0.006749	-0.264696	-0.627393	0.412980	-0.604782	-127.480135	-77.822969	-110.140051
62414		19.675042	13.063627	-1.109348	-13.306918	-10.109705	6.907498	2.587105	-0.088178	5.407693	-0.840820	-0.229736	0.321045	0.193125	0.136019	-0.009271	-0.239952	-0.619645	0.422034	-0.616725	-119.084599	-75.203170	-117.246978
62415		21.647449	15.040262	-2.755357	-16.731774	-10.941525	7.582265	2.325024	-0.011802	4.882673	-0.848877	-0.183594	0.333008	0.212714	0.155933	-0.025749	-0.217928	-0.611427	0.430324	-0.627285	-113.354235	-72.676092	-121.894331
62416		23.146568	17.298635	-3.759056	-19.914049	-12.375774	7.486628	1.873314	0.082054	4.179162	-0.858887	-0.148682	0.327637	0.227764	0.178114	-0.036032	-0.199236	-0.604068	0.437005	-0.635951	-109.524601	-70.466997	-124.799223
62417		21.273312	20.038918	-4.345196	-22.502051	-13.340265	3.919973	1.230260	0.225501	3.563658	-0.864502	-0.109131	0.326660	0.209067	0.204399	-0.042440	-0.185044	-0.596311	0.443843	-0.642787	-106.728482	-68.569770	-127.090391
62418		16.458025	20.984307	-3.936918	-22.208982	-13.019204	-1.818275	0.538424	0.447221	3.020537	-0.876465	-0.083008	0.321533	0.161297	0.212401	-0.039163	-0.174723	-0.588606	0.450636	-0.648029	-104.671384	-66.976052	-128.979506
62419		13.943794	21.009426	-3.421151	-21.483145	-12.706109	-4.859727	0.164607	0.524048	2.185797	-0.874756	-0.065430	0.312256	0.137041	0.211629	-0.034399	-0.168750	-0.581913	0.456136	-0.651798	-103.194932	-65.856690	-130.530363
62420		13.351591	20.254650	-3.928529	-21.178215	-11.698392	-5.503520	0.097036	0.530193	1.406485	-0.879395	-0.056885	0.305420	0.131982	0.203497	-0.039538	-0.165111	-0.577052	0.459437	-0.654727	-102.102576	-65.140129	-131.670078
62421		12.936703	19.147791	-4.757165	-20.810067	-10.294221	-5.618303	0.248916	0.565337	0.822771	-0.884277	-0.045898	0.307373	0.128443	0.192067	-0.047697	-0.163428	-0.573518	0.460437	-0.657546	-101.077569	-64.786297	-132.671346
62422		11.433575	17.750094	-4.589041	-19.263194	-9.230513	-6.560310	0.458169	0.493152	0.299984	-0.882080	-0.045898	0.302979	0.113956	0.177777	-0.045765	-0.162284	-0.571586	0.459369	-0.660252	-100.160224	-64.672715	-133.395868
62423		9.693235	16.713919	-3.847397	-17.515868	-8.782012	-7.766650	0.693074	0.314968	-0.287036	-0.886475	-0.048096	0.309570	0.097112	0.167132	-0.038048	-0.162357	-0.571973	0.455744	-0.662408	-99.467070	-64.923846	-133.730637
62424		8.749568	15.899226	-3.339219	-16.262827	-8.574770	-8.237717	1.082628	0.076559	-0.867038	-0.879395	-0.056885	0.305420	0.088172	0.158789	-0.032566	-0.162326	-0.574569	0.449591	-0.664371	-98.925192	-65.424575	-133.644624
62425		8.476225	14.597942	-2.532043	-14.620776	-8.581708	-7.828180	1.303896	-0.120718	-1.214402	-0.872559	-0.067627	0.314453	0.085662	0.145622	-0.024319	-0.162688	-0.579084	0.441469	-0.665807	-98.607829	-66.171631	-133.167613
62426		11.673359	5.295297	-11.337044	-14.198611	2.305776	-0.543648	1.815879	-0.495159	-0.846918	-0.879395	-0.063232	0.318848	0.117239	0.053482	-0.112597	-0.159171	-0.584057	0.433336	-0.667654	-98.373704	-66.613059	-132.288074
62427		15.987036	-12.801340	-8.408227	-0.490999	9.162614	10.335778	1.487878	-0.192046	-0.769025	-0.874512	-0.072021	0.321289	0.159459	-0.127998	-0.084881	-0.157161	-0.588064	0.425728	-0.669505	-97.998479	-67.107933	-131.737339
62428		22.280964	-26.681712	8.112537	18.573896	3.161903	20.505256	-0.533716	0.645457	-0.784239	-0.869873	-0.083008	0.312744	0.222023	-0.267472	0.081121	-0.162750	-0.587153	0.424678	-0.669636	-97.572065	-67.606672	-132.531096
62429		17.647695	-1.548305	10.274057	3.383348	-11.698239	6.651930	0.647524	0.241270	-2.021190	-0.873535	-0.102783	0.317627	0.176430	-0.017598	0.102473	-0.168251	-0.591573	0.415906	-0.669892	-97.298644	-68.833208	-132.396994
62430		17.256220	14.516802	4.303651	-11.617739	-16.513332	1.111800	0.944617	-0.393624	-2.391310	-0.864258	-0.115723	0.326904	0.174194	0.142885	0.044057	-0.172657	-0.598618	0.405948	-0.668620	-97.838288	-70.165229	-131.243498
62431		18.044870	3.770114	0.236169	-6.398404	-7.023139	5.986343	0.240280	-0.762575	-2.026093	-0.857178	-0.135254	0.333984	0.180807	0.035867	0.003094	-0.177632	-0.605663	0.399427	-0.664889	-99.475722	-71.315983	-129.377449
62432		14.190147	4.045821	0.438292	-5.376267	-6.272752	2.420846	-0.647770	-0.613532	-2.338841	-0.854004	-0.161621	0.336914	0.142348	0.038810	0.004692	-0.186154	-0.611759	0.394994	-0.659604	-101.661874	-72.572528	-127.468988
62433		8.526921	4.494315	-0.444674	-5.048389	-4.423703	-2.881216	-0.645303	-0.529718	-2.320234	-0.851318	-0.181152	0.346191	0.085794	0.043936	-0.004363	-0.195270	-0.617611	0.390218	-0.654337	-104.048308	-73.872632	-125.385639
62434		9.013649	6.121062	-0.838430	-6.432789	-5.182513	-2.659217	0.045506	-0.713227	-2.105262	-0.834961	-0.198730	0.348877	0.090803	0.060259	-0.008047	-0.200637	-0.624067	0.384222	-0.650122	-106.577542	-74.931950	-122.733182
62435		12.254226	5.890460	0.371751	-5.735414	-6.577532	0.619792	-0.259166	-0.472962	-1.999146	-0.836670	-0.220703	0.349609	0.123114	0.057681	0.003933	-0.207589	-0.629316	0.379004	-0.645930	-109.165772	-76.010676	-120.237567
62436		9.607720	1.146161	-1.475403	-2.920481	-1.587820	-0.606917	-0.195099	-0.486402	-1.573312	-0.827148	-0.238037	0.358887	0.096199	0.010691	-0.014531	-0.212379	-0.633652	0.375157	-0.642369	-111.658120	-76.762043	-117.788672
62437		9.912295	1.564876	-2.597607	-3.855325	-1.009738	-0.243727	0.110955	-0.485194	-1.417400	-0.822266	-0.253174	0.365967	0.099293	0.014960	-0.025727	-0.216241	-0.638119	0.370544	-0.639328	-114.222571	-77.471695	-115.120037
62438		11.411454	3.408004	-1.130782	-4.277446	-3.511891	0.793067	-0.179392	-0.321437	-1.408367	-0.819824	-0.264160	0.364014	0.114369	0.033265	-0.011154	-0.220738	-0.641554	0.366943	-0.636425	-116.704475	-78.124733	-112.686399
62439		9.848285	1.871125	-1.878510	-3.356512	-1.609900	-0.317462	-0.257675	-0.300238	-1.192371	-0.808105	-0.277344	0.370850	0.098620	0.018099	-0.018661	-0.225347	-0.644563	0.363974	-0.633467	-119.331880	-78.713118	-110.178536
62440		10.013731	-0.032126	-1.967077	-1.886833	-0.317029	0.211462	-0.070952	-0.258487	-1.053481	-0.801025	-0.290283	0.369141	0.100159	-0.000856	-0.019541	-0.228463	-0.647218	0.361069	-0.631302	-121.598728	-79.161843	-107.910637
62441		9.722414	-0.755448	-1.570788	-0.964139	-0.051568	0.017391	0.119562	-0.259522	-0.956975	-0.796143	-0.303467	0.375977	0.097207	-0.008010	-0.015586	-0.231123	-0.650070	0.357585	-0.629384	-123.998376	-79.602493	-105.418273
62442		10.032798	-0.235058	-1.609872	-1.311697	-0.367107	0.259446	0.098639	-0.250723	-0.943472	-0.798340	-0.310059	0.382813	0.100336	-0.002816	-0.015974	-0.233345	-0.652660	0.354474	-0.627641	-126.331355	-79.965132	-102.990731
62443		10.525792	0.970185	-1.361462	-1.979976	-1.356409	0.571244	-0.026028	-0.224365	-0.980578	-0.777832	-0.322998	0.383301	0.105319	0.009184	-0.013498	-0.236563	-0.655242	0.351311	-0.625522	-129.175907	-80.384082	-100.134554
62444		10.628014	0.964751	-1.154035	-1.752602	-1.478316	0.673463	-0.023213	-0.193542	-0.921638	-0.780029	-0.327393	0.383301	0.106334	0.009156	-0.011439	-0.239204	-0.657439	0.348568	-0.623743	-131.768694	-80.717137	-97.520038
62445		10.503058	-0.173042	-1.477241	-1.010090	-0.434053	0.738006	0.086108	-0.164964	-0.798696	-0.770508	-0.344727	0.388184	0.105035	-0.002144	-0.014687	-0.241563	-0.659614	0.345572	-0.622203	-134.393596	-81.034564	-94.826634
62446		10.770371	0.255165	-1.469815	-1.260611	-0.716267	0.963380	0.068291	-0.128194	-0.749907	-0.763428	-0.353760	0.381836	0.107722	0.002153	-0.014628	-0.243473	-0.661394	0.343018	-0.620981	-136.673123	-81.286255	-92.480555
62447		10.782835	1.343546	-1.156650	-1.801935	-1.606555	0.844890	-0.057516	-0.094156	-0.725112	-0.758789	-0.362305	0.384277	0.107882	0.013041	-0.011520	-0.246167	-0.663024	0.340618	-0.619500	-139.325578	-81.565687	-89.844867
62448		9.973345	1.182810	-0.911042	-1.457701	-1.529078	0.048006	-0.143286	-0.127600	-0.658686	-0.751709	-0.377686	0.393555	0.099777	0.011493	-0.009055	-0.248489	-0.664368	0.339012	-0.618012	-141.730716	-81.752092	-87.497440
62449		9.184818	0.878219	-0.867823	-1.136293	-1.220352	-0.696520	-0.013104	-0.299431	-0.623743	-0.742676	-0.379639	0.398193	0.091888	0.008495	-0.008541	-0.250363	-0.666487	0.337069	-0.616034	-144.803707	-81.864689	-84.414668
62450		9.243119	0.082925	-1.355243	-0.789049	-0.337639	-0.509898	0.167478	-0.379630	-0.569387	-0.731201	-0.390625	0.396240	0.092459	0.000577	-0.013376	-0.250943	-0.668829	0.335107	-0.614327	-147.473098	-81.868484	-81.621676
62451		9.082500	-0.814031	-1.865144	-0.382183	0.661124	-0.536383	0.179856	-0.335903	-0.530332	-0.729004	-0.390625	0.398438	0.090834	-0.008364	-0.018506	-0.251806	-0.671121	0.332929	-0.612657	-150.267375	-81.890792	-78.709221
62452		9.618117	-0.267594	-1.934466	-0.773195	0.293650	-0.033237	0.121391	-0.239723	-0.519210	-0.715332	-0.403564	0.409912	0.096197	-0.002914	-0.019231	-0.252614	-0.672877	0.331093	-0.611392	-152.519506	-81.915020	-76.364617
62453		10.173415	0.795800	-1.484740	-1.204163	-0.787647	0.398360	0.025117	-0.146856	-0.511387	-0.712891	-0.407959	0.405518	0.101765	0.007700	-0.014772	-0.254207	-0.674358	0.329203	-0.610119	-155.010063	-81.992088	-73.845110
62454		10.051704	1.207862	-1.081171	-1.207984	-1.316895	0.210833	-0.059317	-0.090353	-0.500064	-0.701416	-0.418701	0.407959	0.100552	0.011824	-0.010770	-0.255809	-0.675387	0.327789	-0.609071	-157.089379	-82.063215	-71.780281
62455		10.208884	0.281346	-1.185826	-0.520623	-0.620634	0.436713	-0.091359	-0.061265	-0.460445	-0.697021	-0.418701	0.414795	0.102099	0.002573	-0.011828	-0.257771	-0.676359	0.326321	-0.607954	-159.394778	-82.146957	-69.516290
62456		9.949760	0.213927	-0.691340	-0.119473	-0.886096	0.123199	-0.099149	-0.062704	-0.432892	-0.683105	-0.431885	0.410645	0.099504	0.001920	-0.006883	-0.259345	-0.677134	0.325215	-0.607013	-161.265948	-82.198484	-67.685329
62457		10.013483	0.277418	-0.317618	0.123657	-1.185359	0.138552	-0.117265	-0.066847	-0.410151	-0.680908	-0.431641	0.415039	0.100141	0.002567	-0.003144	-0.261230	-0.677984	0.324016	-0.605897	-163.450093	-82.248068	-65.560828
62458		9.968737	1.066123	-0.641550	-0.650203	-1.430906	0.109687	-0.126209	-0.077248	-0.407161	-0.667236	-0.442627	0.415527	0.099711	0.010454	-0.006384	-0.262791	-0.678719	0.323095	-0.604889	-165.291746	-82.269909	-63.775683
62459		9.602805	1.151530	-0.777941	-0.784446	-1.312079	-0.231036	-0.209547	-0.058049	-0.402874	-0.662598	-0.446777	0.426514	0.096053	0.011314	-0.007763	-0.264994	-0.679378	0.322211	-0.603659	-167.515708	-82.304111	-61.668359
62460		9.703549	1.430699	-1.243864	-1.258699	-1.131608	-0.071643	-0.280837	-0.049631	-0.401114	-0.653564	-0.453613	0.411377	0.097067	0.014095	-0.012434	-0.267104	-0.679808	0.321737	-0.602496	-169.417440	-82.323543	-59.912226
62461		9.204915	0.414843	-1.689590	-0.768671	-0.047745	-0.476522	-0.286955	-0.058435	-0.407202	-0.644287	-0.462158	0.418213	0.092062	0.003937	-0.016875	-0.269581	-0.680354	0.321078	-0.601127	-171.722347	-82.337781	-57.769379
62462		8.984728	-0.570080	-2.315908	-0.403223	1.109313	-0.592033	-0.158199	-0.082161	-0.391665	-0.628418	-0.470947	0.418457	0.089845	-0.005895	-0.023118	-0.271190	-0.681023	0.320307	-0.600056	-173.541426	-82.320925	-56.025813
62463		9.542087	0.871241	-2.609089	-1.606368	0.362919	-0.019550	-0.201440	-0.047629	-0.401267	-0.624023	-0.472900	0.423096	0.095444	0.008495	-0.026077	-0.273336	-0.681644	0.319380	-0.598869	-175.753007	-82.319286	-53.923343
62464		9.651418	1.453835	-2.414239	-1.882165	-0.142513	0.062990	-0.265125	0.011613	-0.425430	-0.610352	-0.481689	0.414307	0.096543	0.014301	-0.024167	-0.275558	-0.681933	0.318683	-0.597894	-177.741126	-82.340520	-52.071035
62465		9.422874	1.408546	-2.486274	-1.872489	0.007018	-0.145752	-0.330460	0.054119	-0.448919	-0.610107	-0.490479	0.425781	0.094253	0.013833	-0.024911	-0.278405	-0.682160	0.317810	-0.596778	179.780213	-82.374761	-49.768200
62466		9.137983	0.640615	-1.867718	-0.880273	0.099728	-0.505892	-0.421962	0.055953	-0.478493	-0.592041	-0.499023	0.419434	0.091390	0.006148	-0.018716	-0.281386	-0.682171	0.317334	-0.595621	177.449002	-82.400598	-47.660666
62467		9.778622	0.644685	-0.979617	-0.220009	-0.595482	0.015508	-0.448191	0.078515	-0.545607	-0.587158	-0.507813	0.421875	0.097799	0.006158	-0.009849	-0.284926	-0.682313	0.316423	-0.594258	174.458804	-82.416761	-44.905836
62468		9.982158	0.280792	-0.371287	0.504033	-0.801621	0.135337	-0.468181	0.075458	-0.611711	-0.566895	-0.518799	0.417725	0.099828	0.002494	-0.003757	-0.288484	-0.682393	0.315593	-0.592890	171.504363	-82.416827	-42.196440
62469		10.406119	0.611962	-0.274700	0.406476	-1.067678	0.552234	-0.510360	0.041678	-0.733270	-0.555420	-0.527588	0.413574	0.104082	0.005731	-0.002784	-0.292736	-0.682808	0.314290	-0.591017	167.735051	-82.354328	-38.694258
62470		11.047010	0.947455	0.528733	0.774499	-1.891181	1.097699	-0.673957	0.052673	-0.865750	-0.543945	-0.536133	0.413818	0.110511	0.009014	0.005227	-0.297701	-0.683024	0.313219	-0.588852	163.701414	-82.260578	-35.014165
62471		11.295420	0.149833	0.898747	1.727439	-1.622959	1.268729	-0.841635	0.078396	-0.970401	-0.525879	-0.547119	0.409668	0.112963	0.000988	0.008938	-0.303859	-0.683131	0.312050	-0.586196	158.946228	-82.111304	-30.713899
62472		11.019960	-0.241573	0.686720	1.950213	-1.120298	0.999805	-0.964931	0.108356	-1.081184	-0.514404	-0.558105	0.407715	0.110188	-0.002978	0.006821	-0.310512	-0.683024	0.310988	-0.583393	154.133786	-81.920220	-26.413174
62473		10.947259	-0.096620	0.494560	1.803199	-0.963686	0.953686	-1.036757	0.165120	-1.216435	-0.496094	-0.571289	0.397217	0.109468	-0.001607	0.004862	-0.318207	-0.682833	0.309440	-0.580285	148.691030	-81.653018	-21.536892
62474		11.346636	-0.395948	0.026438	1.915092	-0.329823	1.373252	-0.982331	0.241632	-1.357362	-0.482422	-0.582031	0.401855	0.113436	-0.004729	0.000149	-0.325888	-0.682652	0.307235	-0.577399	143.272915	-81.330324	-16.628177
62475		11.364520	0.177377	-0.626779	1.197761	-0.024368	1.507150	-0.812537	0.269853	-1.509739	-0.459473	-0.599609	0.384766	0.113646	0.000890	-0.006426	-0.333808	-0.682832	0.303872	-0.574434	137.667410	-80.878269	-11.455298
62476		11.617100	0.125459	-0.785830	1.317355	0.265363	1.753687	-0.639657	0.291335	-1.673149	-0.437012	-0.603760	0.387207	0.116164	0.000257	-0.008029	-0.341253	-0.683449	0.299472	-0.571629	132.467367	-80.316068	-6.556579
62477		11.806307	-0.229771	-0.906814	1.715268	0.726060	1.883062	-0.440997	0.318493	-1.827428	-0.418701	-0.619141	0.383057	0.118021	-0.003396	-0.009249	-0.348828	-0.684463	0.293847	-0.568756	127.434502	-79.605518	-1.733842
62478		11.948186	0.019770	-0.737848	1.799265	0.607723	2.006468	-0.255984	0.330921	-1.977216	-0.400635	-0.625732	0.383301	0.119464	-0.000993	-0.007575	-0.355822	-0.685953	0.287190	-0.566022	123.034112	-78.785621	2.595946
62479		12.417907	0.256569	-0.515965	2.012325	0.478729	2.445036	-0.170393	0.326650	-2.139439	-0.371338	-0.638672	0.383789	0.124188	0.001233	-0.005364	-0.363283	-0.687714	0.279675	-0.562900	118.974986	-77.804105	6.608348
62480		13.201138	-0.153912	-0.211617	2.881426	0.688291	3.054096	-0.103390	0.311161	-2.331067	-0.353271	-0.642822	0.386230	0.131978	-0.003079	-0.002320	-0.370636	-0.689869	0.271339	-0.559539	115.501542	-76.693898	10.108141
62481		14.530916	-0.539940	0.110620	3.918242	0.936971	4.159041	0.025270	0.292054	-2.543496	-0.324219	-0.646973	0.384277	0.145226	-0.007247	0.000893	-0.378406	-0.692428	0.261907	-0.555660	112.416162	-75.403025	13.264995
62482		15.647642	-1.099066	0.156934	4.939903	1.549516	4.994818	0.144504	0.255126	-2.728501	-0.308594	-0.651367	0.388672	0.156309	-0.013125	0.001361	-0.385811	-0.695506	0.251525	-0.551504	109.928345	-73.993590	15.929324
62483		15.846233	-1.414711	-0.065348	5.426746	2.211098	4.977611	0.184172	0.176063	-2.861136	-0.279297	-0.659912	0.389160	0.158238	-0.016411	-0.000807	-0.393627	-0.698801	0.240742	-0.546606	107.877385	-72.451638	18.137041
62484		16.831378	-1.142802	0.196325	5.996931	2.226180	5.798177	0.134944	0.074028	-3.021560	-0.259277	-0.661865	0.393555	0.168116	-0.013970	0.001892	-0.401484	-0.702426	0.229615	-0.541004	106.294763	-70.804868	19.885398
62485		17.588667	-2.005357	0.132756	7.238811	3.161989	6.029511	0.116769	-0.037204	-3.184474	-0.239014	-0.663818	0.395996	0.175537	-0.022851	0.001347	-0.409981	-0.706193	0.218275	-0.534381	105.008698	-69.023839	21.273824
62486		19.067494	-3.406932	-0.547266	8.815420	5.015723	6.697074	-0.014772	-0.186236	-3.326715	-0.216553	-0.668213	0.391602	0.190078	-0.037235	-0.005293	-0.418687	-0.710197	0.206892	-0.526800	104.063017	-67.147610	22.283338
62487		20.377905	-2.906222	-1.618660	8.798899	6.112549	7.836613	-0.289274	-0.358021	-3.468651	-0.191650	-0.681152	0.398682	0.203262	-0.032614	-0.015777	-0.428786	-0.713847	0.196257	-0.517733	103.235875	-65.157978	22.947347
62488		23.243040	-3.779002	-2.082026	10.853865	7.763756	9.699166	-0.768679	-0.475144	-3.489152	-0.166992	-0.689941	0.385742	0.231771	-0.041916	-0.020113	-0.440050	-0.716740	0.186752	-0.507704	102.423264	-63.143914	23.360224
62489		25.301850	-6.916086	-2.282319	14.484384	10.292603	9.614441	-1.406318	-0.399545	-3.463870	-0.155518	-0.698486	0.388184	0.251813	-0.073685	-0.021812	-0.453734	-0.717592	0.179029	-0.497127	101.233242	-61.155546	23.735585
62490		26.365277	-14.045595	-4.367584	19.425246	16.250979	6.617767	-0.377364	-0.187962	-3.386756	-0.135254	-0.702881	0.379639	0.261264	-0.144976	-0.043159	-0.463295	-0.720132	0.168188	-0.488344	100.558354	-59.225260	24.263505
62491		22.468911	-5.268236	0.344039	14.535801	7.342299	6.541876	0.400793	0.190672	-3.472894	-0.130615	-0.711426	0.393066	0.223732	-0.056579	0.003116	-0.470596	-0.723233	0.154612	-0.481215	100.016105	-57.307439	25.117833
62492		22.543923	-1.398127	-3.878576	10.085737	9.279498	8.554309	-0.188493	-0.060533	-3.357488	-0.108154	-0.720215	0.388916	0.225174	-0.017799	-0.038702	-0.479266	-0.725430	0.143016	-0.472866	99.467820	-55.401161	25.646008
62493		17.945995	-1.421956	-4.490096	7.834149	8.991118	4.399911	0.366028	0.078765	-3.398201	-0.107666	-0.735352	0.400391	0.179167	-0.017183	-0.045001	-0.486079	-0.728269	0.130088	-0.465220	99.155340	-53.521115	26.232441
62494		15.234555	4.419171	-3.213432	3.725030	4.668342	5.228870	0.003436	0.349166	-3.734645	-0.087402	-0.735352	0.387207	0.153079	0.041338	-0.032400	-0.494916	-0.729766	0.115581	-0.457319	98.470758	-51.432761	27.097286
62495		12.339038	7.296035	-6.797521	-1.250986	5.791161	4.903338	-0.583973	0.306839	-3.709654	-0.082520	-0.750732	0.385498	0.124608	0.070457	-0.068374	-0.505643	-0.729504	0.103055	-0.448920	97.556526	-49.393293	27.807529
62496		14.271788	-7.575878	-7.064137	8.990569	13.793915	-3.499604	-1.328101	0.401341	-2.604224	-0.069092	-0.755371	0.367920	0.141570	-0.078075	-0.070413	-0.516506	-0.726507	0.095482	-0.443050	96.329189	-47.935491	28.427882
62497		13.680372	-7.313839	-4.309028	10.152381	11.261685	-4.399760	-1.663441	0.353957	-2.362993	-0.075195	-0.773193	0.350586	0.135848	-0.075104	-0.042712	-0.527736	-0.722436	0.089989	-0.437587	95.016944	-46.655385	28.911486
62498		9.578159	-7.093213	-0.548422	9.701466	6.635572	-7.762778	-2.171864	0.464218	-1.546081	-0.065918	-0.777832	0.324219	0.095217	-0.071725	-0.004930	-0.539145	-0.716318	0.087894	-0.434149	93.426229	-45.787116	29.390399
62499		5.927712	-5.611749	0.008850	6.975790	4.227928	-9.512275	-2.611616	0.187120	-1.188941	-0.073975	-0.802246	0.304932	0.058943	-0.056461	0.000769	-0.550861	-0.709303	0.089164	-0.430686	91.798227	-45.170503	29.579371
62500		4.264297	-3.984886	-0.698196	4.684124	3.545063	-9.609364	-2.527359	-0.107875	-0.740866	-0.075928	-0.809082	0.274170	0.042498	-0.040090	-0.006453	-0.561344	-0.702842	0.092240	-0.427081	90.402561	-44.740511	29.504484
62501		3.675076	-4.933475	-0.785067	4.922489	3.659545	-10.727743	-2.144819	-0.317880	-0.130822	-0.097900	-0.822754	0.252197	0.036730	-0.049439	-0.007262	-0.568721	-0.697506	0.097673	-0.424856	89.363538	-44.730737	29.237660
62502		2.448639	-6.024255	0.312711	5.428808	2.543151	-12.351329	-1.560992	-0.485313	0.446198	-0.108887	-0.820801	0.232178	0.024612	-0.060161	0.003656	-0.572979	-0.693854	0.103894	-0.423636	88.740615	-44.986584	28.852103
62503		1.260372	-5.577827	1.058600	4.812737	1.271266	-12.819732	-0.847315	-0.699189	0.930128	-0.128906	-0.825439	0.234375	0.012825	-0.055673	0.010867	-0.573300	-0.692385	0.111392	-0.423700	88.657860	-45.598086	28.285919
62504		0.919171	-4.422433	1.281507	4.000145	0.567686	-12.204622	-0.327965	-0.827941	1.363947	-0.153320	-0.827881	0.221191	0.009440	-0.044139	0.012926	-0.571085	-0.692417	0.119151	-0.424528	88.943019	-46.385035	27.627518
62505		1.410943	-3.528214	1.298493	3.754054	0.417171	-11.175733	-0.048438	-0.901078	1.792275	-0.173340	-0.830322	0.221191	0.014366	-0.035151	0.013058	-0.566638	-0.693032	0.128573	-0.426728	89.461530	-47.491826	26.869690
62506		1.757443	-2.981251	1.425545	3.673993	0.225275	-10.490413	0.154598	-0.960606	2.229513	-0.195557	-0.828369	0.216553	0.017837	-0.029626	0.014318	-0.560706	-0.694036	0.138654	-0.429765	90.158366	-48.766861	26.052275
62507		1.999611	-2.587387	1.660486	3.663236	-0.058723	-9.977124	0.218738	-0.951722	2.637721	-0.220459	-0.819580	0.214111	0.020256	-0.025626	0.016673	-0.553347	-0.694697	0.150603	-0.434191	90.949182	-50.347985	25.157268
62508		2.529617	-1.933108	1.732687	3.542027	-0.225748	-9.077472	0.286878	-0.926013	3.050276	-0.263184	-0.808838	0.218018	0.025507	-0.018968	0.017417	-0.544980	-0.695117	0.163092	-0.439557	91.824973	-52.078214	24.244106
62509		3.007822	-1.425616	1.782143	3.440709	-0.370501	-8.303151	0.265032	-0.866191	3.461904	-0.294434	-0.800293	0.213379	0.030242	-0.013757	0.017934	-0.535476	-0.694650	0.177554	-0.446319	92.750759	-54.117717	23.243947
62510		3.603374	-1.689615	1.435116	3.752384	0.123187	-7.862988	0.289581	-0.799862	3.820539	-0.341797	-0.787598	0.215088	0.036290	-0.016225	0.014472	-0.525153	-0.693688	0.192258	-0.453925	93.752009	-56.273237	22.226268
62511		4.306186	-1.979018	1.322357	4.206199	0.410334	-7.293766	0.494258	-0.777081	4.140341	-0.371094	-0.776611	0.221436	0.043408	-0.018927	0.013344	-0.513030	-0.692388	0.208233	-0.462642	95.024946	-58.684181	21.009269
62512		5.411752	-1.561369	1.662330	4.459692	0.058592	-5.992820	0.778252	-0.770066	4.419548	-0.414063	-0.757080	0.231689	0.054381	-0.014479	0.016775	-0.499200	-0.691389	0.223628	-0.471987	96.672228	-61.154483	19.620806
62513		6.691922	-0.511306	2.251386	4.295413	-0.825139	-4.247310	0.977552	-0.714282	4.654429	-0.455078	-0.730957	0.233154	0.066935	-0.003666	0.022733	-0.483782	-0.689803	0.239932	-0.482243	98.709229	-63.825654	17.901863
62514		8.002252	0.647821	2.598176	3.823713	-1.624181	-2.468573	1.031011	-0.588076	4.881718	-0.495850	-0.709229	0.243652	0.079758	0.008292	0.026256	-0.467620	-0.687646	0.255604	-0.493094	101.052269	-66.519937	15.971305
62515		9.442910	1.523856	2.716448	3.363098	-2.192876	-0.716964	0.878853	-0.432386	5.111615	-0.536865	-0.678467	0.255859	0.093942	0.017524	0.027442	-0.451245	-0.683584	0.272815	-0.504642	103.725584	-69.413524	13.561254
62516		10.444685	2.081687	2.349532	2.654168	-2.304166	0.510385	0.627965	-0.303097	5.305047	-0.578125	-0.641602	0.248291	0.103811	0.023502	0.023724	-0.435161	-0.678290	0.289924	-0.516237	106.874230	-72.296891	10.609757
62517		11.180035	2.012316	1.962129	2.242075	-2.190987	1.279400	0.427040	-0.169443	5.414223	-0.617188	-0.608887	0.253906	0.111185	0.023097	0.019763	-0.419379	-0.671018	0.308385	-0.527973	110.934077	-75.288904	6.552054
62518		11.952420	1.295163	1.607791	2.344078	-1.833017	1.944537	0.564267	-0.072638	5.524670	-0.651611	-0.571777	0.261719	0.119101	0.016200	0.016164	-0.402651	-0.663623	0.325441	-0.539968	116.848066	-78.166564	0.809639
62519		12.908127	1.107677	1.593720	2.076763	-2.070749	2.905141	1.075142	-0.045789	5.642815	-0.702148	-0.525879	0.269287	0.128698	0.014626	0.016039	-0.383731	-0.655801	0.342188	-0.552795	127.045074	-80.990997	-9.025685
62520		13.866766	1.964918	1.959587	1.004143	-3.187567	3.926677	1.650833	-0.008221	5.702740	-0.732666	-0.477783	0.274414	0.138035	0.023429	0.019785	-0.362399	-0.648954	0.356167	-0.566279	145.093378	-83.278095	-26.284911
62521		14.297764	3.293060	2.218677	-0.675363	-4.484590	4.314328	2.153692	0.064518	5.717941	-0.765625	-0.422852	0.286377	0.141970	0.036758	0.022523	-0.339382	-0.641420	0.369318	-0.580520	176.063984	-84.499307	-56.289729
62522		14.801993	4.563749	2.053093	-2.483313	-5.445724	4.618572	2.498730	0.194302	5.681672	-0.791504	-0.376953	0.293945	0.146669	0.049557	0.020991	-0.315099	-0.634304	0.379758	-0.595109	-150.698893	-83.870410	-88.250906
62523		15.684427	5.471726	0.915738	-4.538899	-5.498584	5.216410	2.711488	0.342589	5.627694	-0.813477	-0.319824	0.303467	0.155241	0.058972	0.009671	-0.290595	-0.625695	0.389768	-0.610034	-127.809649	-81.857707	-109.862657
62524		17.118348	5.988165	-0.451038	-6.478017	-5.319631	6.273048	2.684981	0.515913	5.498830	-0.830811	-0.262695	0.308594	0.169439	0.064614	-0.004103	-0.266319	-0.617020	0.397829	-0.624574	-114.855606	-79.310897	-121.430359
62525		18.596029	6.798434	-2.349514	-9.136049	-4.939545	7.204441	2.527045	0.656283	5.276196	-0.854736	-0.210205	0.315918	0.183999	0.073151	-0.023199	-0.243671	-0.606685	0.406029	-0.638513	-106.462599	-76.563162	-128.645337
62526		20.487457	9.643394	-4.152605	-13.491356	-5.946881	7.864196	2.256660	0.643921	4.878504	-0.860596	-0.159912	0.303711	0.202301	0.101855	-0.041051	-0.222495	-0.597261	0.412672	-0.650751	-101.264262	-73.939830	-132.682754
62527		20.575280	13.950411	-4.840787	-17.976251	-8.313795	5.967390	1.438580	0.633608	4.388696	-0.875244	-0.122559	0.307129	0.202468	0.144318	-0.048026	-0.205603	-0.586800	0.420957	-0.660446	-97.793565	-71.477455	-135.552208
62528		18.304899	15.863813	-5.187181	-19.638804	-8.942950	2.348626	0.345817	0.625740	3.899638	-0.883057	-0.085693	0.288330	0.179746	0.162254	-0.052159	-0.193013	-0.576775	0.430514	-0.666884	-95.850570	-69.304769	-137.404546
62529		16.011691	14.799129	-5.620960	-18.893894	-7.565255	-0.183327	-0.233644	0.511978	3.345106	-0.888428	-0.052734	0.287598	0.157468	0.150574	-0.056790	-0.184019	-0.566986	0.440819	-0.671076	-94.715053	-67.401316	-138.844202
62530		14.745339	14.033359	-5.747629	-18.300174	-6.773638	-1.652412	-0.282170	0.358573	2.732469	-0.884521	-0.037354	0.282715	0.145415	0.142248	-0.057938	-0.176448	-0.559455	0.449124	-0.673917	-94.122915	-65.859642	-139.665758
62531		13.484260	14.054544	-5.206605	-17.787754	-6.895744	-3.293995	-0.096371	0.241120	2.164190	-0.889648	-0.017578	0.284424	0.133249	0.141968	-0.052296	-0.170306	-0.553338	0.455470	-0.676284	-93.649411	-64.630782	-140.295246
62532		12.398487	15.235387	-4.406243	-17.921728	-7.902317	-5.163981	0.182477	0.156343	1.623509	-0.889893	-0.002441	0.272949	0.122708	0.153394	-0.044019	-0.164687	-0.549258	0.459181	-0.678489	-93.243992	-63.711102	-140.629950
62533		11.484790	16.375533	-4.233726	-18.378358	-8.418055	-6.754734	0.267966	0.073105	1.054877	-0.888184	0.010986	0.281494	0.113966	0.164415	-0.042159	-0.160847	-0.546703	0.461117	-0.680158	-92.920164	-63.129201	-140.845796
62534		10.410920	16.167660	-4.736448	-18.155932	-7.640964	-7.765431	0.184001	-0.038679	0.513686	-0.892822	0.013184	0.285889	0.103703	0.161987	-0.047195	-0.158533	-0.545805	0.461910	-0.680884	-92.828584	-62.837606	-140.830721
62535		9.591555	15.321031	-5.571383	-17.746291	-6.325669	-8.131263	0.126573	-0.180016	0.063954	-0.888184	0.010986	0.285889	0.095917	0.153276	-0.055531	-0.157840	-0.546489	0.461634	-0.680684	-92.952057	-62.835627	-140.617007
62536		9.047730	15.711714	-5.348374	-17.690115	-6.578407	-8.759940	-0.048300	-0.297809	-0.368650	-0.892578	0.008789	0.294922	0.090846	0.156937	-0.053387	-0.158564	-0.548323	0.461010	-0.679463	-93.335316	-63.040675	-140.218175
62537		8.761987	16.513894	-4.437116	-17.617639	-7.646343	-9.248436	-0.399077	-0.389467	-0.867338	-0.883057	-0.008545	0.297607	0.088421	0.164668	-0.044528	-0.161933	-0.551656	0.459955	-0.676679	-94.093879	-63.579409	-139.610920
62538		8.541740	16.195456	-3.252958	-16.616636	-8.319957	-9.109223	-0.680262	-0.476087	-1.371741	-0.878418	-0.021729	0.295654	0.086603	0.161252	-0.032874	-0.167376	-0.555862	0.458828	-0.672666	-95.169659	-64.344343	-138.847905
62539		17.254847	8.945067	-7.118970	-16.332088	-3.869183	2.299663	-0.589013	-0.740531	-1.113594	-0.873535	-0.030518	0.300293	0.173305	0.088278	-0.070810	-0.171283	-0.560889	0.457842	-0.668167	-96.582635	-65.009202	-137.631074
62540		8.632922	-10.607665	-4.758679	2.430199	6.936977	2.663899	-0.167178	-0.204040	-1.180481	-0.884277	-0.043701	0.302979	0.085749	-0.106624	-0.047410	-0.175251	-0.564129	0.455240	-0.666185	-97.106686	-65.670460	-137.160314
62541		20.438023	-36.565665	7.853450	25.969301	7.111561	23.224377	-0.988710	0.494625	-0.753517	-0.884033	-0.052490	0.302979	0.203198	-0.366031	0.079840	-0.181769	-0.563928	0.455394	-0.664501	-97.233634	-66.207790	-137.596170
62542		14.661367	-15.752790	7.122494	11.776332	-1.415290	9.504108	0.729760	0.313997	-1.519105	-0.883545	-0.070068	0.303467	0.145521	-0.158894	0.070418	-0.185493	-0.566996	0.448367	-0.665639	-96.645266	-67.097239	-137.782060
62543		19.070204	14.542173	-0.360230	-16.447726	-12.444994	2.427816	1.868688	-0.373383	-2.600615	-0.878662	-0.085205	0.308350	0.192576	0.142949	-0.001901	-0.188224	-0.576007	0.434749	-0.666169	-96.545637	-68.606376	-136.723495
62544		26.578050	9.953871	-3.159715	-16.134647	-9.563880	11.718807	0.802260	-0.728902	-2.782325	-0.871094	-0.109375	0.317871	0.267244	0.095951	-0.030235	-0.193602	-0.585183	0.424684	-0.663116	-97.712507	-70.140294	-134.986164
62545		16.080646	5.325676	-0.386782	-7.888436	-6.486485	3.706674	0.093076	-0.762494	-3.111481	-0.861328	-0.139893	0.322998	0.161622	0.050748	-0.003229	-0.202316	-0.594683	0.415536	-0.657838	-99.757530	-71.906073	-132.755467
62546		9.017559	2.062904	0.596224	-2.985045	-3.652823	-1.833559	-0.064847	-0.593146	-3.169207	-0.854004	-0.163818	0.332520	0.090469	0.019199	0.006224	-0.211700	-0.603084	0.406854	-0.652643	-101.975266	-73.629420	-130.473160
62547		5.916207	3.174454	-1.473792	-4.343417	-1.945932	-4.853303	1.085561	-0.832947	-2.803891	-0.844482	-0.181152	0.346191	0.059660	0.030989	-0.014321	-0.216216	-0.612909	0.395262	-0.649124	-104.416255	-75.156885	-127.285778
62548		9.542056	12.950022	-0.260672	-11.418007	-9.480095	-3.602947	1.220272	-0.613778	-2.549263	-0.837158	-0.200928	0.349121	0.097067	0.128281	-0.001525	-0.219541	-0.621202	0.384092	-0.646825	-106.605536	-76.474561	-124.307167
62549		10.642432	5.710367	0.310726	-5.445493	-5.726156	-0.673859	0.548319	-0.181080	-2.123266	-0.825439	-0.222656	0.356201	0.107020	0.055961	0.003358	-0.224731	-0.626767	0.375440	-0.644752	-108.462674	-77.677881	-122.072956
62550		8.544954	0.812953	-2.086178	-2.863494	-0.425435	-1.467194	0.854813	-0.317007	-1.664425	-0.829590	-0.231445	0.363037	0.085547	0.007507	-0.020693	-0.226839	-0.631853	0.367787	-0.643458	-110.291068	-78.521323	-119.704411
62551		12.582623	4.315457	0.454949	-4.118384	-5.163788	1.742519	0.239620	-0.035612	-1.631283	-0.822510	-0.244629	0.361328	0.126172	0.042121	0.004623	-0.231647	-0.635547	0.361427	-0.641709	-112.188730	-79.457456	-117.625371
62552		10.979774	3.901774	0.151399	-3.729016	-4.307338	0.352987	-0.430271	-0.063312	-1.505649	-0.817627	-0.257568	0.361572	0.110087	0.038193	0.001466	-0.237751	-0.637961	0.358064	-0.638961	-114.537699	-80.239059	-115.490030
62553		9.855981	3.042042	-0.358293	-3.203404	-3.112333	-0.508235	-0.365987	-0.189948	-1.289754	-0.817139	-0.275146	0.373047	0.098757	0.029777	-0.003544	-0.243130	-0.640720	0.354889	-0.635940	-117.549078	-80.926585	-112.650021
62554		10.501981	3.096879	0.695406	-2.506052	-3.977773	0.100004	-0.383171	-0.236808	-1.218263	-0.805420	-0.290527	0.362549	0.105198	0.030342	0.007020	-0.247833	-0.643163	0.352463	-0.633000	-120.739834	-81.474194	-109.643954
62555		10.004571	1.852148	1.213587	-1.081508	-3.459422	-0.228517	-0.300898	-0.339265	-1.141484	-0.798828	-0.294678	0.369141	0.100129	0.017969	0.012278	-0.252275	-0.646126	0.349730	-0.629736	-124.806012	-81.985908	-105.713775
62556		10.691298	-0.543477	0.195852	0.196742	-1.229101	0.821551	-0.110273	-0.468410	-0.999454	-0.793701	-0.312256	0.371826	0.106879	-0.005968	0.002212	-0.254982	-0.649207	0.347412	-0.626753	-128.926588	-82.286923	-101.618404
62557		11.533816	-1.450657	-0.719339	0.421987	-0.029520	1.826492	0.006916	-0.495587	-0.974793	-0.784668	-0.318848	0.374268	0.115283	-0.015068	-0.006908	-0.257636	-0.652670	0.344466	-0.623690	-133.711269	-82.577599	-96.798346
62558		10.478270	-0.414300	-1.005928	-0.428028	-0.301331	0.708847	0.083187	-0.480715	-0.930563	-0.775146	-0.333984	0.379150	0.104786	-0.004626	-0.009809	-0.259462	-0.655877	0.341761	-0.621050	-138.149668	-82.754081	-92.275819
62559		9.925962	-0.019879	-0.718261	-0.436233	-0.674001	0.106773	0.210690	-0.475067	-0.833561	-0.768555	-0.338135	0.392578	0.099274	-0.000605	-0.006947	-0.261006	-0.659242	0.338621	-0.618556	-142.803217	-82.894732	-87.474921
62560		10.985235	1.230181	-1.308312	-1.673724	-1.131042	1.133498	0.202946	-0.408511	-0.814922	-0.767822	-0.355713	0.388672	0.109928	0.011867	-0.012846	-0.262191	-0.662151	0.335813	-0.616475	-146.880818	-82.975301	-83.249488
62561		10.579993	0.266750	-1.949281	-1.248169	0.047445	0.875918	0.006913	-0.356050	-0.754434	-0.759033	-0.355713	0.399658	0.105843	0.002269	-0.019304	-0.264338	-0.664707	0.333407	-0.614109	-151.277716	-83.058208	-78.827006
