// General information: 
//  MT Manager version: 2019.2.0 
//  XDA version: 2019.2.0 build 3853 rev 94535 built on 2019-09-09
// Device information: 
//  DeviceId: 00B40ACF
//  ProductCode: MTW2-3A7G6
//  Firmware Version: 4.3.5
//  Hardware Version: 1.1.0
// Device settings: 
//  Filter Profile: human(46.1)
//  Option Flags: Orientation Smoother Disabled, AHS Disabled, ICC Disabled
// Coordinate system: ENU
PacketCounter	SampleTimeFine	Acc_X	Acc_Y	Acc_Z	FreeAcc_E	FreeAcc_N	FreeAcc_U	Gyr_X	Gyr_Y	Gyr_Z	Mag_X	Mag_Y	Mag_Z	VelInc_X	VelInc_Y	VelInc_Z	Quat_q0	Quat_q1	Quat_q2	Quat_q3	Roll	Pitch	Yaw
31341		-9.764264	0.374262	-1.701014	-0.000000	-0.000000	0.105674	-0.619197	-0.038957	0.671163	0.688721	-0.240479	-0.500244	-0.097651	0.003362	-0.017040	-0.111822	0.748773	-0.158871	-0.633715	168.838179	79.914671	-33.318747
31342		-9.848463	0.299484	-1.471003	-0.000000	-0.000000	0.149507	-0.610920	-0.044949	0.658336	0.686523	-0.245117	-0.500244	-0.098490	0.002626	-0.014741	-0.123247	0.739911	-0.162834	-0.640958	169.900152	81.356034	-33.509160
31343		-9.822116	0.320851	-1.625427	0.022609	-0.034585	0.148075	-0.493324	-0.056205	0.643310	0.682373	-0.249512	-0.500244	-0.098226	0.002852	-0.016289	-0.116304	0.743977	-0.161913	-0.637774	168.143219	80.624162	-34.625508
31344		-9.693666	0.122466	-1.784692	0.295457	0.136723	0.039262	-0.378133	-0.066277	0.622834	0.684814	-0.256104	-0.506836	-0.096934	0.000889	-0.017881	-0.112965	0.743476	-0.162984	-0.638685	165.774109	80.580623	-36.807237
31345		-9.625301	1.059992	-1.790173	-0.019240	-0.670179	0.012019	-0.303110	-0.052111	0.609562	0.687256	-0.260498	-0.509033	-0.096280	0.010279	-0.017943	-0.109914	0.742865	-0.164863	-0.639445	163.260172	80.499766	-39.225296
31346		-9.903932	1.239155	-1.073753	-0.746501	-0.481885	0.186637	-0.320811	-0.058515	0.610472	0.687012	-0.258301	-0.506836	-0.099073	0.012072	-0.010786	-0.106818	0.742347	-0.166071	-0.640259	161.033604	80.424433	-41.296680
31347		-9.891047	0.954751	-1.196307	-0.477192	-0.185756	0.182958	-0.347828	-0.055536	0.625156	0.680908	-0.271729	-0.511230	-0.098936	0.009217	-0.012007	-0.102499	0.741528	-0.168000	-0.641409	157.873518	80.294000	-44.260829
31348		-10.018941	0.700712	-1.498759	-0.085092	0.012377	0.341555	-0.374229	-0.065187	0.641278	0.685547	-0.273926	-0.510986	-0.100206	0.006658	-0.015033	-0.099109	0.740967	-0.169142	-0.642289	155.611069	80.183212	-46.338939
31349		-9.996998	0.381100	-1.855250	0.429447	0.263749	0.349631	-0.388498	-0.069428	0.657596	0.681396	-0.280518	-0.517578	-0.099975	0.003446	-0.018594	-0.094356	0.739596	-0.171156	-0.644050	152.070201	80.054581	-49.655033
31350		-10.213065	0.602528	-1.867972	0.370083	0.148302	0.579600	-0.429131	-0.074420	0.655399	0.681396	-0.284912	-0.510986	-0.102143	0.005650	-0.018730	-0.090722	0.738992	-0.172161	-0.644997	149.848545	79.909552	-51.661396
31351		-10.370207	0.912600	-1.543189	-0.031165	0.067629	0.711068	-0.550087	-0.080416	0.653229	0.683838	-0.291504	-0.517578	-0.103725	0.008745	-0.015498	-0.086624	0.738672	-0.172798	-0.645756	147.769208	79.717869	-53.457453
31352		-10.557116	1.109000	-1.238133	-0.361544	0.085919	0.867992	-0.726738	-0.120293	0.652737	0.679688	-0.298340	-0.521973	-0.105599	0.010700	-0.012484	-0.081935	0.738025	-0.172808	-0.647103	145.436550	79.569531	-55.405448
31353		-10.556738	0.632585	-1.033024	-0.321656	0.659159	0.787950	-0.860847	-0.159245	0.662753	0.686768	-0.307129	-0.528320	-0.105579	0.005931	-0.010440	-0.076849	0.736949	-0.172304	-0.649085	142.819649	79.472789	-57.561666
31354		-10.743367	0.318331	-1.024380	-0.186704	1.050553	0.931217	-0.930573	-0.196569	0.688753	0.684814	-0.311523	-0.534912	-0.107434	0.002765	-0.010363	-0.071353	0.736063	-0.171743	-0.650864	140.262008	79.315515	-59.621302
31355		-10.857909	0.494743	-0.679603	-0.499620	1.017321	1.018544	-0.958412	-0.230629	0.733795	0.678467	-0.322754	-0.530518	-0.108588	0.004516	-0.006944	-0.068047	0.733963	-0.169389	-0.654198	137.912048	79.535388	-61.500245
31356		-10.570672	-0.886353	-0.637629	0.006163	2.348866	0.551353	-0.785518	-0.255772	0.828999	0.676514	-0.329346	-0.532715	-0.105660	-0.009327	-0.006475	-0.062668	0.732679	-0.169772	-0.656073	135.076101	79.314640	-63.927326
31357		-10.150909	-1.234650	-1.822904	1.354099	2.163326	0.255769	-0.351854	-0.226543	0.937925	0.670166	-0.340576	-0.537109	-0.101429	-0.012854	-0.018322	-0.064104	0.729698	-0.167689	-0.659782	133.488567	79.860450	-65.453124
31358		-10.705659	0.260179	-1.387245	0.466926	1.082984	0.920966	-0.122716	-0.218112	1.033560	0.672852	-0.351563	-0.541260	-0.107053	0.002040	-0.013991	-0.060428	0.728141	-0.170983	-0.661003	130.727473	79.504813	-68.188100
31359		-10.750315	0.868764	-1.353343	0.258238	0.441735	1.045143	-0.097230	-0.221878	1.112609	0.659668	-0.360596	-0.539063	-0.107534	0.008083	-0.013657	-0.063852	0.726879	-0.169274	-0.662508	130.933282	79.978557	-68.116619
31360		-10.867436	1.149631	-1.485694	0.347156	0.266208	1.207170	-0.085746	-0.232960	1.174674	0.655518	-0.369629	-0.536865	-0.108722	0.010851	-0.014988	-0.059845	0.725127	-0.173181	-0.663790	127.946096	79.543421	-71.102180
31361		-11.205363	1.239593	-1.415796	0.265615	0.243165	1.543800	-0.166839	-0.274337	1.233933	0.653809	-0.383057	-0.545654	-0.112108	0.011692	-0.014322	-0.060416	0.723855	-0.173301	-0.665094	127.050270	79.674074	-72.052958
31362		-11.372259	0.844581	-1.435395	0.485666	0.759597	1.645372	-0.264705	-0.297749	1.279998	0.652344	-0.398438	-0.543213	-0.113752	0.007699	-0.014534	-0.055458	0.721820	-0.176960	-0.666773	123.874917	79.175535	-75.128836
31363		-11.804747	0.700226	-1.637093	0.857206	1.001310	2.052499	-0.336133	-0.315703	1.344273	0.639160	-0.407715	-0.547607	-0.118065	0.006181	-0.016568	-0.078256	0.711804	-0.212394	-0.664906	121.191974	78.466467	-82.650394
31364		-12.027807	0.259901	-1.680928	1.176294	1.561479	2.176331	-0.413797	-0.323956	1.419864	0.630615	-0.421143	-0.547607	-0.120265	0.001710	-0.017008	-0.072405	0.709360	-0.215938	-0.667035	118.261668	77.851870	-85.402101
31365		-13.040531	0.236617	-0.933610	0.619748	2.110268	3.076928	-0.439909	-0.346553	1.513275	0.622314	-0.436768	-0.556396	-0.130402	0.001359	-0.009566	-0.081794	0.703867	-0.229589	-0.667210	116.725137	77.637530	-88.865492
31366		-13.865890	-0.407137	-0.577211	0.711268	3.171736	3.685143	-0.463177	-0.402739	1.627512	0.609375	-0.450439	-0.554199	-0.138608	-0.005213	-0.006040	-0.075194	0.700818	-0.233599	-0.669799	113.775914	76.892355	-91.616934
31367		-14.221590	-0.717944	-0.787810	1.235024	3.393959	3.983686	-0.484974	-0.420088	1.742768	0.600830	-0.461426	-0.560547	-0.142129	-0.008438	-0.008157	-0.084111	0.694789	-0.244041	-0.671296	111.863952	76.873363	-95.150674
31368		-14.709856	-0.998972	-0.721840	1.484956	3.977972	4.324589	-0.529056	-0.443740	1.884011	0.592529	-0.479492	-0.569336	-0.146979	-0.011394	-0.007516	-0.076487	0.691188	-0.248611	-0.674241	109.015266	75.950418	-97.769418
31369		-15.336542	-1.489382	-0.781736	2.019703	4.416264	4.831334	-0.616260	-0.465847	2.052666	0.575195	-0.492920	-0.569336	-0.153183	-0.016491	-0.008125	-0.085745	0.684627	-0.257504	-0.676480	106.869489	76.032437	-101.438379
31370		-16.369752	-2.173252	-1.090668	2.877848	5.356593	5.578672	-0.746146	-0.482894	2.243581	0.555420	-0.502197	-0.582520	-0.163413	-0.023608	-0.011216	-0.076218	0.680375	-0.262434	-0.680006	104.092435	74.867196	-103.865610
31371		-17.341098	-3.988674	-2.008387	4.911320	6.484753	6.139319	-0.870840	-0.469684	2.431795	0.538330	-0.524658	-0.586914	-0.172861	-0.042079	-0.020310	-0.086336	0.673334	-0.270595	-0.682602	101.868045	75.008183	-107.627397
31372		-18.301979	-6.360701	-2.146974	6.494808	8.986465	6.220651	-0.904496	-0.413971	2.624958	0.525391	-0.542725	-0.591064	-0.182119	-0.066099	-0.021552	-0.074884	0.668694	-0.276139	-0.686286	99.528260	73.574179	-109.519430
31373		-18.620856	-8.080952	-2.211441	7.842053	10.032507	6.148213	-0.928242	-0.377220	2.807899	0.503418	-0.554199	-0.606445	-0.185007	-0.083515	-0.022081	-0.089925	0.661608	-0.285106	-0.687680	97.924697	73.992293	-113.141604
31374		-18.951654	-9.061663	-3.056413	9.343398	10.894364	5.826962	-0.863587	-0.348315	2.979963	0.481934	-0.574463	-0.610840	-0.188084	-0.093558	-0.030493	-0.077308	0.656470	-0.291803	-0.691319	96.087513	72.321877	-114.543966
31375		-19.056654	-8.424994	-3.604508	9.752663	9.596900	6.307944	-0.621057	-0.309333	3.179870	0.464355	-0.583740	-0.613037	-0.189138	-0.087377	-0.036070	-0.092492	0.652286	-0.296004	-0.691628	95.182371	73.143678	-117.064504
31376		-17.987084	-6.022624	-3.932445	8.959233	7.635486	5.571303	-0.214583	-0.253024	3.385099	0.435791	-0.601807	-0.624023	-0.178767	-0.063301	-0.039484	-0.080448	0.646406	-0.306142	-0.694236	94.120356	71.222240	-118.050733
31377		-17.905244	-3.304064	-2.190333	6.167560	5.915779	6.412036	0.079878	-0.225831	3.570388	0.413818	-0.613525	-0.613037	-0.178400	-0.036221	-0.022119	-0.098438	0.642971	-0.313285	-0.691918	94.307325	72.072202	-119.975582
31378		-16.764356	-5.338002	-4.321200	9.203855	6.423074	4.407382	-0.155533	-0.428538	3.513374	0.389893	-0.631592	-0.626221	-0.166578	-0.056346	-0.043527	-0.086440	0.635961	-0.323781	-0.695160	93.122979	70.079239	-121.133214
31379		-15.555584	-6.208974	-7.053506	11.795461	4.679198	3.195889	0.181875	-0.372223	3.484243	0.370117	-0.647461	-0.619629	-0.154312	-0.064721	-0.070881	-0.103950	0.632732	-0.330613	-0.692488	93.385982	70.918251	-122.924435
31380		-15.414139	-4.205003	-7.269000	11.122145	3.273965	3.365843	0.910265	-0.232848	3.508558	0.341064	-0.652588	-0.615234	-0.153291	-0.044412	-0.073067	-0.095050	0.625549	-0.344688	-0.693430	93.226077	68.919017	-123.649947
31381		-12.242808	0.140782	-5.733959	6.637709	-0.302379	1.961159	1.004286	-0.128734	3.351445	0.323975	-0.672852	-0.613037	-0.122395	-0.000355	-0.057417	-0.112846	0.624872	-0.354035	-0.686629	95.233065	69.720641	-123.957300
31382		-7.530708	4.874271	-4.231405	1.889364	-3.917251	-0.898891	0.935094	-0.003790	2.919089	0.303955	-0.679932	-0.604248	-0.076009	0.047834	-0.042090	-0.105739	0.619091	-0.366321	-0.686552	95.363273	68.055487	-124.392046
31383		-5.124450	10.104143	-3.613334	-2.534878	-7.936700	-1.328215	-0.132158	0.024632	2.491203	0.286133	-0.684570	-0.615234	-0.052502	0.100369	-0.036193	-0.115835	0.621391	-0.370126	-0.680781	97.319242	68.718612	-123.611178
31384		-8.385985	-1.911196	-5.008441	6.716671	0.687323	-2.500146	-1.511657	-0.143807	1.146288	0.284180	-0.688965	-0.628418	-0.083711	-0.019970	-0.049996	-0.107498	0.619627	-0.368442	-0.684658	96.053365	68.075926	-124.041135
31385		-8.864180	-12.260759	-6.269235	14.010293	7.267181	-5.442287	-1.186244	-0.023461	0.244634	0.286377	-0.688965	-0.641602	-0.088484	-0.123085	-0.061974	-0.115658	0.626790	-0.362701	-0.679857	97.984011	69.415312	-122.231034
31386		-4.905933	-14.383968	-1.521073	10.835639	10.759063	-10.144018	-1.143958	-0.190853	-0.236763	0.292969	-0.684326	-0.654785	-0.049216	-0.143866	-0.014435	-0.113222	0.627221	-0.357954	-0.682381	97.086378	69.564165	-122.489630
31387		-1.861069	-12.009956	1.034834	6.958909	9.811141	-11.834199	-1.122657	-0.317672	-0.708400	0.306396	-0.679443	-0.672119	-0.019053	-0.119972	0.010992	-0.128783	0.635691	-0.348255	-0.676779	99.370714	71.831538	-120.578208
31388		0.182639	-7.667974	1.623985	3.440316	6.556283	-12.390917	-0.499157	-0.209522	-0.964902	0.303711	-0.670654	-0.670166	0.001439	-0.076646	0.016433	-0.130825	0.636974	-0.343359	-0.677683	98.990884	72.396494	-120.676818
31389		-0.653364	-6.841245	0.620630	3.964050	5.525678	-10.981946	0.140064	-0.026953	-1.338934	0.319580	-0.670410	-0.674561	-0.006992	-0.068371	0.006157	-0.153229	0.645073	-0.335476	-0.669222	102.848795	75.061509	-117.945305
31390		-1.979825	-6.198492	-0.255631	4.391684	4.788902	-9.382966	0.417162	0.064673	-1.822391	0.341553	-0.656738	-0.670166	-0.020363	-0.061796	-0.002679	-0.160558	0.647998	-0.331028	-0.666888	104.175733	76.068192	-116.821986
31391		-2.734012	-4.605499	-0.567841	3.687154	3.464473	-7.966359	0.409089	0.071533	-2.269347	0.361328	-0.649658	-0.663330	-0.027862	-0.045729	-0.005762	-0.185838	0.656382	-0.320866	-0.657017	110.826950	79.042056	-111.365888
31392		-3.129771	-2.671844	-0.724600	2.509358	1.981153	-7.122640	0.372054	0.080212	-2.681250	0.383057	-0.629395	-0.663574	-0.031655	-0.026282	-0.007283	-0.195722	0.660541	-0.313334	-0.653605	114.549783	80.442410	-107.799551
31393		-3.363296	-1.740460	-0.969477	1.956340	1.027083	-6.588174	0.285110	0.115279	-3.090346	0.407227	-0.615479	-0.663574	-0.033902	-0.016868	-0.009700	-0.221008	0.669307	-0.300071	-0.642761	130.219997	83.238254	-93.100285
31394		-3.913888	-2.300464	-1.312881	2.508669	1.181228	-5.986024	0.194380	0.178123	-3.536259	0.424561	-0.601807	-0.656982	-0.039549	-0.022295	-0.013116	-0.232721	0.674865	-0.289011	-0.637864	144.992467	84.539688	-78.357287
31395		-4.704998	-3.094132	-1.363165	2.872542	1.580228	-5.036083	0.194419	0.226811	-3.967122	0.452881	-0.579102	-0.659180	-0.047667	-0.029987	-0.013607	-0.257611	0.684259	-0.272663	-0.625365	-172.293720	85.072980	-36.380336
31396		-5.645052	-3.138608	-1.374140	2.681087	1.506227	-3.969566	0.307407	0.292074	-4.307899	0.483398	-0.552002	-0.654785	-0.057129	-0.030139	-0.013705	-0.271673	0.690489	-0.259199	-0.618251	-148.123126	84.057410	-12.281648
31397		-7.323182	-2.354385	-0.970574	1.316433	0.944719	-2.231260	0.403586	0.354717	-4.570158	0.513916	-0.527100	-0.655029	-0.073761	-0.021843	-0.009620	-0.296764	0.699568	-0.241448	-0.603522	-127.618976	81.009869	7.496993
31398		-8.908617	-1.460472	-0.242892	-0.358245	0.538706	-0.805956	0.447826	0.416112	-4.780961	0.534912	-0.493408	-0.644043	-0.089406	-0.012465	-0.002273	-0.312169	0.705727	-0.226625	-0.594257	-119.984994	78.595781	14.990725
31399		-10.124263	-0.187562	0.113865	-2.242513	-0.561509	0.045486	0.526688	0.488377	-4.952649	0.565430	-0.466309	-0.639648	-0.101245	0.000628	0.001385	-0.336353	0.713797	-0.208132	-0.577963	-113.795659	74.820155	20.492912
31400		-11.347524	1.046198	0.553454	-4.091264	-1.530588	0.725712	0.481827	0.527274	-5.090156	0.593018	-0.430176	-0.633301	-0.113145	0.013331	0.005863	-0.352121	0.719571	-0.192177	-0.566830	-110.746460	72.005801	23.385443
31401		-12.757256	1.347723	0.764377	-5.440592	-2.188040	1.620740	0.363698	0.542114	-5.207266	0.616699	-0.403076	-0.622314	-0.127143	0.016777	0.008017	-0.373752	0.726383	-0.172810	-0.550285	-108.053492	68.219430	25.593481
31402		-14.058766	1.187711	1.060300	-6.461747	-2.468703	2.527824	0.311212	0.563096	-5.304728	0.635742	-0.369629	-0.618164	-0.140176	0.015582	0.011020	-0.388857	0.731675	-0.155392	-0.537862	-106.493218	65.220964	27.097326
31403		-14.780970	1.905419	0.882006	-7.709548	-3.664565	2.433365	0.359194	0.615108	-5.360893	0.661133	-0.331543	-0.609619	-0.147200	0.022989	0.009312	-0.408271	0.736831	-0.136298	-0.521361	-104.984149	61.594493	28.208150
31404		-15.509929	1.979362	0.979271	-8.655613	-4.212436	2.544909	0.413652	0.645407	-5.417300	0.684082	-0.286621	-0.605469	-0.154455	0.023962	0.010339	-0.423323	0.741085	-0.118686	-0.507448	-104.019416	58.496700	29.047664
31405		-16.257394	1.238699	0.377666	-8.764288	-4.840066	3.058778	0.765807	0.698071	-5.433238	0.702881	-0.255371	-0.594482	-0.162143	0.016780	0.004402	-0.441866	0.743833	-0.101423	-0.491101	-102.842588	55.107353	29.664834
31406		-17.407797	1.444957	-0.231606	-9.651375	-6.161691	3.377477	1.332190	0.745192	-5.421442	0.714844	-0.215332	-0.577148	-0.173608	0.019172	-0.001551	-0.459578	0.745174	-0.086139	-0.475483	-101.748309	51.981299	30.075927
31407		-18.665763	2.601679	-0.630407	-11.321863	-7.898957	3.029016	1.745555	0.717254	-5.358194	0.733643	-0.181641	-0.564209	-0.185891	0.031054	-0.005380	-0.479118	0.744239	-0.072437	-0.459682	-100.366698	48.906471	30.405260
31408		-18.966642	3.712089	-1.579255	-12.105423	-9.665461	1.847063	2.026595	0.687968	-5.268409	0.745361	-0.137207	-0.551270	-0.188650	0.042253	-0.014732	-0.498323	0.742573	-0.059110	-0.443582	-99.073578	45.864599	30.584111
31409		-19.049234	4.848464	-2.439711	-12.731182	-11.193343	0.427420	2.263703	0.670242	-5.168969	0.755127	-0.097168	-0.538330	-0.189229	0.053653	-0.023174	-0.516596	0.739124	-0.048097	-0.429547	-97.666680	43.209709	30.754340
31410		-19.993833	8.234338	-0.469310	-16.697352	-11.670475	-2.555429	2.245278	0.459427	-5.080316	0.764893	-0.059326	-0.534180	-0.197769	0.087428	-0.003275	-0.535492	0.735247	-0.035314	-0.414021	-96.297327	40.288428	30.878347
31411		-19.516354	8.318394	2.634053	-18.453036	-9.073157	-3.973298	1.907844	0.173115	-4.933190	0.765625	-0.026123	-0.521240	-0.193014	0.087705	0.027331	-0.549400	0.730902	-0.024216	-0.404174	-95.076653	38.128822	31.303384
31412		-19.848171	8.608044	1.859420	-18.633152	-10.007661	-4.905690	1.841138	-0.030719	-4.605439	0.771240	0.005127	-0.521240	-0.196435	0.090444	0.019383	-0.565269	0.726115	-0.011016	-0.391288	-93.854626	35.499404	31.581875
31413		-19.868057	9.939609	0.508913	-18.611416	-11.670993	-6.477885	1.938278	-0.153062	-4.298404	0.774414	0.036377	-0.523682	-0.196489	0.103580	0.005929	-0.576827	0.719936	-0.003162	-0.385945	-92.533015	34.011473	32.116715
31414		-18.809997	12.408884	-2.617270	-17.404573	-14.547617	-9.942846	2.043004	-0.183286	-3.947874	0.775879	0.058350	-0.517334	-0.185575	0.128029	-0.025049	-0.591659	0.713574	0.007636	-0.375091	-91.246211	31.754149	32.330470
31415		-16.646346	17.861970	-5.643620	-16.638941	-17.653994	-16.089801	1.731323	-0.047509	-3.559942	0.781494	0.089600	-0.519531	-0.163230	0.182024	-0.054909	-0.599467	0.708040	0.011639	-0.373072	-90.194608	30.953705	32.737274
31416		-13.524529	22.638349	-5.632771	-16.332265	-17.217585	-22.614718	0.475895	0.085872	-3.029413	0.782959	0.105225	-0.515381	-0.131818	0.228531	-0.055729	-0.606737	0.706514	0.021217	-0.363671	-89.949155	29.217862	32.682913
31417		-11.229128	25.167127	-3.905723	-16.474932	-15.588534	-25.945686	-0.940793	0.126576	-2.195753	0.784668	0.118408	-0.510986	-0.109546	0.252697	-0.040174	-0.600559	0.710071	0.024464	-0.366782	-90.631546	29.439149	33.076698
31418		-11.062817	24.532909	-1.164803	-17.194534	-13.136708	-25.855135	-1.583051	0.120792	-1.278335	0.782227	0.122803	-0.510986	-0.109065	0.245927	-0.013527	-0.597267	0.714853	0.031542	-0.362302	-91.569219	28.705510	33.013616
31419		-11.680546	22.085707	1.256054	-17.953101	-11.351390	-23.026942	-1.284854	0.070831	-0.294414	0.784668	0.120605	-0.513184	-0.116476	0.221103	0.011182	-0.585358	0.719555	0.028502	-0.372539	-92.462635	30.182522	33.503544
31420		-12.807373	20.106412	2.748588	-18.747940	-10.213990	-20.768843	-0.511822	-0.011679	0.711644	0.780273	0.116211	-0.510986	-0.128790	0.200676	0.026964	-0.582183	0.721125	0.026929	-0.374587	-92.762857	30.590169	33.489752
31421		-18.915884	14.661379	-3.269967	-17.460932	-16.578231	-11.743104	-0.111564	0.165597	1.487351	0.778320	0.109619	-0.513184	-0.190269	0.145183	-0.032624	-0.570866	0.722209	0.014144	-0.390290	-92.984898	33.202002	33.846057
31422		-5.049886	6.709512	-3.427079	-4.405500	-7.487328	-12.418920	-0.029129	0.202384	2.111578	0.779053	0.089600	-0.510986	-0.051238	0.066552	-0.034229	-0.566622	0.722796	0.005997	-0.395562	-93.122255	34.404032	33.629171
31423		-11.173576	-27.792130	0.916246	4.784415	6.385096	19.073483	-0.776094	-0.162148	1.503013	0.774902	0.080566	-0.510742	-0.109651	-0.278712	0.010154	-0.551784	0.724930	-0.004295	-0.412301	-93.669823	37.050565	34.215100
31424		-7.562622	-19.377750	0.963029	3.515891	4.985325	10.097002	0.651270	0.107470	1.276018	0.770508	0.078369	-0.517334	-0.074383	-0.194285	0.009038	-0.551497	0.723309	-0.010560	-0.415409	-93.378041	37.776638	34.081175
31425		-12.515987	-1.315673	2.880314	-9.002041	-2.577126	-0.924856	1.307179	0.336441	1.681075	0.771240	0.060547	-0.508545	-0.124994	-0.014397	0.028922	-0.545380	0.720080	-0.026457	-0.428189	-92.884170	40.204583	34.169260
31426		-18.167847	2.918001	2.678373	-14.467157	-6.704549	-0.247360	0.795488	0.317783	2.073660	0.767578	0.040527	-0.503906	-0.181924	0.027187	0.027183	-0.543728	0.718271	-0.036492	-0.432568	-92.634666	41.382750	33.853537
31427		-15.046535	2.978787	-2.235002	-9.364752	-9.182685	-1.552077	0.225850	0.394250	2.073337	0.766113	0.020508	-0.506104	-0.150807	0.028251	-0.022020	-0.532982	0.717369	-0.052146	-0.445638	-92.764008	44.023979	33.820554
31428		-15.428833	2.897421	-2.682240	-9.186697	-9.509363	-0.935463	-0.284367	0.359914	2.110495	0.768555	0.013916	-0.497314	-0.154630	0.027306	-0.026584	-0.527133	0.718336	-0.060040	-0.450021	-93.192167	45.221108	33.443018
31429		-16.450168	3.217530	-5.456607	-7.943982	-12.037227	0.322445	-0.188352	0.424622	2.188928	0.760254	-0.004150	-0.492676	-0.164956	0.030320	-0.054245	-0.513845	0.718328	-0.074979	-0.462975	-93.698837	47.918397	33.313022
31430		-15.861138	4.060879	-4.060114	-8.816550	-10.895829	-0.427123	-0.069646	0.510610	2.168581	0.756348	-0.017578	-0.492676	-0.159142	0.038871	-0.040209	-0.508350	0.718831	-0.083915	-0.466712	-94.165351	49.138237	32.743727
31431		-15.062274	2.042119	-0.024477	-9.153472	-6.132945	0.657933	-0.567192	0.313143	2.263753	0.754883	-0.037598	-0.492676	-0.150841	0.018714	-0.000063	-0.492523	0.719372	-0.097452	-0.480029	-95.016307	51.872036	32.599397
31432		-11.550386	2.404265	-0.844181	-6.915151	-5.647015	-2.054468	-0.830457	0.295898	2.300125	0.760010	-0.052979	-0.485840	-0.115782	0.022677	-0.008367	-0.483832	0.720952	-0.104455	-0.484999	-95.875347	53.168256	32.116576
31433		-9.248055	0.382104	-3.422459	-2.635551	-5.714120	-2.211136	-0.745603	0.346023	2.310063	0.751709	-0.070801	-0.483643	-0.092575	0.002625	-0.034076	-0.467099	0.721373	-0.117572	-0.497611	-97.002666	55.869546	31.749050
31434		-8.202756	-2.188548	-2.741731	-0.798140	-3.348694	-1.582371	-0.602413	0.214201	2.084450	0.758789	-0.081787	-0.485596	-0.081822	-0.022821	-0.027262	-0.459584	0.722044	-0.124087	-0.502034	-97.762841	57.038634	31.251175
31435		-7.885548	-0.002040	-2.570473	-1.900438	-4.121880	-2.871090	-0.350376	0.159820	1.780304	0.752686	-0.095215	-0.489990	-0.078871	-0.000767	-0.025641	-0.445693	0.721174	-0.135134	-0.512840	-98.649572	59.333417	30.939467
31436		-9.671244	0.094056	-2.099648	-2.945616	-4.182272	-1.340364	-0.218071	0.116317	1.554994	0.746094	-0.102051	-0.487793	-0.096728	0.000166	-0.020941	-0.440825	0.720884	-0.140439	-0.516020	-99.123683	60.203898	30.535400
31437		-10.496077	0.600660	-1.343682	-3.833625	-3.904809	-0.735910	-0.246130	0.055141	1.369801	0.749023	-0.117432	-0.485596	-0.105002	0.005271	-0.013415	-0.428611	0.719642	-0.149557	-0.525395	-99.932353	62.177433	30.249405
31438		-11.212938	1.577164	-0.638890	-5.124075	-4.019468	-0.527669	-0.361032	0.013758	1.267170	0.742432	-0.124268	-0.489990	-0.112227	0.015049	-0.006409	-0.423961	0.719488	-0.153198	-0.528323	-100.400691	62.891270	29.954767
31439		-11.331433	1.112525	-0.401329	-4.748018	-3.418062	-0.036603	-0.444124	-0.000272	1.163512	0.747559	-0.139648	-0.489746	-0.113376	0.010457	-0.004037	-0.411898	0.718446	-0.160685	-0.536987	-101.324820	64.684211	29.641194
31440		-10.404185	-0.202984	-0.795363	-3.182327	-2.648154	-0.232509	-0.475210	0.004555	1.087448	0.736572	-0.146484	-0.487549	-0.104029	-0.002614	-0.007946	-0.407257	0.718549	-0.163326	-0.539586	-101.871130	65.294691	29.338869
31441		-9.609050	-1.372272	-0.840637	-1.853988	-1.627910	-0.387433	-0.368268	0.019199	1.014214	0.739502	-0.159912	-0.491943	-0.096020	-0.014225	-0.008371	-0.396229	0.717312	-0.170281	-0.547239	-102.837003	66.929402	28.898953
31442		-9.419083	-1.166369	-0.847057	-1.859145	-1.659043	-0.615541	-0.224071	0.030314	0.941649	0.737305	-0.166504	-0.491943	-0.094136	-0.012116	-0.008443	-0.392815	0.717027	-0.173107	-0.549184	-103.295769	67.451768	28.540610
31443		-9.848760	-0.300536	-1.114461	-2.219350	-2.334040	-0.434173	-0.177653	0.017440	0.869835	0.735596	-0.175537	-0.487305	-0.098474	-0.003444	-0.011133	-0.383342	0.715428	-0.179748	-0.555790	-104.208821	68.917813	28.009041
31444		-10.000940	-0.284862	-1.328525	-2.078711	-2.473390	-0.251012	-0.254261	-0.006389	0.811947	0.735596	-0.179932	-0.493896	-0.099996	-0.003271	-0.013284	-0.380174	0.715159	-0.181936	-0.557597	-104.649661	69.370068	27.693257
31445		-9.721867	-0.874970	-1.659814	-1.182335	-2.148109	-0.219854	-0.287975	-0.013293	0.756145	0.729248	-0.184326	-0.498291	-0.097184	-0.009141	-0.016592	-0.371016	0.713735	-0.187530	-0.563704	-105.655074	70.703900	27.111238
31446		-9.654047	-0.584319	-2.076521	-1.031263	-2.585338	-0.320266	-0.268555	-0.005194	0.707327	0.722900	-0.195557	-0.491699	-0.096518	-0.006212	-0.020760	-0.368062	0.713548	-0.189291	-0.565286	-106.121366	71.095375	26.780691
31447		-9.825805	0.105589	-1.875598	-1.515482	-2.782959	-0.324091	-0.320677	-0.027217	0.681869	0.718506	-0.197998	-0.496094	-0.098258	0.000691	-0.018771	-0.359337	0.712225	-0.194181	-0.570882	-107.222801	72.315879	26.107575
31448		-9.486652	-0.658786	-1.843273	-0.869805	-2.158781	-0.409978	-0.359022	-0.027922	0.635688	0.711670	-0.197998	-0.496094	-0.094842	-0.006922	-0.018434	-0.356263	0.712166	-0.195373	-0.572472	-107.727296	72.669036	25.794353
31449		-9.442946	-0.969926	-1.711087	-0.580092	-1.721052	-0.339622	-0.319858	-0.030814	0.597951	0.718750	-0.208984	-0.500488	-0.094397	-0.010009	-0.017110	-0.348078	0.710929	-0.199679	-0.577537	-108.920077	73.777555	25.016999
31450		-9.361746	-1.080046	-1.642475	-0.488409	-1.545828	-0.385168	-0.262717	-0.029324	0.560435	0.716797	-0.213379	-0.500488	-0.093584	-0.011084	-0.016424	-0.345548	0.710737	-0.200866	-0.578881	-109.381865	74.087406	24.693170
31451		-9.596243	-0.722354	-1.567100	-0.704346	-1.644852	-0.228138	-0.164964	-0.013092	0.535465	0.714600	-0.211182	-0.511475	-0.095942	-0.007493	-0.015671	-0.338462	0.709350	-0.205238	-0.583218	-110.620199	75.092393	23.753133
31452		-9.579562	-0.541936	-1.752286	-0.659794	-1.864202	-0.261697	-0.115977	-0.011087	0.503164	0.705811	-0.218018	-0.504883	-0.095781	-0.005671	-0.017525	-0.336588	0.708993	-0.206670	-0.584230	-111.053915	75.365156	23.373407
31453		-9.688796	0.192797	-1.941735	-0.931269	-2.410944	-0.273286	-0.109381	-0.002256	0.471474	0.708008	-0.215820	-0.507080	-0.096892	0.001689	-0.019419	-0.330211	0.707653	-0.210788	-0.588010	-112.389949	76.269709	22.284557
31454		-9.601136	0.432160	-1.834394	-1.119086	-2.459099	-0.408758	-0.072016	0.021449	0.469405	0.701416	-0.220459	-0.502686	-0.096023	0.004090	-0.018335	-0.328546	0.707336	-0.212278	-0.588788	-112.907040	76.514310	21.795083
31455		-9.695169	0.560966	-1.456226	-1.373682	-2.185370	-0.338062	-0.071505	0.022709	0.490242	0.701416	-0.220459	-0.507080	-0.096967	0.005367	-0.014553	-0.322417	0.706050	-0.216399	-0.592210	-114.497813	77.369563	20.422452
31456		-9.682949	0.354724	-1.265981	-1.328504	-1.870102	-0.313970	-0.116840	-0.004647	0.507590	0.703857	-0.226807	-0.511230	-0.096838	0.003294	-0.012664	-0.320499	0.705670	-0.217843	-0.593174	-115.105810	77.635860	19.868374
31457		-9.772203	-0.228290	-1.246394	-0.843417	-1.352921	-0.088512	-0.194644	-0.030384	0.507314	0.695068	-0.231445	-0.513428	-0.097714	-0.002543	-0.012476	-0.314266	0.704389	-0.221540	-0.596651	-116.899372	78.462584	18.334069
31458		-9.847674	-0.634764	-1.286905	-0.512093	-1.064324	0.068632	-0.243673	-0.030097	0.501469	0.699707	-0.233643	-0.513428	-0.098458	-0.006610	-0.012876	-0.311937	0.704121	-0.222538	-0.597818	-117.617389	78.727120	17.744126
31459		-10.093722	-0.480788	-1.149769	-0.646365	-0.988973	0.288810	-0.297819	-0.030378	0.493056	0.695313	-0.235840	-0.517822	-0.100923	-0.005074	-0.011506	-0.305611	0.703039	-0.225650	-0.601182	-119.704301	79.492601	15.969664
31460		-10.136295	0.541646	-1.120272	-1.336075	-1.662124	0.174549	-0.312470	-0.029136	0.485735	0.695068	-0.231445	-0.524414	-0.101374	0.005153	-0.011226	-0.303077	0.702875	-0.226380	-0.602382	-120.569938	79.742932	15.271747
31461		-9.973039	0.854271	-0.954420	-1.532678	-1.668777	-0.016358	-0.320655	-0.005947	0.481163	0.693359	-0.242676	-0.522217	-0.099750	0.008287	-0.009561	-0.297022	0.701884	-0.229413	-0.605397	-123.046689	80.442454	13.084574
31462		-9.915222	0.595195	-0.669696	-1.513977	-1.248424	-0.052386	-0.339640	-0.001217	0.477880	0.690918	-0.240479	-0.524414	-0.099166	0.005704	-0.006707	-0.294376	0.701830	-0.230067	-0.606503	-124.152507	80.672190	12.160962
31463		-10.061684	0.253913	-0.721302	-1.166786	-0.952261	0.164979	-0.362375	-0.032934	0.476954	0.684570	-0.249512	-0.524414	-0.100621	0.002286	-0.007234	-0.288368	0.700821	-0.232733	-0.609532	-126.953382	81.329196	9.673170
31464		-9.994311	0.172921	-1.239810	-0.689991	-1.214947	0.162325	-0.388677	-0.056325	0.466729	0.691406	-0.251465	-0.528809	-0.099943	0.001472	-0.012429	-0.285640	0.700660	-0.233109	-0.610857	-128.093615	81.562244	8.745440
31465		-10.379454	0.866209	-1.044254	-1.250204	-1.506869	0.470305	-0.411243	-0.076959	0.478027	0.691650	-0.255859	-0.531006	-0.103811	0.008392	-0.010500	-0.279727	0.699577	-0.235447	-0.613930	-131.244630	82.181457	5.923884
31466		-10.294884	0.652792	-1.188991	-0.944435	-1.416259	0.430674	-0.462508	-0.099127	0.479427	0.691650	-0.255859	-0.531006	-0.102958	0.006254	-0.011956	-0.276744	0.699347	-0.235572	-0.615494	-132.560726	82.425135	4.863366
31467		-10.295319	1.224132	-1.398374	-1.067219	-1.893589	0.420719	-0.459819	-0.101442	0.501383	0.691650	-0.258057	-0.539795	-0.102976	0.011951	-0.014064	-0.270885	0.698189	-0.237825	-0.618540	-136.334672	83.007963	1.417897
31468		-10.193404	1.038122	-1.628438	-0.710241	-1.877212	0.366030	-0.463062	-0.116889	0.522044	0.691895	-0.260254	-0.539795	-0.101951	0.010077	-0.016368	-0.267782	0.697826	-0.238064	-0.620208	-138.053200	83.261619	-0.045669
31469		-10.135797	-0.218377	-1.860417	0.408531	-1.010312	0.436960	-0.503286	-0.137032	0.516912	0.696533	-0.266846	-0.543945	-0.101339	-0.002493	-0.018668	-0.261957	0.696583	-0.240151	-0.623280	-142.605261	83.800131	-4.261344
31470		-10.205918	0.144329	-1.872392	0.221914	-1.252225	0.486332	-0.492686	-0.149073	0.508916	0.683350	-0.273682	-0.550537	-0.102048	0.001137	-0.018803	-0.258823	0.696144	-0.240200	-0.625059	-144.627582	84.043058	-6.011066
31471		-10.536929	0.162749	-1.407159	-0.064590	-0.868360	0.783295	-0.522441	-0.179199	0.551856	0.690186	-0.278076	-0.541748	-0.105361	0.001300	-0.014170	-0.253019	0.694776	-0.242139	-0.628201	-150.198944	84.531893	-11.238220
31472		-10.307235	-0.193713	-1.414364	0.255991	-0.570736	0.574099	-0.491297	-0.221940	0.610875	0.690430	-0.282471	-0.550537	-0.103050	-0.002287	-0.014253	-0.249650	0.693950	-0.242444	-0.630340	-153.152260	84.810996	-13.921480
31473		-9.723395	-0.980287	-1.960656	1.338968	-0.256307	0.061040	-0.400784	-0.236582	0.701110	0.693115	-0.291260	-0.557129	-0.097175	-0.010183	-0.019701	-0.244036	0.692071	-0.245095	-0.633572	-160.784145	85.257790	-21.289917
31474		-9.527977	-0.339488	-2.109976	1.119439	-0.797953	-0.145264	-0.266953	-0.217414	0.831918	0.684570	-0.304688	-0.556885	-0.095241	-0.003819	-0.021198	-0.240731	0.690676	-0.246870	-0.635665	-166.182787	85.513732	-26.552474
31475		-9.636420	-0.492035	-1.500612	0.867321	-0.156929	-0.087624	-0.208179	-0.228839	0.964722	0.687012	-0.306885	-0.563477	-0.096322	-0.005401	-0.015111	-0.224110	0.692494	-0.239085	-0.642702	-177.605965	85.785962	-35.870499
31476		-9.731988	-0.640245	-1.295880	0.875564	0.156768	-0.014292	-0.153991	-0.261660	1.111728	0.680664	-0.320313	-0.556885	-0.097265	-0.006953	-0.013081	-0.220303	0.690480	-0.242152	-0.645032	173.423912	85.913097	-44.775489
31477		-10.085836	-0.356497	-0.960089	0.587231	0.241526	0.305037	-0.066824	-0.297277	1.257560	0.674316	-0.331543	-0.565674	-0.100819	-0.004202	-0.009749	-0.189128	0.694391	-0.216477	-0.659689	158.433698	86.419312	-54.916755
31478		-10.358155	0.000577	-1.058313	0.565081	0.000552	0.583957	-0.012091	-0.322099	1.413389	0.672607	-0.342529	-0.565674	-0.103561	-0.000727	-0.010750	-0.184757	0.691787	-0.221043	-0.662145	145.929653	86.202719	-67.439382
31479		-10.907716	0.565314	-1.180422	0.517570	-0.356829	1.155151	-0.003310	-0.325541	1.576078	0.666504	-0.355957	-0.565430	-0.109098	0.004793	-0.011982	-0.170161	0.690468	-0.218317	-0.668309	130.665514	85.703695	-81.245271
31480		-11.358066	-0.076989	-1.260366	1.049172	0.315082	1.562581	-0.013304	-0.339780	1.730610	0.655518	-0.367188	-0.572021	-0.113547	-0.001753	-0.012796	-0.164685	0.687423	-0.223959	-0.670948	121.499888	85.013435	-90.432880
31481		-12.421587	-0.522624	-1.279165	1.478580	0.986626	2.558283	0.006827	-0.340843	1.879109	0.642822	-0.385254	-0.572021	-0.124137	-0.006392	-0.013003	-0.153434	0.684615	-0.227318	-0.675342	112.794264	83.963546	-98.487451
31482		-13.652997	-0.624695	-1.208331	1.660361	1.428768	3.731683	-0.020565	-0.355118	2.004787	0.636963	-0.405273	-0.567383	-0.136436	-0.007616	-0.012325	-0.146978	0.681112	-0.233837	-0.678089	107.644973	82.953259	-103.658137
31483		-14.320370	-0.631936	-1.241069	1.932746	1.766161	4.334741	-0.056971	-0.351661	2.131665	0.628418	-0.416504	-0.576172	-0.143103	-0.007849	-0.012660	-0.137575	0.677170	-0.240867	-0.681541	103.140880	81.615451	-107.987354
31484		-14.720541	-0.761667	-1.436994	2.392532	2.075613	4.654421	-0.131380	-0.337224	2.289550	0.615723	-0.438965	-0.573975	-0.147081	-0.009310	-0.014612	-0.129712	0.673302	-0.247933	-0.684374	100.193653	80.367534	-110.894729
31485		-15.338813	-1.937850	-1.786387	3.579981	3.305047	4.968159	-0.243229	-0.313140	2.468134	0.596436	-0.461426	-0.578125	-0.153105	-0.021291	-0.018079	-0.119354	0.668837	-0.256088	-0.687627	97.646286	78.798745	-113.295738
31486		-16.168388	-3.238490	-2.429213	5.088139	4.528370	5.398951	-0.301496	-0.252676	2.636702	0.579346	-0.484131	-0.575928	-0.161207	-0.034549	-0.024445	-0.109581	0.664706	-0.263705	-0.690375	95.945894	77.313661	-114.856782
31487		-17.382057	-3.676164	-2.523535	5.802124	5.452973	6.268272	-0.420226	-0.162528	2.796297	0.561768	-0.495361	-0.584717	-0.173263	-0.039240	-0.025296	-0.099963	0.659379	-0.274705	-0.692650	94.708689	75.548285	-116.269125
31488		-18.614078	-4.307366	-1.938626	6.003137	6.961306	7.047655	-0.589203	-0.075368	2.918703	0.547119	-0.522217	-0.591309	-0.185478	-0.045841	-0.019324	-0.087992	0.655324	-0.282229	-0.695094	93.759776	73.881684	-116.902507
31489		-19.805723	-5.364964	-1.853956	6.920469	8.622487	7.571583	-0.770195	-0.002072	3.022691	0.522949	-0.533691	-0.597900	-0.197215	-0.056705	-0.018327	-0.076473	0.650101	-0.292413	-0.697148	93.021813	72.018544	-117.603478
31490		-20.075115	-7.637385	-3.016244	9.295131	10.452423	6.762760	-0.791618	0.065485	3.087312	0.503418	-0.552002	-0.599854	-0.199549	-0.079579	-0.029786	-0.063019	0.646029	-0.299686	-0.699188	92.430303	70.247785	-117.748926
31491		-18.973948	-7.365668	-3.959104	10.102133	9.851160	5.379476	-0.583864	0.131423	3.202623	0.483887	-0.570068	-0.602051	-0.188552	-0.076797	-0.039246	-0.052179	0.640415	-0.311222	-0.700205	92.169786	68.329348	-118.163516
31492		-17.340869	-4.860758	-3.830493	8.737241	7.821190	4.381164	-0.069675	0.111099	3.298295	0.457520	-0.585938	-0.604248	-0.172597	-0.051472	-0.038191	-0.040215	0.635595	-0.321535	-0.700726	92.111976	66.436401	-118.182609
31493		-16.590683	2.643312	-1.540711	3.416290	3.197714	6.394939	-0.437223	-0.114733	3.413508	0.433594	-0.602051	-0.615234	-0.166316	0.023563	-0.015556	-0.030365	0.628152	-0.334243	-0.701986	91.672180	64.449725	-118.985783
31494		-16.217219	1.755103	-5.040312	7.085628	2.424391	5.529079	-0.967073	-0.247877	3.353313	0.411621	-0.613525	-0.621826	-0.162371	0.014585	-0.050680	-0.015955	0.621721	-0.341301	-0.704785	90.751000	62.529727	-119.395603
31495		-15.914428	1.489072	-6.564675	8.769856	2.178187	4.914717	-1.011617	-0.144897	3.336242	0.391846	-0.627197	-0.630615	-0.159312	0.011901	-0.065827	-0.002111	0.615255	-0.348982	-0.706873	90.076307	60.608492	-119.667150
31496		-14.742092	1.928448	-4.565905	6.840021	2.768071	3.877622	-0.989363	-0.012932	3.231114	0.369873	-0.640625	-0.648193	-0.147701	0.016674	-0.045755	0.012344	0.609486	-0.355384	-0.708574	89.507524	58.755064	-119.669026
31497		-9.808423	4.265062	-3.413296	3.812367	-0.298758	0.742549	-1.118508	0.101745	2.893271	0.352295	-0.647705	-0.659180	-0.098703	0.041034	-0.034315	0.025419	0.604524	-0.360868	-0.709703	89.087276	57.110560	-119.550066
31498		-7.517790	-1.489499	-3.084823	5.341108	3.249405	-4.412571	-1.981126	-0.011984	2.253998	0.339111	-0.652344	-0.667969	-0.075000	-0.016046	-0.030698	0.039394	0.600087	-0.360621	-0.712949	87.990887	55.817250	-119.503269
31499		-8.978925	-5.056615	-4.048761	7.954078	6.308201	-5.395041	-2.419259	-0.002113	1.576642	0.334717	-0.652100	-0.698730	-0.089384	-0.051757	-0.039867	0.051446	0.596742	-0.357326	-0.716638	86.763374	54.937939	-119.457107
31500		-7.191836	-9.489112	-1.837343	6.926751	9.851840	-9.501401	-2.354916	-0.088188	1.081725	0.328125	-0.654541	-0.716309	-0.071395	-0.095486	-0.017283	0.062200	0.593829	-0.352118	-0.720771	85.402329	54.314038	-119.471233
31501		-4.352983	-8.559490	0.531464	3.536245	8.827651	-11.248461	-1.573192	0.039523	0.698038	0.323486	-0.652100	-0.736084	-0.043230	-0.085701	0.005997	0.068393	0.592398	-0.349015	-0.722894	84.682640	53.973126	-119.404692
31502		-2.965918	-7.638676	0.891465	2.422433	7.610480	-11.850523	-0.723555	0.200911	0.366139	0.321533	-0.658936	-0.731445	-0.029510	-0.076408	0.009221	0.072224	0.592224	-0.347422	-0.723431	84.451975	53.773071	-119.176709
31503		-2.536689	-7.522954	0.304762	2.784537	7.060200	-12.162675	0.052763	0.314490	-0.062635	0.327881	-0.649902	-0.729492	-0.025386	-0.075222	0.003068	0.070976	0.593603	-0.347889	-0.722199	84.817567	53.902466	-118.951602
31504		-2.282699	-7.067357	-0.462089	3.285008	6.264983	-12.121417	0.673044	0.382676	-0.497890	0.339111	-0.649658	-0.725098	-0.023012	-0.070600	-0.004815	0.067859	0.596076	-0.348712	-0.720062	85.470853	54.203183	-118.620688
31505		-2.056459	-5.835848	-0.598253	3.019610	5.153160	-11.536166	1.106021	0.396605	-0.915436	0.341309	-0.649658	-0.711914	-0.020844	-0.058229	-0.006264	0.060415	0.599580	-0.350316	-0.717030	86.459564	54.835798	-118.375768
31506		-2.040526	-4.358476	-0.755626	2.717414	3.957127	-10.641666	1.292791	0.384588	-1.345952	0.361328	-0.647217	-0.698486	-0.020713	-0.043396	-0.007798	0.052398	0.603672	-0.350794	-0.713988	87.457858	55.615517	-118.061930
31507		-2.190591	-3.549099	-1.210806	2.933404	3.197673	-9.986255	1.294959	0.361721	-1.768957	0.374756	-0.644775	-0.694092	-0.022240	-0.035216	-0.012297	0.041163	0.608477	-0.350439	-0.710813	88.547979	56.738474	-117.838797
31508		-2.426865	-3.418651	-1.597913	3.319406	3.012622	-9.626302	1.231748	0.344260	-2.208117	0.391846	-0.624512	-0.681152	-0.024671	-0.033817	-0.016146	0.030181	0.613766	-0.348009	-0.708005	89.528095	58.004745	-117.512802
31509		-2.656513	-3.506929	-1.780607	3.597991	3.060208	-9.349883	1.175494	0.330499	-2.632266	0.418457	-0.615234	-0.672363	-0.027052	-0.034610	-0.017966	0.016347	0.619834	-0.344247	-0.705005	90.611929	59.623140	-117.190924
31510		-3.224387	-3.326001	-1.466742	3.386970	3.277090	-8.630602	1.138225	0.312328	-3.029794	0.435791	-0.601563	-0.656982	-0.032765	-0.032682	-0.014804	0.002688	0.626154	-0.338808	-0.702235	91.639812	61.353265	-116.759046
31511		-4.236392	-2.742617	-1.161639	3.076032	3.325404	-7.303654	1.096641	0.296705	-3.387156	0.459717	-0.581299	-0.656982	-0.042837	-0.026639	-0.011701	-0.013333	0.633202	-0.331863	-0.699103	92.836757	63.405278	-116.214681
31512		-5.264869	-1.953932	-0.438473	2.247241	3.361995	-5.891965	0.934978	0.283645	-3.718358	0.485840	-0.560791	-0.645996	-0.053006	-0.018535	-0.004398	-0.028804	0.640177	-0.323326	-0.696279	93.976178	65.520432	-115.545556
31513		-6.194838	-1.753538	0.006503	1.836642	3.610588	-4.809099	0.710658	0.266507	-3.979015	0.512207	-0.542725	-0.639404	-0.062281	-0.016299	0.000088	-0.045247	0.647838	-0.312340	-0.693327	95.263823	67.909645	-114.594441
31514		-7.217675	-1.868759	0.257142	1.710548	3.984462	-3.742828	0.567394	0.261274	-4.204491	0.540039	-0.510986	-0.630859	-0.072545	-0.017172	0.002616	-0.061229	0.655029	-0.300687	-0.690490	96.631363	70.288421	-113.478648
31515		-8.300642	-1.632215	0.425306	1.423882	3.955644	-2.460162	0.558267	0.263536	-4.415892	0.561523	-0.486328	-0.626465	-0.083334	-0.014496	0.004321	-0.078460	0.662811	-0.287164	-0.687068	98.525921	72.911938	-111.784724
31516		-9.615798	-0.752912	0.911514	0.512695	3.525374	-0.804135	0.577897	0.243588	-4.621501	0.580566	-0.452637	-0.622314	-0.096287	-0.005332	0.009215	-0.095867	0.669871	-0.273861	-0.683435	100.922788	75.496925	-109.638316
31517		-11.310206	0.301531	1.123707	-0.334031	2.738949	1.216223	0.544844	0.209432	-4.802271	0.606201	-0.423340	-0.624512	-0.112975	0.005698	0.011369	-0.114209	0.677255	-0.258418	-0.679340	104.530676	78.293410	-106.187587
31518		-12.800292	1.037935	1.047769	-0.874272	1.888870	2.901762	0.404341	0.167859	-4.942288	0.625244	-0.392090	-0.613770	-0.127686	0.013516	0.010610	-0.132101	0.683766	-0.243083	-0.675222	109.835742	80.971392	-101.031340
31519		-13.573602	1.221424	0.694668	-1.029969	1.077253	3.750357	0.196810	0.128408	-5.066010	0.650635	-0.351563	-0.611572	-0.135364	0.015640	0.007048	-0.146284	0.691713	-0.221235	-0.671706	120.032032	83.710993	-90.139751
31520		-14.246210	1.145963	0.148174	-0.893672	0.335377	4.446805	0.111844	0.132581	-5.166179	0.671875	-0.317871	-0.607422	-0.142102	0.015133	0.001584	-0.163813	0.697556	-0.203777	-0.667125	142.362953	85.929028	-67.787776
31521		-15.241083	1.263708	-0.152141	-1.138077	-0.548635	5.427418	0.154594	0.173008	-5.243332	0.686279	-0.288818	-0.605469	-0.152011	0.016627	-0.001378	-0.178627	0.704389	-0.181289	-0.662618	-168.895755	86.607962	-18.396747
31522		-16.319490	1.734359	-0.313126	-1.723361	-1.725488	6.417581	0.224481	0.207292	-5.285846	0.705078	-0.248535	-0.598877	-0.162664	0.021651	-0.002940	-0.196667	0.709416	-0.163548	-0.656736	-133.072071	84.956334	17.385792
31523		-17.104400	2.020655	-0.692196	-2.060276	-2.972832	7.038734	0.240372	0.222376	-5.300248	0.723633	-0.208252	-0.596924	-0.170436	0.024737	-0.006704	-0.213068	0.714695	-0.142489	-0.650776	-117.570112	82.278569	33.239480
31524		-17.816129	1.983787	-1.125691	-2.218536	-3.982214	7.558584	0.179647	0.236915	-5.313830	0.737793	-0.168213	-0.594971	-0.177563	0.024571	-0.011026	-0.230744	0.718804	-0.124297	-0.643916	-110.524369	79.439138	40.269418
31525		-18.918597	1.536953	-1.202334	-2.577070	-4.616379	8.454333	0.192540	0.277760	-5.298289	0.751953	-0.130127	-0.586426	-0.188707	0.020385	-0.011743	-0.246662	0.723014	-0.103103	-0.637007	-106.503525	76.407969	44.651369
31526		-19.941897	1.613929	-1.530466	-3.021468	-5.844253	9.141174	0.409177	0.385583	-5.233596	0.765869	-0.083252	-0.584473	-0.198934	0.021380	-0.014881	-0.264514	0.726183	-0.085936	-0.628733	-104.119348	73.458437	46.877045
31527		-19.954845	2.058853	-1.858183	-3.467659	-7.238207	8.663781	0.788688	0.521828	-5.118113	0.773438	-0.047852	-0.573730	-0.198981	0.025757	-0.017967	-0.281868	0.729033	-0.067961	-0.620035	-102.464361	70.452335	48.461085
31528		-19.312369	2.742582	-1.337828	-4.629224	-8.127510	7.354437	1.283057	0.632202	-4.966083	0.774414	-0.014648	-0.556396	-0.192403	0.032292	-0.012573	-0.301620	0.730627	-0.054714	-0.610095	-101.136432	67.594523	49.095813
31529		-19.853633	6.050531	0.805030	-8.577288	-10.555668	5.882820	1.692819	0.507144	-4.759620	0.786133	0.025635	-0.558838	-0.197001	0.065132	0.009089	-0.321005	0.730862	-0.041201	-0.600915	-99.696287	64.799523	49.874082
31530		-19.768843	8.186631	3.354518	-12.151214	-11.369528	4.047049	1.996831	0.215903	-4.460196	0.782715	0.056641	-0.550049	-0.195766	0.085905	0.034602	-0.341552	0.729005	-0.031244	-0.592383	-98.007835	62.256911	50.482062
31531		-18.577535	10.055016	0.360387	-10.467325	-14.365751	1.604539	2.629288	0.201472	-3.977090	0.786133	0.087646	-0.550293	-0.183723	0.104157	0.005143	-0.360867	0.725620	-0.022171	-0.585456	-96.195516	59.955746	51.232493
31532		-16.940726	13.801133	-2.212588	-10.004941	-18.040068	-2.280068	2.885307	0.331916	-3.492939	0.791992	0.109863	-0.541748	-0.166993	0.141239	-0.019825	-0.381420	0.721586	-0.018545	-0.577485	-94.545579	57.946956	51.228778
31533		-15.770393	19.200763	-1.851053	-12.727352	-21.220126	-6.905476	2.318160	0.417050	-2.968577	0.786865	0.123047	-0.535156	-0.154864	0.194515	-0.015941	-0.395444	0.718579	-0.011960	-0.571949	-93.404692	56.246877	51.554696
31534		-12.513286	22.426394	-1.001107	-14.137157	-21.340325	-12.098712	1.071811	0.365695	-2.178717	0.779541	0.138428	-0.533203	-0.122696	0.225658	-0.008578	-0.405466	0.717581	-0.007927	-0.566226	-92.994470	54.990274	51.307905
31535		-9.863477	21.817050	-2.534496	-11.580361	-20.631645	-14.275693	0.279968	0.304756	-1.215019	0.790283	0.149658	-0.524414	-0.097345	0.218800	-0.024890	-0.406790	0.717937	-0.001821	-0.564876	-93.036350	54.348044	51.627473
31536		-10.730744	19.686063	-1.446014	-11.830531	-18.905227	-12.535061	0.148406	0.226661	-0.254372	0.788330	0.140869	-0.526611	-0.107073	0.197008	-0.014193	-0.408030	0.718276	-0.001795	-0.563550	-93.120735	54.197012	51.419070
31537		-12.867621	18.722024	1.036470	-14.105546	-17.833234	-10.226019	0.397426	0.072528	0.682728	0.788818	0.132080	-0.528564	-0.129310	0.186758	0.010783	-0.405006	0.717743	-0.003745	-0.566392	-93.009143	54.694481	51.677426
31538		-12.386010	17.962858	1.627634	-14.143517	-16.693032	-9.952314	0.671470	-0.045628	1.531951	0.784424	0.129639	-0.528564	-0.125235	0.178617	0.016849	-0.403055	0.716200	-0.011059	-0.569633	-92.649143	55.573971	51.647587
31539		-11.712321	15.944747	-0.091436	-11.523304	-16.054951	-8.886828	0.662868	-0.077837	2.201670	0.789795	0.105469	-0.526367	-0.118869	0.158147	-0.000435	-0.396124	0.714596	-0.018847	-0.576266	-92.314672	56.984878	52.043482
31540		-14.531331	0.921538	-6.828974	0.275947	-10.777839	2.120323	0.205007	0.090133	2.347691	0.781250	0.093994	-0.521973	-0.145439	0.007579	-0.068216	-0.390046	0.714178	-0.028010	-0.580542	-92.365455	58.328377	51.844669
31541		-9.294536	-24.723145	-0.958015	9.922610	13.076419	10.901337	-0.560955	-0.113618	1.698928	0.783936	0.085205	-0.530518	-0.090835	-0.248035	-0.008937	-0.379726	0.714867	-0.030295	-0.586392	-92.697350	59.473264	52.323820
31542		-8.355849	-18.560334	0.304801	6.323501	10.073832	6.707676	0.302531	-0.012782	1.488200	0.784668	0.065430	-0.530518	-0.082175	-0.186223	0.002761	-0.376425	0.714008	-0.036484	-0.589208	-92.579164	60.327060	52.260407
31543		-8.825151	-3.192447	3.213641	-3.630809	0.773893	-0.613925	1.162159	0.150527	1.798617	0.789795	0.049805	-0.521484	-0.087934	-0.032902	0.032013	-0.373657	0.712001	-0.046466	-0.592685	-92.186234	61.487173	52.115535
31544		-11.570165	2.443125	-0.454205	-4.243415	-6.281902	-0.725891	1.444141	0.296021	2.067963	0.783447	0.038574	-0.521484	-0.115953	0.023264	-0.004200	-0.372560	0.709642	-0.058666	-0.595118	-91.755561	62.667246	51.666842
31545		-13.454807	0.667884	-0.679516	-3.563907	-5.606562	1.926081	0.888215	0.261314	2.012472	0.781738	0.022949	-0.517090	-0.134615	0.005354	-0.006594	-0.368266	0.708247	-0.069199	-0.598313	-91.671176	63.958192	51.305457
31546		-14.170718	-0.224226	-1.293321	-2.679427	-5.365863	3.092895	0.525498	0.279133	1.978645	0.777832	0.005127	-0.514648	-0.141694	-0.003610	-0.012744	-0.364080	0.707390	-0.078297	-0.600761	-91.777240	65.088389	50.854823
31547		-15.315055	1.376815	-3.531990	-1.949838	-8.000927	3.644544	0.331109	0.449747	1.983479	0.778564	-0.014893	-0.503662	-0.153356	0.012306	-0.034954	-0.357669	0.707445	-0.087404	-0.603287	-92.320738	66.363582	50.168286
31548		-15.673839	4.227175	-6.009436	-1.613651	-11.460587	3.059522	0.546274	0.728575	1.920868	0.772705	-0.032715	-0.503418	-0.157353	0.040925	-0.059409	-0.353457	0.707785	-0.097154	-0.603879	-93.107950	67.445136	48.972639
31549		-15.404995	2.578772	-1.437644	-4.131627	-7.076526	3.561721	0.207002	0.553916	1.959242	0.770996	-0.045898	-0.505615	-0.154332	0.024291	-0.013924	-0.346415	0.708268	-0.105980	-0.605906	-94.065525	68.703425	47.943161
31550		-11.922552	3.938913	0.549971	-5.546115	-5.676810	-0.067262	0.164737	0.571146	2.032240	0.769287	-0.061523	-0.488037	-0.119601	0.038170	0.005873	-0.340507	0.708594	-0.114669	-0.607289	-95.078824	69.840105	46.759256
31551		-11.299805	3.148582	0.425443	-4.759261	-4.792224	-0.212741	0.001179	0.614126	2.055285	0.767578	-0.079346	-0.489990	-0.113300	0.030322	0.004602	-0.332243	0.709392	-0.123304	-0.609240	-96.551629	71.140479	45.331487
31552		-9.168591	0.856161	-2.039372	-0.957910	-3.936326	-1.295650	-0.061219	0.612062	1.911340	0.763672	-0.092773	-0.476807	-0.091824	0.007678	-0.020115	-0.325796	0.710142	-0.130918	-0.610259	-98.057115	72.184342	43.782885
31553		-7.903515	-0.853828	-2.471710	0.720262	-2.482292	-1.899295	0.025412	0.584983	1.661251	0.764404	-0.108398	-0.476807	-0.079032	-0.009192	-0.024487	-0.318729	0.710916	-0.138156	-0.611492	-99.777573	73.237441	42.102958
31554		-8.423886	-0.526692	-2.299143	0.320503	-2.602255	-1.467056	0.165413	0.509301	1.444657	0.755615	-0.117432	-0.474609	-0.084256	-0.005857	-0.022782	-0.314524	0.711189	-0.144615	-0.611859	-101.172327	74.000613	40.550860
31555		-9.935368	-1.188215	-2.117732	0.311679	-2.111880	0.189791	0.193231	0.409131	1.298885	0.756348	-0.133057	-0.474365	-0.099317	-0.012507	-0.020986	-0.309255	0.711337	-0.150770	-0.612886	-102.691845	74.837971	38.994480
31556		-10.486895	-0.918456	-1.968564	-0.029576	-2.197755	0.668794	0.126444	0.320045	1.186638	0.745361	-0.142090	-0.465576	-0.104843	-0.009794	-0.019524	-0.305806	0.711212	-0.155882	-0.613483	-103.883861	75.459868	37.686770
31557		-10.745022	0.074322	-1.223032	-1.187723	-2.393976	0.666522	0.171073	0.271900	1.091964	0.741455	-0.155518	-0.465576	-0.107469	0.000167	-0.012084	-0.301189	0.711083	-0.161003	-0.614594	-105.318477	76.176850	36.239745
31558		-10.698945	-0.871046	-0.807261	-0.889638	-1.299333	0.836119	0.218897	0.256337	1.017439	0.739258	-0.159912	-0.458984	-0.106954	-0.009246	-0.007945	-0.298614	0.710708	-0.165689	-0.615037	-106.442905	76.699788	34.954512
31559		-9.857449	-1.555220	-0.660253	-0.374353	-0.453229	0.171179	0.347007	0.268972	0.974289	0.735352	-0.171143	-0.461182	-0.098506	-0.016021	-0.006498	-0.294986	0.710356	-0.170916	-0.615764	-107.964617	77.332465	33.319843
31560		-9.680399	-0.914561	-0.483646	-0.825355	-0.726249	-0.139473	0.526333	0.278033	0.968558	0.732910	-0.171143	-0.456787	-0.096765	-0.009602	-0.004727	-0.293614	0.709594	-0.176397	-0.615753	-109.153669	77.810354	31.793932
31561		-9.841722	-0.062333	-0.785598	-1.091851	-1.480524	-0.112392	0.534535	0.285112	0.941213	0.731201	-0.182373	-0.452148	-0.098424	-0.001066	-0.007718	-0.290764	0.708997	-0.182093	-0.616135	-110.876363	78.397773	29.846997
31562		-10.504743	0.575468	-1.254592	-1.207595	-2.246878	0.470662	0.378044	0.250869	0.908903	0.722168	-0.182617	-0.454590	-0.105088	0.005301	-0.012404	-0.289054	0.708380	-0.186856	-0.616223	-112.279862	78.831747	28.194870
31563		-10.571376	0.593131	-1.527167	-0.968776	-2.333035	0.582300	0.167249	0.192211	0.864405	0.722656	-0.193604	-0.449951	-0.105753	0.005487	-0.015165	-0.285227	0.708061	-0.191004	-0.617100	-114.223632	79.372880	26.241972
31564		-10.105114	0.141731	-1.708717	-0.432850	-1.990764	0.232316	0.023336	0.125495	0.796335	0.718018	-0.193848	-0.445557	-0.101066	0.001017	-0.017024	-0.282712	0.707645	-0.194087	-0.617772	-115.615126	79.758966	24.813994
31565		-9.667671	-0.006548	-1.875330	-0.087672	-1.863691	-0.143184	-0.055243	0.071619	0.725176	0.711670	-0.200439	-0.454346	-0.096682	-0.000421	-0.018719	-0.278647	0.707377	-0.196877	-0.619042	-117.487026	80.234651	23.067289
31566		-9.869353	-0.025151	-1.540903	-0.324131	-1.592797	0.043108	-0.114687	0.029884	0.665782	0.711914	-0.207031	-0.454346	-0.098694	-0.000589	-0.015394	-0.276131	0.706966	-0.198932	-0.619982	-118.712951	80.565695	21.891118
31567		-9.974698	0.084231	-1.380519	-0.476810	-1.505927	0.132764	-0.172749	0.005664	0.625156	0.709717	-0.209473	-0.456543	-0.099749	0.000519	-0.013803	-0.272042	0.706732	-0.200906	-0.621418	-120.577611	80.990057	20.221288
31568		-9.768500	0.106757	-1.221717	-0.544019	-1.362918	-0.077505	-0.230477	0.005011	0.580269	0.702881	-0.207275	-0.456543	-0.097688	0.000770	-0.012216	-0.269398	0.706471	-0.202262	-0.622426	-121.840311	81.275545	19.077503
31569		-9.645546	-0.272794	-0.917770	-0.476834	-0.803895	-0.164921	-0.253202	0.008293	0.553283	0.703369	-0.218262	-0.463135	-0.096448	-0.003006	-0.009170	-0.265267	0.706400	-0.203729	-0.623801	-123.891908	81.646447	17.265356
31570		-9.650285	-0.873653	-1.213842	0.155342	-0.479724	-0.060242	-0.248083	0.017263	0.511687	0.701172	-0.220703	-0.465332	-0.096481	-0.008998	-0.012119	-0.262755	0.706254	-0.204801	-0.624677	-125.252984	81.884848	16.034278
31571		-9.759408	-0.163521	-1.398893	-0.111811	-1.088074	-0.013041	-0.227496	0.017471	0.481564	0.703369	-0.220459	-0.463135	-0.097591	-0.001886	-0.013978	-0.258964	0.706227	-0.206099	-0.625863	-127.416917	82.199661	14.092592
31572		-9.668722	0.076031	-1.492093	-0.144787	-1.290983	-0.115857	-0.263243	-0.004196	0.457048	0.697021	-0.227295	-0.465332	-0.096688	0.000520	-0.014924	-0.256586	0.706076	-0.206900	-0.626747	-128.765097	82.409818	12.884929
31573		-9.407593	0.206877	-1.764486	0.063212	-1.497152	-0.356823	-0.265744	-0.006227	0.437998	0.703613	-0.222656	-0.467529	-0.094080	0.001839	-0.017650	-0.252847	0.706049	-0.207888	-0.627970	-131.012742	82.694535	10.880186
31574		-9.569723	0.553568	-1.543132	-0.312526	-1.601678	-0.241685	-0.254368	-0.012914	0.428528	0.696777	-0.222900	-0.467529	-0.095708	0.005311	-0.015444	-0.250593	0.705878	-0.208603	-0.628828	-132.425170	82.885242	9.603993
31575		-9.718679	0.475885	-1.361500	-0.383163	-1.376896	-0.092088	-0.262702	-0.022649	0.428608	0.698975	-0.222900	-0.469727	-0.097195	0.004533	-0.013632	-0.246931	0.705788	-0.209541	-0.630064	-134.855350	83.152937	7.413120
31576		-9.632818	0.087652	-1.372970	-0.099008	-1.042345	-0.138625	-0.265443	-0.023807	0.407523	0.697021	-0.229492	-0.471924	-0.096328	0.000662	-0.013742	-0.244712	0.705607	-0.210132	-0.630936	-136.356835	83.328458	6.054883
31577		-9.746040	0.106313	-1.201858	-0.218444	-0.900977	-0.036112	-0.269357	-0.028640	0.396620	0.701904	-0.238281	-0.476074	-0.097461	0.000854	-0.012034	-0.241158	0.705521	-0.210924	-0.632135	-138.935587	83.565419	3.717383
31578		-9.862916	-0.084982	-1.278473	-0.027455	-0.763926	0.103680	-0.260270	-0.030899	0.400381	0.706543	-0.240479	-0.471680	-0.098625	-0.001064	-0.012799	-0.238982	0.705307	-0.211495	-0.633008	-140.580925	83.729428	2.212550
31579		-9.803706	-0.152894	-1.240986	0.029326	-0.632194	0.050141	-0.257523	-0.018913	0.420037	0.695313	-0.238281	-0.480469	-0.098032	-0.001751	-0.012417	-0.235415	0.705194	-0.212414	-0.634162	-143.569446	83.947306	-0.545342
31580		-9.739026	-0.076011	-1.403761	0.148196	-0.755474	-0.002893	-0.260015	-0.014161	0.441689	0.693359	-0.245117	-0.478271	-0.097387	-0.000993	-0.014043	-0.233087	0.704979	-0.213149	-0.635014	-145.675521	84.102551	-2.512486
31581		-9.773507	-0.374190	-1.417078	0.373178	-0.465657	0.052061	-0.269866	-0.018336	0.461219	0.702393	-0.249268	-0.478271	-0.097725	-0.003986	-0.014174	-0.229376	0.704819	-0.214168	-0.636199	-149.202290	84.302540	-5.805705
31582		-9.765102	-0.460402	-1.602215	0.603557	-0.466600	0.064259	-0.274695	-0.014396	0.473370	0.702393	-0.251465	-0.484863	-0.097639	-0.004857	-0.016023	-0.226891	0.704574	-0.214965	-0.637092	-151.749706	84.445206	-8.206641
31583		-9.805782	-0.099288	-1.524519	0.365566	-0.648386	0.083428	-0.292382	-0.015275	0.495443	0.700439	-0.256104	-0.480469	-0.098054	-0.001258	-0.015251	-0.223021	0.704394	-0.216028	-0.638296	-155.853546	84.612338	-12.068238
31584		-9.885208	0.228233	-1.282743	0.005455	-0.725284	0.131583	-0.330186	-0.024194	0.522772	0.702881	-0.260254	-0.484863	-0.098856	0.002003	-0.012843	-0.220188	0.704111	-0.216809	-0.639326	-158.995057	84.741574	-15.032673
31585		-10.000772	0.980638	-1.517432	-0.207803	-1.404048	0.250355	-0.328793	-0.031734	0.574728	0.700928	-0.267090	-0.480469	-0.100033	0.009494	-0.015206	-0.215982	0.703811	-0.218009	-0.640682	-163.949475	84.880405	-19.728697
31586		-9.578803	0.660649	-1.330195	-0.093747	-0.998855	-0.171501	-0.356959	-0.051018	0.641064	0.701172	-0.273682	-0.482422	-0.095805	0.006276	-0.013338	-0.212699	0.703324	-0.219086	-0.641947	-168.146583	84.998244	-23.736203
31587		-9.459751	-0.217900	-1.551207	0.660368	-0.343962	-0.253097	-0.321580	-0.069140	0.721446	0.699219	-0.284912	-0.480225	-0.094583	-0.002545	-0.015541	-0.208103	0.702707	-0.220779	-0.643547	-174.422630	85.095990	-29.763685
31588		-9.833945	-0.895401	-1.976539	1.420957	0.040606	0.156944	-0.267236	-0.084005	0.801972	0.695313	-0.295898	-0.486816	-0.098294	-0.009375	-0.019794	-0.204646	0.701818	-0.222669	-0.644973	-179.988423	85.166579	-35.195226
31589		-10.232878	-0.497796	-2.023614	1.269958	-0.201849	0.550725	-0.263258	-0.099070	0.877058	0.688965	-0.304932	-0.480225	-0.102296	-0.005453	-0.020280	-0.199819	0.700840	-0.225052	-0.646720	172.502251	85.160033	-42.496745
31590		-10.281592	-0.313104	-1.871810	1.103005	-0.187841	0.582505	-0.344197	-0.122896	0.942205	0.689209	-0.313965	-0.484375	-0.102788	-0.003648	-0.018775	-0.195672	0.699711	-0.227138	-0.648479	165.855113	85.126789	-48.969139
31591		-10.228720	-0.214453	-1.761057	1.039688	-0.107319	0.515937	-0.409507	-0.138207	1.034240	0.680420	-0.320801	-0.486572	-0.102262	-0.002710	-0.017676	-0.189895	0.698533	-0.229544	-0.650616	157.663871	84.958965	-56.876221
31592		-10.433265	-0.060062	-1.570132	0.865227	-0.021368	0.702613	-0.439766	-0.149734	1.131465	0.681152	-0.333984	-0.488770	-0.104315	-0.001225	-0.015777	-0.184817	0.697145	-0.231942	-0.652713	150.472476	84.750110	-63.842902
31593		-10.785086	-0.493565	-1.326406	0.990018	0.622254	1.001750	-0.461175	-0.160536	1.241051	0.677002	-0.347412	-0.493164	-0.107807	-0.005635	-0.013338	-0.178234	0.695641	-0.234860	-0.655101	142.604947	84.354754	-71.405183
31594		-11.332597	-0.263996	-0.869900	0.564303	0.851135	1.510263	-0.405424	-0.172160	1.361324	0.670654	-0.358643	-0.488770	-0.113297	-0.003429	-0.008790	-0.172531	0.693815	-0.238131	-0.657379	135.954246	83.916849	-77.856478
31595		-11.592226	-0.295590	-0.808246	0.640283	1.085496	1.742809	-0.374513	-0.171781	1.477642	0.664551	-0.374268	-0.495117	-0.115889	-0.003827	-0.008175	-0.165513	0.691833	-0.242116	-0.659812	129.467828	83.268628	-84.096722
31596		-12.305336	0.026345	-0.848104	0.607262	1.025470	2.464019	-0.367814	-0.161170	1.609398	0.649658	-0.390137	-0.492920	-0.123043	-0.000742	-0.008579	-0.159089	0.689626	-0.246352	-0.662131	124.184910	82.581313	-89.206891
31597		-12.979506	0.760895	-0.758605	0.271766	0.743046	3.186988	-0.404551	-0.148649	1.754351	0.641113	-0.405762	-0.497314	-0.129849	0.006455	-0.007696	-0.151048	0.687295	-0.251173	-0.664621	119.328552	81.674241	-93.808985
31598		-13.785185	0.369295	-0.591216	0.508356	1.469255	3.902057	-0.504800	-0.160404	1.897840	0.635254	-0.423584	-0.501465	-0.137874	0.002370	-0.006030	-0.143168	0.684719	-0.255909	-0.667214	115.271826	80.745273	-97.620299
31599		-14.555034	-0.635277	-0.783228	1.411398	2.565592	4.480109	-0.615176	-0.203258	2.048072	0.619873	-0.437256	-0.497070	-0.145467	-0.007867	-0.007957	-0.133512	0.681835	-0.260942	-0.670213	111.475750	79.617481	-101.052962
31600		-15.199166	-0.722692	-1.172956	2.003858	2.797651	5.055415	-0.817820	-0.202205	2.206180	0.602783	-0.459717	-0.503662	-0.151887	-0.008951	-0.011849	-0.123551	0.678769	-0.265594	-0.673400	108.219948	78.462847	-103.890970
31601		-15.914919	-1.473289	-1.186303	2.659224	3.867360	5.511202	-0.955648	-0.160520	2.400035	0.590088	-0.477539	-0.507813	-0.158947	-0.016698	-0.011914	-0.111530	0.675577	-0.270622	-0.676699	105.376218	77.081308	-106.184254
31602		-16.473706	-2.327215	-0.981020	3.173417	5.134303	5.721581	-0.982076	-0.094526	2.592211	0.566406	-0.502441	-0.520996	-0.164412	-0.025453	-0.009767	-0.099524	0.672223	-0.276001	-0.679732	103.086997	75.649945	-107.959836
31603		-18.190192	-1.836105	-0.203966	2.620888	5.934994	7.280614	-1.037085	-0.059687	2.786146	0.553467	-0.515869	-0.534180	-0.181622	-0.020903	-0.001990	-0.085834	0.668610	-0.281984	-0.682699	101.118432	74.013492	-109.334949
31604		-20.078767	-3.446076	0.501912	3.226708	8.550770	8.400701	-1.193898	-0.067851	2.941349	0.531738	-0.536133	-0.536377	-0.200254	-0.037378	0.005168	-0.071852	0.664650	-0.287702	-0.685789	99.315741	72.356761	-110.502510
31605		-21.150388	-6.250196	0.738027	4.722756	11.788439	8.232806	-1.290482	-0.092423	3.051818	0.507813	-0.556641	-0.544922	-0.210521	-0.065670	0.007700	-0.056539	0.660294	-0.293523	-0.688955	97.648790	70.564616	-111.440585
31606		-21.218756	-7.867355	0.180413	6.185978	13.369256	7.366329	-1.196096	-0.066682	3.107534	0.492676	-0.570068	-0.555908	-0.210932	-0.081945	0.002217	-0.041940	0.655739	-0.299627	-0.691716	96.276485	68.796762	-112.172124
31607		-19.978483	-8.911002	-1.221844	7.952396	13.625656	5.389211	-1.128910	-0.103797	3.158970	0.464355	-0.590576	-0.558105	-0.198337	-0.092318	-0.011807	-0.028034	0.650332	-0.307407	-0.694107	95.104125	66.931165	-112.914751
31608		-18.531382	-6.657569	-0.614548	6.401780	12.003062	4.435864	-0.903482	-0.242744	3.284921	0.444824	-0.606445	-0.566895	-0.184179	-0.069635	-0.006060	-0.014029	0.644460	-0.314898	-0.696644	93.940900	65.060619	-113.620436
31609		-17.366961	-4.051494	-3.885105	8.278677	8.370521	4.133048	-1.315291	-0.581639	3.280225	0.422852	-0.617920	-0.582275	-0.172858	-0.043611	-0.039075	-0.000250	0.636704	-0.322336	-0.700505	92.358236	63.149764	-114.767364
31610		-15.983240	-3.148466	-5.716465	9.556470	6.646259	2.935863	-0.777217	-0.665410	3.353735	0.396240	-0.627197	-0.588867	-0.159081	-0.034380	-0.057565	0.012935	0.628859	-0.330265	-0.703772	91.080714	61.235149	-115.707242
31611		-14.329860	-1.030036	-7.656502	10.355739	3.728850	2.181609	0.047622	-0.321874	3.322965	0.376709	-0.645264	-0.588867	-0.142978	-0.012659	-0.076798	0.023391	0.621861	-0.341715	-0.704253	90.781327	59.306326	-116.214795
31612		-13.270569	0.256401	-5.891782	8.220289	3.364802	1.675552	0.672423	0.022303	3.174825	0.354492	-0.652588	-0.584473	-0.132733	0.000655	-0.058899	0.032552	0.616498	-0.353931	-0.702569	91.137813	57.481967	-116.247845
31613		-10.505795	3.994752	-4.004446	4.542555	0.391991	1.213141	0.722086	0.194871	2.934052	0.339355	-0.668213	-0.584473	-0.105669	0.038544	-0.039801	0.040557	0.611880	-0.366037	-0.699982	91.707947	55.783541	-116.160089
31614		-5.969202	1.603065	-2.190927	2.830567	0.893050	-3.965488	-0.363493	0.010920	2.359052	0.323730	-0.670654	-0.591064	-0.059876	0.015285	-0.021934	0.049980	0.607469	-0.371978	-0.700083	91.455001	54.426853	-116.213771
31615		-7.921814	-4.638604	-5.058743	8.299694	5.194188	-6.071752	-1.538283	-0.074813	1.350022	0.321777	-0.677246	-0.613037	-0.078882	-0.047307	-0.050255	0.058889	0.604186	-0.371180	-0.702650	90.544124	53.643616	-116.335364
31616		-6.874354	-12.386739	-4.652258	10.396240	10.525158	-11.673704	-2.025965	-0.105870	0.721380	0.322021	-0.677246	-0.630615	-0.068271	-0.124577	-0.045299	0.067382	0.601829	-0.366275	-0.706473	89.302388	53.224823	-116.435371
31617		-3.413701	-13.352398	-1.892230	7.148658	10.697560	-15.101876	-1.569452	-0.006855	0.186832	0.323975	-0.670410	-0.643799	-0.034012	-0.133699	-0.017875	0.072394	0.600935	-0.361623	-0.709129	88.452053	53.122746	-116.447469
31618		-0.987642	-9.960270	0.202839	3.347830	7.891745	-14.983299	-0.904218	0.114542	-0.228926	0.334961	-0.665771	-0.650391	-0.009989	-0.099581	0.002484	0.074544	0.601407	-0.357708	-0.710491	88.016574	53.250495	-116.343547
31619		-0.935274	-8.867777	0.248163	2.902625	7.123199	-14.330231	-0.293466	0.225039	-0.713350	0.339355	-0.663330	-0.654785	-0.009666	-0.088640	0.002622	0.072863	0.603432	-0.354701	-0.710456	88.053805	53.681314	-116.159912
31620		-1.844826	-9.545967	-0.326538	3.890321	7.909192	-13.929042	0.100005	0.264332	-1.226231	0.350586	-0.660889	-0.654541	-0.019037	-0.095343	-0.003288	0.068711	0.606557	-0.351277	-0.709910	88.289262	54.383018	-115.939070
31621		-2.147794	-8.938429	-0.339102	3.832527	7.647120	-13.197153	0.478474	0.276330	-1.714030	0.370361	-0.649658	-0.647949	-0.022248	-0.089187	-0.003574	0.061127	0.610754	-0.347928	-0.708653	88.804328	55.395292	-115.723021
31622		-2.454621	-6.995929	-0.294642	3.269165	6.390803	-11.689609	0.739138	0.280196	-2.167586	0.390381	-0.642578	-0.643555	-0.025307	-0.069676	-0.003169	0.051711	0.615691	-0.343844	-0.707123	89.438167	56.634215	-115.468698
31623		-3.050176	-5.293112	-0.547185	3.094985	5.287733	-10.093093	0.844203	0.280377	-2.614041	0.418701	-0.624268	-0.632568	-0.031198	-0.052503	-0.005651	0.039743	0.621411	-0.338912	-0.705271	90.220192	58.166890	-115.195315
31624		-3.668731	-4.547169	-0.771892	3.186547	4.890430	-9.000991	0.772686	0.271317	-3.077509	0.440674	-0.610596	-0.635010	-0.037391	-0.044870	-0.007843	0.026982	0.627646	-0.332004	-0.703638	90.952639	59.923192	-114.856909
31625		-4.397878	-4.112509	-0.832701	3.228908	4.802037	-7.953079	0.616834	0.256648	-3.496841	0.466797	-0.590088	-0.628418	-0.044699	-0.040322	-0.008395	0.012560	0.634444	-0.323277	-0.702008	91.713565	61.963480	-114.463250
31626		-5.243829	-3.621434	-0.819291	3.153830	4.694743	-6.764517	0.538933	0.269565	-3.827904	0.488037	-0.558838	-0.621826	-0.053129	-0.035180	-0.008217	-0.002114	0.641482	-0.312975	-0.700388	92.484484	64.144338	-113.944380
31627		-6.507407	-3.203854	-0.459953	2.816217	4.879027	-5.221489	0.531324	0.290223	-4.098936	0.514160	-0.540527	-0.619629	-0.065719	-0.030684	-0.004587	-0.018298	0.648913	-0.301691	-0.698254	93.485125	66.527871	-113.238342
31628		-8.060958	-2.613122	0.144586	2.157413	5.028680	-3.341599	0.593057	0.320001	-4.358942	0.544678	-0.510986	-0.615479	-0.081151	-0.024371	0.001501	-0.034916	0.656384	-0.289603	-0.695752	94.709172	69.000749	-112.282782
31629		-9.706914	-1.443182	0.793480	1.123919	4.597404	-1.180143	0.659700	0.327297	-4.576819	0.577148	-0.483887	-0.606689	-0.097353	-0.012232	0.008051	-0.053062	0.664032	-0.276807	-0.692548	96.403765	71.645282	-110.930028
31630		-11.318078	-0.345356	1.397152	0.050789	4.038569	0.856620	0.630922	0.290308	-4.756908	0.598633	-0.457031	-0.600098	-0.113201	-0.000806	0.014131	-0.071174	0.671254	-0.263223	-0.689250	98.455814	74.321563	-109.162107
31631		-12.734922	0.359687	1.592622	-0.610357	3.405286	2.550310	0.518797	0.231255	-4.911279	0.621826	-0.418701	-0.602539	-0.127192	0.006680	0.016088	-0.090012	0.678307	-0.248371	-0.685645	101.279824	77.127607	-106.586630
31632		-13.778114	0.954332	1.465262	-1.033204	2.502773	3.807996	0.377696	0.172209	-5.036790	0.643066	-0.387207	-0.593994	-0.137470	0.012980	0.014793	-0.108282	0.684759	-0.232611	-0.682109	105.225053	79.910483	-102.782385
31633		-14.315444	1.870040	1.228868	-1.599058	1.058849	4.547495	0.246333	0.147157	-5.168602	0.663818	-0.346924	-0.598389	-0.142599	0.022375	0.012420	-0.126994	0.691081	-0.215513	-0.678111	112.380343	82.746016	-95.708621
31634		-15.138725	2.176487	1.208483	-2.097079	0.213068	5.382093	0.166377	0.123980	-5.273657	0.685059	-0.313232	-0.592041	-0.150736	0.025735	0.012199	-0.145236	0.696833	-0.197888	-0.673922	127.570018	85.346015	-80.536737
31635		-15.867083	2.199184	0.894150	-2.256394	-0.624792	6.057378	0.274909	0.127256	-5.290634	0.697021	-0.275391	-0.587891	-0.158010	0.026165	0.009076	-0.164262	0.702196	-0.180142	-0.668945	168.571625	87.013916	-39.628209
31636		-16.589566	2.513273	0.514339	-2.524966	-1.798285	6.683385	0.453471	0.138226	-5.276629	0.719971	-0.232910	-0.581543	-0.165152	0.029485	0.005321	-0.183287	0.706790	-0.163213	-0.663488	-140.937835	86.131871	10.680518
31637		-17.528856	2.824769	-0.360984	-2.428168	-3.281149	7.468398	0.636091	0.149244	-5.238794	0.734375	-0.199219	-0.579346	-0.174471	0.032836	-0.003380	-0.203125	0.710841	-0.146656	-0.657219	-119.176997	83.686966	32.139153
31638		-18.284881	3.286303	-1.297847	-2.377820	-4.962781	7.976609	0.879364	0.204313	-5.164127	0.746338	-0.156982	-0.564209	-0.181931	0.037625	-0.012634	-0.222967	0.714162	-0.131378	-0.650384	-110.294377	80.947221	40.591542
31639		-18.808411	4.162797	-2.470216	-2.363668	-7.137226	8.091954	1.139768	0.292014	-5.051897	0.760498	-0.121338	-0.560059	-0.186986	0.046500	-0.024173	-0.243540	0.717007	-0.117122	-0.642551	-105.639470	78.090440	44.646194
31640		-18.373162	6.281685	-3.189141	-3.235097	-9.961710	6.843168	1.389173	0.379342	-4.916465	0.770264	-0.081299	-0.551514	-0.182170	0.067526	-0.031087	-0.263982	0.719179	-0.104412	-0.634187	-102.813831	75.310380	46.731553
31641		-18.167864	9.369509	-0.238816	-7.743293	-11.623734	5.112598	1.292051	0.179035	-4.784864	0.784668	-0.049805	-0.549561	-0.179370	0.098017	-0.001603	-0.283859	0.720400	-0.091320	-0.626186	-100.504798	72.564075	48.357992
31642		-17.970247	9.618134	0.927962	-9.256459	-11.687876	4.113558	1.189040	0.078776	-4.519089	0.787598	-0.012207	-0.543213	-0.177465	0.100151	0.009937	-0.302147	0.720828	-0.078881	-0.618783	-98.685459	70.007796	49.559689
31643		-18.872356	10.817501	1.510611	-10.923505	-13.033149	3.833321	1.115087	-0.030415	-4.144313	0.795410	0.021240	-0.545410	-0.186432	0.111968	0.015695	-0.319009	0.720578	-0.067159	-0.611955	-97.168895	67.634054	50.507927
31644		-18.003239	12.622469	1.385765	-11.807531	-14.641055	1.655935	0.897292	-0.169778	-3.764971	0.796631	0.047852	-0.541260	-0.177627	0.129520	0.014282	-0.333731	0.719760	-0.056085	-0.606155	-95.869854	65.506247	51.363728
31645		-16.333417	14.199745	-0.301871	-10.964392	-16.517688	-1.128921	0.692538	-0.240757	-3.363232	0.804443	0.074707	-0.548096	-0.160912	0.144727	-0.002715	-0.346427	0.718757	-0.045677	-0.601074	-94.824449	63.598471	52.083583
31646		-14.692273	15.730743	-3.026859	-9.133290	-18.789749	-3.814720	0.381513	-0.193698	-2.897168	0.801514	0.092285	-0.541504	-0.144594	0.159471	-0.030107	-0.356485	0.718103	-0.036100	-0.596610	-94.141194	61.956705	52.606623
31647		-12.316275	18.524247	-4.514776	-8.584746	-20.907914	-7.724490	-0.175380	-0.100596	-2.316791	0.805176	0.114746	-0.546143	-0.120984	0.186613	-0.045372	-0.362569	0.718539	-0.027137	-0.592882	-93.986548	60.656332	52.913442
31648		-10.495273	20.549628	-4.142518	-9.199493	-21.542957	-10.737964	-0.839485	-0.007070	-1.568729	0.807129	0.125732	-0.546143	-0.103336	0.206135	-0.042293	-0.364163	0.720229	-0.019027	-0.590164	-94.348817	59.764670	53.050834
31649		-10.438797	19.440617	-2.246282	-10.056093	-19.756063	-10.532492	-1.189173	0.035640	-0.820570	0.802246	0.130127	-0.543945	-0.103594	0.194694	-0.023601	-0.361888	0.722634	-0.012744	-0.588791	-95.031266	59.337287	53.082811
31650		-11.162366	16.696564	-0.056215	-10.723392	-16.944728	-8.690413	-1.025480	0.019385	-0.038502	0.802734	0.121338	-0.541748	-0.111592	0.166981	-0.001407	-0.358263	0.724545	-0.009650	-0.588718	-95.636583	59.318802	53.062766
31651		-11.874148	14.738071	1.287313	-11.108428	-15.129057	-7.060282	-0.546900	0.008683	0.739421	0.804932	0.123535	-0.541748	-0.119285	0.146975	0.012476	-0.353522	0.725583	-0.010905	-0.590281	-96.069412	59.803618	52.970575
31652		-11.697975	13.955964	1.258153	-10.643217	-14.481596	-6.619869	-0.146884	0.023163	1.444018	0.807861	0.101318	-0.541504	-0.117982	0.138719	0.012493	-0.348689	0.725819	-0.015780	-0.592751	-96.335650	60.629284	52.761404
31653		-13.751269	11.099378	-1.571044	-7.544788	-14.528541	-2.975324	0.053271	0.113341	1.944907	0.795166	0.085693	-0.539307	-0.138592	0.109654	-0.015603	-0.342185	0.725912	-0.023070	-0.596179	-96.679738	61.803845	52.432371
31654		-10.574125	-5.797687	-5.415411	4.160435	-2.270857	2.527584	0.081358	0.257995	1.817232	0.797607	0.076660	-0.534912	-0.105279	-0.058913	-0.054042	-0.336991	0.726306	-0.030379	-0.598326	-97.155038	62.824326	51.843644
31655		-9.157112	-25.274087	-0.710913	9.356712	15.989411	9.678778	-0.223490	0.120281	1.330216	0.798340	0.056885	-0.536865	-0.089892	-0.253350	-0.006772	-0.331173	0.726878	-0.034600	-0.600646	-97.651934	63.651326	51.539107
31656		-8.786245	-14.553770	2.564424	2.029007	9.665248	4.260221	0.992473	0.140630	1.270463	0.796631	0.045654	-0.536865	-0.086917	-0.146217	0.024981	-0.330899	0.725418	-0.042460	-0.602056	-97.446927	64.367086	51.135239
31657		-11.730438	-0.840920	3.584436	-5.760951	-1.281747	0.972542	1.865156	0.240276	1.686871	0.792969	0.025635	-0.532471	-0.117183	-0.009733	0.035899	-0.331669	0.722700	-0.054452	-0.603933	-96.963595	65.373709	50.580778
31658		-15.727557	1.943726	1.979033	-6.703219	-5.351698	3.658315	1.460643	0.237987	1.849613	0.788818	0.012207	-0.527832	-0.157422	0.017836	0.020112	-0.331243	0.720446	-0.065967	-0.605710	-96.715194	66.414515	49.936785
31659		-15.397643	3.318896	-0.649059	-5.019823	-7.520382	3.100950	0.701884	0.272611	1.813126	0.789795	-0.010010	-0.519043	-0.154278	0.031813	-0.006167	-0.327236	0.719527	-0.074836	-0.607945	-96.998535	67.494600	49.299868
31660		-15.242548	3.104940	-3.346010	-2.571802	-8.590902	3.330616	0.043628	0.381803	1.886838	0.783203	-0.016846	-0.516846	-0.152773	0.029616	-0.033162	-0.321468	0.719880	-0.082408	-0.609623	-97.861757	68.543235	48.342819
31661		-15.681224	3.064736	-5.550996	-0.747852	-9.658222	4.053011	0.161444	0.589284	1.948606	0.781738	-0.032471	-0.514404	-0.157264	0.029161	-0.055023	-0.314835	0.720640	-0.090627	-0.611019	-99.120695	69.671178	47.010564
31662		-14.701421	1.508708	-1.010800	-3.393036	-5.363105	3.571893	0.079849	0.544560	1.899957	0.775635	-0.052490	-0.507813	-0.147175	0.013693	-0.009702	-0.309023	0.721284	-0.098600	-0.611991	-100.447183	70.695907	45.552814
31663		-11.330148	1.806433	2.256233	-5.372640	-2.731204	0.207172	-0.196195	0.422235	1.850803	0.773926	-0.063721	-0.510010	-0.113414	0.017037	0.022785	-0.301310	0.722018	-0.105034	-0.613897	-101.930577	71.765890	44.233151
31664		-9.572352	2.719905	0.073348	-3.597968	-4.137316	-1.508027	-0.323347	0.456516	1.895395	0.763184	-0.079346	-0.509766	-0.095974	0.026292	0.000909	-0.294036	0.722878	-0.111598	-0.615253	-103.673347	72.771915	42.598894
31665		-9.571374	-0.144535	-1.452094	-0.777210	-2.523668	-0.497920	-0.390329	0.438389	1.810705	0.766113	-0.097168	-0.503174	-0.095727	-0.002340	-0.014307	-0.285927	0.723806	-0.117803	-0.616825	-105.709806	73.799168	40.770921
31666		-8.987257	0.477723	-1.919666	-0.537770	-3.028750	-1.139765	-0.490541	0.348837	1.592095	0.755371	-0.106201	-0.507568	-0.089940	0.004015	-0.019050	-0.278990	0.724620	-0.122578	-0.618114	-107.601972	74.620774	39.097555
31667		-9.122714	-0.301024	-2.524637	0.403552	-2.604614	-0.716554	-0.575118	0.272313	1.424481	0.755615	-0.114990	-0.500977	-0.091237	-0.003732	-0.025112	-0.271445	0.725413	-0.126561	-0.619738	-109.623627	75.430100	37.411316
31668		-9.703925	-0.916203	-2.189626	0.381044	-1.873425	-0.007407	-0.633629	0.207904	1.259305	0.744873	-0.126221	-0.505127	-0.097001	-0.009842	-0.021765	-0.265070	0.726103	-0.129476	-0.621087	-111.434036	76.068917	35.918909
31669		-10.843032	-0.405536	-0.917244	-1.103796	-1.624257	0.898014	-0.799463	0.112084	1.138925	0.749512	-0.130615	-0.513916	-0.108410	-0.004709	-0.009094	-0.257663	0.726797	-0.131496	-0.622964	-113.370809	76.730392	34.462863
31670		-11.009153	-0.455682	-0.669721	-1.262787	-1.355704	1.069581	-0.815824	0.089133	1.071002	0.745361	-0.139648	-0.507324	-0.110068	-0.005173	-0.006628	-0.251260	0.727406	-0.132992	-0.624550	-115.146834	77.273655	33.120779
31671		-10.428188	-0.907175	-1.336054	-0.309652	-1.137310	0.673715	-0.672816	0.121747	1.002638	0.738770	-0.144287	-0.511719	-0.104243	-0.009639	-0.013265	-0.244707	0.727981	-0.134911	-0.626068	-117.206434	77.838752	31.471055
31672		-9.860590	-1.318698	-2.061668	0.650917	-1.004747	0.276244	-0.330697	0.195963	0.965716	0.736816	-0.153076	-0.511719	-0.098561	-0.013697	-0.020498	-0.240306	0.728338	-0.137663	-0.626758	-119.116618	78.278269	29.713220
31673		-9.212070	-2.150600	-2.195274	1.332398	-0.196862	-0.195420	0.038147	0.248437	0.934636	0.730469	-0.162109	-0.509521	-0.092046	-0.021932	-0.021843	-0.236459	0.728448	-0.141705	-0.627193	-121.312709	78.745202	27.513773
31674		-8.779226	-2.503952	-2.141465	1.566637	0.249556	-0.570754	0.306033	0.266602	0.914026	0.733154	-0.168701	-0.509277	-0.087705	-0.025408	-0.021336	-0.234476	0.728265	-0.146341	-0.627085	-123.248083	79.110927	25.363975
31675		-9.374165	-1.167914	-1.449438	0.236010	-0.479551	-0.270482	0.442748	0.233519	0.889363	0.735352	-0.170898	-0.504883	-0.093705	-0.012064	-0.014411	-0.232262	0.727853	-0.151458	-0.627172	-125.439109	79.524887	22.938439
31676		-10.278090	-0.812366	-1.154907	-0.316099	-0.611080	0.539073	0.276528	0.164307	0.850169	0.728760	-0.173340	-0.502686	-0.102755	-0.008545	-0.011476	-0.230435	0.727395	-0.155644	-0.627352	-127.311786	79.865589	20.874992
31677		-10.617235	-0.563105	-1.397313	-0.256080	-0.877530	0.871835	0.097811	0.120659	0.811216	0.731201	-0.177734	-0.502686	-0.106157	-0.006055	-0.013912	-0.227298	0.727058	-0.159256	-0.627981	-129.598364	80.249390	18.557767
31678		-10.422203	-0.054333	-1.581463	-0.298933	-1.316717	0.642101	0.029279	0.108247	0.801744	0.722168	-0.179932	-0.504883	-0.104227	-0.000959	-0.015758	-0.224757	0.726719	-0.162420	-0.628477	-131.659201	80.561722	16.451667
31679		-9.814069	0.396961	-1.870687	-0.154936	-1.735753	0.032903	0.107268	0.113648	0.811890	0.722412	-0.186768	-0.504883	-0.098166	0.003581	-0.018649	-0.221654	0.726322	-0.166052	-0.629089	-134.274768	80.914613	13.799579
31680		-9.499572	0.940663	-1.734004	-0.475136	-2.041200	-0.339527	0.179054	0.093677	0.801386	0.725098	-0.193359	-0.500488	-0.095041	0.009041	-0.017287	-0.219661	0.725745	-0.169665	-0.629489	-136.524185	81.202559	11.419644
31681		-9.216831	0.459035	-1.577445	-0.277098	-1.464401	-0.569994	0.201633	0.072340	0.770969	0.718506	-0.197754	-0.500488	-0.092191	0.004251	-0.015737	-0.217054	0.725125	-0.173397	-0.630091	-139.254430	81.518154	8.601210
31682		-9.214511	-0.236612	-1.549856	0.094277	-0.801481	-0.500671	0.233301	0.067414	0.724925	0.723145	-0.204346	-0.498291	-0.092141	-0.002682	-0.015471	-0.215512	0.724448	-0.176869	-0.630434	-141.504591	81.756618	6.192782
31683		-9.483611	-0.932566	-1.409485	0.341352	-0.073666	-0.186008	0.285105	0.063107	0.685681	0.718994	-0.208984	-0.504883	-0.094808	-0.009631	-0.014079	-0.213482	0.723763	-0.180541	-0.630870	-144.256312	82.007326	3.307334
31684		-9.684399	-0.250979	-1.450599	0.015501	-0.619046	-0.036641	0.310112	0.050861	0.646307	0.716797	-0.215576	-0.493896	-0.096839	-0.002800	-0.014486	-0.212474	0.723002	-0.183949	-0.631099	-146.438905	82.196798	0.925497
31685		-9.897882	0.624113	-1.372584	-0.512143	-1.249523	0.107882	0.280729	0.031407	0.618181	0.723633	-0.215576	-0.493652	-0.099000	0.005954	-0.013702	-0.210678	0.722264	-0.187325	-0.631552	-149.180565	82.404521	-1.945690
31686		-9.611770	0.136112	-1.187319	-0.339434	-0.690131	-0.157500	0.225100	0.015647	0.596787	0.721680	-0.224365	-0.495850	-0.096122	0.001088	-0.011864	-0.209545	0.721511	-0.190245	-0.631917	-151.386833	82.568629	-4.300095
31687		-9.283405	-0.000141	-1.163352	-0.211311	-0.507444	-0.472846	0.209596	0.032780	0.565682	0.721680	-0.224609	-0.489258	-0.092835	-0.000252	-0.011618	-0.207657	0.720887	-0.193205	-0.632354	-154.228456	82.726517	-7.229558
31688		-9.456856	-0.276722	-1.043443	-0.157561	-0.163305	-0.297133	0.155165	0.020887	0.541033	0.719727	-0.231201	-0.489258	-0.094562	-0.003015	-0.010427	-0.206438	0.720263	-0.195707	-0.632695	-156.459449	82.846803	-9.566883
31689		-9.595482	-0.017310	-0.915941	-0.390386	-0.251897	-0.184787	0.092929	0.038634	0.534268	0.719971	-0.239990	-0.489258	-0.095956	-0.000425	-0.009141	-0.204232	0.719795	-0.198188	-0.633172	-159.444271	82.959586	-12.572906
31690		-10.213895	0.445090	-0.647796	-0.911972	-0.429301	0.381681	0.024188	0.024726	0.549743	0.720215	-0.242188	-0.484863	-0.102151	0.004171	-0.006465	-0.202506	0.719297	-0.200307	-0.633625	-161.950155	83.051561	-15.110442
31691		-10.238758	0.622466	-0.873888	-0.787590	-0.637763	0.432115	-0.061005	0.009804	0.568491	0.715820	-0.246826	-0.484863	-0.102405	0.005931	-0.008736	-0.199673	0.718843	-0.202392	-0.634376	-165.296309	83.148166	-18.391492
31692		-10.292931	0.513486	-1.006000	-0.591673	-0.563825	0.509708	-0.128364	0.006374	0.596217	0.716064	-0.253418	-0.487061	-0.102944	0.004822	-0.010060	-0.197264	0.718380	-0.204174	-0.635082	-168.221667	83.223341	-21.262470
31693		-10.201579	0.197597	-1.095883	-0.293896	-0.284158	0.441324	-0.236389	-0.000916	0.613529	0.713867	-0.258057	-0.482666	-0.102021	0.001650	-0.010961	-0.193673	0.718000	-0.205850	-0.636077	-172.015784	83.285134	-24.893363
31694		-10.034553	-0.165737	-1.331397	0.153566	-0.058052	0.309813	-0.320264	-0.008147	0.617633	0.714355	-0.266846	-0.484619	-0.100339	-0.001989	-0.013315	-0.190516	0.717639	-0.207081	-0.637036	-175.256264	83.328597	-27.970180
31695		-10.162297	0.144081	-1.510847	0.166803	-0.338615	0.455362	-0.370021	-0.019209	0.612711	0.714600	-0.275635	-0.484619	-0.101625	0.001102	-0.015120	-0.186474	0.717305	-0.208305	-0.638208	-179.191900	83.347551	-31.667208
31696		-10.218447	1.043824	-1.378392	-0.391131	-0.967719	0.498293	-0.476784	-0.039194	0.605815	0.710205	-0.278076	-0.486816	-0.102213	0.010096	-0.013828	-0.182820	0.716983	-0.208960	-0.639412	177.487588	83.363482	-34.733986
31697		-10.392323	1.318295	-1.245952	-0.611531	-1.051590	0.666359	-0.644254	-0.067039	0.610219	0.708740	-0.295654	-0.491211	-0.103959	0.012825	-0.012536	-0.177854	0.716721	-0.209249	-0.641010	173.391481	83.355065	-38.435310
31698		-10.208298	0.520498	-1.223861	-0.142623	-0.320307	0.475885	-0.786934	-0.077998	0.614347	0.704346	-0.298096	-0.489014	-0.102093	0.004843	-0.012298	-0.173093	0.716514	-0.208899	-0.642657	169.833609	83.345561	-41.562162
31699		-10.184800	-0.511966	-1.605525	0.772471	0.433389	0.472496	-0.658607	-0.068294	0.615538	0.700195	-0.304688	-0.493164	-0.101826	-0.005486	-0.016072	-0.168059	0.716213	-0.209151	-0.644244	165.772298	83.280998	-45.221555
31700		-9.922119	-0.711667	-1.960876	1.241838	0.460878	0.239425	-0.502953	-0.091817	0.601205	0.709717	-0.317871	-0.493164	-0.099190	-0.007464	-0.019636	-0.164363	0.715701	-0.209648	-0.645604	162.498711	83.234066	-48.226560
31701		-9.912488	0.195453	-1.856266	0.736224	-0.197372	0.245144	-0.457987	-0.094884	0.594007	0.703125	-0.322510	-0.488770	-0.099121	0.001618	-0.018614	-0.160159	0.715140	-0.210437	-0.647024	158.787774	83.135798	-51.651743
31702		-10.164383	1.205489	-1.662560	0.084899	-0.891292	0.518331	-0.460782	-0.108511	0.618015	0.694580	-0.333740	-0.497559	-0.101671	0.011702	-0.016708	-0.156571	0.714497	-0.211112	-0.648391	155.573323	83.051493	-54.622528
31703		-9.913320	1.558766	-1.497451	-0.160926	-1.072534	0.275392	-0.428117	-0.127697	0.655994	0.695068	-0.349121	-0.490723	-0.099174	0.015230	-0.015071	-0.152312	0.713715	-0.212188	-0.649915	151.782642	82.905809	-58.148045
31704		-9.766861	1.311425	-1.696904	0.198561	-0.916326	0.142778	-0.448389	-0.141898	0.704802	0.686523	-0.355957	-0.499512	-0.097702	0.012732	-0.017067	-0.148515	0.712835	-0.213180	-0.651432	148.366726	82.769631	-61.330650
31705		-9.540521	0.405814	-1.665501	0.694725	-0.070766	-0.144600	-0.443363	-0.150501	0.752486	0.687012	-0.371582	-0.495117	-0.095407	0.003662	-0.016735	-0.143912	0.711856	-0.214527	-0.653092	144.480031	82.550862	-64.947593
31706		-9.565762	-0.166886	-1.964446	1.290028	0.347973	-0.137729	-0.380228	-0.164430	0.808373	0.678223	-0.378418	-0.497314	-0.095634	-0.002093	-0.019719	-0.140037	0.710712	-0.216087	-0.654664	141.008644	82.339395	-68.228343
31707		-9.849851	0.233141	-1.937220	1.118446	0.130934	0.165186	-0.322199	-0.165934	0.866395	0.667725	-0.394043	-0.499512	-0.098491	0.001873	-0.019457	-0.135520	0.709440	-0.218214	-0.656286	137.252755	82.028163	-71.789119
31708		-10.286969	0.820392	-1.443925	0.447110	-0.009190	0.597827	-0.330204	-0.181476	0.932801	0.661377	-0.407471	-0.503662	-0.102893	0.007700	-0.014546	-0.131426	0.708035	-0.220359	-0.657917	133.845445	81.721247	-75.038568
31709		-10.593295	0.885047	-1.185841	0.255012	0.195218	0.878580	-0.340907	-0.202393	1.006528	0.646240	-0.421143	-0.505859	-0.105964	0.008297	-0.011980	-0.126429	0.706462	-0.222885	-0.659735	130.190040	81.307235	-78.494603
31710		-10.627554	0.268481	-0.987788	0.454470	0.919617	0.814601	-0.332141	-0.218832	1.084880	0.640381	-0.441162	-0.501465	-0.106277	0.002092	-0.009998	-0.121861	0.704722	-0.225524	-0.661555	126.873206	80.891540	-81.657909
31711		-11.012357	0.420187	-0.852618	0.341341	1.021808	1.187923	-0.307858	-0.237357	1.167362	0.629395	-0.450195	-0.512451	-0.110135	0.003546	-0.008663	-0.116497	0.702778	-0.228689	-0.663500	123.473874	80.356891	-84.883953
31712		-11.144202	0.204252	-0.910960	0.583831	1.311356	1.277964	-0.319032	-0.253987	1.249789	0.618652	-0.461426	-0.510010	-0.111440	0.001331	-0.009254	-0.111458	0.700670	-0.231915	-0.665473	120.396724	79.818068	-87.820807
31713		-11.392597	0.030445	-0.886118	0.743015	1.647181	1.470487	-0.337505	-0.254639	1.347098	0.603760	-0.479492	-0.507813	-0.113913	-0.000478	-0.009006	-0.105426	0.698409	-0.235579	-0.667543	117.358308	79.145157	-90.676030
31714		-12.049369	0.643412	-0.641861	0.346978	1.485383	2.174129	-0.335911	-0.247662	1.459334	0.581787	-0.493164	-0.518799	-0.120528	0.005544	-0.006578	-0.099610	0.696012	-0.239462	-0.669555	114.657129	78.447408	-93.232082
31715		-12.829684	0.525302	-0.540371	0.445637	1.957148	2.881250	-0.340096	-0.267319	1.597249	0.573486	-0.513428	-0.514404	-0.128326	0.004219	-0.005583	-0.092760	0.693322	-0.243951	-0.671706	111.993079	77.600409	-95.719986
31716		-13.609033	0.401905	-0.822733	0.908390	2.279940	3.604314	-0.309550	-0.297051	1.749749	0.547119	-0.524902	-0.525391	-0.136106	0.002815	-0.008434	-0.086107	0.690296	-0.248876	-0.673897	109.549250	76.714583	-98.043157
31717		-14.114738	-0.154731	-1.008645	1.504684	3.006597	3.933482	-0.323148	-0.305546	1.895838	0.529541	-0.536377	-0.520996	-0.141109	-0.002902	-0.010298	-0.078373	0.686980	-0.254391	-0.676167	107.233558	75.673294	-100.203299
31718		-14.482060	-0.639894	-1.227098	2.103660	3.639213	4.114565	-0.366041	-0.302775	2.044348	0.514404	-0.550049	-0.523193	-0.144726	-0.007901	-0.012477	-0.070521	0.683451	-0.260089	-0.678436	105.160564	74.587853	-102.129628
31719		-15.306111	-1.535510	-1.301608	2.802245	4.850730	4.572614	-0.413437	-0.291881	2.196708	0.496826	-0.561279	-0.534180	-0.152861	-0.017062	-0.013205	-0.061466	0.679669	-0.266268	-0.680715	103.252593	73.346376	-103.837739
31720		-16.353703	-2.132973	-1.438638	3.456036	5.874900	5.273432	-0.447537	-0.267308	2.363517	0.470703	-0.581787	-0.522949	-0.163250	-0.023293	-0.014554	-0.052187	0.675689	-0.272720	-0.682894	101.578637	72.047679	-105.320930
31721		-17.700029	-2.943234	-1.666296	4.335323	7.201710	6.126345	-0.547031	-0.232358	2.518505	0.448486	-0.588867	-0.531738	-0.176591	-0.031704	-0.016784	-0.041545	0.671511	-0.279457	-0.685019	100.063559	70.598752	-106.562988
31722		-18.864794	-4.420278	-1.695684	5.324876	9.171979	6.490436	-0.687619	-0.193812	2.666173	0.431152	-0.604736	-0.540527	-0.188019	-0.046770	-0.016981	-0.030306	0.667188	-0.286031	-0.687116	98.691429	69.100505	-107.603339
31723		-19.912016	-6.153802	-2.027275	6.678242	11.252777	6.533981	-0.877369	-0.171682	2.793881	0.409180	-0.614014	-0.549316	-0.198216	-0.064400	-0.020165	-0.017599	0.662631	-0.292436	-0.689269	97.380652	67.481368	-108.452313
31724		-20.127204	-7.990341	-2.814196	8.357747	12.950955	5.655163	-1.043401	-0.149200	2.892163	0.393799	-0.623047	-0.560303	-0.200066	-0.082948	-0.027864	-0.004325	0.657888	-0.298418	-0.691456	96.133944	65.836674	-109.157409
31725		-19.295333	-8.608084	-3.202062	8.996576	13.419064	4.173555	-1.146210	-0.135932	2.991752	0.364990	-0.634766	-0.555908	-0.191614	-0.089136	-0.031646	0.009891	0.652877	-0.304379	-0.693547	94.963726	64.102943	-109.711055
31726		-17.091480	-7.635847	-3.979463	9.133061	11.815867	2.153962	-1.177515	-0.101813	3.088813	0.349365	-0.636963	-0.582275	-0.169686	-0.079218	-0.039420	0.024356	0.647660	-0.310385	-0.695416	93.903074	62.333813	-110.141753
31727		-15.912880	-3.670553	-2.763900	6.506955	8.987835	2.483015	-0.904007	-0.105185	3.260858	0.329834	-0.652832	-0.584473	-0.158486	-0.039418	-0.027548	0.038635	0.642041	-0.317861	-0.696603	93.080709	60.450876	-110.483956
31728		-16.577871	0.059904	-1.945219	4.749356	7.060404	4.546298	-0.831333	-0.294584	3.330823	0.312256	-0.662109	-0.595459	-0.165728	-0.002243	-0.019691	0.052498	0.635449	-0.325709	-0.698113	92.170339	58.543015	-110.985991
31729		-15.602597	-2.408501	-5.278295	8.700393	7.623453	2.156519	-1.031399	-0.417171	3.203017	0.294434	-0.666748	-0.606445	-0.155500	-0.026851	-0.052974	0.066370	0.628441	-0.332421	-0.700110	91.135910	56.702243	-111.512229
31730		-14.719556	-2.518195	-6.988154	10.329083	6.954015	0.993263	-0.604574	-0.350916	3.283305	0.272217	-0.673828	-0.613037	-0.146631	-0.027804	-0.070058	0.079238	0.621448	-0.340731	-0.701018	90.456496	54.814890	-111.913292
31731		-12.775552	0.832588	-5.078371	7.260832	4.425585	1.021451	0.020940	-0.216486	3.177875	0.259277	-0.687256	-0.619629	-0.127811	0.006301	-0.050921	0.089951	0.615269	-0.350781	-0.700219	90.305115	52.990845	-112.124758
31732		-8.634751	3.888742	-3.646840	4.192064	0.677126	-0.596241	-0.144932	0.025962	2.753350	0.250488	-0.691895	-0.621826	-0.086876	0.037667	-0.036485	0.100141	0.610388	-0.358737	-0.699076	90.232386	51.404141	-112.109938
31733		-5.217099	8.711878	-3.492415	1.934808	-4.506686	-0.260061	-0.815251	0.036983	2.275759	0.239502	-0.692139	-0.641602	-0.053163	0.086374	-0.035267	0.110624	0.606068	-0.362847	-0.699132	89.817129	50.099969	-112.057445
31734		-6.647300	-4.165516	-3.665504	6.171594	5.601066	-7.465176	-2.038172	-0.226752	1.220865	0.241699	-0.694092	-0.659180	-0.066174	-0.042431	-0.036300	0.120716	0.601870	-0.359559	-0.702778	88.508720	49.389608	-112.239855
31735		-9.538945	-12.919500	-4.957357	10.288880	13.225270	-11.119034	-1.691871	-0.173548	0.415516	0.248779	-0.696045	-0.681152	-0.095078	-0.129806	-0.048560	0.126918	0.599574	-0.355018	-0.705950	87.463504	49.149736	-112.357719
31736		-4.547445	-15.802981	-0.408331	5.321622	13.957907	-16.699940	-1.317497	-0.332278	-0.137409	0.255127	-0.687012	-0.700928	-0.045577	-0.158021	-0.003118	0.129859	0.597776	-0.350195	-0.709341	86.484870	49.209364	-112.651563
31737		-1.202851	-11.599185	0.963670	2.104071	9.442236	-16.395475	-0.468774	-0.214580	-0.516446	0.268311	-0.682373	-0.692139	-0.012338	-0.115937	0.009895	0.128906	0.597751	-0.347154	-0.711028	86.082882	49.511403	-112.851875
31738		0.132879	-6.945769	-0.445110	2.014108	4.821502	-14.412215	0.401650	0.112480	-0.784934	0.279541	-0.682129	-0.692139	0.001054	-0.069453	-0.004591	0.125177	0.599748	-0.346197	-0.710479	86.355281	49.955548	-112.794659
31739		-1.624395	-6.238065	-2.277015	4.058825	4.730171	-12.621143	0.887139	0.320874	-1.201825	0.297363	-0.675049	-0.689941	-0.016655	-0.062180	-0.023020	0.118356	0.603518	-0.345836	-0.708629	87.076450	50.667109	-112.594172
31740		-3.192312	-5.973198	-2.315457	4.464212	5.436696	-11.132815	0.957875	0.336725	-1.722570	0.317383	-0.670410	-0.676758	-0.032475	-0.059342	-0.023385	0.110007	0.608209	-0.343853	-0.706927	87.811354	51.652818	-112.353566
31741		-3.654755	-4.487356	-1.730466	3.677621	4.790393	-9.695977	0.848053	0.291426	-2.206953	0.343750	-0.656494	-0.676758	-0.037065	-0.044393	-0.017440	0.099630	0.613479	-0.340259	-0.705650	88.503782	52.939768	-112.172136
31742		-3.686023	-3.672615	-1.252507	3.027976	4.343091	-9.031187	0.724931	0.308724	-2.649771	0.361328	-0.647461	-0.674561	-0.037361	-0.036188	-0.012599	0.088640	0.619362	-0.334541	-0.704709	89.118433	54.452443	-111.923273
31743		-4.158183	-3.955176	-1.279092	3.243398	4.763063	-8.646188	0.670253	0.352973	-3.061162	0.394287	-0.629150	-0.665771	-0.042203	-0.038866	-0.012848	0.075836	0.625983	-0.327519	-0.703652	89.819233	56.229588	-111.617877
31744		-5.094782	-3.809763	-1.016648	3.133269	5.171342	-7.590036	0.699135	0.402205	-3.459695	0.429688	-0.617188	-0.663330	-0.051617	-0.037173	-0.010194	0.062190	0.633215	-0.318987	-0.702437	90.590255	58.202151	-111.175867
31745		-5.912151	-3.331345	-0.543353	2.662829	5.267925	-6.421650	0.707823	0.431110	-3.821252	0.455811	-0.592285	-0.661377	-0.059755	-0.032157	-0.005420	0.046657	0.640975	-0.309458	-0.700864	91.535012	60.411681	-110.627383
31746		-6.663699	-2.839380	0.052484	2.009885	5.299009	-5.302356	0.667490	0.441626	-4.144760	0.488770	-0.573975	-0.654785	-0.067205	-0.027007	0.000581	0.030733	0.648937	-0.298384	-0.699217	92.542975	62.767120	-109.915052
31747		-7.766167	-2.611436	0.439172	1.645903	5.530934	-3.980461	0.631342	0.443038	-4.412041	0.520996	-0.540283	-0.652588	-0.078203	-0.024407	0.004486	0.013363	0.657077	-0.286362	-0.697186	93.775174	65.306518	-109.019287
31748		-9.166842	-2.349325	0.623335	1.431826	5.669942	-2.347784	0.690664	0.446961	-4.633374	0.553711	-0.512939	-0.641602	-0.092166	-0.021384	0.006363	-0.004355	0.665123	-0.273483	-0.694838	95.246051	67.924151	-107.847039
31749		-10.673120	-1.707340	1.034978	0.798180	5.465967	-0.465729	0.774975	0.443847	-4.840591	0.583740	-0.479248	-0.635254	-0.107080	-0.014525	0.010528	-0.023638	0.673177	-0.260106	-0.691822	97.234610	70.688616	-106.251224
31750		-12.019158	-0.829748	1.333419	0.071569	4.813315	1.310456	0.841223	0.427280	-4.996953	0.611572	-0.445313	-0.628662	-0.120321	-0.005349	0.013565	-0.043126	0.680830	-0.246210	-0.688470	99.776583	73.475597	-104.085812
31751		-13.093275	0.342448	1.322598	-0.604823	3.549778	2.848174	0.902317	0.414132	-5.106468	0.639404	-0.405029	-0.624512	-0.130762	0.006704	0.013522	-0.063684	0.688253	-0.231896	-0.684453	103.445801	76.334213	-100.857675
31752		-14.182520	1.299715	1.446159	-1.394994	2.408974	4.227629	0.773052	0.360951	-5.209823	0.656006	-0.371338	-0.620361	-0.141397	0.016628	0.014777	-0.083669	0.695039	-0.216695	-0.680414	108.592215	79.139924	-96.044896
31753		-15.017430	1.720895	1.300236	-1.797656	1.453111	5.179968	0.512943	0.310264	-5.279488	0.678955	-0.326660	-0.614014	-0.149631	0.021130	0.013286	-0.103401	0.701500	-0.199963	-0.676181	117.110996	81.904516	-87.725537
31754		-15.673524	1.714312	0.679621	-1.625035	0.578361	5.872533	0.368950	0.317776	-5.326777	0.695313	-0.288574	-0.611816	-0.156194	0.021295	0.007081	-0.122288	0.707457	-0.182668	-0.671701	133.101838	84.311589	-71.835096
31755		-16.615433	1.204775	0.483540	-1.685067	0.276130	6.763693	0.456756	0.349003	-5.334649	0.713867	-0.243896	-0.605469	-0.165746	0.016461	0.005159	-0.141769	0.713099	-0.165238	-0.666399	165.864647	85.764020	-39.228725
31756		-17.340388	1.457941	0.207381	-2.026263	-0.820747	7.450205	0.753242	0.388639	-5.287612	0.732666	-0.208008	-0.596924	-0.172933	0.019147	0.002477	-0.161641	0.717975	-0.149161	-0.660406	-155.062208	85.225525	-0.475687
31757		-18.101072	2.263781	-0.262043	-2.489958	-2.564435	8.075559	1.036090	0.401313	-5.215734	0.746826	-0.172363	-0.590576	-0.180343	0.027359	-0.002124	-0.182518	0.722204	-0.133880	-0.653594	-131.715521	83.181445	22.381784
31758		-18.849213	2.905177	-1.198663	-2.506224	-4.396349	8.612219	1.232829	0.406840	-5.141563	0.756836	-0.136719	-0.577637	-0.187685	0.033956	-0.011405	-0.203377	0.725600	-0.119717	-0.646382	-120.186561	80.653891	33.310634
31759		-18.969403	3.680407	-1.985324	-2.690977	-6.269206	8.372309	1.470353	0.425732	-5.094020	0.766602	-0.105469	-0.573242	-0.188714	0.041762	-0.019156	-0.225118	0.728355	-0.106165	-0.638396	-113.473472	77.893020	39.276522
31760		-18.299448	6.020114	-2.463034	-3.727098	-9.201216	6.876756	1.771248	0.394362	-5.019966	0.780762	-0.063232	-0.562500	-0.181451	0.064982	-0.023710	-0.247247	0.730032	-0.093994	-0.630149	-109.011018	75.135891	42.821715
31761		-18.119802	7.752134	0.079132	-7.205840	-10.098226	5.499086	1.771439	0.223804	-4.907013	0.783691	-0.025391	-0.562744	-0.179222	0.081923	0.001705	-0.269193	0.730670	-0.081727	-0.622074	-105.540260	72.375912	45.374264
31762		-17.949896	7.666263	0.435152	-7.894199	-10.374421	4.718034	1.709711	0.126019	-4.692366	0.793701	0.008057	-0.554199	-0.177632	0.080803	0.005143	-0.289845	0.730460	-0.070097	-0.614414	-102.854339	69.758760	47.178688
31763		-18.753372	7.978071	0.814152	-8.973521	-11.160671	4.707976	1.679613	0.009122	-4.413441	0.796875	0.043457	-0.550049	-0.185713	0.083820	0.008843	-0.309571	0.729442	-0.058968	-0.607126	-100.600935	67.255346	48.568211
31764		-18.389555	9.294200	0.481927	-9.580943	-12.733426	3.256214	1.543565	-0.124043	-4.088250	0.809082	0.074707	-0.548096	-0.181949	0.096634	0.005442	-0.327523	0.727718	-0.048588	-0.600661	-98.680979	64.965318	49.701660
31765		-16.814514	10.998875	-1.779836	-8.354806	-15.121409	0.596913	1.390058	-0.166787	-3.745719	0.807861	0.101318	-0.548096	-0.166030	0.113232	-0.017158	-0.343826	0.725735	-0.038719	-0.594637	-97.094454	62.838515	50.590294
31766		-15.402080	13.193772	-4.841958	-6.670530	-18.205301	-2.146522	1.033079	-0.044406	-3.376893	0.811035	0.134766	-0.546143	-0.151751	0.134761	-0.047762	-0.357521	0.724379	-0.029505	-0.588713	-96.047346	60.926893	51.107543
31767		-13.448637	16.316229	-5.274078	-7.320951	-20.164044	-5.980790	0.226655	0.054181	-2.926722	0.810547	0.152344	-0.546387	-0.132093	0.165167	-0.052518	-0.366863	0.724535	-0.019700	-0.583157	-95.690017	59.259334	51.373911
31768		-11.328053	18.618922	-3.885232	-8.820058	-20.303185	-9.587529	-0.696714	0.086805	-2.291832	0.810059	0.165771	-0.546387	-0.111155	0.187334	-0.039455	-0.370939	0.726253	-0.009574	-0.578678	-95.957689	57.955557	51.529312
31769		-10.554657	18.674221	-1.959141	-10.021667	-19.042728	-10.758359	-1.175676	0.110402	-1.532650	0.804932	0.178955	-0.541992	-0.104123	0.187425	-0.020634	-0.370893	0.728861	-0.000897	-0.575499	-96.604316	57.096125	51.576713
31770		-10.633669	17.341295	-0.416184	-10.587556	-17.368005	-10.282212	-1.079797	0.117306	-0.715843	0.806885	0.187744	-0.542236	-0.105718	0.173766	-0.005037	-0.368963	0.731203	0.004550	-0.573749	-97.255135	56.688449	51.539699
31771		-11.281578	16.429671	0.950097	-11.463003	-16.325440	-9.377109	-0.564691	0.084397	0.129206	0.807129	0.181152	-0.541992	-0.112918	0.164250	0.009085	-0.366212	0.732560	0.005404	-0.573773	-97.696375	56.792025	51.423412
31772		-11.599608	16.285344	1.285967	-11.761087	-16.196883	-8.945596	-0.116917	0.059840	0.956397	0.809814	0.165771	-0.537598	-0.116769	0.162304	0.012800	-0.362990	0.732977	0.002075	-0.575307	-97.936817	57.337840	51.218110
31773		-11.446487	15.067281	0.410516	-10.444096	-15.690342	-8.098202	0.102212	0.025825	1.643483	0.803711	0.152344	-0.539795	-0.115697	0.149723	0.004197	-0.357915	0.732859	-0.003821	-0.578619	-98.117395	58.301760	51.042467
31774		-15.729234	11.110832	-1.929957	-8.213882	-15.627682	-1.883112	0.171475	0.106930	2.098369	0.804199	0.136719	-0.537354	-0.158457	0.109466	-0.019121	-0.352402	0.732794	-0.012248	-0.581958	-98.412627	59.490343	50.584378
31775		-11.061584	-7.542592	-5.091654	4.028987	-1.251644	3.875628	0.187152	0.263376	1.934511	0.804932	0.121338	-0.541748	-0.109947	-0.076444	-0.050843	-0.346594	0.733092	-0.019911	-0.584852	-98.866741	60.610470	50.052020
31776		-10.123263	-29.386260	0.226076	9.454618	18.762892	13.092159	-0.225909	0.059988	1.387847	0.800781	0.110107	-0.530762	-0.099189	-0.294553	0.002623	-0.341643	0.733516	-0.024492	-0.587056	-99.291115	61.397860	49.716341
31777		-8.745599	-17.064404	3.447913	1.950607	11.763778	5.594067	0.909405	0.105320	1.337798	0.799316	0.092285	-0.534912	-0.086293	-0.171378	0.033747	-0.340241	0.732110	-0.031743	-0.589274	-99.121884	62.181125	49.433137
31778		-11.062142	-1.367680	5.165615	-7.019638	0.013639	0.269092	1.884396	0.266126	1.782387	0.795410	0.074463	-0.532715	-0.110422	-0.015148	0.051665	-0.341765	0.729355	-0.044320	-0.590994	-98.646847	63.174190	48.754162
31779		-14.315766	3.490668	1.219456	-6.870195	-6.716715	1.425159	1.743727	0.315035	2.101755	0.798340	0.056641	-0.525879	-0.143493	0.033291	0.012715	-0.341052	0.726799	-0.057152	-0.593447	-98.375991	64.371513	48.055988
31780		-14.403893	1.742213	-0.623692	-4.459607	-6.189196	2.544284	0.912230	0.313974	2.054853	0.794678	0.036621	-0.523682	-0.144217	0.015969	-0.005936	-0.338106	0.725552	-0.067907	-0.595523	-98.614376	65.517063	47.217573
31781		-14.970591	0.552575	-1.320563	-3.338775	-5.602283	3.738206	0.194352	0.336108	2.073164	0.786133	0.023193	-0.517090	-0.149774	0.003986	-0.012950	-0.331664	0.725516	-0.075986	-0.598207	-99.353486	66.696368	46.413316
31782		-15.434127	3.077400	-3.846514	-2.585356	-8.852747	3.506970	0.031871	0.494489	2.113814	0.782715	0.000977	-0.514648	-0.154750	0.029146	-0.038078	-0.325196	0.726106	-0.084614	-0.599882	-100.509989	67.848157	45.141485
31783		-14.291200	4.418957	-5.709139	-1.374895	-10.389626	2.291691	0.354907	0.734352	2.092187	0.778564	-0.014893	-0.503662	-0.143573	0.042791	-0.056488	-0.318965	0.726862	-0.093858	-0.600935	-101.952061	68.982192	43.506123
31784		-14.808595	0.464509	-0.232862	-3.860090	-4.010253	3.919526	-0.016370	0.568071	2.063514	0.781738	-0.032471	-0.505615	-0.148129	0.003117	-0.001908	-0.312366	0.727593	-0.102257	-0.602146	-103.521907	70.071217	41.842386
31785		-12.073216	1.216538	1.414326	-4.802504	-2.776912	1.071348	-0.382063	0.498191	2.080399	0.770996	-0.048096	-0.507813	-0.120814	0.010936	0.014422	-0.303476	0.728666	-0.108864	-0.604233	-105.404660	71.198882	40.215810
31786		-10.428677	3.019402	-1.011636	-3.298271	-5.047269	-0.727575	-0.443014	0.584780	2.088879	0.764893	-0.063965	-0.501221	-0.104623	0.029080	-0.009876	-0.295157	0.729930	-0.116064	-0.605486	-107.678326	72.258207	38.090801
31787		-9.499908	0.270107	-2.755340	-0.135853	-3.475189	-0.549093	-0.498898	0.500538	1.961205	0.763184	-0.079346	-0.500977	-0.095088	0.001701	-0.027321	-0.286456	0.731045	-0.122662	-0.607017	-110.132605	73.293219	35.864942
31788		-9.153734	1.641384	-2.767308	-0.703025	-4.360218	-1.173565	-0.638610	0.362470	1.752891	0.754639	-0.088379	-0.496582	-0.091726	0.015522	-0.027557	-0.278508	0.731958	-0.127693	-0.608576	-112.429013	74.160795	33.855897
31789		-9.225916	0.207527	-2.614346	-0.017217	-2.964084	-0.690893	-0.813378	0.215508	1.511471	0.755127	-0.104004	-0.503174	-0.092299	0.001272	-0.026050	-0.270125	0.732794	-0.131266	-0.610585	-114.715047	74.968453	32.013477
31790		-9.795093	-0.615141	-1.350247	-0.692252	-1.531198	-0.049489	-0.734829	0.160912	1.298255	0.748535	-0.108643	-0.498779	-0.097919	-0.006836	-0.013399	-0.263297	0.733411	-0.134042	-0.612223	-116.704246	75.605409	30.394141
31791		-9.977290	-2.142224	-1.568236	0.297906	-0.277214	0.503696	-0.367787	0.215387	1.199866	0.744873	-0.126465	-0.502930	-0.099659	-0.022049	-0.015535	-0.257457	0.733771	-0.137820	-0.613434	-118.815308	76.217238	28.480793
31792		-10.190162	-1.302528	-1.811582	0.064160	-1.012437	0.569388	-0.014522	0.243329	1.138693	0.744873	-0.128662	-0.507324	-0.101847	-0.013607	-0.017991	-0.253678	0.733744	-0.142313	-0.614015	-120.699328	76.720887	26.553550
31793		-10.309829	-0.666008	-1.612109	-0.409427	-1.325040	0.551223	0.112377	0.206991	1.080629	0.740967	-0.139648	-0.500732	-0.103077	-0.007208	-0.016018	-0.249956	0.733492	-0.147106	-0.614713	-122.700581	77.242479	24.478815
31794		-9.706533	-0.695715	-1.205416	-0.570583	-0.923797	-0.067224	0.210084	0.212329	1.023136	0.736572	-0.142090	-0.498535	-0.097041	-0.007441	-0.011959	-0.247360	0.733123	-0.151817	-0.615057	-124.525571	77.669454	22.487900
31795		-9.663353	-1.614544	-1.115197	-0.110311	-0.006409	0.047225	0.348471	0.217124	0.984586	0.736816	-0.148682	-0.496338	-0.096565	-0.016602	-0.011076	-0.244774	0.732636	-0.156988	-0.615374	-126.583756	78.109514	20.223820
31796		-9.613830	-1.762569	-1.051591	-0.037717	0.238650	0.014786	0.476781	0.246780	0.918274	0.729980	-0.151123	-0.494141	-0.096069	-0.018042	-0.010440	-0.243436	0.732084	-0.162168	-0.615219	-128.431132	78.446547	18.060134
31797		-10.114723	-0.375475	-1.049194	-0.843414	-0.848130	0.292662	0.421228	0.246491	0.888275	0.734863	-0.159912	-0.496338	-0.101142	-0.004182	-0.010376	-0.241383	0.731632	-0.167236	-0.615208	-130.630830	78.797783	15.614476
31798		-10.094940	-0.369613	-1.466443	-0.472815	-1.001631	0.334601	0.203088	0.212322	0.850866	0.730713	-0.166504	-0.491943	-0.100948	-0.004111	-0.014561	-0.239265	0.731324	-0.171279	-0.615290	-132.678288	79.086489	13.411774
31799		-9.788098	-0.295747	-1.646999	-0.274771	-1.059914	0.056833	0.087365	0.197333	0.841599	0.730713	-0.168945	-0.489746	-0.097884	-0.003362	-0.016375	-0.236166	0.731128	-0.175083	-0.615649	-135.143092	79.399407	10.895978
31800		-9.528124	-0.346990	-1.795496	-0.049288	-1.015279	-0.164080	0.053088	0.171693	0.812537	0.728760	-0.177734	-0.487305	-0.095281	-0.003852	-0.017874	-0.233641	0.730878	-0.178470	-0.615937	-137.345571	79.655083	8.627324
31801		-9.776221	-0.273123	-1.861608	-0.044277	-1.037519	0.088614	0.030185	0.129956	0.777024	0.719971	-0.182373	-0.489502	-0.097763	-0.003108	-0.018553	-0.230583	0.730572	-0.181777	-0.616485	-139.818717	79.932340	6.140588
31802		-9.937103	0.296283	-1.532105	-0.622168	-1.256633	0.147958	0.009220	0.101341	0.758986	0.724609	-0.182373	-0.485107	-0.099389	0.002586	-0.015271	-0.228117	0.730180	-0.184745	-0.616984	-141.996594	80.165643	3.926172
31803		-9.670074	-0.725145	-1.500259	-0.001733	-0.313765	-0.005135	-0.031726	0.076958	0.709639	0.729492	-0.193359	-0.491699	-0.096680	-0.007597	-0.014964	-0.225081	0.729819	-0.187550	-0.617679	-144.470066	80.406845	1.478603
31804		-9.383707	-0.620489	-1.581008	0.087189	-0.384410	-0.284685	-0.045594	0.043582	0.673406	0.720459	-0.193359	-0.487305	-0.093819	-0.006524	-0.015788	-0.222726	0.729370	-0.189967	-0.618324	-146.538165	80.608287	-0.589614
31805		-9.410513	-0.969414	-1.294087	0.079020	0.130324	-0.265508	-0.056007	0.009197	0.645893	0.729736	-0.199951	-0.489502	-0.094074	-0.010002	-0.012934	-0.219862	0.728867	-0.192384	-0.619194	-148.930277	80.828901	-2.938280
31806		-9.492494	-0.587199	-1.206911	-0.182030	-0.084830	-0.227895	-0.027193	-0.003433	0.633618	0.718750	-0.206787	-0.489502	-0.094905	-0.006174	-0.012070	-0.217736	0.728273	-0.194657	-0.619934	-150.966770	81.015252	-4.982700
31807		-9.891878	-0.273952	-1.109117	-0.457669	-0.222051	0.131927	-0.005908	-0.000148	0.637896	0.723389	-0.211182	-0.489502	-0.098909	-0.003055	-0.011091	-0.215092	0.727675	-0.197185	-0.620759	-153.491636	81.207496	-7.493133
31808		-9.876269	-0.234565	-1.194833	-0.370282	-0.248741	0.128339	-0.078855	-0.014472	0.641133	0.718750	-0.208984	-0.480713	-0.098754	-0.002667	-0.011954	-0.212759	0.727079	-0.199310	-0.621583	-155.745259	81.374568	-9.725186
31809		-9.825313	-0.023729	-1.292749	-0.356402	-0.415494	0.082187	-0.161753	-0.027609	0.646101	0.721436	-0.215576	-0.487305	-0.098250	-0.000565	-0.012941	-0.209550	0.726533	-0.201351	-0.622653	-158.548459	81.548904	-12.425188
31810		-9.779871	-0.292884	-1.323675	-0.135397	-0.155976	0.058520	-0.226595	-0.049864	0.646043	0.728516	-0.226563	-0.482666	-0.097785	-0.003260	-0.013258	-0.206694	0.725959	-0.202993	-0.623742	-161.040840	81.704836	-14.811023
31811		-9.799466	-0.535552	-1.559945	0.235891	-0.019316	0.121767	-0.221925	-0.052420	0.652042	0.724121	-0.229004	-0.484863	-0.097972	-0.005692	-0.015619	-0.203274	0.725371	-0.204837	-0.624947	-164.074763	81.854974	-17.707877
31812		-10.128958	-0.132579	-1.359764	-0.152579	-0.174087	0.405352	-0.186175	-0.055000	0.674824	0.715088	-0.231201	-0.487061	-0.101281	-0.001680	-0.013624	-0.200474	0.724691	-0.206700	-0.626026	-166.835043	81.982889	-20.385907
31813		-10.297347	0.346059	-1.484861	-0.284512	-0.564988	0.577659	-0.190824	-0.059773	0.694051	0.720215	-0.244629	-0.478271	-0.102980	0.003089	-0.014882	-0.197045	0.723981	-0.208780	-0.627244	-170.199799	82.097819	-23.633827
31814		-9.989469	0.610033	-1.597108	-0.250812	-0.804004	0.286946	-0.219247	-0.066508	0.707147	0.713867	-0.253418	-0.489258	-0.099910	0.005730	-0.016011	-0.194029	0.723243	-0.210640	-0.628413	-173.268479	82.192979	-26.602543
31815		-9.561581	0.017062	-1.519657	0.113047	-0.224670	-0.134371	-0.237336	-0.074049	0.696610	0.713867	-0.258057	-0.482666	-0.095610	-0.000180	-0.015232	-0.190435	0.722507	-0.212565	-0.629710	-176.817402	82.264068	-30.008572
31816		-9.562797	0.311760	-1.540383	0.013637	-0.426081	-0.131008	-0.215813	-0.065727	0.695058	0.709961	-0.269043	-0.491211	-0.095633	0.002769	-0.015438	-0.187462	0.721759	-0.214387	-0.630840	-179.950074	82.310943	-33.042822
31817		-9.813321	0.293378	-1.457623	-0.023939	-0.281379	0.108594	-0.238717	-0.067398	0.685640	0.714844	-0.277832	-0.491211	-0.098138	0.002580	-0.014613	-0.183891	0.721032	-0.216269	-0.632080	176.474053	82.323971	-36.475324
31818		-9.794699	0.214673	-1.619135	0.200565	-0.245933	0.112163	-0.292383	-0.062724	0.687171	0.712646	-0.282471	-0.484619	-0.097948	0.001786	-0.016225	-0.180657	0.720351	-0.217818	-0.633255	173.297258	82.321449	-39.509554
31819		-9.918460	-0.017387	-1.400559	0.181311	0.145611	0.201462	-0.317207	-0.063712	0.697758	0.710938	-0.295654	-0.486816	-0.099179	-0.000542	-0.014037	-0.176762	0.719669	-0.219492	-0.634551	169.652913	82.276924	-42.966725
31820		-10.134134	0.073151	-1.326184	0.095067	0.191139	0.405861	-0.309816	-0.043655	0.722053	0.708984	-0.302490	-0.488770	-0.101340	0.000345	-0.013285	-0.173327	0.719003	-0.221122	-0.635687	166.392773	82.211089	-46.075529
31821		-10.481503	0.085959	-1.203956	0.005439	0.355366	0.732070	-0.294767	-0.051509	0.756328	0.704834	-0.309082	-0.488770	-0.104814	0.000445	-0.012067	-0.169316	0.718246	-0.223080	-0.636938	162.674357	82.095367	-49.622614
31822		-10.141643	0.090381	-1.450064	0.289534	0.255692	0.425182	-0.319296	-0.041414	0.780636	0.704834	-0.313477	-0.486572	-0.101416	0.000485	-0.014523	-0.165651	0.717503	-0.224886	-0.638103	159.347410	81.966600	-52.794964
31823		-10.133297	0.309094	-1.621494	0.373124	0.061667	0.447177	-0.348772	-0.053770	0.821768	0.701416	-0.335693	-0.488770	-0.101340	0.002646	-0.016247	-0.161244	0.716679	-0.226895	-0.639445	155.606102	81.779395	-56.337355
31824		-10.465897	0.178883	-1.582098	0.438818	0.308519	0.759990	-0.342458	-0.070535	0.873802	0.692627	-0.342773	-0.484375	-0.104660	0.001304	-0.015860	-0.157223	0.715726	-0.228928	-0.640788	152.152463	81.588414	-59.627055
31825		-10.496648	0.456135	-1.746036	0.494473	0.085655	0.826088	-0.340402	-0.083683	0.949621	0.688477	-0.351563	-0.486328	-0.104979	0.004033	-0.017511	-0.152472	0.714615	-0.231386	-0.642291	148.300786	81.318195	-63.290722
31826		-10.576475	0.323310	-1.569264	0.477735	0.390308	0.866603	-0.343200	-0.104900	1.049291	0.682373	-0.367188	-0.492920	-0.105771	0.002651	-0.015753	-0.147916	0.713310	-0.234006	-0.643857	144.611902	81.028070	-66.822444
31827		-10.514331	-0.130247	-1.524799	0.759667	0.896388	0.747198	-0.327086	-0.112128	1.154839	0.671631	-0.378418	-0.488525	-0.105125	-0.001935	-0.015304	-0.142585	0.711809	-0.237201	-0.645549	140.635474	80.629951	-70.627521
31828		-10.979187	-0.421908	-1.159691	0.657030	1.509313	1.112240	-0.294166	-0.126296	1.260229	0.669922	-0.396240	-0.488525	-0.109755	-0.004928	-0.011659	-0.137537	0.710095	-0.240698	-0.647235	136.926825	80.199481	-74.215324
31829		-11.253811	0.015646	-1.242363	0.581224	1.272306	1.422674	-0.246922	-0.133994	1.361631	0.652344	-0.403320	-0.497314	-0.112527	-0.000625	-0.012499	-0.131852	0.708154	-0.244848	-0.648985	133.151296	79.650785	-77.874723
31830		-11.669551	0.545563	-1.237539	0.387361	1.033163	1.882933	-0.253090	-0.147204	1.458719	0.653076	-0.423340	-0.490479	-0.116722	0.004589	-0.012467	-0.126318	0.706031	-0.249144	-0.650762	129.694637	79.069876	-81.241832
31831		-11.675392	0.210100	-1.274809	0.705304	1.453118	1.822267	-0.269935	-0.160697	1.557225	0.626953	-0.443604	-0.494873	-0.116755	0.001175	-0.012844	-0.119950	0.703690	-0.253862	-0.652677	126.262134	78.368668	-84.554045
31832		-11.886147	0.297449	-1.323277	0.814261	1.551791	2.021401	-0.276671	-0.164694	1.637761	0.623047	-0.457031	-0.499268	-0.118869	0.001983	-0.013334	-0.113754	0.701206	-0.258670	-0.654568	123.199696	77.640596	-87.520272
31833		-12.034057	0.544073	-1.669048	1.111298	1.380019	2.218812	-0.311316	-0.159070	1.734344	0.610107	-0.475098	-0.496826	-0.120368	0.004371	-0.016794	-0.106660	0.698561	-0.263834	-0.656527	120.264226	76.787554	-90.318799
31834		-12.572266	0.322225	-1.606687	1.304427	1.902199	2.654169	-0.409026	-0.151752	1.836178	0.594971	-0.488770	-0.494629	-0.125733	0.002035	-0.016167	-0.099316	0.695818	-0.268868	-0.658547	117.606024	75.897816	-92.810613
31835		-13.785229	-0.223290	-1.769762	1.887602	2.792015	3.672470	-0.477844	-0.156075	1.972144	0.580078	-0.508789	-0.505615	-0.137807	-0.003634	-0.017798	-0.090855	0.692819	-0.274262	-0.660702	115.028895	74.868776	-95.163937
31836		-14.348604	-0.480760	-2.186249	2.555634	3.189831	4.122108	-0.603488	-0.127128	2.121041	0.560547	-0.524658	-0.510010	-0.143410	-0.006395	-0.021936	-0.081842	0.689711	-0.279597	-0.662892	112.683912	73.775414	-97.237779
31837		-15.138947	-0.253340	-2.205935	2.672256	3.499794	4.840547	-0.776746	-0.082785	2.315098	0.538574	-0.536133	-0.514404	-0.151337	-0.004371	-0.022107	-0.071120	0.686428	-0.285139	-0.665172	110.438365	72.505202	-99.094285
31838		-15.854748	-1.459321	-1.389403	2.768967	5.416613	4.966086	-0.985628	-0.032754	2.495800	0.512207	-0.554443	-0.523193	-0.158346	-0.016638	-0.013841	-0.059391	0.683037	-0.290443	-0.667515	108.365646	71.151095	-100.678741
31839		-17.059664	-2.760731	-0.857363	3.182884	7.486996	5.457690	-1.123958	0.004879	2.667935	0.495117	-0.572510	-0.527344	-0.170208	-0.029927	-0.008406	-0.046194	0.679400	-0.295948	-0.669848	106.419190	69.641075	-102.039114
31840		-18.957608	-4.819426	-0.326693	3.995428	10.465727	6.224872	-1.197851	-0.014029	2.839968	0.464111	-0.584229	-0.533936	-0.188866	-0.050898	-0.002981	-0.032542	0.675331	-0.301599	-0.672240	104.584373	68.063568	-103.267761
31841		-19.839843	-7.108890	-0.949839	5.840123	12.821930	5.888085	-1.134409	0.014250	2.989041	0.446777	-0.599854	-0.544922	-0.197307	-0.074095	-0.009070	-0.018266	0.670925	-0.307992	-0.674290	102.967497	66.354981	-104.298201
31842		-20.823051	-8.101171	-1.878701	7.378585	14.062322	6.015240	-1.055312	0.025937	3.077581	0.431641	-0.615723	-0.553711	-0.206953	-0.084300	-0.018321	-0.004220	0.666264	-0.314772	-0.676012	101.570482	64.617062	-105.166222
31843		-20.942992	-8.631538	-2.186788	8.083729	14.879068	5.389792	-1.208893	-0.010904	3.128902	0.409424	-0.622803	-0.560303	-0.208043	-0.089708	-0.021344	0.010246	0.660988	-0.321731	-0.677849	100.189574	62.811384	-106.004618
31844		-19.326085	-8.319453	-3.356060	8.951463	13.890191	3.635919	-1.462177	-0.036405	3.148921	0.385254	-0.631836	-0.577881	-0.191911	-0.086466	-0.032971	0.025778	0.655606	-0.327187	-0.680048	98.755390	61.023461	-106.677773
31845		-17.421539	-5.831530	-3.455619	7.937477	11.447427	2.652310	-1.425094	-0.020021	3.233761	0.367920	-0.647705	-0.582275	-0.173236	-0.061366	-0.034144	0.041318	0.649802	-0.333318	-0.681872	97.474987	59.161869	-107.260361
31846		-17.484122	-1.197071	-3.071560	6.029159	8.482390	4.617426	-1.012277	-0.074040	3.363583	0.345703	-0.652588	-0.595459	-0.174594	-0.015064	-0.030709	0.056033	0.643614	-0.340809	-0.682986	96.449674	57.242268	-107.781454
31847		-17.093732	-1.542279	-4.792263	7.903753	8.300051	3.830935	-1.273971	-0.319040	3.214148	0.330566	-0.666016	-0.617432	-0.170580	-0.018472	-0.048084	0.070422	0.636466	-0.347190	-0.685136	95.180360	55.409547	-108.475359
31848		-14.997257	-2.775514	-6.688744	9.904953	7.748375	1.104659	-1.051386	-0.234401	3.235022	0.308350	-0.675293	-0.613037	-0.149415	-0.030527	-0.066907	0.084522	0.629562	-0.353963	-0.686453	94.178421	53.561420	-108.963290
31849		-11.967009	0.349915	-5.104912	6.981788	4.670995	0.127885	-0.503269	-0.016571	3.129873	0.288330	-0.677979	-0.632813	-0.119700	0.001498	-0.051064	0.096625	0.623580	-0.362354	-0.685938	93.733857	51.762293	-109.207646
31850		-7.743276	2.907806	-3.825649	4.236590	1.101777	-1.820093	-0.591539	0.150186	2.702953	0.277344	-0.684814	-0.630615	-0.077844	0.027915	-0.038282	0.108092	0.618829	-0.368692	-0.685152	93.382351	50.199566	-109.220941
31851		-3.331537	9.260056	-2.971731	0.684815	-5.536298	-1.178215	-1.171076	0.150310	2.153281	0.266113	-0.684814	-0.650391	-0.034331	0.092059	-0.030232	0.119163	0.614626	-0.371510	-0.685577	92.755619	48.956017	-109.211536
31852		-5.513614	-3.239929	-4.203787	6.040125	4.203513	-7.711807	-2.403513	-0.060258	0.989726	0.270508	-0.680176	-0.672363	-0.054961	-0.033174	-0.041659	0.129909	0.611072	-0.366363	-0.689560	91.316665	48.378906	-109.290969
31853		-7.563624	-12.121780	-4.721999	9.250960	11.630866	-12.174921	-1.982309	0.016353	0.139377	0.277344	-0.679932	-0.692139	-0.075555	-0.121731	-0.046009	0.136284	0.609512	-0.360188	-0.692955	90.213625	48.292721	-109.294847
31854		-3.245345	-15.621011	0.910237	3.647842	13.384317	-17.745155	-1.666243	-0.151119	-0.494329	0.290771	-0.675049	-0.711914	-0.032847	-0.156046	0.010378	0.139461	0.608697	-0.353043	-0.696706	89.160463	48.563939	-109.423605
31855		-0.874442	-11.836418	2.216363	0.846642	9.726650	-16.915585	-0.938955	-0.129795	-0.883707	0.299561	-0.672852	-0.714111	-0.009282	-0.118218	0.022713	0.138759	0.609137	-0.347376	-0.699305	88.551150	49.072780	-109.566790
31856		0.825145	-8.283144	1.316291	0.485441	5.906213	-15.804691	0.110319	0.066050	-1.221028	0.308105	-0.663574	-0.714111	0.007750	-0.082887	0.013115	0.134355	0.611533	-0.344036	-0.699725	88.639824	49.761646	-109.530486
31857		-0.546152	-7.637529	-0.020028	1.962789	5.903598	-14.276308	0.851078	0.256651	-1.616886	0.332764	-0.658691	-0.709473	-0.006079	-0.076326	-0.000518	0.126230	0.615753	-0.342090	-0.698490	89.308410	50.699115	-109.346297
31858		-2.474320	-5.491901	-0.329830	2.208523	5.408226	-11.317327	1.184869	0.324999	-2.056949	0.345703	-0.649658	-0.696533	-0.025312	-0.054640	-0.003582	0.116035	0.621090	-0.339712	-0.696691	90.214817	51.866952	-109.052088
31859		-3.479374	-2.988126	-0.006056	1.493674	4.231164	-8.863965	1.024850	0.273181	-2.453610	0.372314	-0.640381	-0.691895	-0.035157	-0.029451	-0.000164	0.104422	0.626747	-0.335676	-0.695418	91.052314	53.282988	-108.789674
31860		-3.702805	-1.868543	-0.194482	1.403955	3.410772	-7.906276	0.723234	0.207964	-2.839874	0.403320	-0.626465	-0.683105	-0.037290	-0.018150	-0.001972	0.092708	0.632528	-0.329195	-0.694942	91.686238	54.895306	-108.516184
31861		-4.043970	-1.316062	-0.524738	1.594983	2.993454	-7.194542	0.437052	0.201958	-3.240417	0.429688	-0.610596	-0.680908	-0.040651	-0.012492	-0.005234	0.080042	0.638692	-0.320507	-0.694939	92.227622	56.761551	-108.214579
31862		-4.748080	-1.416042	-0.838475	1.997713	3.237825	-6.530105	0.216843	0.227647	-3.620777	0.455566	-0.587891	-0.681152	-0.047736	-0.013289	-0.008345	0.067208	0.645251	-0.309605	-0.695183	92.701909	58.817092	-107.798613
31863		-5.394714	-1.331592	-0.669221	1.855945	3.419839	-5.790247	0.055474	0.237439	-3.962248	0.488525	-0.564941	-0.683350	-0.054205	-0.012242	-0.006631	0.053268	0.652131	-0.297026	-0.695459	93.202032	61.094294	-107.304075
31864		-6.096808	-1.150586	-0.138016	1.322346	3.614279	-4.944776	-0.064821	0.230431	-4.241388	0.514160	-0.535645	-0.685547	-0.061195	-0.010210	-0.001306	0.039149	0.659054	-0.282896	-0.695762	93.696339	63.500639	-106.701771
31865		-7.179004	-1.181665	0.372320	0.889916	4.059908	-3.830261	-0.133968	0.249343	-4.460207	0.546875	-0.506104	-0.683350	-0.072025	-0.010210	0.003820	0.024087	0.666093	-0.267717	-0.695749	94.339721	66.060003	-105.945837
31866		-8.431852	-1.040261	0.640282	0.600885	4.242245	-2.449433	-0.033047	0.308211	-4.642881	0.574707	-0.474609	-0.674805	-0.084520	-0.008441	0.006534	0.008539	0.673187	-0.252085	-0.695126	95.280642	68.684643	-104.904156
31867		-9.949316	-0.411512	1.465638	-0.408450	4.145783	-0.651191	0.114466	0.350123	-4.796641	0.600342	-0.440918	-0.679199	-0.099528	-0.001737	0.014829	-0.008394	0.680331	-0.236296	-0.693717	96.735711	71.420347	-103.458985
31868		-11.473140	0.313452	2.060127	-1.302616	3.730344	1.157134	0.210448	0.337831	-4.895196	0.625977	-0.407227	-0.670654	-0.114574	0.005918	0.020800	-0.025601	0.687067	-0.220374	-0.691895	98.693762	74.162626	-101.534040
31869		-12.813611	1.104107	2.514654	-2.167979	2.993761	2.758510	0.247134	0.296303	-4.957842	0.647217	-0.375732	-0.672852	-0.127773	0.014180	0.025352	-0.043555	0.693391	-0.204138	-0.689667	101.482043	76.956541	-98.825019
31870		-13.963748	1.563185	2.219483	-2.275754	2.128263	4.065601	0.221025	0.272081	-4.980400	0.663818	-0.337646	-0.659912	-0.139161	0.019077	0.022404	-0.061119	0.699147	-0.187689	-0.687191	105.570691	79.684713	-94.778601
31871		-14.336359	1.820930	1.538459	-2.015264	1.070592	4.538719	0.400022	0.334458	-5.023148	0.687012	-0.303955	-0.662354	-0.142821	0.021770	0.015665	-0.079715	0.704737	-0.171477	-0.683804	113.104480	82.367969	-87.403754
31872		-14.623680	0.993295	0.970615	-1.506793	1.023369	4.761870	0.834448	0.420324	-5.061067	0.710449	-0.268066	-0.649170	-0.145903	0.013587	0.010065	-0.099489	0.709949	-0.156668	-0.679359	128.592600	84.743651	-72.300864
31873		-15.376457	0.447798	0.384867	-1.129596	0.704843	5.515743	1.517055	0.478295	-5.072158	0.720215	-0.232422	-0.640625	-0.153576	0.008343	0.004270	-0.121941	0.714602	-0.143894	-0.673624	162.661075	86.232437	-39.019874
31874		-16.634223	1.009248	-0.364385	-1.091872	-0.757821	6.801192	2.217691	0.504142	-5.059467	0.732178	-0.196777	-0.623291	-0.166024	0.014332	-0.003082	-0.146414	0.718319	-0.133600	-0.666883	-154.583251	85.703821	2.560438
31875		-18.062227	2.555610	-1.455744	-1.262021	-3.394850	8.123278	2.726776	0.474249	-5.017024	0.744629	-0.167969	-0.608154	-0.179936	0.030267	-0.013739	-0.172774	0.721006	-0.124816	-0.659333	-129.964602	83.666392	25.702878
