// General information: 
//  MT Manager version: 2019.2.0 
//  XDA version: 2019.2.0 build 3853 rev 94535 built on 2019-09-09
// Device information: 
//  DeviceId: 00B40AC7
//  ProductCode: MTW2-3A7G6
//  Firmware Version: 4.3.5
//  Hardware Version: 1.1.0
// Device settings: 
//  Filter Profile: human(46.1)
//  Option Flags: Orientation Smoother Disabled, AHS Disabled, ICC Disabled
// Coordinate system: ENU
PacketCounter	SampleTimeFine	Acc_X	Acc_Y	Acc_Z	FreeAcc_E	FreeAcc_N	FreeAcc_U	Gyr_X	Gyr_Y	Gyr_Z	Mag_X	Mag_Y	Mag_Z	VelInc_X	VelInc_Y	VelInc_Z	Quat_q0	Quat_q1	Quat_q2	Quat_q3	Roll	Pitch	Yaw
42208		10.245557	2.450182	0.325754	0.637540	0.066853	0.707269	0.014834	0.122785	-0.747756	-0.576660	-0.675049	0.036621	0.102548	0.024118	0.003196	-0.474345	-0.637630	0.294614	-0.530686	87.401617	-72.991180	25.894426
42209		10.247418	2.010006	-0.002183	0.966037	0.578887	0.569063	0.002767	0.138417	-0.815495	-0.565186	-0.679199	0.034668	0.102555	0.019682	-0.000093	-0.476784	-0.638460	0.291668	-0.529128	87.215474	-72.511748	26.082422
42210		10.553055	2.114928	-0.127462	0.983547	0.744626	0.879997	-0.023743	0.158666	-0.897886	-0.551514	-0.690186	0.037109	0.105623	0.020675	-0.001361	-0.479443	-0.639303	0.288481	-0.527451	87.007074	-71.993714	26.289397
42211		10.832306	2.009482	-0.238094	1.196033	0.982955	1.097668	-0.063300	0.192349	-0.982226	-0.540039	-0.698975	0.032959	0.108418	0.019562	-0.002491	-0.482543	-0.640072	0.284982	-0.525590	86.728427	-71.417082	26.546096
42212		11.169127	2.675326	-0.220456	0.815131	0.836740	1.614884	-0.125383	0.238709	-1.098875	-0.526611	-0.703125	0.028809	0.111833	0.026138	-0.002355	-0.486146	-0.640715	0.281213	-0.523513	86.375954	-70.780748	26.845182
42213		11.320044	2.519466	-0.317731	1.066362	1.090519	1.687917	-0.197139	0.290462	-1.215194	-0.501709	-0.716309	0.020264	0.113346	0.024503	-0.003366	-0.490391	-0.641190	0.277065	-0.521179	85.925797	-70.066540	27.204493
42214		11.309455	1.940492	-0.339206	1.673027	1.413582	1.456077	-0.219424	0.343257	-1.312261	-0.492676	-0.722900	0.022705	0.113213	0.018658	-0.003607	-0.494960	-0.641577	0.272580	-0.518742	85.430500	-69.302372	27.601058
42215		11.607163	2.111458	-0.057051	1.856952	1.246527	1.771055	-0.246303	0.391959	-1.415488	-0.472412	-0.729492	0.014160	0.116216	0.020291	-0.000824	-0.499973	-0.641880	0.267644	-0.516124	84.886326	-68.467355	28.034556
42216		11.894265	2.596855	0.553650	1.912910	0.681615	2.203828	-0.267360	0.461009	-1.551514	-0.454102	-0.742432	0.010010	0.119152	0.025052	0.005228	-0.505417	-0.642094	0.262191	-0.513347	84.296077	-67.557879	28.508397
42217		12.224312	2.433590	0.866376	2.441374	0.649710	2.423339	-0.275108	0.528331	-1.674611	-0.427246	-0.742432	0.010010	0.122463	0.023323	0.008308	-0.511299	-0.642229	0.256122	-0.510409	83.664599	-66.564468	29.024357
42218		12.504973	2.083626	0.912411	3.021923	0.933588	2.497466	-0.277207	0.589312	-1.808276	-0.411621	-0.748779	0.008057	0.125257	0.019717	0.008727	-0.517517	-0.642320	0.249504	-0.507296	83.027691	-65.496708	29.550078
42219		13.099724	1.881003	0.415449	3.395398	1.749544	2.864764	-0.268858	0.672796	-1.930814	-0.390869	-0.766357	0.006348	0.131184	0.017549	0.003689	-0.524115	-0.642306	0.242181	-0.504078	82.357275	-64.343495	30.121554
42220		13.566505	1.050827	0.043179	4.315699	2.654856	2.815662	-0.266452	0.756880	-2.056190	-0.366211	-0.770752	-0.006592	0.135764	0.009113	-0.000095	-0.531020	-0.642169	0.234250	-0.500764	81.671930	-63.117051	30.718141
42221		14.758071	0.702400	0.355973	5.406202	2.969190	3.617405	-0.272219	0.871897	-2.209582	-0.343506	-0.781494	0.000244	0.147660	0.005397	0.002908	-0.538431	-0.641816	0.225461	-0.497324	80.936632	-61.784072	31.372890
42222		16.782887	0.338930	0.279503	6.736905	3.913011	5.058251	-0.194163	1.056360	-2.383571	-0.312256	-0.785645	-0.012695	0.167865	0.001391	0.001906	-0.546108	-0.641317	0.215432	-0.494032	80.156684	-60.338041	32.139593
42223		17.429639	-0.000560	-0.672385	7.177809	5.370868	5.149135	-0.052390	1.226862	-2.613136	-0.291748	-0.800781	-0.007813	0.174231	-0.002284	-0.007792	-0.554009	-0.640901	0.203774	-0.490709	79.402851	-58.735184	32.980611
42224		17.492349	0.251854	0.043779	7.590890	5.010437	5.130368	-0.102500	1.336504	-2.942982	-0.264893	-0.802979	-0.005371	0.174933	-0.000056	-0.000732	-0.562830	-0.640271	0.190867	-0.486667	78.663771	-56.934647	33.786962
42225		19.624809	-0.950829	0.580814	10.074983	5.927256	5.989098	-0.197172	1.483368	-3.235410	-0.237793	-0.811523	-0.007324	0.196096	-0.012677	0.004365	-0.572666	-0.639100	0.176761	-0.482037	77.878311	-54.943880	34.599970
42226		20.568396	-2.120686	0.793137	11.894269	6.827843	5.680555	-0.186681	1.630621	-3.468370	-0.206299	-0.820313	-0.018066	0.205331	-0.024763	0.006278	-0.582941	-0.637602	0.161428	-0.477058	77.115705	-52.802106	35.414425
42227		22.021823	-1.237780	0.937943	12.408090	7.478896	6.842952	-0.283025	1.748071	-3.715180	-0.175049	-0.828613	-0.011230	0.220009	-0.016455	0.007477	-0.593988	-0.635476	0.145123	-0.471473	76.339859	-50.499836	36.197965
42228		22.560979	-1.749079	-0.478467	12.892229	9.612398	6.112211	-0.542689	1.813546	-3.813812	-0.143555	-0.830811	-0.019775	0.225166	-0.021804	-0.006773	-0.605868	-0.632232	0.128868	-0.465403	75.479578	-48.128106	36.925266
42229		22.587996	-2.838758	-2.518203	13.221091	12.185099	4.374098	-0.675206	1.761853	-3.828152	-0.123535	-0.833008	-0.024170	0.225048	-0.032790	-0.027061	-0.617893	-0.628414	0.112985	-0.458845	74.654378	-45.751048	37.525996
42230		22.003874	-0.957473	-2.989317	11.736993	12.414358	4.402795	-0.323812	1.691452	-3.749054	-0.094482	-0.832764	-0.026367	0.219544	-0.013744	-0.031731	-0.628319	-0.625537	0.096702	-0.452291	74.122520	-43.422147	38.022529
42231		22.175543	0.976761	-3.022203	10.852610	12.596813	5.198071	0.620977	1.615981	-3.593126	-0.076172	-0.850098	-0.012451	0.221631	0.005882	-0.031991	-0.635132	-0.625455	0.079000	-0.446288	74.180527	-41.194492	38.466188
42232		19.491893	-1.574971	-4.048415	10.773198	13.066621	0.768778	1.378307	1.421695	-3.356070	-0.051758	-0.847412	0.002930	0.194326	-0.018728	-0.041989	-0.638736	-0.627886	0.060903	-0.440530	74.746399	-39.124417	38.816964
42233		15.204347	-2.323080	-2.513070	9.537679	10.055843	-2.686918	1.078797	1.197659	-3.065996	-0.033691	-0.855957	0.007813	0.151510	-0.025417	-0.026172	-0.642333	-0.629547	0.045125	-0.434791	75.203292	-37.258603	39.079710
42234		9.626987	-1.314541	-2.581954	5.527016	7.292097	-5.648045	0.376370	0.983544	-2.746427	-0.022705	-0.855957	0.010010	0.095949	-0.014415	-0.026318	-0.647256	-0.629189	0.032502	-0.429097	75.315797	-35.594123	39.257340
42235		6.899459	0.683849	0.101918	4.024254	3.402881	-5.306749	-0.420611	1.011429	-2.469428	-0.011230	-0.862549	-0.000977	0.069076	0.005988	0.000657	-0.653937	-0.626022	0.022431	-0.424217	74.939864	-34.088682	39.495979
42236		3.134980	8.888696	-2.012646	-4.129006	2.162449	-1.377153	-1.067599	0.530302	-2.227757	-0.002441	-0.860352	-0.007568	0.032282	0.088421	-0.020684	-0.661997	-0.621627	0.015990	-0.418431	74.361201	-32.778100	39.440222
42237		9.038484	10.152758	-2.399126	-1.058703	5.752223	2.689529	-2.073495	0.060717	-2.332650	0.008789	-0.860596	-0.031738	0.091551	0.100208	-0.025062	-0.673199	-0.614773	0.012950	-0.410719	73.387947	-31.495586	39.039741
42238		12.786086	-0.562961	-5.093280	6.409177	11.193733	-4.980038	-3.240507	-0.011348	-1.505759	0.011230	-0.863281	-0.064941	0.127812	-0.007416	-0.050815	-0.686130	-0.603909	0.015015	-0.405333	71.694341	-30.675359	38.728367
42239		5.096427	-7.233501	-5.389928	5.151547	7.601154	-14.611170	-3.328460	0.149764	0.117601	0.000244	-0.863770	-0.100342	0.050967	-0.073189	-0.052724	-0.695803	-0.592130	0.021684	-0.405919	69.729729	-30.723095	38.846292
42240		0.994395	-8.232656	-2.726561	4.391943	3.019109	-16.725778	-2.566883	0.083500	1.048977	-0.022217	-0.857422	-0.118408	0.010366	-0.082614	-0.026211	-0.701203	-0.582881	0.029711	-0.409491	68.105589	-31.267545	39.148719
42241		1.291527	-4.277589	-1.091892	3.021801	1.661952	-12.856353	-1.822872	-0.048130	1.279673	-0.044189	-0.864502	-0.138184	0.013192	-0.042789	-0.010526	-0.703785	-0.576400	0.037434	-0.413579	66.908028	-31.969343	39.446009
42242		2.763319	-1.206541	-0.362932	2.411259	1.797339	-9.390045	-1.564993	-0.209402	1.413399	-0.060059	-0.860352	-0.151611	0.027721	-0.011897	-0.003507	-0.705281	-0.571050	0.045482	-0.417627	65.878793	-32.760383	39.697961
42243		3.210545	-0.760803	-0.144610	2.498410	1.839770	-8.681206	-1.502464	-0.442468	1.625362	-0.086670	-0.858643	-0.167236	0.032169	-0.007357	-0.001319	-0.705970	-0.566308	0.054916	-0.421766	64.918598	-33.727047	39.883827
42244		3.428657	-1.022537	-0.372494	2.705340	2.131903	-8.775530	-1.229384	-0.649096	1.903561	-0.111328	-0.856689	-0.178467	0.034394	-0.009921	-0.003552	-0.705196	-0.562796	0.065190	-0.426274	64.126538	-34.872618	40.043498
42245		3.826843	-1.655986	-0.352866	3.376440	2.305988	-8.922334	-0.732443	-0.814630	2.257544	-0.135742	-0.852539	-0.191895	0.038466	-0.016139	-0.003313	-0.702097	-0.561200	0.076122	-0.431647	63.602725	-36.254408	40.216772
42246		4.281678	-1.770758	-0.209228	3.765912	2.406182	-8.572157	-0.102148	-0.967611	2.628752	-0.164795	-0.850586	-0.187500	0.043054	-0.017144	-0.001876	-0.696259	-0.561895	0.087111	-0.438073	63.415029	-37.850756	40.434985
42247		4.454548	-1.130164	0.131368	3.496588	2.172380	-7.765630	0.465845	-1.119792	2.990038	-0.200684	-0.846436	-0.181152	0.044700	-0.010638	0.001538	-0.687792	-0.564620	0.098535	-0.445463	63.532016	-39.685805	40.668081
42248		4.763486	-0.700239	0.113085	3.287948	2.293860	-7.144510	0.910701	-1.272276	3.323243	-0.243408	-0.837646	-0.170410	0.047734	-0.006216	0.001405	-0.677063	-0.568874	0.110249	-0.453667	63.894312	-41.716830	40.916286
42249		5.365223	-0.042305	-0.114397	2.956649	2.685237	-6.228762	1.351636	-1.406573	3.643388	-0.283691	-0.831299	-0.157471	0.053654	0.000560	-0.000765	-0.663999	-0.574529	0.122444	-0.462633	64.502484	-43.963323	41.154014
42250		5.765565	0.472870	-0.284149	2.587159	2.881641	-5.506474	1.724834	-1.500191	3.989454	-0.326416	-0.822510	-0.133545	0.057565	0.005899	-0.002362	-0.648708	-0.581151	0.134864	-0.472496	65.302358	-46.398856	41.423026
42251		6.197377	0.609420	-0.404304	2.491569	3.037847	-4.965160	1.992258	-1.554680	4.331829	-0.371338	-0.809326	-0.111816	0.061850	0.007471	-0.003492	-0.631351	-0.588207	0.147856	-0.483266	66.220182	-49.044600	41.728295
42252		6.788790	0.815095	-0.466475	2.392527	3.155615	-4.220065	2.178153	-1.574330	4.626632	-0.414307	-0.793945	-0.088135	0.067708	0.009765	-0.004031	-0.612363	-0.595276	0.161117	-0.494672	67.206962	-51.837020	42.070347
42253		7.673206	1.177734	-0.314089	2.320623	3.104901	-3.080377	2.225344	-1.582094	4.864514	-0.459473	-0.776367	-0.066650	0.076436	0.013668	-0.002390	-0.592105	-0.601871	0.174985	-0.506500	68.192160	-54.777158	42.434587
42254		8.820082	1.736753	-0.116086	2.135547	2.971932	-1.602286	2.140251	-1.583122	5.059662	-0.509521	-0.745605	-0.043213	0.087728	0.019597	-0.000263	-0.571210	-0.607563	0.189405	-0.518375	69.107649	-57.808261	42.811195
42255		10.000764	2.621759	0.061844	1.579445	2.649378	0.053990	1.881773	-1.595101	5.191137	-0.548340	-0.719238	-0.019531	0.099272	0.028788	0.001675	-0.550195	-0.611918	0.204887	-0.529965	69.875957	-60.932267	43.173861
42256		10.891301	3.332008	0.108575	0.902927	2.269014	1.311008	1.466663	-1.596804	5.282355	-0.591797	-0.684326	-0.009521	0.107968	0.036167	0.002209	-0.529836	-0.614541	0.221468	-0.540892	70.399263	-64.090472	43.533970
42257		11.615063	3.804660	0.145419	0.279123	1.829982	2.267880	1.014900	-1.625918	5.316725	-0.630615	-0.653564	0.013916	0.115067	0.041104	0.002596	-0.510222	-0.615503	0.239391	-0.550929	70.683536	-67.291464	43.862428
42258		12.241159	4.073228	0.350610	-0.189870	1.223745	3.031872	0.592049	-1.695506	5.324317	-0.667480	-0.614258	0.025879	0.121234	0.043958	0.004664	-0.491487	-0.615086	0.258372	-0.559780	70.798409	-70.492611	44.105409
42259		12.815096	4.227601	0.779312	-0.533922	0.393030	3.686160	0.233369	-1.781932	5.331123	-0.702148	-0.581299	0.042725	0.126887	0.045660	0.008979	-0.473241	-0.613520	0.278499	-0.567516	70.814192	-73.731450	44.231575
42260		13.430328	4.567789	1.388494	-1.005712	-0.713285	4.385627	-0.086635	-1.876802	5.326666	-0.734863	-0.533203	0.054688	0.132885	0.049236	0.015116	-0.455574	-0.610997	0.299409	-0.574012	70.822222	-76.968110	44.174389
42261		14.176150	5.316750	1.914939	-1.923666	-1.949551	5.198468	-0.434456	-1.972058	5.298143	-0.769287	-0.495850	0.062500	0.140089	0.056937	0.020415	-0.438445	-0.607489	0.321316	-0.579205	70.946778	-80.224562	43.795739
42262		14.819366	6.043063	2.274063	-2.975829	-3.089176	5.770492	-0.726887	-2.073503	5.253854	-0.792969	-0.452148	0.072266	0.146292	0.064376	0.024035	-0.421913	-0.603231	0.343788	-0.583020	71.663475	-83.457742	42.653680
42263		15.145133	6.951090	2.558756	-4.305995	-4.295383	5.909057	-0.767776	-2.130373	5.201441	-0.814453	-0.410156	0.088867	0.149292	0.073514	0.026908	-0.405120	-0.598633	0.366164	-0.586037	74.851615	-86.682128	39.015824
42264		15.203512	8.679466	2.837049	-6.408319	-5.834134	5.658104	-0.482717	-2.088862	5.117933	-0.831543	-0.366211	0.101074	0.149441	0.090712	0.029725	-0.387571	-0.594193	0.386981	-0.589041	140.257039	-89.579845	-26.675006
42265		15.304257	11.493751	2.828390	-9.590810	-7.524899	5.208343	-0.055996	-1.968723	4.934386	-0.850586	-0.322510	0.113037	0.149857	0.118669	0.029737	-0.369150	-0.590118	0.405565	-0.592457	-119.553807	-87.042940	-126.904518
42266		15.733226	13.983865	2.448286	-12.566967	-8.738941	4.839546	0.324955	-1.785580	4.611644	-0.863281	-0.276123	0.125244	0.153825	0.143371	0.026098	-0.350778	-0.586491	0.421374	-0.596177	-115.327395	-84.223683	-130.952897
42267		15.666595	16.147087	1.944432	-15.180271	-9.657768	3.831181	0.518212	-1.588952	4.118248	-0.873291	-0.243164	0.139893	0.153135	0.164595	0.021094	-0.333455	-0.583310	0.434652	-0.599696	-113.796949	-81.686060	-132.193047
42268		14.692824	19.217052	2.153827	-18.103681	-11.407483	1.670854	0.414443	-1.420981	3.444174	-0.876221	-0.218994	0.152344	0.143431	0.194614	0.022967	-0.318753	-0.580689	0.445740	-0.602090	-113.310721	-79.550803	-132.442756
42269		12.442911	22.098747	2.973913	-20.292742	-13.276539	-1.817766	-0.079842	-1.278184	2.680645	-0.881592	-0.194580	0.162842	0.121259	0.222639	0.030432	-0.307959	-0.578376	0.455792	-0.602409	-113.661872	-77.841306	-132.129064
42270		10.250977	23.870876	4.004960	-21.289514	-14.645022	-4.996393	-0.574327	-1.135303	1.875781	-0.886475	-0.177002	0.171387	0.100037	0.239770	0.039935	-0.301343	-0.576614	0.464659	-0.600667	-114.671870	-76.593464	-131.428492
42271		9.170005	24.303793	4.474986	-21.449185	-14.981624	-6.609441	-0.907636	-0.954083	1.122521	-0.879883	-0.174805	0.173340	0.090122	0.243748	0.044077	-0.298320	-0.575501	0.472054	-0.597468	-116.089419	-75.774022	-130.502241
42272		8.707393	23.215353	4.397578	-20.551499	-14.284017	-7.036257	-0.962998	-0.726253	0.439168	-0.882324	-0.170410	0.182129	0.086406	0.232553	0.043171	-0.298039	-0.575200	0.477262	-0.593750	-117.645071	-75.360454	-129.463237
42273		11.782244	21.228582	4.191226	-19.431933	-13.843002	-3.663704	-0.932853	-0.570688	-0.004400	-0.879883	-0.174805	0.180176	0.117709	0.212477	0.041257	-0.299361	-0.575539	0.480848	-0.589850	-119.292909	-75.207645	-128.310437
42274		12.090741	15.034829	7.227514	-12.747229	-14.358827	-2.342736	-0.714298	-0.016797	-0.351666	-0.884033	-0.183594	0.177979	0.121166	0.150392	0.071748	-0.302390	-0.575374	0.481958	-0.587555	-120.117514	-75.376778	-127.878615
42275		15.644154	17.821440	14.843526	-12.933471	-22.868865	-0.200693	-0.447674	1.093337	-1.525985	-0.881348	-0.203369	0.167480	0.158604	0.177340	0.147175	-0.310801	-0.575177	0.477171	-0.587266	-119.975757	-76.452235	-128.287665
42276		20.154315	-24.411498	-4.345481	17.733564	9.289361	15.090338	1.642830	1.753223	-1.518570	-0.883545	-0.199219	0.158447	0.199281	-0.245256	-0.047220	-0.314667	-0.576162	0.465202	-0.593810	-116.999633	-77.695197	-130.372854
42277		22.873644	-21.136908	-3.588782	14.386149	8.007778	16.863243	4.744612	1.634276	-0.576329	-0.881104	-0.205811	0.158691	0.227797	-0.211066	-0.042762	-0.306433	-0.579967	0.446694	-0.608442	-110.887404	-78.383158	-133.839733
42278		25.858082	23.712082	11.141720	-19.580633	-23.511157	10.651261	2.435654	1.672369	-2.038247	-0.884766	-0.232178	0.148438	0.261906	0.233100	0.112092	-0.309237	-0.583084	0.430734	-0.615511	-106.746164	-79.797192	-136.633296
42279		23.563510	16.921239	8.261081	-14.050130	-17.306802	10.504217	-1.305017	0.945883	-3.665396	-0.865967	-0.267334	0.144775	0.239073	0.165381	0.080398	-0.326326	-0.585966	0.422463	-0.609656	-108.215224	-81.970623	-135.900643
42280		11.732960	-1.637724	1.291443	1.028902	-1.494637	1.964662	0.029811	0.212855	-3.426945	-0.853760	-0.295654	0.141113	0.117040	-0.018386	0.012787	-0.337066	-0.592533	0.411917	-0.604661	-112.827141	-83.852956	-131.234313
42281		2.294388	-1.974733	1.141339	2.143225	-0.317581	-7.410374	1.389408	0.125327	-3.193993	-0.842041	-0.319824	0.146240	0.022631	-0.020189	0.011260	-0.342856	-0.601018	0.397915	-0.602405	-120.171326	-85.536120	-123.057734
42282		4.662228	3.894307	0.827359	-3.223020	-2.766650	-5.392178	1.174320	0.453733	-3.138208	-0.838867	-0.346191	0.144775	0.047244	0.038156	0.008392	-0.349613	-0.607837	0.384108	-0.600638	-133.051792	-87.144446	-109.475928
42283		8.553466	6.187844	0.666697	-5.225546	-3.778001	-1.427639	0.744358	0.866579	-2.667395	-0.827148	-0.367920	0.145264	0.086378	0.060706	0.006521	-0.357031	-0.611626	0.372145	-0.599959	-158.709704	-88.452855	-83.372399
42284		10.341264	7.913105	-1.576185	-7.620204	-2.496102	0.567017	0.239073	1.098153	-2.211903	-0.822021	-0.385498	0.139160	0.104191	0.078001	-0.016239	-0.364931	-0.612843	0.362669	-0.599766	139.220667	-88.924588	-21.150607
42285		10.271956	-0.209010	-2.204427	-0.612065	2.066575	0.471616	-0.086782	1.026742	-1.841272	-0.817139	-0.398926	0.124023	0.102579	-0.003045	-0.022570	-0.372607	-0.612946	0.355321	-0.599339	97.226889	-88.217352	20.806843
42286		9.854929	4.728877	2.584931	-2.631754	-4.304937	0.222310	-0.915766	0.800728	-1.749329	-0.803223	-0.414063	0.122314	0.099060	0.046540	0.025239	-0.382038	-0.611930	0.351188	-0.596871	84.778101	-87.218055	32.742200
42287		9.849943	3.712290	2.156252	-1.843259	-3.278291	0.252274	-1.435545	0.602377	-1.894279	-0.795898	-0.434082	0.114014	0.098910	0.036339	0.021002	-0.393159	-0.610705	0.348426	-0.592507	80.489937	-86.086096	36.215876
42288		7.903917	4.005364	-0.295913	-3.221338	-1.147711	-1.633092	-0.939860	0.426883	-1.697165	-0.790771	-0.453857	0.101074	0.079368	0.039366	-0.003314	-0.401762	-0.610536	0.345167	-0.588806	79.090477	-85.086281	37.081687
42289		9.816583	0.539157	0.632451	0.522915	-0.247601	0.021920	-0.196744	0.387346	-1.423173	-0.779297	-0.464844	0.099365	0.098213	0.004699	0.006129	-0.407309	-0.611444	0.340592	-0.586713	78.365637	-84.232137	37.688752
42290		10.227993	0.775751	0.051474	0.193628	0.288814	0.438840	0.199214	0.361946	-1.286024	-0.772217	-0.478027	0.095215	0.102328	0.007099	0.000337	-0.411061	-0.612981	0.335327	-0.585525	78.013606	-83.469064	38.159958
42291		9.357731	3.101662	-0.093506	-1.924374	-0.574792	-0.160677	0.096685	0.312105	-1.222341	-0.767334	-0.490967	0.097656	0.093763	0.030444	-0.001066	-0.414954	-0.614306	0.330630	-0.584059	77.844566	-82.736167	38.378327
42292		9.228020	2.584290	1.801587	-0.544134	-1.986331	-0.281793	0.209300	0.256409	-1.116061	-0.764893	-0.497559	0.097900	0.092445	0.025309	0.017924	-0.417969	-0.615843	0.326049	-0.582865	77.909463	-82.080745	38.436189
42293		9.988222	1.974500	2.005045	0.264860	-1.771767	0.408518	0.368487	0.190533	-1.032502	-0.753662	-0.506348	0.098145	0.100001	0.019192	0.019991	-0.420243	-0.617735	0.321373	-0.581823	78.236561	-81.468755	38.311307
42294		9.939173	1.841466	1.764589	0.364221	-1.448733	0.339136	0.487455	0.091992	-0.959849	-0.753418	-0.510742	0.104980	0.099487	0.017894	0.017644	-0.421652	-0.620042	0.316789	-0.580863	78.899365	-80.919870	37.925586
42295		10.011183	2.994017	1.588321	-0.628764	-1.752265	0.591353	0.397362	0.022353	-0.908671	-0.746338	-0.521729	0.098633	0.100248	0.029453	0.015931	-0.423185	-0.622249	0.312749	-0.579577	79.645577	-80.395525	37.392301
42296		10.156446	2.685797	0.906355	-0.560532	-0.959663	0.673139	0.297284	-0.030081	-0.828126	-0.743652	-0.539063	0.105713	0.101673	0.026424	0.009118	-0.424589	-0.624271	0.309368	-0.578188	80.400202	-79.931762	36.801660
42297		9.854996	3.733755	0.470942	-1.639623	-1.043008	0.555863	0.159857	-0.049308	-0.784545	-0.736816	-0.545654	0.108154	0.098694	0.036947	0.004763	-0.426373	-0.625963	0.306542	-0.576548	81.048236	-79.482352	36.228269
42298		9.690757	3.198326	0.359390	-1.174155	-0.693942	0.307026	0.044574	-0.050965	-0.709767	-0.734375	-0.550049	0.103760	0.097019	0.031638	0.003626	-0.428180	-0.627306	0.304295	-0.574938	81.562638	-79.085293	35.733106
42299		9.645487	2.917684	0.413434	-0.848247	-0.593695	0.219606	-0.025947	-0.045917	-0.610097	-0.731934	-0.556641	0.106201	0.096542	0.028883	0.004153	-0.430036	-0.628310	0.302537	-0.573382	81.939695	-78.732842	35.325836
42300		9.867565	2.866868	0.066993	-0.876196	-0.213546	0.423459	-0.149843	-0.034937	-0.527132	-0.727295	-0.567627	0.106445	0.098751	0.028409	0.000666	-0.431945	-0.628900	0.301381	-0.571907	82.169746	-78.436983	35.005937
42301		9.716451	2.495690	-0.119415	-0.617532	0.125112	0.200054	-0.228973	-0.035898	-0.451609	-0.718018	-0.573975	0.108887	0.097221	0.024736	-0.001205	-0.433992	-0.629189	0.300677	-0.570408	82.308830	-78.173284	34.722023
42302		9.790965	2.720826	0.170622	-0.631910	-0.200744	0.329070	-0.283208	-0.025009	-0.416647	-0.713623	-0.576172	0.100098	0.097966	0.027007	0.001680	-0.436014	-0.629287	0.300224	-0.568995	82.374661	-77.939094	34.491262
42303		9.615750	2.640353	0.045438	-0.613343	-0.050246	0.140068	-0.261524	-0.013141	-0.400613	-0.708984	-0.580811	0.091309	0.096210	0.026211	0.000426	-0.438045	-0.629356	0.299722	-0.567622	82.403380	-77.702748	34.300677
42304		9.516677	2.218069	-0.031260	-0.264243	0.211345	-0.046760	-0.174283	-0.006358	-0.367378	-0.704102	-0.589355	0.095947	0.095207	0.022006	-0.000329	-0.439607	-0.629558	0.299071	-0.566532	82.456317	-77.495059	34.146621
42305		9.858251	2.143739	-0.225697	-0.193713	0.479317	0.265223	-0.154230	0.014015	-0.354005	-0.697266	-0.598145	0.096191	0.098620	0.021261	-0.002280	-0.441203	-0.629710	0.298351	-0.565502	82.454751	-77.283391	34.049766
42306		9.837962	1.607216	-0.036665	0.386991	0.559691	0.132506	-0.127543	0.019839	-0.357621	-0.688232	-0.600342	0.094238	0.098408	0.015896	-0.000387	-0.442626	-0.629922	0.297538	-0.564581	82.460344	-77.079259	33.971476
42307		9.831858	2.390269	0.252637	-0.136212	-0.015039	0.307773	-0.136508	0.023845	-0.402716	-0.681152	-0.609131	0.087646	0.098367	0.023706	0.002498	-0.444312	-0.630151	0.296593	-0.563497	82.458090	-76.839584	33.885611
42308		9.958801	2.209522	0.340995	0.121409	0.023425	0.393219	-0.113949	0.029809	-0.449420	-0.674316	-0.615723	0.087891	0.099638	0.021873	0.003383	-0.445961	-0.630496	0.295428	-0.562419	82.473772	-76.582558	33.804807
42309		9.804839	1.747342	0.623562	0.661995	-0.025561	0.144110	-0.057079	0.044516	-0.474668	-0.665283	-0.622314	0.085938	0.098091	0.017242	0.006209	-0.447623	-0.630944	0.293986	-0.561351	82.487529	-76.300776	33.749116
42310		9.706776	1.804975	0.386038	0.527834	0.176309	0.052329	-0.034972	0.063422	-0.516383	-0.651611	-0.628662	0.090576	0.097115	0.017800	0.003826	-0.449256	-0.631462	0.292309	-0.560339	82.487668	-76.003187	33.730737
42311		9.583290	1.415438	0.249095	0.825918	0.476822	-0.169284	0.015580	0.066561	-0.524532	-0.640381	-0.635254	0.086426	0.095870	0.013903	0.002460	-0.450853	-0.632076	0.290455	-0.559328	82.505906	-75.691828	33.713222
42312		9.756756	1.591335	0.117935	0.693816	0.571695	0.032722	0.037576	0.074005	-0.541613	-0.631348	-0.641602	0.093262	0.097611	0.015649	0.001146	-0.452336	-0.632755	0.288468	-0.558391	82.530197	-75.379115	33.712777
42313		9.707474	2.533164	-0.118358	-0.193120	0.407941	0.210385	0.047457	0.080696	-0.580811	-0.619629	-0.652588	0.084717	0.097147	0.025050	-0.001217	-0.453999	-0.633472	0.286313	-0.557336	82.551122	-75.035181	33.711348
42314		9.862831	2.631458	0.176060	-0.061871	0.159952	0.395213	0.012024	0.104217	-0.644180	-0.615234	-0.654785	0.086914	0.098713	0.025997	0.001711	-0.455884	-0.634145	0.283998	-0.556215	82.525147	-74.661949	33.747810
42315		10.065196	1.905722	0.166887	0.665508	0.546087	0.396438	-0.001929	0.124704	-0.696134	-0.592773	-0.661377	0.087158	0.100718	0.018707	0.001606	-0.458028	-0.634803	0.281456	-0.554994	82.460756	-74.249492	33.815607
42316		10.131163	2.720134	-0.081590	-0.073558	0.480745	0.666299	-0.044950	0.142177	-0.776854	-0.588135	-0.665527	0.089600	0.101416	0.026807	-0.000894	-0.460504	-0.635411	0.278784	-0.553595	82.366626	-73.798019	33.889153
42317		10.462014	2.597052	-0.185387	0.133980	0.731948	0.942699	-0.093939	0.167978	-0.853196	-0.570068	-0.676514	0.085449	0.104728	0.025523	-0.001954	-0.463419	-0.635937	0.275892	-0.552005	82.216182	-73.293350	33.992027
42318		10.504345	2.066683	-0.247422	0.649687	1.078053	0.821620	-0.165951	0.202262	-0.929403	-0.552002	-0.683105	0.081299	0.105135	0.020176	-0.002597	-0.466767	-0.636287	0.272921	-0.550256	81.992745	-72.750469	34.128666
42319		11.120954	2.634786	0.000479	0.507923	0.798550	1.576815	-0.294145	0.246676	-1.039786	-0.540527	-0.693848	0.079346	0.111344	0.025769	-0.000171	-0.470915	-0.636355	0.269793	-0.548182	81.654510	-72.133736	34.308826
42320		11.456704	2.022466	0.241791	1.321529	0.981834	1.706550	-0.366925	0.312070	-1.147047	-0.527100	-0.696045	0.074951	0.114684	0.019571	0.002203	-0.475620	-0.636188	0.266406	-0.545965	81.211934	-71.457743	34.555858
42321		11.452984	0.795372	0.223289	2.468179	1.594927	1.287571	-0.355631	0.389949	-1.244907	-0.508789	-0.707031	0.070801	0.114580	0.007244	0.001996	-0.480678	-0.635945	0.262437	-0.543737	80.696371	-70.711732	34.887655
42322		11.492979	1.917957	0.032169	1.545010	1.435583	1.646707	-0.375799	0.441699	-1.395788	-0.490723	-0.715820	0.064453	0.115060	0.018377	0.000033	-0.486215	-0.635672	0.257949	-0.541275	80.162631	-69.881605	35.228343
42323		11.999877	2.315762	0.430846	1.650929	1.153942	2.249027	-0.425850	0.506327	-1.544100	-0.472412	-0.726563	0.067139	0.120183	0.022239	0.003956	-0.492399	-0.635258	0.252911	-0.538541	79.577400	-68.953853	35.595078
42324		12.538340	2.012568	0.531206	2.255191	1.448086	2.611293	-0.406312	0.623655	-1.702767	-0.445557	-0.730957	0.056152	0.125564	0.019067	0.004881	-0.499024	-0.634722	0.247049	-0.535789	78.923276	-67.929290	36.050575
42325		13.161513	1.313422	0.294501	3.098181	2.241490	2.852557	-0.290672	0.729156	-1.853836	-0.436279	-0.744141	0.054443	0.131739	0.011917	0.002447	-0.505801	-0.634322	0.240073	-0.533072	78.282768	-66.800298	36.566356
42326		13.880995	1.472381	0.361501	3.404860	2.492581	3.497712	-0.232852	0.816879	-2.037919	-0.411377	-0.757080	0.048096	0.138964	0.013312	0.003032	-0.512903	-0.633981	0.232149	-0.530193	77.669550	-65.561383	37.093343
42327		15.311180	0.685499	0.861293	4.967544	2.926645	4.413729	-0.194632	0.922525	-2.224660	-0.395264	-0.770264	0.046387	0.153213	0.005159	0.007901	-0.520459	-0.633592	0.223197	-0.527130	77.057472	-64.197638	37.648508
42328		17.944936	0.864194	1.055784	6.068172	3.687592	6.723394	-0.132313	1.107529	-2.432297	-0.364258	-0.770020	0.046387	0.179592	0.006465	0.009559	-0.528461	-0.633005	0.212937	-0.524111	76.391822	-62.696195	38.310443
42329		19.226150	0.516860	0.443531	6.848159	5.094248	7.427760	-0.009550	1.299439	-2.661319	-0.339111	-0.785156	0.044678	0.192331	0.002610	0.003186	-0.536793	-0.632356	0.201056	-0.521110	75.726359	-61.033769	39.061167
42330		17.806989	-0.839465	0.016657	7.540325	5.899592	5.224081	-0.020166	1.357580	-2.940598	-0.309814	-0.796143	0.038330	0.177916	-0.011011	-0.001040	-0.545795	-0.631657	0.188141	-0.517417	75.147022	-59.208147	39.718591
42331		19.320803	0.114169	0.357826	7.867379	6.191048	6.715197	-0.190359	1.407976	-3.241839	-0.285156	-0.804688	0.036621	0.193212	-0.001988	0.002219	-0.556017	-0.630462	0.174509	-0.512747	74.568501	-57.202958	40.273274
42332		20.592083	-1.298048	0.265756	9.852716	7.632117	6.631620	-0.262407	1.518308	-3.403820	-0.253662	-0.813232	0.032471	0.205673	-0.016480	0.001116	-0.566781	-0.628719	0.160200	-0.507747	73.963017	-55.090596	40.824013
42333		21.453550	-0.669143	-0.467087	9.808826	8.900182	7.082135	-0.273470	1.610760	-3.585140	-0.228760	-0.822021	0.030518	0.214323	-0.010543	-0.006385	-0.577909	-0.626620	0.145027	-0.502330	73.386017	-52.860267	41.346080
42334		21.752137	-0.139322	-1.462779	9.505441	10.254135	6.912999	-0.292502	1.660519	-3.694789	-0.197510	-0.826172	0.024170	0.217314	-0.005432	-0.016427	-0.589174	-0.624174	0.129359	-0.496536	72.848330	-50.558994	41.820455
42335		20.810935	-0.195237	-2.509558	9.024693	11.275647	5.378921	-0.435719	1.623696	-3.710281	-0.181641	-0.832764	0.015381	0.207812	-0.005867	-0.026774	-0.600650	-0.621147	0.114066	-0.490291	72.309104	-48.254799	42.204395
42336		19.084311	-0.829513	-3.123836	8.713759	11.614352	2.985221	-0.587298	1.490350	-3.585536	-0.152344	-0.837158	0.004639	0.190413	-0.011806	-0.032627	-0.611982	-0.617675	0.099874	-0.483716	71.783603	-46.038052	42.465285
42337		18.096419	0.549688	-3.341828	7.448252	11.366317	2.606772	-0.413946	1.258434	-3.416852	-0.130127	-0.839111	0.009277	0.180807	0.002336	-0.034563	-0.622017	-0.614990	0.086485	-0.476868	71.482901	-43.957823	42.558344
42338		15.981776	-0.021042	-3.335195	7.019439	10.726940	0.295578	0.043692	1.046496	-3.215496	-0.109619	-0.854248	0.009521	0.159610	-0.002770	-0.034188	-0.629898	-0.613953	0.073229	-0.470030	71.526519	-42.021239	42.534515
42339		12.823999	-1.814415	-3.936275	6.411883	10.170693	-3.593781	0.622153	0.811258	-2.834348	-0.096191	-0.854248	0.016357	0.127806	-0.019834	-0.039942	-0.634833	-0.615002	0.060546	-0.463782	71.946522	-40.340324	42.442178
42340		9.778896	-2.228426	-1.737202	6.148280	6.940942	-5.614121	1.091163	0.685889	-2.302182	-0.085205	-0.854004	0.020752	0.097464	-0.023311	-0.017832	-0.636954	-0.617538	0.048756	-0.458866	72.598067	-38.965042	42.404580
42341		6.370360	0.146169	-0.183246	3.501530	3.495362	-5.793160	-0.155751	0.674774	-2.033300	-0.078369	-0.856201	0.011963	0.063707	0.000812	-0.002048	-0.642181	-0.615987	0.040737	-0.454428	72.498142	-37.746127	42.426592
42342		5.948858	2.700405	1.125304	2.362043	1.830195	-3.895167	-1.193766	0.640642	-1.882226	-0.069092	-0.865234	-0.000977	0.059775	0.026508	0.010903	-0.650207	-0.611060	0.035595	-0.450076	71.803420	-36.607890	42.448192
42343		3.032107	10.418785	-0.511309	-4.983492	0.627975	-0.181012	-1.996496	0.024310	-1.950233	-0.057861	-0.865479	-0.025391	0.031334	0.103828	-0.006155	-0.660590	-0.604837	0.034104	-0.443431	70.914678	-35.553550	42.019968
42344		7.820765	11.566034	-2.095424	-3.469840	4.754500	3.019550	-2.794804	-0.544978	-2.207945	-0.044678	-0.861328	-0.054199	0.079536	0.114481	-0.022344	-0.673722	-0.597113	0.035420	-0.433935	69.820510	-34.467796	41.140031
42345		7.953520	-2.812800	-6.068186	3.973284	9.589230	-9.319697	-3.853199	-0.278979	-1.057752	-0.046875	-0.855225	-0.100830	0.079465	-0.029709	-0.060009	-0.687289	-0.584848	0.041609	-0.428784	67.868427	-33.968822	40.692144
42346		0.182706	-12.364184	-6.019110	5.494037	5.670270	-21.072597	-2.920296	-0.176948	0.669082	-0.069092	-0.857910	-0.118408	0.002295	-0.124496	-0.058375	-0.694266	-0.575009	0.050433	-0.429903	66.160342	-34.362252	40.758391
42347		1.114598	-9.640859	-1.832813	6.297911	2.434151	-17.020780	-1.033744	-0.321050	1.296174	-0.082275	-0.864746	-0.129395	0.011800	-0.096426	-0.017811	-0.694293	-0.571809	0.057557	-0.433219	65.479479	-35.124875	40.920984
42348		2.909649	-2.351025	0.431550	3.547237	1.259637	-9.713817	-0.567081	-0.433794	1.307315	-0.100342	-0.854004	-0.138672	0.029240	-0.023307	0.004445	-0.692925	-0.570408	0.064031	-0.436336	65.095621	-35.910201	41.026447
42349		3.683049	-0.018050	1.274447	2.765927	0.866799	-7.207431	-0.947297	-0.627962	1.275338	-0.122559	-0.852051	-0.154297	0.036790	0.000115	0.012860	-0.692564	-0.568111	0.071976	-0.438663	64.569478	-36.734959	41.004739
42350		2.848360	0.159432	0.528227	1.810420	1.030617	-7.793387	-0.865941	-0.929388	1.432083	-0.142578	-0.854492	-0.160889	0.028446	0.001821	0.005407	-0.691503	-0.566630	0.081161	-0.440644	64.171893	-37.706087	40.845635
42351		3.003542	-0.684590	-0.417982	2.109753	1.920478	-8.577776	-0.287986	-1.086802	1.734092	-0.158203	-0.850098	-0.163086	0.030115	-0.006591	-0.004007	-0.688003	-0.567329	0.090581	-0.443379	64.112835	-38.882338	40.670535
42352		3.825883	-1.395298	-0.499540	3.052711	2.412189	-8.510669	0.374476	-1.202074	2.138935	-0.191895	-0.845947	-0.158936	0.038434	-0.013533	-0.004790	-0.681588	-0.570290	0.099949	-0.447457	64.403848	-40.286376	40.554237
42353		4.445108	-1.116642	-0.114946	3.318965	2.342966	-7.688360	0.891707	-1.323167	2.478659	-0.216309	-0.845947	-0.150146	0.044591	-0.010610	-0.000903	-0.672745	-0.575019	0.109641	-0.452488	64.989043	-41.905210	40.436736
42354		4.660769	-0.574255	0.058847	3.052164	2.211687	-7.011428	1.371390	-1.443892	2.765457	-0.247803	-0.837402	-0.137207	0.046676	-0.005103	0.000889	-0.661642	-0.581320	0.119332	-0.458320	65.865136	-43.691191	40.307303
42355		5.003455	-0.280450	-0.162171	2.865856	2.471236	-6.523778	1.778179	-1.548578	3.038019	-0.283936	-0.824219	-0.117920	0.050080	-0.002032	-0.001254	-0.648444	-0.588856	0.129313	-0.464809	67.006298	-45.652645	40.128404
42356		5.727384	-0.062708	-0.395877	2.902239	2.886076	-5.786877	2.000242	-1.610071	3.336361	-0.321777	-0.830811	-0.095703	0.057303	0.000365	-0.003497	-0.633602	-0.596815	0.139680	-0.472070	68.290500	-47.772319	39.942035
42357		6.468712	0.353511	-0.301343	2.873911	2.928510	-4.790883	2.035470	-1.665115	3.632524	-0.353271	-0.819824	-0.082764	0.064630	0.004736	-0.002431	-0.617607	-0.604527	0.151081	-0.479879	69.627910	-50.068929	39.709761
42358		7.036955	0.491289	-0.190328	2.931537	2.871811	-4.072727	2.019719	-1.704767	3.926465	-0.396240	-0.802246	-0.054688	0.070267	0.006308	-0.001245	-0.600605	-0.611738	0.163326	-0.488236	70.991366	-52.516996	39.448741
42359		7.916381	0.380974	-0.079690	3.281322	2.939123	-3.224511	1.983083	-1.694835	4.199018	-0.434814	-0.782471	-0.033203	0.079063	0.005474	-0.000078	-0.582693	-0.618228	0.176496	-0.497103	72.361713	-55.118072	39.153190
42360		9.145401	0.539204	0.190202	3.569977	2.860792	-1.874129	1.892124	-1.662358	4.434032	-0.473389	-0.767090	-0.013672	0.091284	0.007394	0.002725	-0.564153	-0.623777	0.190284	-0.506385	73.706983	-57.826684	38.843030
42361		10.208783	1.016661	0.404368	3.417948	2.588297	-0.484576	1.708762	-1.619192	4.625027	-0.514404	-0.738525	0.009766	0.101779	0.012483	0.004969	-0.545351	-0.628093	0.205016	-0.515810	74.995093	-60.640987	38.477518
42362		10.996965	1.689129	0.494799	2.859959	2.180051	0.726435	1.442741	-1.616254	4.747087	-0.557617	-0.712402	0.022217	0.109483	0.019453	0.005968	-0.526719	-0.631134	0.220538	-0.524976	76.245456	-63.506328	38.000923
42363		11.700307	2.412071	0.677380	2.189800	1.551951	1.846608	1.102958	-1.624445	4.829643	-0.596436	-0.683838	0.045654	0.116315	0.026894	0.007864	-0.508556	-0.632762	0.237218	-0.533584	77.482770	-66.425321	37.326675
42364		12.290741	3.094532	1.172463	1.581793	0.552023	2.803596	0.743064	-1.641026	4.877564	-0.630615	-0.655273	0.053711	0.122003	0.033882	0.012850	-0.491058	-0.633048	0.254756	-0.541491	78.764455	-69.354342	36.405715
42365		12.726497	3.516582	1.573642	1.047098	-0.357628	3.436569	0.393433	-1.660933	4.902935	-0.660889	-0.617920	0.072510	0.126216	0.038236	0.016861	-0.474171	-0.632067	0.273276	-0.548610	80.222773	-72.302773	35.104186
42366		13.012916	3.997685	1.860050	0.327926	-1.251386	3.864338	0.140740	-1.713156	4.929668	-0.697754	-0.578613	0.082520	0.128926	0.043151	0.019738	-0.457685	-0.630167	0.292433	-0.554885	82.158947	-75.245200	33.174769
42367		13.530367	4.714902	2.118961	-0.608730	-2.220621	4.485602	-0.096413	-1.756445	4.955602	-0.727783	-0.547852	0.092773	0.133887	0.050489	0.022346	-0.441426	-0.627366	0.312304	-0.560376	85.021626	-78.192282	30.180745
42368		14.057723	5.523277	2.199861	-1.758519	-3.101850	5.026378	-0.330483	-1.796056	4.946412	-0.757813	-0.512939	0.104980	0.138949	0.058721	0.023156	-0.425628	-0.623744	0.332596	-0.564946	89.761092	-81.073323	25.174136
42369		14.287581	6.369540	2.304987	-3.024138	-4.064882	5.163725	-0.468319	-1.834210	4.913524	-0.785889	-0.471191	0.119385	0.141035	0.067231	0.024194	-0.409926	-0.619548	0.353094	-0.568723	99.100685	-83.819184	15.488152
42370		14.412939	7.570098	2.280297	-4.693721	-5.052510	5.107750	-0.469003	-1.829713	4.866951	-0.802734	-0.431641	0.127197	0.142014	0.079230	0.023926	-0.394151	-0.615003	0.373128	-0.572007	121.065059	-86.121221	-6.822065
42371		14.837522	9.251401	2.630546	-6.641006	-6.562915	5.201265	-0.388787	-1.730855	4.765619	-0.824219	-0.389893	0.139160	0.145880	0.096063	0.027391	-0.378279	-0.610101	0.392240	-0.575178	168.763157	-86.952155	-54.816787
42372		15.645777	11.547761	2.733032	-9.250232	-8.093423	5.499662	-0.229984	-1.584885	4.490449	-0.841064	-0.350342	0.153564	0.153590	0.118980	0.028420	-0.362832	-0.605260	0.409479	-0.578221	-153.226148	-85.630098	-93.028836
42373		15.640196	13.916420	3.090634	-11.806090	-9.785383	4.769147	-0.193080	-1.376272	4.032841	-0.851074	-0.317383	0.163818	0.153336	0.142307	0.031832	-0.348784	-0.600499	0.424688	-0.580853	-137.724720	-83.643694	-108.703642
42374		14.325375	15.900755	3.763310	-13.743101	-11.350675	2.615173	-0.304167	-1.159294	3.407096	-0.860596	-0.295410	0.167725	0.140297	0.161472	0.038208	-0.337264	-0.596018	0.437748	-0.582574	-130.948427	-81.778336	-115.707439
42375		12.234962	16.973727	4.158409	-14.759766	-12.029570	-0.194874	-0.437885	-0.947109	2.679856	-0.870361	-0.271240	0.171387	0.119862	0.171446	0.041782	-0.328599	-0.592119	0.448589	-0.583255	-127.698723	-80.239103	-119.248690
42376		10.688571	17.884137	4.895672	-15.399160	-12.879161	-2.394404	-0.574165	-0.786305	1.978877	-0.870605	-0.258057	0.177734	0.104916	0.180026	0.048856	-0.322724	-0.589009	0.457381	-0.582855	-126.268019	-79.060954	-121.035016
42377		10.052300	18.644161	6.107488	-15.727655	-14.156148	-3.632908	-0.631766	-0.628805	1.329580	-0.875488	-0.247070	0.181885	0.099088	0.187296	0.060797	-0.319224	-0.586777	0.464147	-0.581684	-125.851657	-78.229227	-121.826509
42378		9.997007	18.581647	6.092675	-15.787637	-14.077541	-3.904300	-0.470245	-0.435717	0.657935	-0.873291	-0.247070	0.181885	0.099225	0.186287	0.060706	-0.317655	-0.585775	0.468130	-0.580360	-126.034718	-77.776235	-121.912425
42379		13.015366	17.034467	6.577832	-14.557865	-14.513894	-0.854130	0.120419	-0.233809	0.170947	-0.875732	-0.242676	0.188477	0.129931	0.170416	0.066033	-0.316244	-0.586264	0.468642	-0.580223	-126.205502	-77.617642	-121.664833
42380		13.732248	23.086516	10.461762	-18.614288	-20.414080	-1.580092	0.452879	0.455878	-0.921904	-0.873047	-0.253662	0.186523	0.138623	0.229991	0.104824	-0.318634	-0.587823	0.463892	-0.581154	-126.427523	-78.196684	-121.170025
42381		16.435716	22.729056	6.508104	-19.823769	-17.197372	2.033176	1.440128	0.941347	-2.085661	-0.859131	-0.273193	0.182617	0.167021	0.225085	0.065925	-0.322626	-0.592192	0.452004	-0.583878	-127.048499	-79.480266	-119.694070
42382		22.795794	-14.766217	-9.510390	7.565655	11.121811	15.626115	2.677399	1.626408	-2.066729	-0.860840	-0.284424	0.176270	0.225631	-0.148695	-0.098931	-0.324330	-0.596344	0.435361	-0.591308	-125.202576	-80.984818	-120.008063
42383		21.716159	-7.912448	0.189287	5.537235	0.509887	12.620890	3.749741	1.699727	-1.541592	-0.856201	-0.291016	0.174316	0.216540	-0.080789	-0.001454	-0.321396	-0.600605	0.416833	-0.601854	-120.797822	-82.260381	-122.296437
42384		20.815778	20.385243	11.737512	-14.023229	-21.678144	8.074154	0.497422	1.478050	-2.963649	-0.848633	-0.321777	0.168457	0.212007	0.200440	0.116319	-0.331836	-0.603064	0.403997	-0.602482	-121.861303	-84.150149	-120.936228
42385		12.780972	7.460545	3.160465	-5.653834	-7.160527	2.259373	-0.453966	0.502447	-3.880110	-0.829590	-0.356689	0.167236	0.129304	0.072177	0.031115	-0.345920	-0.608513	0.392758	-0.596483	-135.912589	-86.080884	-107.105115
42386		5.883604	-0.978729	-2.522871	-0.317982	2.357186	-3.789466	0.939070	0.313285	-3.482488	-0.815186	-0.389648	0.159180	0.058615	-0.010690	-0.025369	-0.353988	-0.615957	0.378751	-0.593159	-163.849750	-87.272386	-78.582983
42387		2.864429	0.755590	-2.203587	-1.628287	1.498841	-6.857498	-0.223855	0.748400	-2.870361	-0.805908	-0.407227	0.148682	0.028666	0.007120	-0.022151	-0.364647	-0.618705	0.369211	-0.589847	157.719121	-87.632436	-40.253134
42388		7.544431	11.000650	2.681997	-8.236517	-7.541371	-2.040990	-0.783769	1.113577	-2.699353	-0.791504	-0.433594	0.138184	0.077067	0.109076	0.025965	-0.377027	-0.618920	0.361095	-0.586855	122.105881	-87.098430	-5.052106
42389		12.010013	1.416980	-0.938369	-0.966807	0.265833	2.275066	-1.064991	0.916441	-2.537808	-0.784180	-0.453613	0.127686	0.120222	0.012593	-0.010004	-0.389467	-0.618740	0.354598	-0.582869	104.044602	-85.945693	12.421829
42390		9.484183	2.297317	2.602926	-0.179944	-3.127539	-0.211377	-0.807308	0.810874	-2.025380	-0.772217	-0.477783	0.117188	0.095173	0.022114	0.025553	-0.399259	-0.618370	0.349078	-0.579962	95.446314	-84.877873	20.585599
42391		11.297854	4.415425	3.670506	-1.327536	-4.778564	1.849546	-0.914694	0.636856	-2.048405	-0.760742	-0.488770	0.106445	0.113540	0.043159	0.036145	-0.409194	-0.618229	0.344098	-0.576151	90.639430	-83.716170	24.881528
42392		10.025753	3.068098	1.757919	-0.928866	-2.368887	0.509200	-0.627098	0.466139	-1.911747	-0.753662	-0.504150	0.093750	0.100585	0.029775	0.017251	-0.417401	-0.618876	0.339019	-0.572569	88.163863	-82.618177	27.015168
42393		8.224522	3.681509	0.273146	-2.186456	-1.264212	-1.158802	-0.390982	0.396167	-1.790229	-0.744141	-0.521729	0.098633	0.082575	0.036082	0.002497	-0.424474	-0.619931	0.333750	-0.569314	86.637701	-81.574503	28.321762
42394		8.102382	3.059570	0.931439	-1.253694	-1.513046	-1.326554	-0.227549	0.333162	-1.573750	-0.730225	-0.539063	0.092529	0.081277	0.029967	0.009145	-0.430182	-0.621122	0.328798	-0.566606	85.688279	-80.662409	29.153077
42395		9.354820	2.071428	1.116339	-0.006589	-1.088892	-0.228195	0.079976	0.316053	-1.337615	-0.727783	-0.550293	0.088379	0.093701	0.020084	0.011024	-0.434318	-0.622581	0.323722	-0.564770	85.041509	-79.874958	29.847759
42396		9.714300	1.875545	0.993154	0.274618	-0.790469	0.095397	0.357014	0.276847	-1.179334	-0.716309	-0.556641	0.088623	0.097265	0.018165	0.009830	-0.436957	-0.624488	0.318432	-0.563635	84.728890	-79.188206	30.376049
42397		9.828606	3.579932	1.523884	-0.895097	-1.904092	0.546448	0.457754	0.223715	-1.065107	-0.709229	-0.567627	0.088867	0.098492	0.035240	0.015210	-0.438964	-0.626540	0.313314	-0.562666	84.629368	-78.559797	30.736726
42398		10.128848	3.625823	1.646296	-0.729202	-1.949844	0.869808	0.377773	0.163894	-1.007580	-0.702148	-0.583008	0.091553	0.101483	0.035716	0.016448	-0.440846	-0.628494	0.308727	-0.561549	84.665729	-77.976675	30.923036
42399		9.925253	3.028892	1.172258	-0.342911	-1.243025	0.550484	0.287946	0.081442	-1.018572	-0.693115	-0.589355	0.091553	0.099410	0.029766	0.011725	-0.443007	-0.630461	0.304525	-0.559936	84.860915	-77.382172	30.884009
42400		10.070328	2.888557	0.958309	-0.188455	-0.931456	0.664411	0.183296	0.003274	-0.976983	-0.679199	-0.600342	0.087646	0.100843	0.028384	0.009608	-0.445145	-0.632355	0.300918	-0.558052	85.180014	-76.824761	30.666786
42401		10.337403	3.252832	0.935126	-0.369673	-0.992338	1.012977	0.027652	-0.050252	-0.941103	-0.672363	-0.609131	0.087891	0.103523	0.032040	0.009382	-0.447690	-0.633962	0.297965	-0.555772	85.497734	-76.280561	30.348210
42402		9.816673	3.481894	0.355557	-0.840434	-0.593737	0.558306	-0.103797	-0.101250	-0.894694	-0.658691	-0.617920	0.085938	0.098319	0.034381	0.003587	-0.450331	-0.635355	0.295638	-0.553285	85.835846	-75.774175	29.940910
42403		10.017547	4.401593	-0.030162	-1.684033	-0.570596	0.983790	-0.235629	-0.129974	-0.846787	-0.662842	-0.631104	0.083984	0.100361	0.043591	-0.000288	-0.453312	-0.636426	0.293881	-0.550549	86.118794	-75.286273	29.500993
42404		10.313712	3.725513	0.507690	-0.714662	-0.700814	1.119256	-0.312479	-0.131354	-0.780524	-0.646973	-0.635254	0.079590	0.103278	0.036860	0.005087	-0.456239	-0.637238	0.292549	-0.547895	86.340549	-74.845353	29.088605
42405		9.832039	2.533493	0.334222	0.213126	-0.084121	0.343414	-0.274879	-0.143876	-0.691895	-0.639893	-0.648438	0.082275	0.098405	0.024999	0.003378	-0.458883	-0.638009	0.291415	-0.545388	86.569966	-74.445531	28.679036
42406		10.160942	3.608315	-0.144256	-0.786772	-0.025770	0.942098	-0.261821	-0.150764	-0.638059	-0.626465	-0.650635	0.073486	0.101725	0.035757	-0.001413	-0.461216	-0.638762	0.290435	-0.543056	86.809608	-74.085905	28.276637
42407		11.045534	2.687867	-0.010833	0.350800	0.364406	1.543913	-0.274480	-0.146970	-0.555559	-0.615234	-0.655029	0.075928	0.110529	0.026572	-0.000064	-0.463471	-0.639329	0.289735	-0.540839	87.001645	-73.763431	27.904729
42408		10.336687	3.300966	0.529659	-0.073637	-0.444506	1.041839	-0.280995	-0.102276	-0.537375	-0.612793	-0.659424	0.069336	0.103452	0.032739	0.005303	-0.465654	-0.639747	0.289010	-0.538854	87.101853	-73.459306	27.634890
42409		9.841605	3.498861	0.390888	-0.376704	-0.438310	0.623678	-0.270590	-0.083289	-0.550411	-0.596924	-0.670166	0.069580	0.098510	0.034723	0.003903	-0.467964	-0.640129	0.288163	-0.536848	87.156066	-73.137696	27.407981
42410		9.309651	2.533361	0.295397	0.335393	-0.018067	-0.165835	-0.258248	-0.068044	-0.515370	-0.592285	-0.676758	0.067627	0.093160	0.025097	0.002953	-0.470055	-0.640465	0.287363	-0.535047	87.191137	-72.845035	27.219011
42411		9.461137	3.008918	-0.306752	-0.244025	0.385998	0.109613	-0.238922	-0.040858	-0.484444	-0.580811	-0.683350	0.065674	0.094685	0.029856	-0.003084	-0.472140	-0.640702	0.286539	-0.533367	87.170849	-72.560012	27.088394
42412		9.607468	3.012744	-0.696461	-0.326226	0.782372	0.244470	-0.249932	-0.037648	-0.465193	-0.572021	-0.683350	0.067871	0.096146	0.029895	-0.006984	-0.474107	-0.640894	0.285801	-0.531785	87.145351	-72.295217	26.967376
42413		9.491982	3.384549	-0.575596	-0.588606	0.537437	0.249555	-0.262195	-0.028197	-0.455510	-0.560547	-0.692139	0.063721	0.094997	0.033622	-0.005787	-0.476153	-0.641017	0.285042	-0.530214	87.084231	-72.026536	26.875288
42414		9.469840	3.455410	-0.345330	-0.521545	0.322185	0.255131	-0.302947	-0.032950	-0.464783	-0.553955	-0.687744	0.059082	0.094779	0.034329	-0.003490	-0.478288	-0.641060	0.284431	-0.528565	87.017984	-71.761906	26.764820
42415		9.064373	3.577465	-0.034291	-0.574352	-0.038446	-0.084853	-0.318504	-0.023911	-0.465990	-0.538086	-0.696289	0.054932	0.090727	0.035563	-0.000389	-0.480540	-0.641043	0.283774	-0.526894	86.917777	-71.487227	26.679649
42416		9.177698	2.305884	0.688331	0.890372	-0.177922	-0.368299	-0.312414	0.044671	-0.441359	-0.529053	-0.702881	0.061768	0.091829	0.022867	0.006827	-0.482747	-0.640816	0.283072	-0.525528	86.712262	-71.233670	26.710091
42417		9.109268	2.318577	0.168975	0.683530	0.313749	-0.441598	-0.210466	0.153545	-0.429495	-0.519775	-0.707275	0.048828	0.091143	0.022992	0.001596	-0.484801	-0.640531	0.281817	-0.524659	86.377161	-70.974058	26.938337
42418		9.002425	3.552371	-0.190505	-0.534214	0.204862	-0.149782	-0.130443	0.200584	-0.441071	-0.508789	-0.709473	0.053223	0.090100	0.035324	-0.002018	-0.486638	-0.640325	0.280257	-0.524044	86.027914	-70.714659	27.231402
42419		9.003638	3.446302	-0.345023	-0.472431	0.426010	-0.186855	-0.131336	0.239055	-0.443388	-0.499512	-0.716064	0.042480	0.090108	0.034261	-0.003580	-0.488588	-0.640019	0.278539	-0.523520	85.616928	-70.442748	27.588940
42420		8.933598	3.941525	-0.402220	-0.915833	0.328696	-0.088515	-0.139213	0.271921	-0.476996	-0.490479	-0.722412	0.049316	0.089424	0.039199	-0.004171	-0.490640	-0.639646	0.276710	-0.523026	85.171980	-70.158219	27.979301
42421		8.914510	3.474970	-0.527720	-0.534067	0.657024	-0.267781	-0.125243	0.264850	-0.491357	-0.472656	-0.722412	0.044922	0.089223	0.034527	-0.005417	-0.492724	-0.639345	0.274756	-0.522466	84.752720	-69.855889	28.350704
42422		8.954053	2.913214	-0.475564	0.016516	0.863096	-0.424258	-0.097597	0.275729	-0.476145	-0.470215	-0.726807	0.044922	0.089603	0.028917	-0.004893	-0.494638	-0.639053	0.272807	-0.522035	84.348537	-69.569731	28.724485
42423		9.168161	3.735185	-0.328783	-0.537320	0.511772	0.064761	-0.103388	0.262578	-0.497365	-0.445557	-0.733154	0.045166	0.091770	0.037122	-0.003428	-0.496654	-0.638810	0.270778	-0.521475	83.968841	-69.262465	29.068499
42424		9.321551	3.801924	0.061029	-0.356985	0.203190	0.246171	-0.129505	0.267728	-0.529488	-0.438721	-0.733154	0.042969	0.093316	0.037773	0.000461	-0.498790	-0.638521	0.268757	-0.520834	83.588261	-68.944700	29.398943
42425		9.706193	3.292843	0.163618	0.282913	0.410449	0.426009	-0.124306	0.294708	-0.557221	-0.420654	-0.744141	0.043457	0.097155	0.032659	0.001473	-0.501063	-0.638211	0.266506	-0.520189	83.181351	-68.599686	29.760834
42426		10.076956	3.157645	0.216090	0.579723	0.532358	0.720239	-0.120016	0.315245	-0.605259	-0.409668	-0.741699	0.041260	0.100868	0.031273	0.001983	-0.503419	-0.637911	0.264094	-0.519512	82.773348	-68.233887	30.128157
42427		10.498262	2.453791	0.141584	1.338727	0.988958	0.840193	-0.107134	0.343183	-0.656128	-0.395996	-0.748291	0.039063	0.105065	0.024194	0.001223	-0.505945	-0.637634	0.261357	-0.518783	82.351144	-67.827426	30.519047
42428		10.712803	2.520787	-0.069059	1.320034	1.265293	1.039923	-0.098740	0.370259	-0.728001	-0.380371	-0.752686	0.039307	0.107217	0.024817	-0.000901	-0.508609	-0.637387	0.258352	-0.517985	81.929527	-67.385716	30.916382
42429		11.373905	2.678554	0.081008	1.527185	1.280612	1.701375	-0.142600	0.403425	-0.846208	-0.364502	-0.756836	0.043945	0.113852	0.026304	0.000562	-0.511798	-0.637087	0.254940	-0.516903	81.473864	-66.864733	31.324136
42430		11.479598	2.838093	0.242398	1.568349	1.188569	1.850112	-0.203487	0.432246	-0.997322	-0.348877	-0.756836	0.032959	0.114940	0.027810	0.002147	-0.515549	-0.636728	0.251178	-0.515457	80.999781	-66.262771	31.716308
42431		11.591213	2.160074	0.767228	2.484574	1.065529	1.689509	-0.216192	0.484533	-1.140134	-0.333252	-0.763184	0.039795	0.116051	0.020948	0.007368	-0.519799	-0.636362	0.246799	-0.513754	80.500522	-65.565962	32.129426
42432		11.903734	2.000572	1.136530	2.980934	0.964544	1.899448	-0.225343	0.556730	-1.306868	-0.306152	-0.771973	0.024658	0.119196	0.019240	0.011012	-0.524529	-0.635961	0.241765	-0.511833	79.972473	-64.774483	32.571552
42433		12.140990	1.495281	1.236675	3.653552	1.226563	1.862621	-0.200829	0.630006	-1.459937	-0.292725	-0.774170	0.033447	0.121553	0.014078	0.011970	-0.529670	-0.635585	0.235928	-0.509725	79.432273	-63.880098	33.045164
42434		12.399653	1.818844	1.380567	3.670782	1.198226	2.189439	-0.185714	0.705627	-1.631968	-0.270264	-0.776123	0.027100	0.124187	0.017188	0.013351	-0.535213	-0.635212	0.229336	-0.507402	78.890098	-62.886283	33.535174
42435		13.200371	1.396433	1.314813	4.458776	1.766723	2.634033	-0.132944	0.803306	-1.801096	-0.254395	-0.786865	0.036133	0.132174	0.012783	0.012609	-0.541119	-0.634869	0.221747	-0.504936	78.344234	-61.777671	34.067368
42436		13.665066	0.929042	1.096131	5.115784	2.431109	2.705684	-0.077755	0.912253	-1.988586	-0.227783	-0.780273	0.022949	0.136782	0.007935	0.010334	-0.547347	-0.634541	0.213149	-0.502331	77.803821	-60.555483	34.636030
42437		15.313537	0.288659	1.180893	6.544241	3.244269	3.700944	-0.051818	1.045890	-2.205448	-0.207520	-0.786621	0.031982	0.153214	0.001200	0.011007	-0.554139	-0.634089	0.203365	-0.499503	77.238686	-59.187071	35.256909
42438		18.182608	-1.042817	0.684259	8.855890	5.239672	5.229312	0.108535	1.259539	-2.387483	-0.185303	-0.786621	0.023193	0.181723	-0.012601	0.005691	-0.560971	-0.633632	0.192017	-0.496942	76.664186	-57.692155	36.006790
42439		19.385299	-0.752113	-0.569387	8.885603	7.024141	5.946735	0.288903	1.426130	-2.615664	-0.162842	-0.795166	0.038818	0.193685	-0.010045	-0.007089	-0.567868	-0.633350	0.178963	-0.494333	76.154508	-56.039886	36.814818
42440		18.707356	0.361291	-0.828279	7.888863	7.097899	5.618980	0.226008	1.435054	-2.943426	-0.140381	-0.799316	0.034668	0.187034	0.000870	-0.009623	-0.575618	-0.633013	0.164985	-0.490651	75.732058	-54.204877	37.490378
42441		20.143989	-0.236831	-1.449770	9.084947	8.742981	5.964533	-0.008943	1.435925	-3.196083	-0.120117	-0.805908	0.034912	0.201257	-0.005586	-0.015943	-0.584581	-0.632014	0.150720	-0.485907	75.276916	-52.224474	38.054093
42442		19.801978	-0.114131	-0.970098	9.394282	8.577460	5.392709	-0.345763	1.446691	-3.309062	-0.095459	-0.805664	0.028320	0.197888	-0.004435	-0.011127	-0.594691	-0.629898	0.136851	-0.480461	74.698187	-50.179218	38.545356
42443		19.863082	-0.376366	-1.564746	9.721379	9.599543	4.693508	-0.833453	1.393876	-3.404984	-0.068604	-0.809814	0.030762	0.198412	-0.007212	-0.017006	-0.606331	-0.626301	0.123963	-0.474071	73.943767	-48.085858	38.913466
42444		20.909617	-0.820456	-3.329710	10.188052	12.071626	4.308141	-1.035918	1.298870	-3.452380	-0.055176	-0.814453	0.017578	0.208689	-0.011986	-0.034598	-0.618436	-0.622127	0.111648	-0.466937	73.188712	-45.978818	39.137254
42445		20.933194	-0.002803	-3.698636	9.846196	12.594018	4.196873	-0.990293	1.245927	-3.450794	-0.028076	-0.820801	0.009033	0.209052	-0.003824	-0.038277	-0.630132	-0.617986	0.099375	-0.459512	72.525049	-43.882559	39.275996
42446		19.765730	0.459242	-3.802630	9.201136	12.394961	3.110788	-0.693023	1.129497	-3.304703	-0.010498	-0.818604	0.006836	0.197477	0.001194	-0.039150	-0.640312	-0.614771	0.087184	-0.452168	72.093543	-41.882778	39.329955
42447		17.529426	-0.089273	-3.901153	8.547987	11.768864	0.718644	0.277773	0.955963	-2.997283	0.007813	-0.831543	0.011719	0.175066	-0.003463	-0.039852	-0.646536	-0.614752	0.074311	-0.445589	72.260008	-40.086489	39.322278
42448		14.935161	-1.089002	-3.126405	8.232601	10.169691	-1.887555	0.798280	0.799551	-2.676672	0.012451	-0.833740	0.018311	0.149062	-0.012760	-0.031909	-0.650259	-0.616501	0.061715	-0.439637	72.740924	-38.486879	39.288839
42449		11.770803	-1.428981	-1.676529	7.335999	7.519775	-4.065153	0.312365	0.615813	-2.292406	0.027832	-0.831543	0.007324	0.117482	-0.015611	-0.017151	-0.654433	-0.616855	0.052012	-0.434169	72.963049	-37.136437	39.222916
42450		9.047394	0.142649	-0.628181	5.253428	5.110355	-4.469215	-0.951575	0.527878	-2.089485	0.028076	-0.838135	0.000732	0.090465	0.000451	-0.006524	-0.661981	-0.613116	0.045905	-0.428675	72.470885	-35.904229	39.137663
42451		5.953748	3.932959	1.615364	2.063118	1.270861	-2.909714	-1.986131	0.515305	-1.890295	0.050537	-0.842773	-0.023193	0.059947	0.038921	0.015612	-0.672124	-0.605845	0.042725	-0.423528	71.376510	-34.793279	39.067249
42452		3.636546	16.942690	-1.836067	-9.003618	2.175031	4.946141	-2.959939	-0.172788	-1.992852	0.048340	-0.843018	-0.047607	0.038067	0.168757	-0.020829	-0.685152	-0.596613	0.043534	-0.415601	70.004903	-33.749286	38.495385
42453		12.895345	8.087975	-4.699701	1.455249	10.363039	2.198241	-3.532586	-0.643110	-1.845505	0.052979	-0.843506	-0.087402	0.129841	0.078843	-0.047985	-0.699194	-0.586169	0.047629	-0.406529	68.459052	-32.901203	37.631465
42454		6.732791	-5.690193	-7.552843	5.097052	9.925392	-13.013523	-4.083549	-0.511769	-0.452562	0.039795	-0.841797	-0.129639	0.067388	-0.058578	-0.074171	-0.711796	-0.572937	0.056385	-0.402381	66.361674	-32.775365	37.188881
42455		0.057604	-10.494792	-3.846316	5.405298	3.021732	-19.117442	-3.156113	-0.532343	0.941573	0.021729	-0.835938	-0.165039	0.001171	-0.105533	-0.036798	-0.718634	-0.562481	0.067395	-0.403283	64.594899	-33.404308	37.121271
42456		-0.017460	-7.416721	-0.535160	4.719512	0.119445	-15.557614	-1.577365	-0.581847	1.478947	-0.007080	-0.840576	-0.171875	0.000388	-0.074205	-0.004766	-0.719834	-0.557474	0.076826	-0.406398	63.647550	-34.313217	37.203647
42457		2.115438	-2.274932	0.634695	3.137997	0.392195	-10.040893	-0.908112	-0.634589	1.586999	-0.029297	-0.836426	-0.185303	0.021313	-0.022551	0.006517	-0.718801	-0.554909	0.085459	-0.409998	63.076035	-35.301464	37.300844
42458		3.107863	-1.321574	1.037179	3.255270	0.561661	-8.560342	-1.118006	-0.785868	1.701420	-0.053711	-0.841064	-0.198486	0.031148	-0.012892	0.010567	-0.718023	-0.551762	0.095295	-0.413425	62.405453	-36.375316	37.356049
42459		2.989018	-0.861362	0.767724	2.746472	0.735309	-8.335756	-0.975709	-1.021493	1.857144	-0.076172	-0.834961	-0.209717	0.029928	-0.008298	0.007871	-0.716277	-0.549495	0.106183	-0.416807	61.867572	-37.602493	37.327451
42460		3.476745	-0.333398	0.519415	2.567130	1.182882	-7.696386	-0.394722	-1.157367	2.075818	-0.105469	-0.828613	-0.214355	0.034769	-0.002963	0.005401	-0.712355	-0.549372	0.116850	-0.420817	61.661889	-38.965121	37.298149
42461		4.266528	-0.684671	0.647910	3.302459	1.390869	-7.312684	0.212247	-1.252125	2.354524	-0.132080	-0.833008	-0.205566	0.042700	-0.006351	0.006739	-0.705956	-0.551382	0.127410	-0.425876	61.783467	-40.506414	37.304121
42462		5.102126	-0.645748	0.933900	3.798763	1.478069	-6.541006	0.849554	-1.348256	2.626311	-0.163086	-0.833252	-0.208008	0.051036	-0.005828	0.009657	-0.697065	-0.555534	0.137589	-0.431916	62.252899	-42.198775	37.333925
42463		5.423186	-0.243720	1.032782	3.630409	1.475683	-5.916875	1.465565	-1.446576	2.875339	-0.206055	-0.820068	-0.190674	0.054184	-0.001735	0.010705	-0.685610	-0.561741	0.147524	-0.438888	63.079814	-44.056793	37.357924
42464		5.464459	-0.208760	0.713407	3.439234	1.705856	-5.853898	2.065175	-1.520204	3.127187	-0.237061	-0.828857	-0.166260	0.054613	-0.001310	0.007533	-0.671672	-0.569754	0.156959	-0.446767	64.252800	-46.049970	37.375898
42465		5.783874	0.307997	0.319385	2.981196	2.077478	-5.291318	2.546506	-1.593719	3.416869	-0.279541	-0.822266	-0.142090	0.057747	0.004022	0.003701	-0.655284	-0.579071	0.166412	-0.455616	65.717827	-48.224633	37.372510
42466		6.194441	1.014874	0.337819	2.503535	2.031581	-4.416900	2.745629	-1.640128	3.732800	-0.317871	-0.813477	-0.115967	0.061710	0.011250	0.004034	-0.637255	-0.588542	0.176290	-0.465239	67.306337	-50.561571	37.355613
42467		6.824293	1.311434	0.343336	2.409973	2.052672	-3.617582	2.715839	-1.661938	4.009609	-0.355957	-0.804443	-0.092041	0.067930	0.014425	0.004189	-0.618222	-0.597346	0.187158	-0.475343	68.903524	-53.063196	37.297718
42468		7.750983	1.320344	0.356311	2.636777	2.163311	-2.720123	2.576931	-1.654740	4.244161	-0.401123	-0.786865	-0.066162	0.077173	0.014791	0.004386	-0.598664	-0.605087	0.198760	-0.485763	70.446795	-55.673622	37.218737
42469		8.819238	1.312073	0.416144	2.884852	2.224269	-1.664750	2.393144	-1.619362	4.445932	-0.446289	-0.773682	-0.037842	0.087834	0.015019	0.005046	-0.578761	-0.611556	0.211326	-0.496362	71.912980	-58.399436	37.099575
42470		10.062365	1.730254	0.556654	2.794700	2.093133	-0.203188	2.176742	-1.562940	4.606560	-0.487061	-0.749756	-0.020752	0.100142	0.019545	0.006555	-0.558801	-0.616668	0.224456	-0.507032	73.277224	-61.186547	36.967141
42471		10.949997	2.153662	0.724060	2.473427	1.734393	0.953615	1.862816	-1.511317	4.724712	-0.532715	-0.721191	0.002686	0.108892	0.024040	0.008281	-0.539093	-0.620202	0.238543	-0.517519	74.510079	-64.043456	36.784433
42472		11.598325	2.645044	0.760375	1.884297	1.335078	1.880570	1.540205	-1.511662	4.803651	-0.569092	-0.697021	0.017334	0.115242	0.029160	0.008694	-0.519881	-0.622339	0.253444	-0.527432	75.681847	-66.926608	36.469342
42473		12.200379	3.109100	0.886543	1.272891	0.780865	2.718760	1.218045	-1.529922	4.846512	-0.614746	-0.668701	0.034180	0.121130	0.033975	0.009995	-0.501093	-0.623196	0.269300	-0.536665	76.878475	-69.848374	35.936386
42474		12.805990	3.346108	1.208506	0.882457	0.072570	3.447311	0.864152	-1.553965	4.895460	-0.646973	-0.633545	0.048584	0.127091	0.036525	0.013229	-0.482986	-0.622746	0.286034	-0.545066	78.159236	-72.780102	35.109882
42475		13.194272	3.415995	1.317732	0.446093	-0.461775	3.863577	0.533327	-1.576919	4.933958	-0.686035	-0.596436	0.062988	0.130937	0.037362	0.014309	-0.465355	-0.621068	0.303749	-0.552680	79.702123	-75.744314	33.827868
42476		13.630384	3.359968	1.442042	0.101352	-0.980166	4.263538	0.312882	-1.601152	4.972597	-0.716064	-0.563477	0.073242	0.135291	0.036948	0.015562	-0.448034	-0.618474	0.321943	-0.559561	81.874169	-78.704519	31.787627
42477		14.310101	3.427483	1.449481	-0.406427	-1.451807	4.894605	0.195030	-1.635918	4.995964	-0.755371	-0.519531	0.091797	0.142061	0.037818	0.015695	-0.430558	-0.615231	0.340490	-0.565842	85.600204	-81.669376	28.123823
42478		15.190641	4.055253	1.415155	-1.465810	-2.144600	5.756459	0.117811	-1.682368	4.966428	-0.785400	-0.484375	0.108643	0.150711	0.044296	0.015448	-0.413115	-0.611595	0.358933	-0.571362	93.465570	-84.529641	20.274040
42479		15.810097	5.070473	1.535245	-2.901044	-3.202581	6.289818	0.021437	-1.716099	4.905983	-0.806885	-0.440674	0.118408	0.156655	0.054558	0.016707	-0.395707	-0.607525	0.377382	-0.576118	116.586240	-87.053344	-2.886849
42480		15.711852	6.212084	1.384137	-4.620361	-4.080339	5.976791	0.020947	-1.713692	4.864991	-0.826172	-0.394531	0.130615	0.155420	0.065914	0.015185	-0.378247	-0.603137	0.395358	-0.580385	-176.224436	-87.693048	-70.116544
42481		15.346907	7.297417	1.163455	-6.293921	-4.834944	5.256528	0.163584	-1.640539	4.798346	-0.849609	-0.359375	0.145020	0.151557	0.076616	0.012945	-0.360361	-0.598519	0.412403	-0.584669	-138.051868	-85.635238	-108.246804
42482		15.849677	8.815995	0.807200	-8.386419	-5.661763	5.258289	0.292757	-1.557651	4.557990	-0.859863	-0.317383	0.161621	0.156363	0.091727	0.009428	-0.342825	-0.594043	0.427868	-0.588653	-126.716408	-83.091099	-119.463324
42483		16.063417	10.607505	0.704047	-10.574602	-6.788280	4.784713	0.353141	-1.470256	4.197623	-0.876709	-0.277832	0.176025	0.158303	0.109400	0.008401	-0.326096	-0.589840	0.441771	-0.592105	-121.888431	-80.614750	-124.132163
42484		15.145886	12.545444	0.801864	-12.625679	-7.931440	3.035013	0.191714	-1.312753	3.747223	-0.884521	-0.240479	0.186035	0.149016	0.128253	0.009124	-0.311453	-0.585661	0.454301	-0.594650	-119.373471	-78.382465	-126.575388
42485		13.511651	14.202431	1.168766	-14.096720	-8.929498	0.538721	-0.189883	-1.111159	3.174494	-0.887695	-0.214111	0.196533	0.132772	0.144156	0.012293	-0.299923	-0.581372	0.465872	-0.595832	-118.065135	-76.471035	-128.024496
42486		11.831531	15.741431	1.454787	-15.361022	-9.598235	-1.952338	-0.630761	-0.964798	2.523032	-0.890625	-0.194336	0.200439	0.116246	0.158936	0.014612	-0.291944	-0.577382	0.476481	-0.595285	-117.694749	-74.933645	-128.777222
42487		10.615730	16.788099	1.776006	-16.160972	-10.031158	-3.823256	-1.007944	-0.838670	1.892451	-0.904297	-0.181152	0.208984	0.104489	0.168963	0.017351	-0.287145	-0.573868	0.486163	-0.593186	-117.985001	-73.743550	-129.073175
42488		9.899647	17.426464	2.095513	-16.642316	-10.299612	-5.014908	-1.266485	-0.731744	1.273953	-0.897949	-0.170166	0.210938	0.097808	0.175020	0.020208	-0.285187	-0.571110	0.494596	-0.589810	-118.786099	-72.901000	-128.991989
42489		9.701391	17.557587	2.608521	-16.666172	-10.621003	-5.497796	-1.365591	-0.633303	0.661771	-0.893555	-0.167969	0.206299	0.096351	0.176069	0.025190	-0.285525	-0.569393	0.501407	-0.585541	-119.991563	-72.389282	-128.546748
42490		9.640583	17.262853	3.074475	-16.327713	-10.779491	-5.616865	-1.292780	-0.516640	0.053337	-0.895508	-0.176514	0.210938	0.096282	0.172849	0.029877	-0.287726	-0.568927	0.506063	-0.580893	-121.482649	-72.210584	-127.756639
42491		9.547460	16.537591	3.347338	-15.626626	-10.639550	-5.516534	-1.074030	-0.347019	-0.503674	-0.893311	-0.180908	0.213379	0.095834	0.165312	0.032752	-0.291351	-0.569683	0.508228	-0.576438	-123.116952	-72.348529	-126.685298
42492		9.415253	15.754384	3.526719	-14.847935	-10.428993	-5.334187	-0.727820	-0.138218	-1.023885	-0.888428	-0.194092	0.211426	0.094934	0.157186	0.034760	-0.295997	-0.571625	0.507594	-0.572694	-124.788722	-72.789731	-125.367720
42493		10.729017	14.488018	3.686040	-13.813553	-10.441278	-3.586809	-0.344559	0.027418	-1.399915	-0.887939	-0.209473	0.214111	0.108306	0.144188	0.036597	-0.301065	-0.574613	0.504497	-0.569792	-126.499871	-73.454143	-123.784563
42494		11.154438	8.207751	0.965620	-8.931797	-6.049253	-1.075053	0.178253	0.315506	-1.623396	-0.880615	-0.229248	0.210205	0.112221	0.081160	0.009552	-0.305942	-0.578072	0.498827	-0.568686	-127.845953	-74.303302	-122.274689
42495		13.068537	-9.872654	-0.399788	7.171743	0.645651	4.903117	0.844351	1.066841	-1.635351	-0.878174	-0.235840	0.197021	0.129847	-0.099771	-0.005112	-0.310824	-0.580420	0.489997	-0.571318	-127.719683	-75.423893	-121.903195
42496		15.196069	-29.333970	-3.313252	23.754399	9.882164	11.172077	2.706044	1.335729	-0.906853	-0.873535	-0.235840	0.199463	0.150387	-0.293531	-0.038111	-0.308774	-0.582974	0.477493	-0.580345	-124.946761	-76.294657	-123.161391
42497		20.975568	-11.799211	6.897065	10.734757	-5.910304	12.017241	3.195929	1.597925	-0.643558	-0.875732	-0.240234	0.199463	0.209904	-0.119731	0.065390	-0.305099	-0.584744	0.463769	-0.591529	-120.722083	-77.104224	-125.618982
42498		22.634261	20.848365	8.449099	-17.989382	-19.743065	7.647695	2.507642	1.534837	-2.335181	-0.876953	-0.269043	0.184570	0.229401	0.204751	0.085321	-0.308158	-0.589356	0.447097	-0.598165	-118.828233	-78.701113	-126.083915
42499		24.010913	18.400847	5.317686	-16.667625	-15.917062	10.488278	0.053384	0.852135	-3.483914	-0.862793	-0.299805	0.176758	0.243489	0.179772	0.052193	-0.320298	-0.594613	0.435243	-0.595322	-122.059447	-80.675755	-122.767013
42500		20.135419	8.201509	2.755319	-7.719694	-8.420446	8.888857	-1.195965	0.571821	-3.394289	-0.857422	-0.326172	0.166260	0.202786	0.078742	0.026497	-0.335128	-0.598298	0.427718	-0.588886	-128.527912	-82.453427	-116.919060
42501		8.690357	-2.926461	0.639169	2.535172	-0.324536	-0.983487	-0.352890	0.302225	-3.364181	-0.838623	-0.356689	0.167236	0.086405	-0.030710	0.006314	-0.346728	-0.603957	0.418064	-0.583299	-138.939105	-83.979493	-106.637528
42502		2.595320	-4.226666	1.195404	4.292010	0.445120	-7.091018	1.422938	0.322044	-3.014140	-0.828857	-0.380859	0.169922	0.025330	-0.042735	0.011610	-0.351826	-0.611716	0.404190	-0.581938	-151.973591	-85.117456	-92.723721
42503		5.380599	4.997917	2.985543	-3.160874	-5.266153	-4.801230	1.773163	0.472273	-2.642660	-0.817139	-0.402588	0.170654	0.054529	0.048995	0.030165	-0.355037	-0.618751	0.390008	-0.582228	-168.057485	-85.901945	-75.570534
42504		9.093612	10.369770	0.024242	-9.028463	-5.209883	-0.781483	0.684870	0.887188	-2.217103	-0.807617	-0.420166	0.164307	0.092079	0.102680	0.000188	-0.361055	-0.621675	0.379545	-0.582327	173.572835	-86.476701	-56.765498
42505		9.479416	2.192536	-3.959131	-3.365174	2.130009	-0.092760	0.161128	1.004059	-1.795091	-0.802734	-0.437988	0.156006	0.094786	0.021107	-0.040050	-0.367711	-0.622446	0.371598	-0.582464	154.020725	-86.744598	-37.085612
42506		8.741350	4.279786	-0.518473	-3.608132	-1.714299	-0.922419	-0.214437	0.781413	-1.508696	-0.793213	-0.451172	0.147461	0.087712	0.042131	-0.005572	-0.374190	-0.622572	0.366072	-0.581701	137.186653	-86.623081	-20.344448
42507		10.933618	4.845982	3.976471	-1.890205	-5.866569	1.180317	-1.206484	0.753720	-1.675134	-0.788086	-0.470947	0.136963	0.109886	0.047778	0.039062	-0.384218	-0.621184	0.362868	-0.578648	121.438356	-86.142876	-5.256020
42508		9.282168	2.420093	1.111624	-1.010268	-2.060491	-0.432772	-0.825079	0.573369	-1.550059	-0.778809	-0.484375	0.121826	0.093037	0.023525	0.010752	-0.392269	-0.620742	0.359320	-0.575928	111.543209	-85.491763	4.193615
42509		9.120363	3.443137	-1.101779	-2.804958	-0.396746	-0.419967	-0.310438	0.457908	-1.361419	-0.771484	-0.501709	0.120117	0.091409	0.033792	-0.011280	-0.398011	-0.621274	0.355012	-0.574085	105.450754	-84.825286	10.131069
42510		10.481114	1.500646	-0.466806	-0.569900	-0.009274	0.770181	0.008349	0.470145	-1.236523	-0.764648	-0.508301	0.113770	0.104890	0.014358	-0.004914	-0.402340	-0.622138	0.350199	-0.573085	101.056652	-84.196810	14.552473
42511		9.959590	1.367007	-0.025390	-0.216497	-0.267255	0.234360	-0.009014	0.424058	-1.181038	-0.752930	-0.528076	0.109863	0.099673	0.013082	-0.000466	-0.406531	-0.622991	0.345623	-0.571979	97.759573	-83.558986	17.865076
42512		9.383398	1.111884	-0.320511	-0.089828	0.170494	-0.360229	-0.042172	0.319092	-1.152478	-0.743652	-0.539063	0.107910	0.093891	0.010577	-0.003357	-0.410483	-0.623990	0.341495	-0.570545	95.573657	-82.924285	20.044266
42513		9.783741	1.428646	0.142832	-0.038926	-0.295384	0.071302	0.053236	0.230618	-1.091341	-0.734375	-0.550049	0.099365	0.097915	0.013752	0.001319	-0.413909	-0.625295	0.337447	-0.569047	94.165463	-82.302815	21.486862
42514		10.513769	0.730041	1.202839	1.225363	-0.851990	0.689249	0.184986	0.146573	-1.033721	-0.720703	-0.561035	0.104004	0.105182	0.006746	0.011958	-0.416494	-0.627013	0.333377	-0.567668	93.410835	-81.717499	22.358259
42515		10.358300	2.027114	0.660257	-0.090911	-0.875245	0.726016	0.291583	0.075349	-0.985153	-0.709229	-0.569580	0.102051	0.103684	0.019751	0.006593	-0.418585	-0.629039	0.329290	-0.566273	93.070514	-81.147093	22.863218
42516		10.197533	2.837576	0.245291	-0.922088	-0.817721	0.703107	0.184839	0.033465	-0.947391	-0.702148	-0.582764	0.095947	0.102109	0.027890	0.002462	-0.420717	-0.630900	0.325709	-0.564691	92.894864	-80.606171	23.150738
42517		9.718771	2.391910	0.003998	-0.619474	-0.397609	0.168961	0.066484	0.014360	-0.858916	-0.690918	-0.587158	0.100342	0.097289	0.023501	0.000041	-0.423040	-0.632391	0.322770	-0.562972	92.734847	-80.105897	23.343495
42518		9.740116	2.429923	-0.062082	-0.605361	-0.317945	0.202810	0.050855	0.014328	-0.771336	-0.679443	-0.595703	0.100586	0.097494	0.023924	-0.000622	-0.425051	-0.633715	0.320152	-0.561462	92.614835	-79.664990	23.497366
42519		9.723309	2.780295	0.157232	-0.754363	-0.632365	0.253499	-0.034409	0.040493	-0.706391	-0.672363	-0.611084	0.101074	0.097331	0.027460	0.001548	-0.427292	-0.634654	0.317915	-0.559970	92.370094	-79.252669	23.718042
42520		9.599885	2.337711	-0.041315	-0.415001	-0.236312	0.056254	-0.053390	0.085148	-0.637525	-0.661377	-0.606689	0.098877	0.096073	0.023071	-0.000460	-0.429360	-0.635328	0.315855	-0.558788	92.026131	-78.889720	24.039576
42521		9.677484	2.698139	-0.119449	-0.701822	-0.278220	0.206178	-0.095999	0.100342	-0.589871	-0.652100	-0.619873	0.096924	0.096853	0.026695	-0.001256	-0.431554	-0.635769	0.314027	-0.557625	91.624657	-78.544933	24.384657
42522		9.941949	2.248546	-0.342706	-0.310413	0.175206	0.379879	-0.136711	0.133221	-0.541529	-0.638428	-0.626465	0.092773	0.099478	0.022214	-0.003509	-0.433687	-0.635967	0.312394	-0.556661	91.149410	-78.236809	24.792242
42523		9.790438	1.988038	-0.445809	-0.112664	0.405371	0.178632	-0.144215	0.142885	-0.496138	-0.624756	-0.635254	0.084229	0.097950	0.019634	-0.004542	-0.435782	-0.636056	0.310847	-0.555789	90.654477	-77.945248	25.215421
42524		9.758194	3.048775	-0.421726	-1.003020	-0.033927	0.370032	-0.156885	0.144915	-0.511612	-0.613525	-0.635010	0.086426	0.097656	0.030235	-0.004312	-0.437908	-0.636121	0.309336	-0.554886	90.181337	-77.652970	25.609914
42525		9.565272	2.907634	-0.136366	-0.752275	-0.209393	0.155129	-0.118311	0.145093	-0.501782	-0.606689	-0.643799	0.084473	0.095724	0.028835	-0.001450	-0.439931	-0.636259	0.307692	-0.554041	89.737889	-77.356999	25.996531
42526		9.605043	2.408973	0.119637	-0.157334	-0.188456	0.087505	-0.104372	0.146741	-0.499926	-0.595459	-0.648193	0.084717	0.096111	0.023850	0.001113	-0.441854	-0.636407	0.306063	-0.553243	89.328135	-77.070155	26.357773
42527		9.577274	1.833524	0.062290	0.355560	0.138691	-0.068765	-0.051781	0.137553	-0.477966	-0.583984	-0.654785	0.082520	0.095817	0.018106	0.000552	-0.443581	-0.636667	0.304324	-0.552520	88.976064	-76.786942	26.690618
42528		9.681049	1.744604	0.246981	0.571250	0.052171	0.010657	-0.055043	0.118179	-0.475693	-0.570557	-0.658936	0.082764	0.096853	0.017216	0.002408	-0.445230	-0.636957	0.302696	-0.551753	88.692480	-76.513360	26.952060
42529		9.912344	2.042206	0.602216	0.551860	-0.336099	0.305124	-0.044344	0.109895	-0.495564	-0.559082	-0.667725	0.080811	0.099177	0.020178	0.005963	-0.446932	-0.637328	0.300939	-0.550908	88.437063	-76.220057	27.190616
42530		9.840462	1.928743	0.303517	0.548322	0.004485	0.204595	0.010453	0.102309	-0.524015	-0.550049	-0.674316	0.078857	0.098456	0.019029	0.002986	-0.448476	-0.637873	0.299008	-0.550074	88.251326	-75.918557	27.390553
42531		9.662609	2.534816	0.229611	-0.005418	-0.169584	0.178056	0.010001	0.096754	-0.580970	-0.534180	-0.680664	0.085693	0.096700	0.025067	0.002251	-0.450212	-0.638519	0.296857	-0.549071	88.081362	-75.576529	27.573700
42532		9.635201	1.937697	0.037813	0.476176	0.282745	-0.000133	0.039555	0.093106	-0.604074	-0.518311	-0.685059	0.081299	0.096410	0.019086	0.000337	-0.451861	-0.639263	0.294606	-0.548062	87.954450	-75.229099	27.730673
42533		9.663170	1.906762	0.078755	0.578850	0.296081	0.015626	0.061906	0.096514	-0.616628	-0.507080	-0.691406	0.085938	0.096690	0.018769	0.000747	-0.453519	-0.640067	0.292194	-0.547044	87.832574	-74.866730	27.895412
42534		9.873738	2.439858	0.006911	0.186234	0.198962	0.354367	0.098722	0.116967	-0.662073	-0.489014	-0.697998	0.077393	0.098817	0.024072	0.000023	-0.455163	-0.640952	0.289536	-0.546055	87.707447	-74.485394	28.086215
42535		10.053103	2.114659	0.155628	0.635588	0.264239	0.438490	0.126821	0.143427	-0.711113	-0.479980	-0.702148	0.090820	0.100606	0.020788	0.001497	-0.456927	-0.641896	0.286533	-0.545055	87.549778	-74.067933	28.327390
42536		10.105859	2.380222	-0.216805	0.319182	0.538866	0.553028	0.138227	0.154812	-0.778904	-0.461670	-0.715332	0.082275	0.101149	0.023410	-0.002230	-0.458805	-0.642918	0.283298	-0.543963	87.399449	-73.618512	28.568781
42537		10.226151	2.560646	-0.349652	0.205366	0.648217	0.713010	0.079346	0.160479	-0.832838	-0.448242	-0.723877	0.091553	0.102364	0.025182	-0.003569	-0.461060	-0.643860	0.279987	-0.542655	87.214340	-73.130882	28.811319
42538		10.574395	2.173253	-0.758085	0.522096	1.279027	0.920732	-0.032260	0.154985	-0.875624	-0.425781	-0.723877	0.080566	0.105832	0.021268	-0.007666	-0.463734	-0.644602	0.276893	-0.541082	86.998278	-72.625687	29.020496
42539		10.866194	2.747874	-0.822844	0.159408	1.202184	1.360065	-0.206376	0.146307	-0.950772	-0.416504	-0.739014	0.087402	0.108785	0.026953	-0.008336	-0.467188	-0.645058	0.274000	-0.539036	86.713507	-72.070838	29.197203
42540		11.208709	3.003596	-0.270491	0.367654	0.725886	1.766020	-0.404696	0.170317	-1.063333	-0.387695	-0.734619	0.074219	0.112242	0.029434	-0.002860	-0.471566	-0.645117	0.271257	-0.536535	86.306280	-71.457146	29.384277
42541		12.059597	2.451568	-0.011027	1.295341	0.941512	2.388867	-0.532798	0.228377	-1.176922	-0.376221	-0.743408	0.081055	0.120737	0.023805	-0.000312	-0.476758	-0.644853	0.268303	-0.533742	85.759009	-70.769386	29.642044
42542		11.886345	1.684914	-0.017959	2.013463	1.329564	1.947435	-0.519364	0.315629	-1.297369	-0.351563	-0.750000	0.068115	0.118969	0.016077	-0.000410	-0.482288	-0.644514	0.264744	-0.530953	85.128438	-70.014426	29.998002
42543		12.018119	1.510346	-0.171562	2.261289	1.671730	1.970137	-0.500328	0.357671	-1.422570	-0.337891	-0.756348	0.074951	0.120281	0.014243	-0.001967	-0.488150	-0.644242	0.260578	-0.527977	84.494687	-69.178689	30.370339
42544		12.397441	1.722476	-0.103817	2.365272	1.720310	2.357638	-0.520594	0.401216	-1.552296	-0.317627	-0.760742	0.061768	0.124101	0.016259	-0.001330	-0.494412	-0.643930	0.255962	-0.524780	83.847885	-68.270974	30.746834
42545		12.780890	2.715718	0.241052	1.948793	1.248439	3.049017	-0.554071	0.461581	-1.705814	-0.288574	-0.762695	0.062012	0.128039	0.026072	0.002042	-0.501252	-0.643524	0.250737	-0.521300	83.161714	-67.265145	31.147214
42546		13.192640	2.618995	0.555927	2.475818	1.247844	3.360067	-0.578399	0.528137	-1.856852	-0.270752	-0.767090	0.057861	0.132176	0.024979	0.005137	-0.508572	-0.643011	0.244932	-0.517590	82.448632	-66.172198	31.565239
42547		13.620916	1.960519	1.021476	3.566252	1.339774	3.449902	-0.582506	0.617983	-2.018873	-0.246094	-0.766846	0.051270	0.136429	0.018258	0.009739	-0.516404	-0.642383	0.238331	-0.513683	81.697650	-64.973440	32.025560
42548		13.782564	1.577830	0.968903	4.133655	1.759810	3.347666	-0.577582	0.704896	-2.197974	-0.228027	-0.773438	0.051514	0.138021	0.014289	0.009160	-0.524689	-0.641673	0.230917	-0.509543	80.937654	-63.668072	32.504185
42549		15.553316	0.794673	0.819828	5.624684	2.817788	4.456843	-0.570534	0.846560	-2.384588	-0.201172	-0.777832	0.040527	0.155646	0.006113	0.007520	-0.533533	-0.640735	0.222453	-0.505288	80.117493	-62.237156	33.060060
42550		17.091217	-0.547082	0.982277	7.667899	3.782334	5.028231	-0.469033	1.039228	-2.568155	-0.185547	-0.781982	0.047363	0.170871	-0.007643	0.008951	-0.542609	-0.639670	0.212616	-0.501191	79.261285	-60.683447	33.731363
42551		19.008948	-1.060357	0.116893	8.816252	5.589874	6.108270	-0.252893	1.247091	-2.801243	-0.158691	-0.779785	0.038574	0.189919	-0.013264	-0.000000	-0.551698	-0.638775	0.200863	-0.497242	78.447292	-58.968425	34.507298
42552		19.087572	-0.974273	-0.061431	9.043121	6.135989	5.866129	-0.105074	1.368708	-3.088474	-0.143066	-0.786133	0.043213	0.190685	-0.012689	-0.001914	-0.560990	-0.638112	0.187456	-0.492913	77.747577	-57.075745	35.263851
42553		19.982700	-1.912867	-0.143329	10.514116	7.191907	5.700944	-0.076042	1.433439	-3.372141	-0.116211	-0.785889	0.043213	0.199450	-0.022495	-0.002856	-0.570784	-0.637432	0.172827	-0.487870	77.140201	-55.010906	35.945559
42554		21.641340	-1.714036	-0.404929	11.421238	8.386995	6.637344	-0.121214	1.515968	-3.589183	-0.095947	-0.792236	0.047852	0.216020	-0.021023	-0.005676	-0.581110	-0.636387	0.157325	-0.482257	76.556868	-52.811392	36.584224
42555		22.178681	-1.819567	-0.898645	11.982393	9.540112	6.353714	-0.246263	1.551838	-3.754507	-0.062500	-0.792236	0.043701	0.221315	-0.022366	-0.010679	-0.592029	-0.634763	0.141440	-0.475996	75.972164	-50.512373	37.151768
42556		22.999554	-1.592921	-1.439597	12.442633	10.776148	6.391219	-0.474526	1.588180	-3.869121	-0.049072	-0.798584	0.046143	0.229506	-0.020409	-0.016175	-0.603719	-0.632194	0.125559	-0.469137	75.318195	-48.139812	37.658464
42557		23.097465	-3.370532	-2.793443	13.615698	12.907613	4.349985	-0.713138	1.611906	-3.854451	-0.019775	-0.805176	0.032959	0.230032	-0.038249	-0.029660	-0.615863	-0.628552	0.110180	-0.462056	74.571473	-45.771530	38.123207
42558		22.279439	-2.186062	-3.980528	12.198897	13.755962	3.562001	-0.954365	1.527260	-3.787149	-0.006104	-0.816162	0.033447	0.222013	-0.026265	-0.041384	-0.628302	-0.624053	0.095759	-0.454561	73.781682	-43.446007	38.472343
42559		21.377093	-1.103684	-5.434339	10.664577	14.762129	2.678047	-0.478867	1.226567	-3.563788	0.016113	-0.813721	0.026611	0.213189	-0.014971	-0.055619	-0.638331	-0.621373	0.081903	-0.446901	73.421140	-41.295842	38.602899
42560		18.576159	-3.127874	-4.592087	11.025320	13.328454	-1.054274	1.104431	0.977598	-3.147758	0.022949	-0.820068	0.046875	0.185013	-0.033937	-0.047009	-0.642222	-0.623928	0.066526	-0.440271	74.030306	-39.408366	38.643071
42561		13.761809	-3.741506	-2.157662	9.763237	9.188411	-4.494713	1.532283	0.804107	-2.716704	0.038818	-0.824463	0.049316	0.137005	-0.039109	-0.022424	-0.643558	-0.627926	0.052150	-0.434536	74.890558	-37.794890	38.675266
42562		9.491844	-2.746311	-2.588021	6.355042	7.382766	-6.740491	0.597058	0.650012	-2.441493	0.043213	-0.826416	0.055908	0.094489	-0.028540	-0.026272	-0.647089	-0.629038	0.041094	-0.428833	75.236789	-36.348000	38.672292
42563		8.185179	-0.142016	1.159911	5.835598	3.196097	-4.904456	-0.375940	0.729982	-2.148240	0.050293	-0.835449	0.040771	0.081872	-0.002278	0.011304	-0.652931	-0.626685	0.032853	-0.424107	74.962204	-35.062154	38.778001
42564		2.623197	12.109063	-1.605321	-6.267129	1.092514	0.939477	-1.602553	0.105312	-1.909978	0.057129	-0.842041	0.025391	0.027377	0.120699	-0.017036	-0.661955	-0.621515	0.029923	-0.417898	74.207561	-33.991878	38.493521
42565		7.816788	6.891890	-4.904661	-1.258106	7.459937	-1.128583	-2.281229	-0.325438	-1.895911	0.059814	-0.853271	-0.003174	0.078893	0.067609	-0.049695	-0.672830	-0.614892	0.029946	-0.410256	73.224744	-33.012629	37.911205
42566		12.671910	-8.232986	-6.560587	10.325421	12.760463	-11.206309	-3.081328	-0.257135	-0.807848	0.052979	-0.849365	-0.036377	0.126466	-0.083837	-0.064159	-0.683822	-0.605117	0.034647	-0.406227	71.643286	-32.616612	37.575934
42567		6.381988	-11.055021	-4.353300	9.078488	7.557442	-16.320123	-3.276474	-0.347610	0.773707	0.028809	-0.856445	-0.067383	0.064322	-0.110994	-0.041606	-0.691945	-0.594441	0.044910	-0.407228	69.798095	-33.113322	37.523439
42568		0.547283	-8.179793	-0.420341	5.315170	0.899498	-16.003046	-2.407383	-0.496156	1.462445	0.010986	-0.852539	-0.085205	0.006080	-0.081798	-0.003204	-0.695927	-0.586754	0.055874	-0.410223	68.399993	-33.998378	37.561570
42569		1.383955	-3.865708	0.472401	3.583739	0.374777	-11.837004	-1.505445	-0.564903	1.524022	-0.015869	-0.848389	-0.100830	0.014119	-0.038513	0.005054	-0.696953	-0.582254	0.065488	-0.413459	67.523486	-34.942871	37.592233
42570		3.177438	-2.252426	-0.087165	3.504794	1.696167	-9.686312	-1.287126	-0.718415	1.730989	-0.040283	-0.853271	-0.109619	0.031970	-0.022253	-0.000613	-0.696828	-0.578670	0.075691	-0.416945	66.785351	-36.017589	37.597359
42571		3.941215	-3.588157	-1.091196	4.527181	2.950067	-10.444370	-0.719495	-0.923214	2.168620	-0.075928	-0.853516	-0.120850	0.039848	-0.035490	-0.010601	-0.693921	-0.577261	0.086771	-0.421561	66.371603	-37.381972	37.605198
42572		4.445152	-3.456860	-1.057813	4.777546	3.161578	-9.887151	0.194314	-1.033526	2.620034	-0.106934	-0.853760	-0.125244	0.044953	-0.033972	-0.010380	-0.687306	-0.578940	0.097504	-0.427705	66.440721	-38.995618	37.677257
42573		4.972145	-2.850791	-0.403895	4.889613	2.823916	-8.751163	0.873052	-1.145925	3.008046	-0.147217	-0.849365	-0.105713	0.050165	-0.027738	-0.003875	-0.677622	-0.582879	0.108366	-0.435128	66.878958	-40.852776	37.778673
42574		5.584490	-1.962152	-0.010916	4.699878	2.700018	-7.434816	1.351755	-1.296037	3.353108	-0.185303	-0.849609	-0.101318	0.056163	-0.018682	0.000126	-0.665546	-0.588375	0.119571	-0.443358	67.604863	-42.912565	37.855065
42575		5.697221	-1.231016	-0.132833	4.091607	2.757822	-6.707799	1.772586	-1.403703	3.677686	-0.227783	-0.843018	-0.079590	0.057194	-0.011250	-0.001030	-0.651110	-0.595080	0.131204	-0.452462	68.587015	-45.182762	37.907534
42576		5.820762	-1.043980	-0.700706	3.690410	3.236140	-6.441532	2.103929	-1.476321	4.024154	-0.263916	-0.832275	-0.066650	0.058451	-0.009194	-0.006677	-0.634578	-0.602479	0.143188	-0.462415	69.766166	-47.639355	37.947325
42577		6.246711	-0.606474	-0.892071	3.357377	3.428199	-5.671120	2.297468	-1.523452	4.382387	-0.317627	-0.823486	-0.042725	0.062644	-0.004594	-0.008502	-0.616141	-0.609976	0.155964	-0.473260	71.065985	-50.313136	37.973270
42578		6.814340	-0.247395	-0.935769	3.152897	3.490909	-4.789337	2.335670	-1.561408	4.748398	-0.369629	-0.803711	-0.019043	0.068245	-0.000749	-0.008841	-0.596316	-0.616950	0.169670	-0.484761	72.404949	-53.177819	37.975672
42579		7.623610	-0.123179	-0.729607	3.275927	3.397181	-3.781135	2.330700	-1.563963	5.078334	-0.416992	-0.786133	0.004639	0.076287	0.000785	-0.006698	-0.575153	-0.623140	0.184378	-0.496890	73.761881	-56.238252	37.953109
42580		8.686528	0.296204	-0.619012	3.151936	3.313563	-2.397060	2.282108	-1.550055	5.348634	-0.464844	-0.757813	0.023682	0.086788	0.005349	-0.005465	-0.553051	-0.628359	0.199745	-0.509314	75.128497	-59.429367	37.886514
42581		9.608053	0.607249	-0.370372	3.010307	2.981774	-1.161631	2.125808	-1.521766	5.588091	-0.516602	-0.738037	0.047363	0.095884	0.008787	-0.002890	-0.530266	-0.632245	0.216100	-0.521905	76.462234	-62.763479	37.757924
42582		10.618394	0.967409	-0.227936	2.716899	2.651606	0.151802	1.841834	-1.489855	5.769926	-0.569336	-0.698730	0.068359	0.105858	0.012747	-0.001382	-0.507505	-0.634493	0.233375	-0.534223	77.719506	-66.177159	37.537118
42583		11.775509	1.686912	-0.070094	2.058950	2.090247	1.713814	1.458702	-1.467937	5.912081	-0.610596	-0.656982	0.086914	0.117188	0.020339	0.000301	-0.485024	-0.634911	0.251942	-0.546045	78.904214	-69.681320	37.164001
42584		12.769693	3.315780	0.165009	0.490268	0.916828	3.338325	1.146186	-1.520914	6.004136	-0.667480	-0.619873	0.101318	0.126607	0.036956	0.002820	-0.462822	-0.633982	0.271431	-0.556945	80.270114	-73.222909	36.419001
42585		13.724856	4.838862	0.489016	-1.086102	-0.451681	4.698401	0.716151	-1.572192	6.067620	-0.707031	-0.571777	0.115479	0.135652	0.052500	0.006144	-0.441186	-0.631467	0.292268	-0.566731	82.022994	-76.813440	35.032845
42586		14.680313	5.912752	0.629148	-2.472226	-1.569944	5.750350	0.283278	-1.617205	6.096358	-0.741943	-0.525635	0.123047	0.144853	0.063553	0.007556	-0.420418	-0.627469	0.314128	-0.575200	84.770881	-80.391167	32.398984
42587		15.431741	7.163687	0.658163	-4.202093	-2.765740	6.450378	-0.114627	-1.672480	6.104672	-0.774658	-0.479736	0.135010	0.151974	0.076304	0.007816	-0.400277	-0.622130	0.337054	-0.582345	90.708208	-83.944414	26.345197
42588		16.353946	9.345489	0.726688	-6.812159	-4.447368	7.187841	-0.544263	-1.738952	6.067378	-0.805176	-0.429199	0.146973	0.160535	0.098378	0.008408	-0.381156	-0.615585	0.360816	-0.587867	112.071774	-87.213929	4.617519
42589		17.320127	12.819584	1.023828	-10.577223	-6.918551	7.665600	-0.925376	-1.783966	5.912710	-0.835693	-0.378906	0.156738	0.169214	0.133288	0.011151	-0.363117	-0.608091	0.385034	-0.591709	-158.723471	-87.782757	-85.168801
42590		17.705593	16.496419	1.377706	-14.576500	-9.415861	7.105465	-1.230564	-1.735275	5.613841	-0.859619	-0.328369	0.161865	0.172210	0.169931	0.014250	-0.346729	-0.599926	0.408711	-0.593989	-127.795010	-84.953003	-116.851486
42591		17.470583	19.169859	1.788291	-17.606909	-11.295156	5.619959	-1.390026	-1.620576	5.066184	-0.876465	-0.286865	0.169678	0.169629	0.196163	0.017918	-0.332317	-0.591746	0.430751	-0.594857	-120.933563	-82.013576	-124.554028
42592		16.421952	21.500232	2.331989	-20.078309	-12.832220	3.204779	-1.365687	-1.523417	4.254679	-0.879883	-0.249268	0.184082	0.159418	0.218586	0.023062	-0.320310	-0.584696	0.449805	-0.594313	-118.904785	-79.463468	-127.399471
42593		14.479225	23.275417	2.932275	-21.729709	-13.839194	-0.004059	-1.358285	-1.430709	3.311757	-0.887451	-0.222900	0.187988	0.140703	0.235303	0.028747	-0.311090	-0.579219	0.465771	-0.592271	-118.726835	-77.396458	-128.372974
42594		11.923285	24.744208	3.953146	-22.666126	-14.777298	-3.656399	-1.450086	-1.312997	2.346776	-0.892334	-0.207520	0.194092	0.116061	0.249098	0.038498	-0.305225	-0.575334	0.478844	-0.588674	-119.570276	-75.854630	-128.357677
42595		9.877860	25.611093	5.622475	-22.773967	-15.997368	-6.569726	-1.558611	-1.112547	1.412218	-0.892578	-0.203125	0.200684	0.096658	0.257229	0.054765	-0.302820	-0.572824	0.489176	-0.583849	-121.014407	-74.829150	-127.785918
42596		8.485938	25.298151	6.950856	-21.996521	-16.560444	-8.324391	-1.417589	-0.865632	0.534447	-0.892578	-0.203125	0.205078	0.083885	0.253692	0.068077	-0.303170	-0.571890	0.496131	-0.578691	-122.768734	-74.305951	-126.806173
42597		8.268333	23.779826	7.086107	-20.684222	-15.933603	-8.283716	-1.070378	-0.564206	-0.219638	-0.894531	-0.207275	0.207520	0.082747	0.238083	0.069821	-0.305442	-0.572461	0.499442	-0.574066	-124.595329	-74.230209	-125.543814
42598		11.672135	21.503255	6.374732	-19.429757	-15.203488	-4.280842	-0.463471	-0.236804	-0.844511	-0.889893	-0.218262	0.207764	0.117553	0.214685	0.063388	-0.308576	-0.574548	0.498705	-0.570936	-126.262690	-74.544607	-124.085891
42599		14.799650	14.620552	2.746719	-14.720019	-10.372644	0.960446	0.282669	0.098542	-0.947560	-0.887207	-0.229248	0.203613	0.148700	0.145463	0.027600	-0.310717	-0.577094	0.494993	-0.570438	-127.142446	-75.016067	-123.004793
42600		14.597003	1.784715	3.283431	-2.460346	-6.654321	3.480041	0.960027	1.169417	-1.674883	-0.886963	-0.240479	0.195068	0.146301	0.016468	0.032061	-0.315578	-0.579373	0.485568	-0.573551	-126.756205	-76.184451	-122.833249
42601		18.507532	-33.629122	-8.146601	25.524066	15.558472	15.605517	3.235179	1.710822	-1.033634	-0.886963	-0.240479	0.190674	0.182602	-0.335846	-0.088470	-0.313284	-0.582015	0.470474	-0.584607	-122.949154	-77.234965	-124.838709
42602		23.921549	-14.909297	2.128817	11.336265	-0.356205	16.077820	4.656324	1.613037	-0.687086	-0.882324	-0.242676	0.190674	0.238843	-0.150326	0.015870	-0.305420	-0.586044	0.452188	-0.598997	-117.547545	-78.039643	-127.634785
42603		26.969435	25.716090	14.034072	-20.068501	-27.347434	11.040159	2.132682	1.798352	-2.604805	-0.874756	-0.269043	0.180176	0.274263	0.252110	0.140595	-0.310979	-0.589725	0.435319	-0.604991	-114.992028	-79.835949	-128.991266
42604		22.510669	19.617100	9.235438	-15.601600	-19.471697	9.006799	-0.672141	0.735542	-3.959798	-0.860107	-0.310791	0.170410	0.229271	0.191966	0.090866	-0.326455	-0.594965	0.424437	-0.599414	-119.557126	-82.046071	-124.757006
42605		13.856747	6.987771	3.597973	-5.588553	-7.643179	2.997627	-0.773892	0.356131	-3.897101	-0.848145	-0.339355	0.164551	0.139959	0.067297	0.035468	-0.341152	-0.600817	0.414450	-0.592339	-128.943025	-84.018491	-115.747567
42606		5.641407	-3.409305	1.877639	3.711822	-0.725449	-4.097239	-0.581565	0.577188	-3.594675	-0.835693	-0.376709	0.160889	0.055844	-0.035046	0.018716	-0.354663	-0.605477	0.404314	-0.586636	-143.264572	-85.695906	-101.702443
42607		6.148437	4.825577	5.346955	-2.118666	-7.262718	-4.117340	0.039510	0.746963	-3.197578	-0.826172	-0.400635	0.155029	0.062444	0.047252	0.053247	-0.365412	-0.609767	0.393089	-0.583215	-166.260322	-86.891913	-78.636326
42608		9.081048	6.403399	2.965370	-4.329270	-5.799822	-0.875604	0.243309	0.772840	-2.964831	-0.807617	-0.420410	0.144531	0.091860	0.062642	0.029377	-0.374772	-0.613728	0.381877	-0.580563	159.735637	-87.251422	-44.448652
42609		7.440908	1.434179	-1.316806	-1.532755	0.384415	-2.285529	0.146078	0.624014	-2.360846	-0.797852	-0.446777	0.140869	0.074530	0.013472	-0.013390	-0.382373	-0.616678	0.372955	-0.578276	133.923130	-86.795683	-18.516917
42610		9.200594	4.466951	-4.403250	-5.343440	1.974721	-0.245215	-0.409025	0.625031	-2.161161	-0.783936	-0.466553	0.134766	0.092342	0.043582	-0.044411	-0.391004	-0.618095	0.366250	-0.575270	117.574141	-85.991150	-2.368791
42611		9.588399	3.186379	-1.100467	-2.597030	-0.308509	0.008590	-0.770750	0.599984	-2.008403	-0.776367	-0.488525	0.126465	0.096163	0.030856	-0.011413	-0.400269	-0.618530	0.361009	-0.571733	107.402891	-85.048906	7.392117
42612		9.347840	2.079632	1.981969	-0.193124	-2.505185	-0.361792	-0.776186	0.517538	-1.811626	-0.771484	-0.503906	0.117920	0.093713	0.020024	0.019499	-0.408742	-0.618751	0.356567	-0.568276	101.240434	-84.115166	13.137606
42613		8.832464	3.228402	1.706022	-1.283358	-2.627510	-0.713638	-0.192213	0.428198	-1.577841	-0.757568	-0.521484	0.120605	0.088612	0.031602	0.016840	-0.414601	-0.619961	0.351288	-0.565996	97.588646	-83.255282	16.702696
42614		9.948050	3.795291	-0.062490	-2.281116	-1.114679	0.527710	0.049854	0.380086	-1.424537	-0.750732	-0.528076	0.109863	0.099746	0.037243	-0.000805	-0.419115	-0.621490	0.345930	-0.564291	95.180865	-82.468237	19.160359
42615		10.128134	4.217041	0.089135	-2.459582	-1.324771	0.796933	0.030843	0.383445	-1.326407	-0.739014	-0.541260	0.103516	0.101560	0.041497	0.000703	-0.423447	-0.622779	0.340853	-0.562724	93.211452	-81.718260	21.168382
42616		8.977935	3.903329	0.400175	-2.098019	-1.454880	-0.353317	-0.045345	0.334870	-1.275710	-0.734131	-0.558838	0.097412	0.090032	0.038460	0.003842	-0.427719	-0.623918	0.336289	-0.560974	91.731121	-80.996404	22.641763
42617		9.259332	1.555176	0.969874	0.383853	-0.926783	-0.427210	0.051117	0.250354	-1.136626	-0.718262	-0.569824	0.095459	0.092692	0.015023	0.009587	-0.431194	-0.625252	0.332001	-0.559380	90.795858	-80.340269	23.621147
42618		10.558296	1.126895	1.277230	1.186936	-0.881154	0.779408	0.097579	0.181756	-1.046078	-0.713379	-0.578613	0.097900	0.105652	0.010710	0.012682	-0.434091	-0.626699	0.328058	-0.557845	90.240375	-79.742107	24.244251
42619		10.699692	2.002022	1.174644	0.480572	-1.077171	1.072121	0.158798	0.081042	-0.975615	-0.701904	-0.591553	0.098389	0.107098	0.019489	0.011719	-0.436473	-0.628435	0.324322	-0.556215	90.070519	-79.175357	24.511443
42620		10.511124	3.771577	1.059258	-1.083324	-1.664131	1.227542	0.114937	0.024168	-0.950045	-0.688477	-0.593750	0.096191	0.105290	0.037210	0.010601	-0.438769	-0.630169	0.320958	-0.554396	90.073749	-78.631292	24.577635
42621		10.279830	3.707245	0.944071	-1.019255	-1.511188	1.003339	0.109867	-0.001337	-0.914710	-0.678955	-0.611328	0.096680	0.102966	0.036597	0.009462	-0.440982	-0.631899	0.317716	-0.552536	90.132919	-78.099448	24.583314
42622		9.275613	3.583430	0.309120	-1.277080	-0.937340	0.008890	0.127272	-0.032021	-0.844855	-0.663086	-0.617676	0.096924	0.092906	0.035440	0.003129	-0.442840	-0.633621	0.314760	-0.550766	90.293408	-77.615566	24.496128
42623		9.291044	4.079587	-0.057881	-1.792751	-0.778605	0.144683	0.060808	-0.034658	-0.736206	-0.654053	-0.626465	0.097168	0.093060	0.040454	-0.000550	-0.444647	-0.635029	0.312280	-0.549098	90.403010	-77.185923	24.421297
42624		9.632108	2.230498	-0.111372	-0.048197	0.082921	0.074452	0.011115	-0.006904	-0.602246	-0.647217	-0.626465	0.097168	0.096388	0.022015	-0.001109	-0.446233	-0.636027	0.310348	-0.547750	90.425821	-76.841084	24.406815
42625		9.660189	3.163170	-0.613270	-1.025576	0.186182	0.317184	-0.082876	0.033142	-0.527588	-0.633545	-0.639404	0.095215	0.096684	0.031374	-0.006162	-0.448021	-0.636591	0.308769	-0.546527	90.288209	-76.531329	24.501200
42626		9.661522	3.045612	-0.306179	-0.749567	-0.016190	0.294349	-0.136045	0.063911	-0.476325	-0.626709	-0.641602	0.097656	0.096686	0.030224	-0.003113	-0.449834	-0.636862	0.307478	-0.545449	90.065218	-76.258779	24.652828
42627		9.454818	2.625493	-0.437978	-0.440410	0.282533	-0.004289	-0.147610	0.065730	-0.427183	-0.617676	-0.648193	0.088867	0.094603	0.026050	-0.004430	-0.451596	-0.637029	0.306319	-0.544448	89.828034	-76.006543	24.811814
42628		9.679120	2.872964	-1.026693	-0.821334	0.766093	0.273529	-0.148615	0.054970	-0.385844	-0.608643	-0.650391	0.093506	0.096844	0.028535	-0.010315	-0.453184	-0.637150	0.305367	-0.543521	89.631145	-75.785588	24.929430
42629		9.659421	2.159103	-0.834825	-0.085041	0.901734	0.078855	-0.183971	0.053619	-0.339882	-0.594971	-0.661377	0.087158	0.096628	0.021419	-0.008394	-0.454800	-0.637129	0.304611	-0.542618	89.411728	-75.583364	25.048928
42630		9.805518	2.299412	-0.273698	0.084310	0.371668	0.255333	-0.212480	0.029727	-0.323879	-0.586182	-0.658936	0.087158	0.098092	0.022832	-0.002776	-0.456382	-0.637075	0.304085	-0.541649	89.241846	-75.397884	25.101061
42631		9.796161	3.062085	0.150720	-0.386349	-0.296491	0.440437	-0.237106	0.037276	-0.357947	-0.574951	-0.663330	0.089600	0.098016	0.030447	0.001453	-0.458186	-0.636999	0.303453	-0.540569	89.037116	-75.185554	25.174143
42632		9.625500	2.736472	0.394173	-0.008048	-0.383931	0.194624	-0.215200	0.030702	-0.402272	-0.570068	-0.669922	0.091797	0.096310	0.027175	0.003898	-0.459985	-0.637049	0.302680	-0.539414	88.872654	-74.955075	25.219155
42633		9.644579	1.899120	0.181215	0.682163	0.164913	-0.006325	-0.171719	0.015734	-0.406160	-0.561035	-0.674316	0.087646	0.096484	0.018797	0.001788	-0.461673	-0.637248	0.301765	-0.538249	88.759706	-74.715478	25.236109
42634		10.030606	2.137612	-0.155156	0.462153	0.443529	0.424308	-0.168589	0.028492	-0.411091	-0.540771	-0.680664	0.087891	0.100349	0.021169	-0.001584	-0.463339	-0.637418	0.300840	-0.537132	88.632141	-74.479926	25.270651
42635		10.449937	1.761748	-0.231478	0.902208	0.732405	0.723343	-0.173043	0.045140	-0.428446	-0.531738	-0.687256	0.079102	0.104536	0.017392	-0.002353	-0.465129	-0.637561	0.299788	-0.536002	88.464165	-74.227445	25.344006
42636		10.060614	1.629151	-0.027294	1.045134	0.578846	0.308739	-0.129591	0.087673	-0.475111	-0.524902	-0.693848	0.085938	0.100644	0.016052	-0.000328	-0.466926	-0.637752	0.298414	-0.534978	88.249726	-73.954205	25.492202
42637		10.054426	2.270450	-0.039117	0.517966	0.375701	0.475083	-0.084936	0.145412	-0.555662	-0.509033	-0.702393	0.079590	0.100606	0.022425	-0.000474	-0.468917	-0.638013	0.296486	-0.533996	87.952638	-73.627206	25.752806
42638		10.045749	2.170020	-0.275718	0.557558	0.670491	0.431397	-0.045904	0.183794	-0.637859	-0.490967	-0.704590	0.082031	0.100523	0.021379	-0.002854	-0.471017	-0.638374	0.294139	-0.533013	87.628108	-73.258273	26.066365
42639		10.437509	1.486200	-0.705681	1.140998	1.424903	0.594792	-0.053100	0.246460	-0.709220	-0.486572	-0.708740	0.088623	0.104418	0.014490	-0.007189	-0.473453	-0.638653	0.291393	-0.532030	87.197308	-72.840216	26.486850
42640		11.230389	1.879803	-1.126460	0.898627	1.825405	1.447142	-0.067975	0.313953	-0.811026	-0.463867	-0.715576	0.071289	0.112361	0.018339	-0.011447	-0.476262	-0.638849	0.288236	-0.531005	86.672356	-72.366925	26.998591
42641		11.627279	2.059907	-1.098346	0.935719	1.866120	1.861385	-0.110746	0.408517	-0.948475	-0.448242	-0.721924	0.080322	0.116346	0.020041	-0.011232	-0.479730	-0.638881	0.284485	-0.529867	85.996983	-71.804308	27.643686
42642		11.823155	1.814194	-0.993960	1.334820	1.990810	1.948238	-0.169598	0.495248	-1.113286	-0.432373	-0.730713	0.073975	0.118305	0.017475	-0.010247	-0.483898	-0.638751	0.280183	-0.528524	85.208986	-71.146944	28.374704
42643		12.205110	1.656699	-0.735814	1.790458	1.992593	2.231896	-0.248519	0.578373	-1.300693	-0.420898	-0.737061	0.072021	0.122133	0.015763	-0.007731	-0.488937	-0.638448	0.275244	-0.526845	84.320075	-70.369689	29.167479
42644		12.549545	1.463884	-0.199294	2.398711	1.772027	2.466410	-0.363535	0.670179	-1.492266	-0.391602	-0.750244	0.067871	0.125592	0.013698	-0.002439	-0.494915	-0.637843	0.269788	-0.524814	83.326052	-69.478755	30.006492
42645		13.242250	1.164992	0.545888	3.311942	1.489285	2.986547	-0.432808	0.767555	-1.688225	-0.382568	-0.754395	0.068115	0.132534	0.010543	0.004927	-0.501746	-0.637027	0.263596	-0.522460	82.263377	-68.459628	30.881479
42646		13.674914	0.503334	0.973193	4.353369	1.612515	3.096413	-0.379076	0.921717	-1.893647	-0.346680	-0.760986	0.055176	0.136832	0.003756	0.009094	-0.509068	-0.636146	0.256226	-0.520112	81.151815	-67.310298	31.849326
42647		14.161670	0.336002	1.244742	4.952336	1.751785	3.401373	-0.318860	1.077156	-2.133540	-0.333008	-0.769531	0.062012	0.141706	0.001868	0.011681	-0.516977	-0.635239	0.247481	-0.517647	80.025944	-65.999797	32.878748
42648		15.263059	-0.033258	1.621564	6.011693	2.049478	4.160037	-0.243719	1.221747	-2.383834	-0.308350	-0.776123	0.049072	0.152708	-0.002133	0.015285	-0.525368	-0.634358	0.237359	-0.515014	78.939504	-64.529653	33.923658
42649		16.327847	-0.993362	1.505162	7.405536	3.053229	4.528416	-0.152674	1.374632	-2.639405	-0.281250	-0.784668	0.053711	0.163227	-0.012077	0.013938	-0.534222	-0.633496	0.225722	-0.512191	77.908425	-62.887395	34.978233
42650		19.232866	-2.061919	1.413836	9.642109	4.633462	6.363869	-0.041029	1.517021	-2.917344	-0.250000	-0.789063	0.045166	0.192101	-0.023420	0.012685	-0.543446	-0.632726	0.212504	-0.509084	76.979022	-61.067468	36.006941
42651		22.680198	-2.766932	0.397310	11.509760	7.255626	8.545688	0.210473	1.728591	-3.156152	-0.227295	-0.797607	0.054199	0.226351	-0.031247	0.001984	-0.552556	-0.632163	0.197239	-0.506111	76.159173	-59.077176	37.094080
42652		21.687979	-2.449477	-0.262043	10.958238	8.001936	7.282981	0.378433	1.806009	-3.472509	-0.200439	-0.803955	0.056641	0.216375	-0.028247	-0.004627	-0.561804	-0.631959	0.180278	-0.502497	75.553615	-56.895654	38.066561
42653		22.297119	-1.537806	-0.455166	10.841656	8.677018	7.703791	0.270795	1.788926	-3.824955	-0.171387	-0.808105	0.056885	0.222570	-0.019629	-0.006568	-0.572032	-0.631544	0.162447	-0.497536	75.072677	-54.516418	38.838512
42654		23.085975	-3.603171	-1.668986	12.702492	11.221333	6.354348	0.230330	1.813928	-3.937602	-0.148926	-0.814453	0.059326	0.229927	-0.040544	-0.018823	-0.582421	-0.630759	0.144215	-0.492067	74.653705	-52.067901	39.528507
42655		22.659020	-2.998513	-2.168851	12.229895	11.880766	5.559971	0.083191	1.831234	-3.994729	-0.117432	-0.818848	0.050781	0.225720	-0.034490	-0.023772	-0.593145	-0.629238	0.126060	-0.486156	74.217463	-49.584157	40.154815
42656		21.903002	-2.503485	-3.834044	11.111827	13.394242	4.249735	-0.141779	1.753167	-3.986170	-0.094971	-0.827393	0.059814	0.218126	-0.029417	-0.040235	-0.604228	-0.626939	0.108636	-0.479640	73.763006	-47.112511	40.657296
42657		21.400069	0.045562	-4.558376	9.080983	13.628124	4.695426	-0.069208	1.471181	-3.944723	-0.070313	-0.833740	0.060059	0.213611	-0.003776	-0.047155	-0.614539	-0.625222	0.091999	-0.472203	73.547978	-44.711428	40.903974
42658		19.765838	2.090050	-4.624590	7.159895	12.859009	4.321557	0.543220	1.176564	-3.815889	-0.058838	-0.840088	0.064697	0.197734	0.017256	-0.047359	-0.622251	-0.625761	0.075156	-0.464304	73.831779	-42.424506	40.947224
42659		15.988073	1.547783	-3.741791	6.197885	10.693885	1.105983	0.905429	0.913793	-3.521659	-0.036621	-0.837891	0.066895	0.159949	0.012833	-0.038087	-0.627789	-0.627693	0.059223	-0.456481	74.397293	-40.347318	40.880096
42660		10.895735	0.142152	-4.447494	4.046090	9.205711	-3.697729	0.694859	0.629536	-3.190559	-0.025146	-0.848633	0.073975	0.108822	-0.000160	-0.044816	-0.632975	-0.629315	0.045642	-0.448578	74.910903	-38.489706	40.701974
42661		8.546577	-3.795220	-2.636016	6.132906	7.320246	-8.026078	-0.024699	0.567490	-2.686820	-0.009521	-0.848633	0.069580	0.084870	-0.039098	-0.026597	-0.639104	-0.628547	0.035494	-0.441832	74.967595	-36.926697	40.590682
42662		3.517227	3.131472	-3.267879	-1.398222	4.032198	-5.986327	-1.007052	0.132520	-2.085720	-0.007324	-0.848633	0.054199	0.035473	0.030781	-0.032858	-0.646842	-0.625384	0.030741	-0.435367	74.571193	-35.754413	40.289835
42663		6.339752	0.868524	-4.541909	1.179855	7.009888	-6.489886	-2.404132	-0.161663	-1.764343	0.001465	-0.846924	0.023193	0.063504	0.007579	-0.045463	-0.658056	-0.618196	0.031032	-0.428758	73.458433	-34.816745	39.836980
42664		11.409875	-9.043902	-6.538882	9.612052	12.546030	-12.031078	-3.529294	-0.357565	-0.659445	-0.009033	-0.858398	-0.018799	0.113912	-0.091947	-0.063571	-0.670202	-0.607372	0.037734	-0.424858	71.653243	-34.518498	39.459663
42665		9.032378	-9.898658	-5.353420	9.512621	10.084738	-13.814843	-3.713707	-0.551556	0.316690	-0.024414	-0.863281	-0.053955	0.090625	-0.099811	-0.051436	-0.680531	-0.595972	0.048490	-0.423489	69.695528	-34.804191	39.167042
42666		2.337720	-8.392404	-2.650891	5.769697	3.951506	-15.644636	-3.434421	-0.737202	1.104424	-0.046631	-0.863770	-0.084961	0.023936	-0.084231	-0.024977	-0.688119	-0.585499	0.061556	-0.424139	67.847167	-35.547834	38.963753
42667		0.664272	-6.641539	-1.356511	4.300230	1.753383	-14.794754	-2.769442	-0.882009	1.501806	-0.073486	-0.855713	-0.118408	0.007199	-0.066542	-0.012613	-0.692620	-0.577343	0.074926	-0.425838	66.361152	-36.548261	38.798824
42668		2.578571	-6.111911	-0.854066	5.471700	2.182636	-12.979310	-1.890134	-1.075901	1.831038	-0.095947	-0.851563	-0.129883	0.026388	-0.060956	-0.007823	-0.693691	-0.572365	0.087957	-0.428316	65.382982	-37.758650	38.629107
42669		4.229363	-6.343143	-1.016649	6.684687	3.098902	-12.018273	-0.944226	-1.295845	2.238355	-0.129150	-0.854248	-0.140869	0.043064	-0.062999	-0.009591	-0.690904	-0.570867	0.100949	-0.431940	64.955096	-39.246020	38.453078
42670		5.093435	-5.500653	-0.914692	6.696600	3.392235	-10.637914	-0.109290	-1.469935	2.675868	-0.165283	-0.843506	-0.141357	0.051729	-0.054323	-0.008739	-0.684601	-0.572267	0.113891	-0.436877	64.992628	-40.992511	38.301285
42671		5.441466	-4.506342	-0.568620	6.302088	3.215470	-9.388625	0.533159	-1.613379	3.087215	-0.207764	-0.836914	-0.135010	0.055146	-0.044201	-0.005362	-0.675242	-0.575806	0.127147	-0.443090	65.390950	-42.998384	38.167581
42672		5.744201	-3.492821	-0.238847	5.794375	2.996566	-8.171501	1.070767	-1.760949	3.462191	-0.239014	-0.834961	-0.126221	0.058054	-0.033915	-0.002062	-0.663219	-0.581025	0.140664	-0.450294	66.110349	-45.222390	38.018932
42673		6.146597	-2.370893	-0.146208	5.112918	2.961840	-6.896733	1.542757	-1.898266	3.822431	-0.286133	-0.830566	-0.111084	0.061915	-0.022519	-0.001053	-0.648556	-0.587608	0.154638	-0.458452	67.136292	-47.677252	37.827598
42674		6.536083	-1.703231	-0.215455	4.653332	3.037220	-5.967959	1.938158	-1.982350	4.177276	-0.328857	-0.815430	-0.091553	0.065715	-0.015644	-0.001660	-0.631536	-0.595042	0.168849	-0.467523	68.419382	-50.323320	37.602304
42675		6.987501	-1.190941	-0.327970	4.269040	3.126929	-5.086325	2.258678	-2.009865	4.544142	-0.380615	-0.806641	-0.065430	0.070150	-0.010285	-0.002698	-0.612188	-0.602841	0.183458	-0.477653	69.910706	-53.179669	37.355530
42676		7.783423	-0.872509	-0.240015	4.203691	3.118450	-3.982552	2.500799	-1.996454	4.929112	-0.432373	-0.786865	-0.041748	0.078037	-0.006779	-0.001715	-0.590769	-0.610500	0.198373	-0.488805	71.557559	-56.223869	37.096687
42677		8.962850	-0.656900	-0.051737	4.333609	3.075380	-2.566468	2.596571	-1.956281	5.294093	-0.482422	-0.758301	-0.009521	0.089760	-0.004194	0.000296	-0.567599	-0.617425	0.213955	-0.500840	73.296104	-59.467773	36.804560
42678		10.378568	0.013220	0.196813	4.081546	2.803814	-0.691148	2.604483	-1.914500	5.575354	-0.530273	-0.731934	0.018311	0.103704	0.002990	0.002988	-0.543241	-0.623344	0.229964	-0.513272	75.132922	-62.840803	36.414518
42679		11.605608	0.592857	0.609868	3.756559	2.191011	0.979004	2.470017	-1.849784	5.803704	-0.582764	-0.692383	0.043701	0.115757	0.009206	0.007271	-0.518144	-0.627803	0.246698	-0.525862	77.040376	-66.337473	35.873532
42680		12.964338	1.125458	1.007775	3.377157	1.490225	2.704382	2.163412	-1.767729	5.985232	-0.633057	-0.653076	0.069092	0.129135	0.015006	0.011370	-0.493139	-0.630348	0.264238	-0.538195	78.980241	-69.902976	35.122163
42681		14.531945	2.665584	1.353490	2.008811	0.329586	4.880798	1.830380	-1.718940	6.103192	-0.678955	-0.613525	0.087891	0.144294	0.030937	0.015048	-0.468317	-0.631085	0.282724	-0.549980	81.153310	-73.531754	33.942007
42682		15.746400	4.545663	1.843281	0.150241	-1.355503	6.620761	1.294578	-1.649820	6.182327	-0.716064	-0.567627	0.099854	0.155801	0.050164	0.020037	-0.444635	-0.629595	0.302378	-0.560782	83.704134	-77.168570	32.075753
42683		16.712155	6.351506	2.229746	-1.886899	-3.092379	7.833191	0.640186	-1.601082	6.169707	-0.755371	-0.519287	0.125000	0.164872	0.068550	0.023838	-0.422579	-0.625856	0.323486	-0.570165	87.381099	-80.779521	28.707992
42684		17.200930	7.690179	2.587882	-3.698599	-4.702835	8.237030	0.097907	-1.576809	6.098820	-0.790527	-0.468750	0.134766	0.169347	0.082080	0.027260	-0.402110	-0.620401	0.345456	-0.577988	94.862947	-84.263133	21.224531
42685		17.355088	9.784841	2.664723	-6.397617	-6.400776	8.132056	-0.307076	-1.594663	5.995300	-0.821045	-0.416260	0.144287	0.170295	0.103028	0.027858	-0.382696	-0.613733	0.368047	-0.584309	121.460247	-87.336483	-5.606230
42686		17.583081	12.515827	2.769258	-9.665479	-8.347694	7.800657	-0.501700	-1.593795	5.836391	-0.840820	-0.359131	0.153809	0.171852	0.130284	0.028750	-0.364058	-0.606423	0.390295	-0.589392	-155.234390	-87.465218	-89.255374
42687		17.496773	16.023798	2.858176	-13.627422	-10.503502	6.766920	-0.671846	-1.529033	5.520478	-0.857666	-0.315186	0.166016	0.170233	0.165079	0.029346	-0.346606	-0.598675	0.411690	-0.593265	-127.215581	-84.706310	-117.712338
42688		16.346063	18.627357	2.700857	-16.729454	-11.781862	4.422573	-0.797326	-1.444032	4.991236	-0.872314	-0.275635	0.178223	0.158546	0.190380	0.027412	-0.331077	-0.591112	0.431348	-0.595746	-120.070301	-81.859648	-125.362240
42689		15.354548	19.949675	2.569266	-18.479134	-12.361904	2.268413	-0.735317	-1.354809	4.291495	-0.884766	-0.238281	0.183838	0.149042	0.202822	0.025971	-0.317387	-0.584519	0.448392	-0.597116	-117.453759	-79.320448	-128.438200
42690		13.759265	21.203400	3.790856	-19.340673	-13.889538	-0.527190	-0.699630	-1.272058	3.427383	-0.894531	-0.209717	0.187500	0.133689	0.214480	0.038020	-0.306273	-0.579436	0.462432	-0.597166	-116.680472	-77.238988	-129.634812
42691		11.686290	22.779124	6.227309	-19.757714	-16.386123	-3.869443	-0.799705	-1.111670	2.463143	-0.892822	-0.194336	0.191650	0.113699	0.229453	0.061996	-0.298581	-0.575784	0.473635	-0.595813	-116.862316	-75.685931	-129.916571
42692		10.033360	23.438185	8.278469	-19.458493	-18.119165	-6.407794	-0.778980	-0.846330	1.500932	-0.893311	-0.176758	0.199951	0.098220	0.235445	0.082288	-0.294314	-0.573576	0.481512	-0.593747	-117.458967	-74.698389	-129.758684
42693		9.129821	22.574883	8.592334	-18.522073	-17.835360	-7.438688	-0.440430	-0.490770	0.653750	-0.902344	-0.176758	0.204346	0.090349	0.226234	0.085648	-0.292422	-0.572818	0.485414	-0.592235	-117.983386	-74.233464	-129.473916
42694		11.971950	21.248967	7.344669	-18.328874	-16.819442	-4.340145	0.185106	-0.177457	0.046140	-0.895508	-0.178955	0.202148	0.119605	0.212449	0.073749	-0.291303	-0.573516	0.485251	-0.592245	-118.153208	-74.161227	-129.184777
42695		11.238512	17.449315	6.987070	-14.827391	-15.058126	-4.068128	1.086776	0.277273	-0.229635	-0.897705	-0.178955	0.206787	0.112683	0.173981	0.070661	-0.289527	-0.574845	0.480946	-0.595330	-117.253536	-74.352526	-129.470298
42696		12.478301	24.055103	6.265880	-21.035198	-17.288860	-4.137604	1.769940	0.997970	-1.343570	-0.890869	-0.187744	0.204590	0.126710	0.239141	0.064150	-0.290797	-0.577639	0.470329	-0.600467	-115.618461	-75.295374	-130.111248
42697		17.066722	-3.540895	-15.310474	-6.209278	11.975672	9.061434	3.626115	1.109099	-1.961659	-0.896973	-0.200928	0.198486	0.169472	-0.034280	-0.154675	-0.288770	-0.584090	0.452023	-0.609201	-113.087508	-76.585656	-130.576295
42698		24.777450	-30.043209	-9.841318	17.766232	17.839485	21.479926	4.543245	1.320089	-0.629818	-0.890625	-0.192139	0.202637	0.246145	-0.298846	-0.106843	-0.280301	-0.587900	0.434305	-0.622241	-107.991871	-77.188174	-133.133081
42699		30.485237	17.291788	9.908786	-14.369674	-21.352967	15.955735	2.208280	1.942851	-2.107286	-0.894043	-0.222900	0.190186	0.307600	0.168600	0.097986	-0.284538	-0.589460	0.418424	-0.629680	-103.247553	-78.653907	-136.688391
42700		24.792385	22.626400	9.235911	-17.897198	-21.971293	10.402555	-0.569176	1.273600	-4.463462	-0.881836	-0.260254	0.177734	0.253473	0.220907	0.090123	-0.302833	-0.593832	0.405129	-0.625721	-102.821545	-81.309371	-137.449646
42701		12.985667	4.845740	3.843734	-3.501081	-6.885444	2.319519	-0.337453	0.273144	-4.050138	-0.867188	-0.295410	0.174316	0.130855	0.045879	0.038180	-0.317018	-0.600580	0.393617	-0.619572	-106.292118	-83.602033	-134.142231
42702		2.273049	2.166050	0.807849	-1.623735	-1.920729	-7.767114	-0.504448	0.116178	-3.638477	-0.854980	-0.332764	0.170898	0.023124	0.021262	0.008011	-0.329959	-0.606495	0.383997	-0.613056	-113.423313	-85.588090	-127.268299
42703		3.329220	5.015073	-1.133114	-5.032699	-1.618284	-6.719523	-0.526872	0.342728	-3.604865	-0.838379	-0.361084	0.169434	0.034169	0.049510	-0.011520	-0.343234	-0.611426	0.374002	-0.607018	-128.637301	-87.481251	-112.329015
42704		8.588438	3.965381	0.379736	-3.329180	-2.507220	-1.312538	-0.390617	0.721865	-3.080923	-0.826416	-0.387451	0.159180	0.086494	0.038331	0.003410	-0.355065	-0.614264	0.364477	-0.603129	-170.380367	-88.818549	-70.790223
42705		8.604136	8.142652	3.435461	-5.359146	-7.016429	-1.200010	-0.383330	0.766191	-2.294642	-0.819092	-0.409424	0.153076	0.087099	0.080496	0.033867	-0.364560	-0.615442	0.357146	-0.600645	122.698806	-88.658896	-4.074126
42706		10.720662	3.565417	3.311167	-1.229254	-4.536745	0.981308	-0.831288	0.736811	-2.124249	-0.804932	-0.431396	0.142578	0.107699	0.034648	0.032570	-0.374767	-0.615479	0.351732	-0.597511	97.035721	-87.632623	21.126774
42707		11.516549	-2.490897	2.453144	3.876661	-0.744482	1.556862	-0.456206	0.529090	-1.917554	-0.800293	-0.442383	0.142822	0.114984	-0.025956	0.024286	-0.382844	-0.616416	0.346126	-0.594693	89.565206	-86.542573	28.347099
42708		9.770391	4.033916	1.215486	-2.415979	-2.592684	0.219637	-1.137238	0.576305	-1.901247	-0.783936	-0.464355	0.127930	0.098116	0.039475	0.011646	-0.392955	-0.615792	0.342517	-0.590821	84.975097	-85.438440	32.297407
42709		7.739934	3.996393	1.368641	-2.352844	-2.652115	-1.739317	-0.809368	0.459386	-1.680762	-0.783447	-0.479980	0.119629	0.077763	0.039366	0.013348	-0.401214	-0.615723	0.338756	-0.587501	82.725707	-84.444243	34.092195
42710		9.325321	0.746002	0.687385	0.448255	-0.395064	-0.451493	0.017492	0.381501	-1.458766	-0.767334	-0.495117	0.117676	0.093317	0.006779	0.006697	-0.406061	-0.617108	0.333434	-0.585760	81.764416	-83.587045	35.071147
42711		10.006214	2.252661	-1.413963	-1.670096	0.938176	0.362143	0.380666	0.375750	-1.348077	-0.760010	-0.514893	0.120605	0.100184	0.021879	-0.014286	-0.409484	-0.619040	0.327328	-0.584781	81.166792	-82.782694	35.894887
42712		9.187058	3.364269	-0.276296	-2.117490	-0.555451	-0.273133	0.284119	0.338823	-1.261218	-0.753174	-0.523682	0.116211	0.092076	0.033067	-0.002872	-0.412818	-0.620698	0.321888	-0.583698	80.757892	-82.039070	36.473969
42713		9.192914	2.131371	0.810625	-0.438798	-0.893935	-0.393722	0.323363	0.248525	-1.092305	-0.748291	-0.532471	0.109863	0.092054	0.020798	0.008026	-0.415429	-0.622417	0.316976	-0.582702	80.679675	-81.389797	36.742491
42714		10.080297	2.160523	1.255606	-0.063341	-1.160943	0.507390	0.359441	0.183105	-1.011804	-0.739014	-0.547852	0.114746	0.100922	0.021072	0.012502	-0.417523	-0.624241	0.312391	-0.581729	80.832449	-80.801293	36.798670
42715		10.698366	3.065410	0.919000	-0.837314	-1.159292	1.262070	0.413312	0.126978	-0.969463	-0.732178	-0.554199	0.117188	0.107136	0.030116	0.009185	-0.419279	-0.626269	0.307833	-0.580716	81.166514	-80.232597	36.702304
42716		10.348266	3.624561	1.125183	-1.180717	-1.583578	1.031083	0.372328	0.107965	-0.921800	-0.725098	-0.562988	0.117432	0.103654	0.035747	0.011263	-0.420932	-0.628164	0.303631	-0.579685	81.496258	-79.701678	36.586451
42717		9.871945	3.568614	0.627957	-1.346395	-1.124961	0.555803	0.247586	0.066467	-0.880056	-0.713867	-0.569336	0.126465	0.098877	0.035243	0.006291	-0.422836	-0.629851	0.299945	-0.578387	81.834298	-79.188391	36.389097
42718		9.778106	2.667831	-0.268246	-0.929181	0.108079	0.283107	0.230431	0.044704	-0.776369	-0.704346	-0.586914	0.118164	0.097883	0.026302	-0.002674	-0.424400	-0.631385	0.296732	-0.577224	82.165009	-78.744831	36.189049
42719		9.717463	3.639498	0.006467	-1.581103	-0.551166	0.427963	-0.012746	0.070302	-0.723141	-0.695313	-0.593506	0.122803	0.097305	0.036043	0.000028	-0.426663	-0.632252	0.294273	-0.575864	82.243811	-78.319909	36.103383
42720		9.381638	2.973944	0.731735	-0.660673	-0.880170	-0.005374	-0.197722	0.061183	-0.630438	-0.686279	-0.595703	0.116211	0.093912	0.029451	0.007259	-0.429173	-0.632595	0.292714	-0.574415	82.208405	-77.957769	36.026186
42721		9.643221	3.012403	0.683015	-0.625241	-0.784646	0.263319	-0.235434	0.030893	-0.578121	-0.679199	-0.606689	0.118652	0.096520	0.029853	0.006780	-0.431656	-0.632873	0.291431	-0.572899	82.205533	-77.618125	35.893292
42722		9.999889	2.778699	0.639920	-0.336966	-0.561415	0.565148	-0.204733	0.013286	-0.536398	-0.667725	-0.613037	0.116699	0.100073	0.027525	0.006364	-0.433839	-0.633189	0.290286	-0.571480	82.251397	-77.313081	35.728529
42723		9.690833	2.072060	0.128093	0.020312	0.200592	0.095958	-0.188756	-0.009590	-0.476236	-0.661133	-0.615234	0.114502	0.096957	0.020491	0.001266	-0.435867	-0.633499	0.289330	-0.570077	82.332881	-77.034330	35.526201
42724		9.875073	2.252614	0.046332	-0.100476	0.239331	0.312821	-0.215541	-0.016836	-0.459596	-0.651855	-0.621826	0.112549	0.098802	0.022300	0.000448	-0.437815	-0.633757	0.288521	-0.568705	82.410578	-76.775103	35.322030
42725		9.823424	2.162284	0.018673	-0.004544	0.322194	0.240744	-0.191451	-0.017749	-0.446968	-0.638184	-0.632568	0.117188	0.098282	0.021403	0.000175	-0.439750	-0.634034	0.287680	-0.567328	82.489826	-76.513578	35.119984
42726		9.967166	2.227239	-0.018543	-0.010729	0.368934	0.393630	-0.177157	-0.008977	-0.467104	-0.629150	-0.636963	0.117432	0.099723	0.022039	-0.000201	-0.441603	-0.634357	0.286718	-0.566013	82.562593	-76.249376	34.943072
42727		10.186939	2.081856	0.143371	0.276505	0.346413	0.576332	-0.131660	-0.001535	-0.487208	-0.624512	-0.643555	0.117676	0.101920	0.020571	0.001421	-0.443430	-0.634795	0.285486	-0.564715	82.640638	-75.963791	34.787106
42728		10.118898	2.051200	0.133912	0.330403	0.384509	0.500421	-0.114107	-0.008433	-0.522387	-0.613281	-0.649902	0.119873	0.101242	0.020248	0.001332	-0.445235	-0.635326	0.284165	-0.563362	82.753987	-75.668008	34.605163
42729		10.067483	1.657721	0.159775	0.720410	0.554769	0.351011	-0.093177	-0.013015	-0.538872	-0.597412	-0.654297	0.111328	0.100719	0.016307	0.001597	-0.447061	-0.635946	0.282683	-0.561961	82.883018	-75.353891	34.418880
42730		9.913849	1.723418	0.627425	0.896313	0.114205	0.228804	-0.107839	-0.018868	-0.550039	-0.595215	-0.656494	0.120117	0.099185	0.016965	0.006274	-0.448902	-0.636550	0.281275	-0.560513	83.017158	-75.042924	34.218640
42731		9.630609	2.559070	0.802312	0.247926	-0.421332	0.172397	-0.123472	-0.018856	-0.597659	-0.579102	-0.671875	0.116211	0.096381	0.025308	0.008017	-0.450973	-0.637190	0.279701	-0.558910	83.142682	-74.695775	34.017422
42732		9.464670	2.263270	0.973606	0.597767	-0.440735	-0.060847	-0.093547	-0.017392	-0.635743	-0.572510	-0.669434	0.120605	0.094717	0.022336	0.009734	-0.453003	-0.637930	0.277971	-0.557284	83.288775	-74.335713	33.812629
42733		10.093910	2.343091	0.121602	0.338168	0.406907	0.536783	-0.003395	0.010635	-0.674288	-0.552246	-0.676025	0.120850	0.101017	0.023090	0.001210	-0.454936	-0.638852	0.275746	-0.555757	83.426237	-73.942843	33.669754
42734		10.254941	1.817360	-1.057983	0.346457	1.740410	0.504118	0.040124	0.032749	-0.688810	-0.543213	-0.680176	0.123291	0.102609	0.017822	-0.010593	-0.456746	-0.639815	0.273355	-0.554344	83.547174	-73.549060	33.570157
42735		10.672605	2.269705	-0.929652	0.181872	1.536011	1.028317	-0.048744	0.074930	-0.721771	-0.536133	-0.688965	0.121338	0.106804	0.022309	-0.009342	-0.459031	-0.640504	0.270951	-0.552839	83.535808	-73.125099	33.554934
42736		11.011707	2.424726	-0.231247	0.521079	0.953583	1.412682	-0.142286	0.130640	-0.794722	-0.516357	-0.686768	0.123535	0.110211	0.023808	-0.002401	-0.461838	-0.640905	0.268495	-0.551232	83.389120	-72.664653	33.625552
42737		10.880399	2.122381	0.140889	0.992845	0.793408	1.200547	-0.162048	0.188328	-0.899500	-0.500000	-0.704102	0.119629	0.108899	0.020735	0.001289	-0.465112	-0.641237	0.265565	-0.549509	83.152944	-72.132200	33.778024
42738		11.163080	2.756488	0.341913	0.700470	0.465978	1.659909	-0.172899	0.237309	-1.022211	-0.486328	-0.715088	0.122070	0.111774	0.026997	0.003263	-0.468765	-0.641549	0.262205	-0.547652	82.867458	-71.534793	33.976677
42739		11.364877	2.046255	0.276609	1.421919	0.946454	1.611190	-0.176052	0.292290	-1.115704	-0.468262	-0.721436	0.122314	0.113764	0.019830	0.002582	-0.472786	-0.641812	0.258364	-0.545708	82.521551	-70.871692	34.237634
42740		11.611901	2.290205	-0.218238	1.159526	1.426993	1.881163	-0.215842	0.345173	-1.240256	-0.448242	-0.725830	0.117920	0.116254	0.022179	-0.002407	-0.477281	-0.641967	0.254150	-0.543590	82.119706	-70.141514	34.535190
42741		11.884282	2.031005	0.075965	1.704932	1.439418	2.035759	-0.287580	0.409555	-1.366989	-0.445557	-0.736816	0.120605	0.118979	0.019498	0.000488	-0.482451	-0.641911	0.249507	-0.541237	81.629966	-69.325591	34.883755
42742		12.298293	2.211205	0.627458	2.051660	1.090866	2.480744	-0.371782	0.492141	-1.529726	-0.414307	-0.740967	0.109619	0.123162	0.021182	0.005932	-0.488363	-0.641587	0.244406	-0.538640	81.044026	-68.417167	35.286039
42743		12.388062	2.082014	0.876722	2.444270	1.094410	2.491420	-0.380839	0.579335	-1.699185	-0.405029	-0.751953	0.114502	0.124076	0.019783	0.008370	-0.494870	-0.641168	0.238506	-0.535837	80.409660	-67.395886	35.737356
42744		12.774656	0.970816	1.275142	3.829511	1.435695	2.395047	-0.333271	0.666699	-1.840328	-0.371338	-0.756104	0.103516	0.127870	0.008553	0.012310	-0.501622	-0.640739	0.231836	-0.532993	79.769544	-66.291997	36.228384
42745		13.695636	0.850779	1.156401	4.347747	1.999419	3.099472	-0.283405	0.785048	-1.991494	-0.357666	-0.767090	0.106201	0.137076	0.007159	0.011015	-0.508737	-0.640227	0.224183	-0.530130	79.095753	-65.081463	36.791732
42746		14.750082	0.481291	0.808135	5.044465	2.944349	3.763906	-0.258141	0.946446	-2.150476	-0.324219	-0.769043	0.101807	0.147577	0.003236	0.007378	-0.516271	-0.639446	0.215559	-0.527359	78.346077	-63.767645	37.461404
42747		16.174887	0.279322	0.708582	5.883786	3.767630	4.794794	-0.199390	1.101989	-2.345106	-0.312500	-0.786377	0.104492	0.161803	0.000903	0.006193	-0.524250	-0.638517	0.205683	-0.524549	77.572679	-62.316395	38.203065
42748		18.822185	0.334971	0.070483	6.773017	5.419660	6.894228	-0.084614	1.291322	-2.562116	-0.283447	-0.786377	0.095703	0.188243	0.000938	-0.000511	-0.532496	-0.637496	0.194319	-0.521810	76.799903	-60.721486	39.029654
42749		19.267655	-0.533839	-0.952465	7.461144	7.178092	6.472588	0.052303	1.426220	-2.815692	-0.263184	-0.792725	0.100342	0.192502	-0.008047	-0.010900	-0.541003	-0.636587	0.181354	-0.518829	76.116552	-58.957585	39.856855
