// General information: 
//  MT Manager version: 2019.2.0 
//  XDA version: 2019.2.0 build 3853 rev 94535 built on 2019-09-09
// Device information: 
//  DeviceId: 00B40A8D
//  ProductCode: MTW2-3A7G6
//  Firmware Version: 4.3.5
//  Hardware Version: 1.1.0
// Device settings: 
//  Filter Profile: human(46.1)
//  Option Flags: Orientation Smoother Disabled, AHS Disabled, ICC Disabled
// Coordinate system: ENU
PacketCounter	SampleTimeFine	Acc_X	Acc_Y	Acc_Z	FreeAcc_E	FreeAcc_N	FreeAcc_U	Gyr_X	Gyr_Y	Gyr_Z	Mag_X	Mag_Y	Mag_Z	VelInc_X	VelInc_Y	VelInc_Z	Quat_q0	Quat_q1	Quat_q2	Quat_q3	Roll	Pitch	Yaw
42208		7.183398	0.177186	1.758132	-0.942573	0.882043	-2.528652	-0.288250	0.180364	-0.094237	-0.785156	-0.145264	-0.774170	0.071851	0.001763	0.017514	0.413239	0.468749	-0.286016	0.726431	-4.053826	-66.550967	123.393178
42209		7.175756	0.438851	1.676331	-1.210170	0.825968	-2.577536	-0.290430	0.140735	-0.069645	-0.787354	-0.147705	-0.776367	0.071771	0.004388	0.016706	0.414347	0.467749	-0.286697	0.726176	-4.133370	-66.479990	123.292502
42210		7.160611	0.657293	1.477020	-1.491073	0.881878	-2.679178	-0.282246	0.124348	-0.040574	-0.785400	-0.143066	-0.774170	0.071617	0.006579	0.014716	0.415305	0.466785	-0.287450	0.725952	-4.247849	-66.417599	123.235033
42211		7.294411	0.797066	1.325167	-1.715013	0.986782	-2.623473	-0.273598	0.083121	-0.024017	-0.789795	-0.141113	-0.776367	0.072951	0.007980	0.013210	0.416123	0.465962	-0.288294	0.725677	-4.382840	-66.377822	123.205397
42212		7.404807	0.827165	1.180157	-1.834516	1.128828	-2.582997	-0.289176	0.027611	0.008271	-0.783203	-0.138672	-0.769775	0.074049	0.008292	0.011779	0.416779	0.465262	-0.289386	0.725316	-4.574438	-66.368619	123.227735
42213		7.799486	0.685741	1.194277	-1.796694	1.317117	-2.212318	-0.298030	-0.018365	0.016561	-0.783447	-0.136475	-0.778564	0.077993	0.006882	0.011940	0.417357	0.464697	-0.290623	0.724850	-4.786688	-66.385134	123.267128
42214		8.315144	0.486056	1.357836	-1.667764	1.448824	-1.667685	-0.292555	-0.070575	-0.002944	-0.783447	-0.134277	-0.771973	0.083147	0.004879	0.013601	0.417917	0.464360	-0.291905	0.724228	-4.976410	-66.432468	123.285300
42215		8.801628	0.256208	1.395890	-1.557198	1.681741	-1.197023	-0.312781	-0.116151	-0.002795	-0.783936	-0.127441	-0.774170	0.088008	0.002583	0.014006	0.418456	0.464144	-0.293353	0.723470	-5.183407	-66.505634	123.309768
42216		9.273656	0.173095	1.151748	-1.690039	2.064516	-0.855081	-0.299148	-0.141915	-0.002287	-0.786133	-0.125488	-0.769775	0.092728	0.001747	0.011581	0.418922	0.464048	-0.294807	0.722670	-5.387330	-66.593581	123.339284
42217		9.605032	0.166609	1.056737	-1.794325	2.241431	-0.584607	-0.272437	-0.132571	0.001232	-0.783691	-0.129883	-0.771973	0.096043	0.001681	0.010629	0.419327	0.463967	-0.296153	0.721937	-5.580178	-66.675935	123.373286
42218		9.851030	0.198571	1.545833	-1.667359	1.893903	-0.163602	-0.201420	-0.142095	0.008966	-0.788330	-0.127686	-0.765381	0.098499	0.002006	0.015526	0.419523	0.464058	-0.297280	0.721301	-5.744610	-66.763270	123.420729
42219		10.165258	0.022150	2.358720	-1.236483	1.398062	0.454397	-0.100529	-0.164288	0.037241	-0.790771	-0.121094	-0.763184	0.101633	0.000252	0.023671	0.419349	0.464399	-0.298152	0.720822	-5.892054	-66.861635	123.512878
42220		10.689629	-0.465335	4.537182	-0.003844	-0.008512	1.809300	0.015722	-0.205559	0.079980	-0.793213	-0.121338	-0.763184	0.106851	-0.004614	0.045481	0.418690	0.465067	-0.298793	0.720510	-6.037420	-66.980807	123.674762
42221		11.713051	-1.381309	8.605121	2.300882	-2.607774	4.366771	0.161479	-0.249569	0.090274	-0.788574	-0.121094	-0.754150	0.117029	-0.013830	0.086186	0.417588	0.466184	-0.299025	0.720331	-6.120761	-67.124520	123.859830
42222		13.557972	-2.791285	9.721916	3.653744	-2.303547	6.541785	0.376759	-0.520527	0.047584	-0.795166	-0.123535	-0.747559	0.135333	-0.028064	0.097519	0.415730	0.468785	-0.298945	0.719751	-6.064150	-67.424963	124.026585
42223		13.763702	-4.642119	5.097602	3.341393	2.350621	5.029221	0.643502	-1.159629	0.038297	-0.806152	-0.128418	-0.736572	0.137348	-0.046560	0.051623	0.412313	0.474243	-0.299203	0.718031	-5.937790	-68.090352	124.282586
42224		11.830226	-5.817527	2.586751	3.761140	4.309015	2.343588	0.836387	-0.782061	-0.129211	-0.812256	-0.139893	-0.736572	0.118163	-0.058360	0.026086	0.409590	0.478974	-0.297582	0.717123	-5.404188	-68.550384	124.218202
42225		9.938743	-4.682088	2.943737	3.363632	2.892664	0.660345	0.834183	-0.196518	-0.221070	-0.809570	-0.146484	-0.729980	0.099307	-0.047053	0.029339	0.408060	0.481726	-0.294543	0.717406	-4.648962	-68.680732	123.914662
42226		9.600960	-2.761651	3.964257	2.258954	1.030746	0.644609	0.740289	-0.269047	-0.085159	-0.813721	-0.155518	-0.729980	0.095944	-0.027804	0.039669	0.406156	0.484338	-0.292310	0.717641	-4.149532	-68.845119	123.828059
42227		9.709296	-0.720653	6.028470	1.457880	-1.633642	1.427322	0.692050	-0.314299	0.016986	-0.811523	-0.155518	-0.718750	0.096999	-0.007407	0.060412	0.403929	0.486857	-0.290585	0.717894	-3.830514	-69.031130	123.905410
42228		11.002980	1.175381	7.113617	0.126178	-3.107263	2.969298	0.583878	-0.437649	-0.008392	-0.813721	-0.155518	-0.718750	0.109874	0.011541	0.071411	0.401873	0.489631	-0.289431	0.717628	-3.545287	-69.288687	123.952345
42229		12.630192	2.571314	6.995134	-1.370323	-3.291397	4.412404	0.576323	-0.588014	-0.105458	-0.822021	-0.169189	-0.709961	0.126109	0.025444	0.070396	0.399960	0.493060	-0.288368	0.716776	-3.126938	-69.635522	123.852127
42230		13.503749	4.467744	6.938067	-3.088832	-4.025588	5.177348	0.602782	-0.567147	-0.203657	-0.826416	-0.171631	-0.703369	0.134885	0.044330	0.069897	0.398357	0.496601	-0.286918	0.715805	-2.528063	-69.972927	123.576212
42231		12.175840	5.646306	6.341473	-4.028191	-4.578157	3.720953	0.420900	-0.423698	-0.341574	-0.832764	-0.178467	-0.705566	0.121720	0.056121	0.063791	0.397897	0.499459	-0.285485	0.714645	-1.791609	-70.230082	123.043884
42232		9.388868	5.067908	6.324705	-2.947229	-5.066369	1.118084	0.268698	-0.225812	-0.470490	-0.825439	-0.187012	-0.701172	0.093936	0.050373	0.063421	0.398558	0.501484	-0.283879	0.713497	-0.913069	-70.373018	122.268476
42233		8.462337	4.364568	6.535505	-2.020093	-5.119487	0.340303	0.093306	-0.100258	-0.562866	-0.825195	-0.191406	-0.701172	0.084713	0.043377	0.065418	0.400164	0.502839	-0.282411	0.712226	0.026377	-70.439994	121.322532
42234		7.945361	3.260251	5.825298	-1.294185	-4.094858	-0.365513	-0.085707	0.008070	-0.648094	-0.831787	-0.193848	-0.701172	0.079561	0.032370	0.058236	0.402672	0.503566	-0.281151	0.710796	1.003172	-70.439422	120.228023
42235		8.352185	2.118834	5.648214	-0.438062	-3.208194	-0.031782	-0.173434	0.077901	-0.739562	-0.822998	-0.193604	-0.701172	0.083622	0.020928	0.056431	0.405820	0.503989	-0.279823	0.709228	2.073231	-70.390499	118.981314
42236		9.630820	1.258249	5.402755	0.014240	-2.150360	1.091487	-0.177549	0.092285	-0.779199	-0.820313	-0.200195	-0.701172	0.096381	0.012255	0.053972	0.409132	0.504402	-0.278381	0.707597	3.196014	-70.324715	117.675368
42237		10.698980	0.227789	5.419040	0.791895	-1.273082	2.088480	-0.161020	0.114640	-0.748690	-0.817871	-0.206787	-0.705566	0.107028	0.001921	0.054127	0.412322	0.504716	-0.276905	0.706099	4.268671	-70.238356	116.432016
42238		11.616859	-1.149313	5.294633	1.832442	-0.146020	2.872966	-0.094973	0.214102	-0.674107	-0.822021	-0.213623	-0.709961	0.116186	-0.011860	0.052828	0.415212	0.504709	-0.275178	0.705086	5.235866	-70.091826	115.340189
42239		12.326954	-2.217500	4.676731	2.399959	1.167619	3.287667	-0.050876	0.287257	-0.593785	-0.821777	-0.218018	-0.716553	0.123270	-0.022529	0.046596	0.417805	0.504415	-0.273339	0.704479	6.075885	-69.901662	114.409590
42240		12.577813	-2.642234	3.807039	2.346552	2.225823	3.195588	-0.084474	0.427097	-0.489390	-0.817139	-0.222168	-0.718750	0.125794	-0.026714	0.037813	0.420299	0.503414	-0.271590	0.704387	6.693291	-69.635129	113.694204
42241		11.889049	-2.714135	3.517819	2.380053	2.349904	2.430833	-0.059968	0.601803	-0.392653	-0.814941	-0.222168	-0.723389	0.118942	-0.027364	0.034829	0.422626	0.501710	-0.269625	0.704966	7.128289	-69.273084	113.187263
42242		10.288604	-2.334591	3.828794	2.420470	1.465978	1.048119	0.028618	0.637116	-0.275397	-0.805664	-0.226318	-0.729980	0.102975	-0.023493	0.037957	0.424358	0.499907	-0.267568	0.705990	7.417600	-68.898910	112.889273
42243		8.753383	-2.058589	4.131150	2.530684	0.637980	-0.267307	0.168240	0.496072	-0.103040	-0.799072	-0.223877	-0.736572	0.087625	-0.020666	0.041077	0.424941	0.498659	-0.265744	0.707209	7.553551	-68.616890	112.840915
42244		7.830511	-1.952450	3.847899	2.421827	0.540882	-1.223311	0.278308	0.306437	0.072220	-0.798828	-0.228271	-0.736572	0.078371	-0.019550	0.038332	0.424374	0.498084	-0.264370	0.708469	7.534687	-68.456191	113.026673
42245		7.493598	-1.778783	3.519594	2.148310	0.624788	-1.645682	0.342673	0.196609	0.214215	-0.799072	-0.223877	-0.736572	0.074990	-0.017768	0.035092	0.423000	0.497838	-0.263354	0.709840	7.370375	-68.367607	113.408312
42246		7.540988	-1.540695	3.337987	1.830837	0.678237	-1.653619	0.374239	0.139896	0.312913	-0.796631	-0.228271	-0.734375	0.075457	-0.015351	0.033298	0.421117	0.497733	-0.262590	0.711315	7.096087	-68.318566	113.928281
42247		7.703788	-1.118463	3.300983	1.406651	0.553244	-1.493371	0.405199	0.060372	0.353927	-0.796631	-0.230469	-0.740967	0.077068	-0.011115	0.032964	0.418906	0.497914	-0.261986	0.712715	6.794795	-68.316088	114.495985
42248		7.938881	-0.704874	3.069350	0.886562	0.599956	-1.339339	0.429731	-0.031601	0.356849	-0.798828	-0.230469	-0.736572	0.079396	-0.006973	0.030691	0.416498	0.498472	-0.261490	0.713918	6.519343	-68.365638	115.051424
42249		8.042759	-0.271047	2.688066	0.299397	0.700217	-1.362529	0.437569	-0.089558	0.323311	-0.805176	-0.237305	-0.734375	0.080420	-0.002639	0.026911	0.414113	0.499286	-0.261000	0.714914	6.303003	-68.444353	115.547633
42250		7.965520	0.128277	2.444678	-0.157776	0.643202	-1.505835	0.413800	-0.101324	0.286962	-0.807617	-0.230713	-0.732178	0.079641	0.001346	0.024490	0.411897	0.500144	-0.260528	0.715767	6.125587	-68.527696	115.987328
42251		7.847229	0.478089	2.449466	-0.439776	0.401389	-1.599715	0.356377	-0.086208	0.262059	-0.802979	-0.235107	-0.736572	0.078455	0.004840	0.024537	0.409931	0.500856	-0.260166	0.716529	5.946295	-68.599979	116.393447
42252		7.757879	0.602509	2.604632	-0.458665	0.170237	-1.621690	0.294797	-0.060580	0.256627	-0.800781	-0.237305	-0.727783	0.077563	0.006086	0.026079	0.408170	0.501358	-0.259958	0.717258	5.734424	-68.657275	116.796492
42253		7.515111	0.663164	2.714870	-0.422762	-0.039306	-1.806008	0.235772	-0.007397	0.261709	-0.809814	-0.235352	-0.725586	0.075141	0.006698	0.027159	0.406608	0.501535	-0.259861	0.718056	5.472125	-68.683064	117.217348
42254		7.086257	0.702376	2.729191	-0.387404	-0.218350	-2.199601	0.195267	0.043913	0.227676	-0.814209	-0.233154	-0.732178	0.070861	0.007078	0.027283	0.405334	0.501493	-0.259723	0.718855	5.228995	-68.677947	117.592590
42255		6.980555	0.814826	2.696935	-0.491409	-0.291594	-2.306754	0.161606	0.088480	0.197287	-0.805176	-0.235107	-0.729980	0.069809	0.008195	0.026945	0.404311	0.501259	-0.259539	0.719661	5.005059	-68.644919	117.926530
42256		6.896488	0.828299	2.553217	-0.572294	-0.213979	-2.437511	0.131724	0.129919	0.139918	-0.805176	-0.237305	-0.727783	0.068976	0.008314	0.025493	0.403622	0.500892	-0.259234	0.720413	4.843930	-68.585374	118.174775
42257		6.842748	0.804561	2.464212	-0.597718	-0.145300	-2.521290	0.107304	0.150581	0.082704	-0.809326	-0.241943	-0.736572	0.068443	0.008061	0.024595	0.403227	0.500471	-0.258828	0.721072	4.750735	-68.510443	118.335414
42258		6.865667	0.667057	2.444345	-0.502776	-0.041034	-2.511818	0.094249	0.156205	0.012194	-0.807617	-0.235107	-0.736572	0.068675	0.006663	0.024393	0.403126	0.500098	-0.258285	0.721582	4.752001	-68.429555	118.386250
42259		6.962603	0.534087	2.472234	-0.397105	0.051427	-2.415750	0.102527	0.176305	-0.050365	-0.802490	-0.243896	-0.738770	0.069649	0.005311	0.024664	0.403255	0.499746	-0.257511	0.722030	4.846034	-68.333527	118.342748
42260		7.007901	0.337076	2.468765	-0.242322	0.189855	-2.381382	0.092089	0.192191	-0.103029	-0.802490	-0.246094	-0.734375	0.070104	0.003323	0.024622	0.403621	0.499387	-0.256615	0.722393	5.006568	-68.226484	118.220879
42261		6.960918	0.057882	2.511976	0.023540	0.308099	-2.418619	0.062627	0.170918	-0.131587	-0.802734	-0.241699	-0.732178	0.069631	0.000525	0.025060	0.404134	0.499079	-0.255789	0.722612	5.193269	-68.129270	118.053385
42262		7.003714	-0.280682	2.489544	0.292288	0.537240	-2.399554	0.069726	0.120314	-0.150873	-0.802490	-0.246094	-0.732178	0.070050	-0.002868	0.024852	0.404636	0.498994	-0.254999	0.722669	5.415526	-68.060404	117.851022
42263		7.077709	-0.608938	2.240274	0.433572	0.943161	-2.436642	0.094776	0.045049	-0.153935	-0.798096	-0.246094	-0.732178	0.070777	-0.006154	0.022384	0.404987	0.499235	-0.254258	0.722566	5.666065	-68.033703	117.634129
42264		7.134146	-0.855476	1.991928	0.512906	1.293196	-2.487375	0.110426	-0.044601	-0.142203	-0.800049	-0.248291	-0.729980	0.071331	-0.008616	0.019930	0.405145	0.499817	-0.253676	0.722280	5.921118	-68.058703	117.421478
42265		7.354448	-0.924616	1.642882	0.365093	1.673307	-2.416160	0.100206	-0.117890	-0.117550	-0.798096	-0.246094	-0.729980	0.073529	-0.009298	0.016468	0.405144	0.500610	-0.253337	0.721850	6.147415	-68.126307	117.234115
42266		7.665304	-0.865249	1.421962	0.162344	1.909373	-2.206412	0.118434	-0.188290	-0.105607	-0.799805	-0.254883	-0.732178	0.076635	-0.008701	0.014287	0.404967	0.501679	-0.253108	0.721288	6.379278	-68.234778	117.051587
42267		7.896423	-0.743357	1.435491	0.043765	1.898145	-1.979309	0.123265	-0.255005	-0.052003	-0.808838	-0.252930	-0.729980	0.078944	-0.007463	0.014451	0.404498	0.502929	-0.253127	0.720674	6.550236	-68.384025	116.938168
42268		8.322496	-0.509085	1.538018	-0.155082	1.814602	-1.531882	0.156621	-0.287785	-0.001902	-0.806641	-0.250732	-0.723389	0.083203	-0.005104	0.015496	0.403723	0.504300	-0.253221	0.720117	6.675195	-68.555550	116.894450
42269		8.895964	-0.203178	1.524855	-0.498205	1.823779	-0.984879	0.209633	-0.296783	0.033348	-0.806641	-0.250732	-0.716553	0.088937	-0.002033	0.015378	0.402674	0.505764	-0.253230	0.719675	6.781797	-68.734359	116.903306
42270		9.698787	0.024457	1.550965	-0.793205	1.915477	-0.211944	0.256899	-0.262369	0.062138	-0.808594	-0.257568	-0.712158	0.096967	0.000255	0.015637	0.401444	0.507162	-0.253072	0.719433	6.868111	-68.895725	116.962756
42271		10.455683	0.053154	1.512418	-0.948924	2.148059	0.487646	0.284034	-0.252242	0.069884	-0.808594	-0.257568	-0.707764	0.104537	0.000546	0.015257	0.400128	0.508567	-0.252813	0.719266	6.956862	-69.051854	117.036569
42272		11.127549	0.016384	1.260157	-1.147550	2.552599	1.030648	0.315409	-0.241834	0.033028	-0.808594	-0.257568	-0.707764	0.111260	0.000162	0.012736	0.398877	0.510041	-0.252328	0.719087	7.116990	-69.199578	117.052775
42273		11.528757	-0.005155	1.115396	-1.258134	2.784187	1.359678	0.296190	-0.150860	0.003781	-0.808350	-0.264404	-0.705566	0.115279	-0.000066	0.011241	0.397893	0.511186	-0.251652	0.719056	7.293867	-69.293439	117.039709
42274		11.254529	-0.221141	1.938469	-0.584846	2.176851	1.385092	0.227731	-0.051802	-0.012717	-0.812744	-0.264404	-0.701172	0.112540	-0.002241	0.019411	0.397268	0.511857	-0.250985	0.719157	7.437724	-69.329852	117.019589
42275		10.957084	-0.390946	3.450011	0.423461	1.013988	1.628712	0.194237	-0.072195	0.003313	-0.816895	-0.269043	-0.698975	0.109558	-0.003941	0.034536	0.396643	0.512517	-0.250516	0.719196	7.543019	-69.379028	117.020890
42276		10.937591	0.288198	5.899647	1.201079	-1.266609	2.494741	0.176712	-0.278019	0.026220	-0.815186	-0.260254	-0.692383	0.109293	0.002844	0.059151	0.395724	0.513850	-0.250580	0.718728	7.644876	-69.546836	117.014426
42277		12.270855	1.336471	10.487201	2.641033	-5.019530	5.358653	0.110718	-0.698117	0.152160	-0.821533	-0.267090	-0.687988	0.122331	0.013400	0.105307	0.393989	0.516403	-0.252033	0.717342	7.602004	-69.963114	117.122468
42278		15.218311	1.667121	9.656738	1.536506	-3.830023	7.810977	0.139306	-1.369968	0.321728	-0.834961	-0.267578	-0.670166	0.151490	0.016848	0.097618	0.390717	0.521189	-0.255138	0.714568	7.441153	-70.773347	117.372202
42279		15.656664	3.356668	4.640272	-2.551205	-1.019882	6.630419	-0.192399	-1.633741	0.241706	-0.841797	-0.263428	-0.661377	0.156140	0.033801	0.047647	0.388228	0.526345	-0.259714	0.710484	7.263193	-71.727651	117.439106
42280		14.378339	6.699610	2.766218	-6.101039	-1.977099	4.956905	-0.743184	-0.797133	0.328675	-0.844727	-0.248047	-0.654785	0.143562	0.067336	0.027985	0.387953	0.527315	-0.264843	0.708018	6.412286	-72.211424	117.880419
42281		11.155872	4.721805	1.341329	-4.823145	-0.661311	1.360818	-0.990963	0.312793	0.344782	-0.840820	-0.238770	-0.665771	0.111498	0.047475	0.013004	0.389728	0.523840	-0.268725	0.708160	5.161713	-72.060874	118.593008
42282		9.140436	3.051129	2.394411	-2.662066	-1.068312	-0.306838	-1.124864	0.783865	0.161486	-0.839355	-0.225342	-0.676758	0.091472	0.030718	0.023413	0.393124	0.518659	-0.271678	0.708970	4.106772	-71.628411	119.019216
42283		8.733579	1.269383	5.100221	0.213609	-2.303520	0.114357	-1.132074	0.775654	-0.040528	-0.837158	-0.220947	-0.687988	0.087535	0.012963	0.050590	0.397225	0.513740	-0.274132	0.709320	3.422333	-71.190653	119.051484
42284		9.150544	-0.303854	6.595689	2.159487	-2.507387	0.975133	-0.828226	0.498485	-0.036419	-0.831055	-0.211670	-0.685791	0.091669	-0.002783	0.065740	0.400137	0.510386	-0.276064	0.709355	2.943763	-70.911929	119.049988
42285		9.793084	-1.110265	6.543014	2.663933	-1.850524	1.563918	-0.449893	0.183034	-0.007939	-0.830811	-0.213867	-0.692383	0.097990	-0.010959	0.065365	0.401541	0.508861	-0.277350	0.709156	2.666352	-70.814339	119.065323
42286		10.692039	-1.743484	6.130777	2.831304	-0.934119	2.272717	-0.206853	0.061135	-0.010275	-0.828613	-0.213867	-0.690186	0.106938	-0.017377	0.061293	0.402164	0.508257	-0.278016	0.708975	2.541595	-70.786638	119.066164
42287		12.225202	-2.789818	5.497466	3.152639	0.557825	3.499355	-0.007549	0.029907	0.067517	-0.831055	-0.211670	-0.690186	0.122270	-0.027855	0.054957	0.401960	0.508059	-0.278227	0.709150	2.407388	-70.778459	119.198961
42288		12.620926	-3.518592	4.789927	3.336432	1.621588	3.635369	0.072838	0.150114	0.228572	-0.829102	-0.207275	-0.694580	0.126285	-0.035059	0.047792	0.401149	0.507369	-0.278329	0.710063	2.046335	-70.705131	119.619853
42289		11.158079	-3.293701	5.002489	3.446371	0.924888	2.338154	0.144511	0.287122	0.360173	-0.831055	-0.211670	-0.696777	0.111712	-0.032772	0.049841	0.399876	0.506152	-0.278229	0.711687	1.509836	-70.554351	120.271138
42290		9.811701	-2.563930	5.391710	3.191982	-0.138357	1.219336	0.185683	0.361172	0.459477	-0.829102	-0.205078	-0.703369	0.098273	-0.025464	0.053716	0.398247	0.504611	-0.278089	0.713746	0.843893	-70.360302	121.084901
42291		8.933094	-1.562717	4.918683	2.202651	-0.527132	0.252395	0.176808	0.331194	0.558433	-0.831787	-0.198486	-0.703369	0.089455	-0.015421	0.049025	0.396240	0.503017	-0.278281	0.715910	0.030882	-70.179960	122.051255
42292		8.465772	-0.450284	5.168647	1.412354	-1.445280	-0.091417	0.150993	0.340031	0.634066	-0.827148	-0.198242	-0.714355	0.084759	-0.004273	0.051539	0.394036	0.501229	-0.278741	0.718198	-0.900407	-69.989683	123.127998
42293		8.695544	-0.129527	5.823387	1.368078	-2.068109	0.355504	0.175055	0.339926	0.640473	-0.827637	-0.191650	-0.705566	0.087058	-0.001067	0.058085	0.391743	0.499469	-0.279124	0.720526	-1.809086	-69.792921	124.196883
42294		9.449537	0.023972	5.747959	1.002201	-1.878885	1.040817	0.191211	0.163570	0.579713	-0.832031	-0.191650	-0.709961	0.094541	0.000459	0.057403	0.389379	0.498458	-0.279641	0.722305	-2.608587	-69.693615	125.160065
42295		10.098300	0.449769	4.992841	0.095579	-1.341554	1.380945	0.215051	0.038994	0.462200	-0.827637	-0.191406	-0.714355	0.100982	0.004677	0.049914	0.387199	0.498104	-0.280017	0.723574	-3.216106	-69.664723	125.933998
42296		10.485730	0.826277	4.239850	-0.706878	-0.857491	1.473347	0.189400	0.053234	0.321997	-0.825439	-0.189209	-0.709961	0.104855	0.008391	0.042378	0.385611	0.497842	-0.280111	0.724565	-3.618971	-69.630316	126.473624
42297		10.335481	1.133110	3.669272	-1.243111	-0.622535	1.125172	0.159023	0.135611	0.205415	-0.829834	-0.189453	-0.716553	0.103368	0.011408	0.036632	0.384634	0.497384	-0.279857	0.725497	-3.848698	-69.551391	126.811037
42298		9.706901	1.406370	3.368985	-1.511966	-0.703008	0.423110	0.132207	0.271028	0.112257	-0.829834	-0.189453	-0.714355	0.097107	0.014096	0.033568	0.384251	0.496513	-0.279215	0.726543	-3.936045	-69.399088	126.979373
42299		8.784262	1.658387	3.435498	-1.513214	-1.130639	-0.423977	0.113149	0.400215	0.040641	-0.829834	-0.191650	-0.721191	0.087908	0.016582	0.034188	0.384353	0.495235	-0.278209	0.727746	-3.909862	-69.175166	127.015736
42300		8.093622	1.719698	3.463318	-1.421345	-1.351604	-1.059890	0.096735	0.453550	-0.009258	-0.825439	-0.189209	-0.721191	0.081015	0.017177	0.034458	0.384752	0.493798	-0.277042	0.728956	-3.814418	-68.923244	126.967052
42301		7.562462	1.946373	3.460176	-1.513569	-1.594436	-1.559276	0.048754	0.429310	-0.057422	-0.822998	-0.195801	-0.725586	0.075704	0.019434	0.034444	0.385407	0.492423	-0.275970	0.729946	-3.678665	-68.686581	126.846445
42302		7.543579	2.049417	3.185060	-1.748883	-1.410649	-1.676246	-0.052175	0.390168	-0.104459	-0.818604	-0.193359	-0.729980	0.075508	0.020463	0.031698	0.386429	0.491058	-0.275231	0.730604	-3.539524	-68.474261	126.659020
42303		7.678455	1.781016	2.892751	-1.715521	-0.963073	-1.650086	-0.114712	0.406776	-0.144576	-0.818604	-0.193359	-0.736572	0.076856	0.017771	0.028761	0.387769	0.489567	-0.274580	0.731140	-3.378513	-68.253271	126.410519
42304		7.833100	1.292431	2.721489	-1.440716	-0.480385	-1.558732	-0.111510	0.440858	-0.163812	-0.818359	-0.195557	-0.738770	0.078401	0.012875	0.027035	0.389219	0.487979	-0.273811	0.731719	-3.191544	-68.013521	126.134345
42305		7.945336	1.031724	2.677608	-1.282530	-0.232055	-1.466220	-0.129534	0.461343	-0.179777	-0.807373	-0.192871	-0.743164	0.079524	0.010263	0.026586	0.390795	0.486303	-0.273020	0.732290	-2.994525	-67.761902	125.836791
42306		8.037789	0.713199	2.587529	-1.093856	0.077125	-1.409865	-0.144347	0.424508	-0.167251	-0.802979	-0.192871	-0.747559	0.080439	0.007083	0.025699	0.392311	0.484710	-0.272393	0.732769	-2.832699	-67.530945	125.566504
42307		7.904909	0.269291	2.561350	-0.716803	0.330012	-1.536347	-0.155644	0.381316	-0.141318	-0.805176	-0.192871	-0.747559	0.079100	0.002657	0.025461	0.393698	0.483215	-0.271944	0.733179	-2.718681	-67.323132	125.341417
42308		7.782552	-0.023973	2.603128	-0.434626	0.444519	-1.629876	-0.192724	0.340147	-0.102718	-0.801025	-0.188232	-0.756348	0.077870	-0.000255	0.025899	0.394976	0.481744	-0.271813	0.733508	-2.685097	-67.138336	125.179335
42309		7.725873	-0.142518	2.569899	-0.352232	0.539181	-1.694870	-0.228462	0.339848	-0.079063	-0.796387	-0.187988	-0.763184	0.077302	-0.001426	0.025569	0.396251	0.480169	-0.271865	0.733834	-2.704606	-66.952726	125.053028
42310		7.730679	-0.223943	2.411762	-0.376970	0.730440	-1.753256	-0.256055	0.367835	-0.089209	-0.796631	-0.185791	-0.760986	0.077350	-0.002243	0.023978	0.397666	0.478449	-0.271942	0.734164	-2.726256	-66.751732	124.911099
42311		7.587755	-0.264974	2.284269	-0.386593	0.829938	-1.937169	-0.251606	0.385505	-0.107737	-0.796387	-0.190186	-0.758789	0.075920	-0.002662	0.022700	0.399160	0.476692	-0.271917	0.734504	-2.720380	-66.540561	124.742107
42312		7.398394	-0.230895	2.351940	-0.352907	0.722261	-2.087735	-0.220280	0.384930	-0.122210	-0.782959	-0.187500	-0.767578	0.074028	-0.002328	0.023380	0.400630	0.475021	-0.271746	0.734850	-2.679875	-66.330659	124.554283
42313		7.066981	-0.070837	2.297975	-0.450079	0.592953	-2.418520	-0.194594	0.326283	-0.111821	-0.787598	-0.185547	-0.769775	0.070707	-0.000726	0.022865	0.401917	0.473601	-0.271615	0.735112	-2.642251	-66.153746	124.386450
42314		6.881215	0.185130	2.299535	-0.633559	0.412983	-2.594567	-0.163615	0.269556	-0.080829	-0.785645	-0.180908	-0.774170	0.068844	0.001842	0.022901	0.402941	0.472407	-0.271564	0.735339	-2.632920	-66.008705	124.267734
42315		6.551157	0.468166	2.271090	-0.821198	0.189070	-2.914532	-0.157420	0.219382	-0.037214	-0.779053	-0.180664	-0.771973	0.065537	0.004687	0.022635	0.403720	0.471350	-0.271690	0.735543	-2.678989	-65.890977	124.213881
42316		6.432430	0.818693	2.132264	-1.166662	0.082412	-3.087729	-0.139471	0.157008	-0.007921	-0.781006	-0.183105	-0.776367	0.064341	0.008199	0.021266	0.404265	0.470518	-0.271948	0.735682	-2.756425	-65.808436	124.205201
42317		6.640987	1.049223	1.988060	-1.486986	0.149660	-2.962693	-0.157471	0.081590	0.020358	-0.781494	-0.176270	-0.776367	0.066417	0.010515	0.019845	0.404644	0.469888	-0.272486	0.735677	-2.883753	-65.767937	124.240517
42318		6.842534	1.134091	1.817956	-1.693091	0.307410	-2.852060	-0.171102	0.031301	0.032615	-0.785889	-0.178711	-0.771973	0.068426	0.011368	0.018159	0.404942	0.469398	-0.273209	0.735557	-3.038348	-65.756141	124.296575
42319		7.315586	1.203202	1.789605	-1.881175	0.451578	-2.435328	-0.202739	-0.018986	0.041524	-0.785889	-0.178711	-0.776367	0.073152	0.012065	0.017891	0.405211	0.469018	-0.274169	0.735294	-3.225255	-65.772816	124.368586
42320		7.857887	1.169914	1.899827	-1.932020	0.560391	-1.895764	-0.250766	-0.076483	0.024771	-0.781738	-0.169678	-0.776367	0.078570	0.011733	0.019014	0.405576	0.468773	-0.275385	0.734795	-3.423396	-65.822787	124.422328
42321		8.288363	1.178331	1.791596	-2.092324	0.776844	-1.547463	-0.314890	-0.133083	0.014296	-0.783936	-0.171875	-0.774170	0.082871	0.011817	0.017953	0.406050	0.468621	-0.276922	0.734052	-3.649096	-65.905369	124.466509
42322		8.615014	1.183535	1.638840	-2.244472	0.991512	-1.310673	-0.389887	-0.174044	0.008950	-0.781982	-0.165283	-0.769775	0.086135	0.011871	0.016440	0.406662	0.468471	-0.278807	0.733095	-3.916204	-66.011536	124.508418
42323		8.963082	1.285226	1.449893	-2.498999	1.191096	-1.070427	-0.429425	-0.183324	-0.004292	-0.786621	-0.160889	-0.774170	0.089618	0.012882	0.014553	0.407399	0.468292	-0.280820	0.732031	-4.189990	-66.123466	124.533446
42324		9.098343	1.330806	1.849223	-2.386434	0.881731	-0.785064	-0.416883	-0.193651	-0.012417	-0.786865	-0.158691	-0.767578	0.090966	0.013341	0.018553	0.408120	0.468184	-0.282791	0.730939	-4.449485	-66.241592	124.550054
42325		9.261923	1.096618	2.525897	-1.914785	0.497448	-0.354778	-0.348290	-0.229683	0.014555	-0.793701	-0.156738	-0.769775	0.092589	0.011017	0.025346	0.408529	0.468308	-0.284644	0.729910	-4.708921	-66.379100	124.609909
42326		9.447292	0.621383	4.373557	-0.713678	-0.703989	0.568085	-0.240415	-0.265466	0.057309	-0.793945	-0.150146	-0.765381	0.094413	0.006294	0.043853	0.408477	0.468719	-0.286278	0.729036	-4.969294	-66.534791	124.737729
42327		9.987334	-0.104765	8.293289	1.555316	-3.337086	2.636455	-0.105401	-0.303007	0.077262	-0.793945	-0.147949	-0.760986	0.099748	-0.000965	0.083085	0.407981	0.469515	-0.287540	0.728305	-5.184557	-66.710941	124.900891
42328		12.093118	-1.252352	10.303035	2.995048	-3.737941	5.386706	0.105374	-0.424571	0.028065	-0.798340	-0.150391	-0.756592	0.120714	-0.012561	0.103280	0.406993	0.471250	-0.288168	0.727489	-5.231631	-66.958606	125.011841
42329		14.251120	-3.022537	6.035046	2.174028	1.185728	5.760301	0.227059	-0.940178	-0.001187	-0.807373	-0.150635	-0.749756	0.142225	-0.030295	0.060985	0.405076	0.475144	-0.289328	0.725562	-5.234856	-67.502065	125.150774
42330		13.943036	-5.504254	2.299474	2.758860	5.247931	4.145808	0.421357	-0.906214	-0.078603	-0.809082	-0.157471	-0.738770	0.139303	-0.055146	0.023510	0.403017	0.479408	-0.289525	0.723824	-5.016176	-68.030110	125.169460
42331		11.607705	-4.587327	3.191979	2.939907	3.316162	2.284045	0.452625	-0.166373	-0.265774	-0.808838	-0.164063	-0.738770	0.115989	-0.046100	0.031912	0.402624	0.481322	-0.287663	0.723514	-4.417465	-68.144676	124.798096
42332		9.827273	-2.182743	5.055564	2.154537	0.060183	1.244104	0.369971	-0.111292	-0.153152	-0.811279	-0.161865	-0.738770	0.098228	-0.021996	0.050570	0.402100	0.482704	-0.286260	0.723442	-4.017605	-68.221684	124.589854
42333		9.378195	-1.282680	6.394313	2.138632	-1.613700	1.291597	0.439219	-0.307556	0.005614	-0.808594	-0.166260	-0.732178	0.093684	-0.012965	0.064059	0.400552	0.484704	-0.285381	0.723310	-3.822958	-68.404114	124.645512
42334		10.391785	0.225981	6.749598	0.848259	-2.395012	2.317497	0.466260	-0.465426	0.044472	-0.815186	-0.171143	-0.727783	0.103760	0.002125	0.067743	0.398569	0.487270	-0.284814	0.722905	-3.684015	-68.675549	124.777417
42335		11.550405	1.512509	6.248512	-0.671967	-2.359021	3.176786	0.430278	-0.503012	-0.034154	-0.825928	-0.180176	-0.725586	0.115349	0.014970	0.062808	0.396900	0.490006	-0.284256	0.722194	-3.452379	-68.971161	124.787625
42336		11.906999	2.528804	5.957196	-1.685432	-2.590778	3.382250	0.446024	-0.374918	-0.151480	-0.823486	-0.184570	-0.718750	0.118977	0.025065	0.059851	0.395794	0.492473	-0.283097	0.721577	-3.021167	-69.197585	124.593747
42337		11.362683	3.128568	5.899756	-2.045212	-3.038432	2.847892	0.374451	-0.266182	-0.288773	-0.823242	-0.187012	-0.718750	0.113593	0.031011	0.059207	0.395508	0.494599	-0.281635	0.720851	-2.406564	-69.364753	124.161117
42338		10.656757	2.950854	5.694959	-1.791845	-2.985326	2.128140	0.237314	-0.142567	-0.414668	-0.825439	-0.191406	-0.718750	0.106588	0.029220	0.057060	0.396188	0.496180	-0.280116	0.719983	-1.665363	-69.461992	123.508787
42339		9.877630	2.450189	5.531991	-1.245696	-2.795592	1.358997	0.123470	0.051154	-0.493442	-0.831787	-0.198242	-0.716553	0.098850	0.024224	0.055310	0.397704	0.496945	-0.278420	0.719277	-0.856441	-69.445636	122.715184
42340		8.969937	2.125601	5.585810	-0.733844	-2.899057	0.542791	0.025417	0.128263	-0.530301	-0.820313	-0.200195	-0.718750	0.089791	0.021011	0.055803	0.399700	0.497286	-0.276836	0.718546	-0.050061	-69.381854	121.863541
42341		8.777807	1.452070	5.579005	-0.097117	-2.559625	0.371731	-0.037880	0.101119	-0.550866	-0.820557	-0.195557	-0.725586	0.087846	0.014289	0.055743	0.401888	0.497623	-0.275474	0.717615	0.748066	-69.329023	120.982224
42342		9.318921	0.658764	5.539200	0.492854	-1.913551	0.866929	-0.067503	0.098359	-0.553892	-0.820313	-0.204590	-0.727783	0.093234	0.006348	0.055344	0.404152	0.497911	-0.274220	0.716623	1.528158	-69.273812	120.101142
42343		10.060773	-0.153011	5.033949	0.838215	-0.824515	1.376618	-0.058970	0.140189	-0.519730	-0.812988	-0.213135	-0.725586	0.100639	-0.001777	0.050269	0.406333	0.498008	-0.272934	0.715814	2.254333	-69.190286	119.282067
42344		10.720024	-0.993165	4.783201	1.347880	0.057308	1.890474	-0.049163	0.233183	-0.462778	-0.815186	-0.215332	-0.734375	0.107233	-0.010168	0.047709	0.408404	0.497718	-0.271564	0.715357	2.887477	-69.052475	118.568454
42345		11.071098	-1.709694	4.727727	1.895028	0.633441	2.181102	-0.049072	0.360759	-0.426492	-0.810791	-0.215332	-0.738770	0.110759	-0.017322	0.047082	0.410518	0.496915	-0.270014	0.715292	3.447578	-68.839072	117.932833
42346		10.998891	-2.222205	4.470592	2.234311	1.136573	2.003222	-0.040683	0.419823	-0.394506	-0.803955	-0.215088	-0.738770	0.110038	-0.022430	0.044480	0.412571	0.495876	-0.268398	0.715441	3.946673	-68.592097	117.366345
42347		10.602356	-2.156451	4.264850	2.152686	1.194694	1.553383	-0.010924	0.431668	-0.337918	-0.799561	-0.214844	-0.747559	0.106079	-0.021741	0.042421	0.414365	0.494767	-0.266786	0.715774	4.367645	-68.337819	116.900917
42348		9.932062	-2.084326	4.207539	2.178188	1.034440	0.905469	0.048484	0.405019	-0.249792	-0.801270	-0.223877	-0.745361	0.099379	-0.020978	0.041869	0.415654	0.493765	-0.265236	0.716294	4.690412	-68.102889	116.577392
42349		9.172595	-1.892248	4.216525	2.143140	0.719151	0.206585	0.121747	0.351487	-0.145017	-0.799072	-0.223633	-0.749756	0.091786	-0.019015	0.041992	0.416319	0.492956	-0.263791	0.716999	4.906752	-67.901770	116.412947
42350		8.442327	-1.663130	4.120519	2.017731	0.464565	-0.499770	0.186646	0.274471	-0.037520	-0.794678	-0.223633	-0.749756	0.084477	-0.016686	0.041074	0.416331	0.492424	-0.262540	0.717816	5.016993	-67.750978	116.403503
42351		8.082494	-1.526852	3.959507	1.877128	0.422818	-0.888941	0.225996	0.193886	0.037078	-0.796875	-0.223633	-0.756348	0.080866	-0.015298	0.039499	0.415875	0.492157	-0.261497	0.718644	5.054552	-67.648946	116.496498
42352		8.054431	-1.341038	3.856849	1.666519	0.414799	-0.947127	0.268042	0.151012	0.088336	-0.803467	-0.226074	-0.751953	0.080579	-0.013426	0.038490	0.415071	0.492070	-0.260519	0.719522	5.051504	-67.574962	116.660003
42353		8.043002	-1.157369	3.629257	1.393711	0.506884	-1.037637	0.294961	0.114367	0.103440	-0.796387	-0.234619	-0.758789	0.080457	-0.011586	0.036229	0.414101	0.492143	-0.259560	0.720378	5.046563	-67.521899	116.841457
42354		8.039784	-0.924339	3.510176	1.133250	0.485676	-1.078059	0.324648	0.043834	0.111584	-0.802979	-0.237061	-0.758789	0.080411	-0.009255	0.035069	0.412933	0.492527	-0.258656	0.721111	5.057673	-67.510256	117.024852
42355		7.985345	-0.738684	3.246741	0.852787	0.579556	-1.222602	0.340187	0.015391	0.109487	-0.794189	-0.234619	-0.760986	0.079860	-0.007398	0.032449	0.411697	0.493041	-0.257744	0.721792	5.083964	-67.513762	117.201583
42356		7.819660	-0.594568	3.114983	0.693068	0.552061	-1.421109	0.344515	0.011594	0.120681	-0.796143	-0.239258	-0.756348	0.078202	-0.005952	0.031135	0.410403	0.493568	-0.256856	0.722486	5.097843	-67.521029	117.394299
42357		7.787143	-0.422705	3.063344	0.525321	0.492307	-1.464992	0.326743	0.042991	0.130158	-0.796143	-0.239258	-0.756348	0.077881	-0.004226	0.030610	0.409160	0.493922	-0.255986	0.723256	5.084138	-67.509588	117.605691
42358		7.676249	-0.316429	3.009732	0.423614	0.443083	-1.584222	0.298059	0.084848	0.139396	-0.800537	-0.239258	-0.758789	0.076777	-0.003156	0.030060	0.408004	0.494062	-0.255160	0.724105	5.036895	-67.475953	117.835791
42359		7.588543	-0.254138	3.045738	0.398551	0.357778	-1.649341	0.293530	0.116761	0.133852	-0.791504	-0.243408	-0.754150	0.075905	-0.002535	0.030409	0.406922	0.494075	-0.254270	0.725018	4.990701	-67.422735	118.061768
42360		7.497446	-0.230160	2.990455	0.359107	0.363927	-1.753774	0.273120	0.143333	0.131648	-0.796143	-0.241455	-0.751953	0.074997	-0.002293	0.029848	0.405927	0.493959	-0.253394	0.725960	4.934052	-67.355182	118.286752
42361		7.495931	-0.241436	2.948928	0.339698	0.410557	-1.771575	0.260225	0.158602	0.100355	-0.797852	-0.250244	-0.763184	0.074984	-0.002415	0.029427	0.405099	0.493795	-0.252454	0.726862	4.911526	-67.276420	118.466886
42362		7.386798	-0.144642	2.846453	0.218895	0.409405	-1.908735	0.221873	0.162488	0.077660	-0.800293	-0.248047	-0.756348	0.073892	-0.001449	0.028403	0.404450	0.493572	-0.251592	0.727674	4.898438	-67.195200	118.613038
42363		7.269038	0.066221	2.753565	0.009679	0.335582	-2.046563	0.173481	0.173191	0.049266	-0.797852	-0.252441	-0.760986	0.072714	0.000656	0.027473	0.404036	0.493243	-0.250809	0.728396	4.895447	-67.105699	118.718499
42364		7.259244	0.145614	2.650271	-0.114789	0.379116	-2.093566	0.139593	0.197846	0.022739	-0.795410	-0.254639	-0.767578	0.072618	0.001446	0.026432	0.403833	0.492792	-0.250039	0.729078	4.906387	-67.001602	118.787559
42365		7.304683	0.001628	2.643097	-0.014268	0.492691	-2.060179	0.137542	0.225841	0.021546	-0.791016	-0.252197	-0.763184	0.073077	0.000006	0.026348	0.403675	0.492232	-0.249211	0.729828	4.914934	-66.880690	118.858329
42366		7.299694	-0.021069	2.586739	-0.031226	0.561136	-2.088613	0.164411	0.227560	0.014675	-0.791016	-0.252197	-0.763184	0.073026	-0.000227	0.025784	0.403476	0.491731	-0.248269	0.730596	4.948013	-66.759249	118.918895
42367		7.186795	-0.107393	2.378377	-0.051968	0.742225	-2.278458	0.160922	0.195165	-0.000604	-0.788818	-0.252197	-0.760986	0.071891	-0.001093	0.023713	0.403301	0.491357	-0.247365	0.731251	5.002951	-66.654914	118.953638
42368		7.150387	-0.275489	2.157586	-0.024077	1.002934	-2.406431	0.182779	0.181049	-0.013610	-0.784424	-0.249756	-0.767578	0.071523	-0.002779	0.021509	0.403101	0.491097	-0.246380	0.731868	5.089296	-66.558641	118.967732
42369		7.360383	-0.483350	1.964401	0.004139	1.350994	-2.299864	0.181445	0.188602	-0.030943	-0.786133	-0.260986	-0.771973	0.073622	-0.004863	0.019570	0.402978	0.490823	-0.245340	0.732468	5.196005	-66.456597	118.958752
42370		7.515277	-0.795966	1.858101	0.175106	1.673320	-2.214345	0.191237	0.179811	-0.035973	-0.788330	-0.260986	-0.765381	0.075168	-0.007991	0.018506	0.402837	0.490611	-0.244270	0.733045	5.315874	-66.359877	118.941573
42371		7.640389	-0.854625	1.748243	0.140449	1.844314	-2.148416	0.199151	0.087691	-0.030586	-0.786133	-0.260986	-0.771973	0.076410	-0.008575	0.017440	0.402544	0.490742	-0.243368	0.733419	5.443783	-66.315467	118.920687
42372		7.758201	-0.808807	1.460762	-0.068613	2.080546	-2.154731	0.196740	-0.043810	-0.021625	-0.792969	-0.259033	-0.767578	0.077578	-0.008111	0.014617	0.402063	0.491342	-0.242763	0.733481	5.575169	-66.347041	118.894367
42373		7.891565	-0.618953	1.267453	-0.346694	2.162473	-2.101018	0.194234	-0.145715	-0.012838	-0.792725	-0.261230	-0.763184	0.078906	-0.006207	0.012726	0.401432	0.492296	-0.242393	0.733309	5.706514	-66.436764	118.866487
42374		8.039404	-0.316127	1.255095	-0.622060	2.043525	-1.954937	0.213715	-0.215366	-0.006516	-0.792480	-0.270020	-0.760986	0.080380	-0.003177	0.012634	0.400645	0.493540	-0.242107	0.732998	5.851116	-66.566954	118.836394
42375		8.205996	-0.074680	1.464976	-0.730084	1.793682	-1.704682	0.237850	-0.247686	0.019991	-0.794678	-0.270264	-0.758545	0.082042	-0.000756	0.014750	0.399661	0.494914	-0.241862	0.732690	5.979401	-66.716760	118.839164
42376		8.547035	-0.007417	1.654294	-0.735936	1.712809	-1.308972	0.278374	-0.296442	0.042609	-0.796875	-0.268066	-0.754150	0.085446	-0.000079	0.016669	0.398433	0.496521	-0.241621	0.732350	6.108954	-66.896051	118.865818
42377		9.141727	-0.109123	1.838364	-0.650756	1.813367	-0.688500	0.253609	-0.320036	0.054105	-0.796631	-0.274658	-0.747559	0.091388	-0.001090	0.018529	0.397194	0.498147	-0.241545	0.731944	6.212431	-67.089221	118.905314
42378		9.718378	-0.215156	1.963609	-0.589631	1.951640	-0.107416	0.205545	-0.276288	0.054890	-0.799072	-0.272705	-0.747559	0.097157	-0.002145	0.019768	0.396124	0.499517	-0.241559	0.731586	6.281720	-67.257835	118.952005
42379		10.105372	-0.327888	2.775722	-0.117582	1.515229	0.561362	0.151673	-0.243895	0.048040	-0.803223	-0.277344	-0.740967	0.101021	-0.003276	0.027878	0.395251	0.500667	-0.241689	0.731229	6.324129	-67.407360	118.994285
42380		10.756625	-0.431264	3.636082	0.326276	1.125920	1.489430	0.149797	-0.238256	0.039501	-0.796387	-0.279297	-0.732178	0.107524	-0.004319	0.036486	0.394420	0.501803	-0.241792	0.730864	6.376880	-67.553374	119.024198
42381		11.396055	-0.093394	4.181491	0.246921	0.709974	2.303356	0.115892	-0.319757	0.022167	-0.803467	-0.270508	-0.738770	0.113894	-0.000946	0.041996	0.393638	0.503189	-0.242136	0.730220	6.446471	-67.744516	119.014844
42382		11.944350	0.340549	7.055433	1.381196	-1.553162	3.907456	0.008014	-0.406540	0.037979	-0.807617	-0.277588	-0.723389	0.119299	0.003425	0.070797	0.392963	0.504659	-0.243084	0.729253	6.446801	-67.986262	119.013568
42383		12.836535	1.031320	9.267416	1.897774	-3.394747	5.569064	0.024332	-0.716115	0.139304	-0.816650	-0.275635	-0.718750	0.128025	0.010391	0.093134	0.391497	0.507161	-0.244834	0.727719	6.360559	-68.410543	119.115507
42384		13.830016	1.795373	4.946440	-1.192396	-0.400813	4.930922	0.012264	-1.382551	0.164847	-0.827881	-0.276123	-0.703369	0.137939	0.018064	0.050420	0.389141	0.512019	-0.247989	0.724505	6.335441	-69.216111	119.144142
42385		12.676937	3.986568	1.143316	-4.795128	0.715448	2.613014	-0.461577	-1.166437	0.125971	-0.832764	-0.265137	-0.707764	0.126675	0.039973	0.012080	0.388389	0.515195	-0.252329	0.721151	6.055002	-69.895957	119.155424
42386		10.415161	4.700380	1.625420	-4.727925	-0.801398	0.685670	-0.752877	-0.127484	0.181549	-0.839600	-0.265381	-0.705566	0.104099	0.047159	0.016143	0.389487	0.513976	-0.255838	0.720191	5.343211	-69.986760	119.448160
42387		9.304428	3.193616	3.263251	-2.458862	-1.531952	0.138554	-0.664845	0.303160	0.116880	-0.835205	-0.260742	-0.705566	0.093075	0.032098	0.032385	0.391137	0.511452	-0.258021	0.720315	4.720988	-69.827116	119.699290
42388		9.553036	2.262850	5.387051	-0.650520	-2.559076	1.069820	-0.733782	0.239550	-0.002581	-0.824707	-0.249268	-0.703369	0.095595	0.022824	0.053673	0.393306	0.509170	-0.260268	0.719942	4.258269	-69.697871	119.738562
42389		10.894229	0.895964	6.047410	0.560032	-1.907128	2.520491	-0.619788	0.048671	-0.069469	-0.829590	-0.240479	-0.716553	0.108960	0.009109	0.060420	0.395172	0.507880	-0.262305	0.719092	3.987960	-69.674662	119.642514
42390		11.974163	-0.112229	5.580750	0.954386	-0.679562	3.346539	-0.505957	-0.119624	-0.115208	-0.831299	-0.251709	-0.718750	0.119708	-0.001050	0.055882	0.396689	0.507475	-0.264148	0.717867	3.871581	-69.746176	119.451718
42391		12.223865	-1.006738	5.367967	1.554158	0.028915	3.485252	-0.382779	-0.117857	-0.168626	-0.831787	-0.240479	-0.712158	0.122198	-0.010068	0.053771	0.398086	0.507374	-0.265406	0.716699	3.909126	-69.814286	119.172283
42392		12.316872	-1.750960	5.150558	2.061544	0.622324	3.478746	-0.223875	0.020523	-0.180358	-0.831787	-0.242676	-0.714355	0.123158	-0.017563	0.051513	0.399304	0.507110	-0.265791	0.716067	4.041591	-69.803055	118.888673
42393		11.552570	-1.922547	5.435354	2.482358	0.272291	2.854784	-0.084962	0.200502	-0.125191	-0.831543	-0.244873	-0.718750	0.115568	-0.019275	0.054246	0.400210	0.506402	-0.265457	0.716185	4.147160	-69.690716	118.718530
42394		9.441555	-1.373403	5.914477	2.608584	-1.021677	1.057531	-0.005557	0.232776	-0.004340	-0.822754	-0.242432	-0.718750	0.094484	-0.013734	0.059035	0.400525	0.505578	-0.265082	0.716730	4.107610	-69.565187	118.751515
42395		9.072068	-1.156871	6.414917	2.725301	-1.631471	0.897257	0.015350	0.176626	0.193189	-0.833984	-0.240479	-0.718750	0.090788	-0.011486	0.064068	0.400004	0.504733	-0.265241	0.717558	3.784590	-69.479101	119.099977
42396		9.932182	-1.050030	6.175323	2.328865	-1.236195	1.629927	-0.031175	0.212779	0.403494	-0.827637	-0.233643	-0.714355	0.099408	-0.010290	0.061649	0.398892	0.503386	-0.266026	0.718831	3.114976	-69.378940	119.790300
42397		9.900962	-0.506532	5.842805	1.650299	-1.279664	1.503788	0.004868	0.317337	0.527477	-0.828125	-0.227051	-0.729980	0.099115	-0.004805	0.058271	0.397380	0.501564	-0.266783	0.720659	2.278211	-69.218726	120.682004
42398		9.579909	-0.004829	5.410412	1.002175	-1.314014	1.064625	0.046593	0.273865	0.610964	-0.830078	-0.229248	-0.723389	0.095873	0.000232	0.053973	0.395401	0.499868	-0.267683	0.722590	1.355495	-69.080477	121.692116
42399		9.459022	0.130206	5.225873	0.754751	-1.291016	0.890728	0.056921	0.210371	0.649099	-0.833008	-0.218262	-0.723389	0.094640	0.001594	0.052160	0.393168	0.498361	-0.268762	0.724446	0.394708	-68.972538	122.750153
42400		9.381370	0.054653	5.300382	0.813277	-1.347517	0.847033	0.090287	0.159182	0.621925	-0.828613	-0.218262	-0.723389	0.093854	0.000814	0.052929	0.390878	0.497140	-0.269751	0.726155	-0.496487	-68.888350	123.754797
42401		9.494600	-0.083317	5.323349	0.869162	-1.272158	0.963138	0.125173	0.105806	0.521242	-0.830566	-0.220459	-0.727783	0.094976	-0.000619	0.053183	0.388790	0.496308	-0.270464	0.727578	-1.213592	-68.830082	124.594765
42402		9.347029	0.037936	5.094607	0.645398	-1.219529	0.742858	0.120173	0.054113	0.393960	-0.826416	-0.218018	-0.736572	0.093483	0.000533	0.050921	0.387106	0.495828	-0.270980	0.728611	-1.743475	-68.800475	125.231057
42403		9.289455	0.350105	4.594657	0.117112	-1.033163	0.504591	0.097625	0.019916	0.277324	-0.830811	-0.216064	-0.732178	0.092894	0.003607	0.045939	0.385855	0.495581	-0.271350	0.729304	-2.114657	-68.790232	125.683598
42404		9.344586	0.620682	4.107000	-0.385949	-0.797171	0.375027	0.082566	0.038517	0.180546	-0.831055	-0.213623	-0.736572	0.093448	0.006274	0.041055	0.385019	0.495371	-0.271503	0.729832	-2.350170	-68.771294	125.981146
42405		9.527323	0.836306	3.884369	-0.730429	-0.692544	0.460796	0.078566	0.096317	0.099956	-0.830811	-0.215820	-0.738770	0.095288	0.008395	0.038801	0.384565	0.495048	-0.271356	0.730345	-2.465242	-68.720192	126.147262
42406		9.316275	1.252835	3.847073	-1.060554	-0.953128	0.243619	0.073112	0.130942	0.066839	-0.835449	-0.213867	-0.736572	0.093184	0.012545	0.038414	0.384292	0.494636	-0.271083	0.730868	-2.531850	-68.650689	126.257882
42407		9.024691	1.578297	3.893387	-1.253160	-1.249241	-0.016591	0.061743	0.132788	0.044921	-0.833008	-0.216064	-0.734375	0.090269	0.015791	0.038879	0.384130	0.494222	-0.270791	0.731342	-2.572305	-68.579977	126.333660
42408		8.690564	1.749779	3.723513	-1.419308	-1.304469	-0.392704	0.018402	0.131269	0.039396	-0.826416	-0.215820	-0.734375	0.086927	0.017511	0.037180	0.384093	0.493741	-0.270649	0.731739	-2.629213	-68.510929	126.400284
42409		8.560059	1.864830	3.250300	-1.740241	-1.032456	-0.690066	-0.033561	0.156324	0.028217	-0.833008	-0.218262	-0.743164	0.085623	0.018666	0.032433	0.384259	0.493080	-0.270619	0.732109	-2.697410	-68.427169	126.447333
42410		8.425524	1.805495	3.028373	-1.789127	-0.855778	-0.897142	-0.092697	0.220540	0.015381	-0.828613	-0.218018	-0.740967	0.084287	0.018075	0.030182	0.384704	0.492090	-0.270652	0.732528	-2.776185	-68.307630	126.469084
42411		8.252108	1.540225	2.995851	-1.563889	-0.718541	-1.067254	-0.165153	0.256917	-0.015935	-0.824219	-0.213379	-0.751953	0.082561	0.015420	0.029840	0.385491	0.490866	-0.270800	0.732881	-2.848194	-68.167497	126.439137
42412		8.248066	1.064048	2.991013	-1.186055	-0.434010	-1.065470	-0.212957	0.243950	-0.048980	-0.824707	-0.204590	-0.747559	0.082520	0.010652	0.029798	0.386498	0.489644	-0.271071	0.733068	-2.901586	-68.036392	126.359310
42413		8.282061	0.703151	2.895139	-0.955882	-0.133472	-1.064132	-0.246260	0.208114	-0.071199	-0.829102	-0.206787	-0.756592	0.082853	0.007038	0.028857	0.387619	0.488515	-0.271474	0.733080	-2.945099	-67.925819	126.248350
42414		8.306293	0.429772	2.768777	-0.809402	0.138215	-1.085084	-0.285081	0.224954	-0.092900	-0.826904	-0.204590	-0.754150	0.083096	0.004298	0.027588	0.388935	0.487280	-0.271936	0.733034	-2.979791	-67.806930	126.103590
42415		8.251428	0.318830	2.575549	-0.814335	0.350365	-1.208315	-0.323283	0.271372	-0.104605	-0.827148	-0.199951	-0.767578	0.082551	0.003187	0.025638	0.390449	0.485812	-0.272415	0.733026	-3.016970	-67.661263	125.937933
42416		8.124932	0.131655	2.451888	-0.705380	0.531055	-1.370889	-0.348482	0.330335	-0.113815	-0.824951	-0.199951	-0.765381	0.081290	0.001313	0.024382	0.392136	0.484091	-0.272850	0.733102	-3.052837	-67.482783	125.754840
42417		7.904068	0.005373	2.424577	-0.578646	0.576134	-1.585534	-0.333546	0.363846	-0.121270	-0.818115	-0.201904	-0.767578	0.079085	0.000046	0.024102	0.393858	0.482281	-0.273142	0.733263	-3.068449	-67.284808	125.559032
42418		7.688677	-0.151693	2.447105	-0.401721	0.600521	-1.774963	-0.301048	0.374298	-0.126085	-0.816162	-0.197510	-0.774170	0.076931	-0.001529	0.024329	0.395530	0.480503	-0.273285	0.733477	-3.060236	-67.081586	125.357085
42419		7.437662	-0.249760	2.343608	-0.327714	0.678439	-2.046997	-0.292877	0.379323	-0.099474	-0.816162	-0.197510	-0.776367	0.074420	-0.002500	0.023299	0.397090	0.478681	-0.273446	0.733765	-3.084216	-66.874132	125.195116
42420		7.251025	-0.309918	2.291516	-0.274637	0.714641	-2.240485	-0.256661	0.384979	-0.096037	-0.807617	-0.190430	-0.778564	0.072553	-0.003105	0.022780	0.398556	0.476905	-0.273474	0.734116	-3.093353	-66.663906	125.039103
42421		7.188264	-0.388788	2.261263	-0.222655	0.782620	-2.311122	-0.223968	0.376306	-0.073204	-0.807373	-0.194824	-0.787354	0.071924	-0.003889	0.022482	0.399847	0.475190	-0.273448	0.734536	-3.115466	-66.457427	124.917605
42422		7.240165	-0.423040	2.151721	-0.271998	0.923579	-2.309233	-0.186461	0.326373	-0.042174	-0.798584	-0.190186	-0.787354	0.072436	-0.004226	0.021403	0.400864	0.473692	-0.273461	0.734944	-3.161314	-66.279093	124.845094
42423		7.109726	-0.279412	2.004967	-0.447727	0.935265	-2.493469	-0.166609	0.279318	0.010732	-0.803223	-0.190186	-0.794189	0.071125	-0.002774	0.019953	0.401575	0.472330	-0.273616	0.735375	-3.267521	-66.125522	124.851079
42424		7.036364	-0.080602	1.838923	-0.692128	0.947829	-2.634867	-0.124657	0.235312	0.038149	-0.794434	-0.187744	-0.794189	0.070385	-0.000781	0.018307	0.402024	0.471179	-0.273773	0.735810	-3.387900	-65.996699	124.898685
42425		6.923003	0.231945	1.747265	-0.987502	0.825701	-2.785757	-0.078976	0.186914	0.070220	-0.796387	-0.189941	-0.791748	0.069245	0.002351	0.017407	0.402181	0.470250	-0.273931	0.736259	-3.525760	-65.893953	124.994319
42426		6.914161	0.384066	1.742319	-1.128867	0.750846	-2.801932	-0.067954	0.117258	0.097129	-0.796387	-0.189941	-0.796387	0.069150	0.003880	0.017381	0.402117	0.469565	-0.274255	0.736611	-3.696593	-65.830413	125.132889
42427		6.892751	0.549518	1.694590	-1.296616	0.692472	-2.846850	-0.058292	0.014423	0.111401	-0.799072	-0.183350	-0.794189	0.068926	0.005539	0.016939	0.401837	0.469256	-0.274780	0.736764	-3.887761	-65.824542	125.300037
42428		6.890505	0.491973	1.576985	-1.308424	0.805303	-2.895500	-0.099509	-0.116277	0.107633	-0.798828	-0.185791	-0.791748	0.068893	0.004965	0.015807	0.401487	0.469352	-0.275713	0.736545	-4.109910	-65.893680	125.475031
42429		7.284864	0.357470	1.476243	-1.337405	1.070655	-2.571048	-0.176934	-0.199950	0.100374	-0.803711	-0.177002	-0.785156	0.072832	0.003624	0.014832	0.401231	0.469609	-0.277080	0.736008	-4.376035	-66.010278	125.649658
42430		7.818144	0.166848	1.358951	-1.357586	1.421003	-2.122717	-0.233784	-0.178649	0.072106	-0.799316	-0.176758	-0.789551	0.078169	0.001713	0.013657	0.401239	0.469714	-0.278548	0.735382	-4.638643	-66.116004	125.784467
42431		8.104516	0.178327	1.322556	-1.452609	1.521889	-1.873047	-0.279587	-0.145680	0.037112	-0.806396	-0.170410	-0.785156	0.081035	0.001817	0.013282	0.401530	0.469651	-0.280034	0.734699	-4.879916	-66.204041	125.867332
42432		8.555020	0.298989	1.426366	-1.613315	1.509165	-1.420316	-0.309706	-0.169575	0.026466	-0.799805	-0.165771	-0.787354	0.085538	0.003023	0.014332	0.401895	0.469630	-0.281654	0.733893	-5.128978	-66.306391	125.939621
42433		9.392189	0.484545	1.690564	-1.844542	1.457763	-0.551016	-0.306485	-0.218470	0.013842	-0.802246	-0.161377	-0.782959	0.093903	0.004878	0.017001	0.402229	0.469811	-0.283328	0.732950	-5.366486	-66.436962	126.001407
42434		10.159992	0.617848	2.282042	-1.862529	1.143457	0.387231	-0.258560	-0.258190	0.039380	-0.813721	-0.159668	-0.771973	0.101569	0.006228	0.022944	0.402298	0.470196	-0.284968	0.732028	-5.617191	-66.588892	126.107297
42435		10.608845	0.501897	3.011851	-1.530565	0.735060	1.095461	-0.189910	-0.272977	0.093184	-0.808838	-0.163818	-0.778564	0.106045	0.005097	0.030258	0.401987	0.470695	-0.286509	0.731276	-5.903488	-66.745829	126.294817
42436		10.884993	0.169180	4.914244	-0.437180	-0.563486	2.110093	-0.106850	-0.316667	0.144180	-0.806885	-0.159424	-0.771973	0.108771	0.001797	0.049314	0.401230	0.471446	-0.287956	0.730640	-6.220131	-66.924309	126.566716
42437		11.026189	-0.175146	8.702708	1.565641	-3.417839	3.722879	-0.018262	-0.350524	0.129814	-0.816162	-0.153076	-0.769775	0.110110	-0.001672	0.087220	0.400267	0.472518	-0.289109	0.730020	-6.475532	-67.122327	126.827042
42438		12.073277	-1.091927	10.141162	2.797755	-3.830971	5.263623	0.125776	-0.533202	0.014784	-0.815674	-0.164063	-0.765381	0.120463	-0.010974	0.101726	0.399116	0.474708	-0.289832	0.728942	-6.525216	-67.431644	126.953132
42439		13.381062	-2.834821	6.985559	2.608784	-0.091017	5.322416	0.231464	-0.953255	-0.092404	-0.831299	-0.162598	-0.754150	0.133463	-0.028491	0.070459	0.397491	0.478787	-0.290745	0.726795	-6.433288	-67.986787	126.991448
42440		13.469058	-5.208916	4.008487	3.339593	3.453054	4.383730	0.356518	-0.997396	-0.260808	-0.833252	-0.169189	-0.747559	0.134421	-0.052337	0.040663	0.396102	0.483507	-0.290883	0.724369	-6.031505	-68.577862	126.772988
42441		12.469744	-4.966233	3.148853	3.041881	3.673255	3.122799	0.446637	-0.570813	-0.374508	-0.839600	-0.174072	-0.740967	0.124514	-0.049966	0.031733	0.395519	0.487014	-0.289567	0.722864	-5.329110	-68.931118	126.288270
42442		10.821564	-2.363338	3.714957	1.507650	1.371459	1.691153	0.374873	-0.385232	-0.249126	-0.839600	-0.176270	-0.740967	0.108114	-0.023838	0.037313	0.394921	0.489522	-0.288446	0.721945	-4.813811	-69.170471	125.960659
42443		10.305859	-0.285532	5.819542	0.902177	-1.565206	1.887541	0.311205	-0.309825	-0.140350	-0.843994	-0.176270	-0.736572	0.102966	-0.003018	0.058350	0.394192	0.491469	-0.287670	0.721330	-4.481677	-69.360579	125.790412
42444		11.186942	1.462901	7.081608	-0.105686	-3.269864	3.099837	0.304867	-0.478952	-0.094115	-0.845947	-0.185303	-0.729980	0.111706	0.014468	0.071106	0.393066	0.493946	-0.287362	0.720375	-4.239000	-69.645249	125.712003
42445		12.462007	2.871810	6.945916	-1.555174	-3.591761	4.204248	0.347525	-0.605925	-0.147274	-0.847900	-0.189941	-0.723389	0.124430	0.028505	0.069886	0.391839	0.497033	-0.287015	0.719057	-3.897932	-70.004170	125.555043
42446		12.981698	4.041625	6.097801	-2.980410	-3.433901	4.377700	0.375508	-0.474576	-0.254007	-0.854248	-0.194580	-0.718994	0.129723	0.040136	0.061361	0.391111	0.499852	-0.286042	0.717886	-3.348372	-70.291751	125.193718
42447		11.694364	4.541040	5.621250	-3.306342	-3.693298	3.009355	0.182340	-0.326344	-0.466096	-0.853760	-0.207764	-0.718994	0.116957	0.045086	0.056445	0.391835	0.502058	-0.284937	0.716389	-2.541723	-70.498897	124.442774
42448		10.115626	4.226164	5.759202	-2.606499	-4.063391	1.591234	-0.082030	-0.205183	-0.641162	-0.855713	-0.210205	-0.709961	0.101232	0.041961	0.057679	0.394018	0.503558	-0.284103	0.714468	-1.580144	-70.636757	123.367503
42449		8.790528	3.208223	5.980545	-1.343932	-4.042766	0.443171	-0.187248	-0.020924	-0.714564	-0.853760	-0.207764	-0.718994	0.088013	0.031824	0.059785	0.396986	0.504290	-0.283087	0.712710	-0.540935	-70.663120	122.147018
42450		8.139789	2.066971	5.940355	-0.242641	-3.558772	-0.164247	-0.259798	0.048385	-0.775627	-0.851318	-0.212158	-0.723389	0.081492	0.020431	0.059357	0.400446	0.504710	-0.282040	0.710890	0.556497	-70.642675	120.820377
42451		9.234774	1.135247	5.533513	0.204296	-2.395421	0.742383	-0.309049	0.086704	-0.825374	-0.848633	-0.216553	-0.723389	0.092418	0.011057	0.055278	0.404256	0.504954	-0.280955	0.708987	1.702689	-70.590478	119.412128
42452		10.626281	0.148187	4.854970	0.538537	-0.893145	1.824426	-0.311616	0.104259	-0.792606	-0.846680	-0.214355	-0.725586	0.106293	0.001136	0.048492	0.407970	0.505078	-0.279926	0.707176	2.784436	-70.520531	118.069841
42453		11.650230	-1.047623	4.551166	1.309448	0.310805	2.666367	-0.299941	0.188268	-0.711385	-0.846191	-0.223145	-0.734375	0.116507	-0.010822	0.045418	0.411482	0.504803	-0.278880	0.705749	3.724709	-70.396577	116.884201
42454		12.191993	-2.388343	4.148113	2.233731	1.529646	3.002378	-0.261416	0.319049	-0.619563	-0.839600	-0.222900	-0.732178	0.121911	-0.024207	0.041318	0.414746	0.504014	-0.277662	0.704883	4.509344	-70.196426	115.885894
42455		12.177703	-3.076846	3.478103	2.541091	2.475841	2.728173	-0.218061	0.486157	-0.527780	-0.835205	-0.220459	-0.745361	0.121779	-0.031052	0.034519	0.417806	0.502588	-0.276167	0.704681	5.133405	-69.900417	115.083477
42456		11.228729	-2.966972	3.235171	2.479846	2.394719	1.740181	-0.170574	0.658249	-0.401499	-0.832275	-0.231445	-0.749756	0.112333	-0.029868	0.032007	0.420531	0.500476	-0.274464	0.705228	5.543368	-69.511260	114.536380
42457		10.100706	-2.811753	3.420364	2.589060	1.882796	0.741008	-0.034607	0.700507	-0.240014	-0.830078	-0.231445	-0.747559	0.101092	-0.028233	0.033855	0.422401	0.498269	-0.272589	0.706400	5.764878	-69.105357	114.272669
42458		8.531337	-2.463335	3.747792	2.654520	0.997775	-0.600989	0.138376	0.567661	-0.064336	-0.823486	-0.231201	-0.754150	0.085411	-0.024687	0.037219	0.423031	0.496655	-0.270822	0.707837	5.837835	-68.785848	114.273616
42459		7.479418	-2.171463	3.683834	2.509767	0.600142	-1.592690	0.289019	0.382539	0.102184	-0.818848	-0.233154	-0.765381	0.074876	-0.021729	0.036664	0.422445	0.495784	-0.269322	0.709369	5.781345	-68.580971	114.506316
42460		6.930209	-2.098726	3.352742	2.355067	0.674283	-2.218462	0.407373	0.251625	0.250687	-0.821045	-0.233154	-0.765381	0.069370	-0.020968	0.033397	0.420860	0.495426	-0.268048	0.711042	5.599214	-68.459540	114.947018
42461		6.754248	-1.836392	3.157146	2.043176	0.657998	-2.440293	0.448824	0.169692	0.346874	-0.816650	-0.235352	-0.760986	0.067601	-0.018317	0.031473	0.418717	0.495311	-0.267032	0.712767	5.316509	-68.388781	115.521793
42462		6.856486	-1.645126	3.081048	1.805366	0.665779	-2.362315	0.486071	0.099813	0.416776	-0.818848	-0.233154	-0.765381	0.068614	-0.016383	0.030736	0.416135	0.495428	-0.266204	0.714506	4.966038	-68.360970	116.192527
42463		7.134720	-1.399930	3.054582	1.516375	0.656848	-2.101421	0.532664	0.027705	0.455101	-0.827393	-0.239990	-0.760986	0.071383	-0.013918	0.030499	0.413201	0.495839	-0.265448	0.716202	4.596218	-68.373990	116.912920
42464		7.431441	-1.208256	2.963810	1.239890	0.723437	-1.849670	0.581648	-0.056904	0.466751	-0.832031	-0.240234	-0.758789	0.074334	-0.011995	0.029624	0.409985	0.496637	-0.264720	0.717766	4.245868	-68.434808	117.642284
42465		7.692294	-1.070033	2.816411	0.989560	0.841981	-1.654235	0.613492	-0.137266	0.446225	-0.825195	-0.239990	-0.763184	0.076927	-0.010615	0.028184	0.406651	0.497804	-0.263985	0.719123	3.947846	-68.538607	118.334697
42466		7.702747	-0.947273	2.740742	0.834262	0.825274	-1.666265	0.616734	-0.165691	0.426762	-0.827393	-0.240234	-0.754150	0.077025	-0.009393	0.027442	0.403336	0.499102	-0.263246	0.720360	3.678145	-68.657241	118.998060
42467		7.625295	-0.739565	2.796565	0.691445	0.629326	-1.710918	0.574141	-0.169750	0.417289	-0.829834	-0.238037	-0.749756	0.076245	-0.007317	0.028009	0.400151	0.500331	-0.262640	0.721505	3.392653	-68.776078	119.651700
42468		7.667036	-0.598495	2.758989	0.536189	0.578349	-1.680551	0.514485	-0.129619	0.415878	-0.838135	-0.251709	-0.749756	0.076665	-0.005897	0.027624	0.397167	0.501295	-0.262163	0.722657	3.067113	-68.871256	120.311100
42469		7.657866	-0.527358	2.692306	0.430864	0.575064	-1.710024	0.488772	-0.030143	0.392303	-0.838623	-0.240479	-0.756592	0.076585	-0.005189	0.026922	0.394459	0.501870	-0.261519	0.723973	2.750392	-68.906903	120.945022
42470		7.682711	-0.216833	2.694548	0.153049	0.402535	-1.679658	0.462955	0.068752	0.357073	-0.833984	-0.244873	-0.743164	0.076840	-0.002093	0.026914	0.392069	0.502081	-0.260683	0.725424	2.464194	-68.884413	121.530284
42471		7.538759	0.108557	2.809471	-0.043600	0.084409	-1.767268	0.471360	0.052387	0.315260	-0.843018	-0.245117	-0.751953	0.075393	0.001138	0.028078	0.389785	0.502415	-0.259741	0.726761	2.246102	-68.868795	122.047810
42472		7.454080	0.333473	2.585435	-0.340289	0.097660	-1.923857	0.440112	-0.023644	0.281189	-0.843018	-0.242920	-0.743164	0.074533	0.003383	0.025871	0.387602	0.503009	-0.258974	0.727791	2.065321	-68.895910	122.506090
42473		7.525860	0.525239	2.294716	-0.673228	0.225999	-1.959290	0.418162	0.024934	0.236313	-0.840332	-0.251709	-0.745361	0.075255	0.005293	0.022949	0.385698	0.503434	-0.258077	0.728826	1.935135	-68.893290	122.896663
42474		7.464123	0.606287	2.240273	-0.764727	0.199177	-2.036117	0.379738	0.103236	0.208880	-0.840332	-0.249512	-0.749756	0.074646	0.006098	0.022376	0.384089	0.503537	-0.257100	0.729949	1.820690	-68.845589	123.246778
42475		7.417511	0.677737	2.227446	-0.830002	0.155729	-2.084353	0.374597	0.160164	0.165600	-0.840332	-0.251709	-0.751953	0.074187	0.006797	0.022228	0.382723	0.503471	-0.255921	0.731125	1.765513	-68.763767	123.530377
42476		7.334300	0.526925	2.179737	-0.725091	0.259448	-2.181975	0.341108	0.186665	0.139767	-0.840088	-0.256104	-0.754150	0.073360	0.005283	0.021738	0.381568	0.503280	-0.254749	0.732270	1.729667	-68.666792	123.772752
42477		7.325848	0.338890	2.057065	-0.645176	0.466863	-2.237717	0.339007	0.183533	0.092972	-0.833252	-0.258057	-0.751953	0.073276	0.003388	0.020509	0.380584	0.503149	-0.253470	0.733314	1.762049	-68.570258	123.940784
42478		7.248008	0.078697	2.006095	-0.451385	0.642838	-2.332900	0.344374	0.162143	0.051098	-0.828613	-0.262451	-0.747559	0.072496	0.000771	0.020004	0.379711	0.503163	-0.252108	0.734227	1.860186	-68.485818	124.041504
42479		7.290502	-0.238033	1.886323	-0.272542	0.941736	-2.342404	0.305090	0.148909	0.012805	-0.833252	-0.260254	-0.749756	0.072919	-0.002404	0.018805	0.379060	0.503193	-0.250816	0.734984	1.991676	-68.407789	124.082281
42480		7.572378	-0.543740	1.810910	-0.127299	1.274199	-2.113586	0.266589	0.117894	-0.000775	-0.835205	-0.264893	-0.749756	0.075734	-0.005462	0.018057	0.378516	0.503284	-0.249692	0.735585	2.122279	-68.347778	124.100242
42481		7.878038	-0.626177	1.679067	-0.197253	1.524556	-1.881001	0.255615	0.083477	-0.037979	-0.832764	-0.269287	-0.749756	0.078786	-0.006298	0.016750	0.378093	0.503523	-0.248577	0.736016	2.301436	-68.306202	124.059234
42482		8.128015	-0.633841	1.590087	-0.289716	1.679914	-1.683191	0.201537	0.035798	-0.052193	-0.834961	-0.269287	-0.749756	0.081281	-0.006376	0.015880	0.377799	0.503855	-0.247717	0.736230	2.472851	-68.292000	123.993165
42483		8.284062	-0.576003	1.587773	-0.364809	1.700034	-1.538916	0.177125	-0.012950	-0.064207	-0.838867	-0.280518	-0.743164	0.082838	-0.005801	0.015878	0.377549	0.504333	-0.247007	0.736269	2.650212	-68.304906	123.905655
42484		8.489180	-0.318601	1.632592	-0.581282	1.578140	-1.327134	0.121698	-0.066121	-0.071393	-0.834717	-0.275879	-0.743164	0.084885	-0.003226	0.016352	0.377400	0.504912	-0.246585	0.736090	2.810402	-68.348363	123.802453
42485		8.654088	0.003041	1.754418	-0.794163	1.344591	-1.121738	0.098606	-0.123903	-0.093310	-0.830078	-0.275879	-0.743164	0.086530	-0.000019	0.017598	0.377318	0.505685	-0.246300	0.735697	2.993440	-68.423781	123.660477
42486		8.905939	0.130324	1.985183	-0.803084	1.169654	-0.798220	0.102772	-0.150060	-0.111820	-0.832275	-0.278076	-0.738770	0.089045	0.001243	0.019919	0.377261	0.506587	-0.246003	0.735204	3.209413	-68.513760	123.485751
42487		9.231010	0.292168	2.176087	-0.873334	1.026907	-0.420405	0.135124	-0.133227	-0.136211	-0.836182	-0.289307	-0.740967	0.092298	0.002844	0.021824	0.377232	0.507515	-0.245493	0.734750	3.479241	-68.592723	123.273154
42488		9.642093	0.289874	2.394866	-0.810869	0.990182	0.043852	0.158838	-0.102828	-0.147406	-0.834229	-0.284912	-0.732178	0.096411	0.002809	0.024000	0.377221	0.508392	-0.244810	0.734377	3.778348	-68.653809	123.043834
42489		10.086155	0.195604	2.334884	-0.834496	1.226994	0.435167	0.175537	-0.125620	-0.167040	-0.832031	-0.280518	-0.736572	0.100848	0.001851	0.023414	0.377211	0.509405	-0.244058	0.733930	4.119283	-68.726431	122.779963
42490		10.557890	0.037002	2.099298	-0.906648	1.640518	0.787505	0.173485	-0.143083	-0.183721	-0.836426	-0.285156	-0.718750	0.105564	0.000255	0.021069	0.377246	0.510500	-0.243304	0.733402	4.488066	-68.807967	122.485121
42491		10.869515	-0.030012	1.594014	-1.172574	2.152493	0.896184	0.132038	-0.098497	-0.200592	-0.833984	-0.289307	-0.732178	0.108687	-0.000420	0.015993	0.377501	0.511370	-0.242575	0.732906	4.854475	-68.862381	122.167440
42492		10.901898	-0.251319	1.108781	-1.252049	2.658723	0.747022	0.040760	-0.082403	-0.198628	-0.831787	-0.289307	-0.725586	0.109012	-0.002624	0.011132	0.378002	0.512008	-0.242154	0.732341	5.165645	-68.907214	121.853072
42493		11.020063	-0.422368	0.885749	-1.241686	2.965513	0.773560	-0.007730	-0.090663	-0.173993	-0.835938	-0.293945	-0.723389	0.110193	-0.004319	0.008908	0.378526	0.512554	-0.241990	0.731743	5.414500	-68.957411	121.575733
42494		11.057781	-0.583254	1.206139	-0.917898	2.832226	0.920691	-0.138948	-0.141360	-0.120311	-0.835938	-0.293945	-0.718750	0.110566	-0.005891	0.012144	0.379129	0.512971	-0.242538	0.730956	5.517390	-69.039242	121.374414
42495		11.265044	-0.843270	3.105974	0.343650	1.624629	1.784806	-0.225201	-0.162468	-0.067598	-0.831787	-0.289307	-0.720947	0.112622	-0.008436	0.031161	0.379733	0.513238	-0.243578	0.730110	5.495732	-69.135980	121.253548
42496		12.198845	-0.372746	5.021189	0.887977	0.176092	3.353309	-0.210016	-0.260838	-0.037137	-0.838135	-0.293945	-0.716553	0.121922	-0.003697	0.050375	0.380066	0.513854	-0.244825	0.729085	5.452296	-69.290491	121.165477
42497		13.480495	0.265706	6.986635	1.269302	-1.340924	5.260388	-0.276658	-0.552973	0.014409	-0.843018	-0.285400	-0.714355	0.134611	0.002764	0.070235	0.380023	0.515341	-0.247003	0.727321	5.334045	-69.614492	121.116543
42498		14.706399	0.653600	8.018334	1.355226	-2.091444	6.763995	-0.277853	-0.871389	0.135831	-0.847900	-0.278809	-0.703369	0.146708	0.006748	0.080814	0.379142	0.517826	-0.250097	0.724954	5.069938	-70.126514	121.222477
42499		14.907937	1.255715	7.318239	0.483084	-2.017718	6.712227	-0.390394	-1.006175	0.279517	-0.858887	-0.283691	-0.694580	0.148691	0.012909	0.073906	0.377852	0.520392	-0.254222	0.722351	4.514701	-70.722068	121.568455
42500		14.225676	2.379822	6.294609	-0.860976	-2.261951	5.737085	-0.629189	-0.974892	0.363864	-0.866211	-0.268555	-0.685791	0.141904	0.024256	0.063563	0.376906	0.522270	-0.259359	0.719659	3.647235	-71.301734	122.098826
42501		13.270439	3.156120	3.378514	-2.961258	-0.871144	3.896842	-0.838980	-0.635035	0.366507	-0.873291	-0.261963	-0.685791	0.132538	0.031947	0.034073	0.376925	0.522506	-0.264608	0.717563	2.579818	-71.684002	122.711800
42502		11.701117	3.475519	0.969813	-4.327319	0.349990	1.636649	-1.001389	0.177985	0.299625	-0.867188	-0.250732	-0.698975	0.116967	0.034978	0.009419	0.378674	0.519593	-0.268725	0.717228	1.458857	-71.595642	123.282620
42503		9.914430	1.965198	3.737694	-1.361394	-1.386450	0.786912	-0.936702	0.817229	0.219865	-0.867676	-0.241699	-0.705566	0.099274	0.019935	0.036879	0.381386	0.514599	-0.271184	0.718465	0.505051	-71.136952	123.717033
42504		8.840939	0.347688	7.519376	2.084585	-3.689321	0.997805	-0.691695	0.612675	0.144387	-0.863281	-0.237061	-0.705566	0.088636	0.003800	0.074910	0.383450	0.510894	-0.272949	0.719342	-0.153760	-70.793523	123.988954
42505		8.899453	-0.333175	7.479039	2.549029	-3.258270	1.056224	-0.426594	0.180760	0.115606	-0.858887	-0.237061	-0.709961	0.089064	-0.003121	0.074717	0.384345	0.509282	-0.274512	0.719412	-0.605480	-70.696715	124.202816
42506		9.092918	-0.558486	6.325401	2.065599	-2.185197	0.862608	-0.255475	0.024069	0.077629	-0.861816	-0.225830	-0.716553	0.090939	-0.005469	0.063250	0.384725	0.508614	-0.275662	0.719242	-0.898008	-70.689615	124.351908
42507		9.780260	-1.378620	5.636554	2.245254	-1.011082	1.289625	-0.113868	0.067081	0.078111	-0.863770	-0.230469	-0.716553	0.097827	-0.013716	0.056341	0.384802	0.508060	-0.276221	0.719378	-1.108713	-70.657373	124.500364
42508		10.968395	-1.950776	5.441276	2.375268	-0.213746	2.354112	-0.034766	0.231067	0.145388	-0.859131	-0.232422	-0.721191	0.109761	-0.019419	0.054289	0.384662	0.506977	-0.276351	0.720167	-1.376708	-70.530436	124.757611
42509		11.175278	-2.007481	5.209526	2.221717	0.076041	2.480151	-0.034648	0.422799	0.227985	-0.857178	-0.225830	-0.723389	0.111885	-0.019938	0.051862	0.384487	0.505085	-0.276318	0.721600	-1.764685	-70.291550	125.142671
42510		10.553128	-2.019493	4.905095	2.139343	0.176648	1.801893	0.000637	0.459899	0.325466	-0.859863	-0.219238	-0.725586	0.105676	-0.020023	0.048808	0.383921	0.502992	-0.276333	0.723356	-2.274844	-70.028796	125.679619
42511		9.461102	-1.716879	4.549353	1.862583	0.006041	0.660478	0.033838	0.408017	0.422361	-0.853271	-0.214355	-0.732178	0.094740	-0.016976	0.045297	0.382845	0.501009	-0.276569	0.725210	-2.907726	-69.791064	126.368331
42512		8.408429	-0.988503	4.999125	1.647471	-1.030123	-0.174509	-0.007491	0.411096	0.442127	-0.857910	-0.212402	-0.736572	0.084208	-0.009697	0.049819	0.381803	0.498906	-0.276996	0.727044	-3.578453	-69.548614	127.073230
42513		8.002116	-0.390706	5.411075	1.396408	-1.788517	-0.414959	-0.007955	0.358244	0.422649	-0.853516	-0.212158	-0.736572	0.080126	-0.003736	0.053967	0.380756	0.497015	-0.277475	0.728704	-4.210437	-69.333943	127.737444
42514		8.234062	-0.181056	5.394848	1.120755	-1.822543	-0.202325	0.033240	0.253574	0.372357	-0.851563	-0.207764	-0.740967	0.082412	-0.001666	0.053844	0.379642	0.495653	-0.277876	0.730058	-4.742913	-69.179378	128.321372
42515		8.773919	0.089687	4.935434	0.509543	-1.463436	0.134517	0.071102	0.138275	0.284272	-0.849121	-0.209717	-0.743164	0.087772	0.001004	0.049294	0.378594	0.494901	-0.278137	0.731013	-5.130380	-69.092834	128.773830
42516		9.458145	0.177713	4.212322	-0.106923	-0.760114	0.514100	0.107896	0.061979	0.174449	-0.851318	-0.209961	-0.736572	0.094593	0.001837	0.042095	0.377749	0.494653	-0.278137	0.731617	-5.340356	-69.055210	129.058990
42517		9.806936	0.467747	3.444928	-0.830014	-0.226067	0.556607	0.094709	0.088043	0.053135	-0.854004	-0.203369	-0.740967	0.098083	0.004687	0.034408	0.377417	0.494449	-0.277835	0.732041	-5.373169	-69.008470	129.146497
42518		9.735850	0.932472	3.136943	-1.365553	-0.253705	0.364127	0.038476	0.241787	-0.025587	-0.851563	-0.205322	-0.745361	0.097398	0.009306	0.031253	0.377726	0.493689	-0.277254	0.732615	-5.299646	-68.878750	129.085502
42519		9.205326	1.349978	3.211706	-1.564393	-0.669252	-0.118349	0.035850	0.347555	-0.056850	-0.847168	-0.205322	-0.747559	0.092113	0.013468	0.031959	0.378301	0.492575	-0.276405	0.733388	-5.168824	-68.689778	128.961379
42520		8.328744	1.820930	3.195451	-1.775647	-1.137623	-0.955630	0.014612	0.389607	-0.089179	-0.848877	-0.214111	-0.751953	0.083358	0.018170	0.031794	0.379104	0.491314	-0.275474	0.734169	-4.999807	-68.478831	128.782972
42521		7.766735	2.148978	2.976261	-2.043668	-1.279742	-1.567447	-0.043479	0.402127	-0.122759	-0.842285	-0.211670	-0.758789	0.077740	0.021449	0.029602	0.380189	0.489938	-0.274648	0.734837	-4.817715	-68.261695	128.554523
42522		7.807158	2.085248	2.959646	-2.021141	-1.186455	-1.532187	-0.083411	0.386853	-0.161869	-0.837891	-0.209473	-0.756592	0.078145	0.020802	0.029437	0.381493	0.488596	-0.273902	0.735333	-4.608602	-68.055323	128.271887
42523		7.935439	1.700331	2.825980	-1.811406	-0.796612	-1.450117	-0.140918	0.373607	-0.178569	-0.833496	-0.209229	-0.760986	0.079422	0.016952	0.028100	0.382979	0.487212	-0.273349	0.735685	-4.414708	-67.856421	127.969846
42524		8.203709	1.174962	2.617766	-1.553592	-0.230348	-1.264747	-0.177312	0.344904	-0.186806	-0.835693	-0.209229	-0.765381	0.082093	0.011696	0.026026	0.384543	0.485875	-0.272965	0.735896	-4.237520	-67.674389	127.662790
42525		8.355580	0.787028	2.361436	-1.404727	0.260879	-1.212100	-0.230967	0.340198	-0.200002	-0.824463	-0.210938	-0.776367	0.083604	0.007814	0.023463	0.386278	0.484465	-0.272753	0.735995	-4.076886	-67.494798	127.340134
42526		8.448489	0.341767	2.156120	-1.165793	0.725007	-1.195388	-0.258891	0.325481	-0.209781	-0.824463	-0.210938	-0.774170	0.084523	0.003357	0.021419	0.388094	0.483069	-0.272648	0.735996	-3.924200	-67.324129	127.008204
42527		8.399850	-0.172781	2.141522	-0.738445	1.032987	-1.235915	-0.263663	0.325125	-0.194578	-0.826660	-0.211182	-0.780762	0.084031	-0.001781	0.021281	0.389863	0.481640	-0.272595	0.736017	-3.798258	-67.152342	126.702055
42528		8.257922	-0.569003	2.205608	-0.349041	1.183292	-1.335680	-0.274482	0.354250	-0.189245	-0.820313	-0.206543	-0.778564	0.082613	-0.005738	0.021918	0.391676	0.480075	-0.272538	0.736098	-3.686744	-66.963884	126.404277
42529		8.017944	-0.821020	2.119640	-0.132118	1.338193	-1.587963	-0.267335	0.355748	-0.169613	-0.815674	-0.208496	-0.789551	0.080210	-0.008250	0.021065	0.393400	0.478487	-0.272496	0.736228	-3.600311	-66.773287	126.137947
42530		7.849714	-1.011052	1.945821	-0.026310	1.546593	-1.810578	-0.239237	0.335407	-0.140938	-0.815918	-0.204102	-0.787354	0.078522	-0.010143	0.019339	0.394921	0.476989	-0.272460	0.736399	-3.540489	-66.593532	125.917613
42531		7.577687	-1.042263	1.852017	0.010131	1.570434	-2.100930	-0.204018	0.323982	-0.125008	-0.811523	-0.203857	-0.791748	0.075800	-0.010451	0.018408	0.396283	0.475578	-0.272352	0.736621	-3.484331	-66.419335	125.723095
42532		7.240705	-0.970353	1.931196	0.058358	1.380552	-2.383721	-0.200488	0.325585	-0.097312	-0.811768	-0.199463	-0.794189	0.072434	-0.009719	0.019204	0.397534	0.474130	-0.272294	0.736901	-3.464068	-66.243537	125.569606
42533		7.060118	-0.689583	1.960706	-0.131288	1.165200	-2.547001	-0.180821	0.278190	-0.066670	-0.807129	-0.201416	-0.800781	0.070626	-0.006902	0.019515	0.398561	0.472851	-0.272328	0.737156	-3.476965	-66.093495	125.464571
42534		6.909363	-0.379543	2.050651	-0.323685	0.893010	-2.658230	-0.153190	0.216665	-0.033070	-0.804932	-0.201416	-0.800781	0.069115	-0.003791	0.020435	0.399313	0.471808	-0.272463	0.737367	-3.522604	-65.977767	125.412507
42535		6.872635	-0.049007	2.166393	-0.548746	0.623116	-2.654520	-0.159651	0.158623	0.016787	-0.809570	-0.197021	-0.798584	0.068744	-0.000467	0.021610	0.399817	0.470896	-0.272854	0.737532	-3.640246	-65.893225	125.435272
42536		6.808885	0.305956	2.203801	-0.826168	0.387410	-2.707857	-0.171070	0.085461	0.046650	-0.800781	-0.194580	-0.800781	0.068098	0.003094	0.022006	0.400138	0.470192	-0.273505	0.737567	-3.808142	-65.849630	125.505877
42537		6.963749	0.659052	2.092242	-1.224400	0.336728	-2.622897	-0.221708	0.005790	0.067910	-0.802734	-0.197021	-0.796387	0.069636	0.006637	0.020913	0.400390	0.469649	-0.274550	0.737388	-4.038656	-65.850426	125.613384
42538		6.999871	1.050759	1.846506	-1.689842	0.326892	-2.702875	-0.283364	-0.066385	0.073390	-0.802979	-0.192383	-0.796387	0.069989	0.010559	0.018473	0.400666	0.469242	-0.275980	0.736963	-4.318384	-65.892257	125.736027
42539		7.146967	1.220917	1.792826	-1.901581	0.317830	-2.596943	-0.340127	-0.133374	0.062534	-0.807861	-0.186035	-0.798584	0.071454	0.012262	0.017955	0.401022	0.468980	-0.277726	0.736279	-4.624084	-65.972404	125.851532
42540		7.296476	1.309547	1.673282	-2.074160	0.402136	-2.512724	-0.431583	-0.168054	0.044244	-0.805664	-0.185791	-0.800781	0.072948	0.013148	0.016766	0.401610	0.468687	-0.279836	0.735346	-4.964067	-66.073138	125.947033
42541		7.707862	1.361741	1.663315	-2.225730	0.505595	-2.143099	-0.536575	-0.179849	-0.005839	-0.808350	-0.177002	-0.798584	0.077064	0.013660	0.016666	0.402608	0.468293	-0.282234	0.734134	-5.302497	-66.182809	125.975071
42542		8.296773	1.315457	1.609928	-2.353149	0.754650	-1.624163	-0.628210	-0.150967	-0.068064	-0.806641	-0.166016	-0.791748	0.082960	0.013177	0.016121	0.404087	0.467691	-0.284764	0.732727	-5.611078	-66.279461	125.913006
42543		9.048715	1.189413	1.473155	-2.482565	1.166403	-0.984296	-0.718138	-0.171699	-0.152266	-0.811279	-0.163818	-0.798584	0.090484	0.011878	0.014767	0.406050	0.467098	-0.287463	0.730963	-5.864781	-66.392814	125.734911
42544		9.853338	1.045769	1.429450	-2.557273	1.530895	-0.255390	-0.755785	-0.171668	-0.214099	-0.809082	-0.161621	-0.798584	0.098532	0.010406	0.014340	0.408320	0.466511	-0.290152	0.729009	-6.059697	-66.510170	125.469224
42545		10.284041	0.842335	1.501478	-2.433485	1.712264	0.180897	-0.719566	-0.141830	-0.266035	-0.809082	-0.161621	-0.791992	0.102841	0.008341	0.015058	0.410732	0.465956	-0.292521	0.727059	-6.160318	-66.613980	125.123715
42546		10.467920	0.559918	1.537845	-2.196922	1.880625	0.380084	-0.661956	-0.114156	-0.237209	-0.807373	-0.150391	-0.789551	0.104677	0.005526	0.015420	0.412939	0.465370	-0.294688	0.725307	-6.261485	-66.700471	124.814887
42547		10.591439	0.272059	1.810826	-1.843694	1.836196	0.616160	-0.581878	-0.071072	-0.154238	-0.810059	-0.141602	-0.791992	0.105910	0.002692	0.018138	0.414719	0.464668	-0.296664	0.723935	-6.419134	-66.757583	124.617800
42548		10.708461	0.064346	3.573540	-0.936382	0.530078	1.425091	-0.508964	-0.036564	-0.060873	-0.807617	-0.145996	-0.787354	0.107078	0.000702	0.035753	0.416038	0.463847	-0.298521	0.722941	-6.654308	-66.789098	124.550457
42549		11.084711	-0.317333	7.074104	0.777013	-2.043729	3.157811	-0.410170	-0.030991	-0.001506	-0.808105	-0.135010	-0.789551	0.110836	-0.003029	0.070765	0.416920	0.463123	-0.300144	0.722224	-6.910469	-66.813732	124.567619
42550		12.378348	-1.380895	10.637351	2.900037	-4.073816	5.784662	-0.234318	-0.177927	0.007107	-0.808105	-0.137207	-0.791992	0.123689	-0.013680	0.106500	0.417142	0.463279	-0.301458	0.721449	-7.102225	-66.921103	124.624229
42551		14.409446	-3.178961	9.466612	3.565552	-1.679090	7.270089	-0.048404	-0.607384	-0.050779	-0.817139	-0.135254	-0.778564	0.143798	-0.031803	0.095111	0.416492	0.465458	-0.302860	0.719833	-7.182571	-67.276736	124.675527
42552		15.120833	-5.716270	5.242740	3.951489	3.114794	6.419497	0.216409	-0.923018	-0.108231	-0.825684	-0.139893	-0.769775	0.150933	-0.057302	0.053062	0.414947	0.469403	-0.303828	0.717752	-7.088064	-67.815865	124.701543
42553		14.214642	-7.320365	3.188292	4.766019	5.228214	4.876068	0.395564	-0.322101	-0.261695	-0.823486	-0.139893	-0.771973	0.141999	-0.073453	0.031967	0.414439	0.471789	-0.302542	0.717024	-6.567797	-68.023724	124.378874
42554		10.696684	-5.040897	3.981758	3.887354	2.429679	1.792006	0.565927	0.042254	-0.279088	-0.822754	-0.157715	-0.769775	0.106905	-0.050671	0.039652	0.414139	0.473244	-0.299846	0.717371	-5.862621	-68.023732	123.962232
42555		9.151076	-2.869762	5.447198	2.966950	-0.251042	0.807279	0.665499	0.002470	-0.070652	-0.822754	-0.157715	-0.767578	0.091501	-0.028911	0.054375	0.412792	0.474730	-0.297367	0.718198	-5.400587	-68.033130	123.869277
42556		9.182982	-1.335963	7.425624	2.515470	-2.574463	1.514105	0.709334	-0.082277	0.078383	-0.826904	-0.164551	-0.765381	0.091805	-0.013587	0.074246	0.410675	0.476383	-0.295254	0.719187	-5.135162	-68.082805	124.015412
42557		10.305038	0.264764	8.432128	1.380954	-3.824645	2.869166	0.666308	-0.269796	0.061666	-0.826904	-0.162354	-0.758789	0.102936	0.002398	0.084468	0.408437	0.478641	-0.293639	0.719624	-4.894455	-68.240550	124.161487
42558		11.774906	1.741192	8.213072	-0.239690	-3.942684	4.098891	0.518263	-0.356959	-0.072539	-0.833008	-0.173584	-0.758789	0.117608	0.017156	0.082385	0.406905	0.481102	-0.292409	0.719352	-4.554888	-68.454709	124.109770
42559		12.109233	2.722108	7.170885	-1.555229	-3.511272	3.997330	0.502031	-0.386888	-0.177093	-0.828125	-0.182373	-0.760986	0.120977	0.026933	0.072011	0.405740	0.483784	-0.291043	0.718764	-4.071497	-68.690195	123.893593
42560		11.444081	3.692905	6.067724	-2.681330	-3.335145	2.958699	0.483282	-0.457320	-0.291885	-0.834717	-0.182617	-0.751953	0.114355	0.036615	0.061028	0.404925	0.486844	-0.289607	0.717737	-3.427251	-68.969598	123.493825
42561		10.994524	4.092651	5.219585	-3.253065	-2.999187	2.241169	0.299010	-0.204082	-0.411700	-0.841309	-0.189453	-0.756592	0.109976	0.040622	0.052369	0.405352	0.488789	-0.288023	0.716811	-2.676261	-69.105628	122.867378
42562		9.381292	3.810590	5.122357	-2.695332	-3.237278	0.724044	0.034371	0.192596	-0.503040	-0.836182	-0.198242	-0.751953	0.093958	0.037861	0.051140	0.407321	0.488905	-0.286360	0.716282	-1.911450	-69.014035	122.063741
42563		8.224295	3.225955	5.260674	-1.887743	-3.354045	-0.278173	-0.158410	0.371561	-0.554592	-0.827393	-0.195557	-0.760986	0.082430	0.032073	0.052428	0.410200	0.488056	-0.284891	0.715803	-1.181494	-68.816667	121.178512
42564		7.919426	2.287566	4.708294	-1.266238	-2.477533	-0.736536	-0.192563	0.338148	-0.564824	-0.825195	-0.195557	-0.760986	0.079338	0.022697	0.046927	0.413145	0.487267	-0.283588	0.715165	-0.471885	-68.634873	120.292772
42565		8.284970	1.223172	5.054434	-0.238618	-2.061319	-0.253505	-0.179174	0.367191	-0.561909	-0.820557	-0.197754	-0.765381	0.082976	0.012044	0.050381	0.416085	0.486389	-0.282177	0.714615	0.227960	-68.431992	119.424683
42566		9.227704	0.076692	5.444213	0.780152	-1.454236	0.773725	-0.157665	0.397026	-0.529842	-0.813965	-0.197510	-0.769775	0.092387	0.000565	0.054258	0.418894	0.485402	-0.280706	0.714225	0.878122	-68.208973	118.621964
42567		10.161539	-1.111224	4.846882	1.391227	-0.030405	1.414389	-0.140469	0.360073	-0.490294	-0.809082	-0.203857	-0.771973	0.101675	-0.011327	0.048294	0.421467	0.484518	-0.279341	0.713847	1.469098	-68.003808	117.892394
42568		11.202072	-1.927248	3.833611	1.475782	1.586020	1.985768	-0.188406	0.441932	-0.456763	-0.811279	-0.206055	-0.782959	0.112061	-0.019492	0.038107	0.424143	0.483193	-0.278056	0.713661	1.968983	-67.750340	117.230380
42569		11.277429	-2.088765	3.103333	1.282323	2.342285	1.765005	-0.246171	0.573018	-0.400905	-0.802246	-0.208008	-0.785156	0.112821	-0.021076	0.030736	0.426939	0.481190	-0.276828	0.713825	2.338159	-67.420520	116.672555
42570		10.539565	-2.267775	2.908572	1.479147	2.400788	0.991613	-0.286600	0.674948	-0.386188	-0.800049	-0.210205	-0.796387	0.105449	-0.022840	0.028763	0.429912	0.478713	-0.275560	0.714196	2.644117	-67.032092	116.156733
42571		8.820896	-2.102112	3.291495	1.794628	1.473912	-0.449588	-0.270546	0.666190	-0.329084	-0.793213	-0.212158	-0.800781	0.088283	-0.021122	0.032649	0.432626	0.476213	-0.274384	0.714681	2.870505	-66.648726	115.735955
42572		7.498082	-1.745311	3.771406	1.911253	0.490381	-1.470183	-0.217699	0.478378	-0.200288	-0.791016	-0.209717	-0.807373	0.075053	-0.017487	0.037554	0.434489	0.474319	-0.273731	0.715061	2.961569	-66.376729	115.494729
42573		6.812106	-1.584671	3.601938	1.802765	0.326971	-2.162000	-0.140768	0.293342	-0.067362	-0.791260	-0.205322	-0.809570	0.068168	-0.015844	0.035931	0.435441	0.473065	-0.273517	0.715394	2.933284	-66.213888	115.431569
42574		6.504367	-1.439107	3.198654	1.540470	0.483290	-2.601407	-0.069464	0.214871	0.022442	-0.786865	-0.205322	-0.807373	0.065080	-0.014373	0.031922	0.435793	0.472128	-0.273433	0.715831	2.834720	-66.099153	115.489865
42575		6.513954	-1.280858	2.992209	1.298258	0.587166	-2.671592	-0.006522	0.179112	0.070292	-0.784668	-0.202881	-0.811768	0.065171	-0.012785	0.029864	0.435777	0.471386	-0.273314	0.716375	2.713091	-66.005689	115.612651
42576		6.830310	-1.199826	2.839789	1.094741	0.793457	-2.441861	0.043392	0.107644	0.092675	-0.784912	-0.198486	-0.813965	0.068324	-0.011973	0.028359	0.435464	0.470981	-0.273224	0.716865	2.596847	-65.954096	115.761175
42577		7.000074	-1.126248	2.611943	0.892869	1.006369	-2.377520	0.082593	0.043137	0.081952	-0.786621	-0.209717	-0.809570	0.070011	-0.011245	0.026100	0.435011	0.470903	-0.273110	0.717235	2.520185	-65.938511	115.890562
42578		7.075704	-0.984342	2.315645	0.621230	1.204086	-2.426147	0.102426	-0.015762	0.049620	-0.784424	-0.207275	-0.809570	0.070758	-0.009838	0.023157	0.434545	0.471128	-0.272976	0.717421	2.500419	-65.956323	115.970511
42579		7.045859	-0.760490	2.203992	0.379551	1.174378	-2.494434	0.092204	-0.027454	0.041453	-0.787109	-0.198486	-0.811768	0.070457	-0.007600	0.022046	0.434116	0.471381	-0.272883	0.717550	2.485703	-65.980212	116.038551
42580		7.010481	-0.457632	2.302561	0.161455	0.936327	-2.480888	0.060345	-0.007805	0.047746	-0.789063	-0.205322	-0.805176	0.070105	-0.004567	0.023027	0.433766	0.471489	-0.272878	0.717693	2.443626	-65.993397	116.116505
42581		7.093991	-0.376324	2.303291	0.070832	0.926929	-2.402744	0.044756	0.064100	0.082797	-0.786621	-0.207520	-0.811768	0.070949	-0.003739	0.023009	0.433426	0.471253	-0.272857	0.718061	2.343045	-65.965908	116.248425
42582		6.993932	-0.328533	2.224903	0.003403	0.932788	-2.525500	0.056579	0.126820	0.116466	-0.780273	-0.200439	-0.811768	0.069955	-0.003251	0.022204	0.433021	0.470775	-0.272735	0.718665	2.203940	-65.903476	116.430312
42583		6.959531	-0.319484	2.140268	-0.046393	0.988545	-2.591988	0.098683	0.149542	0.112581	-0.782471	-0.202881	-0.813965	0.069613	-0.003166	0.021349	0.432563	0.470308	-0.272404	0.719372	2.093242	-65.827375	116.607435
42584		6.907849	-0.320661	1.978044	-0.116877	1.106026	-2.706570	0.129078	0.143132	0.084579	-0.788818	-0.207520	-0.813965	0.069094	-0.003190	0.019729	0.432125	0.469970	-0.271911	0.720042	2.037153	-65.754674	116.744050
42585		6.828268	-0.388707	1.830783	-0.113459	1.232460	-2.841585	0.151069	0.085934	0.043856	-0.782227	-0.205078	-0.813965	0.068291	-0.003886	0.018276	0.431703	0.469939	-0.271366	0.720521	2.047997	-65.713580	116.821027
42586		6.901331	-0.420520	1.793592	-0.117096	1.307684	-2.791404	0.173230	0.030445	0.009154	-0.786865	-0.202881	-0.813965	0.069016	-0.004218	0.017922	0.431278	0.470205	-0.270779	0.720823	2.118520	-65.703848	116.846575
42587		7.068323	-0.530728	1.653586	-0.111158	1.535012	-2.698716	0.200397	-0.024484	-0.025514	-0.784180	-0.211670	-0.813965	0.070681	-0.005333	0.016539	0.430840	0.470771	-0.270133	0.720958	2.250681	-65.724597	116.821362
42588		7.255003	-0.783918	1.545432	0.033907	1.812074	-2.577137	0.241292	-0.059403	-0.054332	-0.781982	-0.211670	-0.809570	0.072543	-0.007878	0.015466	0.430362	0.471592	-0.269345	0.721001	2.445404	-65.764860	116.753450
42589		7.227600	-1.005067	1.371344	0.163097	2.046305	-2.677215	0.271260	-0.112745	-0.059993	-0.781982	-0.211670	-0.805176	0.072265	-0.010091	0.013741	0.429760	0.472675	-0.268550	0.720948	2.667675	-65.835215	116.674149
42590		7.203679	-1.200121	1.234930	0.286998	2.236180	-2.757515	0.316623	-0.192319	-0.050620	-0.783691	-0.220703	-0.805176	0.072022	-0.012039	0.012400	0.428910	0.474130	-0.267784	0.720784	2.910215	-65.951431	116.601216
42591		7.422346	-1.309550	1.253504	0.363189	2.344556	-2.549869	0.333462	-0.289102	-0.015540	-0.790527	-0.220947	-0.796387	0.074204	-0.013122	0.012620	0.427761	0.475920	-0.267247	0.720486	3.124838	-66.123848	116.569395
42592		7.897462	-1.273734	1.474936	0.359890	2.309175	-2.021288	0.308849	-0.280308	0.007265	-0.794922	-0.221191	-0.794189	0.078954	-0.012757	0.014840	0.426599	0.477594	-0.266833	0.720221	3.297154	-66.292034	116.568518
42593		8.172950	-1.136916	1.699631	0.306208	2.146648	-1.671647	0.311080	-0.273149	0.047607	-0.794678	-0.227783	-0.789551	0.081709	-0.011376	0.017090	0.425293	0.479190	-0.266492	0.720059	3.417801	-66.457561	116.625320
42594		8.840971	-0.848918	1.813344	0.001054	2.129567	-1.001529	0.324493	-0.371222	0.091723	-0.798828	-0.232422	-0.782959	0.088380	-0.008478	0.018284	0.423664	0.481107	-0.266414	0.719769	3.496554	-66.680657	116.736186
42595		9.651223	-0.637751	1.861666	-0.289897	2.238261	-0.224954	0.339691	-0.445843	0.133702	-0.796631	-0.232422	-0.776367	0.096475	-0.006345	0.018821	0.421743	0.483266	-0.266539	0.719405	3.532898	-66.948086	116.902524
42596		10.460210	-0.371968	1.887887	-0.636035	2.324283	0.546437	0.383715	-0.445985	0.156308	-0.801025	-0.232422	-0.776367	0.104563	-0.003674	0.019105	0.419632	0.485484	-0.266558	0.719139	3.562780	-67.216295	117.102864
42597		11.029140	-0.336629	2.059312	-0.672071	2.324302	1.148235	0.414729	-0.376174	0.159567	-0.802979	-0.237061	-0.767578	0.110255	-0.003321	0.020794	0.417522	0.487507	-0.266326	0.719085	3.597508	-67.444884	117.316842
42598		11.196731	-0.070551	2.147221	-0.876906	2.141354	1.350998	0.394446	-0.265326	0.120623	-0.809814	-0.237305	-0.767578	0.111939	-0.000681	0.021619	0.415748	0.489137	-0.265836	0.719187	3.663891	-67.608608	117.483686
42599		10.893255	0.248697	2.828430	-0.756651	1.314983	1.341825	0.371630	-0.160748	0.050639	-0.809326	-0.246094	-0.763184	0.108909	0.002462	0.028376	0.414415	0.490435	-0.265041	0.719366	3.804169	-67.710281	117.556347
42600		10.720319	0.131271	5.139411	0.513415	-0.513489	2.054441	0.299125	-0.104176	0.008182	-0.811523	-0.244141	-0.754150	0.107176	0.001240	0.051452	0.413490	0.491433	-0.264282	0.719496	3.957810	-67.777801	117.569639
42601		11.436188	0.298620	7.852127	1.596054	-2.507118	3.740848	0.269440	-0.233578	0.019084	-0.804688	-0.246094	-0.754150	0.114270	0.002891	0.078659	0.412422	0.492821	-0.263925	0.719291	4.091822	-67.920042	117.585935
42602		12.969583	1.068819	10.855247	2.195260	-4.815039	6.286503	0.192691	-0.678637	0.095946	-0.820557	-0.244385	-0.740967	0.129321	0.010645	0.109002	0.410680	0.495544	-0.264948	0.718039	4.118687	-68.319480	117.670093
42603		14.961495	2.052723	9.718796	0.536039	-3.938678	7.700436	0.134679	-1.334082	0.251150	-0.832031	-0.238281	-0.732178	0.148936	0.020649	0.098197	0.407640	0.500282	-0.267903	0.715385	3.948197	-69.099927	117.930169
42604		15.032258	3.578931	5.666557	-2.694497	-1.736369	6.330638	-0.058363	-1.511823	0.263826	-0.845215	-0.240967	-0.716553	0.149841	0.036004	0.057789	0.404781	0.505217	-0.271926	0.712014	3.646981	-69.981895	118.210153
42605		12.642004	6.325930	4.399009	-5.239485	-3.047222	3.694739	-0.546876	-0.679920	0.219050	-0.847656	-0.236572	-0.716553	0.126200	0.063518	0.044246	0.404427	0.506244	-0.275883	0.709960	3.030401	-70.386094	118.526768
42606		9.178205	5.539538	3.482572	-4.503354	-2.955252	0.088835	-0.688514	0.191660	0.150404	-0.841309	-0.229736	-0.718750	0.091773	0.055584	0.034547	0.405874	0.503975	-0.278400	0.709767	2.362362	-70.288016	118.811474
42607		8.140853	3.978208	4.447237	-2.591852	-3.195508	-0.595970	-0.794154	0.581915	0.009002	-0.841553	-0.225098	-0.729980	0.081535	0.039961	0.044077	0.408622	0.500296	-0.280136	0.710110	1.841474	-69.962639	118.876141
42608		9.358930	2.203683	6.158628	-0.516510	-3.258780	1.118342	-0.794080	0.560449	-0.087609	-0.830811	-0.218262	-0.736572	0.093771	0.022239	0.061236	0.411675	0.496815	-0.281669	0.710184	1.479418	-69.647682	118.771335
42609		10.344185	0.252173	6.744789	1.213940	-2.414608	2.239429	-0.659025	0.479798	-0.049966	-0.828613	-0.215820	-0.740967	0.103604	0.002718	0.067191	0.414137	0.493836	-0.282972	0.710313	1.144334	-69.379522	118.720618
42610		11.122932	-1.407346	7.347759	2.746761	-1.813573	3.181765	-0.346324	0.371361	0.061095	-0.822266	-0.208984	-0.743164	0.111370	-0.013912	0.073295	0.415274	0.491725	-0.283665	0.710836	0.825652	-69.174801	118.843369
42611		12.350854	-2.758059	6.554088	3.296604	-0.105104	4.051935	-0.176590	0.236593	0.152383	-0.822510	-0.204590	-0.743164	0.123607	-0.027429	0.065419	0.415476	0.490315	-0.284252	0.711458	0.474437	-69.047375	119.105670
42612		12.640046	-4.940720	4.824422	4.304431	2.463155	3.709927	-0.073270	0.066217	0.311477	-0.827148	-0.200195	-0.745361	0.126493	-0.049193	0.048220	0.414615	0.489498	-0.285220	0.712135	-0.051780	-69.017448	119.618414
42613		11.137076	-5.698601	4.294226	4.935628	2.792553	2.136781	0.032922	0.154434	0.440794	-0.829590	-0.197998	-0.749756	0.111529	-0.056747	0.042847	0.413158	0.488399	-0.285941	0.713446	-0.706877	-68.934441	120.334765
42614		8.566147	-4.547760	5.108221	4.723540	0.772621	0.048644	0.202910	0.249029	0.529374	-0.829834	-0.193604	-0.747559	0.085845	-0.045302	0.050929	0.411103	0.487184	-0.286075	0.715407	-1.386802	-68.793483	121.182535
42615		7.154363	-3.480465	5.477948	4.188648	-0.482384	-1.121954	0.343489	0.110329	0.635405	-0.830078	-0.189209	-0.749756	0.071684	-0.034671	0.054680	0.408121	0.486596	-0.286247	0.717442	-2.140510	-68.726155	122.196489
42616		7.507071	-2.141516	5.479592	2.926689	-1.044948	-0.795449	0.390060	0.057864	0.703227	-0.829834	-0.191406	-0.751953	0.075161	-0.021258	0.054733	0.404703	0.486189	-0.286520	0.719543	-2.964736	-68.682199	123.315139
42617		8.888708	-0.935414	5.704066	1.675719	-1.426293	0.559293	0.350420	0.081320	0.729156	-0.832275	-0.189209	-0.749756	0.088944	-0.009130	0.056988	0.401313	0.485569	-0.286946	0.721687	-3.843756	-68.617633	124.468602
42618		10.319724	-0.269602	5.820927	0.819092	-1.450871	1.920873	0.346443	0.007595	0.674697	-0.834717	-0.182617	-0.751953	0.103208	-0.002449	0.058201	0.398020	0.485280	-0.287398	0.723524	-4.647711	-68.591626	125.539400
42619		11.619144	0.276776	5.280033	-0.218210	-0.943583	2.916088	0.389164	-0.068211	0.555335	-0.839111	-0.187256	-0.749756	0.116165	0.002988	0.052846	0.394938	0.485513	-0.287552	0.724993	-5.262501	-68.609636	126.433421
42620		12.178181	0.877392	4.099596	-1.444609	-0.175433	2.984454	0.453957	0.038738	0.429429	-0.836914	-0.184814	-0.749756	0.121771	0.008942	0.040993	0.392307	0.485664	-0.286951	0.726557	-5.641383	-68.571001	127.113914
42621		11.555706	1.682167	3.516239	-2.298460	-0.326320	2.159718	0.455009	0.195591	0.326263	-0.836426	-0.193848	-0.747559	0.115564	0.016930	0.035088	0.390267	0.485390	-0.285785	0.728296	-5.844622	-68.447291	127.606942
42622		10.188777	2.167659	3.497407	-2.435063	-0.960580	0.859214	0.474314	0.337448	0.240768	-0.834473	-0.189209	-0.747559	0.101921	0.021717	0.034854	0.388693	0.484756	-0.284062	0.730231	-5.888375	-68.247657	127.940553
42623		8.722051	2.055694	3.711339	-1.919068	-1.477758	-0.420807	0.481885	0.434684	0.156503	-0.832031	-0.193604	-0.749756	0.087285	0.020536	0.036973	0.387540	0.483897	-0.281913	0.732244	-5.790502	-67.997367	128.127337
42624		7.691595	2.345989	3.786655	-1.899622	-1.970666	-1.356276	0.373357	0.452151	0.086262	-0.829834	-0.191406	-0.754150	0.076991	0.023423	0.037736	0.386930	0.482858	-0.279957	0.734001	-5.653242	-67.741479	128.204215
42625		7.325292	2.506759	3.575908	-2.063301	-1.974565	-1.776851	0.195798	0.422907	0.014053	-0.832031	-0.195801	-0.760986	0.073327	0.025038	0.035629	0.386968	0.481680	-0.278532	0.735295	-5.522169	-67.506185	128.178282
42626		7.234712	2.293837	3.316700	-2.003852	-1.655817	-1.948464	0.049198	0.399845	-0.042277	-0.820557	-0.197754	-0.767578	0.072418	0.022915	0.033028	0.387535	0.480380	-0.277555	0.736216	-5.402529	-67.287273	128.073325
42627		7.401685	1.919648	3.044891	-1.876321	-1.161811	-1.883571	-0.016705	0.349104	-0.088708	-0.823242	-0.190918	-0.771973	0.074078	0.019166	0.030318	0.388358	0.479201	-0.276804	0.736834	-5.265829	-67.099368	127.909149
42628		7.528998	1.276520	2.788577	-1.503687	-0.547485	-1.842079	-0.038294	0.299294	-0.100327	-0.820557	-0.197510	-0.771973	0.075338	0.012733	0.027771	0.389207	0.478179	-0.276204	0.737275	-5.134653	-66.940662	127.736920
42629		7.627104	0.812628	2.557371	-1.259621	-0.062649	-1.826286	-0.018372	0.266370	-0.080683	-0.821045	-0.190918	-0.771973	0.076308	0.008098	0.025471	0.389889	0.477288	-0.275638	0.737703	-5.024004	-66.799267	127.599384
42630		7.713907	0.581089	2.522554	-1.110794	0.137067	-1.753369	-0.027396	0.256430	-0.072497	-0.820801	-0.197510	-0.776367	0.077173	0.005786	0.025126	0.390549	0.476405	-0.275147	0.738109	-4.932109	-66.663385	127.476340
42631		7.579029	0.123453	2.555600	-0.686045	0.336103	-1.850003	-0.066200	0.252315	-0.073430	-0.814209	-0.195068	-0.778564	0.075823	0.001215	0.025460	0.391297	0.475461	-0.274802	0.738449	-4.862756	-66.529656	127.353648
42632		7.410482	-0.046904	2.447487	-0.562807	0.476578	-2.043278	-0.114544	0.248743	-0.084681	-0.811768	-0.199463	-0.782959	0.074135	-0.000486	0.024383	0.392197	0.474452	-0.274617	0.738690	-4.807890	-66.398630	127.216282
42633		7.282022	-0.162283	2.264187	-0.531779	0.657249	-2.232059	-0.163557	0.256676	-0.086597	-0.807617	-0.192627	-0.785156	0.072848	-0.001636	0.022550	0.393230	0.473317	-0.274590	0.738879	-4.778308	-66.262814	127.076050
42634		7.224953	-0.278695	2.133652	-0.491250	0.820473	-2.335017	-0.196375	0.281573	-0.110234	-0.807861	-0.186035	-0.782959	0.072278	-0.002806	0.021238	0.394461	0.472058	-0.274581	0.739031	-4.735773	-66.114183	126.900623
42635		7.256401	-0.231676	2.060349	-0.580921	0.881589	-2.340114	-0.190544	0.294928	-0.140669	-0.800781	-0.194580	-0.787354	0.072593	-0.002348	0.020499	0.395809	0.470800	-0.274451	0.739161	-4.650976	-65.958995	126.682306
42636		7.213295	-0.111718	1.975813	-0.716994	0.888893	-2.420550	-0.159518	0.263827	-0.157576	-0.807373	-0.197021	-0.785156	0.072158	-0.001158	0.019664	0.397102	0.469741	-0.274228	0.739224	-4.531917	-65.822466	126.445772
42637		7.092911	0.111291	1.825858	-0.949206	0.864663	-2.601108	-0.112478	0.198116	-0.162833	-0.801025	-0.190186	-0.794189	0.070948	0.001065	0.018188	0.398211	0.469026	-0.273945	0.739187	-4.387105	-65.723356	126.210789
42638		6.742712	0.510381	1.721108	-1.249997	0.630286	-2.976964	-0.097022	0.099703	-0.145264	-0.800781	-0.192383	-0.789551	0.067439	0.005063	0.017175	0.399085	0.468680	-0.273845	0.738972	-4.266828	-65.679618	126.011857
42639		6.428833	0.885552	1.651748	-1.519835	0.387344	-3.302508	-0.046407	0.001582	-0.146617	-0.796387	-0.192383	-0.794189	0.064295	0.008812	0.016515	0.399711	0.468798	-0.273749	0.738594	-4.125144	-65.691674	125.821318
42640		6.247856	1.098019	1.645050	-1.652085	0.220806	-3.474755	-0.036188	-0.089911	-0.116756	-0.796387	-0.190186	-0.785156	0.062478	0.010947	0.016477	0.400077	0.469234	-0.273869	0.738075	-4.023496	-65.754781	125.681092
42641		6.436727	1.162647	1.637512	-1.746577	0.251530	-3.304935	-0.019343	-0.162338	-0.099446	-0.802734	-0.197021	-0.782959	0.064360	0.011596	0.016426	0.400240	0.469946	-0.274111	0.737443	-3.939651	-65.858344	125.571141
42642		6.906170	0.949932	1.790043	-1.595154	0.394570	-2.805434	-0.011192	-0.162084	-0.092682	-0.800537	-0.197021	-0.780762	0.069052	0.009468	0.017956	0.400359	0.470665	-0.274340	0.736835	-3.859199	-65.961594	125.470027
42643		8.021392	0.612476	1.961571	-1.480335	0.802043	-1.705225	-0.043214	-0.137690	-0.091523	-0.800537	-0.197021	-0.780762	0.080203	0.006092	0.019670	0.400581	0.471229	-0.274637	0.736242	-3.795106	-66.050870	125.367293
42644		8.991999	0.465534	2.047361	-1.531881	1.128470	-0.776962	-0.057424	-0.095518	-0.108764	-0.802979	-0.194824	-0.780762	0.089913	0.004612	0.020515	0.400959	0.471631	-0.274864	0.735694	-3.713433	-66.116561	125.236002
42645		9.621200	0.565641	1.789701	-1.872450	1.480301	-0.305160	-0.094749	-0.138110	-0.130479	-0.802979	-0.194824	-0.776367	0.096203	0.005602	0.017961	0.401445	0.472146	-0.275260	0.734950	-3.627302	-66.207361	125.076877
42646		10.144290	0.471893	1.493818	-2.035287	1.925337	0.062100	-0.091115	-0.209339	-0.150096	-0.807617	-0.190430	-0.774170	0.101431	0.004650	0.015042	0.401896	0.472955	-0.275741	0.734003	-3.518852	-66.339447	124.895442
42647		10.203621	0.298337	1.890270	-1.690847	1.710150	0.286439	-0.041983	-0.264503	-0.127763	-0.805176	-0.192627	-0.780762	0.102013	0.002922	0.019037	0.402073	0.474035	-0.276205	0.733034	-3.413767	-66.502380	124.748697
42648		9.699037	0.105132	3.127869	-0.804582	0.651931	0.326025	0.045402	-0.296934	-0.038009	-0.807617	-0.190430	-0.771973	0.096944	0.001026	0.031423	0.401667	0.475283	-0.276626	0.732290	-3.378575	-66.680535	124.732764
42649		9.221409	-0.389154	6.828618	1.500497	-2.188145	1.357640	0.166145	-0.409554	0.091419	-0.813965	-0.197510	-0.771973	0.092076	-0.003906	0.068472	0.400345	0.477005	-0.277137	0.731700	-3.455561	-66.918759	124.914071
42650		10.125445	-1.203401	11.378882	4.203371	-5.093444	3.965543	0.406445	-0.550602	0.106163	-0.818604	-0.195313	-0.760986	0.100947	-0.012212	0.114042	0.398196	0.479699	-0.277085	0.731132	-3.429126	-67.237038	125.132300
42651		12.864625	-2.597180	10.249552	4.318881	-2.659514	6.048270	0.530016	-0.830371	0.036181	-0.825195	-0.195801	-0.743164	0.128224	-0.026221	0.102959	0.395611	0.483750	-0.276963	0.729910	-3.260065	-67.717841	125.272303
42652		14.356855	-5.240112	4.707513	3.640202	3.470441	5.367599	0.565147	-1.330585	-0.044678	-0.831299	-0.207031	-0.740967	0.143240	-0.052568	0.047880	0.392528	0.489789	-0.277498	0.727340	-2.994765	-68.487529	125.329494
42653		14.528908	-7.340910	2.510828	4.407708	6.292592	4.756335	0.702980	-0.975222	-0.394285	-0.844482	-0.214111	-0.732178	0.145020	-0.073784	0.025557	0.390853	0.495270	-0.275965	0.725110	-2.093614	-69.062991	124.789053
42654		11.784559	-4.579099	3.228699	3.109886	3.400304	2.395276	0.575692	-0.502365	-0.463646	-0.841797	-0.220703	-0.723389	0.117657	-0.046157	0.032450	0.390386	0.498867	-0.273789	0.723719	-1.104243	-69.365327	124.077797
42655		10.020322	-1.466724	5.413402	2.031881	-0.528835	1.476890	0.415925	-0.316583	-0.270285	-0.843750	-0.227539	-0.723389	0.100097	-0.014915	0.054262	0.389866	0.501208	-0.272309	0.722940	-0.478674	-69.556186	123.658316
42656		9.695091	0.568148	6.928094	1.232037	-2.937184	1.683863	0.486779	-0.446133	-0.142358	-0.843262	-0.234131	-0.712158	0.096800	0.005444	0.069510	0.388527	0.503977	-0.271142	0.722175	-0.001084	-69.819457	123.440652
42657		11.534884	2.990357	7.090231	-0.972481	-3.908648	3.455427	0.539121	-0.649663	-0.101916	-0.852295	-0.236816	-0.707764	0.115133	0.029653	0.071357	0.386627	0.507519	-0.270278	0.721037	0.453247	-70.198675	123.280158
42658		12.967481	4.712374	5.928550	-3.181229	-3.596848	4.415850	0.583229	-0.427636	-0.222540	-0.856201	-0.245850	-0.696777	0.129600	0.046806	0.059699	0.385345	0.510501	-0.268516	0.720276	1.134580	-70.449307	122.905683
42659		11.085824	5.641210	4.895915	-4.068000	-3.852304	2.324005	0.454826	-0.142508	-0.422577	-0.851318	-0.252441	-0.701172	0.110942	0.056066	0.049166	0.385487	0.512472	-0.266153	0.719676	2.066096	-70.531651	122.188333
42660		8.998137	5.467485	4.944058	-3.469617	-4.353524	0.400624	0.056363	0.073527	-0.641307	-0.844482	-0.256592	-0.703369	0.090174	0.054372	0.049423	0.387723	0.513184	-0.264244	0.718671	3.111599	-70.480518	121.107741
42661		8.109795	4.324815	4.882625	-2.373679	-3.865436	-0.445915	-0.241437	0.256544	-0.756042	-0.848633	-0.263184	-0.712158	0.081323	0.043000	0.048670	0.391373	0.512803	-0.262749	0.717512	4.143912	-70.313568	119.859549
42662		7.379208	3.270890	4.604479	-1.512696	-3.212142	-1.225131	-0.356776	0.403099	-0.763308	-0.841553	-0.269775	-0.714355	0.074009	0.032509	0.045838	0.395528	0.511672	-0.261362	0.716547	5.080425	-70.055884	118.641033
42663		7.941967	2.322691	5.205333	-0.495609	-2.920835	-0.496689	-0.417833	0.500186	-0.770732	-0.837402	-0.262939	-0.716553	0.079638	0.023029	0.051806	0.399986	0.510069	-0.259970	0.715721	5.950949	-69.735319	117.453707
42664		9.671303	1.580226	5.903419	0.219681	-2.456750	1.358579	-0.388557	0.425106	-0.743147	-0.825928	-0.269287	-0.720947	0.096896	0.015557	0.058798	0.404162	0.508747	-0.258693	0.714778	6.776942	-69.453878	116.329078
42665		11.546334	0.692131	5.159440	0.309741	-0.744000	2.827205	-0.393818	0.195316	-0.655830	-0.828369	-0.267090	-0.727783	0.115536	0.006644	0.051468	0.407737	0.508110	-0.258115	0.713409	7.489667	-69.303462	115.320630
42666		12.768979	-0.786003	3.677680	0.642141	1.641946	3.381303	-0.432348	0.170140	-0.522385	-0.826172	-0.266846	-0.727783	0.127700	-0.008114	0.036686	0.410893	0.507308	-0.258063	0.712187	7.974064	-69.174525	114.531857
42667		12.829365	-1.998111	2.839991	1.256062	3.007784	3.072414	-0.458064	0.407209	-0.442944	-0.819336	-0.268799	-0.738770	0.128307	-0.020201	0.028185	0.414135	0.505495	-0.257814	0.711688	8.265913	-68.915088	113.932090
42668		11.985591	-2.343700	2.928779	1.721788	2.903535	2.283988	-0.501624	0.635517	-0.388032	-0.814941	-0.266602	-0.740967	0.119903	-0.023597	0.028966	0.417576	0.502705	-0.257381	0.711810	8.392764	-68.530565	113.481685
42669		10.141076	-2.323529	3.220579	2.108086	2.105726	0.662710	-0.477408	0.653175	-0.307705	-0.814941	-0.268555	-0.754150	0.101480	-0.023315	0.031930	0.420688	0.499784	-0.257023	0.712163	8.405324	-68.141882	113.167599
42670		8.503817	-2.037291	3.257463	2.105866	1.411210	-0.832140	-0.380645	0.472123	-0.193915	-0.806152	-0.263916	-0.758789	0.085095	-0.020394	0.032413	0.422911	0.497564	-0.256981	0.712416	8.346985	-67.866048	112.989432
42671		7.592287	-1.928298	2.970412	1.991801	1.286893	-1.777695	-0.284708	0.301167	-0.069346	-0.804199	-0.259277	-0.765381	0.075961	-0.019267	0.029617	0.424232	0.495986	-0.257268	0.712628	8.203953	-67.696910	112.961425
42672		7.126604	-1.665903	2.674876	1.677441	1.233611	-2.303823	-0.196496	0.219992	0.036567	-0.806152	-0.263916	-0.763184	0.071298	-0.016620	0.026687	0.424848	0.494752	-0.257674	0.712971	7.983066	-67.583022	113.072645
42673		6.901546	-1.233765	2.535436	1.256172	1.050850	-2.539471	-0.134551	0.178785	0.115503	-0.804199	-0.259277	-0.765381	0.069045	-0.012281	0.025301	0.424979	0.493688	-0.258142	0.713461	7.697930	-67.497885	113.291347
42674		6.993877	-0.886496	2.521862	0.919991	0.920678	-2.439362	-0.099648	0.144507	0.155488	-0.808594	-0.257324	-0.760986	0.069964	-0.008798	0.025172	0.424833	0.492775	-0.258657	0.713994	7.386934	-67.435415	113.560342
42675		7.203416	-0.630528	2.415069	0.598935	0.950792	-2.272358	-0.077375	0.147877	0.143677	-0.802246	-0.254883	-0.771973	0.072056	-0.006244	0.024100	0.424679	0.491907	-0.259056	0.714538	7.105101	-67.369365	113.811377
42676		7.153273	-0.455569	2.296605	0.383944	0.941243	-2.354947	-0.055846	0.151087	0.100905	-0.800049	-0.252441	-0.767578	0.071552	-0.004513	0.022913	0.424628	0.491133	-0.259265	0.715026	6.895474	-67.298370	113.997975
42677		7.037957	-0.341381	2.135523	0.214840	0.972051	-2.517566	-0.041601	0.077285	0.082926	-0.800049	-0.250244	-0.769775	0.070389	-0.003380	0.021329	0.424512	0.490669	-0.259537	0.715314	6.730557	-67.267354	114.144540
42678		7.092179	-0.332479	2.152849	0.198043	0.970679	-2.459943	-0.046158	0.016421	0.118871	-0.804443	-0.252686	-0.774170	0.070926	-0.003278	0.021523	0.424197	0.490373	-0.260041	0.715521	6.524969	-67.273723	114.332862
42679		7.327412	-0.348097	1.990492	0.085525	1.183171	-2.304893	-0.035214	0.004898	0.170273	-0.806641	-0.254883	-0.769775	0.073278	-0.003415	0.019904	0.423659	0.490069	-0.260657	0.715824	6.256522	-67.289159	114.595658
42680		7.360203	-0.391255	1.891533	0.054095	1.288992	-2.313414	-0.026619	0.102082	0.238586	-0.807129	-0.246094	-0.771973	0.073616	-0.003822	0.018878	0.422979	0.489350	-0.261203	0.716518	5.886766	-67.253272	114.974107
42681		7.288691	-0.406749	1.995322	0.106665	1.189664	-2.339733	-0.003110	0.208979	0.260217	-0.804932	-0.243896	-0.769775	0.072913	-0.003972	0.019877	0.422303	0.488267	-0.261491	0.717550	5.487874	-67.156459	115.398762
42682		7.289986	-0.434305	1.955558	0.088371	1.237541	-2.354982	0.031193	0.162260	0.232439	-0.802734	-0.241455	-0.776367	0.072921	-0.004261	0.019496	0.421580	0.487461	-0.261686	0.718452	5.155683	-67.084003	115.772811
42683		7.330612	-0.457985	1.847731	0.033186	1.347883	-2.359914	0.057125	0.061109	0.177933	-0.802734	-0.241455	-0.780762	0.073316	-0.004520	0.018454	0.420859	0.487140	-0.261870	0.719025	4.924626	-67.065591	116.052829
42684		7.244591	-0.424535	1.675686	-0.072703	1.432180	-2.504074	0.093397	-0.014238	0.108828	-0.800293	-0.248047	-0.769775	0.072447	-0.004214	0.016760	0.420197	0.487259	-0.261911	0.719316	4.817341	-67.086740	116.221504
42685		7.082894	-0.401235	1.606328	-0.102095	1.413979	-2.678341	0.113573	-0.025730	0.070741	-0.802734	-0.243652	-0.776367	0.070828	-0.003996	0.016070	0.419608	0.487510	-0.261811	0.719526	4.773716	-67.112207	116.333413
42686		6.998278	-0.589490	1.563277	0.052123	1.510896	-2.778364	0.146630	-0.035156	0.051987	-0.798340	-0.243652	-0.771973	0.069982	-0.005888	0.015641	0.418993	0.487891	-0.261566	0.719716	4.775758	-67.142478	116.416472
42687		7.152667	-0.789121	1.480213	0.158991	1.727387	-2.673693	0.218839	-0.121436	0.017079	-0.804688	-0.246094	-0.765381	0.071518	-0.007901	0.014837	0.418216	0.488775	-0.261157	0.719716	4.875661	-67.220012	116.437887
42688		7.239548	-0.996662	1.462468	0.321512	1.868050	-2.605038	0.228040	-0.258504	0.003547	-0.807129	-0.246094	-0.763184	0.072377	-0.009982	0.014707	0.417283	0.490192	-0.260967	0.719363	5.016391	-67.375480	116.421067
42689		7.343980	-1.007283	1.443230	0.317515	1.906475	-2.512273	0.260405	-0.401978	-0.000387	-0.809082	-0.248535	-0.758789	0.073411	-0.010092	0.014567	0.416096	0.492194	-0.260951	0.718689	5.199276	-67.612633	116.378534
42690		7.253770	-0.839648	1.395310	0.184105	1.803554	-2.602812	0.305401	-0.433593	-0.004767	-0.809326	-0.246338	-0.758789	0.072507	-0.008420	0.014097	0.414770	0.494407	-0.260825	0.717982	5.421359	-67.867503	116.321758
42691		7.589800	-0.693801	1.416074	0.031773	1.801024	-2.272998	0.342774	-0.407911	0.030484	-0.815674	-0.253174	-0.745361	0.075870	-0.006951	0.014304	0.413257	0.496553	-0.260600	0.717455	5.613478	-68.109504	116.319995
42692		8.534141	-0.602141	1.447398	-0.170131	2.018344	-1.375487	0.380191	-0.391008	0.063678	-0.812988	-0.259766	-0.740967	0.085315	-0.006022	0.014629	0.411550	0.498671	-0.260283	0.717082	5.780256	-68.343836	116.369110
42693		9.513637	-0.561039	1.473705	-0.335563	2.270729	-0.446421	0.392331	-0.389488	0.070296	-0.826416	-0.262451	-0.740967	0.095109	-0.005606	0.014911	0.409785	0.500797	-0.259935	0.716737	5.944899	-68.577869	116.427999
42694		10.159343	-0.508948	1.641048	-0.382170	2.292186	0.225442	0.353380	-0.366125	0.058519	-0.826416	-0.262451	-0.725586	0.101565	-0.005089	0.016587	0.408190	0.502771	-0.259646	0.716370	6.102355	-68.797814	116.470475
42695		10.562394	-0.348359	2.581888	-0.084444	1.571987	0.951759	0.303706	-0.315150	0.025515	-0.826416	-0.262451	-0.725586	0.105584	-0.003509	0.025980	0.406898	0.504503	-0.259348	0.715995	6.272629	-68.987162	116.468847
42696		10.949235	-0.080266	3.881180	0.315753	0.511815	1.788778	0.267121	-0.279688	-0.001998	-0.828125	-0.269287	-0.720947	0.109438	-0.000856	0.038964	0.405844	0.506065	-0.259037	0.715604	6.459048	-69.154132	116.427291
42697		11.518654	0.459925	6.340157	1.064688	-1.547614	3.208820	0.193494	-0.354913	0.000011	-0.830078	-0.273926	-0.712158	0.115074	0.004538	0.063610	0.404867	0.507744	-0.259148	0.714927	6.614442	-69.364405	116.374077
42698		12.809839	1.305224	10.804538	2.501743	-5.147562	5.991631	0.140865	-0.662093	0.093382	-0.832764	-0.267334	-0.701172	0.127734	0.013036	0.108478	0.403293	0.510287	-0.260301	0.713586	6.653905	-69.755251	116.412286
42699		15.305815	1.936623	10.920159	1.730333	-4.967322	8.342041	0.197037	-1.367023	0.327085	-0.848389	-0.265625	-0.690186	0.152275	0.019507	0.110263	0.399804	0.515143	-0.263263	0.710969	6.482556	-70.563099	116.709441
42700		16.000317	2.906006	5.895176	-1.698157	-1.599691	7.326655	-0.018304	-1.796856	0.374863	-0.859619	-0.263916	-0.674561	0.159410	0.029365	0.060383	0.396114	0.520994	-0.267955	0.707007	6.162540	-71.617849	117.030859
42701		13.788110	5.967519	3.236871	-5.286701	-1.998056	4.479180	-0.552229	-1.013500	0.414979	-0.868896	-0.257568	-0.670166	0.137591	0.060051	0.032901	0.394692	0.522936	-0.273072	0.704406	5.280388	-72.227695	117.620797
42702		10.717515	5.201859	1.800862	-4.990124	-1.339337	1.071795	-0.691527	0.132895	0.372329	-0.867432	-0.246338	-0.681152	0.107090	0.052280	0.017757	0.395344	0.520605	-0.276297	0.704509	4.183543	-72.177125	118.350922
42703		8.741910	3.622770	3.918878	-2.351657	-2.700536	-0.216896	-0.699302	0.578104	0.193462	-0.860840	-0.243896	-0.678955	0.087496	0.036448	0.038809	0.397253	0.516930	-0.278198	0.705394	3.356240	-71.861597	118.794052
42704		9.027398	1.889849	6.262846	0.192296	-3.552208	0.752966	-0.638879	0.495157	0.020252	-0.856689	-0.237061	-0.687988	0.090427	0.019107	0.062344	0.399495	0.513896	-0.279599	0.705790	2.889245	-71.586539	118.894625
42705		10.184760	0.294078	6.734396	1.556501	-2.757210	1.983196	-0.473224	0.210528	-0.021647	-0.854492	-0.232422	-0.690186	0.101919	0.003089	0.067230	0.401055	0.512252	-0.280869	0.705595	2.619587	-71.472934	118.887784
42706		10.978799	-0.844145	6.393454	2.209207	-1.670158	2.615218	-0.239825	0.037684	0.005511	-0.854736	-0.228027	-0.685791	0.109800	-0.008362	0.063924	0.401679	0.511644	-0.281735	0.705337	2.450827	-71.459050	118.915107
42707		11.980314	-1.753217	5.642354	2.446064	-0.314825	3.315735	-0.099593	0.100396	0.016198	-0.849854	-0.236816	-0.692383	0.119833	-0.017494	0.056372	0.401994	0.511080	-0.282005	0.705458	2.339999	-71.409303	118.966222
42708		12.964170	-2.922502	4.610094	2.762539	1.410752	3.907434	0.039958	0.222267	0.129959	-0.854736	-0.228027	-0.687988	0.129712	-0.029150	0.045951	0.401722	0.510207	-0.281831	0.706314	2.108661	-71.292460	119.228796
42709		12.758574	-3.894632	4.303949	3.433094	2.130267	3.609266	0.208502	0.347758	0.276978	-0.852783	-0.225830	-0.701172	0.127714	-0.038814	0.042777	0.400677	0.509019	-0.281181	0.708022	1.723546	-71.105853	119.756226
42710		11.565659	-3.997332	5.294282	4.145923	1.088585	2.812618	0.277489	0.441616	0.373259	-0.852783	-0.225586	-0.703369	0.115847	-0.039830	0.052632	0.399244	0.507498	-0.280344	0.710252	1.224124	-70.865866	120.446875
42711		9.709321	-3.552510	5.772412	4.253779	-0.014994	1.237956	0.335769	0.383815	0.504551	-0.852783	-0.225586	-0.707764	0.097293	-0.035376	0.057478	0.397111	0.506107	-0.279745	0.712672	0.558527	-70.657568	121.349722
42712		8.494451	-2.128552	5.234803	2.932519	-0.659828	-0.063106	0.318457	0.239283	0.624666	-0.852783	-0.225830	-0.698975	0.085073	-0.021103	0.052213	0.394387	0.505024	-0.279795	0.714930	-0.295179	-70.528633	122.442533
42713		8.582770	-0.707393	5.178564	1.632620	-1.343223	0.011360	0.256754	0.276735	0.701356	-0.850830	-0.218994	-0.712158	0.085923	-0.006839	0.051658	0.391590	0.503568	-0.280181	0.717339	-1.293823	-70.371430	123.652558
42714		9.316075	0.030499	5.515184	0.986283	-1.804223	0.816480	0.279801	0.271849	0.682293	-0.851074	-0.214600	-0.707764	0.093234	0.000546	0.055026	0.388792	0.502196	-0.280442	0.719717	-2.230683	-70.210898	124.812219
42715		9.997064	0.348859	5.090754	0.321715	-1.460044	1.311312	0.323517	0.120974	0.621024	-0.855713	-0.212402	-0.707764	0.099990	0.003717	0.050853	0.385886	0.501528	-0.280681	0.721651	-3.043051	-70.131916	125.866967
42716		10.216610	0.511429	4.328059	-0.283442	-0.901525	1.254362	0.387021	0.054477	0.507565	-0.853516	-0.210205	-0.705566	0.102165	0.005290	0.043263	0.383134	0.501379	-0.280531	0.723277	-3.638939	-70.090845	126.730672
42717		10.190656	0.537754	3.928344	-0.530220	-0.619844	1.091677	0.413472	0.088718	0.352366	-0.853516	-0.208008	-0.703369	0.101914	0.005476	0.039249	0.380920	0.501366	-0.279828	0.724726	-3.969105	-70.033271	127.328081
42718		10.137542	0.687562	3.484365	-0.889564	-0.368388	0.885735	0.421529	0.158344	0.225805	-0.848633	-0.216553	-0.712158	0.101395	0.006917	0.034778	0.379241	0.501294	-0.278645	0.726111	-4.084719	-69.940658	127.702370
42719		9.642144	0.987292	3.169538	-1.210455	-0.411868	0.304466	0.438227	0.257716	0.138163	-0.853027	-0.218994	-0.707764	0.096455	0.009870	0.031593	0.377973	0.501008	-0.276990	0.727601	-4.041265	-69.794226	127.917719
42720		8.699916	1.129805	3.028058	-1.213323	-0.617974	-0.632272	0.447399	0.345030	0.095993	-0.855469	-0.214600	-0.716553	0.087046	0.011272	0.030156	0.376954	0.500481	-0.275030	0.729235	-3.916198	-69.600177	128.051884
42721		8.242509	1.253137	2.976600	-1.254837	-0.748336	-1.081436	0.427102	0.390396	0.075140	-0.846191	-0.220947	-0.721191	0.082478	0.012499	0.029632	0.376122	0.499770	-0.273004	0.730911	-3.766557	-69.380644	128.147590
42722		8.030297	1.534193	2.978934	-1.447770	-0.942847	-1.284593	0.389806	0.368870	0.023227	-0.845703	-0.231934	-0.718750	0.080356	0.015293	0.029671	0.375540	0.499139	-0.271023	0.732377	-3.562238	-69.175886	128.162108
42723		7.859040	1.826364	2.774002	-1.765810	-0.975768	-1.522636	0.284717	0.343573	0.018393	-0.845703	-0.231934	-0.729980	0.078636	0.018231	0.027631	0.375202	0.498404	-0.269459	0.733627	-3.414845	-68.985272	128.173228
42724		7.757132	1.784384	2.597370	-1.810262	-0.823615	-1.679544	0.233160	0.312686	-0.004038	-0.839111	-0.229492	-0.727783	0.077612	0.017812	0.025873	0.375031	0.497717	-0.268086	0.734683	-3.267451	-68.813593	128.152599
42725		7.616328	1.327476	2.407671	-1.513368	-0.436410	-1.869970	0.216505	0.283819	0.006377	-0.838867	-0.233887	-0.729980	0.076197	0.013251	0.023983	0.374824	0.497085	-0.266853	0.735665	-3.148465	-68.657561	128.152286
42726		7.567720	1.308136	2.451435	-1.471059	-0.455403	-1.899426	0.162320	0.264070	-0.005398	-0.841553	-0.227539	-0.725586	0.075710	0.013059	0.024425	0.374768	0.496443	-0.265827	0.736498	-3.045687	-68.513709	128.135938
42727		7.539055	1.248695	2.303195	-1.503450	-0.299541	-1.979988	0.059673	0.257780	-0.016308	-0.843262	-0.236328	-0.736572	0.075421	0.012474	0.022938	0.374997	0.495642	-0.265162	0.737160	-2.986995	-68.373347	128.103836
42728		7.519712	1.015944	2.290351	-1.326086	-0.145462	-1.999607	-0.018118	0.238397	-0.010536	-0.834473	-0.233887	-0.734375	0.075225	0.010158	0.022813	0.375372	0.494761	-0.264836	0.737679	-2.983056	-68.244326	128.082567
42729		7.475018	0.834820	2.522532	-1.056150	-0.215482	-1.953040	-0.069363	0.258886	-0.028851	-0.830078	-0.231445	-0.736572	0.074784	0.008346	0.025126	0.375968	0.493730	-0.264612	0.738146	-2.980717	-68.103710	128.031527
42730		7.440874	0.611370	2.471399	-0.904569	-0.043149	-2.000642	-0.118877	0.218230	-0.026646	-0.834473	-0.231689	-0.736572	0.074436	0.006118	0.024629	0.376623	0.492754	-0.264655	0.738449	-3.013337	-67.986713	127.987390
42731		7.518236	0.483893	2.073884	-1.038257	0.367333	-2.076662	-0.163585	0.168850	-0.036245	-0.836670	-0.236084	-0.738770	0.075201	0.004842	0.020671	0.377358	0.491886	-0.264930	0.738554	-3.061488	-67.897876	127.932481
42732		7.608363	0.462546	1.841848	-1.171341	0.594173	-2.081683	-0.182673	0.175269	-0.077142	-0.827881	-0.231445	-0.736572	0.076102	0.004613	0.018348	0.378299	0.491014	-0.265164	0.738569	-3.062977	-67.807023	127.815209
42733		7.328785	0.664468	1.768637	-1.315145	0.463589	-2.373861	-0.196185	0.162061	-0.127453	-0.830322	-0.229248	-0.751953	0.073306	0.006615	0.017620	0.379441	0.490229	-0.265346	0.738439	-3.002960	-67.724920	127.623311
42734		7.046208	0.795753	1.687640	-1.400717	0.377385	-2.669442	-0.210499	0.091126	-0.158759	-0.825928	-0.224609	-0.747559	0.070476	0.007919	0.016836	0.380638	0.489722	-0.265641	0.738053	-2.913763	-67.684545	127.390671
42735		6.805068	0.951999	1.452575	-1.593323	0.403610	-2.984536	-0.242759	0.010181	-0.160426	-0.832764	-0.222656	-0.745361	0.068059	0.009483	0.014511	0.381813	0.489450	-0.266203	0.737423	-2.846447	-67.690051	127.161735
42736		6.732322	1.133108	1.234688	-1.833061	0.450375	-3.136641	-0.227718	-0.061265	-0.169421	-0.839355	-0.225098	-0.740967	0.067329	0.011288	0.012355	0.382888	0.489484	-0.266825	0.736618	-2.762824	-67.736948	126.924472
42737		6.910530	1.315231	1.105804	-2.082160	0.502731	-3.021522	-0.249431	-0.105323	-0.172459	-0.834961	-0.224854	-0.745361	0.069111	0.013107	0.011078	0.383968	0.489641	-0.267602	0.735670	-2.689248	-67.808849	126.684800
42738		7.121992	1.447050	1.104111	-2.230168	0.495470	-2.825797	-0.290385	-0.119419	-0.183203	-0.828613	-0.215820	-0.743164	0.071227	0.014421	0.011063	0.385167	0.489784	-0.268531	0.734608	-2.624163	-67.889164	126.429015
42739		7.595516	1.346558	1.463838	-2.058044	0.418852	-2.247179	-0.312413	-0.116584	-0.194462	-0.833008	-0.220459	-0.740967	0.075960	0.013415	0.014662	0.386465	0.489887	-0.269506	0.733500	-2.554065	-67.967849	126.154382
42740		8.304451	1.143483	1.778053	-1.874975	0.504130	-1.466236	-0.339062	-0.111721	-0.198211	-0.835205	-0.218262	-0.740967	0.083046	0.011383	0.017808	0.387845	0.489925	-0.270559	0.732357	-2.492789	-68.043911	125.872909
42741		9.209823	0.962043	1.956097	-1.819440	0.739667	-0.554437	-0.337625	-0.127644	-0.190802	-0.826172	-0.220215	-0.743164	0.092095	0.009566	0.019604	0.389173	0.490012	-0.271654	0.731189	-2.440415	-68.128704	125.602190
42742		9.842341	0.825203	1.824839	-1.894330	1.105550	-0.011059	-0.298167	-0.135212	-0.172342	-0.828857	-0.213623	-0.738770	0.098418	0.008194	0.018303	0.390324	0.490176	-0.272665	0.730088	-2.391534	-68.217392	125.359639
42743		10.017700	0.615813	1.831252	-1.738237	1.261175	0.161026	-0.244115	-0.170615	-0.129250	-0.837891	-0.211670	-0.743164	0.100165	0.006116	0.018390	0.391137	0.490514	-0.273651	0.729056	-2.373735	-68.325140	125.184180
42744		10.053766	0.467984	2.320302	-1.361949	0.955530	0.381088	-0.183369	-0.226503	-0.074197	-0.837646	-0.213867	-0.734375	0.100513	0.004664	0.023313	0.391521	0.491099	-0.274660	0.728076	-2.403796	-68.463701	125.097656
42745		10.211141	0.209868	3.262319	-0.694174	0.381024	0.879696	-0.106833	-0.262162	0.002098	-0.842529	-0.205078	-0.734375	0.102069	0.002117	0.032756	0.391391	0.491857	-0.275647	0.727261	-2.502493	-68.620856	125.132129
42746		10.427618	-0.261578	5.414142	0.742549	-1.021374	1.871571	-0.033905	-0.285323	0.073929	-0.835449	-0.211670	-0.727783	0.104200	-0.002568	0.054291	0.390787	0.492742	-0.276591	0.726628	-2.668264	-68.789364	125.283355
42747		11.128542	-1.139697	8.684085	2.983928	-2.949871	3.713249	0.082017	-0.326767	0.091539	-0.837891	-0.211670	-0.723389	0.111149	-0.011382	0.087018	0.389775	0.493979	-0.277236	0.726085	-2.798477	-68.980978	125.467483
42748		12.727074	-2.342476	8.458627	3.585270	-1.702146	5.129266	0.231387	-0.547562	0.040756	-0.853760	-0.205566	-0.721191	0.127043	-0.023497	0.084907	0.388270	0.496375	-0.277643	0.725102	-2.786461	-69.300286	125.590672
42749		13.204955	-4.109775	4.488823	3.036562	2.449627	4.194023	0.388014	-0.984486	-0.033902	-0.853516	-0.212402	-0.712158	0.131820	-0.041208	0.045458	0.386034	0.500754	-0.278138	0.723093	-2.602274	-69.871648	125.625583
42750		12.321985	-5.009341	3.061442	3.318358	3.758083	2.882273	0.424824	-0.638363	-0.258774	-0.855469	-0.214600	-0.705566	0.123057	-0.050318	0.030901	0.384990	0.504253	-0.277265	0.721551	-2.010830	-70.250208	125.249565
42751		10.881100	-3.623935	3.846945	2.908149	1.965623	1.763538	0.229133	-0.226127	-0.340869	-0.854980	-0.223633	-0.703369	0.108705	-0.036469	0.038551	0.385304	0.505996	-0.276094	0.720611	-1.364142	-70.392524	124.696265
42752		9.722864	-1.536283	4.611913	1.828302	-0.111467	0.902195	0.088314	-0.319350	-0.247161	-0.854980	-0.223633	-0.698975	0.097136	-0.015503	0.046267	0.385505	0.507673	-0.275846	0.719419	-0.944064	-70.585550	124.298504
42753		9.797649	0.391963	5.591272	0.753906	-1.944624	1.280543	0.097668	-0.383867	-0.176281	-0.861572	-0.228271	-0.698975	0.097872	0.003806	0.056103	0.385337	0.509499	-0.275867	0.718209	-0.628208	-70.813924	124.017265
42754		10.899216	2.160997	5.986685	-0.675092	-2.958695	2.438571	0.088910	-0.403200	-0.170888	-0.861084	-0.234863	-0.687988	0.108890	0.021490	0.060096	0.385143	0.511368	-0.275969	0.716944	-0.319325	-71.053037	123.738593
42755		11.883610	3.601380	6.027382	-1.979430	-3.546746	3.379035	0.160766	-0.385169	-0.239874	-0.868164	-0.228516	-0.683594	0.118763	0.035823	0.060531	0.385035	0.513403	-0.275599	0.715689	0.155193	-71.281012	123.328917
