// General information: 
//  MT Manager version: 2019.2.0 
//  XDA version: 2019.2.0 build 3853 rev 94535 built on 2019-09-09
// Device information: 
//  DeviceId: 00B40ACF
//  ProductCode: MTW2-3A7G6
//  Firmware Version: 4.3.5
//  Hardware Version: 1.1.0
// Device settings: 
//  Filter Profile: human(46.1)
//  Option Flags: Orientation Smoother Disabled, AHS Disabled, ICC Disabled
// Coordinate system: ENU
PacketCounter	SampleTimeFine	Acc_X	Acc_Y	Acc_Z	FreeAcc_E	FreeAcc_N	FreeAcc_U	Gyr_X	Gyr_Y	Gyr_Z	Mag_X	Mag_Y	Mag_Z	VelInc_X	VelInc_Y	VelInc_Z	Quat_q0	Quat_q1	Quat_q2	Quat_q3	Roll	Pitch	Yaw
13338		9.837177	-2.029922	-2.032954	0.000000	-0.000000	0.435346	0.381917	-0.152688	1.183131	-0.637207	0.786865	-0.333740	0.098505	-0.019678	-0.020292	0.585912	-0.428184	-0.644720	-0.240212	-135.880585	-73.988824	78.864989
13339		10.069984	-2.231843	-2.527536	-0.000000	-0.000000	0.806756	0.392644	-0.181522	1.220005	-0.617188	0.791504	-0.333740	0.100856	-0.021654	-0.025227	0.575988	-0.431069	-0.657994	-0.222398	-139.358166	-71.755913	83.550393
13340		10.442834	-1.518712	-2.521763	0.614645	0.229871	1.017186	0.366120	-0.205988	1.278242	-0.615479	0.804932	-0.335938	0.104548	-0.014473	-0.025137	0.581077	-0.433219	-0.649503	-0.229819	-136.909076	-72.543750	80.277411
13341		10.407101	-1.472279	-2.666781	0.846473	0.224580	0.995555	0.357061	-0.217824	1.374260	-0.600098	0.816406	-0.335938	0.104198	-0.013960	-0.026580	0.582708	-0.436884	-0.647552	-0.224189	-135.206024	-71.907429	78.703863
13342		10.527169	-1.202497	-2.597278	1.162259	0.583274	1.018737	0.392032	-0.243630	1.462906	-0.587158	0.829834	-0.333984	0.105387	-0.011204	-0.025867	0.583540	-0.442475	-0.645020	-0.218281	-133.607578	-71.077359	77.062269
13343		11.728713	0.059687	-2.341892	2.283192	1.930133	1.767865	0.375285	-0.238054	1.568854	-0.569580	0.843506	-0.331787	0.117305	0.001561	-0.023277	0.585296	-0.446684	-0.642632	-0.211959	-131.935238	-70.324826	75.518234
13344		13.534953	0.406538	-2.703007	3.050462	2.479833	3.423878	0.308065	-0.184555	1.721778	-0.549805	0.852783	-0.338379	0.135332	0.005272	-0.026898	0.586845	-0.450720	-0.639600	-0.208270	-130.525587	-69.790281	74.025774
13345		14.232210	1.181551	-2.981233	4.107387	3.028323	3.854497	0.154799	-0.124748	1.893880	-0.532471	0.868652	-0.333984	0.142220	0.013186	-0.029714	0.588740	-0.456432	-0.635830	-0.201927	-128.746169	-68.908921	72.219035
13346		13.523629	0.944248	-4.388157	4.679648	1.415266	3.571140	0.110935	-0.196118	2.118365	-0.517090	0.875488	-0.333984	0.135169	0.010899	-0.043743	0.589243	-0.459655	-0.631466	-0.206788	-128.111891	-69.111426	70.847410
13347		17.866591	0.955389	-4.087518	5.305633	3.329300	7.437991	0.076738	-0.269918	2.399149	-0.490479	0.887207	-0.327393	0.178589	0.011712	-0.040630	0.591004	-0.467249	-0.626780	-0.198842	-126.269558	-67.922729	68.914909
13348		19.077007	-1.658737	-4.778437	3.535142	1.650986	9.533390	0.148330	-0.323435	2.702361	-0.477783	0.902832	-0.331787	0.191048	-0.013972	-0.047487	0.585803	-0.475103	-0.620992	-0.213262	-127.354940	-68.466157	67.953398
13349		18.694609	-0.721477	-3.674320	4.111321	3.191457	8.528340	0.672581	-0.589108	2.903287	-0.447021	0.921143	-0.329590	0.187131	-0.004377	-0.036210	0.588600	-0.482721	-0.616466	-0.201246	-125.232249	-66.925429	66.075797
13350		22.147423	2.808642	-3.234747	7.374049	5.850340	10.686327	0.947200	-0.665004	3.173006	-0.422607	0.932861	-0.338379	0.221096	0.031747	-0.031467	0.589357	-0.483830	-0.610805	-0.213268	-124.682060	-67.870702	64.382926
13351		22.524160	5.823729	-3.936769	10.867340	7.186116	9.858377	1.039289	-0.691202	3.434481	-0.396240	0.946777	-0.338379	0.224329	0.062296	-0.038275	0.593324	-0.491912	-0.605540	-0.198266	-122.310950	-66.010900	62.453440
13352		22.720615	6.137045	-3.457968	10.685361	6.477201	10.427093	1.269315	-0.733150	3.522481	-0.370117	0.967285	-0.349365	0.226200	0.065575	-0.033342	0.593005	-0.487105	-0.598950	-0.228765	-122.306761	-68.943325	60.329989
13353		23.575495	5.181513	-2.738232	10.262326	7.462335	10.901473	1.573812	-0.601511	3.569756	-0.350098	0.976563	-0.362549	0.234858	0.056222	-0.026244	0.599004	-0.493721	-0.593723	-0.211959	-119.537183	-67.011346	58.315546
13354		23.338776	3.660817	-1.482632	7.677171	6.085619	11.733976	1.740000	-0.358348	3.605609	-0.323486	0.988281	-0.377930	0.232701	0.040932	-0.014065	0.597107	-0.481939	-0.588310	-0.255128	-119.651366	-71.528131	55.906368
13355		23.223737	4.260802	-0.344632	8.327115	7.701959	10.897053	1.775610	-0.002944	3.578017	-0.306152	1.001953	-0.386719	0.231425	0.046781	-0.003040	0.605821	-0.487070	-0.581845	-0.239166	-115.920734	-69.713150	53.030665
13356		22.255034	1.895481	-0.605886	5.465246	4.403341	11.398908	1.562449	0.293593	3.637186	-0.286133	1.011230	-0.406494	0.222147	0.023046	-0.006216	0.604151	-0.471620	-0.574630	-0.287014	-113.678918	-74.807173	48.150243
13357		22.257410	-0.581520	0.577748	3.518036	4.730613	11.664131	1.278047	0.630806	3.629721	-0.255127	1.018555	-0.417236	0.222648	-0.001809	0.005055	0.614070	-0.477193	-0.565891	-0.273812	-109.147997	-73.001980	44.197307
13358		18.394981	1.186264	-0.267782	4.159264	2.517660	7.968795	0.807088	0.699594	3.446797	-0.237305	1.027832	-0.423828	0.183698	0.015042	-0.003264	0.612283	-0.463214	-0.557446	-0.315907	-103.247941	-77.237387	35.915148
13359		13.964934	5.802537	-2.342487	8.846763	1.832725	2.537727	-0.079647	0.650813	3.082511	-0.224121	1.032471	-0.419434	0.138656	0.060158	-0.023901	0.618705	-0.470963	-0.548119	-0.308161	-100.292450	-75.583855	32.827942
13360		9.797389	7.858358	-4.674084	10.415022	-0.946979	-1.433487	-0.701541	0.409320	2.630280	-0.213379	1.043945	-0.421631	0.096834	0.079697	-0.047218	0.609162	-0.461710	-0.544239	-0.345761	-95.749356	-79.216366	25.759310
13361		6.970739	7.572789	-5.814700	10.213323	-2.381454	-4.357214	-0.780977	0.139266	2.107597	-0.202148	1.046143	-0.415039	0.068865	0.076229	-0.058492	0.611343	-0.469553	-0.537564	-0.341766	-95.228364	-78.021939	24.771461
13362		6.037317	6.952913	-4.842724	8.787360	-2.109167	-4.657462	-0.194018	0.037913	1.518911	-0.193359	1.052979	-0.412842	0.059834	0.069938	-0.048506	0.593837	-0.459575	-0.547077	-0.369940	-98.469109	-81.801131	26.430203
13363		6.140536	-2.617870	-1.229334	-1.266763	-1.564052	-3.330460	-0.436099	0.224765	1.215397	-0.191162	1.051025	-0.415039	0.061549	-0.025832	-0.012306	0.595686	-0.463768	-0.542798	-0.368033	-97.234961	-81.128837	24.929591
13364		4.628648	-8.733014	-6.604311	-6.050447	-8.520578	-4.147357	-0.517606	-0.697789	1.305816	-0.184326	1.051025	-0.419434	0.047086	-0.087195	-0.065654	0.576629	-0.459326	-0.554976	-0.385384	-110.418162	-83.753897	36.937666
13365		5.881793	1.005146	-4.956457	2.903877	-4.089136	-3.895041	0.043272	0.481480	0.424181	-0.197998	1.055176	-0.412842	0.058677	0.010187	-0.049704	0.578879	-0.459448	-0.552694	-0.385145	-107.324650	-83.613114	33.850212
13366		0.316748	10.159955	-3.200840	10.653669	-0.204358	-9.979052	-0.082707	0.943267	-0.870247	-0.207031	1.057373	-0.419678	0.003458	0.101572	-0.032066	0.564490	-0.450824	-0.566585	-0.396346	-129.036080	-85.581402	55.369977
13367		0.985344	10.520728	-1.389105	10.515178	1.658129	-9.298058	-0.240128	0.574398	-1.850231	-0.227295	1.054688	-0.419678	0.010786	0.105094	-0.014047	0.561882	-0.445100	-0.568632	-0.403525	-136.115559	-86.586565	62.327804
13368		2.498738	5.481471	-1.463983	5.583239	0.243494	-7.129398	-0.393635	0.137978	-2.239876	-0.249512	1.047607	-0.421875	0.025589	0.054501	-0.014765	0.539601	-0.431623	-0.587838	-0.420690	155.682120	-85.991475	130.141309
13369		2.150088	0.797477	-1.385090	1.016893	-1.006689	-7.547847	-0.365082	0.038176	-2.534028	-0.278564	1.044922	-0.419678	0.021597	0.007676	-0.013869	0.533551	-0.425044	-0.592387	-0.428647	139.325926	-85.222242	146.334902
13370		1.519122	0.001440	-2.090730	0.359467	-1.934828	-8.137598	-0.114784	-0.020913	-2.929277	-0.298096	1.031006	-0.417480	0.015191	-0.000220	-0.020906	0.512174	-0.409063	-0.611007	-0.443864	123.389019	-81.501906	162.186014
13371		1.149795	-0.106572	-2.798165	0.456874	-2.672407	-8.466385	0.246240	0.096826	-3.430587	-0.338135	1.021484	-0.428467	0.011464	-0.001228	-0.027989	0.505284	-0.397676	-0.618232	-0.452029	117.202152	-79.830125	168.598027
13372		1.315743	0.169395	-2.585655	0.556529	-2.381446	-8.242855	0.678463	0.201370	-3.982891	-0.364502	1.003418	-0.432861	0.013163	0.001520	-0.025864	0.486461	-0.377196	-0.637713	-0.463035	113.648741	-75.872425	172.800845
13373		1.908947	1.190745	-1.567544	1.032330	-1.107941	-7.526798	0.970186	0.284044	-4.481474	-0.413330	0.989258	-0.452881	0.019329	0.011552	-0.015646	0.478693	-0.359791	-0.647551	-0.471255	110.147648	-73.549146	177.005766
13374		2.636618	1.017912	-0.333011	0.143901	0.034673	-6.970966	1.171834	0.363911	-4.899597	-0.446045	0.966309	-0.457031	0.026599	0.009549	-0.003321	0.460950	-0.335155	-0.666997	-0.479909	109.058691	-69.486695	179.236961
13375		3.496150	0.195976	0.815175	-1.375271	0.816126	-6.593145	1.105323	0.366182	-5.235285	-0.483154	0.941406	-0.474609	0.035011	0.000999	0.008095	0.451296	-0.314151	-0.677337	-0.488728	106.893102	-66.697331	-177.747129
13376		4.102136	-0.306811	1.333448	-2.456340	1.067325	-6.418250	0.868847	0.274549	-5.511622	-0.527344	0.918457	-0.481201	0.040933	-0.004255	0.013261	0.433300	-0.288596	-0.693218	-0.498410	106.149558	-62.675503	-176.027299
13377		4.685233	-0.770333	1.277984	-3.288890	0.742952	-6.234602	0.612970	0.143304	-5.762524	-0.563965	0.880127	-0.485596	0.046613	-0.009088	0.012720	0.420140	-0.266819	-0.702458	-0.508766	104.763340	-59.514649	-174.043327
13378		5.331319	-1.391733	1.073134	-4.293129	0.204015	-6.203024	0.398589	-0.017050	-5.970859	-0.607666	0.850342	-0.483398	0.052865	-0.015522	0.010706	0.401445	-0.242260	-0.714246	-0.519621	104.108290	-55.611473	-172.764924
13379		6.211813	-1.450052	0.867349	-4.984950	-0.182883	-5.745055	0.140555	-0.196072	-6.107563	-0.646484	0.807373	-0.487549	0.061628	-0.016394	0.008723	0.384861	-0.220566	-0.722068	-0.530896	103.205273	-52.184304	-171.548148
13380		7.197565	-1.421803	0.961890	-5.857886	-0.284553	-5.302859	-0.268288	-0.346963	-6.231248	-0.676270	0.766846	-0.480713	0.071470	-0.016437	0.009764	0.365513	-0.198491	-0.729743	-0.542658	102.536433	-48.494003	-170.708048
13381		8.168265	-2.169831	0.765483	-7.208760	-0.924651	-5.434344	-0.832350	-0.520583	-6.314956	-0.717285	0.723877	-0.469727	0.080924	-0.024229	0.007963	0.345470	-0.178285	-0.734330	-0.556440	101.567177	-44.893193	-170.032018
13382		9.724884	-2.561639	1.007899	-8.878568	-1.095473	-5.112834	-1.410781	-0.625236	-6.358296	-0.740479	0.681152	-0.454102	0.096338	-0.028616	0.010576	0.325646	-0.160037	-0.736736	-0.570581	100.521147	-41.487614	-169.554998
13383		12.001846	-4.012332	0.302495	-11.518322	-2.552135	-5.230571	-2.175909	-0.604475	-6.261058	-0.767822	0.631836	-0.440674	0.118674	-0.043814	0.003848	0.303640	-0.142155	-0.736115	-0.587988	99.051169	-37.893648	-169.206216
13384		15.338905	-7.817837	-0.838455	-16.157818	-5.120812	-6.697215	-2.975944	-0.471284	-5.979130	-0.788818	0.593506	-0.416504	0.150976	-0.082826	-0.006817	0.286850	-0.129447	-0.731227	-0.605201	97.232606	-35.182801	-168.861321
13385		19.023438	-11.971282	-1.883229	-21.271373	-7.450788	-9.036930	-3.589605	-0.261669	-5.578956	-0.793701	0.544434	-0.398682	0.186814	-0.125265	-0.016371	0.266533	-0.114921	-0.723949	-0.625820	95.047309	-31.988733	-168.629905
13386		21.217825	-16.118455	-2.810389	-25.060475	-9.210369	-12.012151	-3.923476	0.013432	-5.024591	-0.818848	0.497314	-0.389648	0.208030	-0.166955	-0.024880	0.258583	-0.109122	-0.713919	-0.641519	92.875560	-30.612009	-168.202249
13387		20.072043	-21.859269	-4.353710	-26.492584	-10.731603	-18.891885	-3.748237	0.340832	-4.335623	-0.826904	0.470703	-0.378418	0.195838	-0.223642	-0.039713	0.243743	-0.097355	-0.703528	-0.660424	90.575654	-28.135003	-167.892471
13388		18.928763	-27.095531	-6.667259	-27.622101	-13.055523	-24.071108	-3.125223	0.788578	-3.517653	-0.832520	0.441650	-0.376221	0.184218	-0.275230	-0.063127	0.249539	-0.097784	-0.694492	-0.667720	88.941252	-28.502065	-167.017639
13389		15.688739	-29.614872	-9.163827	-25.172929	-14.363853	-28.970891	-2.315175	1.004842	-2.638638	-0.842773	0.421387	-0.380371	0.152502	-0.299220	-0.088960	0.243046	-0.088140	-0.686684	-0.679430	87.337882	-26.972355	-166.422998
13390		11.980334	-30.391309	-10.203030	-22.619409	-14.939292	-30.702658	-1.489386	0.807686	-1.695914	-0.837891	0.408203	-0.382568	0.116809	-0.305663	-0.100234	0.260782	-0.095843	-0.683546	-0.674960	86.907080	-29.071047	-165.352817
13391		9.622873	-29.616655	-9.310661	-20.304873	-13.118732	-31.539008	-1.062538	0.429085	-0.608986	-0.837402	0.399414	-0.382568	0.095128	-0.296947	-0.091735	0.259679	-0.093697	-0.679678	-0.679577	86.174500	-28.707941	-165.096592
13392		7.248886	-29.330013	-8.478941	-19.347626	-12.502547	-31.120830	-0.941966	0.058422	0.347031	-0.835693	0.408203	-0.373779	0.072974	-0.293569	-0.083428	0.284566	-0.111034	-0.679486	-0.667077	86.475764	-32.333966	-164.291523
13393		5.622112	-26.464417	-7.802778	-16.863564	-11.089350	-29.446759	-0.362788	-0.162101	0.935048	-0.833496	0.412842	-0.373779	0.057521	-0.264518	-0.077502	0.286929	-0.115266	-0.677979	-0.666881	86.305626	-32.874533	-164.361527
13394		5.120968	-21.247928	-10.263649	-13.747136	-13.695161	-24.182489	0.413039	-0.427818	1.215117	-0.826904	0.417236	-0.364990	0.052718	-0.211950	-0.102963	0.312902	-0.134120	-0.682288	-0.646983	87.635526	-36.907562	-163.890704
13395		-1.201226	7.226522	-24.787412	11.316851	-22.827930	-5.467022	0.051939	-1.664077	0.672538	-0.824951	0.421631	-0.354004	-0.010193	0.072293	-0.247945	0.309423	-0.141711	-0.684581	-0.644611	88.376264	-37.325928	-165.068860
13396		17.200083	51.135302	-17.181953	23.015043	-11.520193	40.619400	0.411441	-0.570921	-1.571967	-0.831299	0.412842	-0.367188	0.176502	0.510329	-0.170269	0.321417	-0.145617	-0.693211	-0.628447	90.257268	-38.950206	-164.937637
13397		51.397209	4.096018	12.183745	-39.076535	1.791129	25.917447	-0.560286	1.193667	1.097233	-0.818359	0.428467	-0.364990	0.514450	0.044117	0.118647	0.328582	-0.146565	-0.688708	-0.629471	89.375554	-39.576786	-164.051718
13398		56.178917	-40.656782	5.683292	-67.642071	-14.005718	-1.510613	0.283358	-0.878019	4.523795	-0.797852	0.473389	-0.369629	0.570538	-0.393810	0.058761	0.353712	-0.170675	-0.690856	-0.607022	91.023363	-44.101799	-164.359866
13399		8.191096	-6.804778	5.310178	-11.689338	2.028373	-8.901345	1.665558	0.695328	3.429009	-0.798584	0.495605	-0.376465	0.083249	-0.067066	0.052253	0.367876	-0.177432	-0.691626	-0.595684	91.623763	-46.075261	-163.860064
13400		-7.559355	10.960749	-2.523221	13.340927	1.774518	-8.228111	0.752612	-0.923669	2.606270	-0.783691	0.515625	-0.363281	-0.076898	0.108706	-0.025175	0.386973	-0.195553	-0.693310	-0.575615	93.348001	-49.615254	-164.390834
13401		4.035958	-10.769735	3.487598	-11.373097	-0.206528	-13.691037	0.292971	-1.017583	2.994510	-0.773438	0.538086	-0.356689	0.041789	-0.107130	0.034929	0.392302	-0.208271	-0.693106	-0.567737	94.360132	-51.288118	-165.485563
13402		5.745770	-7.972288	-3.026604	-8.375372	-5.964868	-9.798032	-0.438482	-0.829116	2.163914	-0.764893	0.551514	-0.350342	0.058441	-0.079160	-0.029851	0.404207	-0.223824	-0.691044	-0.555857	95.377094	-53.850321	-166.269226
13403		8.732985	0.334261	-4.624267	-3.277062	-5.491788	-2.272097	-0.263595	-0.240355	1.516173	-0.756104	0.558350	-0.348145	0.087357	0.003944	-0.046143	0.407284	-0.230258	-0.689080	-0.553417	95.531566	-54.702164	-166.645491
13404		12.186924	-2.976004	-2.407380	-8.177780	-4.695738	-1.196188	-0.132388	-0.475587	1.454586	-0.754395	0.571533	-0.348145	0.122138	-0.028888	-0.023764	0.416403	-0.240230	-0.688067	-0.543564	96.485777	-56.531327	-167.209079
13405		11.134800	-4.974147	-2.192394	-9.156214	-4.907111	-3.058811	0.106168	0.404372	1.093483	-0.750488	0.584961	-0.354736	0.111573	-0.049120	-0.022176	0.420887	-0.242669	-0.686188	-0.541397	96.300931	-57.179927	-166.915631
13406		12.270079	-5.114732	-2.007806	-9.706498	-4.944464	-1.933481	-0.260124	0.439394	0.774968	-0.746094	0.585205	-0.352539	0.122853	-0.050698	-0.020282	0.429793	-0.247306	-0.683612	-0.535530	96.257021	-58.484883	-166.479230
13407		10.305650	-3.413143	-5.432552	-6.155104	-7.466412	-2.482305	0.132552	0.978122	0.648537	-0.748535	0.591797	-0.367920	0.102899	-0.033761	-0.054851	0.435030	-0.246615	-0.681051	-0.534883	95.478677	-58.912021	-165.479384
13408		9.319963	-0.146571	-1.892804	-3.992893	-3.054279	-1.738498	0.299959	1.223510	0.690825	-0.748535	0.591797	-0.367920	0.093086	-0.001115	-0.019500	0.446093	-0.247142	-0.678349	-0.528927	94.883758	-60.072086	-164.109231
13409		7.818613	-1.217580	-1.662149	-4.135411	-3.030989	-3.560724	-0.230260	0.677696	0.625653	-0.742188	0.603027	-0.379150	0.078167	-0.011951	-0.016873	0.449757	-0.247984	-0.675448	-0.529143	94.123487	-60.460157	-163.385583
13410		10.117886	-1.341653	-1.780454	-5.138691	-3.513594	-1.530784	-0.164102	0.299370	0.503063	-0.748779	0.603027	-0.381348	0.101185	-0.013177	-0.017945	0.455626	-0.250887	-0.673734	-0.524923	94.029607	-61.322345	-163.003579
13411		9.775280	1.123604	-1.385085	-3.062187	-2.301849	-0.644188	-0.145112	0.086213	0.466632	-0.742188	0.605225	-0.379150	0.097720	0.011454	-0.013901	0.456959	-0.252564	-0.672569	-0.524454	93.889914	-61.592701	-162.939162
13412		9.724533	-0.659624	-2.483164	-3.999803	-3.869014	-1.434151	-0.133243	-0.042305	0.510610	-0.744629	0.609619	-0.370361	0.097267	-0.006364	-0.024807	0.461052	-0.255990	-0.671691	-0.520318	94.126691	-62.345396	-162.975036
13413		8.743175	-1.164898	-1.542018	-4.282879	-3.000594	-2.544182	0.014710	-0.124114	0.441369	-0.735840	0.612061	-0.372559	0.087467	-0.011455	-0.015367	0.461802	-0.257762	-0.671449	-0.519090	94.306965	-62.592604	-163.168779
13414		9.852405	-1.171776	-1.411251	-4.738733	-2.990907	-1.504059	0.083805	-0.224710	0.362845	-0.738037	0.612061	-0.376953	0.098561	-0.011533	-0.014007	0.464687	-0.260442	-0.671763	-0.514752	94.856198	-63.182282	-163.453437
13415		10.551247	-1.374506	-2.186520	-4.912412	-3.837454	-0.916572	0.203126	-0.286880	0.363056	-0.740234	0.609619	-0.370361	0.105568	-0.013531	-0.021728	0.464922	-0.261929	-0.672478	-0.512849	95.334636	-63.375125	-163.858731
13416		9.519882	-1.710653	-2.099462	-4.703187	-3.694304	-1.926359	0.335068	-0.345053	0.350451	-0.740479	0.618652	-0.372559	0.095265	-0.016905	-0.020859	0.467392	-0.264134	-0.673721	-0.507817	96.177055	-63.902548	-164.332979
13417		9.431382	-1.036096	-2.107310	-4.085402	-3.420095	-1.683883	0.380185	-0.355640	0.316021	-0.733887	0.620850	-0.372559	0.094367	-0.010172	-0.020925	0.467497	-0.265214	-0.675097	-0.505324	96.851866	-64.059586	-164.841446
13418		9.831175	-0.287668	-2.223741	-3.521525	-3.256437	-0.942848	0.400321	-0.361394	0.289677	-0.735840	0.616455	-0.372559	0.098356	-0.002690	-0.022065	0.469584	-0.266985	-0.676618	-0.500399	97.770074	-64.509250	-165.374830
13419		9.715000	-0.576438	-2.281570	-3.677554	-3.356059	-1.144856	0.378765	-0.380890	0.295231	-0.738281	0.620850	-0.368164	0.097202	-0.005578	-0.022641	0.469538	-0.268048	-0.678062	-0.497912	98.492135	-64.646106	-165.933966
13420		9.786963	-1.069918	-2.103715	-4.123530	-3.318012	-1.248692	0.354089	-0.436834	0.320698	-0.736328	0.625244	-0.368164	0.097932	-0.010505	-0.020842	0.471136	-0.270129	-0.679600	-0.493159	99.510062	-65.066913	-166.623000
13421		9.359883	-0.904292	-2.338871	-3.711104	-3.383093	-1.525493	0.379890	-0.475526	0.310491	-0.736572	0.629639	-0.363770	0.093668	-0.008853	-0.023183	0.470798	-0.271462	-0.681233	-0.490490	100.373171	-65.195380	-167.334357
13422		9.881381	-1.801936	-3.091103	-4.331453	-4.396575	-1.306696	0.381819	-0.490050	0.337845	-0.732178	0.634277	-0.361572	0.098919	-0.017794	-0.030703	0.472121	-0.273601	-0.682927	-0.485649	101.513479	-65.587835	-168.149883
13423		9.459100	-0.931014	-2.656302	-3.586588	-3.576927	-1.342803	0.401705	-0.472435	0.353140	-0.729736	0.632080	-0.363770	0.094670	-0.009090	-0.026358	0.471913	-0.275005	-0.684530	-0.482793	102.421993	-65.729929	-168.894360
13424		9.672317	-0.814264	-2.876831	-3.432950	-3.684500	-1.030212	0.374328	-0.433825	0.380884	-0.732422	0.640869	-0.364014	0.096800	-0.007905	-0.028573	0.473369	-0.277151	-0.686012	-0.478014	103.553503	-66.125870	-169.710063
13425		9.824291	-0.123842	-2.409534	-3.078608	-2.946006	-0.637677	0.323985	-0.368187	0.385059	-0.730225	0.640869	-0.359619	0.098289	-0.001010	-0.023916	0.473474	-0.278585	-0.687120	-0.475477	104.324355	-66.289473	-170.349578
13426		9.745020	-0.964277	-2.661459	-3.589362	-3.440701	-0.966422	0.272708	-0.308527	0.410122	-0.728027	0.645508	-0.359619	0.097511	-0.009407	-0.026477	0.475138	-0.280745	-0.688011	-0.471240	105.292358	-66.692775	-171.058390
13427		9.799588	-1.163465	-2.481547	-3.820836	-3.317305	-0.984318	0.281577	-0.263162	0.433828	-0.728271	0.647705	-0.355225	0.098053	-0.011387	-0.024703	0.475649	-0.282189	-0.688687	-0.468868	105.948809	-66.891861	-171.597036
13428		9.690251	-0.732702	-2.282427	-3.432300	-2.901608	-0.899381	0.257504	-0.247778	0.441042	-0.726074	0.652100	-0.359619	0.096946	-0.007084	-0.022713	0.477481	-0.284334	-0.689336	-0.464738	106.884507	-67.304980	-172.283752
13429		9.532058	-1.673795	-2.433843	-4.070789	-3.374888	-1.349599	0.228941	-0.263036	0.456311	-0.726318	0.658691	-0.350830	0.095390	-0.016493	-0.024232	0.477959	-0.285972	-0.689844	-0.462482	107.547998	-67.510415	-172.860247
13430		9.466496	-1.330288	-2.094510	-3.831881	-2.869871	-1.277379	0.235292	-0.269177	0.449891	-0.726318	0.658691	-0.357422	0.094723	-0.013065	-0.020833	0.479644	-0.288230	-0.690456	-0.458405	108.546632	-67.910718	-173.630101
13431		9.381095	-0.853840	-1.933256	-3.439749	-2.482978	-1.182844	0.194858	-0.274462	0.428076	-0.726807	0.665283	-0.344238	0.093855	-0.008319	-0.019212	0.479958	-0.289871	-0.690941	-0.456306	109.223510	-68.092201	-174.239648
13432		9.474341	-1.796094	-2.105775	-4.140259	-2.984795	-1.364465	0.159040	-0.259598	0.397564	-0.717773	0.669922	-0.346436	0.094806	-0.017756	-0.020949	0.481407	-0.292075	-0.691404	-0.452659	110.179354	-68.452600	-175.010376
13433		9.258742	-1.814944	-2.216484	-4.013700	-3.050343	-1.535213	0.120247	-0.266043	0.364118	-0.720215	0.672119	-0.342041	0.092650	-0.017968	-0.022052	0.481487	-0.293647	-0.691782	-0.450975	110.797273	-68.594996	-175.600290
13434		9.276529	-2.169974	-2.688495	-4.078720	-3.582538	-1.535000	0.104731	-0.246139	0.351448	-0.718506	0.683105	-0.340088	0.092836	-0.021523	-0.026782	0.482792	-0.295775	-0.692137	-0.447633	111.720576	-68.925504	-176.365753
13435		9.486228	-2.668597	-2.884873	-4.477628	-3.944335	-1.456531	0.096498	-0.219080	0.346183	-0.713623	0.674316	-0.333252	0.094940	-0.026508	-0.028758	0.482951	-0.297232	-0.692368	-0.446136	112.272987	-69.062726	-176.898190
13436		9.483617	-2.358641	-2.526607	-4.308208	-3.447352	-1.360415	0.077784	-0.165017	0.326065	-0.711670	0.685547	-0.335693	0.094895	-0.023422	-0.025197	0.484426	-0.299180	-0.692498	-0.443022	113.106780	-69.392783	-177.580152
13437		9.518689	-2.312890	-2.687050	-4.198403	-3.549776	-1.271754	0.055385	-0.101472	0.303475	-0.716553	0.689941	-0.335693	0.095235	-0.022977	-0.026829	0.484831	-0.300323	-0.692412	-0.441941	113.465118	-69.529849	-177.928850
13438		9.258177	-2.049169	-2.759678	-3.801921	-3.467973	-1.383734	0.091356	-0.062389	0.251874	-0.705322	0.689941	-0.331299	0.092616	-0.020362	-0.027577	0.486520	-0.301766	-0.692424	-0.439072	114.157994	-69.842822	-178.447788
13439		9.249963	-2.475803	-2.730168	-4.153884	-3.612235	-1.515568	0.175501	-0.066715	0.215729	-0.705322	0.694580	-0.331299	0.092535	-0.024634	-0.027292	0.487029	-0.302235	-0.692645	-0.437836	114.493405	-69.940050	-178.697810
13440		10.025104	-2.059011	-2.573778	-4.105728	-3.230610	-0.643573	0.254446	-0.036853	0.204116	-0.703125	0.692383	-0.331299	0.100277	-0.020455	-0.025745	0.486851	-0.306395	-0.691557	-0.436860	115.248802	-70.232774	-179.730321
13441		10.208269	-1.119593	-2.201179	-3.496389	-2.479125	-0.224333	0.285360	-0.006970	0.256149	-0.696777	0.705811	-0.333496	0.102098	-0.011034	-0.022024	0.487824	-0.306603	-0.691803	-0.435236	115.599044	-70.363961	-179.928592
13442		10.328676	-0.583606	-1.890457	-3.157307	-1.905131	0.036054	0.332721	-0.037543	0.341493	-0.692627	0.712402	-0.326904	0.103300	-0.005628	-0.018895	0.488287	-0.310739	-0.690759	-0.433439	116.524939	-70.725825	178.957340
13443		10.296185	0.251088	-1.731338	-2.460373	-1.375739	0.243437	0.368153	-0.079824	0.484573	-0.695313	0.723389	-0.331299	0.102962	0.002792	-0.017267	0.489633	-0.311688	-0.690995	-0.430856	117.215232	-70.953179	178.449959
13444		10.015969	1.076334	-1.833119	-1.546899	-1.037626	0.255503	0.363782	-0.105596	0.641208	-0.686279	0.723633	-0.326904	0.100134	0.011118	-0.018258	0.490406	-0.317176	-0.689491	-0.428373	118.527344	-71.441700	176.897013
13445		10.171057	0.494242	-2.121832	-1.913633	-1.498737	0.301063	0.355825	-0.121048	0.824604	-0.679932	0.734863	-0.324707	0.101702	0.005399	-0.021147	0.492315	-0.319405	-0.689235	-0.424925	119.605984	-71.821339	175.975381
13446		10.101289	-0.001705	-2.416943	-2.099355	-1.887476	0.182652	0.364255	-0.126053	0.989940	-0.662354	0.744141	-0.326904	0.101026	0.000527	-0.024105	0.493691	-0.326099	-0.687121	-0.421656	121.365785	-72.449933	173.945665
13447		10.219641	-0.989905	-2.933886	-2.685132	-2.714734	0.159652	0.373486	-0.129466	1.149687	-0.658203	0.748535	-0.322510	0.102270	-0.009257	-0.029290	0.496271	-0.329397	-0.686340	-0.417313	122.908338	-72.968663	172.554336
13448		10.526099	-0.828001	-3.203494	-2.400222	-2.765402	0.595788	0.421809	-0.115894	1.278491	-0.643311	0.770996	-0.322754	0.105329	-0.007539	-0.031990	0.498392	-0.336781	-0.683763	-0.413101	125.234163	-73.701514	169.989093
13449		10.675261	-1.274913	-3.057764	-2.762714	-2.745790	0.664066	0.495141	-0.109385	1.369449	-0.632080	0.773438	-0.331543	0.106853	-0.011942	-0.030549	0.501668	-0.340449	-0.682733	-0.407797	127.314365	-74.297430	168.120317
13450		10.899215	-2.059284	-2.658246	-3.519924	-2.588356	0.723337	0.542600	-0.110590	1.441228	-0.625977	0.789063	-0.324951	0.109151	-0.019735	-0.026576	0.504275	-0.348068	-0.679947	-0.402774	130.326486	-75.048957	164.921026
13451		11.204521	-0.982150	-2.589283	-2.528562	-1.956060	1.277292	0.586635	-0.131630	1.504973	-0.608643	0.802734	-0.324951	0.112132	-0.008902	-0.025846	0.507865	-0.351962	-0.678818	-0.396740	133.073445	-75.643066	162.429285
13452		11.290092	-1.751755	-2.646493	-3.024947	-2.197312	1.302926	0.617934	-0.088239	1.625357	-0.599854	0.807373	-0.327148	0.113050	-0.016517	-0.026467	0.510871	-0.360170	-0.675462	-0.391204	136.973709	-76.396545	158.329354
13453		11.235960	-1.516999	-2.493395	-2.692677	-1.869559	1.323541	0.632180	-0.119245	1.735941	-0.584717	0.825439	-0.333740	0.112500	-0.014115	-0.024913	0.514982	-0.364639	-0.673847	-0.384400	140.695811	-77.000357	154.877053
13454		11.106619	-1.058075	-2.360364	-2.105016	-1.416667	1.305118	0.638496	-0.156821	1.871658	-0.562744	0.839111	-0.331543	0.111177	-0.009465	-0.023548	0.518408	-0.373376	-0.670163	-0.377789	146.041751	-77.674583	149.373234
13455		11.971550	0.777803	-1.955413	-0.593346	-0.038453	2.327654	0.620755	-0.229722	1.966177	-0.547852	0.857178	-0.338379	0.119653	0.009015	-0.019390	0.522485	-0.378772	-0.668223	-0.370161	151.212539	-78.149328	144.449214
13456		14.755015	1.943604	-2.348376	0.441659	0.637191	5.233677	0.562826	-0.194516	2.081838	-0.528076	0.868652	-0.336182	0.147359	0.021036	-0.023283	0.525881	-0.388436	-0.663751	-0.363320	158.034702	-78.626108	137.385772
13457		16.262582	1.599215	-2.923401	0.459997	0.353626	6.777260	0.401962	-0.116243	2.279570	-0.515137	0.882324	-0.333984	0.162446	0.017903	-0.029105	0.530383	-0.395133	-0.660313	-0.355739	164.630694	-78.981714	130.896996
13458		15.869668	1.432596	-3.863294	1.153112	-0.380618	6.537666	0.376697	-0.211415	2.576259	-0.488770	0.898438	-0.338379	0.158535	0.016441	-0.038436	0.535782	-0.403484	-0.656244	-0.345662	173.493095	-79.156722	122.211129
13459		18.669651	0.119665	-3.655693	0.029967	-0.057990	9.211035	0.395354	-0.377392	3.003870	-0.464355	0.909912	-0.338379	0.186718	0.004073	-0.036198	0.540472	-0.412889	-0.651801	-0.335513	-177.316737	-78.997459	113.082919
13460		20.198037	-0.068021	-3.040294	0.066757	1.054355	10.584681	0.496361	-0.445231	3.324244	-0.440186	0.923584	-0.342773	0.202021	0.002752	-0.029949	0.546196	-0.423551	-0.646720	-0.322532	-166.882285	-78.432785	102.836236
13461		20.429235	1.116433	-3.416362	1.880546	1.690296	10.774454	0.778602	-0.618586	3.511458	-0.409180	0.935303	-0.340576	0.204157	0.014881	-0.033479	0.551418	-0.433709	-0.642120	-0.309058	-157.936373	-77.483949	94.146377
13462		22.477599	3.468898	-4.674314	5.200660	2.569920	12.668627	1.118718	-0.745143	3.538749	-0.387695	0.958008	-0.349365	0.224284	0.038918	-0.045697	0.557386	-0.443414	-0.637953	-0.292780	-149.768533	-76.124345	86.511730
13463		23.039369	4.231908	-4.651365	6.564267	3.579341	12.867375	1.272286	-0.571387	3.607787	-0.356689	0.974121	-0.366943	0.229708	0.046759	-0.045569	0.563563	-0.452132	-0.633288	-0.277343	-143.109805	-74.706405	80.385569
13464		21.822029	3.731572	-3.938525	6.442100	4.178518	11.320591	1.337051	-0.517957	3.585653	-0.330078	0.979248	-0.375732	0.217602	0.041480	-0.038553	0.570089	-0.460634	-0.628250	-0.260993	-137.298316	-73.089622	75.186518
13465		22.175480	2.419849	-3.389664	5.713019	4.626376	11.517976	1.550020	-0.337410	3.484335	-0.308105	0.992920	-0.386719	0.221342	0.028317	-0.033314	0.577042	-0.467519	-0.623093	-0.245364	-132.421471	-71.536663	71.000643
13466		21.225045	0.391153	-2.773568	4.229735	4.379093	10.711172	1.411683	-0.101386	3.543967	-0.283936	1.006836	-0.399658	0.212148	0.007867	-0.027582	0.584363	-0.474660	-0.616652	-0.230125	-127.927504	-69.911030	67.116621
13467		21.144073	-3.496708	-2.400275	1.405109	3.298713	11.451127	1.162255	0.092283	3.634633	-0.259521	1.018555	-0.406250	0.212017	-0.030977	-0.024288	0.591482	-0.482280	-0.608980	-0.216096	-123.949947	-68.254674	63.572062
13468		18.623911	-4.349176	-2.206423	0.865510	2.568009	9.246335	1.013104	0.171678	3.651406	-0.239746	1.027832	-0.423828	0.186971	-0.039970	-0.022433	0.598395	-0.490056	-0.600652	-0.202450	-120.458009	-66.531348	60.441120
13469		14.854466	-0.962493	-4.392974	4.639822	1.209734	4.947463	0.738141	-0.069293	3.558344	-0.212891	1.032715	-0.423828	0.148698	-0.006818	-0.043907	0.603500	-0.498525	-0.592787	-0.189380	-117.915685	-64.731126	58.114951
13470		10.590341	1.415320	-5.714863	6.698379	-0.179728	0.282116	0.563238	-0.333761	3.314384	-0.193115	1.046631	-0.443604	0.105743	0.016067	-0.056929	0.607006	-0.506781	-0.586020	-0.176907	-116.175592	-62.966701	56.544072
13471		8.495780	3.307925	-4.995045	7.545639	0.592627	-2.686964	0.890904	-0.553629	2.759899	-0.177246	1.044678	-0.447998	0.084626	0.034470	-0.049564	0.610018	-0.512601	-0.581429	-0.164494	-114.914593	-61.402553	55.695724
13472		7.485752	0.608122	-1.964614	3.627449	1.647764	-3.150123	1.022076	-0.102296	2.139930	-0.170898	1.055908	-0.463379	0.074796	0.006982	-0.019574	0.613734	-0.515918	-0.577092	-0.155320	-113.606765	-60.299426	54.789049
13473		6.554225	-4.402524	-3.149833	0.225529	-1.702229	-1.487444	1.184647	-0.515623	2.048689	-0.146484	1.063232	-0.469971	0.066069	-0.043163	-0.031586	0.616848	-0.518559	-0.574265	-0.144270	-112.604324	-59.103237	54.414336
13474		5.225757	1.828790	-1.563630	3.870102	1.709185	-5.914192	1.015763	-0.092114	1.309160	-0.150879	1.058594	-0.478516	0.052143	0.018708	-0.015518	0.619751	-0.519475	-0.571899	-0.137786	-111.733295	-58.432436	53.974941
13475		3.398409	5.807370	-1.324429	6.231966	2.845071	-9.501501	0.541759	-0.184175	0.382879	-0.148682	1.065430	-0.496338	0.033885	0.058174	-0.013056	0.620893	-0.519018	-0.571843	-0.134567	-111.450739	-58.189024	54.007805
13476		3.657529	5.970714	-0.620348	6.024636	3.607952	-9.499485	0.387538	-0.307886	-0.187234	-0.153320	1.069824	-0.500732	0.036641	0.059685	-0.006031	0.620380	-0.517739	-0.573625	-0.134277	-111.686107	-58.295593	54.410465
13477		3.474023	3.834631	0.095014	3.915028	3.208461	-8.735425	0.187659	-0.312258	-0.587657	-0.159912	1.065186	-0.496338	0.034851	0.038243	0.001040	0.619573	-0.515680	-0.576235	-0.134748	-112.052360	-58.540835	54.966737
13478		3.230147	1.340786	0.170954	1.876446	2.089724	-7.721591	0.014211	-0.277576	-0.991516	-0.180176	1.067139	-0.500732	0.032365	0.013247	0.001755	0.617553	-0.513129	-0.579809	-0.138374	-112.800040	-59.107713	55.697503
13479		2.722559	0.759876	0.121268	1.285505	1.577187	-7.846914	0.008196	-0.161862	-1.425401	-0.195801	1.062500	-0.509521	0.027278	0.007404	0.001235	0.616104	-0.509073	-0.583955	-0.142328	-113.483721	-59.821686	56.496828
13480		2.503859	0.929083	-0.001695	1.393230	1.447851	-8.053446	-0.007707	-0.055316	-1.906768	-0.216064	1.062012	-0.496338	0.025126	0.009052	-0.000010	0.613976	-0.503616	-0.589138	-0.149403	-114.480771	-60.916962	57.496910
13481		2.599179	1.380604	0.194679	1.620896	1.830655	-8.163234	-0.104328	0.040759	-2.365261	-0.236084	1.057129	-0.505371	0.026153	0.013498	0.001934	0.612024	-0.496906	-0.594848	-0.157059	-115.558378	-62.154369	58.654745
13482		2.784309	1.110261	0.362558	1.312803	1.888464	-7.856624	-0.264358	0.100343	-2.777075	-0.260254	1.045654	-0.498779	0.027996	0.010719	0.003597	0.608861	-0.489311	-0.601389	-0.167908	-117.172186	-63.720418	60.164362
13483		3.018766	0.633091	0.313483	0.955888	1.682718	-7.390707	-0.400294	0.162156	-3.148233	-0.291504	1.036133	-0.498779	0.030285	0.005861	0.003098	0.605650	-0.480868	-0.608184	-0.179067	-119.012994	-65.355116	61.949067
13484		3.270124	-0.086525	0.112429	0.459031	1.217809	-6.809527	-0.490503	0.223907	-3.513320	-0.315918	1.031250	-0.500977	0.032681	-0.001437	0.001091	0.601359	-0.471261	-0.615651	-0.193013	-121.567005	-67.275591	64.313419
13485		3.434321	-0.468688	-0.193848	0.248298	0.775572	-6.438208	-0.532865	0.274216	-3.876859	-0.360352	1.017090	-0.487793	0.034241	-0.005357	-0.001972	0.597092	-0.460577	-0.623327	-0.206914	-124.580592	-69.222790	67.228855
13486		3.619842	-0.610565	-0.430837	0.163367	0.486285	-6.152573	-0.576554	0.310282	-4.216212	-0.393555	1.005371	-0.488037	0.036052	-0.006879	-0.004345	0.591693	-0.448520	-0.631596	-0.223194	-128.813831	-71.376223	71.270974
13487		4.040802	-0.709724	-0.630526	0.092698	0.300928	-5.674187	-0.616828	0.318069	-4.530202	-0.426270	0.978027	-0.485596	0.040223	-0.008029	-0.006346	0.586105	-0.435570	-0.639958	-0.239194	-134.161869	-73.442956	76.509449
13488		4.556798	-1.054505	-0.650881	-0.329558	0.125136	-5.104031	-0.628949	0.336322	-4.771147	-0.461670	0.961670	-0.476807	0.045288	-0.011648	-0.006550	0.579384	-0.421370	-0.648626	-0.256994	-141.759622	-75.508854	83.926285
13489		4.667437	-1.837960	-0.692022	-1.158271	-0.423012	-4.901881	-0.701128	0.332705	-4.970683	-0.505371	0.929932	-0.470215	0.046187	-0.019556	-0.006930	0.572417	-0.406724	-0.657027	-0.274282	-151.554998	-77.239169	93.589639
13490		5.376629	-2.907780	-0.870466	-2.211898	-1.134244	-4.161723	-0.675402	0.278737	-5.161117	-0.540283	0.904785	-0.479004	0.052980	-0.030481	-0.008678	0.564158	-0.390912	-0.665741	-0.292751	-165.049704	-78.534696	106.912990
13491		6.165828	-3.067056	-0.685191	-2.744262	-1.102632	-3.556856	-0.530223	0.245186	-5.349703	-0.568359	0.877686	-0.470215	0.060800	-0.032323	-0.006843	0.555905	-0.374105	-0.674486	-0.309974	179.331686	-79.059775	122.521511
13492		6.630688	-2.310937	0.081645	-2.835360	-0.204243	-3.392422	-0.398214	0.263668	-5.482361	-0.609863	0.847900	-0.472412	0.065641	-0.024913	0.000778	0.546911	-0.355904	-0.683252	-0.327699	162.627011	-78.700289	139.251036
13493		6.947801	-1.421740	1.234226	-3.017818	1.056563	-3.364383	-0.557791	0.245393	-5.544810	-0.642090	0.809570	-0.465576	0.069064	-0.016102	0.012301	0.537462	-0.337951	-0.691267	-0.345071	148.280905	-77.499273	153.581687
13494		7.518332	-1.320657	1.921477	-3.710210	1.516628	-3.039070	-0.894278	0.200366	-5.566571	-0.674316	0.773438	-0.463379	0.074798	-0.015206	0.019205	0.526618	-0.320229	-0.698380	-0.363857	136.567375	-75.602627	165.071273
13495		7.926509	-2.871580	1.917349	-5.411491	0.504881	-3.089880	-1.368109	0.140691	-5.564681	-0.699951	0.735107	-0.449951	0.078441	-0.030774	0.019324	0.514582	-0.304018	-0.704142	-0.383357	127.864971	-73.289970	173.288011
13496		8.486544	-4.943668	1.421469	-7.354350	-1.177014	-3.256308	-1.802586	0.079322	-5.621779	-0.732178	0.696777	-0.443359	0.083440	-0.051665	0.014640	0.501307	-0.287953	-0.708698	-0.404378	120.914301	-70.636535	179.531732
13497		9.752098	-7.160689	0.371960	-9.421569	-3.359147	-2.998967	-2.053066	0.057216	-5.702407	-0.755127	0.654053	-0.423340	0.095429	-0.074305	0.004446	0.486797	-0.272650	-0.712287	-0.425837	115.588317	-67.772364	-176.031343
13498		11.201160	-8.890488	-0.838460	-11.174650	-5.457355	-2.706850	-2.365790	0.113384	-5.724720	-0.773682	0.607178	-0.416504	0.109400	-0.092153	-0.007370	0.472281	-0.256986	-0.714308	-0.447966	111.008988	-64.816482	-172.438056
13499		13.616406	-10.507877	-3.450298	-12.777041	-8.773365	-1.602597	-2.779060	0.260956	-5.587127	-0.796631	0.562256	-0.403076	0.133106	-0.109293	-0.033179	0.456901	-0.242889	-0.714297	-0.471196	107.056593	-61.838822	-169.798250
13500		17.088505	-12.995863	-5.528658	-15.970738	-12.142769	-0.388225	-3.226863	0.438437	-5.158514	-0.812988	0.519775	-0.394043	0.167324	-0.135178	-0.053503	0.443435	-0.230416	-0.711415	-0.494129	103.355986	-59.164486	-167.563727
13501		18.799174	-17.693560	-7.647888	-20.192903	-16.117164	-2.245175	-3.508149	0.512399	-4.383049	-0.816162	0.484131	-0.385254	0.183844	-0.182305	-0.073787	0.430214	-0.221250	-0.706379	-0.516714	100.071567	-56.765471	-166.061048
13502		17.042612	-23.958667	-8.579832	-24.057259	-18.880528	-8.174202	-3.464380	0.600744	-3.408335	-0.822021	0.464111	-0.376221	0.166044	-0.243885	-0.082101	0.422532	-0.214151	-0.699967	-0.534465	97.196858	-55.127750	-164.597012
13503		15.149267	-28.796891	-10.274328	-26.434741	-21.253905	-13.509625	-2.878161	0.562852	-2.449398	-0.836914	0.439209	-0.369629	0.147657	-0.291236	-0.098987	0.414800	-0.210119	-0.693581	-0.550214	94.892444	-53.766621	-163.791554
13504		11.299489	-30.143722	-11.873308	-24.790262	-22.275396	-17.966697	-1.822477	0.631483	-1.644651	-0.836426	0.428223	-0.371582	0.110135	-0.303418	-0.116325	0.414996	-0.205848	-0.689552	-0.556707	93.423742	-53.275153	-162.664357
13505		7.994008	-26.021382	-11.453900	-20.056677	-19.768998	-18.707136	-0.905442	0.503606	-0.946569	-0.833984	0.421631	-0.373779	0.078419	-0.261103	-0.113557	0.413158	-0.203059	-0.686944	-0.562295	92.485512	-52.748960	-162.139114
13506		7.278656	-22.817763	-10.015004	-17.679081	-17.450905	-17.352121	-0.627742	0.142464	-0.237036	-0.835693	0.410400	-0.378174	0.072445	-0.228577	-0.099485	0.417702	-0.203179	-0.686042	-0.559991	92.283595	-53.194999	-161.606493
13507		6.786130	-24.464351	-9.214495	-18.986517	-16.994784	-18.765386	-0.350177	-0.110809	0.382598	-0.826904	0.417236	-0.371582	0.068380	-0.244674	-0.091679	0.418038	-0.205537	-0.684902	-0.560275	92.179815	-53.412219	-161.727139
13508		4.958029	-18.684549	-15.003609	-11.574439	-20.584467	-16.224291	0.123284	-0.817917	0.760078	-0.827393	0.426025	-0.362793	0.050903	-0.186561	-0.149945	0.423344	-0.210693	-0.687299	-0.551370	93.312510	-54.515014	-162.224136
13509		9.310242	24.782492	-18.136127	19.832716	-11.057105	12.862524	0.351445	-0.976017	-0.498048	-0.822510	0.415039	-0.362793	0.094602	0.247908	-0.180466	0.418984	-0.210930	-0.690846	-0.550175	94.266058	-54.194059	-163.149554
13510		36.109869	43.943801	8.454402	9.867277	15.622364	44.638548	1.699815	1.680452	-1.543993	-0.824463	0.412842	-0.380371	0.365187	0.435907	0.085202	0.424883	-0.201305	-0.694284	-0.544904	94.404997	-54.033719	-161.791981
13511		45.873248	-9.669657	6.772173	-34.904219	-5.167204	21.787920	-1.441123	0.534367	2.293484	-0.818848	0.439697	-0.367432	0.459977	-0.090941	0.067163	0.431499	-0.210858	-0.686848	-0.545515	93.272513	-55.366182	-161.415952
13512		33.571286	-40.900635	-5.311086	-47.318610	-23.348590	-3.246030	-1.287618	-2.648704	4.963248	-0.797852	0.475342	-0.352051	0.346369	-0.400809	-0.045972	0.437921	-0.240919	-0.683900	-0.531474	95.702573	-58.767703	-164.798808
13513		7.745944	-2.739580	0.092545	-6.004938	-1.869905	-4.525628	0.918916	1.221134	2.501031	-0.800537	0.486572	-0.371826	0.077797	-0.026427	0.000328	0.449806	-0.244194	-0.680581	-0.524265	95.279582	-60.262072	-163.696845
13514		-2.226895	5.821443	-0.050972	5.761008	2.250442	-9.041442	1.138716	-1.088205	2.616615	-0.788086	0.513428	-0.356689	-0.023026	0.057919	-0.000303	0.458964	-0.256548	-0.682842	-0.507209	97.991033	-62.504607	-165.548372
13515		5.901887	-9.179821	3.955452	-11.567039	-0.239223	-8.871909	0.484745	-0.807022	3.232294	-0.771240	0.538086	-0.352295	0.060333	-0.090926	0.039575	0.464967	-0.268488	-0.681680	-0.497024	99.751596	-64.264345	-167.206457
13516		3.451094	-6.040589	-3.302981	-5.220692	-5.579951	-8.856365	-0.115568	-1.046515	1.951282	-0.766846	0.544678	-0.348145	0.035270	-0.060083	-0.032812	0.470583	-0.280804	-0.681130	-0.485553	102.159933	-66.028526	-169.440011
13517		8.233446	2.364860	-2.000840	-0.523266	-1.563234	-1.171669	-0.795763	-0.401123	1.364237	-0.756348	0.560303	-0.334961	0.082211	0.024130	-0.019939	0.471401	-0.288295	-0.678203	-0.484467	102.602214	-66.743903	-170.420030
13518		13.596736	-3.291547	-4.561186	-6.230752	-6.171030	2.002576	-0.141242	-1.042009	1.456093	-0.750000	0.569336	-0.334961	0.136437	-0.031955	-0.044879	0.475349	-0.298891	-0.678154	-0.474146	105.339272	-68.149156	-172.996435
13519		12.696492	-7.548357	-2.935646	-10.035833	-6.090288	-0.379537	0.457216	-0.041363	1.123342	-0.754883	0.578125	-0.328369	0.127392	-0.074702	-0.029502	0.478552	-0.301714	-0.677644	-0.469847	106.102594	-68.763542	-173.535142
13520		10.813594	-4.430074	-1.824604	-6.873994	-3.748149	-0.947727	-0.021755	-0.027601	0.744576	-0.750488	0.582764	-0.334961	0.108302	-0.043900	-0.018226	0.484327	-0.307219	-0.676415	-0.462067	107.592120	-69.905020	-174.661257
13521		9.742554	-2.084252	-5.845056	-2.911374	-6.534837	-0.743795	-0.074035	0.946916	0.671351	-0.748291	0.582764	-0.345947	0.097217	-0.020538	-0.058904	0.488964	-0.307485	-0.672907	-0.462129	106.425320	-70.432940	-173.465689
13522		10.664890	-0.391292	-3.395787	-2.387039	-3.695125	0.486312	-0.020213	1.619854	0.628853	-0.746338	0.593994	-0.368164	0.106381	-0.003582	-0.034820	0.500906	-0.307238	-0.668472	-0.455897	105.293067	-71.772472	-171.549900
13523		10.024239	-1.005564	-1.021272	-3.517818	-1.852527	-0.499773	-0.195878	1.536628	0.640464	-0.748535	0.593994	-0.370361	0.100192	-0.009745	-0.010973	0.507189	-0.306365	-0.663168	-0.457283	102.820715	-72.343935	-169.068860
13524		8.965596	-1.282744	-1.516459	-3.033572	-2.404151	-1.485397	-0.344707	0.956998	0.558371	-0.741943	0.598633	-0.372559	0.089617	-0.012604	-0.015572	0.516010	-0.308191	-0.659631	-0.451264	102.247237	-73.516778	-167.971537
13525		8.712220	-0.326552	-0.809275	-2.351859	-1.396893	-1.495143	-0.440173	0.484223	0.470569	-0.737549	0.603271	-0.374756	0.087110	-0.003079	-0.008297	0.517992	-0.309793	-0.656656	-0.452234	101.257714	-73.838935	-167.202880
13526		9.586007	-1.208440	-2.640306	-2.455769	-3.439300	-0.731753	-0.480784	0.251520	0.456390	-0.744385	0.605225	-0.374756	0.095854	-0.011929	-0.026495	0.523400	-0.313786	-0.654460	-0.446400	101.824430	-74.848245	-167.500517
13527		9.858923	-1.043689	-2.357806	-2.459471	-3.132293	-0.432574	-0.204644	0.178104	0.390860	-0.742676	0.614014	-0.370361	0.098588	-0.010268	-0.023655	0.524539	-0.315213	-0.652920	-0.446313	101.506766	-75.090004	-167.292605
13528		9.273359	-0.002670	-1.730665	-1.504496	-2.044936	-0.727256	-0.111336	0.110305	0.316974	-0.737549	0.603271	-0.376953	0.092724	0.000111	-0.017358	0.529309	-0.318353	-0.652018	-0.439723	102.625418	-75.980114	-168.003238
13529		9.869857	-1.339131	-1.667283	-2.821412	-2.560654	-0.460158	-0.110780	0.049765	0.303243	-0.749023	0.607422	-0.374756	0.098715	-0.013251	-0.016690	0.529968	-0.319536	-0.651157	-0.439347	102.606488	-76.157808	-168.048702
13530		9.431798	-1.807309	-1.836404	-2.923599	-2.829756	-0.922099	-0.016627	-0.019830	0.284378	-0.737793	0.605469	-0.374756	0.094345	-0.017940	-0.018353	0.534432	-0.322149	-0.651039	-0.432148	104.202416	-76.982914	-169.138335
13531		9.467051	-1.235092	-1.588963	-2.509191	-2.353310	-0.766078	0.129416	-0.058041	0.254380	-0.738037	0.614258	-0.376953	0.094691	-0.012220	-0.015870	0.535007	-0.322768	-0.651061	-0.430939	104.578710	-77.117836	-169.447911
13532		9.916554	-0.208500	-1.228814	-1.724655	-1.535519	-0.088533	0.128420	-0.096599	0.251475	-0.738281	0.620850	-0.376953	0.099174	-0.001952	-0.012242	0.539095	-0.325133	-0.651416	-0.423464	106.637781	-77.881354	-170.961315
13533		9.650141	0.037688	-1.670449	-1.244911	-1.799543	-0.266545	0.076509	-0.093902	0.257818	-0.740479	0.620850	-0.376953	0.096509	0.000508	-0.016659	0.539467	-0.325977	-0.651409	-0.422352	107.129154	-78.009166	-171.418465
13534		9.460912	-0.805653	-1.821618	-1.764809	-2.215908	-0.568696	0.001209	-0.121121	0.237580	-0.742676	0.616455	-0.374756	0.094630	-0.007944	-0.018159	0.542802	-0.328941	-0.651395	-0.415750	109.414052	-78.716675	-173.308682
13535		9.430140	-0.982252	-1.027348	-2.245075	-1.557300	-0.675828	0.078130	-0.158254	0.224552	-0.736084	0.620850	-0.379150	0.094320	-0.009713	-0.010203	0.542889	-0.329802	-0.651614	-0.414610	110.114137	-78.809234	-173.976305
13536		9.734822	-1.314941	-1.601315	-2.201801	-2.182223	-0.354891	0.109620	-0.219004	0.237643	-0.736328	0.623047	-0.368164	0.097381	-0.013025	-0.015914	0.548617	-0.329091	-0.653098	-0.405192	112.505389	-79.511800	-175.357683
13537		9.516969	-2.184500	-1.645782	-2.890105	-2.582250	-0.700470	0.210964	-0.301442	0.271163	-0.745361	0.629639	-0.370361	0.095224	-0.021699	-0.016337	0.548536	-0.330022	-0.653902	-0.403246	113.827069	-79.588855	-176.578200
13538		9.093271	-1.403798	-1.859377	-1.942233	-2.312677	-0.924797	0.396362	-0.415887	0.248763	-0.740967	0.627441	-0.370361	0.090988	-0.013888	-0.018432	0.550408	-0.333483	-0.654939	-0.396099	117.891860	-80.114392	179.736088
13539		10.132179	-0.921977	-2.222964	-1.522837	-2.364405	0.214426	0.540409	-0.414032	0.230767	-0.734131	0.629883	-0.368164	0.101378	-0.009043	-0.022044	0.550415	-0.333584	-0.656757	-0.392984	119.770777	-80.117922	178.143728
13540		9.378250	-0.370461	-1.770790	-1.030816	-1.602178	-0.453480	0.531832	-0.437432	0.192455	-0.734131	0.627441	-0.363770	0.093824	-0.003568	-0.017512	0.552554	-0.335738	-0.658466	-0.385211	124.195709	-80.517154	174.271606
13541		9.768038	-1.139718	-1.972402	-1.662096	-2.093418	-0.145281	0.535595	-0.432562	0.188435	-0.738770	0.634277	-0.370361	0.097733	-0.011253	-0.019543	0.552396	-0.335724	-0.660368	-0.382180	126.096371	-80.464726	172.656206
13542		9.704741	-0.264946	-1.818057	-0.884003	-1.427200	-0.079294	0.540934	-0.432122	0.194479	-0.734375	0.632080	-0.365967	0.097089	-0.002506	-0.017978	0.554236	-0.337871	-0.662024	-0.374686	130.778561	-80.760694	168.492880
13543		9.937863	-0.949133	-2.202054	-1.319879	-2.039534	0.117519	0.475640	-0.435845	0.229103	-0.734619	0.638672	-0.361816	0.099437	-0.009325	-0.021826	0.554031	-0.338142	-0.663729	-0.371718	132.742645	-80.694062	166.779540
13544		9.971949	-1.130866	-2.107484	-1.442876	-1.933517	0.154233	0.473942	-0.418982	0.267152	-0.729980	0.636475	-0.361572	0.099778	-0.011126	-0.020892	0.555604	-0.340752	-0.665034	-0.364585	137.692658	-80.915663	162.265006
13545		9.855090	-0.148447	-1.739304	-0.750973	-1.076794	0.109325	0.432513	-0.396376	0.286165	-0.730469	0.647461	-0.357422	0.098587	-0.001306	-0.017201	0.555549	-0.341240	-0.666429	-0.361654	139.659929	-80.854893	160.524200
13546		10.101767	-0.393139	-2.118801	-0.728935	-1.398520	0.395257	0.370749	-0.366041	0.305140	-0.732666	0.645264	-0.359619	0.101062	-0.003738	-0.021010	0.556903	-0.344216	-0.667269	-0.355143	144.606861	-81.004208	155.915311
13547		10.002024	-0.716575	-2.389941	-0.839494	-1.752277	0.311063	0.339491	-0.341293	0.332449	-0.737305	0.651855	-0.355225	0.100073	-0.006959	-0.023741	0.556944	-0.345001	-0.668243	-0.352474	146.506432	-80.951897	154.189560
13548		9.743679	-1.307405	-2.550069	-1.142796	-2.103392	0.057518	0.338045	-0.317597	0.362633	-0.728516	0.654297	-0.353027	0.097501	-0.012854	-0.025368	0.558389	-0.347987	-0.668817	-0.346106	151.483731	-81.041769	149.532281
13549		9.868772	-2.161445	-2.795772	-1.736066	-2.698399	0.166555	0.363221	-0.301071	0.419316	-0.730957	0.660889	-0.353027	0.098775	-0.021357	-0.027848	0.558745	-0.348912	-0.669549	-0.343174	153.565259	-81.000440	147.636310
13550		9.842072	-1.714516	-2.480631	-1.420815	-2.093965	0.165077	0.431126	-0.290542	0.436624	-0.731201	0.667480	-0.355225	0.098494	-0.016877	-0.024700	0.560362	-0.351852	-0.670036	-0.336520	158.732434	-81.017626	142.816050
13551		9.909514	-1.477247	-2.341924	-1.265236	-1.796078	0.239093	0.445472	-0.301212	0.463651	-0.726807	0.669678	-0.350830	0.099164	-0.014491	-0.023302	0.560921	-0.352680	-0.670805	-0.333174	160.955695	-80.947608	140.824108
13552		9.997907	-0.851845	-2.089814	-0.786919	-1.134074	0.343367	0.494815	-0.279246	0.442196	-0.724854	0.676514	-0.348633	0.100027	-0.008246	-0.020779	0.562576	-0.355338	-0.671335	-0.326424	165.966049	-80.871658	136.190801
13553		10.110280	-1.094173	-2.449332	-0.781029	-1.502027	0.509511	0.536947	-0.266010	0.447110	-0.720459	0.678711	-0.350830	0.101159	-0.010650	-0.024388	0.563370	-0.355778	-0.672156	-0.322866	168.053778	-80.780750	134.388387
13554		10.478330	-1.527047	-2.645333	-0.986921	-1.743787	0.916238	0.607115	-0.262625	0.478009	-0.722900	0.683105	-0.340088	0.104854	-0.014940	-0.026361	0.565143	-0.358232	-0.672678	-0.315890	172.919157	-80.624997	129.935067
13555		10.600694	-0.933538	-2.290662	-0.643366	-1.055311	1.002360	0.724863	-0.253331	0.543243	-0.714355	0.692139	-0.351074	0.106061	-0.008965	-0.022805	0.566448	-0.358426	-0.673554	-0.311436	175.310079	-80.512088	127.933142
13556		10.773852	-0.300862	-2.026844	-0.169228	-0.340851	1.147651	0.772394	-0.263897	0.651627	-0.714600	0.701172	-0.351074	0.107774	-0.002580	-0.020137	0.568559	-0.361091	-0.673905	-0.303655	-179.548198	-80.266029	123.252606
13557		10.411105	0.676843	-2.142298	0.802022	0.131324	0.806978	0.743222	-0.252827	0.791429	-0.703613	0.708008	-0.346680	0.104110	0.007260	-0.021265	0.570248	-0.362042	-0.674307	-0.298415	-176.510079	-80.104673	120.602301
13558		10.160114	1.344054	-2.662551	1.782084	0.187779	0.623366	0.686152	-0.261252	0.986240	-0.695313	0.723633	-0.346680	0.101568	0.014032	-0.026445	0.572517	-0.366094	-0.673767	-0.290236	-170.931777	-79.734963	115.386499
13559		10.094409	0.907791	-2.789115	1.585787	-0.072024	0.578596	0.623598	-0.252824	1.197251	-0.686768	0.734863	-0.346680	0.100922	0.009769	-0.027734	0.574537	-0.368720	-0.673183	-0.284213	-167.037455	-79.460027	111.791192
13560		10.078171	0.699276	-2.626281	1.468381	0.099823	0.521122	0.647737	-0.266359	1.398848	-0.676025	0.746094	-0.344727	0.100764	0.007782	-0.026104	0.576952	-0.374431	-0.671636	-0.275376	-161.201422	-78.879322	106.213419
13561		11.173993	0.808282	-0.946126	0.666730	1.835655	1.259323	0.593328	-0.265619	1.620865	-0.665039	0.757568	-0.346924	0.111682	0.009016	-0.009287	0.579387	-0.378534	-0.670153	-0.268174	-156.799814	-78.401956	102.071510
13562		11.577611	0.147881	-0.821236	0.228786	1.835476	1.646458	0.441498	-0.259892	1.852761	-0.649902	0.770996	-0.349121	0.115766	0.002569	-0.008057	0.581830	-0.386245	-0.667261	-0.258942	-151.182370	-77.552951	96.547389
13563		13.833540	0.284434	-2.079097	1.197391	1.570704	4.038748	0.377212	-0.305518	2.053133	-0.625977	0.791504	-0.346924	0.138328	0.004303	-0.020572	0.584171	-0.392392	-0.664629	-0.251079	-146.916541	-76.794578	92.395036
13564		16.177936	2.084504	-2.093389	2.948470	3.404216	6.003729	0.348285	-0.323959	2.245177	-0.615234	0.800537	-0.346924	0.161565	0.022696	-0.020634	0.586514	-0.401550	-0.660796	-0.241055	-142.093218	-75.632335	87.578828
13565		16.842336	3.094842	-3.118603	4.668827	3.586126	6.566967	0.213202	-0.293997	2.562241	-0.597900	0.820801	-0.342529	0.168054	0.033136	-0.030904	0.589015	-0.409731	-0.656708	-0.232198	-138.134207	-74.557801	83.609477
13566		17.823952	3.200799	-4.328727	5.896630	3.313492	7.533863	0.158676	-0.400387	2.911365	-0.571533	0.834717	-0.342529	0.177834	0.034633	-0.042904	0.591225	-0.421373	-0.651253	-0.220833	-133.997456	-72.975580	79.330809
13567		21.285935	1.919627	-4.426273	5.554656	3.922855	10.925706	0.243105	-0.425253	3.323609	-0.552246	0.859375	-0.340576	0.212594	0.022784	-0.043784	0.593943	-0.431907	-0.645676	-0.209261	-130.430304	-71.397120	75.731613
13568		21.922183	1.260709	-3.633481	5.213779	4.947706	11.250373	0.452293	-0.502140	3.687594	-0.523682	0.875488	-0.338379	0.219029	0.016728	-0.035750	0.597466	-0.443429	-0.639499	-0.193512	-126.791982	-69.353671	72.302051
13569		21.934623	2.474578	-3.540327	6.714500	6.227168	10.579833	0.821773	-0.773728	3.885149	-0.495361	0.898193	-0.340576	0.218943	0.029145	-0.034442	0.600454	-0.454074	-0.633851	-0.177495	-123.983061	-67.277842	69.787307
13570		24.296640	3.112291	-4.450698	8.723273	7.423872	12.289837	1.053756	-0.870631	3.969950	-0.462402	0.918945	-0.344971	0.242472	0.036170	-0.043269	0.603765	-0.464573	-0.628145	-0.158346	-121.375501	-64.908425	67.728352
13571		22.303207	4.884988	-5.204931	10.830994	7.620780	9.498511	0.970702	-0.767276	3.953292	-0.431885	0.939453	-0.351563	0.222202	0.053497	-0.050944	0.606613	-0.474585	-0.621902	-0.141518	-119.262139	-62.726983	65.994442
13572		20.071582	3.482759	-4.994007	9.757354	6.712464	7.496789	0.965133	-0.657452	3.768585	-0.409912	0.955322	-0.362549	0.200171	0.038841	-0.049100	0.609563	-0.484045	-0.615420	-0.124065	-117.333005	-60.502780	64.531226
13573		19.854274	0.021542	-5.788506	8.130924	4.784204	8.589620	1.486691	-0.562563	3.579674	-0.385742	0.967041	-0.373535	0.198653	0.004198	-0.057305	0.613535	-0.490803	-0.609264	-0.107165	-115.421558	-58.517901	63.302808
13574		16.385495	-1.653347	-5.966154	6.727588	2.685734	6.134123	1.644523	-0.430470	3.516233	-0.359375	0.983154	-0.386719	0.164234	-0.013159	-0.059426	0.618078	-0.496824	-0.602650	-0.089214	-113.476851	-56.472012	62.188087
13575		14.345435	-5.859047	-5.482713	3.389934	0.369739	6.265800	1.768447	-0.509891	3.466055	-0.337402	0.997070	-0.408691	0.144575	-0.055606	-0.054960	0.622362	-0.501952	-0.596277	-0.071860	-111.743353	-54.522201	61.315358
13576		11.597418	-5.242481	-5.430358	3.476055	-0.323172	3.576215	1.834539	-0.566847	3.249123	-0.310791	1.010986	-0.419678	0.116954	-0.050031	-0.054439	0.626304	-0.506227	-0.590398	-0.053929	-110.181803	-52.573846	60.740202
13577		9.102227	-2.273320	-4.356621	4.294184	0.809189	-0.437553	1.874198	-0.756722	2.878152	-0.290771	1.018066	-0.437256	0.091497	-0.021011	-0.043423	0.629493	-0.508996	-0.585884	-0.037429	-108.924944	-50.870556	60.508247
13578		7.926014	-0.148563	-3.507037	4.888847	1.986509	-2.935916	1.979708	-0.835093	2.404039	-0.273193	1.029541	-0.452637	0.079413	-0.000187	-0.034745	0.632360	-0.510062	-0.582676	-0.021119	-107.811504	-49.329153	60.584171
13579		6.212046	2.251107	-1.693721	4.607251	3.525562	-6.225645	1.969651	-0.681350	1.819431	-0.270996	1.031982	-0.476807	0.061968	0.023239	-0.016499	0.635528	-0.509175	-0.580330	-0.007857	-106.753865	-48.213526	60.679586
13580		3.371507	0.008548	-1.425263	2.161335	1.062013	-7.056115	2.236371	-0.754419	1.378517	-0.260010	1.039063	-0.496338	0.033766	0.000477	-0.014121	0.638907	-0.506186	-0.579261	0.005569	-105.692740	-47.269123	61.011378
13581		3.842160	5.354831	-0.748479	4.878565	4.456701	-10.389052	2.199699	-0.550955	0.666396	-0.253418	1.041504	-0.509521	0.038262	0.053753	-0.006789	0.642813	-0.501055	-0.579220	0.015495	-104.651418	-46.813711	61.311802
13582		3.702352	8.223917	1.361825	4.717057	7.207711	-12.811163	1.738392	-0.482886	0.048148	-0.255615	1.043701	-0.531494	0.036970	0.082125	0.014422	0.645617	-0.495661	-0.580515	0.022377	-103.943751	-46.668660	61.730815
13583		3.711877	7.195548	2.539835	3.127267	7.479683	-12.318310	1.195360	-0.583113	-0.276635	-0.264160	1.034668	-0.540283	0.037143	0.071750	0.025936	0.646900	-0.490939	-0.582924	0.026431	-103.642580	-46.738630	62.259206
13584		3.157467	4.925239	2.834779	1.419114	6.180683	-11.243959	0.569510	-0.600757	-0.509919	-0.275635	1.036621	-0.544678	0.031614	0.049091	0.028583	0.646537	-0.487584	-0.586055	0.028130	-103.754090	-46.918348	62.867756
13585		2.755145	3.177205	2.022079	0.959642	4.547857	-10.225313	-0.010135	-0.647397	-0.852071	-0.291260	1.034180	-0.547119	0.027621	0.031655	0.020309	0.644723	-0.485038	-0.590206	0.026956	-104.273805	-47.297892	63.570358
13586		2.659088	3.062451	1.259117	1.453047	3.982633	-10.061411	-0.396323	-0.655222	-1.286473	-0.300049	1.029541	-0.542725	0.026746	0.030478	0.012618	0.641972	-0.482438	-0.595470	0.023274	-105.104090	-47.909976	64.388451
13587		2.898889	3.086954	1.046466	1.694172	4.019623	-9.810230	-0.679059	-0.593046	-1.726759	-0.322510	1.029053	-0.531738	0.029223	0.030653	0.010447	0.638735	-0.479401	-0.601578	0.017172	-106.159686	-48.766895	65.281712
13588		3.444879	2.322144	0.976303	1.462406	3.887647	-8.833012	-0.947006	-0.471741	-2.119311	-0.331299	1.024414	-0.522949	0.034670	0.022901	0.009736	0.635200	-0.475974	-0.608191	0.008605	-107.410167	-49.858402	66.209431
13589		3.717781	0.802500	0.820402	0.759795	3.102822	-7.591518	-1.213747	-0.338619	-2.458559	-0.355469	1.010742	-0.516357	0.037259	0.007617	0.008220	0.631324	-0.472310	-0.615100	-0.002057	-108.859979	-51.132421	67.188143
13590		3.874493	-0.445215	0.539047	0.227937	2.288688	-6.617449	-1.268984	-0.248272	-2.791068	-0.382324	1.003418	-0.500977	0.038671	-0.004958	0.005469	0.627498	-0.467658	-0.622363	-0.014363	-110.440607	-52.607774	68.261401
13591		4.168354	-1.015925	0.201383	0.125545	1.863479	-5.945113	-1.338304	-0.093448	-3.043994	-0.410889	0.987305	-0.487793	0.041522	-0.010778	0.002104	0.623771	-0.462345	-0.629581	-0.027825	-112.125948	-54.209251	69.406291
13592		4.410390	-1.456454	-0.320411	0.193862	1.336169	-5.357296	-1.500558	0.039099	-3.226367	-0.430664	0.977783	-0.474609	0.043860	-0.015297	-0.003100	0.619926	-0.456762	-0.636567	-0.042923	-113.989429	-55.940909	70.615707
13593		4.740944	-2.162519	-0.772774	0.013800	0.712713	-4.593587	-1.717061	0.103684	-3.390579	-0.454590	0.952881	-0.457031	0.047029	-0.022490	-0.007562	0.615495	-0.451208	-0.643495	-0.059094	-116.148492	-57.721606	72.020443
13594		5.080387	-2.963322	-1.210546	-0.297953	0.006050	-3.815717	-1.883873	0.171657	-3.540444	-0.483154	0.938965	-0.448242	0.050257	-0.030639	-0.011863	0.610675	-0.445444	-0.650214	-0.076669	-118.613408	-59.591878	73.626150
13595		5.641380	-3.780501	-1.808217	-0.539472	-0.748293	-2.846405	-1.889257	0.250377	-3.703399	-0.520996	0.925049	-0.439697	0.055676	-0.039010	-0.017787	0.605729	-0.439000	-0.656823	-0.094628	-121.351016	-61.497580	75.527518
13596		6.286048	-4.401696	-2.270002	-0.803800	-1.322360	-1.961704	-1.697872	0.360130	-3.882688	-0.540283	0.902344	-0.424072	0.061947	-0.045417	-0.022430	0.601251	-0.431100	-0.663244	-0.112948	-124.305909	-63.500259	77.746346
13597		6.975138	-4.901895	-2.656093	-1.082654	-1.819732	-1.138586	-1.341771	0.487064	-4.070163	-0.572754	0.872803	-0.424072	0.068668	-0.050601	-0.026393	0.597537	-0.421283	-0.669632	-0.130626	-127.465821	-65.549722	80.395302
13598		7.369164	-4.968235	-2.734509	-1.311262	-2.034629	-0.835347	-0.893761	0.625105	-4.228310	-0.596436	0.845703	-0.424072	0.072532	-0.051346	-0.027346	0.594875	-0.409278	-0.675871	-0.147693	-130.872474	-67.670316	83.536527
13599		7.450085	-4.594613	-2.210085	-1.636518	-1.713534	-1.102284	-0.535769	0.718053	-4.325749	-0.625000	0.829590	-0.424072	0.073403	-0.047601	-0.022240	0.592868	-0.395646	-0.682019	-0.163772	-134.722650	-69.765757	87.339069
13600		7.632175	-4.185033	-1.581965	-1.987205	-1.264479	-1.285880	-0.381343	0.704356	-4.369786	-0.659668	0.795654	-0.426025	0.075327	-0.043534	-0.016004	0.590824	-0.381206	-0.688041	-0.179468	-139.402776	-71.777715	92.056001
13601		7.868451	-4.126829	-1.219123	-2.419873	-1.206689	-1.262581	-0.386340	0.626503	-4.394193	-0.669922	0.768799	-0.423828	0.077714	-0.043007	-0.012354	0.588156	-0.366597	-0.694042	-0.194897	-145.310883	-73.598604	98.012204
13602		8.368395	-4.063854	-1.066771	-2.733872	-1.231157	-0.942598	-0.406783	0.543895	-4.425743	-0.699951	0.732910	-0.427979	0.082728	-0.042498	-0.010808	0.584891	-0.351833	-0.699920	-0.210306	-152.733970	-75.180954	105.472590
13603		8.875997	-3.987181	-0.964251	-3.033951	-1.305612	-0.610240	-0.438423	0.535121	-4.458754	-0.721191	0.705811	-0.432373	0.087815	-0.041858	-0.009788	0.581159	-0.336884	-0.705554	-0.225737	-161.836891	-76.451588	114.601746
13604		9.710557	-4.163238	-1.018837	-3.478947	-1.627059	0.081545	-0.539400	0.513472	-4.478263	-0.740234	0.674316	-0.423340	0.096114	-0.043820	-0.010320	0.576943	-0.322025	-0.710735	-0.241440	-172.572140	-77.318595	125.305495
13605		10.391470	-4.336097	-1.064821	-3.959577	-2.013884	0.587413	-0.736316	0.457448	-4.497510	-0.759033	0.638672	-0.427734	0.102880	-0.045722	-0.010719	0.571807	-0.307555	-0.715577	-0.257674	175.430344	-77.645407	137.161763
13606		10.940167	-4.410936	-1.095877	-4.399091	-2.372464	0.926934	-1.073525	0.423666	-4.489514	-0.782471	0.602539	-0.420898	0.108351	-0.046608	-0.010943	0.565866	-0.293996	-0.719599	-0.274844	163.230940	-77.421785	149.028627
13607		11.919545	-5.192363	-1.989536	-4.925765	-3.809399	1.771364	-1.375684	0.366034	-4.356356	-0.796875	0.571289	-0.418457	0.117989	-0.054639	-0.019742	0.559032	-0.281660	-0.722884	-0.292556	152.066136	-76.663911	159.675295
13608		12.505517	-6.523066	-2.444431	-6.129390	-5.320044	1.977501	-1.725781	0.398237	-4.125399	-0.811523	0.541992	-0.416260	0.123623	-0.068000	-0.024113	0.551412	-0.272302	-0.724430	-0.311444	142.666581	-75.588448	168.161592
13609		13.564283	-8.136245	-3.391472	-7.390113	-7.364062	2.548846	-2.123821	0.402104	-3.859837	-0.817139	0.510742	-0.405029	0.133967	-0.084315	-0.033300	0.543839	-0.263511	-0.725090	-0.330221	134.718617	-74.301325	175.131596
13610		15.056623	-10.456269	-4.726468	-9.157221	-10.102411	3.317927	-2.352648	0.422581	-3.473387	-0.824707	0.477539	-0.402588	0.148615	-0.107704	-0.046325	0.536186	-0.257641	-0.724149	-0.348904	128.402305	-73.007112	-179.801293
13611		14.867120	-13.350108	-5.297435	-11.379487	-12.562730	2.017697	-2.350653	0.509090	-2.977718	-0.832764	0.452881	-0.398193	0.146523	-0.136306	-0.051758	0.529717	-0.252253	-0.722385	-0.365962	123.174316	-71.795792	-175.729243
13612		13.870729	-15.021905	-5.354980	-12.696324	-13.678002	0.107471	-2.294288	0.490643	-2.424918	-0.843506	0.437012	-0.393799	0.136738	-0.152489	-0.052146	0.524273	-0.249258	-0.719707	-0.380829	119.187832	-70.820599	-172.913131
13613		13.135575	-16.248576	-6.835675	-12.910007	-15.569273	-1.199416	-2.011275	0.325695	-1.825853	-0.849365	0.416992	-0.384766	0.129751	-0.164353	-0.066922	0.519422	-0.247343	-0.717230	-0.393197	116.214421	-69.984268	-170.979410
13614		11.540059	-17.156561	-8.221344	-12.568470	-17.100019	-3.125477	-1.456912	0.280163	-1.309857	-0.849365	0.414795	-0.382568	0.114157	-0.172910	-0.081118	0.516531	-0.246325	-0.715218	-0.401228	114.327140	-69.476526	-169.790546
13615		9.976866	-16.503480	-8.041012	-11.812547	-16.457330	-4.696577	-0.887744	0.235134	-0.937261	-0.844482	0.408203	-0.389160	0.098899	-0.165855	-0.079792	0.514397	-0.244816	-0.713967	-0.407077	112.932145	-69.042022	-168.841952
13616		8.624767	-15.727556	-7.582113	-11.045531	-15.550590	-5.887743	-0.317086	0.076722	-0.550724	-0.846191	0.394775	-0.386963	0.085785	-0.157632	-0.075604	0.513898	-0.243918	-0.713912	-0.408341	112.598819	-68.900929	-168.556705
13617		8.276662	-15.206483	-7.033299	-10.838491	-14.783532	-6.182009	0.055860	-0.083684	-0.162998	-0.842041	0.399414	-0.391357	0.082672	-0.152113	-0.070341	0.513345	-0.243391	-0.714438	-0.408432	112.660164	-68.799864	-168.587313
13618		8.676623	-13.822638	-7.300459	-9.715201	-14.292425	-5.231546	0.366212	-0.223333	0.196692	-0.842041	0.401611	-0.391357	0.086984	-0.138007	-0.073160	0.514352	-0.243909	-0.715743	-0.404552	113.625277	-69.008817	-169.218403
13619		7.044908	-10.929244	-10.254424	-5.287256	-15.023775	-5.278226	0.681765	-0.566489	0.493907	-0.840088	0.408203	-0.384766	0.071009	-0.108768	-0.102715	0.514159	-0.245094	-0.717966	-0.400118	115.102723	-69.136259	-170.381101
13620		10.297851	-4.248965	-9.292782	-1.764078	-10.588826	-0.054744	0.544518	-0.868911	0.677701	-0.831299	0.412842	-0.384766	0.103524	-0.041887	-0.092593	0.514015	-0.248261	-0.720732	-0.393320	117.484891	-69.427072	-172.398170
13621		22.730669	17.521070	1.715427	4.450665	10.345350	16.640619	1.072985	0.195596	-0.031315	-0.831543	0.417236	-0.391357	0.227351	0.175081	0.017871	0.515992	-0.245031	-0.722366	-0.389743	117.821959	-69.466618	-172.100681
13622		34.200864	12.075064	3.378985	-4.344373	8.119655	25.430813	-0.006472	0.929545	0.912817	-0.825195	0.430664	-0.393555	0.341605	0.122311	0.032198	0.521986	-0.246939	-0.719083	-0.386615	117.632259	-70.329415	-171.720003
13623		38.462373	-7.589489	6.383581	-21.795714	-0.758032	23.383490	-0.135324	-0.064823	2.638833	-0.828125	0.446289	-0.393799	0.385559	-0.070769	0.064010	0.526651	-0.256912	-0.715668	-0.380071	119.766809	-71.641455	-174.058651
13624		10.512684	-6.218272	-0.688830	-7.526336	-4.429424	-1.246597	0.770305	0.359893	3.314064	-0.815430	0.470947	-0.402588	0.106125	-0.060402	-0.007314	0.536003	-0.266621	-0.711877	-0.367212	123.305200	-73.526266	-177.159766
13625		-2.365439	-2.914545	3.118760	-3.374891	0.832211	-13.238146	-0.621245	-0.583511	2.314725	-0.811523	0.484131	-0.385010	-0.023407	-0.029320	0.031210	0.537316	-0.277604	-0.709158	-0.362384	126.562457	-74.425646	179.082093
13626		6.781040	-2.728129	-2.950634	-2.264804	-3.865940	-3.327822	-0.795771	-1.116419	2.355476	-0.801270	0.504395	-0.378662	0.068289	-0.026595	-0.029019	0.537325	-0.290646	-0.707424	-0.355469	131.706160	-75.209186	173.428692
13627		7.313887	-6.629436	-1.443606	-6.280698	-4.729063	-3.671786	-0.285385	-0.345326	2.305139	-0.790527	0.522217	-0.383057	0.073921	-0.065466	-0.014215	0.539757	-0.300189	-0.704443	-0.349728	135.677555	-76.030578	169.161208
13628		6.720765	-2.333375	-3.355708	-1.552395	-3.734869	-3.066279	-0.050237	0.033638	1.487336	-0.786377	0.529053	-0.376465	0.067373	-0.022842	-0.033563	0.543285	-0.305912	-0.702099	-0.343970	138.967020	-76.737591	165.918925
13629		11.151902	1.869859	-2.047902	0.196076	0.066613	1.676926	-0.006216	-0.101496	1.014015	-0.775391	0.535889	-0.378662	0.111433	0.019263	-0.020423	0.544665	-0.309689	-0.700800	-0.341045	141.058075	-77.068519	163.769352
13630		10.450883	-0.879144	-1.901161	-1.838815	-1.333026	0.601190	-0.359170	-0.278849	1.168043	-0.771484	0.549316	-0.374512	0.104584	-0.008215	-0.018851	0.545980	-0.315582	-0.699236	-0.336723	144.497835	-77.439182	160.206695
13631		12.044088	-2.799279	-5.365845	-1.712842	-5.075016	2.556519	-0.061460	0.328715	1.063457	-0.776123	0.551514	-0.374512	0.120499	-0.027369	-0.053848	0.548823	-0.318938	-0.696542	-0.334516	146.293929	-77.941957	158.333309
13632		12.034035	-3.908391	-7.018277	-1.464448	-7.035672	2.745128	0.998563	1.218786	0.886470	-0.767578	0.567139	-0.394287	0.120080	-0.038198	-0.071107	0.556955	-0.317580	-0.693533	-0.328567	148.074623	-78.880071	157.273069
13633		7.395094	0.423613	0.703630	-1.330403	1.362948	-2.620067	1.229701	0.818935	0.944941	-0.767578	0.567139	-0.403076	0.073958	0.004543	0.006761	0.563286	-0.316104	-0.691741	-0.322925	149.976302	-79.562409	156.055502
13634		7.645036	1.434819	-1.312624	0.690967	0.386124	-1.964037	0.016504	0.356576	0.823335	-0.761230	0.573975	-0.403076	0.076367	0.014664	-0.013261	0.566640	-0.318717	-0.689538	-0.319180	152.862376	-80.029058	153.294028
13635		10.690858	0.735630	-2.714356	0.549273	-0.899868	1.191456	-0.144491	0.361044	0.783019	-0.761230	0.576172	-0.409668	0.106829	0.007755	-0.027342	0.568907	-0.321276	-0.687026	-0.317997	154.614053	-80.414079	151.433572
13636		10.644885	1.317518	-0.915543	0.098740	0.924731	0.912146	-0.335152	0.369116	0.791173	-0.759521	0.587402	-0.409668	0.106378	0.013581	-0.009374	0.571604	-0.324732	-0.684250	-0.315626	157.604986	-80.832966	148.361076
13637		9.625334	-0.117970	-2.341127	-0.015516	-1.134916	0.028713	-0.682791	0.236698	0.860256	-0.755127	0.591797	-0.403076	0.096230	-0.000846	-0.023522	0.572662	-0.329278	-0.681084	-0.315846	159.833456	-81.138802	145.709720
13638		9.312369	-2.107457	-3.085245	-1.077669	-2.873031	-0.259451	-0.634797	0.124622	0.868307	-0.757324	0.591797	-0.403076	0.093195	-0.020768	-0.030844	0.574077	-0.334207	-0.678376	-0.313922	163.645325	-81.382277	141.632647
13639		9.476272	-2.836466	-2.334527	-2.066899	-2.630498	-0.215643	-0.336589	0.076516	0.816555	-0.753174	0.598633	-0.405518	0.094869	-0.028017	-0.023334	0.575058	-0.337849	-0.676252	-0.312807	166.425853	-81.545390	138.627069
13640		10.111680	-1.947580	-1.763845	-1.651312	-1.530015	0.389373	-0.143036	0.051874	0.762634	-0.749023	0.607422	-0.401123	0.101186	-0.019103	-0.017651	0.576884	-0.340981	-0.674730	-0.309314	170.478798	-81.659450	134.611583
13641		10.059652	-0.955758	-1.773592	-0.768317	-0.929506	0.375588	-0.066567	0.036670	0.746957	-0.742432	0.609863	-0.401123	0.100628	-0.009188	-0.017751	0.578054	-0.343663	-0.673238	-0.307407	173.363504	-81.739652	131.658933
13642		9.643596	-1.286867	-2.067709	-0.749884	-1.342683	0.014056	-0.041103	0.034307	0.705943	-0.747070	0.616455	-0.403320	0.096477	-0.012532	-0.020691	0.579839	-0.346347	-0.671990	-0.303743	177.369084	-81.766637	127.744105
13643		10.030640	-1.234323	-1.980196	-0.734880	-1.160834	0.393709	0.028460	0.035186	0.639107	-0.747314	0.623047	-0.405518	0.100342	-0.012020	-0.019821	0.580982	-0.348386	-0.670816	-0.301815	179.954967	-81.793914	125.149023
13644		9.996369	-1.311372	-2.114040	-0.642295	-1.261334	0.390863	0.017878	0.019932	0.605074	-0.743164	0.632080	-0.405518	0.100001	-0.012809	-0.021152	0.582635	-0.350528	-0.669871	-0.298227	-176.438684	-81.751268	121.673468
13645		9.371086	-1.394540	-2.008908	-0.674475	-1.267745	-0.234830	-0.022739	0.034498	0.588276	-0.743408	0.636475	-0.403320	0.093748	-0.013672	-0.020104	0.583594	-0.352541	-0.668697	-0.296610	-174.087252	-81.741099	119.285458
13646		9.359588	-1.202484	-1.873345	-0.529694	-1.000618	-0.258879	-0.106057	0.039481	0.532683	-0.748047	0.638672	-0.401367	0.093624	-0.011785	-0.018746	0.584919	-0.354800	-0.667613	-0.293735	-170.930077	-81.663172	116.181707
13647		9.459688	-1.477769	-2.029945	-0.632764	-1.246819	-0.125836	-0.148384	0.048776	0.484294	-0.737061	0.647705	-0.401367	0.094627	-0.014564	-0.020312	0.585536	-0.356808	-0.666385	-0.292859	-169.083746	-81.639997	114.230901
13648		9.378340	-1.253881	-1.920872	-0.452113	-0.998768	-0.220338	-0.148358	0.043604	0.436085	-0.741455	0.647461	-0.396973	0.093806	-0.012349	-0.019220	0.586610	-0.358865	-0.665385	-0.290459	-166.442481	-81.538527	111.617134
13649		9.608639	-1.446315	-1.798778	-0.660826	-0.957782	0.000530	-0.160819	0.030406	0.395577	-0.732666	0.649902	-0.399170	0.096112	-0.014288	-0.017991	0.587004	-0.360638	-0.664346	-0.289847	-164.998491	-81.496539	110.065271
13650		9.462428	-1.638972	-1.321822	-1.036960	-0.663629	-0.197324	-0.169705	0.013116	0.365879	-0.737549	0.656494	-0.396973	0.094653	-0.016228	-0.013211	0.587800	-0.362560	-0.663526	-0.287706	-162.790606	-81.364114	107.872243
13651		9.352483	-2.470376	-1.376083	-1.655651	-1.174870	-0.255298	-0.128729	-0.008744	0.397443	-0.732910	0.656738	-0.396973	0.093574	-0.024527	-0.013741	0.588117	-0.364299	-0.662638	-0.286907	-161.421258	-81.286053	106.413730
13652		9.111930	-1.777811	-1.288852	-1.081283	-0.702994	-0.529071	-0.080772	-0.011228	0.408828	-0.732910	0.658936	-0.396973	0.091156	-0.017597	-0.012876	0.589031	-0.366124	-0.661931	-0.284329	-159.182246	-81.113097	104.236774
13653		9.217086	-1.467549	-1.300743	-0.796391	-0.495148	-0.436079	-0.094834	-0.029218	0.395915	-0.733154	0.663330	-0.394775	0.092202	-0.014499	-0.012987	0.589330	-0.367784	-0.661150	-0.283381	-157.902271	-81.010864	102.887386
13654		9.414880	-2.124107	-1.111151	-1.405782	-0.643725	-0.221247	-0.092760	-0.038557	0.382004	-0.731201	0.672119	-0.392578	0.094191	-0.021066	-0.011084	0.590076	-0.369562	-0.660554	-0.280897	-155.959715	-80.812607	101.001349
13655		8.932047	-1.716504	-1.219197	-0.970964	-0.549598	-0.703934	-0.070422	-0.046603	0.353489	-0.729248	0.674316	-0.383789	0.089353	-0.017011	-0.012165	0.590296	-0.371032	-0.659932	-0.279957	-154.907518	-80.700153	99.895787
13656		9.172424	-2.322591	-1.657900	-1.183827	-1.169942	-0.351920	-0.115992	-0.031631	0.350118	-0.725098	0.683350	-0.381592	0.091767	-0.023075	-0.016551	0.590913	-0.372835	-0.659300	-0.277738	-153.212282	-80.497953	98.230042
13657		9.251821	-2.215160	-2.047159	-0.851455	-1.387102	-0.218686	-0.067819	-0.010528	0.356776	-0.716064	0.681152	-0.379395	0.092559	-0.021993	-0.020459	0.591255	-0.374256	-0.658565	-0.276844	-152.161295	-80.394562	97.126257
13658		9.487087	-1.049857	-2.418095	0.355636	-0.945271	-0.018092	0.003056	-0.023275	0.367328	-0.718506	0.689941	-0.375244	0.094893	-0.010324	-0.024170	0.592086	-0.375816	-0.658010	-0.274262	-150.465234	-80.177474	95.514373
13659		9.957558	-0.729111	-2.439855	0.653328	-0.676090	0.422222	0.032136	-0.030467	0.399834	-0.720947	0.694336	-0.375244	0.099594	-0.007088	-0.024385	0.592601	-0.377108	-0.657385	-0.272871	-149.334906	-80.042978	94.387098
13660		9.738654	-0.706047	-1.295664	0.066784	0.267677	0.033244	0.064025	-0.044494	0.422834	-0.707764	0.701416	-0.373047	0.097404	-0.006850	-0.012937	0.593495	-0.378734	-0.656850	-0.269949	-147.636291	-79.785925	92.795419
13661		9.844328	-0.398172	-1.015446	0.188821	0.716501	0.064118	0.025692	-0.075549	0.436689	-0.708008	0.705811	-0.370850	0.098455	-0.003765	-0.010118	0.593892	-0.380224	-0.656273	-0.268380	-146.571823	-79.608918	91.729903
13662		9.907822	-1.428460	-1.149658	-0.530106	0.087682	0.249036	-0.005231	-0.095427	0.448798	-0.703857	0.714600	-0.370850	0.099115	-0.014063	-0.011449	0.594468	-0.382255	-0.655704	-0.265595	-145.089193	-79.308605	90.302055
13663		9.665757	-2.054168	-1.321235	-0.911901	-0.413227	0.106467	-0.006148	-0.127243	0.451179	-0.701660	0.717041	-0.366455	0.096712	-0.020324	-0.013150	0.594645	-0.383951	-0.655203	-0.263985	-144.187184	-79.094531	89.381648
13664		9.665323	-2.295152	-2.109579	-0.608149	-1.125652	0.262002	0.033758	-0.143342	0.469984	-0.695313	0.728027	-0.362061	0.096722	-0.022721	-0.021030	0.595131	-0.386026	-0.654751	-0.260968	-142.857412	-78.756111	88.121260
13665		9.640467	-2.945808	-2.092978	-1.116964	-1.444844	0.319516	0.128663	-0.162180	0.467789	-0.686523	0.730469	-0.359863	0.096490	-0.029219	-0.020870	0.595464	-0.387416	-0.654489	-0.258795	-141.989146	-78.513785	87.312281
13666		9.599342	-2.856435	-2.169260	-0.950288	-1.405619	0.293412	0.256883	-0.166891	0.445734	-0.689209	0.739258	-0.353516	0.096075	-0.028322	-0.021649	0.596210	-0.388855	-0.654396	-0.255131	-140.760419	-78.162241	86.269012
13667		9.610864	-2.124730	-1.689216	-0.600735	-0.567770	0.139860	0.362749	-0.176111	0.406393	-0.684814	0.741455	-0.349121	0.096166	-0.021021	-0.016846	0.596863	-0.389358	-0.654583	-0.252342	-139.991342	-77.930568	85.696791
13668		10.047664	-2.556414	-1.507887	-1.003365	-0.522391	0.602912	0.386062	-0.194222	0.392232	-0.678467	0.750488	-0.349121	0.100541	-0.025338	-0.015030	0.597618	-0.390349	-0.654792	-0.248452	-138.969645	-77.579767	84.921292
13669		9.746875	-2.252009	-1.592630	-0.681406	-0.442408	0.284310	0.427987	-0.204313	0.396924	-0.669678	0.757324	-0.349121	0.097529	-0.022293	-0.015875	0.598282	-0.390654	-0.655148	-0.245417	-138.288411	-77.335948	84.476061
13670		9.777828	-1.976887	-1.793660	-0.294183	-0.377845	0.311624	0.439078	-0.213101	0.422093	-0.656494	0.764160	-0.344727	0.097839	-0.019523	-0.017875	0.599052	-0.391678	-0.655351	-0.241330	-137.305678	-76.963341	83.752043
13671		9.804771	-1.321176	-2.582902	0.738561	-0.568359	0.369730	0.417758	-0.217648	0.473692	-0.658936	0.768799	-0.353516	0.098107	-0.012926	-0.025749	0.599732	-0.392273	-0.655568	-0.238066	-136.567802	-76.681057	83.241477
13672		9.928796	-1.075788	-3.035271	1.263702	-0.679454	0.526178	0.453367	-0.231101	0.556732	-0.648193	0.782227	-0.349121	0.099352	-0.010413	-0.030262	0.600565	-0.393773	-0.655516	-0.233586	-135.474391	-76.244771	82.394010
13673		10.395833	-0.646430	-3.269303	1.813151	-0.438670	0.943657	0.555713	-0.225965	0.651998	-0.641602	0.788818	-0.333740	0.104015	-0.006035	-0.032593	0.601680	-0.394536	-0.655545	-0.229311	-134.447592	-75.882878	81.665545
13674		10.429948	-0.849926	-3.121533	1.641880	-0.342173	0.977881	0.687936	-0.223968	0.787988	-0.628662	0.798096	-0.342529	0.104366	-0.007981	-0.031127	0.603432	-0.395561	-0.655461	-0.223096	-132.958288	-75.363664	80.616579
13675		10.265803	-0.760742	-2.617152	1.472148	0.142012	0.705218	0.819915	-0.264670	0.938509	-0.617920	0.811523	-0.344727	0.102726	-0.007018	-0.026065	0.605226	-0.396484	-0.655296	-0.217000	-131.538955	-74.857371	79.635486
13676		10.619328	-0.525876	-1.934090	1.348501	1.006118	0.862285	0.914894	-0.223076	1.129362	-0.606689	0.816162	-0.351318	0.106242	-0.004571	-0.019244	0.607728	-0.397894	-0.654717	-0.209031	-129.647515	-74.179990	78.295358
13677		11.763054	0.675418	-2.424110	2.758957	1.771189	1.761001	0.910539	-0.210223	1.329056	-0.589600	0.834473	-0.355957	0.117607	0.007646	-0.024084	0.610224	-0.399718	-0.653632	-0.201536	-127.796221	-73.503986	76.912588
13678		12.099924	-0.503267	-3.000765	2.387915	0.883595	2.401215	0.751882	-0.219237	1.550491	-0.569580	0.843506	-0.349365	0.121066	-0.003982	-0.029891	0.612733	-0.402928	-0.651932	-0.192854	-125.794693	-72.617670	75.344549
13679		13.596220	-0.027887	-3.055657	3.056610	1.727495	3.672951	0.699086	-0.287117	1.701916	-0.552246	0.861816	-0.355957	0.136001	0.000985	-0.030359	0.614823	-0.406627	-0.650019	-0.184723	-124.069942	-71.717262	73.955073
13680		15.566192	0.158559	-1.478459	2.545253	3.818325	5.135612	0.712700	-0.185552	1.880355	-0.532471	0.873291	-0.364746	0.155651	0.003101	-0.014631	0.617525	-0.410912	-0.647381	-0.175249	-122.083449	-70.660292	72.357110
13681		14.922032	0.222714	-3.261344	3.914460	2.559775	4.729266	0.642962	-0.217293	2.070552	-0.514893	0.880127	-0.362549	0.149221	0.003876	-0.032441	0.619923	-0.415828	-0.644312	-0.166266	-120.304670	-69.574015	70.858944
13682		15.788701	0.570888	-3.000791	4.347322	3.512423	5.265939	0.718710	-0.310668	2.286832	-0.502197	0.898193	-0.369141	0.157853	0.007621	-0.029738	0.622392	-0.421390	-0.641047	-0.155296	-118.544213	-68.255649	69.476337
13683		17.605796	0.385583	-2.721382	4.528142	4.535756	6.813289	0.804116	-0.427859	2.508046	-0.466553	0.910156	-0.371338	0.176048	0.006172	-0.026815	0.624608	-0.427254	-0.637651	-0.143946	-116.983561	-66.862786	68.287993
13684		20.029173	0.752035	-2.733639	5.485363	6.023361	8.702373	0.969613	-0.420675	2.754825	-0.451416	0.926025	-0.380127	0.200218	0.010410	-0.026869	0.627340	-0.433436	-0.633673	-0.130524	-115.293213	-65.258386	67.102195
13685		21.092631	2.011073	-3.093590	7.173000	7.352108	8.974807	1.060641	-0.430200	3.013444	-0.429443	0.935303	-0.382324	0.210655	0.023448	-0.030364	0.630161	-0.439912	-0.629090	-0.116708	-113.656766	-63.577631	65.963454
13686		21.612746	2.472511	-3.037872	7.956772	8.372516	8.868752	1.076734	-0.515855	3.263899	-0.394043	0.951416	-0.391113	0.215761	0.028409	-0.029676	0.632772	-0.447161	-0.624022	-0.101208	-112.124079	-61.671271	64.978529
13687		21.389477	3.339110	-2.769323	8.713532	9.475502	7.810164	1.139115	-0.616477	3.461220	-0.374268	0.965088	-0.395508	0.213356	0.037241	-0.026830	0.635037	-0.454622	-0.618691	-0.085253	-110.763603	-59.689042	64.168630
13688		20.964538	3.366569	-3.632563	9.632614	9.254942	7.085324	1.177181	-0.732277	3.610521	-0.352051	0.969971	-0.399658	0.209120	0.037654	-0.035345	0.636898	-0.462386	-0.613142	-0.067956	-109.542877	-57.550103	63.563754
13689		20.558442	2.128646	-3.847326	9.247992	8.766772	6.906896	1.358060	-0.803516	3.629919	-0.330078	0.986084	-0.419434	0.205302	0.025271	-0.037485	0.638680	-0.469400	-0.607635	-0.050308	-108.399491	-55.426367	63.127628
13690		19.415064	0.431585	-4.180263	8.486145	7.580308	6.468578	1.678150	-0.788478	3.550312	-0.301025	0.991211	-0.428223	0.194192	0.008109	-0.040980	0.640997	-0.475004	-0.602072	-0.031668	-107.157910	-53.315528	62.806543
13691		18.524658	0.480499	-4.187132	8.619155	7.638409	5.295184	1.801125	-0.727372	3.393844	-0.285645	1.002686	-0.443604	0.185276	0.008322	-0.041133	0.643495	-0.479500	-0.596497	-0.013580	-105.925096	-51.325577	62.554833
13692		17.554575	-0.794244	-3.239594	7.183564	7.470884	4.741965	1.506740	-0.647317	3.266813	-0.265869	1.011963	-0.463379	0.175745	-0.004831	-0.031872	0.645289	-0.484407	-0.590713	0.003182	-104.886420	-49.400579	62.340530
13693		15.854488	-2.285161	-2.777894	5.755880	6.386560	3.984426	1.264450	-0.596757	3.148192	-0.245850	1.016846	-0.465576	0.158959	-0.020177	-0.027438	0.646436	-0.489571	-0.584889	0.018575	-104.026308	-47.561298	62.161487
13694		13.818577	-1.867615	-3.235270	5.937526	5.457491	2.013240	0.763927	-0.658149	2.999870	-0.239502	1.028076	-0.478760	0.138550	-0.016477	-0.031963	0.646022	-0.495781	-0.579500	0.032201	-103.539221	-45.791716	62.098889
13695		10.903096	-1.604131	-2.830679	4.980467	4.320658	-0.540093	0.773750	-0.753608	2.741539	-0.217285	1.035156	-0.480957	0.109342	-0.014435	-0.027953	0.645237	-0.501075	-0.574933	0.045220	-103.152518	-44.156430	62.181162
13696		8.506448	-0.859563	-2.469112	4.387452	3.592593	-2.954577	1.072103	-0.854656	2.388678	-0.206299	1.042236	-0.491943	0.085263	-0.007447	-0.024369	0.644865	-0.504259	-0.571394	0.058149	-102.699660	-42.710852	62.414727
13697		7.990372	1.897322	-1.223300	4.642280	5.467634	-5.630159	1.403375	-0.832371	1.836943	-0.201660	1.042480	-0.511719	0.079774	0.019790	-0.011764	0.645434	-0.504727	-0.568976	0.070232	-102.111647	-41.573245	62.739000
13698		6.543745	-1.582442	0.036201	1.469736	3.646130	-4.347271	1.257515	-0.512306	1.514626	-0.192871	1.047119	-0.524902	0.065554	-0.015331	0.000432	0.646590	-0.504780	-0.566332	0.079920	-101.488479	-40.668749	62.880069
13699		5.671340	-3.752489	-3.130696	2.801337	0.329799	-2.878122	1.685403	-0.776902	1.449331	-0.183838	1.045166	-0.540039	0.057104	-0.036848	-0.031398	0.648009	-0.503113	-0.564455	0.091390	-100.755946	-39.760869	63.243487
13700		5.484690	0.762359	-1.596879	3.556165	3.283128	-6.684259	1.755211	-0.565603	1.001273	-0.186523	1.056152	-0.553467	0.054852	0.008037	-0.015744	0.650342	-0.499971	-0.562940	0.100911	-99.930521	-39.146203	63.517465
13701		4.197122	6.002205	0.379179	3.689784	6.013220	-11.815714	1.149250	-0.355161	0.357252	-0.190674	1.049561	-0.568604	0.041857	0.060073	0.004211	0.652011	-0.497074	-0.562592	0.106250	-99.406184	-38.903072	63.732869
13702		4.195479	7.062239	1.442537	3.189051	7.113700	-12.776342	0.410951	-0.295237	-0.152439	-0.202148	1.056152	-0.568848	0.041987	0.070560	0.014632	0.652297	-0.495144	-0.563727	0.107485	-99.320859	-38.975951	63.957153
13703		3.816437	6.193619	1.977818	2.233954	6.719984	-12.399008	-0.318770	-0.181537	-0.478539	-0.212891	1.044678	-0.566650	0.038295	0.061876	0.019714	0.651239	-0.494758	-0.565655	0.105531	-99.622976	-39.222126	64.148960
13704		2.743587	4.403445	1.668964	1.406905	4.938455	-11.638903	-1.003559	-0.060333	-0.808686	-0.226807	1.053223	-0.553467	0.027609	0.044006	0.016477	0.649040	-0.495679	-0.568380	0.099968	-100.294493	-39.694811	64.281948
13705		2.132944	2.433634	0.880658	1.047183	3.131997	-10.396980	-1.427184	0.006463	-1.210901	-0.242432	1.050537	-0.540283	0.021477	0.024269	0.008633	0.646087	-0.496875	-0.572031	0.092019	-101.217265	-40.369949	64.447564
13706		1.942404	1.176073	-0.345979	1.458000	1.715988	-9.359664	-1.617945	0.067037	-1.600341	-0.255859	1.050293	-0.529541	0.019516	0.011576	-0.003560	0.643007	-0.497499	-0.576499	0.081769	-102.274645	-41.301786	64.626111
13707		1.584502	0.508674	-1.352099	1.853589	0.574624	-8.900919	-1.661695	0.127814	-2.001885	-0.278076	1.041016	-0.511963	0.015885	0.004815	-0.013572	0.639996	-0.497106	-0.581681	0.070274	-103.390219	-42.429230	64.873240
13708		1.959306	0.289601	-1.848644	2.245308	0.405789	-8.351988	-1.630786	0.170033	-2.451564	-0.302734	1.035889	-0.503174	0.019610	0.002505	-0.018525	0.637273	-0.495177	-0.587740	0.056965	-104.556869	-43.843096	65.190545
13709		2.810738	0.299230	-2.050376	2.630438	0.802816	-7.661174	-1.625008	0.246369	-2.877972	-0.329346	1.026367	-0.485596	0.028120	0.002421	-0.020560	0.634698	-0.491926	-0.594445	0.042457	-105.778591	-45.464383	65.606066
13710		3.851411	-0.725653	-2.233849	2.460778	0.753263	-6.107961	-1.546945	0.255552	-3.237082	-0.358154	1.014893	-0.476807	0.038360	-0.008051	-0.022327	0.632262	-0.487167	-0.601833	0.026651	-107.074390	-47.312751	66.147215
13711		4.751225	-1.861753	-2.246339	1.972252	0.588444	-4.631318	-1.336244	0.275909	-3.513965	-0.386719	0.998535	-0.465820	0.047143	-0.019598	-0.022400	0.630187	-0.480795	-0.609575	0.010900	-108.357227	-49.271615	66.841787
13712		5.013360	-2.917884	-2.103787	1.169395	0.103236	-3.755398	-1.118726	0.264873	-3.745502	-0.422119	0.984619	-0.466064	0.049546	-0.030228	-0.020937	0.628394	-0.472805	-0.617696	-0.005258	-109.678630	-51.378462	67.699947
13713		5.780499	-4.021156	-2.069480	0.489746	-0.236292	-2.493967	-0.835461	0.197705	-3.944547	-0.450684	0.970703	-0.461670	0.056976	-0.041427	-0.020580	0.626793	-0.463175	-0.626237	-0.020644	-111.040564	-53.529727	68.815492
13714		6.583933	-5.347455	-2.090775	-0.344713	-0.807209	-1.121677	-0.572133	0.160921	-4.085507	-0.494629	0.945557	-0.455078	0.064711	-0.054864	-0.020804	0.625405	-0.452041	-0.635011	-0.035908	-112.485546	-55.765485	70.159375
13715		7.084717	-6.286647	-1.967090	-1.162473	-1.311237	-0.299525	-0.246340	0.092350	-4.219109	-0.525391	0.929443	-0.455078	0.069491	-0.064366	-0.019625	0.624240	-0.439329	-0.644058	-0.050030	-114.012844	-58.000611	71.815728
13716		7.449867	-6.471811	-1.962110	-1.467785	-1.569086	0.015995	0.030089	0.084802	-4.337866	-0.549072	0.902344	-0.461426	0.073064	-0.066310	-0.019662	0.623321	-0.425125	-0.653187	-0.063924	-115.689285	-60.301217	73.764177
13717		7.836288	-6.205161	-1.499929	-1.835478	-1.283068	0.042759	0.243766	0.033679	-4.423932	-0.586182	0.872803	-0.463623	0.076963	-0.063746	-0.015089	0.622380	-0.409835	-0.662391	-0.076918	-117.603059	-62.568864	76.103349
13718		8.328664	-5.549802	-0.960972	-2.016822	-0.668905	0.013755	0.376783	-0.001406	-4.463191	-0.614502	0.847900	-0.468018	0.082021	-0.057320	-0.009716	0.621240	-0.393767	-0.671527	-0.089782	-119.901119	-64.831958	78.885313
13719		8.591814	-4.936058	-0.199364	-2.429676	-0.039854	-0.205259	0.294546	-0.027077	-4.437659	-0.645020	0.825195	-0.472412	0.084795	-0.051247	-0.002057	0.619581	-0.377901	-0.680304	-0.102449	-122.712918	-66.990271	82.151077
13720		8.816868	-4.930811	0.046766	-2.861894	-0.151199	-0.126475	0.006982	-0.138604	-4.367983	-0.668457	0.791504	-0.469971	0.087064	-0.051218	0.000526	0.616702	-0.362995	-0.688827	-0.115895	-126.415658	-69.025413	86.127852
13721		8.968190	-4.732421	0.125612	-3.060929	-0.242673	-0.148537	-0.268802	-0.222496	-4.316332	-0.698730	0.764160	-0.463379	0.088631	-0.049243	0.001420	0.612801	-0.349038	-0.697022	-0.129647	-131.076303	-70.869458	90.925859
13722		9.097946	-5.003714	-0.034431	-3.398053	-0.817518	-0.036220	-0.576413	-0.267014	-4.262401	-0.717773	0.734863	-0.458740	0.089886	-0.051961	-0.000076	0.607929	-0.336039	-0.704728	-0.144424	-136.905492	-72.537483	96.697884
13723		9.500979	-5.442471	-0.422104	-3.697237	-1.572033	0.380853	-0.776391	-0.288163	-4.193815	-0.737061	0.705566	-0.449951	0.093846	-0.056416	-0.003869	0.602442	-0.323790	-0.711923	-0.159339	-143.835276	-73.939415	103.470834
13724		10.001088	-6.409047	-1.012363	-4.226281	-2.845321	0.964314	-0.794229	-0.251621	-4.180491	-0.755859	0.669922	-0.449707	0.098654	-0.066201	-0.009739	0.596773	-0.311435	-0.718627	-0.174488	-151.937160	-75.104706	111.387555
13725		10.481841	-6.992860	-1.398675	-4.678124	-3.748184	1.357279	-0.724622	-0.191180	-4.121837	-0.781738	0.642578	-0.443115	0.103360	-0.072119	-0.013629	0.591232	-0.298924	-0.724822	-0.189005	-160.894422	-75.947022	120.209725
13726		10.592295	-6.844672	-1.222979	-5.026968	-3.853498	1.159989	-0.647012	-0.097156	-4.044985	-0.791748	0.615723	-0.442871	0.104515	-0.070609	-0.011953	0.585960	-0.286225	-0.730355	-0.203243	-170.512086	-76.473979	129.717081
13727		10.520181	-6.145858	-0.828237	-5.123145	-3.429226	0.728002	-0.654913	0.064259	-3.910345	-0.806396	0.584473	-0.438477	0.103971	-0.063526	-0.008110	0.581171	-0.273782	-0.734952	-0.217094	179.781226	-76.689774	139.310588
13728		10.827492	-6.022586	-0.738399	-5.414598	-3.558797	0.772698	-0.814663	0.178161	-3.700617	-0.820801	0.551025	-0.438232	0.107129	-0.062245	-0.007229	0.576603	-0.262340	-0.738440	-0.231111	170.353982	-76.614238	148.510254
13729		11.102222	-6.153239	-0.853122	-5.717170	-4.005002	0.822439	-1.089060	0.212307	-3.524974	-0.831055	0.524170	-0.433838	0.109905	-0.063522	-0.008306	0.571790	-0.252215	-0.741067	-0.245486	161.514872	-76.239917	156.961901
13730		11.038502	-5.971862	-1.386627	-5.446865	-4.505878	0.648991	-1.374268	0.215796	-3.360013	-0.836670	0.495117	-0.429199	0.109345	-0.061655	-0.013565	0.566680	-0.243435	-0.742827	-0.260426	153.444888	-75.623146	164.464501
13731		11.256487	-6.114425	-2.185320	-5.275979	-5.386211	0.770638	-1.674407	0.262952	-3.132748	-0.842529	0.470459	-0.420166	0.111558	-0.063078	-0.021478	0.561454	-0.236204	-0.743597	-0.275753	146.329664	-74.853254	170.831290
13732		11.630158	-7.483820	-2.998896	-5.980737	-7.145976	0.836726	-1.860321	0.269662	-2.829198	-0.864014	0.450195	-0.417969	0.115185	-0.076748	-0.029437	0.556037	-0.231304	-0.743310	-0.291223	140.350486	-74.015953	175.834859
13733		11.759805	-9.540979	-3.710219	-7.174339	-9.306778	0.433457	-1.955749	0.274633	-2.494921	-0.854248	0.428223	-0.415527	0.116342	-0.097224	-0.036318	0.551099	-0.227083	-0.742491	-0.305663	135.294712	-73.175134	179.938128
13734		11.767312	-11.478585	-4.131594	-8.482068	-11.094862	-0.208593	-1.827300	0.275413	-2.181423	-0.864746	0.410156	-0.417725	0.116353	-0.116432	-0.040418	0.546505	-0.224235	-0.741191	-0.318884	131.203974	-72.390133	-176.941589
13735		11.300541	-12.929461	-4.147406	-9.563447	-12.190073	-1.327245	-1.581924	0.297937	-1.854508	-0.868652	0.394531	-0.413330	0.111737	-0.130658	-0.040611	0.542845	-0.221236	-0.739880	-0.330079	127.825454	-71.682675	-174.341565
13736		11.012624	-13.684640	-3.784873	-10.433498	-12.468070	-2.160745	-1.353756	0.356005	-1.499656	-0.865967	0.383545	-0.415283	0.109028	-0.137920	-0.037112	0.540148	-0.219242	-0.738208	-0.339443	125.139785	-71.142222	-172.353651
13737		11.003790	-13.892209	-3.363878	-11.002882	-12.313486	-2.553089	-1.213215	0.396749	-1.046636	-0.870117	0.376709	-0.413086	0.109242	-0.139697	-0.033010	0.538497	-0.218019	-0.736201	-0.347127	122.943522	-70.776941	-170.764373
13738		10.152789	-14.092394	-2.896382	-11.293400	-12.022873	-3.650657	-1.203570	0.339617	-0.520144	-0.863281	0.372559	-0.410889	0.101112	-0.141359	-0.028286	0.537613	-0.219154	-0.733693	-0.353042	121.441934	-70.669821	-169.905523
13739		9.347150	-14.468422	-3.059693	-11.313822	-12.272542	-4.573790	-1.248863	0.222413	-0.016505	-0.861084	0.370361	-0.406494	0.093426	-0.144880	-0.029797	0.537030	-0.222098	-0.730895	-0.357860	120.416942	-70.731966	-169.576395
13740		8.554969	-14.695538	-3.478489	-11.077065	-12.579441	-5.307141	-1.215521	0.152294	0.424808	-0.863525	0.376953	-0.413086	0.085836	-0.146981	-0.033957	0.537169	-0.227003	-0.727795	-0.360879	119.993350	-71.038792	-169.845936
13741		8.019272	-14.157549	-3.411120	-10.674654	-12.032520	-5.611734	-1.080517	0.129008	0.838802	-0.856934	0.381348	-0.404297	0.080764	-0.141419	-0.033399	0.537923	-0.232765	-0.724530	-0.362652	119.909997	-71.497018	-170.410393
13742		7.535158	-12.650975	-2.433550	-10.098827	-10.181089	-5.676980	-0.972910	0.170110	1.145095	-0.852783	0.388184	-0.406494	0.076054	-0.126192	-0.023786	0.539753	-0.239501	-0.720962	-0.362657	120.267839	-72.174923	-171.329141
13743		7.027320	-10.321433	-1.479285	-8.855099	-7.845690	-5.554390	-1.017021	0.218283	1.357673	-0.839600	0.399414	-0.402344	0.070956	-0.102808	-0.014347	0.541774	-0.246780	-0.716876	-0.362862	120.614183	-72.913886	-172.301787
13744		-0.607749	12.166103	-21.818807	22.197621	-9.885350	-3.984741	-1.906203	-1.569680	0.870136	-0.842041	0.399414	-0.380371	-0.004882	0.119551	-0.219376	0.535690	-0.258108	-0.716574	-0.364606	123.072138	-72.928458	-175.951729
13745		20.742025	66.630580	-20.370160	56.152606	22.592994	30.447055	-1.992136	-0.881101	-2.233615	-0.843506	0.379395	-0.386719	0.215743	0.661861	-0.209371	0.525837	-0.257062	-0.718097	-0.376499	121.159657	-71.580943	-175.140979
13746		36.476853	7.051546	11.876338	-12.346703	12.613150	24.968304	-2.994299	1.655461	0.527212	-0.839600	0.392578	-0.373779	0.365538	0.073216	0.114657	0.529109	-0.263602	-0.707525	-0.387255	117.517093	-72.340773	-173.033996
13747		46.939689	-40.776558	-5.429971	-43.230318	-27.709841	25.654255	-2.449741	-2.499888	4.153092	-0.822754	0.419434	-0.349609	0.478325	-0.398470	-0.043439	0.524896	-0.289560	-0.703658	-0.381451	124.152583	-73.658159	178.562435
13748		23.621987	-22.429225	-2.766507	-22.993470	-14.257061	8.535681	1.513301	0.087244	3.013823	-0.823730	0.446289	-0.371826	0.239549	-0.220481	-0.029447	0.533467	-0.295918	-0.702013	-0.367454	128.769199	-75.122021	174.764975
13749		0.497306	6.872233	5.342011	2.581017	8.272512	-8.855969	0.473964	1.795420	2.528548	-0.815430	0.464111	-0.385010	0.004585	0.068655	0.053541	0.545062	-0.300239	-0.694264	-0.361610	129.537119	-76.899109	174.254881
13750		1.089288	2.559971	-8.463281	6.444847	-5.506276	-7.072097	0.949189	-1.015467	2.932773	-0.805176	0.488770	-0.380859	0.010941	0.026161	-0.084454	0.548672	-0.309462	-0.694421	-0.347810	137.391933	-77.764997	166.873757
13751		6.990996	-12.567183	-0.001061	-11.513629	-6.851680	-4.589698	2.432544	0.080506	2.556972	-0.803711	0.510986	-0.391846	0.071508	-0.124752	-0.001560	0.557087	-0.311522	-0.694361	-0.332371	144.137411	-78.731199	161.409307
13752		5.316397	-5.058529	2.313800	-6.313860	-0.799634	-5.488285	1.607716	0.710214	1.237783	-0.803955	0.517822	-0.398438	0.053557	-0.050437	0.022542	0.564505	-0.310055	-0.693230	-0.323468	147.317031	-79.498421	159.214024
13753		6.695495	5.691718	4.325902	0.893036	7.300582	-3.344115	0.567950	0.732849	1.088568	-0.795166	0.522461	-0.405029	0.066803	0.057158	0.043176	0.569682	-0.311075	-0.690371	-0.319504	149.419961	-80.184945	157.409720
13754		10.170544	8.081237	0.599776	4.538841	5.998891	0.794668	-1.683576	-0.074395	0.763701	-0.793457	0.535645	-0.398682	0.101394	0.081247	0.005353	0.568376	-0.318632	-0.686767	-0.322138	151.258686	-80.391528	154.651229
13755		16.560816	-4.115920	-8.544674	-0.827724	-8.089481	7.452491	-0.787896	0.377341	1.231990	-0.789063	0.538086	-0.396484	0.165697	-0.040476	-0.085599	0.570395	-0.324528	-0.682438	-0.321883	154.060373	-80.909263	151.355895
13756		8.312205	-7.395153	-1.312619	-6.317894	-4.742582	-1.869522	0.971458	0.262260	1.148011	-0.782715	0.549316	-0.405273	0.083527	-0.073408	-0.013593	0.575064	-0.325219	-0.681480	-0.314831	158.582558	-81.328021	147.431309
13757		7.727655	-0.298015	-0.682176	-0.804517	-0.070237	-2.091402	0.710956	-0.226896	0.811182	-0.785400	0.560303	-0.403076	0.077295	-0.002643	-0.006744	0.576726	-0.326333	-0.681917	-0.309649	162.205417	-81.361781	144.180369
13758		8.490007	2.046639	-2.044326	1.827656	0.372595	-1.039510	0.038380	-0.336930	0.747742	-0.780762	0.560303	-0.398682	0.084857	0.020788	-0.020296	0.577144	-0.329301	-0.681816	-0.305930	165.812781	-81.301420	140.639124
13759		9.666397	-0.127248	-2.777798	0.408521	-1.329999	0.149007	-0.264422	-0.360949	0.729346	-0.781006	0.566895	-0.398682	0.096718	-0.000956	-0.027602	0.576599	-0.333142	-0.681240	-0.304075	168.657137	-81.191351	137.609620
13760		10.015569	-0.670152	-2.902219	0.044064	-1.639539	0.506865	-0.156882	-0.327928	0.639154	-0.769775	0.567139	-0.392090	0.100224	-0.006404	-0.028853	0.576520	-0.336274	-0.680976	-0.301356	171.595863	-81.066631	134.628348
13761		9.792312	-0.223101	-2.129836	0.007540	-0.719074	0.185204	-0.070836	-0.317920	0.632812	-0.777100	0.575928	-0.383301	0.097963	-0.001929	-0.021142	0.576279	-0.339152	-0.680712	-0.299182	174.020450	-80.929845	132.134146
13762		9.751145	-0.536311	-2.342132	-0.078168	-1.004477	0.179436	-0.074632	-0.358200	0.651216	-0.772949	0.586914	-0.387939	0.097570	-0.005054	-0.023245	0.576216	-0.342131	-0.680622	-0.296100	176.870246	-80.744282	129.286195
13763		9.854671	-1.683640	-2.773209	-0.735448	-1.945637	0.351615	0.072701	-0.363461	0.597017	-0.770996	0.591553	-0.381348	0.098647	-0.016532	-0.027559	0.575994	-0.344532	-0.680746	-0.293453	179.079658	-80.546089	127.090986
13764		9.640122	-2.260803	-2.061142	-1.557257	-1.675330	0.039182	0.224196	-0.375903	0.544726	-0.761963	0.591553	-0.376953	0.096501	-0.022322	-0.020455	0.576189	-0.346319	-0.681310	-0.289630	-178.490322	-80.311068	124.836560
13765		9.374327	-2.841583	-2.319706	-1.825123	-2.198360	-0.160258	0.210783	-0.439740	0.505296	-0.764160	0.593750	-0.376953	0.093865	-0.028154	-0.023021	0.575794	-0.348110	-0.681997	-0.286637	-176.714693	-80.044470	123.158900
13766		9.616038	-2.896197	-2.867500	-1.541037	-2.556556	0.195685	0.389391	-0.520149	0.435112	-0.760010	0.598389	-0.372559	0.096297	-0.028697	-0.028481	0.575599	-0.349256	-0.683380	-0.282309	-174.794282	-79.705241	121.513155
13767		9.520707	-2.174533	-2.306218	-1.269855	-1.631179	0.006551	0.574100	-0.592030	0.349399	-0.762451	0.602539	-0.365967	0.095313	-0.021513	-0.022842	0.575076	-0.349672	-0.685270	-0.278248	-173.533195	-79.344228	120.567072
13768		9.969305	-1.017235	-2.382326	-0.329003	-0.845301	0.447629	0.556863	-0.621284	0.265079	-0.762451	0.602539	-0.365967	0.099780	-0.009974	-0.023541	0.574539	-0.349926	-0.687434	-0.273664	-172.256410	-78.943578	119.664876
13769		9.756556	-1.257990	-2.332092	-0.535121	-0.919360	0.241151	0.519686	-0.603712	0.203979	-0.764893	0.606934	-0.357178	0.097648	-0.012420	-0.023059	0.573656	-0.350000	-0.689510	-0.270176	-171.582480	-78.581168	119.283263
13770		9.861247	-0.709780	-2.252399	-0.159637	-0.434437	0.316813	0.534612	-0.561357	0.129620	-0.758545	0.615967	-0.352783	0.098680	-0.006974	-0.022266	0.573055	-0.349796	-0.691664	-0.266180	-170.785434	-78.220373	118.849037
13771		10.037036	-0.489892	-2.367865	0.052109	-0.300080	0.506995	0.446535	-0.537523	0.085136	-0.758545	0.620361	-0.354980	0.100436	-0.004804	-0.023420	0.572095	-0.349567	-0.693639	-0.263392	-170.502469	-77.904851	118.823267
13772		9.797387	-0.859291	-2.791451	0.036808	-0.831854	0.376807	0.365449	-0.512904	0.091494	-0.754395	0.624756	-0.346436	0.098049	-0.008497	-0.027679	0.571245	-0.349749	-0.695439	-0.260229	-169.929027	-77.570640	118.502320
13773		9.539594	-0.592259	-2.714980	0.211527	-0.608253	0.102495	0.335101	-0.460603	0.068533	-0.752197	0.627197	-0.348633	0.095460	-0.005845	-0.026940	0.570325	-0.349672	-0.697061	-0.258003	-169.737966	-77.300084	118.505252
13774		9.784144	-0.659590	-2.786406	0.171765	-0.602188	0.362592	0.318716	-0.417016	0.062049	-0.754639	0.633789	-0.342041	0.097901	-0.006521	-0.027670	0.569642	-0.349818	-0.698542	-0.255292	-169.254021	-77.020254	118.238046
13775		9.507423	-0.730882	-2.734255	0.100720	-0.622944	0.086964	0.258729	-0.379415	0.042228	-0.750244	0.633789	-0.344238	0.095127	-0.007254	-0.027172	0.568830	-0.349757	-0.699870	-0.253544	-169.145274	-76.798183	118.280573
13776		9.739683	-1.107294	-3.219888	0.079073	-1.130374	0.442608	0.253831	-0.363881	0.040776	-0.752686	0.638184	-0.337646	0.097457	-0.011012	-0.032036	0.568157	-0.349992	-0.701127	-0.251245	-168.747499	-76.548744	118.055327
13777		9.337247	-0.471644	-2.944519	0.435102	-0.572419	-0.037221	0.305523	-0.332970	0.027388	-0.748047	0.638184	-0.331055	0.093422	-0.004659	-0.029297	0.567565	-0.349683	-0.702399	-0.249453	-168.631265	-76.354469	118.117806
13778		9.333119	-1.146737	-3.036627	-0.030445	-1.024124	0.015506	0.287070	-0.322362	0.064874	-0.750488	0.642578	-0.324463	0.093384	-0.011394	-0.030232	0.567088	-0.349912	-0.703510	-0.247076	-168.157324	-76.123239	117.824561
13779		9.448460	-0.998110	-2.888383	-0.025592	-0.763201	0.088281	0.297992	-0.287886	0.076004	-0.741943	0.653809	-0.331055	0.094530	-0.009902	-0.028763	0.566696	-0.349735	-0.704552	-0.245248	-167.920902	-75.948572	117.758842
13780		9.197397	-0.124310	-2.447037	0.402656	0.107432	-0.303649	0.288381	-0.273096	0.088074	-0.742188	0.660400	-0.320068	0.092008	-0.001167	-0.024346	0.566378	-0.350061	-0.705449	-0.242932	-167.389717	-75.738797	117.394871
13781		9.546373	-0.008713	-2.505603	0.484966	0.245245	0.042055	0.241559	-0.267608	0.101979	-0.744629	0.660400	-0.322266	0.095497	-0.000008	-0.024928	0.565986	-0.350108	-0.706312	-0.241262	-167.129528	-75.571904	117.271106
13782		9.559686	0.215434	-2.505188	0.659400	0.434707	0.040541	0.207946	-0.240914	0.129624	-0.735840	0.667236	-0.313721	0.095626	0.002242	-0.024934	0.565643	-0.350855	-0.706908	-0.239227	-166.561199	-75.371436	116.806919
13783		9.592152	-0.134867	-2.517784	0.396865	0.239600	0.094473	0.186683	-0.202694	0.176744	-0.735840	0.667236	-0.315918	0.095948	-0.001240	-0.025082	0.565471	-0.351242	-0.707385	-0.237650	-166.153003	-75.230032	116.497386
13784		9.773603	-0.244347	-2.427255	0.249234	0.319487	0.252616	0.174142	-0.156896	0.219241	-0.725098	0.676270	-0.309326	0.097758	-0.002315	-0.024198	0.565440	-0.352354	-0.707518	-0.235674	-165.399964	-75.060719	115.811974
13785		9.612485	-0.360250	-2.533676	0.258886	0.159525	0.129979	0.167618	-0.128709	0.255914	-0.722900	0.680664	-0.311523	0.096146	-0.003458	-0.025278	0.565586	-0.352986	-0.707619	-0.234069	-164.815790	-74.946851	115.308465
13786		9.482194	-0.672096	-2.673648	0.147479	-0.131484	0.060153	0.180542	-0.104165	0.301526	-0.720947	0.685303	-0.311523	0.094846	-0.006554	-0.026693	0.565813	-0.354374	-0.707431	-0.231984	-163.892749	-74.788804	114.438408
13787		9.933994	0.003723	-2.380147	0.452052	0.650121	0.371725	0.154409	0.011994	0.307458	-0.709961	0.696533	-0.304932	0.099338	0.000208	-0.023807	0.566490	-0.355061	-0.707021	-0.230527	-163.147615	-74.740197	113.759590
13788		10.340462	-1.035413	-2.529197	-0.241965	-0.004551	0.880079	0.091196	0.358634	0.338144	-0.710205	0.703125	-0.313721	0.103376	-0.010168	-0.025482	0.568203	-0.356350	-0.705322	-0.229524	-161.937610	-74.821298	112.528820
13789		9.868053	-1.733671	-2.872667	-0.452438	-0.821376	0.567903	0.117751	0.410793	0.356610	-0.699219	0.707764	-0.311523	0.098652	-0.017144	-0.028939	0.570273	-0.356852	-0.703642	-0.228764	-160.845147	-74.973558	111.468837
13790		9.533207	-1.546009	-2.164008	-0.668363	-0.256561	0.058601	0.189443	0.369505	0.368435	-0.695313	0.718994	-0.311523	0.095320	-0.015264	-0.021831	0.572202	-0.358001	-0.701935	-0.227391	-159.483027	-75.040915	110.130963
13791		9.460192	-2.003699	-2.208839	-0.928399	-0.596493	0.044851	0.141762	0.275644	0.427144	-0.693115	0.723389	-0.313721	0.094614	-0.019819	-0.022233	0.573911	-0.358833	-0.700531	-0.226100	-158.303548	-75.094079	108.995908
13792		9.061624	-1.545681	-2.151516	-0.529914	-0.332543	-0.392517	0.098805	0.160847	0.448891	-0.679932	0.732666	-0.313721	0.090633	-0.015243	-0.021596	0.574993	-0.360836	-0.699130	-0.224493	-156.990906	-75.016575	107.643030
13793		8.996992	-1.520902	-2.527286	-0.222043	-0.583210	-0.365119	0.170011	0.049140	0.491136	-0.673584	0.743652	-0.311768	0.090001	-0.014967	-0.025308	0.576025	-0.362062	-0.698280	-0.222510	-155.863001	-74.923355	106.577505
13794		9.831356	-0.109390	-1.238455	0.011254	1.511515	-0.019004	0.243838	-0.040516	0.540600	-0.662842	0.752930	-0.307373	0.098319	-0.000813	-0.012366	0.576727	-0.364261	-0.697407	-0.219827	-154.507475	-74.703865	105.252177
13795		9.894316	0.371282	-1.761640	0.752083	1.499735	0.103134	0.114693	-0.113995	0.636137	-0.649658	0.761963	-0.307373	0.098941	0.004038	-0.017558	0.577237	-0.366328	-0.696688	-0.217319	-153.331608	-74.478019	104.101978
13796		9.523545	-0.266467	-2.794939	1.008197	0.313856	0.059757	0.135997	-0.148776	0.739363	-0.645508	0.766357	-0.305176	0.095265	-0.002294	-0.027880	0.577526	-0.369738	-0.695571	-0.214331	-151.864387	-74.136189	102.575166
13797		9.614426	-0.315767	-2.793878	1.015314	0.372376	0.145852	0.272856	-0.187380	0.795095	-0.627930	0.777832	-0.300781	0.096182	-0.002737	-0.027853	0.578227	-0.371970	-0.694916	-0.210673	-150.474140	-73.815024	101.292576
13798		10.121276	-0.387641	-2.578670	0.857001	0.706404	0.579895	0.311674	-0.203573	0.868947	-0.619385	0.791260	-0.305176	0.101254	-0.003396	-0.025689	0.578746	-0.375408	-0.693845	-0.206642	-148.872127	-73.389540	99.715940
13799		10.047266	-0.497199	-2.632074	0.875150	0.659522	0.527563	0.320890	-0.221961	0.944650	-0.601807	0.798340	-0.302979	0.100524	-0.004455	-0.026217	0.579547	-0.378040	-0.693023	-0.202310	-147.367081	-72.987742	98.336815
13800		10.341083	-0.657479	-2.962615	1.032222	0.502142	0.903122	0.364937	-0.202100	1.009681	-0.593262	0.809570	-0.300781	0.103472	-0.005999	-0.029533	0.580647	-0.380834	-0.692054	-0.197170	-145.665604	-72.526563	96.814731
13801		10.396897	-0.953012	-3.019405	0.923248	0.387409	1.009357	0.432421	-0.227136	1.090032	-0.582031	0.812012	-0.302979	0.104053	-0.008898	-0.030096	0.581748	-0.383626	-0.691038	-0.192007	-144.033530	-72.052220	95.362624
13802		10.255707	-0.966388	-3.097300	1.059281	0.391837	0.884486	0.474948	-0.242166	1.162207	-0.555420	0.821533	-0.311768	0.102648	-0.008994	-0.030871	0.583014	-0.386635	-0.689945	-0.185966	-142.271133	-71.495297	93.832898
13803		10.133492	-1.088156	-3.298159	1.194965	0.241918	0.829747	0.492202	-0.214302	1.235596	-0.553955	0.841309	-0.303223	0.101435	-0.010174	-0.032899	0.584360	-0.389712	-0.688609	-0.180180	-140.569227	-70.949052	92.334295
13804		10.468506	-1.327789	-3.795660	1.450031	-0.025845	1.307304	0.561423	-0.227222	1.326329	-0.527100	0.846436	-0.311768	0.104813	-0.012477	-0.037873	0.585928	-0.392979	-0.687163	-0.173386	-138.733489	-70.310218	90.767426
13805		10.591204	-0.677354	-4.435282	2.475535	0.107023	1.419486	0.616200	-0.213688	1.418328	-0.511963	0.862305	-0.309570	0.106003	-0.005886	-0.044259	0.587614	-0.396278	-0.685501	-0.166621	-136.937423	-69.664794	89.232840
13806		11.794888	-0.315825	-4.303903	2.801645	0.992397	2.389970	0.670309	-0.082611	1.558012	-0.494141	0.867188	-0.324951	0.117986	-0.002095	-0.042999	0.589997	-0.399845	-0.683177	-0.159050	-134.855247	-68.960835	87.454414
13807		12.090463	-0.104459	-2.851514	2.141977	2.369147	2.192149	0.700578	0.162373	1.707860	-0.479004	0.876221	-0.324951	0.120884	0.000088	-0.028614	0.593282	-0.403524	-0.679795	-0.151867	-132.541494	-68.308024	85.402152
13808		12.197696	-0.017713	-2.904728	2.442811	2.566244	2.214917	0.704132	0.285340	1.889662	-0.459229	0.889893	-0.333740	0.121929	0.001078	-0.029219	0.597123	-0.407758	-0.675619	-0.143936	-130.004677	-67.553501	83.134269
13809		13.304495	-0.539960	-3.253260	2.584493	2.561801	3.402266	0.657533	0.377814	2.048126	-0.437012	0.899414	-0.338135	0.133028	-0.003930	-0.032798	0.601174	-0.412474	-0.670731	-0.136291	-127.473996	-66.763569	80.798338
13810		15.776658	-0.099232	-3.201637	3.304562	4.003520	5.425546	0.524162	0.464096	2.170486	-0.415039	0.913086	-0.344727	0.157689	0.000804	-0.032382	0.605285	-0.417966	-0.665151	-0.128487	-124.958501	-65.869691	78.410468
13811		17.277063	0.835721	-3.658001	4.734522	5.066484	6.450026	0.612100	0.332115	2.341500	-0.399658	0.922363	-0.353516	0.172595	0.010491	-0.036837	0.609122	-0.423712	-0.659579	-0.119978	-122.629073	-64.850205	76.234880
13812		17.203896	0.782169	-2.769451	4.403309	5.857086	6.015863	0.743438	0.072614	2.585148	-0.377686	0.933838	-0.357910	0.171908	0.010147	-0.027722	0.612452	-0.430013	-0.654239	-0.109374	-120.490614	-63.565549	74.359743
13813		18.753745	2.114175	-1.318986	4.826406	8.608165	6.327073	0.846496	-0.169666	2.881338	-0.362305	0.940918	-0.364502	0.187217	0.023896	-0.012934	0.615216	-0.436944	-0.648934	-0.097331	-118.580540	-62.070684	72.759196
13814		21.215557	3.259429	-1.011507	6.106245	10.990263	7.612404	0.779516	-0.271070	3.208390	-0.335938	0.956787	-0.368896	0.211609	0.036030	-0.009692	0.617528	-0.445135	-0.643011	-0.083972	-116.806032	-60.332455	71.265942
13815		21.702482	3.571718	-1.787633	7.360200	11.343510	7.624327	0.794654	-0.429771	3.536298	-0.306641	0.955322	-0.373291	0.216385	0.039616	-0.017259	0.619288	-0.454209	-0.636674	-0.069454	-115.220558	-58.392865	69.953976
13816		22.150771	3.752751	-2.575693	8.545943	11.675775	7.564097	0.911823	-0.674778	3.738610	-0.284668	0.971191	-0.379883	0.220838	0.041775	-0.024827	0.620399	-0.463517	-0.630420	-0.053172	-113.843481	-56.254771	68.954337
13817		22.558755	5.088279	-3.532124	10.581697	12.589014	6.822604	1.184873	-0.829391	3.819621	-0.262451	0.976074	-0.390625	0.224701	0.055384	-0.034069	0.621406	-0.472055	-0.624302	-0.035581	-112.551493	-54.045336	68.208864
13818		22.570370	6.356502	-4.370609	12.350484	13.346571	5.620428	1.449825	-0.901588	3.829805	-0.235840	0.987793	-0.388428	0.224620	0.068183	-0.042209	0.622564	-0.479621	-0.618137	-0.016872	-111.261689	-51.798767	67.641919
13819		21.250262	4.761793	-4.328799	11.335444	12.313659	4.774938	1.559410	-0.825392	3.761144	-0.216064	0.999268	-0.408203	0.211728	0.051936	-0.042019	0.623922	-0.486405	-0.611661	0.001713	-109.980084	-49.604601	67.142068
13820		20.299540	3.162328	-4.461801	10.551994	11.329742	4.407499	1.780500	-0.647532	3.589032	-0.196045	1.001953	-0.419189	0.202522	0.035652	-0.043656	0.626119	-0.491758	-0.604774	0.019960	-108.583170	-47.534949	66.639800
13821		19.138930	1.634596	-3.868008	9.207218	10.632124	3.828103	1.670593	-0.569243	3.471547	-0.180664	1.013428	-0.436768	0.191172	0.019985	-0.037979	0.628023	-0.496921	-0.597714	0.037351	-107.305792	-45.531477	66.200380
13822		17.434064	-1.092570	-2.575696	6.514573	9.320713	3.693781	1.440896	-0.448509	3.447256	-0.162842	1.018311	-0.447754	0.174550	-0.007734	-0.025429	0.629521	-0.502545	-0.590159	0.053524	-106.162029	-43.569796	65.740037
13823		14.513158	-0.385673	-2.605478	6.304084	8.061869	0.808622	1.088968	-0.453418	3.283093	-0.149658	1.027344	-0.443359	0.145226	-0.001332	-0.025737	0.629926	-0.508650	-0.582929	0.068278	-105.298269	-41.678075	65.387676
13824		11.264066	1.891126	-2.269651	6.335110	7.354438	-3.380346	0.773238	-0.574411	2.886414	-0.147461	1.031982	-0.460938	0.112416	0.020621	-0.022296	0.629187	-0.514378	-0.577051	0.080942	-104.759864	-40.006632	65.230269
13825		8.974323	2.822958	-2.847982	6.591628	6.014242	-5.690491	0.646736	-0.667059	2.438398	-0.131836	1.034668	-0.460938	0.089484	0.029413	-0.028087	0.627865	-0.519106	-0.572540	0.092264	-104.403700	-38.547694	65.254790
13826		10.034324	4.890830	-3.019835	8.084466	7.693055	-6.782713	0.686468	-0.649898	1.864952	-0.129883	1.041260	-0.463135	0.099978	0.049944	-0.029703	0.626926	-0.521959	-0.569390	0.101576	-104.089351	-37.437350	65.366658
13827		8.074978	3.076678	-1.189731	5.087211	6.546857	-7.102655	0.662880	-0.287415	1.308304	-0.132324	1.047852	-0.474121	0.080563	0.031333	-0.011678	0.627134	-0.523485	-0.566496	0.108388	-103.693975	-36.659567	65.342654
13828		5.348644	-1.699544	-5.440886	5.522183	0.311441	-4.289387	1.024302	-0.664482	1.077609	-0.137207	1.054443	-0.482910	0.053757	-0.016428	-0.054316	0.627372	-0.522938	-0.565197	0.116157	-103.277756	-35.993396	65.609142
13829		6.902060	6.139951	-3.735284	8.113382	5.783114	-9.942502	1.423765	-0.327076	0.393776	-0.144043	1.056641	-0.498291	0.068960	0.061799	-0.036801	0.629901	-0.519419	-0.564323	0.122343	-102.557276	-35.721094	65.773663
13830		5.009844	11.348936	-0.220002	6.722900	8.528461	-15.813675	1.073245	0.296191	-0.602983	-0.159424	1.052002	-0.511475	0.050438	0.113348	-0.001666	0.633913	-0.514496	-0.564323	0.122422	-101.883108	-36.120981	65.646012
13831		5.148757	10.231414	2.112843	4.282685	9.424171	-15.150968	0.474977	0.292631	-1.235178	-0.181885	1.049561	-0.513916	0.052149	0.101943	0.021295	0.636680	-0.509712	-0.566243	0.119168	-101.595955	-36.837571	65.622581
13832		4.458575	7.046293	2.431373	2.450312	7.703691	-12.988901	-0.405255	0.267435	-1.519297	-0.206787	1.055664	-0.507324	0.045152	0.070170	0.024111	0.637333	-0.506818	-0.569529	0.112156	-101.857175	-37.754161	65.640125
13833		3.176922	2.147633	1.445897	0.766488	4.025101	-9.732338	-1.220917	0.213564	-1.856614	-0.224365	1.046387	-0.496338	0.031983	0.021268	0.014295	0.635827	-0.505550	-0.574177	0.102290	-102.640378	-38.809289	65.776849
13834		2.642616	-0.778857	-0.116112	0.569751	1.432110	-7.526290	-1.550381	0.117505	-2.274253	-0.258301	1.047852	-0.489990	0.026335	-0.008097	-0.001115	0.633399	-0.503927	-0.580324	0.089924	-103.727404	-40.129992	66.058183
13835		2.473863	-1.061605	-1.285333	1.298880	0.508892	-7.175963	-1.536812	0.185924	-2.681552	-0.280029	1.027344	-0.470215	0.024581	-0.011045	-0.012792	0.631177	-0.501079	-0.587089	0.076568	-104.846545	-41.634831	66.424230
13836		2.247887	-0.380080	-1.695585	1.845089	0.402327	-7.690085	-1.582560	0.357599	-3.111347	-0.315674	1.022217	-0.465820	0.022384	-0.004284	-0.016963	0.629396	-0.496965	-0.594297	0.060814	-106.016512	-43.444425	66.782138
13837		2.544945	0.111494	-1.493623	1.968633	0.893283	-7.801345	-1.665115	0.484638	-3.543553	-0.351074	1.008057	-0.457031	0.025426	0.000540	-0.015004	0.627636	-0.491770	-0.601943	0.043573	-107.279704	-45.458875	67.224835
13838		3.155446	0.172191	-0.856293	1.603982	1.601577	-7.450421	-1.753928	0.597256	-3.891918	-0.386475	0.994141	-0.437256	0.031553	0.001032	-0.008668	0.625845	-0.485541	-0.609902	0.024217	-108.679989	-47.722230	67.737212
13839		3.605799	-0.744656	-0.469606	0.824800	1.525005	-6.531118	-1.944322	0.694909	-4.139103	-0.428711	0.979980	-0.426514	0.035877	-0.008236	-0.004743	0.623564	-0.479004	-0.617826	0.003716	-110.269154	-50.080591	68.368716
13840		3.382348	-2.511753	-0.661599	-0.236091	0.194023	-5.559429	-2.011577	0.698693	-4.366715	-0.463623	0.952637	-0.417725	0.033241	-0.025913	-0.006475	0.620809	-0.471619	-0.625972	-0.018178	-112.099758	-52.595267	69.205036
13841		2.836014	-3.612189	-1.315547	-0.688947	-1.270964	-5.260033	-1.908178	0.673624	-4.666816	-0.500977	0.929443	-0.404541	0.027461	-0.036894	-0.012899	0.617782	-0.462772	-0.634489	-0.040146	-114.144424	-55.195881	70.383194
13842		2.248504	-3.452010	-1.175648	-0.967515	-1.560529	-5.942474	-1.711327	0.714724	-5.034506	-0.542480	0.899902	-0.404297	0.021564	-0.035170	-0.011536	0.614846	-0.451738	-0.643359	-0.063145	-116.451951	-58.014560	71.941235
13843		2.393819	-4.293658	-0.911960	-1.847182	-1.968652	-5.605151	-1.417215	0.789034	-5.358346	-0.574951	0.868164	-0.395508	0.022740	-0.043620	-0.008903	0.612243	-0.438485	-0.652317	-0.085862	-119.004884	-60.932879	73.962470
13844		2.849755	-6.146349	0.015568	-3.885334	-2.467145	-4.842374	-1.074229	0.863564	-5.645706	-0.616211	0.829590	-0.402100	0.026749	-0.062234	0.000371	0.609991	-0.422767	-0.661307	-0.108862	-121.977990	-64.004720	76.590785
13845		3.808274	-7.299872	0.555916	-5.164094	-2.676979	-3.960599	-0.741410	0.916236	-5.888860	-0.659668	0.795654	-0.401855	0.035938	-0.074057	0.005664	0.607969	-0.404924	-0.670243	-0.131091	-125.562645	-67.092955	80.061417
13846		4.045465	-8.338968	0.372093	-5.956301	-3.678820	-3.729381	-0.699375	0.882481	-5.922912	-0.691650	0.752930	-0.406250	0.037979	-0.084526	0.003844	0.605311	-0.386408	-0.678770	-0.153488	-130.308737	-70.110728	84.699759
13847		5.340673	-10.661441	-0.992774	-6.851400	-6.015999	-2.066678	-1.037447	0.710859	-5.695006	-0.719482	0.716797	-0.395020	0.050307	-0.108127	-0.009552	0.601090	-0.369569	-0.686523	-0.175484	-136.701575	-72.752395	90.815200
13848		8.771204	-14.048666	-3.050572	-8.262883	-9.054585	1.731559	-1.721741	0.549087	-5.336551	-0.742676	0.674072	-0.392578	0.083836	-0.143015	-0.029515	0.594831	-0.355778	-0.692920	-0.198647	-145.268185	-74.947549	98.680776
13849		13.054279	-19.111505	-6.049520	-10.688900	-13.881520	6.471707	-2.173586	0.517132	-4.733150	-0.761475	0.640381	-0.383789	0.125808	-0.194775	-0.058721	0.587853	-0.345268	-0.697395	-0.221041	-155.184824	-76.548720	107.626125
13850		16.233071	-26.449579	-8.626514	-15.453806	-20.320014	9.824235	-2.321731	0.523575	-3.899081	-0.773682	0.606934	-0.376953	0.156900	-0.268571	-0.083578	0.581143	-0.337921	-0.699780	-0.241643	-165.284191	-77.595606	116.594662
13851		14.072785	-33.602610	-10.218129	-20.411020	-26.867674	7.302924	-1.940800	0.543173	-3.120105	-0.784180	0.586670	-0.370361	0.135181	-0.339137	-0.099272	0.575898	-0.331989	-0.700999	-0.258313	-174.315512	-78.215225	124.693866
13852		9.043353	-36.100311	-9.959992	-22.513417	-29.220208	1.297642	-1.564425	0.614598	-2.355131	-0.790039	0.564453	-0.372314	0.085867	-0.362798	-0.097035	0.572338	-0.327519	-0.701005	-0.271575	178.302734	-78.612684	131.304378
13853		6.348712	-33.381334	-9.772906	-20.637759	-27.668618	-2.156755	-1.500056	0.256153	-1.466967	-0.787598	0.557861	-0.363525	0.060910	-0.334987	-0.095299	0.568761	-0.326364	-0.700590	-0.281374	173.259609	-78.694810	135.572227
13854		5.078961	-31.054414	-10.812698	-18.384143	-27.020174	-3.567517	-1.264041	0.038934	-0.616522	-0.789307	0.546631	-0.363525	0.049810	-0.311374	-0.106171	0.566023	-0.327821	-0.699693	-0.287371	170.914385	-78.665400	137.242123
13855		3.041435	-27.450227	-9.020382	-16.615867	-23.520848	-5.964283	-0.862219	0.127855	-0.022017	-0.784912	0.549072	-0.365723	0.030327	-0.274891	-0.089039	0.565026	-0.330058	-0.698112	-0.290596	170.348183	-78.734026	137.316643
13856		-2.414238	-30.763563	-19.611126	-12.374725	-34.399344	-9.219556	-0.850651	-0.889955	0.741921	-0.780762	0.555664	-0.343750	-0.022130	-0.308551	-0.194902	0.561731	-0.336358	-0.698207	-0.289532	172.521048	-78.288391	134.645964
13857		3.469756	-17.216796	-39.312378	8.514231	-40.661033	1.499281	-1.955284	-2.097990	1.250716	-0.765137	0.555908	-0.334961	0.039898	-0.175759	-0.391017	0.552867	-0.349272	-0.699069	-0.289220	175.308525	-77.166249	130.647960
13858		93.920783	13.696047	4.199940	-5.488723	26.981853	81.116105	4.577935	0.479028	-1.163106	-0.774170	0.558105	-0.378906	0.940081	0.130521	0.042785	0.560840	-0.331764	-0.706363	-0.276482	175.160309	-77.360755	133.558517
13859		44.652349	31.765157	30.403899	-0.605172	50.157712	27.751767	4.240149	2.869744	2.461489	-0.759277	0.585205	-0.403076	0.446987	0.316701	0.304349	0.581188	-0.324528	-0.699800	-0.259194	-175.650663	-79.010658	126.654997
13860		-21.149016	1.476515	11.236805	-3.897520	5.875429	-32.747347	-2.913890	0.050770	3.656601	-0.749268	0.611816	-0.361572	-0.211704	0.012532	0.112228	0.581353	-0.345694	-0.689777	-0.258326	-166.554246	-78.698946	115.721679
13861		-0.489044	-19.019299	-12.511064	-7.165813	-21.377951	-6.641215	-1.738019	-3.343059	2.377052	-0.734131	0.627441	-0.341797	-0.000548	-0.191295	-0.123485	0.569750	-0.363234	-0.692959	-0.251504	-163.755701	-76.491717	111.838324
13862		2.378917	-13.673001	-1.805684	-9.993760	-9.065793	-6.098412	-2.021718	0.558718	1.908884	-0.736816	0.634033	-0.337646	0.025046	-0.136669	-0.016744	0.570439	-0.375065	-0.685282	-0.253601	-159.989760	-76.423555	106.800852
13863		8.427941	0.542387	-1.628644	0.855372	1.024777	-1.316047	-0.551783	-1.063112	1.692848	-0.716797	0.643311	-0.331055	0.084315	0.006093	-0.015855	0.567882	-0.383826	-0.684390	-0.248592	-157.540332	-75.497698	103.951315
13864		11.370784	-9.175358	-7.252614	-3.801020	-8.097487	3.827689	-0.089389	-0.726535	1.409807	-0.715088	0.652100	-0.320068	0.114613	-0.090980	-0.072070	0.567123	-0.389794	-0.683675	-0.242941	-155.270861	-74.763657	101.604348
13865		12.811799	-0.900837	-2.327193	-0.007707	1.035060	3.198713	0.085824	-0.432151	0.959961	-0.708496	0.656738	-0.328857	0.128209	-0.008383	-0.022999	0.566976	-0.393410	-0.683109	-0.239015	-153.784831	-74.296436	100.114639
13866		9.838107	-1.911452	-0.123180	-1.902074	1.479154	-0.083859	0.577667	-0.493827	1.170999	-0.702148	0.667725	-0.317871	0.098493	-0.018535	-0.001043	0.567982	-0.396318	-0.682956	-0.232162	-151.682261	-73.705847	98.331676
13867		10.231252	-4.369117	-4.350885	-1.345037	-2.962626	1.681234	-0.137626	-0.618114	0.915377	-0.697754	0.672363	-0.311279	0.102645	-0.043252	-0.043162	0.566657	-0.400605	-0.682712	-0.228738	-150.765355	-73.135393	97.293951
13868		9.050153	-4.575574	-4.884574	-1.103306	-3.718028	0.754157	0.149905	-0.368256	0.895456	-0.691406	0.681396	-0.309082	0.090795	-0.045313	-0.048713	0.566865	-0.403669	-0.682179	-0.224381	-149.442669	-72.660983	96.053915
13869		8.203336	-5.776708	-4.252128	-2.371464	-4.092541	0.004249	0.131693	-0.370257	0.740350	-0.689453	0.685791	-0.309082	0.082325	-0.057435	-0.042407	0.566697	-0.406291	-0.681861	-0.221017	-148.540667	-72.252782	95.188333
13870		9.965583	-1.990290	-3.986558	0.511789	-1.114498	1.034540	0.193674	-0.280244	0.520335	-0.691895	0.694580	-0.307129	0.099763	-0.019605	-0.039745	0.566843	-0.407856	-0.681863	-0.217727	-147.782307	-71.919486	94.561949
13871		13.652102	-3.006854	-4.132752	-0.233374	-0.652215	4.748207	0.100381	0.663002	0.508596	-0.687500	0.697021	-0.311523	0.136459	-0.029701	-0.041795	0.569860	-0.408638	-0.679034	-0.217226	-146.315697	-72.071659	93.081646
