// General information: 
//  MT Manager version: 2019.2.0 
//  XDA version: 2019.2.0 build 3853 rev 94535 built on 2019-09-09
// Device information: 
//  DeviceId: 00B40A23
//  ProductCode: MTW2-3A7G6
//  Firmware Version: 4.3.5
//  Hardware Version: 1.1.0
// Device settings: 
//  Filter Profile: human(46.1)
//  Option Flags: Orientation Smoother Disabled, AHS Disabled, ICC Disabled
// Coordinate system: ENU
PacketCounter	SampleTimeFine	Acc_X	Acc_Y	Acc_Z	FreeAcc_E	FreeAcc_N	FreeAcc_U	Gyr_X	Gyr_Y	Gyr_Z	Mag_X	Mag_Y	Mag_Z	VelInc_X	VelInc_Y	VelInc_Z	Quat_q0	Quat_q1	Quat_q2	Quat_q3	Roll	Pitch	Yaw
13338		21.694826	8.434049	-6.936240	-0.000000	0.000000	14.474925	-0.160363	2.206428	-0.210135	-0.544678	0.193359	-0.557129	0.216253	0.084056	-0.071818	0.529930	-0.077228	-0.801177	-0.267067	130.510838	-62.921735	-159.514665
13339		21.041043	5.033772	-7.258428	0.000000	0.000000	13.007031	-0.292592	1.166275	-0.914913	-0.540283	0.195557	-0.563965	0.210209	0.049268	-0.073883	0.546068	-0.097845	-0.807658	-0.199814	146.302981	-67.098199	-171.104861
13340		20.956005	4.082310	-6.883438	-1.445521	-2.083513	12.475431	-0.356800	0.201949	-1.525771	-0.542236	0.188965	-0.552734	0.209793	0.039100	-0.069117	0.534005	-0.080067	-0.807594	-0.237107	136.842790	-64.222254	-163.445450
13341		6.861496	-15.909107	-7.504392	-2.662834	-18.305607	-6.030377	1.397621	-1.040225	-1.466040	-0.550293	0.166504	-0.549805	0.067842	-0.159062	-0.075801	0.528592	-0.071643	-0.812563	-0.234946	137.221554	-63.213616	-162.974776
13342		-7.069777	-17.874189	2.560131	-4.993680	-13.922426	-22.347390	4.936503	-3.523259	-2.629120	-0.571533	0.130615	-0.537842	-0.073428	-0.178327	0.019918	0.512449	-0.054730	-0.829179	-0.216480	141.518798	-60.870200	-164.375419
13343		-11.591726	14.751375	23.030847	-8.849106	24.122310	-24.715722	3.448226	-4.695243	-1.371964	-0.597900	0.121094	-0.504395	-0.120323	0.144361	0.230025	0.492215	-0.045265	-0.844943	-0.204319	145.155431	-58.242660	-166.300973
13344		-9.600212	-1.063342	10.669814	-3.999386	4.401044	-22.915594	1.721745	-6.917034	0.948627	-0.626953	0.118164	-0.457520	-0.099557	-0.011999	0.103196	0.476373	-0.051038	-0.854689	-0.199927	147.840071	-56.585640	-169.195048
13345		52.633352	-0.078721	35.490868	-57.751257	8.232124	15.179926	4.480080	-7.493598	-1.079720	-0.652832	0.088623	-0.425537	0.512509	-0.011818	0.374106	0.443964	-0.043197	-0.876457	-0.181253	152.649258	-52.550494	-171.943596
13346		79.490328	60.303952	21.459219	-33.208853	52.311460	71.280926	0.078871	2.234150	-0.250796	-0.651123	0.104248	-0.450439	0.797991	0.601958	0.205927	0.545083	-0.047015	-0.812358	-0.201863	139.524378	-64.767614	-160.303233
13347		-24.830854	-21.983850	7.461609	-2.813162	-13.717242	-40.787610	0.285344	-1.204892	-0.405226	-0.657959	0.104248	-0.450439	-0.249196	-0.219439	0.072803	0.539836	-0.045807	-0.816008	-0.201521	140.246390	-64.090057	-160.922388
13348		14.271115	14.018590	11.553354	-7.260319	12.131746	8.456777	0.419673	-0.142372	0.001289	-0.667236	0.112793	-0.461670	0.142628	0.139944	0.115929	0.645942	-0.023904	-0.710844	-0.277286	91.851051	-68.683293	-116.883074
13349		4.467868	1.369445	5.927002	-5.566564	2.232723	-5.230672	-0.068550	-0.310453	-0.138214	-0.669678	0.114990	-0.463867	0.044596	0.013684	0.059335	0.644638	-0.024065	-0.711767	-0.277939	92.259053	-68.597774	-117.363340
13350		5.538910	-3.330704	5.719739	-6.467889	-2.889912	-4.882846	0.060654	0.043092	0.018241	-0.685547	0.119141	-0.470459	0.055404	-0.033319	0.057175	0.716584	0.000544	-0.606356	-0.344731	57.711102	-60.300363	-86.877606
13351		4.220958	-2.781611	9.910240	-9.871940	-0.083899	-4.683903	0.092921	0.190622	-0.019201	-0.692627	0.125732	-0.483887	0.042301	-0.027866	0.099049	0.717129	0.001264	-0.605832	-0.344518	57.613077	-60.232644	-86.703406
13352		3.423048	-3.727459	9.647994	-9.146267	-1.000323	-3.978302	0.247258	0.173300	-0.164020	-0.694824	0.125732	-0.483887	0.034283	-0.037422	0.096404	0.772679	0.003000	-0.512940	-0.373967	39.336761	-52.225855	-71.527900
13353		5.905496	2.402965	9.196303	-4.786547	1.768147	0.146411	0.204402	0.182437	-0.153811	-0.703613	0.123291	-0.486084	0.059157	0.023890	0.091934	0.772855	0.004525	-0.512614	-0.374034	39.456136	-52.089143	-71.530765
13354		5.629541	1.763470	8.919916	-3.345815	0.798122	0.313266	0.115144	0.140837	-0.123688	-0.712891	0.132080	-0.488525	0.056369	0.017549	0.089170	0.811927	-0.005030	-0.434799	-0.389485	27.991688	-45.232354	-63.110695
13355		5.388002	0.350602	8.487201	-4.019701	-0.205643	-0.593916	0.090938	0.135111	-0.105361	-0.717529	0.132080	-0.490723	0.053939	0.003439	0.084837	0.812018	-0.004169	-0.434430	-0.389718	28.060810	-45.135650	-63.134689
13356		5.756430	2.066178	8.781528	-1.744051	0.520672	0.732832	0.075646	0.121035	-0.036314	-0.722168	0.138672	-0.492920	0.057621	0.020618	0.087788	0.835819	-0.015553	-0.377474	-0.398345	21.031021	-40.045123	-58.703704
13357		5.006956	0.533326	8.546735	-2.933578	-0.124829	-0.337496	0.064908	0.100820	-0.018163	-0.735840	0.138428	-0.495117	0.050113	0.005301	0.085444	0.835978	-0.015046	-0.377183	-0.398306	21.058944	-39.987468	-58.689297
13358		5.374965	1.147694	8.256226	-1.365227	-0.221579	0.008705	0.087030	0.080855	-0.013189	-0.738281	0.145020	-0.493164	0.053784	0.011437	0.082545	0.850000	-0.024897	-0.337498	-0.403702	16.623335	-36.430613	-56.315058
13359		4.667904	1.264470	8.899490	-1.953904	0.523242	0.111909	0.052235	0.083663	0.020298	-0.745117	0.146973	-0.493164	0.046715	0.012626	0.088979	0.850188	-0.024541	-0.337245	-0.403538	16.634923	-36.388004	-56.284163
13360		3.739278	0.081016	9.129938	-2.773202	0.327474	-0.349779	0.047704	0.091719	0.026777	-0.744873	0.144775	-0.495117	0.037435	0.000793	0.091282	0.858695	-0.032367	-0.309534	-0.407166	13.695122	-33.914033	-54.931595
13361		4.566754	0.873543	8.946763	-1.714755	0.229067	0.120591	0.067050	0.052959	0.014653	-0.751953	0.151367	-0.493164	0.045691	0.008709	0.089458	0.858817	-0.031994	-0.309441	-0.407008	13.723220	-33.886537	-54.913102
13362		4.245032	0.648333	9.017874	-1.625407	0.253267	0.039043	0.043599	0.038036	0.006101	-0.756592	0.155762	-0.495361	0.042467	0.006465	0.090172	0.864410	-0.038697	-0.288464	-0.409983	11.542855	-32.034681	-54.073245
13363		4.720256	0.703186	8.489581	-1.103430	-0.201526	-0.138490	0.046166	0.017165	-0.003855	-0.760986	0.153320	-0.493164	0.047210	0.007011	0.084893	0.864436	-0.038457	-0.288485	-0.409937	11.569422	-32.024595	-54.073471
13364		5.009058	0.826287	8.592792	-0.595174	-0.329517	0.144555	0.040548	-0.011894	0.001973	-0.756592	0.157959	-0.488770	0.050085	0.008246	0.085933	0.867977	-0.043951	-0.273338	-0.412275	9.985981	-30.713228	-53.562774
13365		4.787819	0.587793	8.690638	-0.930513	-0.304714	0.078581	0.033054	-0.007550	0.000265	-0.761230	0.157715	-0.486572	0.047875	0.005864	0.086909	0.867975	-0.043823	-0.273439	-0.412227	10.005271	-30.717505	-53.563470
13366		4.015010	0.717761	8.890350	-1.087894	0.363332	-0.098869	0.043730	-0.007433	0.005736	-0.761230	0.160156	-0.488770	0.040147	0.007159	0.088907	0.870095	-0.048509	-0.262785	-0.414156	8.836201	-29.833168	-53.266069
13367		4.468232	0.056030	8.933040	-1.369042	-0.371936	0.074417	0.057880	-0.030681	-0.005949	-0.765625	0.157715	-0.486572	0.044669	0.000533	0.089337	0.870057	-0.048313	-0.263040	-0.414098	8.872842	-29.850003	-53.273068
13368		4.327570	0.359765	8.745747	-0.961557	-0.138262	-0.096635	0.072386	-0.032426	-0.011425	-0.761230	0.157715	-0.486572	0.043262	0.003564	0.087466	0.871444	-0.052185	-0.254804	-0.415858	7.963963	-29.176230	-53.097324
13369		5.302528	0.746052	8.298628	0.011754	-0.706170	0.038292	0.070965	-0.026101	-0.025009	-0.765625	0.157715	-0.479980	0.053015	0.007424	0.082996	0.871377	-0.051898	-0.255071	-0.415870	8.013702	-29.189038	-53.115955
13370		5.149876	0.478035	8.344839	-0.161820	-0.756728	-0.025591	0.067982	-0.022556	-0.030098	-0.765381	0.153320	-0.479736	0.051490	0.004744	0.083456	0.872035	-0.055349	-0.249176	-0.417615	7.311433	-28.738333	-53.054625
13371		5.343478	0.999881	8.431732	0.293770	-0.533547	0.201085	0.079091	-0.006467	-0.046591	-0.765381	0.151123	-0.481934	0.053434	0.009953	0.084323	0.871952	-0.054960	-0.249382	-0.417717	7.371520	-28.738586	-53.085357
13372		4.611826	0.855335	8.812335	-0.257955	0.015233	0.166842	0.069106	0.001789	-0.041450	-0.767578	0.148682	-0.477539	0.046121	0.008513	0.088126	0.872011	-0.058016	-0.245489	-0.419484	6.845934	-28.477392	-53.119233
13373		4.440211	0.670024	8.992059	-0.563167	0.067373	0.222243	0.063975	0.000436	-0.024882	-0.765381	0.151123	-0.475342	0.044403	0.006666	0.089923	0.871977	-0.057705	-0.245629	-0.419514	6.890242	-28.475428	-53.135298
13374		4.400456	0.819818	8.973322	-0.390439	0.194034	0.205622	0.042169	0.011538	-0.015142	-0.765381	0.151123	-0.477539	0.044010	0.008176	0.089732	0.872046	-0.060018	-0.242475	-0.420880	6.481403	-28.256479	-53.160242
13375		4.749660	0.821769	8.576075	-0.059362	-0.176551	0.023417	0.034232	-0.000191	-0.014116	-0.762939	0.144531	-0.475098	0.047497	0.008200	0.085762	0.872026	-0.059852	-0.242552	-0.420900	6.505334	-28.255661	-53.169376
13376		5.418125	1.300915	8.490386	0.746945	-0.365618	0.308751	0.009646	0.007854	-0.016912	-0.758545	0.146729	-0.479736	0.054186	0.013000	0.084902	0.872042	-0.061660	-0.240069	-0.422029	6.187473	-28.082669	-53.198605
13377		4.666564	0.889713	8.357297	0.084253	-0.138643	-0.200897	-0.019495	0.013674	-0.008964	-0.756104	0.144531	-0.475098	0.046672	0.008903	0.083569	0.872033	-0.061705	-0.239971	-0.422095	6.178568	-28.074315	-53.203432
13378		4.890320	0.996832	8.627213	0.223926	-0.137388	0.150679	-0.021757	0.002496	-0.011040	-0.767334	0.144287	-0.472900	0.048905	0.009975	0.086270	0.871906	-0.063207	-0.238388	-0.423031	5.945211	-27.981109	-53.245972
13379		4.330455	0.381911	8.645448	-0.548455	-0.124962	-0.152146	-0.032767	0.015605	-0.001721	-0.762939	0.144531	-0.472900	0.043311	0.003833	0.086450	0.871911	-0.063315	-0.238251	-0.423083	5.926458	-27.972102	-53.246031
13380		4.335772	0.376421	8.830196	-0.585224	-0.065165	0.014125	-0.026914	0.005222	-0.022590	-0.762695	0.137695	-0.472900	0.043360	0.003771	0.088300	0.871713	-0.064631	-0.236967	-0.424012	5.732541	-27.900868	-53.302802
13381		4.459339	0.921214	8.658514	-0.038374	0.137475	-0.030876	-0.015094	0.002268	-0.046440	-0.760498	0.140137	-0.475098	0.044597	0.009208	0.086584	0.871612	-0.064637	-0.236940	-0.424233	5.737832	-27.896904	-53.332608
13382		4.810219	0.808954	8.418201	0.170994	-0.253920	-0.088233	-0.013068	0.005402	-0.042974	-0.762451	0.135498	-0.483887	0.048106	0.008085	0.084180	0.871418	-0.065630	-0.235823	-0.425100	5.588019	-27.826789	-53.393921
13383		5.044545	0.661712	8.466179	0.163430	-0.499956	0.050619	-0.011376	0.013037	-0.064690	-0.769287	0.133301	-0.474854	0.050453	0.006606	0.084658	0.871292	-0.065576	-0.235763	-0.425400	5.600574	-27.815729	-53.434803
13384		4.857957	0.681568	8.386038	0.125408	-0.374835	-0.105284	-0.014386	0.009239	-0.072795	-0.771240	0.128662	-0.477051	0.048586	0.006804	0.083858	0.870890	-0.066544	-0.235015	-0.426485	5.484210	-27.781735	-53.540334
13385		4.300897	0.650500	8.501777	-0.233691	0.035499	-0.265688	-0.003811	0.013415	-0.095364	-0.773438	0.126465	-0.483643	0.043018	0.006486	0.085015	0.870701	-0.066420	-0.234980	-0.426910	5.510275	-27.768837	-53.600969
13386		4.462685	0.699777	8.536327	-0.110581	-0.033245	-0.155525	-0.005002	0.000393	-0.108986	-0.778076	0.128662	-0.481445	0.044631	0.006976	0.085363	0.870193	-0.067232	-0.234455	-0.428107	5.429176	-27.749584	-53.733384
13387		3.936895	0.400162	8.878435	-0.741138	0.259998	-0.124086	-0.011683	0.009344	-0.134048	-0.784424	0.119629	-0.481201	0.039376	0.003980	0.088782	0.869913	-0.067106	-0.234435	-0.428707	5.462419	-27.736952	-53.819193
13388		4.336670	0.122936	8.639517	-0.654714	-0.272768	-0.171110	0.025905	-0.005750	-0.163587	-0.786621	0.114990	-0.483154	0.043365	0.001183	0.086397	0.869384	-0.067561	-0.233967	-0.429962	5.426023	-27.704488	-53.969206
13389		4.383991	0.074015	8.587473	-0.659710	-0.359310	-0.199924	0.052385	-0.029792	-0.192782	-0.790527	0.104004	-0.482910	0.043828	0.000675	0.085881	0.868952	-0.067172	-0.234274	-0.430728	5.514627	-27.710937	-54.095233
13390		4.145400	0.154804	8.918531	-0.833284	-0.028974	-0.012010	0.079058	-0.061689	-0.227774	-0.790771	0.106201	-0.478516	0.041428	0.001466	0.089199	0.868118	-0.067668	-0.234123	-0.432410	5.508725	-27.711125	-54.315595
13391		4.071160	0.836485	8.867247	-0.339489	0.423871	-0.034796	0.105033	-0.122614	-0.245323	-0.803711	0.096924	-0.480469	0.040667	0.008268	0.088702	0.867479	-0.067190	-0.234965	-0.433310	5.646052	-27.767370	-54.481364
13392		3.879675	0.883940	8.640694	-0.327902	0.523916	-0.319914	0.108107	-0.228638	-0.224248	-0.812500	0.087891	-0.475830	0.038708	0.008749	0.086456	0.866583	-0.067740	-0.235531	-0.434708	5.670749	-27.846758	-54.686760
13393		3.573777	0.976901	9.429721	-0.715789	1.066084	0.237032	0.093126	-0.326141	-0.180677	-0.819092	0.085449	-0.467041	0.035593	0.009693	0.094360	0.865836	-0.067833	-0.237207	-0.435270	5.788604	-28.022340	-54.824458
13394		3.779096	-0.156248	9.416929	-1.516546	0.240374	0.218595	0.084155	-0.483345	-0.195523	-0.825684	0.078613	-0.462402	0.037562	-0.001639	0.094260	0.865024	-0.068561	-0.238729	-0.435937	5.831328	-28.215485	-54.959197
13395		3.769530	0.208238	9.891812	-1.449765	0.663216	0.654336	0.025096	-0.669197	-0.312833	-0.840820	0.069580	-0.446533	0.037367	0.002011	0.099044	0.863546	-0.069537	-0.241783	-0.437027	5.963383	-28.578447	-55.206654
13396		3.623314	1.899514	10.652378	-0.500491	2.104220	1.391352	0.062043	-0.992196	-0.298868	-0.849609	0.060303	-0.432861	0.035732	0.018908	0.106708	0.861968	-0.071361	-0.245212	-0.437939	6.023367	-29.027745	-55.428021
13397		3.078146	2.996676	12.584543	-0.687882	3.932335	2.871401	-0.154660	-1.555960	-0.140119	-0.858154	0.051270	-0.410400	0.029822	0.030043	0.126057	0.859672	-0.075261	-0.251621	-0.438164	6.032746	-29.905869	-55.627245
13398		3.542953	2.086227	13.243955	-1.529668	3.448303	3.531555	-0.303994	-2.219410	-0.042620	-0.873779	0.050781	-0.377197	0.033962	0.021057	0.132790	0.857926	-0.080120	-0.259257	-0.436268	5.940887	-30.981022	-55.555927
13399		4.338868	1.011014	13.062129	-2.096956	2.473904	3.601295	-0.328072	-3.046140	0.066079	-0.882324	0.039551	-0.343506	0.041389	0.010339	0.131245	0.853889	-0.088248	-0.271550	-0.435139	5.840781	-32.720985	-55.722459
13400		2.102033	-0.260212	15.248937	-5.239798	4.438571	3.965124	-0.471508	-3.987147	0.131555	-0.905029	0.047852	-0.290283	0.017977	-0.002230	0.152874	0.850479	-0.096859	-0.285910	-0.430766	5.696257	-34.734088	-55.507100
13401		2.388220	-1.480297	16.112502	-6.728304	4.427576	4.420257	-0.473897	-5.078744	0.164614	-0.914063	0.049805	-0.234863	0.019793	-0.014403	0.161697	0.843067	-0.110015	-0.306311	-0.428144	5.564881	-37.639190	-55.744511
13402		2.086958	-1.444993	17.210953	-7.711256	5.689230	4.703961	-0.287621	-6.198892	0.049949	-0.927002	0.040283	-0.174561	0.015527	-0.014198	0.172667	0.836356	-0.121409	-0.329119	-0.421247	5.621008	-40.753634	-55.555310
13403		1.036395	-2.752454	17.248596	-9.722399	6.344782	3.273694	-0.028166	-7.181687	-0.205977	-0.946777	0.035400	-0.103516	0.004136	-0.027507	0.172713	0.823550	-0.136233	-0.358998	-0.417524	6.102831	-44.834911	-56.287843
13404		1.641560	-3.247573	17.224513	-10.442855	6.229669	2.911414	0.386277	-7.890714	-0.674288	-0.941650	0.021973	-0.020996	0.009498	-0.032849	0.172648	0.812433	-0.145470	-0.388811	-0.409411	7.132056	-48.666607	-56.718527
13405		4.687397	-0.590082	16.580569	-7.677068	6.682600	4.096200	0.759413	-8.526012	-1.043448	-0.943604	0.019287	0.061279	0.039720	-0.006755	0.167576	0.793525	-0.157671	-0.425385	-0.405592	9.156272	-53.418302	-58.759929
13406		10.210346	-0.525128	16.402754	-6.675500	4.503468	7.751320	0.588444	-8.676462	-1.244005	-0.934082	0.006104	0.141357	0.094827	-0.006347	0.168230	0.778713	-0.164407	-0.457229	-0.396886	11.447388	-57.415879	-60.296984
13407		12.898812	-1.487525	15.651119	-7.418030	3.280253	8.828506	0.786692	-8.674255	-1.416550	-0.919922	-0.007324	0.217041	0.121932	-0.016385	0.161840	0.755968	-0.175156	-0.493271	-0.393087	15.219390	-62.067059	-64.138255
13408		17.313568	3.924094	16.364495	-3.981324	6.198133	13.173120	0.744395	-8.400455	-1.481711	-0.894531	-0.020264	0.290527	0.166340	0.037364	0.170870	0.739303	-0.179120	-0.522924	-0.384573	19.451375	-65.639640	-67.581139
13409		17.673933	0.985062	17.178968	-7.995058	5.965485	12.740705	0.074751	-7.565791	-1.235337	-0.874268	-0.017822	0.350342	0.170131	0.008720	0.178313	0.716676	-0.190028	-0.551750	-0.381886	25.046984	-69.388620	-73.586798
13410		10.344444	-1.023375	17.290541	-11.210938	7.886725	4.985021	-0.227311	-6.806642	-1.168064	-0.851074	-0.035400	0.399414	0.097421	-0.010615	0.176302	0.703000	-0.193183	-0.572394	-0.375281	30.327655	-71.765194	-78.374263
13411		1.004674	-3.511473	15.139208	-12.602856	8.218387	-5.803377	-0.041257	-6.378772	-1.531790	-0.830566	-0.043945	0.454834	0.004944	-0.035134	0.151611	0.681456	-0.200807	-0.595905	-0.374421	39.524170	-74.267780	-88.010665
13412		5.348921	-6.859213	11.231296	-12.669990	2.070998	-3.738255	0.805724	-7.253783	-1.791186	-0.791748	-0.052246	0.508301	0.048758	-0.069500	0.113860	0.666468	-0.197408	-0.619027	-0.365591	50.595614	-75.804340	-97.898934
13413		32.436056	-6.521937	16.864910	-18.114775	0.384186	22.597772	1.400809	-5.201015	-1.358479	-0.775879	-0.056396	0.534912	0.319379	-0.068618	0.176526	0.649015	-0.197967	-0.640017	-0.360509	63.406910	-76.780009	-110.256406
13414		29.639584	-2.851233	19.510292	-17.662031	5.223892	20.650710	1.096928	-1.371249	-0.586410	-0.780762	-0.049805	0.525879	0.294962	-0.030455	0.196965	0.653680	-0.189745	-0.641190	-0.354365	62.868900	-76.592151	-108.453633
13415		16.130753	-1.603210	18.089000	-15.017923	7.925230	7.554680	0.659923	1.359451	-0.011818	-0.790039	-0.041016	0.499023	0.162531	-0.016636	0.179734	0.658625	-0.185136	-0.637908	-0.353568	60.425198	-76.216124	-105.550559
13416		0.433775	-3.496569	10.189851	-9.763140	4.399789	-8.561874	0.356376	2.367114	0.455473	-0.808350	-0.032471	0.474609	0.005623	-0.035135	0.101775	0.676748	-0.176560	-0.623168	-0.350001	50.781145	-75.250303	-94.884179
13417		-5.042421	-3.799639	5.784736	-6.743211	2.543793	-14.436762	0.515137	2.100774	0.552087	-0.815430	-0.023682	0.463379	-0.049708	-0.038284	0.058274	0.684673	-0.172849	-0.616434	-0.348361	46.923091	-74.696021	-90.584156
13418		-4.709158	-2.330752	3.864135	-4.539445	2.166723	-13.964554	0.649360	1.538473	0.473383	-0.826660	-0.026123	0.445557	-0.046737	-0.023544	0.038926	0.699806	-0.164982	-0.604564	-0.342863	40.561234	-73.594579	-83.107243
13419		-2.347802	-0.097435	3.881584	-3.010377	3.086304	-11.227041	0.512468	1.202884	0.411965	-0.831543	-0.014893	0.425537	-0.023242	-0.001122	0.038953	0.704556	-0.162368	-0.600878	-0.340857	38.768430	-73.214508	-80.930232
13420		-0.293128	0.956841	4.706676	-2.866908	3.714824	-8.747352	0.087082	1.232064	0.442479	-0.838623	-0.010742	0.409912	-0.002662	0.009542	0.047088	0.717452	-0.156684	-0.589413	-0.336609	33.883843	-72.032718	-75.243179
13421		0.639841	0.364352	5.464740	-3.737358	3.461989	-7.702780	-0.329853	1.525632	0.457886	-0.847656	-0.010742	0.394287	0.006806	0.003749	0.054590	0.722437	-0.156644	-0.583005	-0.337123	31.593100	-71.439058	-73.030079
13422		1.078110	-0.870428	5.779788	-4.715162	2.514938	-7.211337	-0.537389	1.927999	0.395573	-0.856689	-0.010986	0.367676	0.011355	-0.008527	0.057713	0.736263	-0.151248	-0.568327	-0.334732	27.102358	-69.740061	-67.964643
13423		1.210443	-1.426768	5.673863	-4.936717	1.976276	-7.089636	-0.547499	2.342655	0.288827	-0.865723	-0.008789	0.345459	0.012789	-0.014094	0.056630	0.742936	-0.150152	-0.558525	-0.336972	24.851451	-68.605522	-65.892247
13424		1.207113	-0.820799	5.595912	-4.400279	2.242722	-6.804246	-0.535251	2.695147	0.195953	-0.870361	-0.008789	0.321289	0.012832	-0.008046	0.055811	0.757642	-0.143387	-0.541033	-0.335711	21.351821	-66.361257	-61.851124
13425		1.910933	0.317085	5.487157	-3.347531	2.710167	-5.900214	-0.659497	3.004944	0.168088	-0.876953	-0.008789	0.287842	0.019928	0.003368	0.054565	0.765491	-0.141279	-0.528356	-0.338973	19.453263	-64.780725	-60.181235
13426		2.783525	0.451636	5.349852	-2.813843	2.249523	-4.955613	-0.875615	3.348180	0.198050	-0.881348	-0.015381	0.252686	0.028721	0.004777	0.053002	0.780678	-0.134912	-0.507629	-0.338606	16.542046	-62.122935	-56.903930
13427		3.699364	0.186764	5.180835	-2.468845	1.507057	-4.139084	-1.057168	3.717207	0.246150	-0.888184	-0.015625	0.214844	0.037945	0.002185	0.051098	0.789670	-0.133345	-0.491067	-0.342773	14.651495	-60.109036	-55.437016
13428		4.302160	-0.108413	4.923935	-2.040659	0.706367	-3.640497	-1.145255	4.074574	0.304386	-0.895264	-0.010986	0.174805	0.044014	-0.000739	0.048354	0.805319	-0.127379	-0.466743	-0.342617	12.166689	-57.038754	-52.722828
13429		4.481065	-0.149976	4.589297	-1.550565	0.289520	-3.594252	-1.173705	4.417679	0.378520	-0.897461	-0.010986	0.132568	0.045812	-0.001148	0.044896	0.815318	-0.125388	-0.446579	-0.346556	10.449624	-54.598816	-51.460738
13430		4.006424	0.078168	4.186839	-1.000086	0.271040	-4.111194	-1.182259	4.670240	0.464532	-0.899902	-0.006592	0.090332	0.041025	0.001120	0.040912	0.830722	-0.119686	-0.419373	-0.345981	8.385904	-51.222404	-49.247108
13431		3.603256	0.466386	3.850551	-0.461325	0.452279	-4.558684	-1.218751	4.791830	0.544010	-0.897949	-0.001953	0.039307	0.036927	0.004994	0.037598	0.840725	-0.117562	-0.396905	-0.349037	6.887399	-48.542200	-48.201372
13432		3.596917	0.874087	3.592141	0.245542	0.474808	-4.682967	-1.283019	4.812264	0.602930	-0.897949	-0.003906	-0.000732	0.036792	0.009077	0.034985	0.854655	-0.112852	-0.368629	-0.347766	5.162747	-45.120624	-46.429617
13433		3.807752	1.200266	3.685305	0.752731	0.528390	-4.458322	-1.360100	4.762592	0.637090	-0.894043	0.005127	-0.047607	0.038900	0.012372	0.035850	0.863508	-0.111522	-0.345437	-0.350129	3.829350	-42.428418	-45.629346
13434		4.517799	1.249247	4.087058	1.258994	0.213254	-3.726903	-1.453484	4.682464	0.633091	-0.878418	0.007813	-0.096436	0.046076	0.012929	0.039706	0.875384	-0.108037	-0.317385	-0.348278	2.358609	-39.118127	-44.229065
13435		5.663816	0.958380	4.385596	1.847489	-0.634871	-2.855393	-1.542953	4.633572	0.622302	-0.878662	0.014648	-0.132080	0.057602	0.010093	0.042452	0.882723	-0.107676	-0.293983	-0.350400	1.134932	-36.474933	-43.675592
13436		6.649456	0.621692	4.686414	2.463890	-1.477882	-2.177500	-1.586952	4.611984	0.670172	-0.861328	0.030518	-0.179199	0.067529	0.006805	0.045262	0.892717	-0.105273	-0.266124	-0.348069	-0.184946	-33.259436	-42.546226
13437		7.305364	0.096234	4.704369	2.851867	-2.378356	-1.957477	-1.594274	4.569063	0.778424	-0.843750	0.035400	-0.221436	0.074097	0.001615	0.045348	0.899045	-0.105442	-0.242463	-0.349016	-1.354994	-30.635318	-42.062087
13438		7.478645	-0.496513	4.749243	2.975556	-3.051450	-2.031159	-1.534847	4.465569	0.944384	-0.826416	0.051514	-0.252930	0.075844	-0.004253	0.045841	0.907395	-0.104082	-0.215445	-0.345521	-2.586787	-27.575279	-41.057189
13439		7.664467	-0.405911	5.208933	3.367956	-3.062739	-1.731642	-1.449601	4.259381	1.123690	-0.804199	0.058594	-0.286621	0.077751	-0.003255	0.050467	0.912926	-0.104483	-0.192971	-0.344109	-3.670072	-25.102812	-40.488461
13440		8.851422	0.447542	5.428334	5.127042	-3.167144	-1.346301	-1.433925	4.004485	1.316126	-0.786865	0.074707	-0.313721	0.089543	0.005443	0.052461	0.919560	-0.104598	-0.168333	-0.339313	-4.846679	-22.368810	-39.548800
13441		11.191463	0.759668	5.661815	7.333240	-4.315382	-0.568272	-1.502478	3.732507	1.488557	-0.765137	0.088379	-0.336182	0.112882	0.008849	0.054454	0.924230	-0.106402	-0.147802	-0.335608	-5.959959	-20.158875	-38.853792
13442		14.376403	0.527684	5.622585	10.005590	-6.411469	0.052413	-1.541117	3.538709	1.635338	-0.743164	0.102295	-0.358887	0.144676	0.006877	0.053622	0.929396	-0.108426	-0.125562	-0.329699	-7.162426	-17.751558	-37.943852
13443		17.355486	-0.833561	5.419626	11.866685	-9.251582	0.425748	-1.382873	3.460348	1.773089	-0.718994	0.118408	-0.381592	0.174521	-0.006430	0.051231	0.933544	-0.110238	-0.106211	-0.324134	-8.177778	-15.650487	-37.169011
13444		19.591428	-2.559377	5.721664	12.968975	-11.812386	0.926480	-0.910854	3.473918	1.854224	-0.696777	0.125488	-0.392822	0.197094	-0.023520	0.053910	0.937527	-0.110293	-0.086016	-0.318558	-8.989290	-13.388621	-36.476838
13445		22.543210	-1.951498	6.086147	16.147922	-12.960572	1.152553	-0.298417	3.650015	1.883321	-0.674561	0.130371	-0.417480	0.226663	-0.017298	0.056759	0.941733	-0.106665	-0.067370	-0.311804	-9.319863	-11.151666	-35.727170
13446		24.604982	0.163347	5.136338	19.519737	-12.869065	-0.588949	0.131057	4.025450	1.934262	-0.652832	0.148682	-0.440186	0.246986	0.003988	0.046400	0.944380	-0.102057	-0.047097	-0.309051	-9.530695	-8.744943	-35.511198
13447		23.148037	1.863379	2.780630	19.825215	-11.163547	-4.402172	0.421192	4.323025	1.906343	-0.628174	0.149170	-0.458252	0.231819	0.020791	0.022840	0.948293	-0.093810	-0.026345	-0.302069	-9.377047	-6.121662	-34.835004
13448		20.899826	6.091253	0.022220	20.536753	-7.161742	-8.925050	0.632365	4.185558	1.720035	-0.605957	0.154053	-0.485107	0.208411	0.062715	-0.003947	0.949333	-0.086690	-0.007596	-0.301982	-9.228056	-3.829086	-34.982547
13449		21.013008	11.289490	-3.032759	23.510223	-3.337643	-13.590200	0.517270	3.726218	1.325030	-0.583252	0.150146	-0.502686	0.208766	0.114366	-0.033931	0.951511	-0.078642	0.009890	-0.297228	-8.951414	-1.600427	-34.569744
13450		22.123684	14.678944	-5.180038	26.085997	-1.527369	-16.805873	0.089526	3.107885	0.614061	-0.572510	0.161621	-0.518555	0.219945	0.147490	-0.055159	0.951002	-0.074619	0.022146	-0.299228	-8.927203	-0.145161	-34.920546
13451		22.862884	14.867078	-6.496568	26.490495	-1.943397	-18.778688	-0.385240	2.483592	-0.416222	-0.554199	0.148682	-0.522949	0.228105	0.148067	-0.068086	0.949883	-0.072775	0.034380	-0.302067	-9.152467	1.223224	-35.379654
13452		23.389456	13.396613	-6.916009	25.913392	-3.675331	-19.263600	-0.639081	1.834731	-1.490344	-0.542969	0.153320	-0.536377	0.234233	0.131995	-0.071732	0.947680	-0.072982	0.039031	-0.308308	-9.349902	1.660419	-36.178193
13453		19.822200	1.888520	-7.944498	15.983342	-11.273508	-18.588895	0.142359	1.000945	-2.326035	-0.544434	0.128906	-0.533691	0.198023	0.016638	-0.080424	0.943874	-0.071213	0.042707	-0.319697	-9.313649	2.010728	-37.586996
13454		-3.579737	-11.904902	-21.269561	-12.123215	-9.100859	-29.229113	4.636069	-1.665063	-4.129997	-0.560791	0.083984	-0.514648	-0.036390	-0.113325	-0.215668	0.939709	-0.052230	0.020476	-0.337342	-6.429352	0.185821	-39.505302
13455		-0.535189	28.700347	16.885761	18.965821	23.548396	4.145383	2.657055	-4.772723	-3.864944	-0.575684	0.065918	-0.489746	-0.003922	0.284812	0.172547	0.933848	-0.048164	-0.007443	-0.354335	-4.863297	-2.753124	-41.440158
13456		-2.129203	-23.193667	33.551885	-17.046172	-12.242780	25.223055	-0.738798	-5.540081	0.651795	-0.600830	0.078613	-0.445557	-0.029835	-0.230785	0.335625	0.936482	-0.059378	-0.037195	-0.343646	-4.943702	-6.342645	-40.027556
13457		47.741690	-1.488832	24.874945	33.924108	-27.920329	21.320003	2.366203	-4.964160	-0.078997	-0.616211	0.069336	-0.429932	0.471044	-0.018109	0.260293	0.935772	-0.056791	-0.064507	-0.341972	-3.610603	-9.181923	-39.859021
13458		52.391711	19.700645	21.382228	50.029770	-15.085973	19.504586	1.723453	-1.535377	-0.334198	-0.618408	0.069336	-0.432129	0.522573	0.194257	0.219519	0.933899	-0.051877	-0.079959	-0.344599	-2.437109	-10.667050	-40.279477
13459		-0.231979	9.851644	8.208751	5.296451	8.855741	-2.195891	0.297655	-0.449191	-0.095681	-0.625488	0.080322	-0.432129	-0.002457	0.098395	0.082229	0.933628	-0.051223	-0.082591	-0.344809	-2.258257	-10.926150	-40.324482
13460		-10.584915	-7.938032	6.498450	-13.977477	1.688065	-5.447281	0.889064	-1.583720	-0.493384	-0.640869	0.071045	-0.429688	-0.106553	-0.079403	0.063790	0.932375	-0.048778	-0.098165	-0.344473	-1.369285	-12.512883	-40.404144
13461		23.555516	7.330524	11.021836	20.464489	-7.611383	6.103453	1.468062	-1.643748	-0.400420	-0.645508	0.071045	-0.427490	0.234781	0.072014	0.112682	0.931178	-0.044566	-0.108446	-0.345197	-0.478827	-13.458039	-40.623950
13462		7.467270	0.388450	4.867770	4.863678	-3.635824	-3.275746	-0.059230	0.083973	-0.188012	-0.649902	0.071045	-0.447510	0.074697	0.003829	0.048645	0.930607	-0.044058	-0.114164	-0.344957	-0.191262	-14.056595	-40.653892
13463		2.164979	-7.412445	12.533094	-5.542607	-5.001147	2.875000	0.520559	0.074814	-0.174412	-0.656982	0.079834	-0.447510	0.021632	-0.074469	0.125129	0.930460	-0.041407	-0.114751	-0.345487	0.131918	-14.013653	-40.756917
13464		6.568549	3.154322	10.342232	4.838429	-0.143644	1.876022	0.399216	0.179455	-0.313727	-0.659180	0.075195	-0.458496	0.065827	0.031234	0.103426	0.929164	-0.039217	-0.120322	-0.347332	0.633669	-14.527226	-41.073382
13465		5.866017	2.666943	8.955089	4.267689	-0.332393	0.355528	0.197489	0.176464	-0.188375	-0.666016	0.079590	-0.465332	0.058764	0.026526	0.089525	0.928980	-0.037880	-0.119881	-0.348122	0.774329	-14.424757	-41.183572
13466		6.511579	0.540392	7.613223	3.508994	-2.553673	-0.767275	0.226059	0.141810	-0.177818	-0.670654	0.083984	-0.472168	0.065174	0.005260	0.076092	0.928189	-0.036335	-0.125117	-0.348556	1.172317	-14.927379	-41.318167
13467		5.555624	2.724344	8.525339	4.055961	-0.184751	-0.092430	0.161657	0.185918	-0.121351	-0.677734	0.088379	-0.480957	0.055652	0.027141	0.085224	0.928122	-0.035185	-0.124558	-0.349052	1.282793	-14.819429	-41.387757
13468		4.436971	0.356204	9.289265	1.431681	-1.126061	0.325670	0.135028	0.112566	-0.072222	-0.691406	0.092529	-0.492188	0.044423	0.003483	0.092870	0.927566	-0.034125	-0.129535	-0.348823	1.607889	-15.314243	-41.434995
13469		4.532713	1.744604	9.176507	2.431459	-0.173465	0.279651	0.135281	0.026532	-0.052613	-0.697754	0.087891	-0.491943	0.045344	0.017372	0.091771	0.927514	-0.033418	-0.129658	-0.348984	1.693557	-15.298302	-41.465830
13470		4.086268	1.138890	9.171859	1.612615	-0.318476	0.158055	0.049500	-0.029321	0.007672	-0.707031	0.094482	-0.500977	0.040849	0.011368	0.091727	0.927063	-0.033024	-0.134837	-0.348258	1.947046	-15.843210	-41.449060
13471		4.540836	1.695523	9.002920	2.338821	-0.210637	0.138800	-0.004762	-0.063909	0.065305	-0.716309	0.101074	-0.500977	0.045374	0.016972	0.090043	0.927132	-0.033202	-0.135116	-0.347948	1.934108	-15.881280	-41.411541
13472		4.706109	1.065714	9.044192	1.947190	-0.741245	0.224225	-0.069295	-0.074675	0.090270	-0.723145	0.100830	-0.498779	0.047022	0.010710	0.090456	0.926885	-0.033423	-0.140017	-0.346644	2.097938	-16.423229	-41.313172
13473		4.930376	-0.066015	8.924856	1.396684	-1.747944	0.135175	-0.038194	-0.104981	0.009487	-0.737061	0.113770	-0.501221	0.049257	-0.000641	0.089275	0.926821	-0.033788	-0.140438	-0.346610	2.075194	-16.483827	-41.309879
13474		5.352129	-0.657768	8.440112	1.344573	-2.505088	-0.209038	0.019630	-0.088646	-0.078314	-0.740967	0.100586	-0.498779	0.053481	-0.006607	0.084424	0.926245	-0.033572	-0.145328	-0.346154	2.302524	-17.005331	-41.327471
13475		5.437415	0.840937	8.423379	2.375993	-1.427469	-0.140926	0.053951	-0.036074	-0.090659	-0.752441	0.104736	-0.498779	0.054363	0.008362	0.084246	0.926070	-0.033319	-0.145607	-0.346529	2.349706	-17.024247	-41.382732
13476		5.259312	0.836798	8.732860	2.085042	-1.242482	0.123724	0.075652	0.007695	-0.008498	-0.757324	0.113525	-0.501221	0.052597	0.008333	0.087330	0.925588	-0.032856	-0.149907	-0.346027	2.579051	-17.472214	-41.392477
13477		5.133333	0.767517	8.682826	1.956372	-1.229740	0.035764	0.121032	-0.018445	0.011364	-0.761719	0.108887	-0.498779	0.051325	0.007626	0.086838	0.925613	-0.032337	-0.150204	-0.345881	2.646665	-17.483523	-41.386291
13478		4.916852	0.385616	8.630670	1.483850	-1.368378	-0.079327	0.114913	-0.063823	-0.034533	-0.763916	0.113281	-0.494385	0.049142	0.003798	0.086325	0.925040	-0.031823	-0.154705	-0.345478	2.893297	-17.951058	-41.415762
13479		5.832622	0.914986	8.078666	2.613283	-1.638329	-0.293857	0.091215	-0.094108	-0.071980	-0.770752	0.111084	-0.492188	0.058291	0.009092	0.080818	0.924856	-0.031508	-0.155314	-0.345726	2.960015	-18.003338	-41.462108
13480		4.872472	0.509454	8.667089	1.428406	-1.220500	-0.035726	0.073659	-0.035345	-0.064827	-0.777588	0.115234	-0.492188	0.048711	0.005047	0.086681	0.924221	-0.031159	-0.159430	-0.345581	3.178216	-18.435302	-41.519007
13481		4.781510	0.204192	8.666050	1.157745	-1.401052	-0.081212	0.081227	-0.017057	-0.061139	-0.777588	0.115234	-0.494385	0.047808	0.001992	0.086665	0.924113	-0.030765	-0.159665	-0.345797	3.236830	-18.443718	-41.556624
13482		4.721573	0.296757	8.738168	1.082711	-1.262553	-0.016230	0.077868	0.020854	-0.090513	-0.781982	0.113037	-0.487793	0.047226	0.002912	0.087378	0.923453	-0.030332	-0.163331	-0.345886	3.450541	-18.822608	-41.639709
13483		5.125976	0.550698	8.660148	1.551207	-1.348042	0.054104	0.059703	0.051427	-0.106019	-0.777100	0.106445	-0.489746	0.051285	0.005454	0.086590	0.923319	-0.029881	-0.163219	-0.346335	3.505052	-18.790211	-41.702068
13484		5.436918	0.892921	8.466218	1.983321	-1.303542	0.005736	0.045551	0.081592	-0.114972	-0.781982	0.113037	-0.492188	0.054409	0.008879	0.084642	0.922646	-0.029514	-0.166369	-0.346662	3.694567	-19.114785	-41.807299
13485		5.261185	1.056162	8.603389	1.928650	-1.058911	0.085437	0.019909	0.113449	-0.096215	-0.779785	0.113037	-0.485596	0.052666	0.010528	0.086005	0.922575	-0.029146	-0.165901	-0.347107	3.723845	-19.047134	-41.861276
13486		5.570290	1.333721	8.244333	2.376287	-1.091788	-0.120566	-0.009887	0.131873	-0.084519	-0.781982	0.115234	-0.481201	0.055763	0.013318	0.082406	0.922015	-0.028973	-0.168573	-0.347321	3.868923	-19.328256	-41.941683
13487		3.764739	0.622077	8.497917	0.581190	-0.459034	-0.526874	-0.023111	0.138778	-0.075494	-0.779297	0.104248	-0.485352	0.037709	0.006216	0.084952	0.921995	-0.028775	-0.167912	-0.347710	3.869234	-19.246866	-41.981960
13488		2.969819	0.037765	9.016904	-0.555628	-0.297190	-0.340161	0.014704	0.097045	-0.069029	-0.781738	0.108398	-0.478760	0.029742	0.000361	0.090155	0.921485	-0.028545	-0.170632	-0.347758	4.019940	-19.531402	-42.043986
13489		3.577834	0.456490	8.999855	0.149834	-0.375472	-0.125416	0.042296	0.056921	-0.061827	-0.781982	0.113037	-0.483154	0.035805	0.004535	0.089989	0.921430	-0.028199	-0.170461	-0.348015	4.056242	-19.497318	-42.079300
13490		4.219715	0.447831	8.599437	0.658521	-0.841043	-0.282952	0.041207	0.026137	-0.057466	-0.779297	0.104004	-0.478516	0.042210	0.004448	0.085990	0.920905	-0.027992	-0.173349	-0.347995	4.211271	-19.801195	-42.136883
13491		4.684549	0.923943	8.709225	1.258063	-0.761608	0.010067	0.035856	0.029184	-0.047035	-0.779297	0.101807	-0.480713	0.046860	0.009213	0.087087	0.920851	-0.027736	-0.173292	-0.348185	4.241434	-19.783555	-42.164419
13492		4.883290	0.934630	8.717483	1.350236	-0.861446	0.094347	0.022278	0.050812	-0.031940	-0.779297	0.099609	-0.480713	0.048857	0.009329	0.087163	0.920410	-0.027602	-0.175884	-0.348064	4.373210	-20.058882	-42.203252
13493		4.919441	0.877639	8.407637	1.435142	-0.987299	-0.188494	0.013899	0.071197	-0.032922	-0.776855	0.099609	-0.482910	0.049226	0.008762	0.084059	0.920415	-0.027386	-0.175595	-0.348214	4.387319	-20.017867	-42.220259
13494		4.535557	0.901857	8.657860	1.063797	-0.669472	-0.078043	0.015903	0.088192	-0.028969	-0.772461	0.099854	-0.482910	0.045395	0.009005	0.086559	0.920035	-0.027219	-0.177884	-0.348070	4.508672	-20.259112	-42.251423
13495		4.713853	0.589174	8.589483	1.010041	-1.038048	-0.104494	0.021070	0.089913	-0.026341	-0.774658	0.097656	-0.478516	0.047178	0.005876	0.085874	0.920069	-0.026943	-0.177521	-0.348185	4.525246	-20.207744	-42.263459
13496		4.944442	0.726043	8.461349	1.258047	-1.090400	-0.127781	0.025382	0.097327	-0.030807	-0.779053	0.095215	-0.485107	0.049487	0.007242	0.084590	0.919715	-0.026721	-0.179661	-0.348041	4.646171	-20.430657	-42.293327
13497		4.781230	0.698889	8.786131	1.030783	-0.959824	0.115098	0.014177	0.090109	-0.033433	-0.778809	0.090820	-0.487305	0.047853	0.006975	0.087840	0.919737	-0.026470	-0.179287	-0.348195	4.660320	-20.378899	-42.309575
13498		4.815657	0.952389	8.631017	1.227567	-0.804928	0.007558	0.029183	0.073778	-0.040818	-0.778809	0.088623	-0.487061	0.048190	0.009501	0.086294	0.919353	-0.026277	-0.181433	-0.348111	4.780139	-20.603342	-42.347404
13499		4.881403	0.847083	8.544896	1.234105	-0.948303	-0.058786	0.010473	0.056958	-0.052594	-0.778809	0.086426	-0.484863	0.048841	0.008454	0.085435	0.919312	-0.026082	-0.181208	-0.348351	4.796907	-20.569638	-42.376939
13500		4.771950	0.755624	8.531652	1.063055	-0.937210	-0.110981	-0.001064	0.033924	-0.068797	-0.778809	0.086426	-0.482666	0.047737	0.007540	0.085308	0.918862	-0.026070	-0.183388	-0.348399	4.901649	-20.804624	-42.430160
13501		4.553305	0.673376	8.637499	0.824654	-0.847376	-0.097014	-0.003175	0.015024	-0.092796	-0.783203	0.088623	-0.496094	0.045543	0.006714	0.086371	0.918711	-0.025974	-0.183338	-0.348831	4.920213	-20.792905	-42.486425
13502		3.810613	0.429904	8.715004	0.088622	-0.534365	-0.306717	-0.008413	-0.008573	-0.120482	-0.785156	0.075195	-0.486816	0.038105	0.004280	0.087151	0.918142	-0.026029	-0.185605	-0.349126	5.028182	-21.038695	-42.573133
13503		4.084410	0.403849	8.490899	0.326650	-0.769220	-0.418942	0.015216	-0.050086	-0.139806	-0.787354	0.077393	-0.493652	0.040826	0.004003	0.084920	0.917850	-0.025917	-0.185893	-0.349748	5.069153	-21.061717	-42.661746
13504		3.994152	0.512408	8.674087	0.228943	-0.581756	-0.269903	0.032676	-0.107310	-0.138237	-0.791504	0.070557	-0.482178	0.039898	0.005082	0.086763	0.917170	-0.025948	-0.188570	-0.350097	5.201544	-21.350352	-42.766350
13505		3.585195	-0.012859	8.839137	-0.463355	-0.687432	-0.310222	0.061365	-0.174247	-0.120346	-0.800781	0.072510	-0.486816	0.035775	-0.000177	0.088423	0.916799	-0.025859	-0.189506	-0.350569	5.267780	-21.445041	-42.850315
13506		3.658539	-0.074196	9.273286	-0.777034	-0.537416	0.111606	0.096415	-0.230934	-0.138981	-0.797852	0.057129	-0.488525	0.036478	-0.000812	0.092775	0.876592	-0.044859	-0.189220	-0.440193	5.434578	-21.791522	-54.375229
13507		4.186833	0.253566	9.048649	-0.196383	-0.779401	0.128428	0.107596	-0.321434	-0.170771	-0.808838	0.052490	-0.488525	0.041725	0.002451	0.090555	0.875931	-0.044935	-0.190918	-0.440768	5.543046	-21.967120	-54.499626
13508		3.939260	0.177558	9.508734	-0.682966	-0.345534	0.452755	0.112580	-0.405597	-0.235808	-0.817627	0.047852	-0.477295	0.039202	0.001676	0.095168	0.822293	-0.066103	-0.188842	-0.532732	5.741280	-22.395432	-67.012719
13509		3.252470	-0.151958	9.956746	-1.375203	0.276214	0.568576	0.099435	-0.575003	-0.313694	-0.821777	0.036621	-0.477051	0.032236	-0.001620	0.099660	0.820939	-0.066933	-0.191588	-0.533735	5.887030	-22.706687	-67.242955
13510		3.592484	0.772843	11.085489	-0.571736	0.980205	1.810679	0.092049	-0.917266	-0.353952	-0.839600	0.033936	-0.468018	0.035429	0.007614	0.111022	0.754272	-0.090719	-0.188471	-0.622352	6.113599	-23.405435	-80.319809
13511		2.250976	2.618528	12.748753	0.690580	3.333347	2.949106	-0.006865	-1.481766	-0.308839	-0.850342	0.020508	-0.440918	0.021605	0.026156	0.127649	0.751886	-0.095068	-0.194187	-0.622833	6.228324	-24.232258	-80.612390
13512		3.417044	1.382475	13.498094	0.050063	2.649090	3.926229	-0.151637	-2.237529	-0.178547	-0.861328	0.013428	-0.414063	0.032670	0.013898	0.135342	0.675629	-0.124861	-0.191093	-0.701013	6.319044	-25.675481	-93.554082
13513		3.067474	0.796052	14.253164	-0.546580	3.673722	4.307632	-0.135832	-3.132285	-0.026317	-0.878906	0.008545	-0.374023	0.028439	0.008054	0.142983	0.672372	-0.136266	-0.201205	-0.699188	6.348478	-27.459373	-93.792741
13514		1.923891	-0.525849	16.477378	-0.557810	6.586270	5.410713	-0.285967	-4.158477	0.027255	-0.898926	0.005859	-0.324951	0.015808	-0.005020	0.165134	0.590590	-0.174293	-0.198123	-0.762609	6.384406	-29.990332	-106.200999
13515		1.611816	-0.830259	17.089300	-0.530597	7.920744	5.426821	-0.115879	-5.304075	-0.000492	-0.916992	0.007568	-0.262695	0.011579	-0.008203	0.171245	0.585021	-0.194805	-0.213287	-0.757833	6.528482	-33.011953	-106.602675
13516		0.910706	-0.105727	18.215623	0.642897	9.861479	5.512718	0.085187	-6.560545	-0.082059	-0.932373	0.000244	-0.200439	0.003127	-0.001137	0.182324	0.577337	-0.219848	-0.233759	-0.750803	6.976138	-36.872796	-107.210454
13517		0.578102	-1.960644	19.048472	-0.755787	12.098622	5.015945	0.445259	-7.813675	-0.232447	-0.945313	-0.004639	-0.115723	-0.001685	-0.020031	0.190472	0.567376	-0.247458	-0.258070	-0.741787	7.807788	-41.297416	-108.123143
13518		2.032421	-5.129342	18.496869	-3.990740	12.621736	4.227071	1.102924	-8.586121	-0.779590	-0.944824	-0.015869	-0.029053	0.012169	-0.052373	0.185321	0.554104	-0.275352	-0.287965	-0.730908	9.629864	-46.189995	-109.782581
13519		9.407244	-3.493712	20.214315	-3.854434	10.251752	9.910517	1.510032	-9.044295	-1.307281	-0.941650	-0.033936	0.057861	0.084580	-0.037056	0.205837	0.537789	-0.302043	-0.320035	-0.719118	12.462826	-51.135474	-112.399192
13520		13.962324	-3.917177	19.048422	-5.411679	8.753773	11.793309	1.762396	-8.871165	-1.737514	-0.936523	-0.047363	0.140381	0.130650	-0.042045	0.196051	0.519011	-0.326574	-0.352772	-0.706773	16.535680	-55.874716	-116.230398
13521		18.007710	-2.067230	19.708616	-4.651752	8.975702	14.972991	1.909405	-8.230352	-1.986820	-0.922607	-0.058350	0.213867	0.171544	-0.024331	0.204043	0.500101	-0.346895	-0.383793	-0.694454	21.822220	-59.959894	-121.173175
13522		18.075668	-0.754749	20.380396	-3.461884	11.298509	14.736673	1.671597	-7.044937	-1.953525	-0.899414	-0.073730	0.276123	0.173337	-0.011003	0.209915	0.481593	-0.363889	-0.410128	-0.683702	27.808503	-63.203335	-126.998932
13523		4.486119	-4.051100	16.322647	-3.414260	14.404964	-0.665026	1.592645	-6.605103	-1.902531	-0.880859	-0.084473	0.331787	0.039051	-0.042206	0.164249	0.464138	-0.378511	-0.434691	-0.672569	34.816800	-65.875986	-133.746107
13524		-3.466535	-4.977681	12.617511	-2.360564	13.783301	-10.411096	1.908492	-6.741840	-1.902896	-0.855713	-0.095459	0.383057	-0.039359	-0.050610	0.124421	0.445564	-0.393191	-0.459455	-0.660132	43.648181	-68.209826	-142.309645
13525		18.451440	-1.532828	15.564172	-5.156962	11.658206	10.738309	1.344539	-6.161372	-1.088494	-0.828613	-0.092773	0.427246	0.179516	-0.017385	0.161112	0.430226	-0.407837	-0.479533	-0.647011	52.424821	-70.112842	-150.872256
13526		18.301225	-2.303313	20.130358	-5.146246	17.315976	10.658273	0.388422	-3.665162	-0.318934	-0.817383	-0.094727	0.440430	0.179246	-0.023716	0.204566	0.420259	-0.418980	-0.488248	-0.639885	57.736618	-71.187399	-156.477368
13527		16.128538	-3.408871	20.882334	-5.264330	19.020923	8.028345	-0.249043	-1.319403	0.363941	-0.822266	-0.085938	0.442627	0.159964	-0.033536	0.209924	0.417662	-0.424611	-0.489461	-0.636940	59.197707	-71.761396	-158.168203
13528		5.986222	-7.905011	16.047034	-7.003825	16.363887	-3.567846	-0.366047	0.545881	0.831364	-0.831543	-0.077148	0.431152	0.060627	-0.078505	0.160450	0.419870	-0.426773	-0.483872	-0.638311	57.148564	-72.018349	-156.518224
13529		-1.232393	-8.350533	11.557924	-6.026242	12.917728	-11.095996	0.166988	1.484696	1.035227	-0.836182	-0.070557	0.413330	-0.011033	-0.083661	0.115595	0.427097	-0.424180	-0.479071	-0.638867	54.053990	-72.028120	-153.163790
13530		-4.435279	-5.371802	8.768559	-2.755509	10.145582	-13.670781	0.654410	1.763850	1.146767	-0.845703	-0.059570	0.393311	-0.043268	-0.054256	0.087893	0.435187	-0.421140	-0.472983	-0.639953	50.359551	-71.932580	-149.240362
13531		-4.314842	-1.990972	7.032791	0.077184	7.893329	-12.931690	0.724574	1.828174	1.242014	-0.846436	-0.041748	0.364014	-0.042378	-0.020430	0.070644	0.444973	-0.416631	-0.468687	-0.639335	46.945685	-71.775869	-145.210596
13532		-2.732393	0.439661	6.419500	1.859042	6.655563	-10.868583	0.399328	1.971609	1.299319	-0.855713	-0.032959	0.348389	-0.026717	0.004093	0.064469	0.453488	-0.413576	-0.460837	-0.641041	42.774817	-71.478681	-140.925948
13533		-1.338045	1.244320	6.277351	2.214095	6.129077	-9.288578	-0.108505	2.218350	1.279903	-0.869873	-0.020020	0.328125	-0.012763	0.012394	0.062911	0.462433	-0.409635	-0.452786	-0.642916	38.639799	-70.994455	-136.624279
13534		-0.320188	0.753796	6.287605	1.508024	5.963875	-8.276199	-0.519334	2.539391	1.160119	-0.876953	-0.008789	0.299072	-0.002448	0.007686	0.062890	0.469954	-0.406068	-0.440955	-0.647928	33.997763	-70.163146	-132.327750
13535		1.047057	0.019270	6.380037	0.496865	5.771111	-6.941144	-0.732628	2.916902	0.927262	-0.879395	-0.006592	0.263428	0.011398	0.000477	0.063637	0.477836	-0.400342	-0.429802	-0.653199	29.989031	-69.028105	-128.498477
13536		2.590163	-0.098259	6.151024	0.047416	5.011424	-5.404457	-0.816560	3.365061	0.648119	-0.879639	0.000244	0.232178	0.026934	-0.000646	0.061066	0.484741	-0.393219	-0.415939	-0.661362	26.108555	-67.423146	-125.109586
13537		3.146857	0.355907	5.624114	0.306562	4.087130	-4.827099	-0.893787	3.799255	0.380543	-0.893311	0.002197	0.194580	0.032522	0.003870	0.055613	0.492044	-0.383546	-0.402959	-0.669634	23.062098	-65.535457	-122.345704
13538		2.885455	1.171427	5.011488	1.095981	3.244525	-5.008543	-1.062143	4.111706	0.177870	-0.897949	0.000000	0.156738	0.029865	0.012004	0.049445	0.498069	-0.373093	-0.387116	-0.680345	20.184402	-63.289078	-120.104883
13539		2.901579	1.727832	4.573983	1.573157	2.517290	-4.964074	-1.330382	4.267055	0.051982	-0.897949	0.000244	0.112549	0.029977	0.017587	0.044991	0.503893	-0.361908	-0.371783	-0.690574	17.862683	-60.988837	-118.341077
13540		3.452762	1.735984	4.296104	1.428499	1.780474	-4.504669	-1.623483	4.345892	-0.013143	-0.897949	-0.004150	0.070313	0.035449	0.017701	0.042055	0.508211	-0.351119	-0.353524	-0.702465	15.517635	-58.498649	-116.957623
13541		4.339958	1.424940	4.047216	0.883848	0.957249	-3.851053	-1.860337	4.398696	-0.069449	-0.902100	-0.012939	0.028320	0.044279	0.014604	0.039370	0.512326	-0.340183	-0.335846	-0.713446	13.529089	-56.050463	-115.860984
13542		4.871822	1.021477	4.011897	0.363259	0.448825	-3.446202	-2.027257	4.438862	-0.100763	-0.895508	-0.010498	-0.011719	0.049596	0.010588	0.038919	0.515224	-0.329379	-0.315798	-0.725483	11.507229	-53.449383	-115.045110
13543		5.509589	0.805582	4.067374	-0.003741	-0.111575	-2.918747	-2.134122	4.489061	-0.089709	-0.886475	-0.012451	-0.060547	0.055993	0.008455	0.039335	0.518308	-0.318360	-0.296554	-0.736247	9.739257	-50.913515	-114.355014
13544		6.224868	1.104026	4.318389	0.127366	-0.786791	-2.198936	-2.235940	4.539397	0.014863	-0.882324	-0.005615	-0.104980	0.063205	0.011516	0.041629	0.520771	-0.307389	-0.275009	-0.747449	7.849005	-48.240624	-113.786502
13545		7.493882	1.133383	4.037625	-0.245377	-2.170520	-1.508569	-2.347902	4.629025	0.221245	-0.871338	-0.005371	-0.151611	0.075831	0.011877	0.038491	0.524174	-0.296413	-0.253759	-0.756959	6.026668	-45.624659	-113.133617
13546		8.458787	0.962772	3.629526	-0.755866	-3.464182	-1.265120	-2.390708	4.728181	0.535347	-0.851563	0.006348	-0.187500	0.085385	0.010272	0.034163	0.527863	-0.285325	-0.230104	-0.766161	4.018100	-42.854277	-112.445886
13547		9.033102	0.875813	3.144605	-1.083346	-4.580316	-1.441385	-2.301300	4.786971	0.969517	-0.841064	0.022217	-0.234619	0.091002	0.009543	0.029166	0.533606	-0.274082	-0.207198	-0.772795	2.079742	-40.146425	-111.510842
13548		9.277193	1.194087	3.093789	-0.833636	-5.346744	-1.581132	-2.062408	4.727846	1.454610	-0.817139	0.042725	-0.270752	0.093375	0.012922	0.028605	0.540456	-0.262677	-0.183330	-0.778009	0.096154	-37.365173	-110.459793
13549		11.220816	2.318441	3.311358	-0.196978	-7.523200	-0.561938	-1.773464	4.643647	1.850401	-0.797607	0.061035	-0.306641	0.112711	0.024503	0.030287	0.549388	-0.251019	-0.161398	-0.780457	-1.664600	-34.691619	-109.194232
13550		15.085314	3.210763	3.499214	-0.248757	-11.287273	1.259574	-1.521968	4.709027	2.165585	-0.771729	0.086182	-0.344971	0.151256	0.033991	0.031180	0.558873	-0.238428	-0.138692	-0.782034	-3.346664	-31.866413	-107.942124
13551		18.859074	3.986216	3.687087	-0.262382	-15.143413	2.663577	-1.277542	4.879370	2.416353	-0.740967	0.102295	-0.381104	0.188909	0.042358	0.031999	0.569960	-0.224512	-0.117138	-0.781677	-4.773583	-28.980958	-106.570311
13552		22.558795	3.167339	3.306372	-1.795543	-18.878952	3.228678	-0.953056	5.071468	2.600055	-0.717041	0.120605	-0.421631	0.225888	0.034748	0.027177	0.581146	-0.208849	-0.095203	-0.780761	-6.003265	-25.898305	-105.295366
13553		25.336242	2.285476	1.782991	-3.282169	-22.352399	2.008456	-0.416868	5.194647	2.680310	-0.686279	0.143555	-0.446533	0.253374	0.026279	0.011196	0.593395	-0.190978	-0.075652	-0.778259	-6.782548	-22.770684	-103.984207
13554		25.407374	3.602708	-0.395593	-2.133243	-24.146420	-1.393011	0.179340	5.071511	2.765435	-0.650879	0.151123	-0.475830	0.253335	0.039541	-0.010352	0.605315	-0.171884	-0.058153	-0.775027	-7.196225	-19.683960	-102.768573
13555		24.053230	6.650667	-2.640421	1.114209	-24.702402	-5.550150	0.561688	4.557264	2.831213	-0.617676	0.165039	-0.505127	0.238876	0.069980	-0.031667	0.617872	-0.153295	-0.044092	-0.769929	-7.297286	-16.890257	-101.420701
13556		23.738900	9.960804	-4.633725	4.528599	-25.748172	-9.015716	0.566197	3.756709	2.732021	-0.597900	0.174316	-0.523193	0.235075	0.102969	-0.050479	0.628902	-0.138070	-0.032457	-0.764438	-7.364235	-14.590896	-100.167786
13557		24.303640	11.599854	-5.888133	6.370186	-26.783184	-11.188825	0.200885	2.816782	2.377547	-0.584717	0.187988	-0.534668	0.240774	0.118931	-0.062165	0.638477	-0.127043	-0.022729	-0.758743	-7.527439	-12.815352	-98.992669
13558		25.242690	9.490823	-5.735188	4.625726	-27.142826	-11.224355	-0.174866	1.856647	1.611803	-0.560547	0.201904	-0.548340	0.251104	0.096884	-0.059771	0.644419	-0.121335	-0.015463	-0.754826	-7.808911	-11.718404	-98.220509
13559		27.425898	7.756956	-5.209285	2.939561	-28.815497	-10.519600	-0.385575	1.171188	0.635791	-0.549561	0.204346	-0.555176	0.273699	0.078338	-0.053847	0.646660	-0.118212	-0.009856	-0.753499	-8.083611	-11.004838	-97.947003
13560		24.379148	3.590703	-5.520388	-0.740875	-25.212216	-11.038883	-0.270984	0.601611	-0.164735	-0.554443	0.213135	-0.548584	0.243653	0.035631	-0.055985	0.645951	-0.117640	-0.007754	-0.754220	-8.210735	-10.805162	-98.065419
13561		-0.113780	-9.009183	-10.354060	-10.402732	-0.144935	-18.764596	2.547521	-1.642763	-1.692477	-0.562256	0.186279	-0.548096	-0.001036	-0.088754	-0.104686	0.640906	-0.115533	-0.023670	-0.758506	-6.582473	-11.864879	-98.922449
13562		3.645258	-14.293829	15.754590	-12.549580	2.423702	7.574339	3.920415	-3.152283	-3.060966	-0.588135	0.156982	-0.538330	0.031769	-0.146507	0.155222	0.630871	-0.115486	-0.051233	-0.765532	-3.975192	-13.972665	-100.529173
13563		-3.113424	9.929035	24.993848	12.783900	6.942178	13.018943	3.102043	-3.123893	-2.628725	-0.609863	0.138672	-0.522461	-0.033774	0.095836	0.250929	0.621593	-0.116957	-0.074468	-0.770972	-1.821139	-15.838015	-101.991983
13564		7.503399	-0.088659	14.966607	-0.253244	-2.741964	6.700312	1.035427	-4.389887	0.224197	-0.627686	0.133789	-0.500000	0.071727	-0.001585	0.151258	0.621201	-0.131591	-0.092707	-0.766941	-1.286127	-18.483120	-101.777685
13565		39.967394	-0.215056	27.137460	-5.974442	-28.001676	29.094461	2.878425	-3.450609	-0.733624	-0.647461	0.120117	-0.490723	0.394893	-0.007576	0.278133	0.618520	-0.135519	-0.114930	-0.765414	0.507305	-20.464624	-102.209279
13566		24.605277	22.101483	14.545923	17.602647	-21.972570	12.832707	1.181875	-0.577809	-0.249274	-0.656494	0.119873	-0.497314	0.245903	0.219841	0.147471	0.617872	-0.134962	-0.122279	-0.764897	1.244551	-20.950998	-102.368615
13567		-5.666419	1.559945	6.947965	3.035685	7.330304	-5.355496	0.721499	-1.062570	-0.382201	-0.665283	0.115234	-0.492676	-0.057003	0.015458	0.069233	0.616232	-0.136571	-0.128587	-0.764900	1.749468	-21.555692	-102.620679
13568		13.311118	2.052795	11.518410	-0.181068	-8.134087	5.931170	1.317100	-1.331553	-0.313528	-0.678711	0.119385	-0.492676	0.132371	0.019557	0.116198	0.615210	-0.138281	-0.139019	-0.763590	2.615209	-22.472007	-102.804147
13569		11.559553	11.231746	6.767523	8.874602	-10.114131	1.346181	0.083239	-0.286539	-0.208958	-0.689941	0.114746	-0.494873	0.115616	0.112168	0.067888	0.614267	-0.138986	-0.140374	-0.763973	2.715978	-22.632372	-102.942081
13570		3.991594	-7.347461	9.134292	-7.654319	1.469647	-0.189551	0.217820	-0.144262	-0.090690	-0.698975	0.119141	-0.497070	0.039817	-0.073592	0.091292	0.614249	-0.139662	-0.142932	-0.763389	2.902395	-22.881348	-102.944822
13571		5.835713	-0.369222	10.061639	-1.206931	-1.241533	1.695146	0.302660	0.059433	-0.165884	-0.710205	0.118896	-0.503662	0.058384	-0.003893	0.100593	0.613866	-0.138399	-0.144032	-0.763721	3.115356	-22.844420	-103.046089
13572		5.384833	0.710862	9.511257	-0.110014	-1.241382	1.069065	0.269655	0.081936	-0.117812	-0.714844	0.123291	-0.503662	0.053891	0.006949	0.095100	0.613823	-0.138070	-0.146007	-0.763440	3.326724	-22.958276	-103.075590
13573		6.848165	0.417205	7.855046	-0.783040	-3.146237	0.099989	0.205462	0.081157	-0.108294	-0.721680	0.123047	-0.510498	0.068516	0.004054	0.078527	0.613607	-0.137064	-0.146630	-0.763675	3.469808	-22.910378	-103.140085
13574		5.996714	1.886310	8.296603	0.823808	-2.485486	0.261835	0.204480	0.139224	-0.083048	-0.730713	0.125244	-0.508301	0.060033	0.018753	0.082943	0.613687	-0.136733	-0.148137	-0.763379	3.633892	-22.990479	-103.147076
13575		5.638558	0.217664	8.760302	-0.742580	-1.651197	0.449169	0.174033	0.116571	-0.075689	-0.735352	0.127197	-0.512695	0.056437	0.002079	0.087572	0.613600	-0.135712	-0.148510	-0.763559	3.750474	-22.923363	-103.189667
13576		4.726961	1.686464	9.122828	0.876912	-0.963550	0.517699	0.151976	0.045447	-0.062200	-0.744385	0.127197	-0.508057	0.047296	0.016781	0.091230	0.613658	-0.135901	-0.150077	-0.763173	3.880884	-23.055532	-103.187164
13577		4.065156	2.025581	9.304454	1.341648	-0.365894	0.447305	0.043858	-0.013400	0.031409	-0.746826	0.135986	-0.512695	0.040642	0.020242	0.093052	0.613794	-0.135856	-0.150279	-0.763031	3.898986	-23.066873	-103.168507
13578		3.896608	1.129475	9.426451	0.509262	0.049003	0.436970	-0.052657	-0.111094	0.076841	-0.758057	0.133545	-0.514893	0.038909	0.011335	0.094283	0.614143	-0.137333	-0.151436	-0.762257	3.881841	-23.289246	-103.084199
13579		4.688718	0.137111	9.064963	-0.624765	-0.593555	0.357552	-0.055001	-0.148114	0.019832	-0.762695	0.140137	-0.506104	0.046820	0.001401	0.090684	0.614064	-0.138097	-0.151684	-0.762133	3.848336	-23.377274	-103.078390
13580		4.309275	-0.492512	8.782381	-1.160846	-0.201898	-0.088784	-0.023701	-0.165896	-0.046557	-0.769287	0.135498	-0.508301	0.043019	-0.004925	0.087860	0.613911	-0.139575	-0.153172	-0.761689	3.878048	-23.621541	-103.074569
13581		5.850909	0.441756	8.125628	-0.581668	-2.012390	-0.011359	0.006084	-0.176838	-0.066349	-0.771240	0.128662	-0.497070	0.058439	0.004396	0.081308	0.613523	-0.140195	-0.153801	-0.761761	3.901642	-23.722770	-103.123815
13582		4.706910	0.878684	8.993948	0.107723	-0.684730	0.352829	-0.016515	-0.137258	-0.043890	-0.776123	0.139893	-0.499512	0.047009	0.008784	0.089971	0.613387	-0.141536	-0.155197	-0.761339	3.932837	-23.947838	-103.119803
13583		4.753065	0.138551	8.805031	-0.628106	-0.640857	0.153965	-0.022398	-0.156478	-0.054358	-0.778320	0.135254	-0.490479	0.047462	0.001382	0.088087	0.613038	-0.142175	-0.155648	-0.761409	3.937075	-24.037993	-103.160897
13584		5.431273	0.355489	8.452463	-0.561751	-1.391751	0.127970	-0.018739	-0.162561	-0.075449	-0.782959	0.141846	-0.494873	0.054245	0.003542	0.084568	0.612752	-0.143574	-0.157108	-0.761077	3.974916	-24.272580	-103.179209
13585		4.882449	0.959777	8.583288	0.147856	-0.955995	0.061345	-0.030519	-0.139098	-0.067096	-0.780762	0.141846	-0.490479	0.048768	0.009595	0.085865	0.612361	-0.144162	-0.157485	-0.761203	3.977790	-24.352396	-103.227728
13586		5.412258	0.546302	8.285746	-0.369951	-1.430004	-0.011526	-0.035089	-0.132364	-0.059079	-0.782959	0.139648	-0.481689	0.054069	0.005462	0.082892	0.612142	-0.145493	-0.158759	-0.760861	4.001302	-24.567584	-103.235478
13587		5.149193	0.537049	8.360157	-0.320689	-1.152035	-0.052318	-0.020842	-0.110626	-0.056802	-0.785156	0.137451	-0.477051	0.051447	0.005365	0.083629	0.611819	-0.145951	-0.159079	-0.760967	4.006823	-24.631644	-103.276443
13588		4.650906	0.248662	8.528849	-0.491875	-0.549887	-0.123017	-0.003175	-0.075510	-0.056406	-0.789551	0.137207	-0.479248	0.046478	0.002475	0.085306	0.611673	-0.146958	-0.160281	-0.760638	4.046401	-24.812003	-103.280907
13589		5.099282	0.174544	8.533916	-0.660148	-0.921146	0.065397	0.024516	-0.062564	-0.064606	-0.789307	0.132813	-0.479248	0.050967	0.001719	0.085355	0.611390	-0.147088	-0.160633	-0.760766	4.079315	-24.848367	-103.324803
13590		4.848904	0.505149	8.528008	-0.287520	-0.740229	-0.021704	0.040927	-0.027624	-0.065992	-0.789551	0.137207	-0.474854	0.048479	0.005018	0.085288	0.611272	-0.147757	-0.161837	-0.760475	4.144724	-24.997849	-103.334300
13591		4.883845	0.421173	8.553445	-0.382832	-0.739446	0.010622	0.050199	-0.015894	-0.068037	-0.782715	0.132813	-0.470459	0.048833	0.004174	0.085539	0.611033	-0.147629	-0.162148	-0.760627	4.192569	-25.007453	-103.378369
13592		5.268113	0.789581	8.409297	-0.111946	-1.189106	0.069935	0.042006	0.010130	-0.079328	-0.789551	0.135010	-0.465820	0.052689	0.007857	0.084092	0.610894	-0.148125	-0.163227	-0.760411	4.260729	-25.131708	-103.395169
13593		4.862922	0.775344	8.509330	-0.045340	-0.787308	-0.012893	0.025081	0.039422	-0.070634	-0.789307	0.130615	-0.468018	0.048649	0.007726	0.085085	0.610671	-0.147861	-0.163276	-0.760631	4.293909	-25.109646	-103.438346
13594		4.504711	0.526383	8.668715	-0.213472	-0.334867	-0.037289	0.025041	0.054780	-0.068789	-0.782471	0.126221	-0.468018	0.045073	0.005237	0.086675	0.610597	-0.148232	-0.164131	-0.760434	4.348379	-25.206158	-103.446610
13595		4.333844	0.200252	8.842995	-0.498206	-0.046877	0.024510	0.035007	0.036129	-0.062688	-0.782715	0.130615	-0.474854	0.043355	0.001973	0.088422	0.610409	-0.147957	-0.164223	-0.760619	4.385256	-25.186387	-103.484935
13596		4.693382	0.865353	8.689523	0.067224	-0.543580	0.086024	0.043463	0.044883	-0.066417	-0.789307	0.130615	-0.468018	0.046956	0.008619	0.086887	0.610349	-0.148293	-0.165149	-0.760401	4.448833	-25.285042	-103.492628
13597		4.755302	0.479010	8.476671	-0.335958	-0.615505	-0.106784	0.038045	0.051737	-0.067392	-0.784668	0.124023	-0.472412	0.047577	0.004758	0.084755	0.610158	-0.147947	-0.165209	-0.760609	4.488458	-25.256208	-103.533156
13598		5.306829	0.847238	8.357922	-0.101232	-1.207782	0.049671	0.050552	0.047205	-0.076346	-0.791260	0.123779	-0.470215	0.053091	0.008431	0.083569	0.610068	-0.148227	-0.166143	-0.760422	4.558234	-25.350091	-103.547192
13599		5.129537	0.787658	8.480705	-0.128093	-0.991079	0.079545	0.040685	0.078827	-0.077677	-0.786621	0.119629	-0.472168	0.051332	0.007839	0.084788	0.609863	-0.147762	-0.166139	-0.760679	4.601612	-25.305366	-103.592822
13600		5.222926	1.024528	8.338268	0.074752	-1.166844	0.010154	0.031641	0.056689	-0.071444	-0.781982	0.117432	-0.472168	0.052257	0.010213	0.083369	0.609788	-0.148055	-0.166955	-0.760503	4.658767	-25.391889	-103.603328
13601		5.252514	0.870376	8.511148	-0.084526	-1.091459	0.166674	0.011829	0.066128	-0.049415	-0.788574	0.112793	-0.478760	0.052555	0.008686	0.085095	0.609657	-0.147750	-0.166860	-0.760688	4.678276	-25.355791	-103.631709
13602		4.752806	0.593187	8.636174	-0.247721	-0.528699	0.045489	-0.005340	0.076732	-0.028240	-0.795410	0.112793	-0.480957	0.047562	0.005927	0.086343	0.609737	-0.148103	-0.167430	-0.760429	4.701950	-25.430859	-103.613964
13603		4.601761	0.701943	8.630521	-0.112281	-0.428162	-0.016827	0.001241	0.101500	-0.026128	-0.797363	0.105957	-0.485352	0.046062	0.007013	0.086282	0.609717	-0.147716	-0.167171	-0.760578	4.708323	-25.375762	-103.625783
13604		4.862439	0.588887	8.553334	-0.280781	-0.657359	0.017809	0.002484	0.099836	-0.018602	-0.802002	0.108154	-0.476318	0.048668	0.005883	0.085509	0.609860	-0.147951	-0.167674	-0.760307	4.732611	-25.435349	-103.600806
13605		5.415358	0.911266	8.140243	-0.095313	-1.396129	-0.093542	0.013155	0.111323	-0.021693	-0.797363	0.103760	-0.485107	0.054200	0.009101	0.081373	0.609874	-0.147494	-0.167428	-0.760439	4.744400	-25.374967	-103.609289
13606		4.499999	0.530524	8.348323	-0.270703	-0.417397	-0.326991	0.005535	0.124104	-0.028775	-0.803711	0.094727	-0.482666	0.045053	0.005296	0.083455	0.610003	-0.147610	-0.167863	-0.760217	4.772098	-25.418329	-103.589325
13607		4.280750	-0.007922	8.734128	-0.747742	0.041142	-0.114799	0.022558	0.100406	-0.054574	-0.808350	0.096924	-0.489502	0.042851	-0.000101	0.087320	0.609889	-0.147139	-0.167710	-0.760433	4.798435	-25.362721	-103.619128
13608		3.958080	0.552431	8.900262	-0.133165	0.296740	-0.061767	0.031469	0.068132	-0.057781	-0.812744	0.092285	-0.487061	0.039613	0.005499	0.088990	0.609884	-0.147350	-0.168413	-0.760241	4.848884	-25.433798	-103.620004
13609		3.954180	0.599131	8.971651	-0.091785	0.319183	0.004375	0.042190	0.025344	-0.057997	-0.814453	0.083496	-0.482422	0.039555	0.005961	0.089713	0.609709	-0.147102	-0.168567	-0.760396	4.889144	-25.420956	-103.655949
13610		4.157515	0.389562	8.917923	-0.345521	0.178256	0.026767	0.050043	-0.011975	-0.050011	-0.825439	0.076660	-0.477783	0.041571	0.003863	0.089183	0.609681	-0.147548	-0.169555	-0.760112	4.949296	-25.534582	-103.656379
13611		4.345542	0.457750	8.648501	-0.330563	-0.113670	-0.129318	0.072463	-0.034547	-0.049940	-0.829834	0.069824	-0.473145	0.043442	0.004535	0.086494	0.609508	-0.147443	-0.170002	-0.760171	5.006224	-25.556380	-103.690552
13612		4.481956	0.711726	8.661943	-0.116628	-0.253332	-0.037926	0.073884	-0.067562	-0.041780	-0.836670	0.071777	-0.470947	0.044792	0.007076	0.086637	0.609485	-0.148019	-0.171223	-0.759804	5.078301	-25.699146	-103.688644
13613		4.883803	0.594671	8.899671	-0.319679	-0.465907	0.340639	0.080560	-0.110635	-0.044253	-0.840576	0.058350	-0.468506	0.048790	0.005900	0.089026	0.609274	-0.148183	-0.171929	-0.759781	5.140348	-25.764700	-103.723649
13614		4.367388	0.479683	8.946081	-0.325739	0.062384	0.148563	0.079484	-0.162045	-0.057266	-0.849365	0.051514	-0.452637	0.043603	0.004749	0.089498	0.609116	-0.149073	-0.173454	-0.759387	5.221918	-25.958158	-103.737050
13615		3.965093	0.491757	9.488446	-0.224916	0.675177	0.458043	0.066001	-0.237927	-0.070589	-0.855713	0.042480	-0.441406	0.039540	0.004872	0.094933	0.608683	-0.149742	-0.174512	-0.759360	5.286529	-26.094989	-103.796498
13616		3.509063	-0.067696	9.557218	-0.674539	1.260271	0.267747	0.056727	-0.299272	-0.085279	-0.862305	0.037842	-0.425781	0.034947	-0.000719	0.095624	0.608282	-0.151178	-0.176367	-0.758968	5.366199	-26.361950	-103.836127
13617		4.395060	0.301775	9.349334	-0.508542	0.362027	0.503698	0.061914	-0.435023	-0.122551	-0.861816	0.031250	-0.414551	0.043749	0.002962	0.093590	0.607470	-0.152561	-0.178048	-0.758949	5.449280	-26.608367	-103.941241
13618		4.605818	1.029136	9.280818	0.156725	0.074831	0.597682	0.050714	-0.590118	-0.141233	-0.861816	0.029053	-0.398926	0.045791	0.010235	0.092946	0.606592	-0.155047	-0.180779	-0.758502	5.549620	-27.034398	-104.034744
13619		3.792229	1.901005	10.075407	1.204318	1.049493	1.001937	0.009962	-0.885444	-0.093401	-0.875000	0.019775	-0.372070	0.037485	0.018987	0.100922	0.605431	-0.158318	-0.183605	-0.758075	5.609362	-27.539115	-104.150982
13620		4.781302	1.654837	9.900551	0.772100	0.293305	1.274994	-0.076945	-1.185225	-0.027399	-0.870361	0.017578	-0.356445	0.047227	0.016580	0.099280	0.604298	-0.163517	-0.187542	-0.756911	5.623866	-28.307112	-104.213304
13621		3.753130	2.253226	10.535316	1.635862	1.503193	1.377383	-0.157719	-1.566880	0.061884	-0.881104	0.010498	-0.331787	0.036698	0.022627	0.105625	0.602907	-0.170006	-0.191655	-0.755559	5.563318	-29.209156	-104.273703
13622		3.821575	2.506603	11.813485	1.977166	2.248273	2.494883	-0.268851	-2.053691	0.231668	-0.881348	0.012695	-0.302979	0.036971	0.025268	0.118485	0.601651	-0.179257	-0.197229	-0.752983	5.414615	-30.482885	-104.225044
13623		3.093192	1.038850	12.809267	0.845066	3.934512	2.777754	-0.381969	-2.646855	0.401064	-0.885986	0.019287	-0.267578	0.029212	0.010693	0.128467	0.600144	-0.190780	-0.203408	-0.749704	5.142772	-32.019342	-104.121434
13624		3.681129	-0.399917	12.748633	-0.538418	4.079879	2.808161	-0.412583	-3.389708	0.435219	-0.890137	0.016846	-0.229736	0.034652	-0.003658	0.128094	0.597897	-0.205563	-0.212157	-0.745153	4.872506	-34.059085	-104.007424
13625		2.804473	-1.804266	13.419889	-1.530144	5.888995	2.603635	-0.398614	-4.184124	0.443003	-0.908447	0.022949	-0.185547	0.025268	-0.017716	0.134782	0.594555	-0.222796	-0.222710	-0.739774	4.606553	-36.474499	-103.941057
13626		2.953640	-1.067271	14.536979	-0.574175	6.880470	3.358108	-0.306452	-5.042448	0.405846	-0.915283	0.027100	-0.132324	0.025881	-0.010394	0.146069	0.589954	-0.243113	-0.236553	-0.732730	4.442128	-39.448394	-103.915101
13627		1.784865	-2.217292	15.193835	-1.227334	9.071686	2.640683	-0.207726	-5.875203	0.311800	-0.917236	0.026855	-0.065674	0.013410	-0.021992	0.152399	0.583628	-0.265540	-0.252672	-0.724585	4.395444	-42.823800	-104.023830
13628		1.843877	-2.785034	15.408659	-1.590746	10.047371	2.229538	0.140762	-6.623088	0.049740	-0.917236	0.031250	-0.003662	0.013332	-0.027955	0.154565	0.575352	-0.289341	-0.272734	-0.714750	4.759053	-46.672969	-104.388096
13629		1.971813	-2.493721	15.288902	-1.189127	10.639319	1.551155	0.464571	-7.443469	-0.265135	-0.916992	0.024414	0.074219	0.013980	-0.025314	0.153422	0.564515	-0.314066	-0.296029	-0.703600	5.641517	-50.911996	-105.205444
13630		5.004753	-2.604500	15.678896	-1.643668	10.094634	3.336406	0.804163	-8.222084	-0.632442	-0.905518	0.024414	0.151855	0.043468	-0.026825	0.158560	0.550971	-0.339721	-0.323141	-0.690362	7.303554	-55.603090	-106.668677
13631		10.097883	-0.216476	15.841044	-0.008057	8.318269	7.025695	0.898312	-8.719863	-0.840237	-0.896484	0.024170	0.229492	0.093937	-0.003294	0.162596	0.534963	-0.365678	-0.351401	-0.675730	9.774650	-60.478685	-108.971061
13632		12.863614	0.093508	14.984191	-0.138441	7.790098	8.326883	0.758333	-8.841595	-0.932056	-0.871094	0.011230	0.307373	0.121849	-0.000226	0.155330	0.517228	-0.391642	-0.379231	-0.659755	13.217342	-65.377425	-112.313126
13633		18.047885	2.400074	15.555850	1.510342	7.684321	12.809961	0.499618	-8.644810	-1.000028	-0.848389	0.009277	0.374023	0.173648	0.022719	0.163222	0.498012	-0.416617	-0.404855	-0.643821	18.117111	-70.001274	-117.294357
13634		23.408324	0.981847	17.820655	-0.192952	10.481548	17.685441	-0.189278	-7.829599	-0.938742	-0.818848	0.005127	0.433838	0.226915	0.008916	0.187176	0.478438	-0.440136	-0.425585	-0.629488	24.608184	-74.018823	-124.200664
13635		18.383993	-5.274478	19.446245	-4.975958	16.117601	11.614624	-0.661647	-6.612117	-1.074917	-0.800537	-0.001221	0.473877	0.176991	-0.053052	0.200565	0.459241	-0.460015	-0.441470	-0.618537	33.469187	-77.047179	-133.737949
13636		3.556957	-9.660420	17.072734	-7.084460	17.966041	-4.875239	-0.207863	-5.565785	-1.687550	-0.780029	-0.009766	0.513916	0.029984	-0.096695	0.171714	0.441230	-0.473779	-0.457427	-0.609598	46.476397	-78.899476	-147.125224
13637		-8.153610	-11.081623	11.578476	-7.371495	14.001568	-18.347568	1.129240	-6.307675	-2.434864	-0.745850	-0.015869	0.558350	-0.086465	-0.110425	0.112485	0.421781	-0.484689	-0.480306	-0.597062	67.336332	-79.719919	-167.686014
13638		19.974099	-8.652752	16.582237	-9.219366	17.685195	8.916220	2.286781	-6.092809	-2.377879	-0.729736	-0.024658	0.591553	0.193526	-0.090787	0.170760	0.405762	-0.491892	-0.505569	-0.581205	88.515668	-79.131331	172.163680
13639		27.017965	-2.406144	19.378658	-4.556540	20.572854	16.016967	1.910464	-2.532549	-1.751846	-0.714111	-0.022217	0.595947	0.267464	-0.028283	0.196928	0.398879	-0.490892	-0.520508	-0.573579	96.608192	-78.061243	165.026403
13640		18.015995	-1.554812	21.585234	-2.132814	22.487856	6.999515	0.993692	0.460686	-0.889324	-0.741211	-0.022461	0.580566	0.180582	-0.017421	0.215353	0.400615	-0.484959	-0.524674	-0.573620	95.603753	-77.620416	166.708749
13641		4.675793	-2.178548	17.079665	-0.821741	17.379642	-5.865375	0.050321	2.456046	-0.133745	-0.766113	-0.020752	0.547363	0.048836	-0.021861	0.170200	0.406743	-0.477451	-0.520207	-0.579642	89.239563	-77.602861	173.254618
13642		-4.475475	-5.780679	11.441087	-3.193780	12.045653	-15.201021	-0.258377	2.964019	0.311628	-0.779785	-0.016357	0.516357	-0.042962	-0.057726	0.115131	0.415483	-0.469747	-0.512580	-0.586492	81.054583	-77.672368	-178.446427
13643		-6.146228	-6.710905	8.518830	-4.156080	9.434904	-16.818684	0.040640	2.830633	0.380788	-0.800049	-0.014648	0.485352	-0.060121	-0.067242	0.086032	0.423884	-0.462316	-0.505897	-0.592161	73.681539	-77.531340	-170.873284
13644		-3.867694	-4.758369	7.419696	-2.965894	8.139453	-14.008047	0.391383	2.723811	0.341449	-0.818359	-0.008057	0.458496	-0.037581	-0.047794	0.074620	0.433600	-0.453744	-0.500378	-0.596430	66.728394	-77.208218	-163.431417
13645		-1.037730	-2.061239	7.566650	-1.009670	7.817851	-10.473828	0.414550	2.911087	0.331274	-0.839111	0.002686	0.427246	-0.009241	-0.020785	0.075764	0.442742	-0.444969	-0.494522	-0.601190	60.195310	-76.634091	-156.480346
13646		0.524497	-0.408341	7.743801	0.198606	7.632579	-8.361121	0.095489	3.302667	0.346861	-0.852539	0.000244	0.387451	0.006530	-0.004110	0.077335	0.453153	-0.435060	-0.486563	-0.607150	53.026409	-75.758804	-148.947114
13647		1.145811	0.302089	7.533814	0.694478	7.198279	-7.392330	-0.371267	3.748412	0.343695	-0.865967	0.000000	0.349854	0.012862	0.003182	0.075100	0.462406	-0.425307	-0.476134	-0.615297	46.180646	-74.518151	-142.084867
13648		1.449617	0.194256	6.909725	0.442745	6.443055	-6.954893	-0.797614	4.152839	0.322583	-0.879883	0.006592	0.301025	0.015923	0.002242	0.068768	0.472563	-0.414457	-0.463128	-0.624838	39.429387	-72.872318	-135.435066
13649		1.945661	-0.328319	6.250603	-0.224035	5.628895	-6.462878	-1.082885	4.466291	0.264687	-0.886719	0.006592	0.258789	0.020850	-0.002919	0.062067	0.481343	-0.403593	-0.448547	-0.635788	33.778296	-70.910614	-130.142960
13650		2.862459	-0.379007	5.679429	-0.514056	4.671030	-5.511220	-1.232993	4.689577	0.217023	-0.902588	0.006348	0.214355	0.029950	-0.003411	0.056124	0.491027	-0.391419	-0.432555	-0.646977	28.763326	-68.633858	-125.461544
13651		3.548428	-0.125947	5.564357	-0.413665	4.090647	-4.649766	-1.339291	4.834117	0.217930	-0.911621	0.006348	0.161133	0.036816	-0.000851	0.054771	0.499393	-0.379446	-0.415818	-0.658576	24.733873	-66.220216	-121.929418
13652		4.547109	0.354219	5.258476	-0.177310	3.091539	-3.579436	-1.475562	4.964057	0.278698	-0.907227	0.008789	0.116699	0.046752	0.003989	0.051407	0.508804	-0.366637	-0.397630	-0.669765	21.031994	-63.605402	-118.686309
13653		5.034616	0.477006	5.088549	-0.157323	2.387476	-3.050195	-1.656307	5.060391	0.431710	-0.911865	0.009033	0.059082	0.051600	0.005295	0.049548	0.517077	-0.354662	-0.378304	-0.680980	17.807061	-60.957361	-116.115888
13654		5.139942	0.678455	5.386667	0.079014	2.185424	-2.664302	-1.817929	5.082296	0.693278	-0.910156	0.022461	0.010010	0.052720	0.007447	0.052472	0.526789	-0.342658	-0.357297	-0.690955	14.592490	-58.207561	-113.509445
13655		6.188474	1.034418	5.737576	0.303311	1.488360	-1.448416	-2.010622	5.108008	1.020560	-0.912842	0.031494	-0.045654	0.063265	0.011230	0.055662	0.535775	-0.332027	-0.335036	-0.700324	11.555953	-55.493399	-111.259197
13656		7.766238	0.595624	5.826632	-0.333443	0.296528	-0.097058	-2.172120	5.217827	1.336700	-0.902344	0.045166	-0.092773	0.079101	0.007099	0.056142	0.546511	-0.321130	-0.310748	-0.708263	8.445605	-52.612163	-108.871794
13657		9.263873	0.100607	6.148426	-0.935327	-0.800196	1.236342	-2.196586	5.354525	1.621593	-0.889648	0.063232	-0.146484	0.094224	0.002423	0.058954	0.556787	-0.310575	-0.285622	-0.715508	5.577425	-49.685016	-106.805752
13658		10.129193	-0.549613	6.192280	-1.549571	-1.849833	1.822644	-2.077645	5.467663	1.846118	-0.872314	0.079346	-0.195801	0.102976	-0.003926	0.059169	0.568859	-0.298793	-0.259606	-0.720921	2.865418	-46.566288	-104.681196
13659		11.176155	-1.150638	6.391039	-2.109411	-2.990490	2.582154	-1.856523	5.511923	2.013166	-0.857666	0.108643	-0.245361	0.113572	-0.009794	0.060893	0.580217	-0.286707	-0.234135	-0.725485	0.553782	-43.448420	-102.917440
13660		12.472215	-0.462528	6.627746	-1.387500	-4.691723	3.442388	-1.605086	5.491982	2.279102	-0.835938	0.126953	-0.290283	0.126517	-0.002677	0.062846	0.593506	-0.273539	-0.208641	-0.727596	-1.581971	-40.219028	-101.011975
13661		14.004147	-0.423775	6.964054	-1.262288	-6.461960	4.377602	-1.392018	5.442705	2.697730	-0.810303	0.154297	-0.339844	0.141903	-0.001865	0.065814	0.606797	-0.260582	-0.183663	-0.728122	-3.503696	-37.039347	-99.212177
13662		17.320207	-0.492670	6.938591	-1.364739	-10.004698	5.881347	-1.134909	5.400454	3.145315	-0.780029	0.183838	-0.378174	0.175036	-0.001807	0.064692	0.622571	-0.246766	-0.158614	-0.725502	-5.321138	-33.748982	-97.117390
13663		20.615059	-1.307843	5.952860	-2.171323	-14.085583	6.276033	-0.686951	5.354629	3.612643	-0.740479	0.209229	-0.412354	0.207835	-0.009142	0.054014	0.638740	-0.232246	-0.134941	-0.721016	-6.804196	-30.483578	-95.069213
13664		22.372883	-1.894627	4.413086	-2.465951	-17.248323	5.014348	0.028326	5.192172	3.925514	-0.705566	0.234375	-0.446289	0.225088	-0.014542	0.038296	0.657197	-0.215725	-0.113543	-0.713206	-7.856584	-27.190677	-92.778006
13665		23.702995	-0.535296	2.491454	-0.791665	-20.251993	2.731969	0.787279	4.926137	3.986044	-0.670166	0.248535	-0.486816	0.237592	-0.000704	0.019058	0.674717	-0.197755	-0.095834	-0.704604	-8.300765	-24.079211	-90.709215
13666		23.755351	2.088112	0.548112	2.322683	-21.821178	-0.471681	1.265015	4.569078	3.901974	-0.632813	0.269287	-0.511719	0.237131	0.025498	0.000212	0.692628	-0.179078	-0.080767	-0.694027	-8.381144	-21.127990	-88.549887
13667		22.456074	5.595461	-0.703358	6.329475	-21.388826	-3.614809	1.364900	4.075073	3.677326	-0.597168	0.278809	-0.532227	0.223281	0.060135	-0.011191	0.707977	-0.161652	-0.068093	-0.684106	-8.229370	-18.517320	-86.691432
13668		20.510259	8.346460	-2.008682	9.482660	-19.869904	-6.721978	1.135580	3.512860	3.269141	-0.565918	0.281738	-0.556885	0.203311	0.086924	-0.023182	0.721876	-0.146729	-0.056778	-0.673901	-8.102387	-16.244358	-84.904594
13669		18.272114	9.657987	-2.331559	11.042785	-17.575517	-8.509735	0.826412	2.863405	2.513425	-0.548096	0.288818	-0.559326	0.181133	0.098965	-0.025511	0.731626	-0.134811	-0.047399	-0.666560	-7.957332	-14.422840	-83.662747
13670		18.258486	10.810655	-1.028520	12.656664	-16.955776	-7.917856	0.508240	2.260291	1.542734	-0.525879	0.293701	-0.572754	0.181614	0.109539	-0.012064	0.738043	-0.125902	-0.039798	-0.661708	-7.856335	-13.024462	-82.858741
13671		19.841322	10.405231	0.113474	12.719762	-18.198056	-6.815253	0.109488	1.963661	0.626625	-0.512451	0.296387	-0.581787	0.198085	0.104673	-0.000754	0.740537	-0.119145	-0.032545	-0.660568	-7.838466	-11.865134	-82.650907
13672		19.564538	7.469645	0.164322	9.800384	-18.260888	-6.800356	-0.110373	1.890480	-0.186766	-0.499023	0.292236	-0.595215	0.195719	0.074514	-0.000248	0.740199	-0.113457	-0.025447	-0.662257	-7.856528	-10.832976	-82.891976
13673		16.989840	5.271382	-0.755453	7.087148	-16.253060	-8.196058	-0.100097	1.748948	-0.902717	-0.491943	0.285645	-0.603760	0.170059	0.051942	-0.009067	0.737341	-0.107942	-0.019181	-0.666565	-7.795331	-9.914940	-83.550680
13674		14.663256	4.206133	-1.699109	5.456741	-14.344141	-9.585529	-0.179941	1.416467	-1.405806	-0.482910	0.281250	-0.610596	0.146798	0.041014	-0.018068	0.732454	-0.103983	-0.014406	-0.672675	-7.741371	-9.264780	-84.499597
13675		9.792781	0.153816	-2.278551	0.713033	-10.006559	-10.499192	-0.213415	0.535662	-1.833428	-0.491455	0.274414	-0.608154	0.097875	0.000616	-0.023049	0.726183	-0.102853	-0.012707	-0.679646	-7.688850	-9.106015	-85.594918
13676		-0.199276	-3.526746	-20.878524	-6.002307	-3.633508	-29.791502	0.226755	-1.971239	-3.425438	-0.513428	0.256348	-0.609863	-0.000536	-0.035013	-0.208835	0.714068	-0.108778	-0.022766	-0.691199	-7.238643	-10.537991	-87.466893
13677		9.187597	-22.852046	6.223497	-21.851505	-7.745910	0.565637	2.676560	-4.202407	-4.359370	-0.541016	0.218018	-0.595459	0.085564	-0.231253	0.060994	0.699591	-0.113216	-0.049402	-0.703786	-5.237665	-13.207669	-89.735707
13678		22.248478	-5.405314	25.953716	-3.534233	-15.036877	21.154318	2.116659	-3.299224	-3.216166	-0.558594	0.202148	-0.586182	0.217233	-0.060343	0.262533	0.688527	-0.116973	-0.070570	-0.712227	-3.599253	-15.295761	-91.455157
13679		10.731113	-28.054843	14.190849	-27.396850	-5.184157	8.245845	1.747584	-3.435086	-0.385419	-0.576172	0.192871	-0.570313	0.104339	-0.281988	0.141258	0.686834	-0.123060	-0.088858	-0.710788	-2.564507	-17.277496	-91.574089
13680		15.824212	3.211310	14.153196	3.407370	-10.639440	8.521496	2.678864	-4.003113	0.127471	-0.604736	0.181152	-0.558838	0.155342	0.030285	0.145075	0.687480	-0.128576	-0.112426	-0.705833	-1.099961	-19.638675	-91.318952
13681		22.374798	25.444685	18.882808	25.281664	-15.041001	15.467558	1.734904	-3.040334	-0.225310	-0.627197	0.176270	-0.549805	0.221106	0.252526	0.194399	0.685982	-0.133225	-0.129154	-0.703562	-0.064314	-21.386562	-91.437511
13682		14.510080	11.939554	14.348408	11.633048	-8.386438	8.983358	0.773908	-2.073771	-0.868343	-0.640625	0.173584	-0.547363	0.144114	0.118208	0.145441	0.682047	-0.137797	-0.140056	-0.704421	0.580445	-22.655206	-91.965305
13683		9.848176	-11.091028	8.634307	-11.441755	-5.309598	1.825067	0.930203	-1.549174	-0.706446	-0.657959	0.162109	-0.538086	0.097418	-0.111658	0.086582	0.679078	-0.139610	-0.149124	-0.705070	1.292147	-23.540921	-92.420822
13684		5.879448	-3.775081	7.990840	-4.121230	-1.979002	-0.233132	1.751587	-1.594657	-0.330365	-0.671387	0.155273	-0.544678	0.058093	-0.038548	0.080038	0.677849	-0.139561	-0.161462	-0.703543	2.393362	-24.536220	-92.651676
13685		19.604376	17.974330	15.036222	16.655779	-11.996022	12.818308	1.034039	-0.720140	-0.538903	-0.684570	0.150635	-0.542236	0.195980	0.178432	0.151993	0.676073	-0.138182	-0.167942	-0.704008	3.137112	-24.938423	-93.013116
13686		1.654800	-2.857882	8.864429	-3.229244	2.365712	-1.241850	0.179178	-0.228905	-0.277043	-0.687012	0.152832	-0.542236	0.016407	-0.028681	0.088637	0.674735	-0.138717	-0.170103	-0.704667	3.327355	-25.153709	-93.228660
13687		7.663797	2.964248	10.928260	2.166451	-2.334508	3.484062	0.437981	-0.271687	-0.146032	-0.702637	0.150146	-0.548828	0.076511	0.029347	0.109451	0.674285	-0.138104	-0.172694	-0.704588	3.622190	-25.309126	-93.331462
13688		7.343343	1.180479	7.785464	0.482916	-3.298291	0.425462	0.132398	-0.111797	-0.108329	-0.709473	0.152344	-0.544434	0.073396	0.011713	0.077903	0.673617	-0.138518	-0.174165	-0.704783	3.739166	-25.460607	-93.435479
13689		6.022442	0.956629	8.325842	0.291491	-1.857423	0.334705	0.178996	-0.052982	-0.058547	-0.720459	0.145508	-0.552979	0.060205	0.009474	0.083283	0.673482	-0.138082	-0.175045	-0.704779	3.858773	-25.493920	-93.474888
13690		5.801438	0.661474	8.845150	-0.027009	-1.403505	0.692566	0.082282	-0.009624	-0.015843	-0.725098	0.149902	-0.548828	0.058011	0.006574	0.088457	0.673168	-0.138393	-0.175936	-0.704797	3.921112	-25.591217	-93.520610
13691		4.780471	0.732746	9.501350	0.067244	-0.199435	0.846636	0.053933	-0.006271	0.026980	-0.731934	0.154053	-0.544434	0.047801	0.007308	0.095017	0.673289	-0.138290	-0.176161	-0.704646	3.944935	-25.601245	-93.503926
13692		4.489716	0.274909	9.571666	-0.378907	0.125798	0.755686	0.023596	-0.015748	0.053927	-0.736328	0.154053	-0.551025	0.044889	0.002750	0.095721	0.673167	-0.138878	-0.176810	-0.704484	3.954673	-25.703900	-93.507085
13693		4.239571	0.865420	9.143031	0.243749	0.150292	0.298491	-0.003128	-0.054530	0.058894	-0.741211	0.160645	-0.546631	0.042368	0.008668	0.091442	0.673317	-0.139166	-0.176975	-0.704242	3.937934	-25.742912	-93.472275
13694		5.271332	0.550688	8.341270	-0.088727	-1.095376	0.008680	-0.041668	-0.081678	0.069869	-0.740967	0.156250	-0.546631	0.052677	0.005543	0.083433	0.673146	-0.140212	-0.177592	-0.704043	3.906754	-25.882080	-93.468423
13695		5.003186	0.449402	8.441819	-0.172713	-0.797967	-0.023328	-0.032593	-0.089694	0.058616	-0.745605	0.158203	-0.546631	0.049993	0.004522	0.084440	0.673243	-0.140723	-0.177772	-0.703803	3.873769	-25.941287	-93.435236
13696		4.641186	-0.011886	8.697118	-0.619575	-0.322876	0.020546	-0.033686	-0.079685	0.030771	-0.754639	0.162598	-0.542236	0.046377	-0.000097	0.086990	0.672939	-0.141697	-0.178432	-0.703731	3.857653	-26.077108	-93.456300
13697		4.629436	0.360557	8.765686	-0.246830	-0.284166	0.099792	-0.015055	-0.090026	0.009823	-0.754639	0.160400	-0.537598	0.046255	0.003614	0.087677	0.672875	-0.142108	-0.178710	-0.703639	3.848287	-26.134742	-93.454116
13698		4.607075	0.673219	8.795867	0.066096	-0.236550	0.136449	-0.011189	-0.083154	0.003234	-0.763672	0.164551	-0.533203	0.046034	0.006738	0.087977	0.672498	-0.142986	-0.179470	-0.703628	3.852230	-26.270218	-93.491038
13699		4.341196	0.480218	9.005440	-0.118577	0.108954	0.194741	-0.018286	-0.064054	0.007440	-0.763916	0.168945	-0.526855	0.043383	0.004812	0.090068	0.672446	-0.143315	-0.179652	-0.703564	3.841222	-26.313046	-93.489273
13700		5.216686	0.765904	8.514582	0.137925	-0.882903	0.162280	0.035528	-0.013324	0.041812	-0.766113	0.171143	-0.524658	0.052160	0.007655	0.085151	0.672299	-0.143818	-0.180304	-0.703435	3.859595	-26.408596	-93.498966
13701		4.864417	0.558635	8.841237	-0.064770	-0.414281	0.285148	0.062290	0.018499	0.045927	-0.757080	0.169189	-0.520020	0.048651	0.005570	0.088410	0.672514	-0.143621	-0.180465	-0.703229	3.882286	-26.405854	-93.469114
13702		5.571571	0.740665	8.231564	0.096405	-1.311693	0.067585	0.102570	0.031234	0.010844	-0.761475	0.166748	-0.522217	0.055728	0.007367	0.082311	0.672341	-0.143710	-0.181219	-0.703182	3.946989	-26.473867	-93.497568
13703		5.001607	0.054398	8.532708	-0.579709	-0.649301	0.039646	0.129133	0.052590	-0.021802	-0.755127	0.173584	-0.518066	0.050039	0.000483	0.085314	0.672397	-0.143107	-0.181550	-0.703166	4.026575	-26.449126	-93.509444
13704		4.524592	-0.027601	8.901146	-0.664480	-0.045847	0.150216	0.119982	0.064304	-0.053364	-0.768555	0.171143	-0.515625	0.045274	-0.000341	0.088997	0.672046	-0.142961	-0.182295	-0.703339	4.118631	-26.495118	-93.576788
13705		4.296584	0.217827	8.825122	-0.415589	0.111655	-0.004239	0.091173	0.058580	-0.058056	-0.763672	0.166748	-0.511230	0.042992	0.002126	0.088240	0.671951	-0.142433	-0.182500	-0.703483	4.186671	-26.465549	-93.611478
13706		4.433680	-0.002085	8.829023	-0.652859	0.007408	0.045451	0.067695	0.046693	-0.053652	-0.766357	0.173340	-0.511230	0.044357	-0.000063	0.088280	0.671564	-0.142514	-0.183112	-0.703677	4.248544	-26.520045	-93.676870
13707		5.330882	0.646782	8.616510	-0.054847	-0.912169	0.298980	0.040829	0.037069	-0.045625	-0.763916	0.168945	-0.509033	0.053326	0.006438	0.086157	0.671458	-0.142243	-0.183203	-0.703809	4.284681	-26.503363	-93.704613
13708		5.121206	0.984161	8.356845	0.300386	-0.842314	-0.002873	0.017631	0.050740	-0.024445	-0.768311	0.171143	-0.502441	0.051234	0.009828	0.083556	0.671153	-0.142499	-0.183599	-0.703946	4.309094	-26.555779	-93.749583
13709		4.814499	0.893350	8.561976	0.217304	-0.477577	0.036658	-0.015965	0.055184	-0.009167	-0.765869	0.164551	-0.504395	0.048169	0.008938	0.085606	0.671150	-0.142388	-0.183405	-0.704021	4.301943	-26.530427	-93.753187
13710		3.759605	0.657620	9.223072	0.015456	0.777646	0.138552	-0.032075	0.049412	-0.004372	-0.768555	0.173340	-0.511230	0.037619	0.006590	0.092220	0.670867	-0.142831	-0.183610	-0.704148	4.292575	-26.583670	-93.787519
13711		3.836675	0.740592	8.906738	0.110747	0.560885	-0.103327	-0.033019	0.028879	0.004629	-0.768311	0.166748	-0.509033	0.038379	0.007422	0.089061	0.670877	-0.142883	-0.183436	-0.704173	4.272315	-26.574064	-93.783603
13712		3.781374	0.220388	8.961196	-0.404428	0.664878	-0.115019	-0.026543	-0.020768	0.006537	-0.770508	0.166504	-0.511230	0.037804	0.002217	0.089616	0.670573	-0.143552	-0.183876	-0.704212	4.264447	-26.665847	-93.814459
13713		4.269796	0.608692	8.566956	-0.025734	0.042449	-0.221444	-0.035874	-0.039429	0.002492	-0.772705	0.164307	-0.504395	0.042681	0.006103	0.085677	0.670510	-0.143853	-0.183922	-0.704198	4.244652	-26.695302	-93.815183
13714		4.369998	0.536773	8.507569	-0.097258	-0.054287	-0.233996	-0.047802	-0.046880	0.008445	-0.772705	0.166504	-0.508789	0.043680	0.005390	0.085085	0.670183	-0.144677	-0.184363	-0.704226	4.224230	-26.800428	-93.844585
13715		4.922854	0.416287	8.382082	-0.240482	-0.593709	-0.104096	-0.049409	-0.053820	0.006513	-0.770508	0.166504	-0.504395	0.049206	0.004185	0.083833	0.670110	-0.145078	-0.184408	-0.704201	4.195849	-26.838396	-93.843409
13716		4.054592	0.645489	8.639809	0.033310	0.305688	-0.251928	-0.042789	-0.038446	0.014438	-0.781738	0.164063	-0.504395	0.040529	0.006476	0.086404	0.669820	-0.145854	-0.184828	-0.704206	4.176136	-26.937973	-93.867743
13717		4.364307	0.281221	8.724005	-0.346616	0.086735	-0.060413	-0.064025	-0.058489	0.020968	-0.772705	0.162109	-0.502197	0.043617	0.002845	0.087252	0.669783	-0.146335	-0.184827	-0.704142	4.135289	-26.979328	-93.857495
13718		4.426429	0.103100	8.838569	-0.524842	0.109850	0.058314	-0.100652	-0.083209	0.011101	-0.788330	0.161865	-0.499756	0.044227	0.001078	0.088404	0.669404	-0.147450	-0.185186	-0.704175	4.084006	-27.102899	-93.884898
13719		4.717899	0.322709	8.666395	-0.306547	-0.225412	0.052621	-0.112842	-0.107832	0.001817	-0.783447	0.155273	-0.499756	0.047132	0.003276	0.086688	0.669217	-0.148251	-0.185193	-0.704183	4.021780	-27.171781	-93.889114
13720		4.718555	0.463056	8.563603	-0.152814	-0.254739	-0.028710	-0.118073	-0.121294	-0.010162	-0.794922	0.159424	-0.493164	0.047134	0.004679	0.085662	0.668729	-0.149531	-0.185625	-0.704262	3.966936	-27.315113	-93.929278
13721		5.211543	0.068973	8.461748	-0.562995	-0.710540	0.083992	-0.104641	-0.142204	-0.021667	-0.794678	0.152832	-0.497314	0.052055	0.000728	0.084654	0.668431	-0.150403	-0.185794	-0.704314	3.917035	-27.402840	-93.950010
13722		4.613661	0.308203	8.686224	-0.288887	-0.060393	0.023177	-0.085438	-0.126352	-0.030201	-0.803711	0.150391	-0.495117	0.046082	0.003112	0.086890	0.667902	-0.151568	-0.186368	-0.704415	3.886563	-27.547565	-94.001324
13723		4.496067	0.329163	8.584997	-0.252765	0.008774	-0.119330	-0.046049	-0.121968	-0.047144	-0.808105	0.147949	-0.490479	0.044909	0.003301	0.085877	0.667576	-0.152150	-0.186696	-0.704512	3.877504	-27.622870	-94.037559
13724		4.938410	0.300613	8.577898	-0.308090	-0.360412	0.078408	-0.020006	-0.114007	-0.058512	-0.818848	0.138916	-0.485840	0.049336	0.003000	0.085807	0.667018	-0.153018	-0.187473	-0.704647	3.892575	-27.758297	-94.104992
13725		4.564927	0.545937	8.713210	-0.046079	0.033929	0.038879	0.000162	-0.087930	-0.062353	-0.821045	0.138916	-0.479248	0.045613	0.005445	0.087152	0.666704	-0.153312	-0.187862	-0.704776	3.914060	-27.813654	-94.149668
13726		5.266990	0.482994	8.292075	-0.143897	-0.759519	-0.007821	0.026460	-0.089960	-0.076724	-0.829834	0.134277	-0.476807	0.052634	0.004799	0.082945	0.666145	-0.153916	-0.188731	-0.704940	3.960831	-27.933583	-94.226988
13727		4.742370	0.731934	8.517609	0.124829	-0.191312	-0.039087	0.033751	-0.088526	-0.070150	-0.838623	0.129639	-0.467773	0.047389	0.007288	0.085198	0.665829	-0.154093	-0.189247	-0.705062	4.004163	-27.989027	-94.276914
13728		4.753730	0.359111	8.698418	-0.260210	-0.079039	0.102726	0.038607	-0.094604	-0.070298	-0.850098	0.133789	-0.454590	0.047497	0.003558	0.087007	0.665296	-0.154675	-0.190164	-0.705191	4.056423	-28.111088	-94.350729
13729		4.800011	0.399530	8.537467	-0.224832	-0.186336	-0.014586	0.057838	-0.106720	-0.083401	-0.852051	0.124756	-0.445557	0.047956	0.003951	0.085401	0.664934	-0.154824	-0.190836	-0.705319	4.118265	-28.176420	-94.410302
13730		4.695171	0.210583	8.635468	-0.419700	-0.017257	0.009930	0.086130	-0.093828	-0.097280	-0.854248	0.122559	-0.436523	0.046912	0.002046	0.086378	0.664352	-0.155213	-0.191934	-0.705483	4.206091	-28.295831	-94.500398
13731		4.360525	0.024837	8.644768	-0.595443	0.300027	-0.153380	0.114835	-0.092910	-0.127709	-0.858154	0.113525	-0.416260	0.043565	0.000171	0.086468	0.663889	-0.155082	-0.192796	-0.705713	4.314263	-28.351337	-94.588404
13732		4.745230	0.329183	8.663679	-0.337029	-0.020033	0.065110	0.140291	-0.096383	-0.161912	-0.858154	0.109131	-0.407227	0.047413	0.003193	0.086662	0.663139	-0.155228	-0.194137	-0.706018	4.453006	-28.467956	-94.717685
13733		4.860841	0.320745	8.643256	-0.373181	-0.118235	0.101103	0.143409	-0.115311	-0.184998	-0.862305	0.102295	-0.398193	0.048561	0.003101	0.086463	0.662473	-0.155025	-0.195219	-0.706390	4.596341	-28.533417	-94.844532
13734		4.836957	0.683802	8.766464	-0.035537	-0.029174	0.222872	0.138689	-0.150794	-0.203794	-0.864258	0.097656	-0.382568	0.048310	0.006728	0.087706	0.661533	-0.155320	-0.196761	-0.706778	4.748995	-28.677675	-95.002375
13735		4.794116	0.829400	8.838531	0.089043	0.054046	0.275929	0.127478	-0.173037	-0.201537	-0.862061	0.100098	-0.373779	0.047873	0.008189	0.088432	0.660735	-0.155357	-0.197991	-0.707172	4.890678	-28.774829	-95.143830
13736		4.650102	0.408204	8.805541	-0.335989	0.214865	0.145651	0.101131	-0.202900	-0.186428	-0.864014	0.088867	-0.357910	0.046415	0.003994	0.088105	0.659773	-0.155970	-0.199553	-0.707496	5.019052	-28.948006	-95.294426
13737		4.709538	0.107184	8.739874	-0.655870	0.169520	0.092748	0.132418	-0.228725	-0.197176	-0.859619	0.091064	-0.344727	0.046996	0.000968	0.087453	0.658937	-0.156192	-0.200981	-0.707823	5.164843	-29.076678	-95.437207
13738		4.889216	0.500295	8.769756	-0.301528	0.044496	0.235713	0.154725	-0.258206	-0.210055	-0.854736	0.086670	-0.329102	0.048784	0.004884	0.087764	0.657894	-0.156789	-0.202926	-0.708106	5.333863	-29.278412	-95.604479
13739		4.758493	-0.047142	8.983592	-0.868688	0.321989	0.311145	0.170015	-0.285736	-0.241215	-0.856689	0.077637	-0.320068	0.047456	-0.000605	0.089903	0.656868	-0.157044	-0.204708	-0.708488	5.518494	-29.436588	-95.780982
13740		5.457266	0.606325	8.441019	-0.280990	-0.542872	0.238499	0.168992	-0.355926	-0.289072	-0.854492	0.077637	-0.309082	0.054431	0.005913	0.084512	0.655475	-0.157848	-0.207079	-0.708911	5.725656	-29.687619	-96.004370
13741		4.491543	0.279975	9.388359	-0.587923	0.824294	0.549181	0.108827	-0.399611	-0.308479	-0.854004	0.068848	-0.297607	0.044732	0.002680	0.093975	0.654037	-0.158636	-0.209069	-0.709479	5.903162	-29.905856	-96.234689
13742		4.173262	1.355304	9.600668	0.480241	1.203094	0.663354	0.127908	-0.517327	-0.296530	-0.856445	0.068848	-0.284424	0.041504	0.013430	0.096123	0.652423	-0.160128	-0.211821	-0.709813	6.097687	-30.246115	-96.474183
13743		4.571438	1.443880	9.586711	0.513515	0.914954	0.854389	0.077914	-0.732598	-0.210063	-0.856201	0.066406	-0.268799	0.045378	0.014354	0.096039	0.650944	-0.162299	-0.214706	-0.709811	6.240447	-30.658953	-96.666366
13744		4.106039	1.489700	10.083883	0.577097	1.666647	1.034056	-0.007879	-0.956250	-0.134689	-0.858398	0.066406	-0.255371	0.040588	0.014874	0.101033	0.649291	-0.165947	-0.218256	-0.709400	6.324282	-31.256385	-96.837059
13745		4.032015	2.244685	11.077773	1.301043	2.332406	1.886798	-0.112044	-1.327227	-0.001229	-0.860840	0.070801	-0.239990	0.039584	0.022509	0.111029	0.647715	-0.171062	-0.222217	-0.708395	6.313391	-32.020682	-96.937291
13746		3.311448	1.761037	12.118285	0.888745	3.729081	2.279407	-0.249016	-1.936363	0.159247	-0.865234	0.072754	-0.211182	0.031925	0.017787	0.121474	0.645717	-0.179257	-0.227798	-0.706417	6.197562	-33.191960	-96.989566
13747		3.393653	0.490790	12.325556	-0.322734	4.124776	2.293091	-0.343952	-2.575338	0.231957	-0.876953	0.081299	-0.182373	0.032340	0.005158	0.123670	0.643223	-0.189761	-0.234724	-0.703676	6.018572	-34.681927	-97.020641
13748		3.650308	0.871780	12.881334	0.100072	4.580162	2.797197	-0.368565	-3.273377	0.314350	-0.879150	0.087891	-0.149170	0.034375	0.009011	0.129371	0.639883	-0.203139	-0.243932	-0.699844	5.825091	-36.620182	-97.054329
13749		2.261403	-0.783064	14.222159	-1.340452	7.054169	2.693721	-0.364298	-4.064226	0.428303	-0.888184	0.089844	-0.100342	0.019734	-0.007527	0.142656	0.635902	-0.219054	-0.255227	-0.694625	5.608285	-38.970406	-97.039969
13750		2.549534	-1.338070	14.614677	-1.809504	7.692272	2.812241	-0.314952	-4.976260	0.369031	-0.895264	0.100586	-0.058350	0.021873	-0.013107	0.146742	0.630165	-0.238027	-0.269742	-0.688094	5.489094	-41.877106	-97.134024
13751		3.586574	-1.451365	14.398196	-1.900062	7.481080	2.940260	-0.178612	-5.900647	0.251866	-0.895264	0.102783	0.005859	0.031616	-0.014343	0.144969	0.622566	-0.259172	-0.287352	-0.680198	5.561384	-45.264930	-97.386207
13752		1.282709	-2.359099	13.817632	-2.496755	9.449589	0.313551	-0.018223	-6.522869	-0.043447	-0.895020	0.100342	0.063721	0.008308	-0.023581	0.138499	0.612665	-0.281425	-0.307740	-0.671370	5.985020	-49.022264	-97.966234
13753		2.924003	-0.124419	12.073321	-0.363907	7.613242	-0.005992	0.313502	-7.107371	-0.322973	-0.890625	0.102539	0.127930	0.024925	-0.001477	0.121668	0.600676	-0.303691	-0.330871	-0.661426	6.962232	-53.056651	-98.990237
13754		4.595459	-0.192328	11.843473	-0.577496	7.194435	0.639662	0.610912	-7.581214	-0.456531	-0.879150	0.100342	0.205566	0.041418	-0.002386	0.120055	0.587179	-0.326078	-0.356331	-0.649555	8.527681	-57.359582	-100.445500
13755		7.153317	-0.356351	11.425186	-1.006472	6.365395	2.028111	0.673519	-7.915565	-0.548562	-0.863037	0.095947	0.270020	0.066929	-0.004142	0.116949	0.571904	-0.348613	-0.382412	-0.636518	10.737908	-61.787839	-102.558434
13756		8.960641	-0.548122	11.344001	-1.413220	6.468857	3.045093	0.663647	-8.034214	-0.684552	-0.836182	0.100586	0.343018	0.084936	-0.006161	0.116895	0.555170	-0.370741	-0.408585	-0.622411	13.920877	-66.230579	-105.642156
13757		12.223336	1.449390	10.568862	0.180482	5.531941	5.433031	0.439509	-8.123507	-0.713362	-0.806396	0.090088	0.409668	0.117858	0.013829	0.110567	0.536680	-0.393073	-0.433524	-0.607886	18.455269	-70.598514	-110.243066
13758		16.289533	3.462327	10.578264	1.703985	5.532275	9.042923	-0.046511	-7.880749	-0.674174	-0.781738	0.096924	0.469482	0.158676	0.034109	0.112084	0.517195	-0.415364	-0.455721	-0.593549	24.924982	-74.681261	-117.006127
13759		19.041212	1.219527	12.784076	-0.714953	8.631071	11.453585	-0.916392	-7.248230	-0.540804	-0.751953	0.081787	0.525146	0.185649	0.012295	0.134571	0.496794	-0.437771	-0.472602	-0.581549	34.010977	-78.165054	-126.887030
13760		16.354978	-0.305629	14.251907	-1.614868	11.961181	8.210868	-1.524006	-6.526981	-0.593433	-0.724609	0.073242	0.560547	0.158776	-0.002419	0.147773	0.476195	-0.458825	-0.485604	-0.571758	47.785717	-80.807642	-141.740222
13761		13.518286	-3.516337	16.196096	-3.990322	15.451124	4.421791	-1.814644	-5.823550	-0.857767	-0.696777	0.053711	0.596436	0.130238	-0.034234	0.166115	0.455181	-0.477531	-0.496058	-0.564535	67.556774	-82.204849	-162.774670
13762		2.594908	-7.425222	17.154972	-5.997374	17.772074	-7.749848	-1.551904	-5.077824	-1.528340	-0.666748	0.031982	0.625732	0.021012	-0.073088	0.172695	0.434734	-0.491223	-0.506922	-0.559228	88.583459	-81.957394	175.164576
13763		-2.773400	-13.243541	12.086613	-11.242432	13.320777	-14.838120	-0.041478	-5.594026	-2.142716	-0.648438	0.027832	0.656738	-0.032516	-0.132079	0.120029	0.414233	-0.501343	-0.524035	-0.549958	107.866906	-80.258088	155.629830
13764		32.737385	-13.305628	13.286188	-16.795037	17.469888	19.132076	1.460198	-4.401501	-1.667359	-0.625977	0.026123	0.667725	0.323229	-0.136763	0.139017	0.402368	-0.505400	-0.541589	-0.537914	118.992197	-78.395747	145.283431
13765		32.219629	-6.797548	19.243258	-10.215707	23.320688	18.583894	2.017159	-0.183371	-0.718879	-0.650879	0.034424	0.649902	0.321768	-0.071071	0.192021	0.404973	-0.499899	-0.549203	-0.533361	119.659623	-77.980822	145.783045
13766		18.287971	-1.045372	16.379256	-2.943088	18.204668	6.426507	1.496848	2.619453	0.186587	-0.678467	0.047363	0.627686	0.185014	-0.011495	0.161295	0.417622	-0.489422	-0.547982	-0.534578	114.212574	-78.803586	152.425069
13767		1.106679	-1.633239	8.538614	-1.296968	8.662354	-9.543343	0.862016	3.599478	0.730704	-0.708008	0.053711	0.592041	0.012661	-0.016655	0.085097	0.431433	-0.479956	-0.540921	-0.539363	105.165495	-79.893531	162.132824
13768		-4.413053	-1.989409	4.637283	-1.047435	4.539032	-14.632815	0.630823	3.054911	0.761937	-0.735107	0.055420	0.563232	-0.043339	-0.020208	0.046975	0.444614	-0.471346	-0.534722	-0.542424	95.743725	-80.690354	172.276678
13769		-3.423385	-1.297761	2.868500	-0.651743	2.869250	-13.414597	0.619031	2.208222	0.588186	-0.748535	0.055176	0.545654	-0.033876	-0.013167	0.029020	0.453502	-0.465561	-0.530105	-0.544588	88.345026	-81.072968	-179.870432
13770		0.039002	-0.230743	3.208624	-0.176246	3.211946	-9.766947	0.603138	1.687534	0.390741	-0.764893	0.065918	0.520996	0.000665	-0.002403	0.032074	0.461863	-0.459582	-0.527555	-0.545117	82.086029	-81.252625	-172.964116
13771		3.971569	1.388523	4.822104	0.828526	4.690585	-5.538917	0.374554	1.736541	0.233970	-0.785156	0.065674	0.499023	0.040116	0.013842	0.047900	0.467886	-0.454624	-0.524045	-0.547519	75.861109	-81.195642	-166.447909
13772		6.626022	2.224786	5.837580	1.236726	5.487781	-2.651492	-0.027288	2.248325	0.165867	-0.800781	0.065430	0.472412	0.066892	0.022311	0.057623	0.475577	-0.447917	-0.518817	-0.551385	67.539305	-80.903866	-157.821384
13773		6.521833	1.535977	5.834901	0.570102	5.315834	-2.716863	-0.390756	2.946228	0.118982	-0.825928	0.073975	0.436768	0.066059	0.015512	0.057350	0.482584	-0.441024	-0.510449	-0.558617	58.141024	-80.195786	-148.521004
13774		4.955516	0.451095	4.961713	-0.284544	4.392620	-4.335642	-0.544758	3.485287	0.048709	-0.843506	0.060303	0.403809	0.050408	0.004657	0.048731	0.491774	-0.431673	-0.500772	-0.566607	48.649900	-79.025440	-138.979976
13775		3.507059	0.243574	4.065966	-0.276706	3.515060	-5.756189	-0.528397	3.769576	-0.013406	-0.854980	0.062500	0.364014	0.035829	0.002540	0.039982	0.499911	-0.422224	-0.489984	-0.575962	41.066599	-77.492102	-131.544511
13776		2.863271	0.740936	3.482050	0.299455	2.885937	-6.284080	-0.504866	3.849353	-0.038183	-0.877197	0.057617	0.324219	0.029297	0.007491	0.034242	0.509537	-0.411267	-0.479276	-0.584403	34.887850	-75.721472	-125.283746
13777		2.929543	1.434909	3.227308	0.978640	2.467221	-6.069797	-0.584631	3.858323	-0.015032	-0.890625	0.055420	0.282227	0.029911	0.014440	0.031658	0.517407	-0.401412	-0.467718	-0.593632	30.219086	-73.859401	-120.793026
13778		3.326383	1.671507	3.370562	1.154090	2.347369	-5.526165	-0.753923	3.853615	0.028521	-0.902100	0.057373	0.237793	0.033902	0.016845	0.032993	0.526347	-0.391005	-0.455671	-0.602029	26.163620	-71.892253	-116.802722
13779		3.975165	1.625112	3.634649	1.029085	2.235754	-4.753848	-0.942974	3.877394	0.083525	-0.904297	0.055420	0.199951	0.040438	0.016437	0.035490	0.533454	-0.381972	-0.442415	-0.611387	22.846314	-69.897758	-113.864053
13780		4.437321	1.180477	3.938589	0.541942	2.175449	-4.194466	-1.091145	3.955022	0.146036	-0.913330	0.052979	0.153564	0.045131	0.012049	0.038433	0.541879	-0.372193	-0.428393	-0.619935	19.750230	-67.780964	-111.026398
13781		4.953706	0.826238	4.189587	0.152577	1.998382	-3.587632	-1.165026	4.074180	0.203121	-0.920410	0.057373	0.111328	0.050367	0.008553	0.040826	0.548917	-0.363118	-0.413310	-0.629293	17.117982	-65.610828	-108.887343
13782		5.391516	0.886431	4.384697	0.190118	1.718876	-3.024372	-1.201764	4.217457	0.260913	-0.922852	0.064209	0.069092	0.054811	0.009194	0.042643	0.557558	-0.352816	-0.397555	-0.637652	14.634422	-63.286712	-106.716504
13783		5.354025	1.053040	4.349997	0.402669	1.393251	-2.987340	-1.229924	4.341551	0.316596	-0.920654	0.064453	0.017822	0.054450	0.010879	0.042258	0.564860	-0.342988	-0.380912	-0.646682	12.497346	-60.918964	-105.096001
13784		5.298067	1.456579	4.277975	0.853979	1.012769	-2.976853	-1.281837	4.420201	0.350156	-0.914307	0.071289	-0.020020	0.053881	0.014928	0.041501	0.573468	-0.332174	-0.363697	-0.654614	10.475718	-58.432999	-103.430620
13785		5.187173	1.838409	4.322901	1.295891	0.761745	-2.978536	-1.358845	4.431915	0.387001	-0.914795	0.078125	-0.064453	0.052775	0.018774	0.041939	0.580359	-0.322226	-0.345843	-0.663134	8.702769	-55.974040	-102.247879
13786		5.099301	2.082774	4.457594	1.606734	0.578584	-2.936230	-1.436919	4.407192	0.412674	-0.908203	0.084961	-0.100342	0.051913	0.021248	0.043287	0.588234	-0.311768	-0.327586	-0.670424	6.990012	-53.458729	-100.995545
13787		5.228048	2.598572	4.943829	2.180658	0.514514	-2.498573	-1.528203	4.357645	0.440691	-0.890381	0.087646	-0.140381	0.053280	0.026473	0.048084	0.594289	-0.302342	-0.308914	-0.678220	5.441909	-51.011926	-100.145038
13788		6.110620	2.746602	5.738198	2.339439	0.198250	-1.310670	-1.593305	4.346366	0.476619	-0.884277	0.096924	-0.187256	0.062264	0.028062	0.055815	0.601325	-0.292433	-0.289785	-0.684774	3.910055	-48.504843	-99.186935
13789		7.485173	2.371077	6.784805	1.962530	-0.315703	0.371225	-1.612714	4.429405	0.489325	-0.870850	0.101563	-0.222900	0.076268	0.024433	0.065974	0.606875	-0.282792	-0.270192	-0.691901	2.528908	-45.994594	-98.564635
13790		9.166202	2.182749	7.458254	1.747774	-1.499492	1.980410	-1.556619	4.618243	0.490302	-0.853760	0.117676	-0.270020	0.093294	0.022623	0.072267	0.613606	-0.271640	-0.249956	-0.698013	1.227339	-43.311492	-97.851578
13791		10.460685	1.932876	7.706326	1.483605	-2.836205	2.925758	-1.484154	4.772163	0.533270	-0.840576	0.126953	-0.307861	0.106350	0.020169	0.074392	0.619208	-0.260168	-0.229375	-0.704472	0.073955	-40.588650	-97.398557
13792		11.871381	1.674124	7.687997	1.198298	-4.539941	3.631556	-1.382993	4.814715	0.638352	-0.818604	0.136230	-0.345947	0.120461	0.017642	0.073874	0.626063	-0.247745	-0.208588	-0.709337	-1.035991	-37.781137	-96.781964
13793		13.905027	1.112116	7.659441	0.554787	-6.769679	4.577059	-1.257258	4.764571	0.847244	-0.794434	0.147949	-0.393066	0.140771	0.012182	0.073180	0.632274	-0.235638	-0.188143	-0.713657	-2.060579	-35.046745	-96.269803
13794		16.248510	-0.157643	7.467895	-0.773681	-9.359175	5.404133	-1.033458	4.696118	1.089133	-0.772461	0.159668	-0.426514	0.164183	-0.000313	0.070841	0.640154	-0.222791	-0.168146	-0.715747	-3.020247	-32.289825	-95.507467
13795		17.688651	-1.133414	6.870222	-1.761936	-11.494814	5.222868	-0.696006	4.599942	1.324762	-0.752686	0.175781	-0.458252	0.178473	-0.009926	0.064645	0.647792	-0.209655	-0.149450	-0.716990	-3.780473	-29.621349	-94.805147
13796		18.121545	-1.310992	5.624041	-1.888318	-13.151415	3.794171	-0.325902	4.449836	1.520386	-0.723633	0.178711	-0.498291	0.182499	-0.011638	0.052209	0.656982	-0.195620	-0.132128	-0.715996	-4.365395	-26.983732	-93.874585
13797		17.809488	-0.712682	4.308366	-1.216590	-14.101200	1.843518	-0.065829	4.181199	1.670299	-0.692871	0.192627	-0.518799	0.178995	-0.005621	0.039350	0.665487	-0.181970	-0.116534	-0.714446	-4.771957	-24.526827	-93.026067
13798		16.989102	-0.335100	3.059191	-0.677430	-14.357431	-0.249087	0.044721	3.786608	1.786370	-0.664307	0.206543	-0.543701	0.170450	-0.001837	0.027368	0.674846	-0.169181	-0.102372	-0.710971	-5.131247	-22.255457	-91.976519
13799		16.566948	0.157233	1.986222	-0.046627	-14.730829	-1.976828	0.070914	3.328474	1.846731	-0.646729	0.215820	-0.566162	0.165946	0.003097	0.017103	0.683050	-0.158072	-0.089856	-0.707377	-5.432855	-20.266370	-91.033063
13800		17.200626	1.998960	1.082754	1.981516	-15.947284	-3.273711	-0.019170	2.863893	1.909800	-0.622314	0.225342	-0.582031	0.171936	0.021633	0.008363	0.691752	-0.148824	-0.078459	-0.702264	-5.792526	-18.516381	-89.919019
13801		17.936420	2.887459	0.689647	3.113135	-16.933417	-3.975772	-0.171326	2.459146	1.894671	-0.600342	0.236816	-0.593506	0.179146	0.030577	0.004667	0.699157	-0.141554	-0.067976	-0.697510	-6.189998	-17.009044	-88.938374
13802		19.382793	4.589343	0.283882	5.102402	-18.529705	-4.575560	-0.252094	2.113173	1.615234	-0.582764	0.246094	-0.609131	0.193464	0.047459	0.000734	0.705850	-0.135675	-0.058595	-0.692773	-6.582038	-15.706097	-88.019830
13803		20.562954	7.335588	-0.654312	7.994258	-19.946100	-5.901137	-0.365441	1.847158	1.105719	-0.567383	0.259766	-0.625244	0.205147	0.074477	-0.008575	0.709931	-0.130928	-0.050101	-0.690178	-6.928553	-14.587849	-87.495521
13804		20.496929	8.608155	-2.096234	9.205418	-20.248913	-7.850813	-0.467417	1.574608	0.295307	-0.556641	0.268799	-0.625488	0.204667	0.086332	-0.022776	0.711273	-0.127378	-0.042820	-0.689951	-7.220310	-13.690835	-87.388500
13805		19.799981	9.675900	-3.304991	10.006748	-19.909889	-9.618365	-0.502697	1.194437	-0.694154	-0.556152	0.257813	-0.629639	0.198131	0.095986	-0.034475	0.708796	-0.124939	-0.037324	-0.693257	-7.394285	-13.069902	-87.881883
13806		19.149440	9.964681	-3.683560	9.957040	-19.497004	-10.337805	-0.522663	0.730248	-1.566838	-0.558594	0.262207	-0.629639	0.192130	0.098045	-0.037794	0.702992	-0.124176	-0.034111	-0.699441	-7.475894	-12.807044	-88.869662
13807		17.830350	6.066851	-3.216101	5.762493	-18.216633	-9.738272	-0.427847	0.272295	-2.067317	-0.569580	0.253174	-0.640625	0.178873	0.058752	-0.032531	0.695505	-0.124415	-0.032984	-0.706899	-7.449845	-12.813536	-90.093267
13808		0.022930	-10.585802	-1.516240	-10.689882	0.075540	-10.076950	2.141219	-1.079476	-2.520024	-0.577393	0.224121	-0.639893	-0.001017	-0.105680	-0.016298	0.687142	-0.120621	-0.046170	-0.714951	-5.891530	-13.646275	-91.567016
13809		-6.381619	-2.719810	8.493802	-1.643393	8.410813	-2.970566	2.968778	-2.131817	-2.996276	-0.610107	0.194580	-0.634521	-0.065124	-0.027479	0.083842	0.677538	-0.117364	-0.065944	-0.723062	-3.780015	-15.015621	-93.224953
13810		-12.971670	-4.583734	17.525800	-2.455201	17.559821	3.678015	1.975168	-3.043013	-2.386766	-0.631836	0.176270	-0.611816	-0.132907	-0.045979	0.172798	0.668628	-0.121137	-0.085057	-0.728716	-2.277361	-16.875401	-94.586698
13811		2.418658	-2.935713	13.895160	-2.262364	2.274086	4.230613	0.819792	-4.849736	-0.030269	-0.670166	0.184326	-0.583008	0.020806	-0.029931	0.139362	0.666747	-0.136065	-0.104291	-0.725299	-1.835121	-19.660529	-94.499066
13812		35.673929	-1.046107	23.984506	-2.208227	-24.603563	25.378902	1.252834	-4.599384	0.813693	-0.697021	0.183838	-0.562988	0.351143	-0.010561	0.247898	0.667803	-0.149187	-0.123803	-0.718648	-1.320271	-22.319940	-93.939969
13813		35.774647	19.577871	21.108738	18.200752	-26.202220	23.214407	0.857705	-2.031221	-0.108948	-0.708008	0.176758	-0.551514	0.355679	0.194667	0.215543	0.666749	-0.153595	-0.133784	-0.716908	-0.811980	-23.492380	-93.983432
13814		2.650476	4.180650	9.268689	4.382575	0.994222	-0.314529	0.052646	-1.299737	-0.453079	-0.723877	0.178711	-0.542725	0.025996	0.041723	0.092868	0.663703	-0.158143	-0.138964	-0.717759	-0.655997	-24.297808	-94.340353
13815		1.629560	-12.242513	8.564779	-11.989335	3.083203	-1.290057	0.964655	-1.746602	-0.377793	-0.734863	0.171875	-0.529053	0.015318	-0.122866	0.085192	0.661856	-0.160989	-0.148558	-0.716910	-0.006250	-25.307552	-94.571756
13816		8.968083	-1.145304	6.767866	-1.617155	-5.011349	0.177790	1.541255	-1.670880	-0.195264	-0.750244	0.164795	-0.522217	0.089100	-0.012065	0.068333	0.660680	-0.162087	-0.160062	-0.715269	0.946075	-26.319196	-94.765037
13817		14.217657	6.851579	10.737189	5.904351	-8.355216	6.302318	1.157399	-1.180170	-0.433138	-0.754639	0.160156	-0.517822	0.141685	0.067582	0.108602	0.659093	-0.162182	-0.168490	-0.714776	1.741521	-26.997264	-95.059972
13818		8.404453	3.671194	11.988408	3.066889	-2.242017	4.795562	0.507670	-0.397204	-0.367059	-0.765625	0.155518	-0.506348	0.083873	0.036253	0.120143	0.657316	-0.162022	-0.172234	-0.715556	2.159135	-27.277200	-95.382219
13819		3.842776	-3.528812	10.167286	-3.809887	1.567087	0.846655	0.487085	-0.415610	-0.314176	-0.761230	0.155762	-0.506592	0.038161	-0.035596	0.101666	0.656216	-0.161688	-0.175640	-0.715813	2.536359	-27.515746	-95.595536
13820		8.744529	4.330810	9.977603	3.533549	-3.401753	3.253183	0.360694	-0.242312	-0.255687	-0.774414	0.148682	-0.506348	0.087379	0.043016	0.099960	0.654856	-0.161550	-0.178255	-0.716443	2.837999	-27.706645	-95.843028
13821		6.460609	0.234057	8.244692	-0.379077	-1.848415	0.493077	0.189343	-0.171717	-0.198668	-0.776367	0.144287	-0.501709	0.064537	0.002198	0.082504	0.654134	-0.161419	-0.179701	-0.716771	3.008894	-27.807190	-95.977020
13822		6.640531	1.773239	8.422916	1.105425	-2.019215	0.812155	0.187754	-0.118377	-0.164241	-0.774414	0.148682	-0.499512	0.066370	0.017599	0.084285	0.653009	-0.161498	-0.181220	-0.717396	3.185314	-27.930039	-96.172314
13823		6.507964	1.112371	8.432914	0.437065	-1.831920	0.730463	0.139507	-0.065478	-0.139724	-0.778564	0.139648	-0.494873	0.065060	0.011019	0.084358	0.652551	-0.161203	-0.182093	-0.717658	3.308777	-27.971152	-96.265131
13824		5.429744	1.143676	9.080614	0.547590	-0.565904	0.799925	0.121709	-0.023077	-0.084971	-0.771973	0.148682	-0.495117	0.054292	0.011358	0.090819	0.651715	-0.161236	-0.183003	-0.718179	3.423086	-28.042330	-96.410394
13825		4.471985	0.926977	8.960134	0.413546	0.238050	0.232921	0.110444	0.021106	-0.044890	-0.774170	0.144287	-0.490723	0.044731	0.009210	0.089602	0.651652	-0.160811	-0.183414	-0.718226	3.499692	-28.036998	-96.438639
13826		4.966105	0.988861	8.896009	0.413119	-0.222416	0.412716	0.096103	0.038010	-0.044747	-0.773926	0.139893	-0.488281	0.049680	0.009835	0.088955	0.650989	-0.160742	-0.183997	-0.718694	3.586347	-28.073800	-96.556721
13827		4.283162	0.659476	8.756510	0.144981	0.336328	-0.049353	0.076216	0.043159	-0.071334	-0.778320	0.137451	-0.486084	0.042853	0.006546	0.087558	0.650823	-0.160326	-0.184235	-0.718876	3.651017	-28.054932	-96.601209
13828		4.209135	0.553345	8.707454	0.034130	0.395310	-0.133570	0.088592	0.010271	-0.153115	-0.776123	0.139648	-0.486084	0.042100	0.005463	0.087075	0.649740	-0.160276	-0.184965	-0.719679	3.767088	-28.102638	-96.790548
13829		4.731823	0.558909	8.584608	-0.028953	-0.117779	0.004812	0.092947	-0.037339	-0.188727	-0.775879	0.133057	-0.483643	0.047307	0.005505	0.085857	0.649090	-0.159987	-0.185619	-0.720161	3.878881	-28.125262	-96.914576
13830		4.383007	0.034943	8.664368	-0.530134	0.286729	-0.121456	0.072762	-0.024203	-0.178298	-0.775879	0.128662	-0.483643	0.043820	0.000279	0.086649	0.647880	-0.160083	-0.186420	-0.721022	3.994412	-28.190407	-97.120243
13831		4.312999	-0.026143	8.684134	-0.598984	0.366569	-0.141925	0.117858	0.008522	-0.172053	-0.780273	0.128662	-0.485840	0.043133	-0.000350	0.086839	0.647351	-0.159564	-0.187004	-0.721461	4.114638	-28.187149	-97.231561
13832		4.422405	0.513080	8.819259	-0.096742	0.295182	0.061710	0.138432	0.038008	-0.167398	-0.778076	0.130859	-0.492432	0.044245	0.005033	0.088188	0.646320	-0.159225	-0.187828	-0.722245	4.262514	-28.215753	-97.422571
13833		4.350078	0.430586	8.846221	-0.189292	0.378176	0.045575	0.115383	0.036381	-0.156728	-0.775635	0.122070	-0.485596	0.043520	0.004221	0.088457	0.645869	-0.158628	-0.188301	-0.722657	4.376041	-28.196879	-97.522610
13834		4.987386	0.688623	8.345139	-0.018805	-0.434512	-0.076138	0.109131	0.032209	-0.158205	-0.777588	0.119629	-0.479004	0.049893	0.006801	0.083447	0.644857	-0.158406	-0.189026	-0.723420	4.504150	-28.227770	-97.705405
13835		4.778782	0.444050	8.494006	-0.255768	-0.158659	-0.061202	0.108030	0.044580	-0.138925	-0.782227	0.119629	-0.483398	0.047810	0.004361	0.084932	0.644470	-0.157820	-0.189433	-0.723786	4.607815	-28.204751	-97.793422
13836		4.718455	0.781560	8.593464	0.066670	-0.086359	0.021454	0.128144	0.077773	-0.119692	-0.784180	0.113037	-0.485352	0.047223	0.007732	0.085921	0.643667	-0.157404	-0.190049	-0.724429	4.733651	-28.210555	-97.946860
13837		3.975259	0.526698	8.812635	-0.115503	0.687403	-0.155734	0.128249	0.082699	-0.078486	-0.784180	0.110596	-0.487549	0.039791	0.005195	0.088113	0.643551	-0.156673	-0.190359	-0.724610	4.829362	-28.168442	-97.993553
13838		4.500897	0.498084	9.046436	-0.228470	0.347155	0.295302	0.124277	0.068577	-0.065182	-0.786133	0.104004	-0.494141	0.045042	0.004910	0.090452	0.642945	-0.156348	-0.190944	-0.725064	4.936176	-28.180966	-98.110180
13839		4.437336	0.404905	8.949301	-0.324567	0.361146	0.172707	0.104614	0.077263	-0.049219	-0.785889	0.099609	-0.489502	0.044409	0.003991	0.089478	0.642910	-0.155741	-0.191164	-0.725167	5.009474	-28.143361	-98.138080
13840		5.316564	1.077667	8.516916	0.226949	-0.677303	0.259791	0.121101	0.081019	-0.037652	-0.792969	0.104004	-0.491943	0.053202	0.010715	0.085154	0.642433	-0.155401	-0.191672	-0.725529	5.105096	-28.149138	-98.232911
13841		5.208190	0.819604	8.493897	-0.026610	-0.572609	0.168029	0.129271	0.082481	0.017041	-0.799072	0.092773	-0.491699	0.052116	0.008146	0.084923	0.642662	-0.154759	-0.191914	-0.725399	5.172113	-28.111971	-98.217518
13842		5.012769	0.906347	8.575221	0.070457	-0.367282	0.154452	0.114863	0.048911	0.015454	-0.801514	0.092529	-0.491699	0.050148	0.009018	0.085745	0.642345	-0.154605	-0.192461	-0.725568	5.248747	-28.138592	-98.279393
13843		4.935329	0.776183	8.557057	-0.056985	-0.296598	0.091450	0.092857	0.037142	0.003838	-0.807861	0.081299	-0.491211	0.049369	0.007723	0.085565	0.642454	-0.154233	-0.192728	-0.725480	5.300184	-28.126715	-98.275169
13844		4.322865	0.650341	8.967627	-0.121553	0.453498	0.152652	0.071443	0.041625	0.017631	-0.812500	0.085693	-0.491455	0.043247	0.006475	0.089670	0.642111	-0.154244	-0.193137	-0.725672	5.351266	-28.157230	-98.334914
13845		4.177095	0.462578	8.861091	-0.292085	0.546906	-0.025113	0.059753	0.041612	0.005973	-0.823486	0.081055	-0.486816	0.041789	0.004601	0.088604	0.642206	-0.153965	-0.193268	-0.725612	5.382971	-28.143008	-98.329034
13846		4.913586	0.911063	8.531332	0.059167	-0.292503	0.070021	0.069236	0.041443	-0.009144	-0.827393	0.069824	-0.473145	0.049154	0.009079	0.085306	0.641783	-0.153951	-0.193686	-0.725879	5.440402	-28.171195	-98.403271
13847		4.916010	0.464177	8.242911	-0.383607	-0.389162	-0.219482	0.060982	0.042241	-0.031604	-0.831787	0.062988	-0.475342	0.049178	0.004609	0.082420	0.641743	-0.153629	-0.193849	-0.725938	5.484278	-28.154655	-98.421653
13848		4.881571	0.929691	8.261708	0.071836	-0.390130	-0.179801	0.077200	0.010313	-0.073651	-0.838379	0.060791	-0.464111	0.048823	0.009247	0.082618	0.641073	-0.153637	-0.194444	-0.726369	5.566586	-28.196664	-98.537639
13849		4.414992	0.398646	8.598049	-0.412148	0.235961	-0.150806	0.067103	-0.039565	-0.108205	-0.840332	0.051758	-0.452881	0.044135	0.003934	0.085991	0.640680	-0.153519	-0.194951	-0.726605	5.639874	-28.222528	-98.610763
13850		3.985718	-0.178216	9.032693	-0.949878	0.896041	-0.024834	0.084264	-0.101464	-0.141967	-0.849121	0.049316	-0.448242	0.039810	-0.001848	0.090346	0.639671	-0.153839	-0.195979	-0.727150	5.750431	-28.323675	-98.776194
13851		3.499763	-0.268205	9.308775	-0.993446	1.478888	-0.024967	0.091116	-0.190361	-0.193437	-0.853027	0.033691	-0.430176	0.034906	-0.002758	0.093120	0.638837	-0.154109	-0.197122	-0.727517	5.868763	-28.430401	-98.914716
13852		3.273266	-0.373594	9.903070	-1.096479	2.012383	0.369285	0.118582	-0.321684	-0.247685	-0.857178	0.024658	-0.418701	0.032569	-0.003835	0.099081	0.637294	-0.155003	-0.199052	-0.728155	6.038377	-28.648918	-99.157301
13853		2.983837	-0.279939	10.109125	-0.984530	2.399772	0.407272	0.139556	-0.497982	-0.292181	-0.859375	0.024658	-0.405518	0.029582	-0.002913	0.101163	0.635826	-0.156139	-0.201427	-0.728542	6.227199	-28.924234	-99.382734
13854		2.955044	-0.206508	10.702259	-0.938927	2.791839	0.894158	0.163871	-0.840306	-0.366592	-0.858887	0.013428	-0.385254	0.029096	-0.002206	0.107144	0.633398	-0.158639	-0.205246	-0.729050	6.480718	-29.427207	-99.735387
13855		2.801429	1.919797	11.860889	1.153139	3.383372	1.995591	-0.065675	-1.321953	-0.459733	-0.872070	0.006348	-0.362793	0.027274	0.019174	0.118784	0.630283	-0.163250	-0.209608	-0.729491	6.643209	-30.159148	-100.137501
13856		2.327782	2.505495	13.051664	1.811493	4.528762	2.766858	-0.204994	-2.082928	-0.432450	-0.878418	-0.002686	-0.331543	0.021971	0.025140	0.130724	0.625967	-0.171344	-0.216011	-0.729483	6.768597	-31.360179	-100.636496
13857		1.670366	2.233913	14.678805	1.696888	6.283553	3.636106	-0.323277	-2.924792	-0.230300	-0.880615	-0.000488	-0.293701	0.014581	0.022559	0.146975	0.621607	-0.182816	-0.224214	-0.727950	6.791204	-33.018314	-101.025997
13858		-0.400043	4.550029	18.655294	4.431924	10.394040	5.716381	-0.451424	-4.212901	0.108711	-0.894043	-0.000977	-0.247070	-0.007952	0.045917	0.186310	0.616350	-0.199924	-0.235717	-0.724279	6.698317	-35.462507	-101.349355
13859		0.527483	2.310493	22.138672	2.313276	12.822518	8.237829	-0.290243	-5.951201	0.578548	-0.909912	0.007324	-0.182861	-0.001381	0.023429	0.221378	0.610847	-0.223019	-0.252373	-0.716544	6.582236	-38.897454	-101.431931
13860		-1.141561	-3.889791	22.282644	-3.296916	16.113214	5.750035	0.175639	-7.824636	0.716859	-0.919189	0.013672	-0.107422	-0.019976	-0.039155	0.222122	0.602855	-0.251497	-0.276017	-0.705074	6.800294	-43.428134	-101.648310
13861		0.854465	-4.628827	21.868427	-4.148579	15.815126	5.442303	0.659558	-9.266097	0.214041	-0.927979	0.015381	-0.009766	-0.001537	-0.047008	0.218614	0.590982	-0.282246	-0.305747	-0.691084	7.751952	-48.719828	-102.443214
13862		2.344810	-8.455117	21.779573	-8.030897	16.700156	4.592713	1.111681	-10.089173	-0.682683	-0.920898	0.008789	0.072510	0.012155	-0.085818	0.218124	0.573800	-0.312559	-0.340014	-0.676351	10.013601	-54.390067	-104.533908
13863		12.071567	-7.395326	24.515985	-8.341453	15.287717	12.490730	1.592695	-10.302963	-1.466730	-0.913330	-0.004883	0.170410	0.107349	-0.076754	0.250317	0.552999	-0.339948	-0.376812	-0.660787	14.122928	-59.999425	-108.330887
13864		18.563350	-5.127502	21.715769	-7.465438	11.977929	15.536281	1.944459	-9.617208	-2.025280	-0.901611	-0.015869	0.248291	0.174384	-0.055243	0.225201	0.530919	-0.362083	-0.412865	-0.645417	20.510141	-64.929290	-114.250588
13865		23.140881	-0.564918	24.103304	-4.148278	14.466521	20.014108	1.831832	-7.950326	-2.161062	-0.883301	-0.024658	0.303955	0.221496	-0.010341	0.249891	0.510349	-0.378142	-0.443462	-0.632372	28.606228	-68.574530	-121.913137
13866		7.715748	-4.600878	20.710889	-5.598976	18.062091	2.508640	1.835859	-6.921387	-2.239396	-0.862549	-0.035400	0.359375	0.069406	-0.048729	0.209162	0.491372	-0.389938	-0.470962	-0.620239	38.546036	-71.181433	-131.324898
13867		0.406375	-4.049099	18.723902	-3.700960	18.436877	-6.153627	1.986578	-6.145997	-2.214986	-0.848389	-0.048584	0.399658	-0.002145	-0.042347	0.186822	0.473582	-0.398724	-0.496303	-0.608623	50.092505	-72.828655	-142.263382
13868		27.780035	0.150709	28.022623	-6.099237	23.045828	21.628014	0.680812	-3.543782	-1.439235	-0.841309	-0.057373	0.408691	0.272774	-0.001433	0.285088	0.462236	-0.403893	-0.509687	-0.602850	57.406233	-73.368298	-149.422600
13869		7.554423	-1.674139	26.475388	-2.981855	25.160208	1.090900	-0.759912	-0.230783	-0.613190	-0.845703	-0.061768	0.391113	0.075189	-0.015966	0.264902	0.458219	-0.404828	-0.509201	-0.605693	57.993448	-73.147486	-150.490139
13870		-6.910031	-9.656695	17.462566	-7.138902	18.894129	-15.975487	-1.218876	1.022178	-0.046929	-0.861572	-0.059814	0.371094	-0.068227	-0.095483	0.175560	0.459017	-0.403853	-0.503394	-0.610574	55.608446	-72.803596	-148.622980
13871		-12.005442	-11.432131	10.955459	-7.679618	13.548689	-22.153592	-0.672074	0.983372	0.260150	-0.861572	-0.059814	0.355469	-0.119364	-0.114107	0.110526	0.460882	-0.403092	-0.498589	-0.613607	53.496440	-72.604142	-146.813967
13872		-9.589598	-7.886912	10.530718	-4.927417	12.572780	-18.906830	-0.131061	0.874745	0.420753	-0.875244	-0.053467	0.335449	-0.095268	-0.079001	0.105777	0.465193	-0.401034	-0.495513	-0.614194	51.515049	-72.485974	-144.676177
13873		-6.267855	-4.147563	11.659011	-2.140039	12.878362	-14.501624	-0.152799	1.158655	0.634399	-0.882324	-0.044678	0.315430	-0.061870	-0.041583	0.116982	0.469657	-0.399446	-0.491105	-0.615371	49.105293	-72.348100	-142.239926
13874		-3.893509	-2.202325	12.454054	-0.877975	13.106956	-11.407675	-0.583240	1.859437	0.896706	-0.886963	-0.042480	0.291016	-0.037676	-0.021830	0.124959	0.477055	-0.396456	-0.483323	-0.617770	45.060355	-71.985979	-138.184510
13875		-3.085066	-2.236719	12.230948	-1.108841	12.750021	-10.370855	-1.027241	2.746094	1.134903	-0.898682	-0.033691	0.244141	-0.029041	-0.021905	0.122830	0.485065	-0.393170	-0.471331	-0.622878	39.846083	-71.270626	-133.310583
13876		-3.264566	-2.641436	11.065038	-1.533772	11.715900	-10.473796	-1.216319	3.556907	1.305384	-0.903809	-0.020264	0.210693	-0.030499	-0.025942	0.111364	0.496382	-0.387188	-0.456413	-0.628791	33.768351	-70.056670	-127.444607
13877		-3.386205	-2.204176	9.774036	-1.130340	10.497967	-10.406830	-1.185193	4.148885	1.404634	-0.917969	-0.002686	0.163574	-0.031670	-0.021687	0.098542	0.507810	-0.380244	-0.439595	-0.635845	28.053630	-68.437110	-122.060514
13878		-2.608616	-0.989923	8.835743	-0.172865	9.249753	-9.311462	-1.107155	4.549996	1.432392	-0.920654	0.004150	0.119141	-0.023997	-0.009585	0.088973	0.521550	-0.370755	-0.421770	-0.642368	22.785497	-66.386761	-116.872210
13879		-1.187141	0.405887	8.107163	0.910650	7.860693	-7.652291	-1.088462	4.829538	1.425217	-0.914307	0.015625	0.067871	-0.009941	0.004426	0.081304	0.534090	-0.361018	-0.402942	-0.649655	18.399016	-64.090988	-112.729550
13880		0.318963	1.507544	7.864146	1.728884	6.765247	-5.882152	-1.152243	5.024260	1.400325	-0.915283	0.037842	0.011719	0.005054	0.015559	0.078441	0.547951	-0.349622	-0.383138	-0.656292	14.532964	-61.496679	-108.957345
