// General information: 
//  MT Manager version: 2019.2.0 
//  XDA version: 2019.2.0 build 3853 rev 94535 built on 2019-09-09
// Device information: 
//  DeviceId: 00B40AC7
//  ProductCode: MTW2-3A7G6
//  Firmware Version: 4.3.5
//  Hardware Version: 1.1.0
// Device settings: 
//  Filter Profile: human(46.1)
//  Option Flags: Orientation Smoother Disabled, AHS Disabled, ICC Disabled
// Coordinate system: ENU
PacketCounter	SampleTimeFine	Acc_X	Acc_Y	Acc_Z	FreeAcc_E	FreeAcc_N	FreeAcc_U	Gyr_X	Gyr_Y	Gyr_Z	Mag_X	Mag_Y	Mag_Z	VelInc_X	VelInc_Y	VelInc_Z	Quat_q0	Quat_q1	Quat_q2	Quat_q3	Roll	Pitch	Yaw
13338		15.556909	16.452198	-4.130794	0.000000	0.000000	13.203391	-0.046855	-0.041457	1.936354	-0.841309	0.003174	0.334961	0.153975	0.166008	-0.041315	0.112027	-0.415706	-0.645709	-0.630633	103.975366	-41.989132	147.847161
13339		15.031491	17.662448	-4.483335	-0.000000	0.000000	13.809328	-0.891823	0.048752	1.275431	-0.839111	0.005371	0.332764	0.149174	0.177376	-0.045660	0.101964	-0.395810	-0.663310	-0.626863	104.435528	-39.161271	149.180099
13340		13.602279	16.339865	-4.021354	0.381233	-0.297424	11.819285	-1.718365	0.092682	0.720257	-0.839111	0.007324	0.328369	0.135415	0.163533	-0.041681	0.103716	-0.404742	-0.650255	-0.634504	103.159199	-40.428978	148.762433
13341		12.971532	13.109669	-5.441251	-1.953638	-1.677174	9.242381	-1.986342	-0.066121	0.100818	-0.843506	0.000977	0.334961	0.129668	0.130613	-0.055668	0.099796	-0.406290	-0.643751	-0.640745	102.063386	-40.477076	148.697274
13342		12.333862	-2.568778	-10.502207	-13.874244	-4.121370	-2.097097	-1.448459	-1.312235	-0.513750	-0.834229	-0.007568	0.353027	0.123955	-0.026761	-0.104019	0.091053	-0.409534	-0.641043	-0.642694	101.854818	-40.026919	147.802368
13343		17.208248	-48.417955	-4.038752	-43.815263	11.688874	-34.312627	-1.483141	-1.006815	0.730104	-0.836914	0.003418	0.352783	0.174037	-0.483824	-0.035926	0.087131	-0.415765	-0.635211	-0.645023	101.553577	-40.319522	146.952053
13344		28.196591	-53.435227	22.701630	-44.928286	42.087951	-29.196144	-1.408109	1.451965	0.665066	-0.845459	-0.005615	0.343994	0.285393	-0.531801	0.228703	0.127638	-0.448130	-0.617748	-0.633463	103.859062	-46.505735	145.286747
13345		25.236234	-7.933394	-0.398783	-20.337534	10.984763	3.057655	2.250031	0.934196	-2.096906	-0.841064	-0.007813	0.337402	0.251487	-0.081913	-0.006076	0.128907	-0.437201	-0.628897	-0.629863	104.308256	-45.470635	146.454699
13346		23.860058	33.387605	-16.681205	14.678307	-18.101238	27.851358	6.029691	-1.270523	-3.514876	-0.835938	-0.025146	0.362305	0.245486	0.334398	-0.155189	0.250850	-0.500467	-0.568537	-0.602804	108.745467	-62.698151	144.456230
13347		39.688613	14.744541	-8.451672	-5.279873	-0.154802	33.034582	2.299275	-0.736994	-3.984080	-0.830566	-0.053711	0.354248	0.400034	0.140445	-0.081405	0.242433	-0.488345	-0.586205	-0.599258	109.422016	-60.402844	145.185144
13348		4.516869	-3.901058	12.712283	-1.080398	13.946724	-8.573769	-3.625326	2.078660	-3.493925	-0.833740	-0.093506	0.339600	0.045828	-0.037500	0.127338	0.293330	-0.522812	-0.537781	-0.592804	110.707846	-69.283975	142.662882
13349		-7.801563	3.050006	0.119173	5.087549	-2.330313	-16.046771	-0.454196	0.400213	-2.533681	-0.833252	-0.115234	0.346924	-0.077618	0.031488	0.001277	0.285685	-0.515435	-0.542425	-0.598737	108.645585	-67.994087	144.597669
13350		3.245277	3.590554	-6.469982	0.668014	-6.694074	-5.337544	0.783049	-0.005845	-2.452924	-0.832764	-0.126221	0.347168	0.032894	0.035757	-0.064559	0.327683	-0.529309	-0.505539	-0.597400	105.534797	-74.521566	147.432375
13351		9.471788	4.370054	-8.029398	-0.574024	-7.434925	1.035042	0.423742	-0.044697	-1.931905	-0.832520	-0.139404	0.343018	0.095153	0.042953	-0.080181	0.322905	-0.523840	-0.511966	-0.599346	104.853001	-73.446612	148.394259
13352		10.546998	1.799996	-4.081712	-1.466489	-2.820358	1.188729	-0.808057	0.471664	-1.484103	-0.831787	-0.161377	0.341309	0.105502	0.017051	-0.041136	0.335359	-0.539652	-0.501070	-0.587570	110.448442	-75.987720	142.704420
13353		8.727169	2.892994	-0.584988	0.782410	-0.087657	-0.633712	-1.217675	0.553954	-1.176721	-0.833740	-0.172363	0.339355	0.087423	0.028379	-0.006266	0.329991	-0.537097	-0.499719	-0.594065	107.706202	-75.454192	144.814114
13354		13.113412	-3.004601	-1.197081	-5.400772	1.716586	2.447207	-0.550259	0.446130	-1.103581	-0.831055	-0.183350	0.337646	0.130939	-0.030802	-0.012179	0.334570	-0.548197	-0.495452	-0.584868	113.384195	-76.599095	139.064812
13355		14.359396	-4.720964	-0.477506	-7.138451	3.066090	3.162196	0.564668	0.164584	-0.921393	-0.830566	-0.196533	0.340088	0.143370	-0.047857	-0.005028	0.333826	-0.544480	-0.499346	-0.585452	112.500494	-76.149671	140.306994
13356		10.904124	-0.077813	-1.732454	-1.996882	-0.025075	1.046356	0.969567	0.016017	-0.765575	-0.826172	-0.196533	0.348877	0.109036	-0.001111	-0.017338	0.350247	-0.557608	-0.490700	-0.570626	121.404187	-78.551499	131.994937
13357		7.295946	0.345535	-1.901228	-1.217434	-0.819746	-2.409267	0.796320	0.036485	-0.764239	-0.832764	-0.198730	0.342285	0.072969	0.003252	-0.019012	0.350371	-0.554226	-0.495031	-0.570104	120.676449	-78.187087	133.203748
13358		8.189481	-0.950468	-1.266243	-2.089091	0.256181	-1.741492	0.649543	0.012682	-0.744813	-0.825928	-0.207275	0.349121	0.081858	-0.009768	-0.012699	0.360548	-0.563677	-0.489657	-0.559025	129.199459	-79.517050	125.072687
13359		10.093185	-0.129926	-1.230867	-1.551634	0.372976	0.230084	0.697644	-0.046502	-0.743625	-0.828125	-0.207520	0.346924	0.100929	-0.001632	-0.012291	0.360317	-0.560721	-0.493780	-0.558520	128.292556	-79.168054	126.402240
13360		10.336015	-0.970269	-2.248688	-2.370258	-0.354239	0.535616	0.549431	-0.043913	-0.627655	-0.823242	-0.218262	0.354004	0.103334	-0.009965	-0.022491	0.368048	-0.567930	-0.489298	-0.550076	135.859117	-80.056832	119.106654
13361		10.101692	-0.149187	-1.774735	-1.485767	-0.129831	0.335788	0.273998	-0.001335	-0.548919	-0.825684	-0.216064	0.358398	0.101012	-0.001745	-0.017749	0.367311	-0.566084	-0.491611	-0.550410	134.758074	-79.835088	120.384303
13362		9.901013	-0.002043	-1.840198	-1.121367	-0.259787	0.191869	-0.111732	0.070975	-0.549025	-0.823242	-0.222656	0.358398	0.099003	-0.000303	-0.018437	0.372525	-0.572238	-0.487169	-0.544460	141.211136	-80.430670	113.970880
13363		9.672481	-1.344666	-1.828536	-2.452675	0.057546	-0.185157	-0.339273	0.089171	-0.543549	-0.825195	-0.229248	0.354248	0.096680	-0.013740	-0.018305	0.370290	-0.571300	-0.487632	-0.546551	139.415211	-80.271098	115.595394
13364		9.907688	-1.606303	-2.035570	-2.605979	-0.020444	0.091562	-0.293271	0.066673	-0.580368	-0.820557	-0.235840	0.356689	0.099023	-0.016380	-0.020365	0.372892	-0.577252	-0.483261	-0.542393	144.932151	-80.611035	109.875601
13365		9.343987	-1.502095	-1.997487	-2.522970	-0.084997	-0.475480	-0.144810	0.044113	-0.595788	-0.822510	-0.246826	0.359131	0.093390	-0.015314	-0.019984	0.370963	-0.575960	-0.484503	-0.543978	143.105776	-80.430913	111.643135
13366		9.125802	-2.206238	-2.391337	-3.148605	-0.309300	-0.655362	-0.004575	0.036849	-0.585517	-0.818115	-0.246826	0.354736	0.091189	-0.022330	-0.023930	0.374893	-0.580133	-0.482131	-0.538935	148.461583	-80.681248	106.430902
13367		9.742281	-1.972322	-2.576464	-3.052169	-0.442217	-0.018366	0.167796	0.019097	-0.588727	-0.817627	-0.259766	0.363770	0.097362	-0.019988	-0.025791	0.373838	-0.578345	-0.484253	-0.539687	146.802168	-80.509886	108.210370
13368		9.878530	-1.163211	-2.386872	-2.066319	-0.421132	0.196725	0.191734	0.040112	-0.556477	-0.820068	-0.253418	0.361572	0.098748	-0.011884	-0.023900	0.377252	-0.583098	-0.481870	-0.534302	152.560542	-80.635850	102.549825
13369		9.866431	1.103597	-2.251756	0.107474	-0.855799	0.330816	0.128821	0.060681	-0.527230	-0.815186	-0.268555	0.361816	0.098686	0.010790	-0.022540	0.376364	-0.581420	-0.483635	-0.535161	150.931343	-80.523465	104.276110
13370		9.537565	0.480201	-1.881670	-0.267884	-0.371730	-0.090225	-0.056582	0.127160	-0.483184	-0.812744	-0.272949	0.357666	0.095375	0.004566	-0.018879	0.377853	-0.585813	-0.481103	-0.531592	155.255793	-80.539653	99.843597
13371		9.284134	0.033519	-1.828924	-0.724056	-0.249897	-0.381125	-0.046304	0.110404	-0.438811	-0.815186	-0.266357	0.359619	0.092832	0.000127	-0.018341	0.376816	-0.584550	-0.482055	-0.532854	153.708266	-80.488424	101.385678
13372		10.272393	-0.031505	-1.461375	-0.634346	0.307740	0.539192	-0.059691	0.105777	-0.420121	-0.810059	-0.288330	0.357910	0.102715	-0.000535	-0.014668	0.376572	-0.588605	-0.479523	-0.530844	156.701615	-80.423680	98.112031
13373		9.284008	-1.186293	-1.366662	-1.739362	0.532383	-0.530503	-0.054806	0.079330	-0.353335	-0.810059	-0.288330	0.360107	0.092813	-0.012031	-0.013700	0.375663	-0.587650	-0.480267	-0.531873	155.466697	-80.383157	99.332629
13374		9.849704	-0.077374	-1.701843	-0.697200	0.030453	0.158864	0.065915	0.030447	-0.325797	-0.809814	-0.292725	0.355957	0.098493	-0.000929	-0.017034	0.377291	-0.589901	-0.479101	-0.529273	158.197223	-80.387273	96.649264
13375		9.471322	-0.412669	-1.592500	-1.012212	0.161979	-0.254370	0.025399	0.026847	-0.266534	-0.809814	-0.292725	0.362549	0.094705	-0.004251	-0.015938	0.376725	-0.589143	-0.479904	-0.529793	157.344800	-80.343737	97.528644
13376		9.771965	0.404968	-1.613943	-0.168420	-0.007145	0.098500	-0.000096	0.028714	-0.266907	-0.807617	-0.294922	0.360352	0.097723	0.003919	-0.016153	0.377451	-0.591645	-0.478248	-0.527982	159.665996	-80.328398	95.113312
13377		9.909973	-0.033416	-1.466324	-0.580630	0.272783	0.184671	-0.078423	0.042894	-0.255376	-0.804932	-0.305908	0.360596	0.099096	-0.000466	-0.014684	0.376647	-0.591069	-0.478715	-0.528778	158.768542	-80.299455	95.978163
13378		9.750903	0.112062	-1.578832	-0.420732	0.107708	0.056290	-0.137116	0.023450	-0.246368	-0.804932	-0.308105	0.367432	0.097508	0.000990	-0.015800	0.376883	-0.593080	-0.477173	-0.527751	160.387227	-80.289930	94.226487
13379		9.828354	-0.731459	-2.085706	-1.395793	-0.137406	0.163011	-0.179740	0.045402	-0.231592	-0.804932	-0.310303	0.360840	0.098270	-0.007447	-0.020873	0.375847	-0.592746	-0.477300	-0.528750	159.504586	-80.268863	95.017503
13380		9.516163	-1.320792	-2.361649	-1.994857	-0.288937	-0.126809	-0.176580	0.038759	-0.223739	-0.800049	-0.319092	0.356445	0.095142	-0.013335	-0.023623	0.375931	-0.594600	-0.475753	-0.528001	160.896642	-80.264885	93.476333
13381		9.912512	-0.321552	-2.003628	-0.966682	-0.142778	0.258106	-0.220601	0.052864	-0.238185	-0.804443	-0.321289	0.358887	0.099116	-0.003356	-0.020059	0.374771	-0.594308	-0.475779	-0.529130	159.962403	-80.247709	94.296002
13382		9.564527	-0.521497	-2.299539	-1.201104	-0.418657	-0.044268	-0.295185	0.076312	-0.242486	-0.795166	-0.332275	0.352539	0.095630	-0.005365	-0.023024	0.374168	-0.596537	-0.473701	-0.528913	161.185612	-80.237925	92.800153
13383		9.964252	-0.243099	-2.511118	-1.029380	-0.625141	0.395182	-0.334851	0.093152	-0.284035	-0.794922	-0.341064	0.350586	0.099627	-0.002615	-0.025153	0.372638	-0.596243	-0.473487	-0.530514	159.998780	-80.234186	93.809755
13384		10.178519	-0.422745	-2.440270	-1.162249	-0.457830	0.588048	-0.377822	0.128801	-0.321566	-0.792480	-0.347656	0.350586	0.101762	-0.004437	-0.024460	0.371273	-0.598423	-0.471361	-0.530909	160.729668	-80.205506	92.726146
13385		10.075787	-1.318408	-2.450346	-2.069135	-0.233203	0.430747	-0.447394	0.167995	-0.371858	-0.790039	-0.354248	0.346436	0.100712	-0.013426	-0.024558	0.369342	-0.597929	-0.470972	-0.533154	159.121574	-80.222781	94.097860
13386		10.120557	-1.788333	-2.172050	-2.428334	0.193255	0.405295	-0.500940	0.206200	-0.459553	-0.785400	-0.365234	0.340088	0.101142	-0.018170	-0.021780	0.367264	-0.599937	-0.468723	-0.534314	159.286278	-80.197222	93.497079
13387		9.570057	-2.844937	-2.584788	-3.618041	0.024984	-0.155075	-0.538708	0.236508	-0.597478	-0.782715	-0.376465	0.331543	0.095584	-0.028805	-0.025884	0.364603	-0.598889	-0.468638	-0.537378	156.846975	-80.195051	95.659295
13388		9.173376	-3.214847	-3.002624	-4.100847	-0.291694	-0.506826	-0.524292	0.266633	-0.784611	-0.782471	-0.385254	0.329590	0.091566	-0.032587	-0.030063	0.362032	-0.600244	-0.466931	-0.539088	156.281310	-80.149076	95.796932
13389		9.121783	-3.521272	-2.795832	-4.422788	-0.000558	-0.655136	-0.489807	0.324763	-1.032849	-0.770752	-0.400635	0.323242	0.090989	-0.035752	-0.028019	0.358530	-0.597833	-0.468114	-0.543066	152.479986	-80.060936	99.370745
13390		9.145583	-3.474731	-2.553227	-4.337555	0.259353	-0.683008	-0.495019	0.327665	-1.308751	-0.763428	-0.420410	0.317139	0.091184	-0.035408	-0.025595	0.354937	-0.598320	-0.467501	-0.545413	150.893499	-79.908819	100.544956
13391		9.324646	-2.881054	-1.965707	-3.732522	0.677607	-0.608323	-0.527248	0.325209	-1.572246	-0.754395	-0.427002	0.310791	0.092984	-0.029594	-0.019731	0.349820	-0.594673	-0.470173	-0.550389	145.807799	-79.594478	105.406008
13392		9.228241	-2.718165	-1.579695	-3.516139	1.016296	-0.776908	-0.594931	0.312119	-1.827147	-0.744629	-0.451172	0.300293	0.092004	-0.028070	-0.015858	0.344974	-0.594158	-0.470757	-0.553496	143.318984	-79.273015	107.489971
13393		9.747241	-2.389449	-1.589287	-3.423330	1.036148	-0.302313	-0.688888	0.284161	-2.061383	-0.730713	-0.470703	0.298584	0.097196	-0.024952	-0.015946	0.337871	-0.589672	-0.474455	-0.559484	137.719429	-78.647068	112.792733
13394		10.200656	-2.177624	-2.288864	-3.608297	0.456245	0.227287	-0.753536	0.252916	-2.238836	-0.716797	-0.488281	0.292480	0.101725	-0.023002	-0.022932	0.331985	-0.588105	-0.476120	-0.563229	134.856522	-78.127033	115.272423
13395		10.681801	-0.931813	-2.679966	-2.867266	-0.154472	0.859695	-0.906281	0.180990	-2.381946	-0.698242	-0.510254	0.291016	0.106672	-0.010711	-0.026850	0.323016	-0.583382	-0.480233	-0.569827	129.786362	-77.187033	119.930708
13396		13.367373	-1.250769	-1.206162	-3.095310	1.910969	3.166645	-1.085658	0.258031	-2.487607	-0.684082	-0.534424	0.278320	0.133488	-0.014235	-0.012160	0.315410	-0.581648	-0.481673	-0.574624	126.999622	-76.484674	122.161690
13397		18.013806	-1.791880	-0.094897	-4.153352	4.131101	7.315700	-1.019707	0.398413	-2.618301	-0.661133	-0.552002	0.265625	0.179881	-0.020281	-0.001208	0.305850	-0.575748	-0.485681	-0.582310	122.262645	-75.379281	126.442472
13398		19.412816	-3.309007	-1.530990	-6.588680	3.659575	8.444413	-0.954371	0.440268	-2.742847	-0.649170	-0.576172	0.255127	0.193615	-0.035822	-0.015570	0.300205	-0.571130	-0.488622	-0.587313	119.343358	-74.630537	129.161492
13399		20.449076	-2.589313	-2.899121	-7.168380	2.490908	9.568996	-0.872709	0.515237	-2.950787	-0.630859	-0.598145	0.246826	0.204002	-0.029033	-0.029395	0.290270	-0.563648	-0.493653	-0.595273	115.236963	-73.262710	132.913800
13400		21.002091	-5.029585	-2.901814	-9.876442	3.444285	9.301546	-0.998013	0.464974	-3.211170	-0.598877	-0.622070	0.238770	0.209108	-0.053804	-0.029242	0.285019	-0.557068	-0.497897	-0.600448	112.555571	-72.326326	135.591322
13401		23.083831	-6.249196	-4.008971	-12.511155	3.490168	10.661982	-1.150147	0.318185	-3.498828	-0.582520	-0.644043	0.228271	0.229632	-0.066747	-0.040080	0.272055	-0.548947	-0.503650	-0.609081	109.260876	-70.518241	138.371457
13402		23.351971	-7.614863	-3.615051	-14.091095	4.407599	10.144855	-1.397661	0.234866	-3.775077	-0.561523	-0.670410	0.218018	0.231982	-0.080789	-0.035870	0.265473	-0.541959	-0.508300	-0.614358	107.187231	-69.356753	140.391329
13403		23.321592	-9.274910	-4.249024	-16.514973	4.706317	8.975236	-1.515649	0.240504	-3.986992	-0.531738	-0.694336	0.212158	0.231250	-0.097692	-0.042041	0.249671	-0.532976	-0.514012	-0.624013	104.424029	-67.196023	142.430479
13404		21.050004	-10.242212	-4.863568	-17.319601	3.927168	6.192910	-1.578996	0.251678	-4.082566	-0.500244	-0.709717	0.201416	0.208285	-0.107070	-0.048066	0.244341	-0.525197	-0.518544	-0.628949	102.739090	-66.070922	144.189936
13405		19.069241	-8.881817	-4.942247	-16.129250	3.218408	4.200369	-1.633461	0.307411	-4.013972	-0.472656	-0.733887	0.182373	0.188778	-0.093021	-0.048965	0.228170	-0.515696	-0.523450	-0.638746	100.444248	-63.853299	145.689400
13406		19.205520	-5.596205	-4.860758	-13.672992	2.108344	5.429982	-1.647967	0.525345	-3.880199	-0.452148	-0.749268	0.169434	0.190789	-0.060073	-0.048626	0.225642	-0.508145	-0.526288	-0.643347	98.931088	-63.041147	147.358478
13407		18.675670	-4.113621	-4.701874	-12.776483	1.804770	5.062141	-1.712942	0.704858	-3.745064	-0.440430	-0.762695	0.152100	0.185771	-0.045025	-0.047300	0.211051	-0.497845	-0.529383	-0.653729	96.649577	-60.969889	148.830447
13408		16.990720	-2.793871	-2.993093	-10.537575	2.340628	3.931140	-1.580487	0.911700	-3.521596	-0.406738	-0.771484	0.134766	0.169239	-0.031162	-0.030466	0.210938	-0.490569	-0.530494	-0.658349	95.134064	-60.427772	150.536727
13409		15.933260	-0.628809	-2.038309	-8.450694	2.259431	3.673314	-1.411903	1.061252	-3.263830	-0.397217	-0.789063	0.124268	0.159089	-0.009033	-0.021170	0.199511	-0.479824	-0.532641	-0.668025	93.067452	-58.606005	151.995821
13410		13.426210	-0.975862	-3.610682	-8.394590	0.178891	1.310931	-0.979871	0.892598	-2.907190	-0.376709	-0.800049	0.117920	0.133937	-0.011886	-0.036650	0.202922	-0.473432	-0.534037	-0.670440	92.040348	-58.380784	153.544336
13411		10.650189	-2.208214	-4.356637	-8.639971	-0.689805	-1.929127	-0.398897	0.636384	-2.500253	-0.363037	-0.812988	0.120605	0.106075	-0.023497	-0.043858	0.195280	-0.464988	-0.537926	-0.675491	91.172478	-56.959152	154.300897
13412		8.369420	-1.686580	-1.963324	-6.150929	0.682925	-3.612442	-0.435403	0.505168	-2.068602	-0.354004	-0.815186	0.109619	0.083464	-0.017773	-0.019806	0.200061	-0.462519	-0.539023	-0.674912	90.944015	-57.139475	155.086371
13413		7.025124	3.646311	-1.567805	-1.374900	-1.054120	-1.932189	-0.635194	0.428601	-1.861352	-0.336182	-0.815186	0.105225	0.070552	0.035757	-0.015943	0.193457	-0.456669	-0.540728	-0.679442	90.191572	-56.075659	155.551692
13414		6.559251	6.192359	-1.991211	0.656751	-2.428673	-0.924413	-0.705096	0.003509	-1.857502	-0.328857	-0.830566	0.096680	0.066163	0.061240	-0.020130	0.195359	-0.456833	-0.540826	-0.678709	90.245279	-56.245266	155.666312
13415		7.555541	4.739525	-3.663402	-1.818141	-3.189947	-0.897243	-0.842215	-0.196191	-1.858490	-0.326660	-0.832764	0.090088	0.076027	0.046536	-0.036757	0.186589	-0.453273	-0.542376	-0.682317	89.925331	-55.180476	155.469543
13416		6.076344	-2.253554	-2.958024	-6.019520	-0.494936	-6.035095	-0.125768	0.117974	-1.224686	-0.319824	-0.834961	0.088135	0.060606	-0.022926	-0.029602	0.188983	-0.455208	-0.542567	-0.680214	90.322577	-55.522675	155.264673
13417		2.100457	-4.648067	-1.377141	-5.141884	0.808718	-10.718147	0.607200	-0.040389	-0.513558	-0.317627	-0.836914	0.103516	0.020888	-0.046492	-0.013908	0.188509	-0.453376	-0.545835	-0.678955	90.700275	-55.228472	155.228513
13418		1.619288	-4.031435	-0.196603	-3.969474	1.535372	-10.706590	0.782413	-0.278260	-0.079840	-0.322266	-0.832764	0.101318	0.016180	-0.040313	-0.002101	0.194987	-0.458980	-0.546771	-0.672577	91.980288	-56.162918	154.510967
13419		2.336214	-2.199238	-0.270391	-2.965284	1.022768	-9.085591	0.983470	-0.343494	0.254664	-0.331055	-0.834717	0.118896	0.023395	-0.021949	-0.002772	0.197160	-0.459867	-0.549820	-0.668841	92.847162	-56.300678	154.146067
13420		2.225328	0.158765	-0.481245	-1.139260	0.042842	-7.835543	1.199889	-0.452059	0.515829	-0.335693	-0.830322	0.121094	0.022260	0.001674	-0.004752	0.206224	-0.466311	-0.551131	-0.660515	94.523358	-57.492826	153.287816
13421		1.838172	1.789287	-0.887712	0.197573	-0.915351	-7.264860	1.085062	-0.467822	0.839695	-0.342773	-0.821533	0.127441	0.018327	0.018018	-0.008737	0.210234	-0.469040	-0.553224	-0.655550	95.635323	-57.948612	152.707998
13422		1.167051	1.678374	-1.418554	0.287933	-1.527351	-7.869642	0.827020	-0.444843	1.268121	-0.362793	-0.823730	0.145020	0.011595	0.016916	-0.014090	0.219677	-0.477653	-0.551368	-0.647752	97.266271	-59.434383	151.565982
13423		0.927180	1.153138	-1.791393	-0.137673	-1.771652	-8.315795	0.662188	-0.462769	1.691488	-0.383301	-0.808350	0.144775	0.009215	0.011669	-0.017854	0.225454	-0.483068	-0.549957	-0.642934	98.325784	-60.358948	150.779946
13424		1.280293	0.611486	-1.281868	-0.494135	-1.057668	-8.298317	0.507093	-0.460739	2.069945	-0.394775	-0.797363	0.148682	0.012768	0.006280	-0.012773	0.235239	-0.494201	-0.544911	-0.635216	100.151810	-62.155459	149.118122
13425		1.659119	0.500131	-0.656647	-0.468501	-0.360378	-8.056425	0.449531	-0.434254	2.415278	-0.421875	-0.786621	0.155029	0.016543	0.005216	-0.006519	0.242822	-0.501595	-0.540838	-0.630027	101.389037	-63.468833	148.016936
13426		1.906226	0.874333	-0.232382	-0.012583	-0.027824	-7.702963	0.414588	-0.449659	2.719561	-0.442139	-0.780273	0.152588	0.018946	0.009006	-0.002263	0.252534	-0.514986	-0.533019	-0.622019	103.753706	-65.487654	145.527255
13427		2.139634	1.103829	-0.121802	0.211681	0.047398	-7.411896	0.405280	-0.478828	2.981210	-0.471680	-0.764893	0.160889	0.021231	0.011358	-0.001144	0.261545	-0.523850	-0.527145	-0.615868	105.574647	-67.071198	143.792196
13428		2.088847	0.966910	-0.100337	0.212882	0.082842	-7.520175	0.445077	-0.470410	3.195006	-0.489990	-0.745361	0.158203	0.020733	0.010003	-0.000932	0.272643	-0.537392	-0.518131	-0.606973	108.820204	-69.211039	140.469908
13429		2.191614	1.064946	0.033447	0.398687	0.182864	-7.415726	0.447983	-0.524336	3.384753	-0.519531	-0.725586	0.173096	0.021731	0.011017	0.000416	0.282721	-0.547063	-0.511032	-0.599698	111.707589	-70.927136	137.672070
13430		2.609771	1.271321	-0.009941	0.585829	0.148216	-6.973472	0.436084	-0.561481	3.608821	-0.547363	-0.697266	0.172363	0.025863	0.013181	0.000002	0.294484	-0.560875	-0.500814	-0.589817	116.665491	-73.056033	132.634847
13431		2.910138	1.017093	0.054607	0.428833	0.331403	-6.777654	0.384740	-0.615029	3.843731	-0.570068	-0.679688	0.178467	0.028897	0.010726	0.000655	0.305303	-0.571642	-0.491978	-0.581355	121.684665	-74.809122	127.641968
13432		3.372064	0.796594	-0.117619	0.247203	0.313157	-6.369097	0.375084	-0.675490	4.076873	-0.604248	-0.657959	0.182129	0.033553	0.008653	-0.001047	0.317897	-0.585717	-0.480345	-0.570215	130.078724	-76.747781	119.176201
13433		3.860459	0.720965	-0.116319	0.277146	0.405989	-5.914946	0.379342	-0.708755	4.278327	-0.623047	-0.623047	0.185547	0.038442	0.008035	-0.001012	0.329430	-0.597273	-0.469909	-0.560292	139.375013	-78.208591	109.877865
13434		4.296149	0.632668	-0.044610	0.401741	0.546328	-5.523625	0.365664	-0.740617	4.456881	-0.659668	-0.596680	0.191406	0.042808	0.007282	-0.000275	0.342557	-0.611281	-0.456934	-0.547906	153.584125	-79.389515	95.603948
13435		4.804941	0.631119	-0.118563	0.571235	0.529587	-5.028465	0.379297	-0.794885	4.587324	-0.683105	-0.559570	0.192627	0.047892	0.007413	-0.000982	0.354376	-0.623123	-0.445188	-0.536603	168.197515	-79.823199	80.970526
13436		5.600690	1.021640	-0.199648	1.206078	0.403186	-4.260390	0.438163	-0.857888	4.670674	-0.699707	-0.531006	0.202881	0.055756	0.011525	-0.001733	0.367825	-0.636406	-0.431818	-0.522710	-174.771972	-79.413276	63.973492
13437		6.422802	1.367373	-0.384840	1.813113	0.189150	-3.492997	0.497168	-0.912422	4.756380	-0.725342	-0.491455	0.212891	0.063895	0.015205	-0.003520	0.379760	-0.647958	-0.419532	-0.509829	-161.443068	-78.332774	50.682484
13438		7.164689	1.352433	-0.464226	2.226349	0.172633	-2.857115	0.580290	-1.005179	4.820149	-0.746582	-0.454346	0.218506	0.071315	0.015259	-0.004241	0.393321	-0.660295	-0.406193	-0.494284	-149.731971	-76.476621	39.135034
13439		8.381853	1.553639	-0.888893	2.864484	-0.174312	-1.737540	0.797055	-1.082133	4.889995	-0.763428	-0.414795	0.230713	0.083451	0.017614	-0.008369	0.405715	-0.671122	-0.394015	-0.479316	-141.704147	-74.381052	31.314537
13440		10.149321	2.396046	-0.859147	4.541770	-0.267469	-0.391216	1.074012	-1.237311	4.934818	-0.778076	-0.373047	0.242920	0.100910	0.026499	-0.007828	0.420030	-0.681982	-0.381710	-0.461273	-135.109272	-71.772016	25.191540
13441		11.696167	2.764956	-0.820857	5.843856	-0.210964	0.717787	1.161460	-1.334729	4.943536	-0.790771	-0.329102	0.257324	0.116281	0.030574	-0.007259	0.432701	-0.691822	-0.370202	-0.443963	-130.590588	-69.173336	21.104661
13442		11.726434	4.016878	-1.726028	7.278363	-1.533760	0.250223	1.190169	-1.198255	4.863696	-0.805420	-0.287109	0.273926	0.116339	0.043105	-0.016311	0.446558	-0.700802	-0.358253	-0.425579	-126.664888	-66.413141	17.757333
13443		12.347714	5.296059	-2.213531	9.008683	-2.411728	0.107202	1.145131	-0.947397	4.663056	-0.808838	-0.245361	0.279541	0.122298	0.055945	-0.021239	0.458664	-0.708405	-0.346357	-0.409668	-123.642598	-63.915071	15.150951
13444		13.151675	6.754028	-3.226302	10.843441	-3.812853	0.027624	1.430789	-0.884889	4.422408	-0.812500	-0.203613	0.291748	0.130117	0.070654	-0.031187	0.471598	-0.714593	-0.335229	-0.393159	-120.943333	-61.412054	13.078496
13445		13.879683	8.179543	-3.248653	12.849833	-4.233601	-0.484497	1.771274	-0.974880	4.131771	-0.822754	-0.159668	0.294922	0.137218	0.084921	-0.031072	0.484291	-0.719070	-0.326156	-0.376858	-118.715384	-59.079873	11.681786
13446		15.182375	10.153277	-3.028246	15.619884	-4.500030	-0.953919	1.999963	-0.977935	3.810879	-0.821289	-0.133301	0.312012	0.149991	0.104694	-0.028510	0.496002	-0.722856	-0.317511	-0.361453	-116.836502	-56.880063	10.595316
13447		15.358353	12.058939	-3.285299	17.601052	-5.193536	-2.378618	2.108811	-0.785307	3.477737	-0.820313	-0.095703	0.317627	0.151576	0.123570	-0.030963	0.508557	-0.724413	-0.310629	-0.346562	-114.940955	-54.890428	9.765571
13448		16.168622	14.722265	-2.468963	20.592107	-5.118280	-3.983366	1.574035	-0.502670	3.241378	-0.823486	-0.062744	0.319092	0.159329	0.150004	-0.023114	0.516766	-0.727386	-0.301356	-0.336224	-113.591461	-53.186532	8.726038
13449		16.410500	15.931823	-0.589316	22.196966	-3.630689	-5.623764	0.592269	-0.191428	2.991363	-0.819824	-0.042969	0.318604	0.161703	0.161765	-0.005261	0.523602	-0.730601	-0.291930	-0.326864	-112.511995	-51.565934	7.791833
13450		14.781650	16.707587	-0.188997	21.890159	-3.868418	-7.940203	0.022797	-0.039122	2.525473	-0.829346	-0.019043	0.320068	0.145692	0.168925	-0.001842	0.524720	-0.735318	-0.281618	-0.323525	-112.154276	-50.473313	6.734849
13451		14.387942	17.623572	-1.005050	22.181903	-5.099088	-9.064851	-0.472822	-0.023171	1.940136	-0.820801	-0.012451	0.317871	0.142162	0.177596	-0.010453	0.526063	-0.739292	-0.273764	-0.318996	-111.943061	-49.437487	6.105201
13452		15.185651	18.383363	-0.421806	23.271777	-5.173334	-9.198264	-1.279653	0.110759	1.324439	-0.825684	0.000732	0.317383	0.150632	0.184801	-0.005482	0.519894	-0.745218	-0.265531	-0.322263	-112.632927	-49.148648	5.322248
13453		15.344390	17.480662	-1.372288	22.440671	-6.118017	-8.441275	-1.826673	0.234672	0.700873	-0.825439	-0.001465	0.319580	0.152813	0.175207	-0.015501	0.514505	-0.750484	-0.259351	-0.323723	-113.356596	-48.831046	4.894385
13454		11.908925	12.870680	-10.861024	14.487595	-14.035983	-5.507332	-1.381174	-0.626941	-0.060281	-0.825439	-0.005615	0.330811	0.119469	0.127918	-0.109121	0.503725	-0.755992	-0.257664	-0.329159	-114.982203	-49.223886	5.092538
13455		21.099014	-17.580166	-8.323394	-0.872724	0.058713	18.870412	-1.722556	-1.011496	0.184069	-0.827881	-0.001221	0.335205	0.211564	-0.176309	-0.080648	0.496190	-0.762195	-0.256666	-0.327072	-116.517705	-48.876707	5.818891
13456		34.893372	-63.143102	21.121841	-15.928773	46.733644	46.866669	-3.553202	1.926676	1.144070	-0.824951	-0.019043	0.320068	0.354608	-0.625569	0.218970	0.480506	-0.771159	-0.237968	-0.343219	-117.646183	-49.291986	3.268435
13457		29.486578	-15.926383	0.796963	7.902479	8.431668	21.653501	1.092135	1.562400	-2.220263	-0.831543	-0.025635	0.311523	0.293119	-0.162556	0.004793	0.482716	-0.763130	-0.244622	-0.353239	-116.763904	-50.832289	2.934017
13458		18.292810	25.536162	-17.556437	25.402527	-24.954704	-4.647107	3.928469	-1.472440	-3.422197	-0.826416	-0.047363	0.325195	0.188561	0.255532	-0.169171	0.492533	-0.747287	-0.275994	-0.350430	-116.385125	-52.713464	6.377912
13459		21.232069	8.494532	1.366525	19.358240	-0.139536	2.434524	1.361227	-0.248121	-3.873076	-0.823486	-0.071533	0.330322	0.213894	0.080716	0.014489	0.490388	-0.738868	-0.293400	-0.357087	-117.136625	-54.630807	8.278646
13460		10.052184	-6.285473	5.538660	1.870326	8.247526	0.172386	-1.263494	0.744679	-3.430613	-0.820068	-0.104492	0.320068	0.099634	-0.064219	0.055417	0.479605	-0.733124	-0.305887	-0.372749	-118.877861	-57.135018	9.649515
13461		-4.875641	3.624069	-0.731157	0.204899	-2.416451	-15.430254	-0.082614	0.265233	-2.615041	-0.819580	-0.122070	0.327148	-0.048287	0.036871	-0.007262	0.474793	-0.728766	-0.314654	-0.380085	-119.883017	-58.515013	10.781069
13462		4.140582	13.865582	-11.032600	10.936260	-14.538826	-9.469171	1.634389	-0.752038	-2.323691	-0.810303	-0.135010	0.345215	0.043432	0.139054	-0.109030	0.474895	-0.719616	-0.332582	-0.382122	-120.897900	-59.979369	13.374156
13463		13.227092	-0.873116	-12.083597	2.790645	-9.484874	5.153209	0.690707	-0.023258	-2.065615	-0.814209	-0.150391	0.338867	0.132188	-0.009679	-0.120853	0.473367	-0.714543	-0.341368	-0.385771	-121.606617	-60.984132	14.643345
13464		8.085958	4.555660	0.321530	7.662168	-0.229871	-4.570920	-1.141847	0.818300	-1.305389	-0.815674	-0.172363	0.328369	0.081166	0.045044	0.002625	0.464355	-0.713298	-0.342241	-0.398060	-122.853805	-62.339349	14.796244
13465		12.744149	5.492243	-0.390833	10.241533	-0.759409	-0.471511	-1.814325	0.967450	-1.417294	-0.819824	-0.187988	0.320068	0.127804	0.053975	-0.005018	0.456684	-0.713104	-0.341411	-0.407874	-123.861153	-63.322317	14.760053
13466		12.046889	-3.091641	-0.469712	2.261222	2.034263	2.255982	-0.770323	0.711668	-1.200371	-0.815186	-0.192383	0.320068	0.120263	-0.031658	-0.005004	0.449290	-0.710694	-0.343423	-0.418465	-125.015432	-64.607930	15.156073
13467		13.026403	-5.834882	-0.229207	0.194784	3.350266	4.062495	0.413965	0.221172	-1.193915	-0.817139	-0.203369	0.320313	0.129910	-0.059120	-0.002558	0.448634	-0.707236	-0.348027	-0.421214	-125.399787	-65.239921	15.842279
13468		10.098042	1.094102	-3.509851	3.891503	-2.474424	-0.106029	0.440537	0.222305	-1.096024	-0.810059	-0.211914	0.320557	0.101000	0.010465	-0.035187	0.445691	-0.702708	-0.353899	-0.426986	-126.295999	-66.284258	16.877192
13469		10.039517	1.954926	-0.252423	5.465433	0.250038	-1.167284	-0.286522	0.305083	-0.927014	-0.812012	-0.220947	0.316406	0.100480	0.019080	-0.002705	0.443239	-0.701045	-0.355860	-0.430626	-126.866345	-66.815012	17.319917
13470		8.672286	-2.319594	-0.163953	1.054466	1.707852	-1.061309	-0.503952	0.199534	-0.983169	-0.811523	-0.234131	0.319092	0.086606	-0.023626	-0.001667	0.437161	-0.698808	-0.359286	-0.437575	-128.375399	-67.773062	18.425673
13471		9.129160	-1.372877	-0.888014	1.756092	0.778141	-0.739380	-0.154454	0.030948	-0.949593	-0.815918	-0.240479	0.321289	0.091224	-0.014169	-0.008883	0.434593	-0.697363	-0.362195	-0.440032	-129.273755	-68.208198	19.299151
13472		11.035114	0.064480	-2.217097	3.130039	-0.693121	0.976895	-0.179008	-0.031127	-0.830964	-0.813232	-0.255859	0.323975	0.110356	0.000166	-0.022154	0.429639	-0.695196	-0.366067	-0.445094	-130.830655	-68.972414	20.646114
13473		11.411445	0.604186	-4.639959	2.915062	-3.050369	1.776631	-0.323661	0.125486	-0.663254	-0.815186	-0.260254	0.321777	0.114104	0.005588	-0.046480	0.427263	-0.694392	-0.367381	-0.447545	-131.531007	-69.305973	21.197090
13474		9.368144	2.739779	-3.434085	4.352031	-2.983460	-0.912156	-0.688599	0.397026	-0.588742	-0.814941	-0.271484	0.313232	0.093693	0.027003	-0.034620	0.421450	-0.693141	-0.367741	-0.454645	-132.797187	-70.091013	21.820241
13475		8.383311	0.264028	-1.900000	2.245451	-0.792192	-1.548934	-0.777643	0.463762	-0.469943	-0.817139	-0.271484	0.313232	0.083795	0.002369	-0.019204	0.418533	-0.692851	-0.366621	-0.458668	-133.213464	-70.469420	21.789072
13476		9.391013	-1.415793	-2.106187	0.858277	-0.223105	-0.125330	-0.317897	0.460989	-0.399217	-0.812256	-0.282471	0.306885	0.093833	-0.014379	-0.021255	0.414791	-0.690824	-0.367255	-0.464580	-134.041629	-71.183015	22.226563
13477		10.160006	-1.044783	-2.854566	1.117211	-0.981064	0.687549	0.147509	0.381665	-0.306962	-0.814453	-0.284668	0.311279	0.101529	-0.010583	-0.028747	0.415285	-0.689064	-0.367866	-0.466264	-133.853085	-71.461736	22.116673
13478		10.111649	0.048887	-2.305516	2.156716	-0.924938	0.289600	0.360437	0.315583	-0.224288	-0.814697	-0.280273	0.311279	0.101080	0.000417	-0.023214	0.413560	-0.686770	-0.368986	-0.470280	-134.293996	-72.016443	22.437186
13479		9.147059	0.302008	-1.826057	2.247676	-0.719668	-0.783604	0.328569	0.302665	-0.204649	-0.812256	-0.286865	0.307129	0.091446	0.002957	-0.018394	0.414762	-0.684998	-0.369836	-0.471138	-133.973875	-72.221752	22.298534
13480		9.201326	-0.445500	-1.872237	1.490774	-0.482125	-0.543750	0.383629	0.276903	-0.202798	-0.818604	-0.293457	0.313721	0.091983	-0.004512	-0.018858	0.413421	-0.682617	-0.371305	-0.474605	-134.412252	-72.737852	22.695572
13481		8.966392	-1.368491	-2.267845	0.445522	-0.543958	-0.489725	0.578946	0.247670	-0.124900	-0.823242	-0.293457	0.313721	0.089627	-0.013675	-0.022829	0.415556	-0.680595	-0.372593	-0.474634	-133.913640	-72.888515	22.520763
13482		9.276324	0.420723	-2.173240	2.104453	-1.118133	-0.578447	0.672562	0.228817	-0.078382	-0.814209	-0.291260	0.313721	0.092740	0.004244	-0.021824	0.415069	-0.678330	-0.373851	-0.477305	-134.092387	-73.313469	22.732950
13483		9.752564	0.814287	-1.670417	2.753598	-0.772153	-0.305464	0.478707	0.264591	-0.021112	-0.818848	-0.291260	0.309326	0.097504	0.008173	-0.016814	0.417133	-0.676661	-0.374517	-0.477353	-133.480908	-73.427638	22.380908
13484		9.436399	0.338747	-1.466228	2.246480	-0.459252	-0.536236	0.353737	0.279522	0.006755	-0.816406	-0.291260	0.307129	0.094343	0.003417	-0.014788	0.416611	-0.674602	-0.375449	-0.479986	-133.607135	-73.828092	22.508232
13485		9.648433	-0.309903	-0.982667	1.869039	0.224144	-0.293741	0.275620	0.269746	-0.001083	-0.825439	-0.293457	0.311523	0.096471	-0.003086	-0.009961	0.418040	-0.673374	-0.375554	-0.480383	-133.063076	-73.935210	22.106155
13486		9.760407	-0.207664	-1.053960	1.900328	0.115842	-0.179682	0.232429	0.248916	-0.075224	-0.820801	-0.293457	0.318115	0.097590	-0.002101	-0.010663	0.416914	-0.671519	-0.376471	-0.483234	-133.385797	-74.346953	22.368586
13487		9.507843	-1.980426	-1.565634	0.036896	0.252649	0.021290	0.204234	0.192902	-0.192506	-0.822998	-0.295654	0.313965	0.095044	-0.019880	-0.015768	0.417493	-0.670261	-0.377211	-0.483902	-133.253374	-74.503695	22.352442
13488		9.160726	-3.358569	-1.717488	-1.431182	0.586151	-0.027151	0.195928	0.103964	-0.269790	-0.820801	-0.295654	0.318359	0.091553	-0.033692	-0.017255	0.415574	-0.668513	-0.378906	-0.486640	-134.082239	-74.923115	23.120239
13489		9.861318	-2.358805	-1.478682	-0.302838	0.507381	0.417015	0.130888	0.072409	-0.323585	-0.822754	-0.304443	0.307373	0.098569	-0.023738	-0.014838	0.415356	-0.667448	-0.380158	-0.487311	-134.380947	-75.085627	23.506949
13490		10.042278	-1.538377	-1.626415	0.350209	0.101609	0.469631	0.007222	0.091762	-0.375498	-0.818359	-0.306641	0.314209	0.100386	-0.015572	-0.016311	0.412919	-0.665758	-0.382016	-0.490232	-135.500029	-75.520129	24.529942
13491		9.510243	-0.745224	-1.483524	0.963036	-0.107768	-0.207389	0.000205	0.090630	-0.396397	-0.822510	-0.315430	0.307617	0.095081	-0.007641	-0.014878	0.412116	-0.664774	-0.383152	-0.491356	-135.995228	-75.716590	25.041103
13492		9.546103	-0.242824	-1.748931	1.151743	-0.720392	-0.200185	-0.037024	0.084297	-0.398139	-0.820068	-0.317627	0.307861	0.095449	-0.002622	-0.017529	0.367188	-0.692780	-0.328676	-0.526498	-137.245602	-76.135926	16.673987
13493		9.728132	-0.059141	-1.865492	1.252729	-0.890516	-0.027105	-0.102639	0.124427	-0.387614	-0.822266	-0.324219	0.307861	0.097268	-0.000790	-0.018715	0.366011	-0.692000	-0.329524	-0.527813	-137.779041	-76.339324	17.162455
13494		9.813636	-0.074095	-1.749647	1.065090	-0.975000	0.050832	-0.141686	0.151822	-0.368263	-0.815186	-0.333008	0.303711	0.098121	-0.000934	-0.017570	0.310688	-0.719098	-0.263357	-0.563041	-139.008744	-76.756692	7.247256
13495		9.810615	-0.240561	-1.924147	0.792537	-0.979598	0.108024	-0.161077	0.156324	-0.338347	-0.815186	-0.337402	0.306152	0.098087	-0.002587	-0.019316	0.309355	-0.718458	-0.263882	-0.564344	-139.482459	-76.951957	7.638739
13496		9.954476	-0.066004	-1.955230	0.608849	-1.235311	0.238285	-0.191921	0.156511	-0.313878	-0.817139	-0.343994	0.301758	0.099528	-0.000835	-0.019629	0.244533	-0.741374	-0.187636	-0.596122	-140.702655	-77.334005	-3.484218
13497		10.274554	0.184136	-1.890348	0.838647	-1.385105	0.509706	-0.222875	0.170500	-0.306789	-0.812500	-0.350586	0.299805	0.102732	0.001663	-0.018993	0.242944	-0.740846	-0.187906	-0.597341	-141.169751	-77.521526	-3.136701
13498		10.230204	-0.502572	-1.816352	0.256380	-0.811718	0.554764	-0.240517	0.186936	-0.292080	-0.816895	-0.350586	0.295410	0.102277	-0.005197	-0.018253	0.171404	-0.756276	-0.105439	-0.622535	-142.393231	-77.894158	-14.900531
13499		10.503475	0.113581	-1.826386	0.500810	-1.371275	0.748573	-0.267551	0.194562	-0.300524	-0.807617	-0.361572	0.289063	0.105018	0.000953	-0.018367	0.169551	-0.755737	-0.105582	-0.623671	-142.875809	-78.088189	-14.564113
13500		10.141305	-0.392994	-1.906814	-0.080730	-0.856712	0.477882	-0.361586	0.204939	-0.335875	-0.809570	-0.372803	0.287109	0.101387	-0.004135	-0.019165	0.094967	-0.762029	-0.021950	-0.640165	-144.304764	-78.469338	-26.162483
13501		9.942756	-0.712560	-2.239410	-0.515914	-0.540819	0.376630	-0.470110	0.223372	-0.402540	-0.807129	-0.375000	0.278320	0.099388	-0.007378	-0.022488	0.091903	-0.761487	-0.021880	-0.641259	-145.145415	-78.707973	-25.579910
13502		9.517824	-2.292192	-2.365960	-0.732140	1.300379	0.147912	-0.566466	0.257710	-0.495936	-0.800049	-0.385986	0.276367	0.095090	-0.023225	-0.023717	0.017697	-0.758733	0.058140	-0.648561	-147.104399	-79.146197	-36.187792
13503		9.856315	-2.465082	-2.641990	-0.951327	1.523044	0.530346	-0.657446	0.278996	-0.684374	-0.797363	-0.399170	0.267822	0.098441	-0.025075	-0.026475	0.012893	-0.758075	0.057692	-0.649483	-148.798962	-79.490734	-34.846945
13504		9.935820	-3.052166	-2.367700	-0.192230	2.304350	0.593755	-0.828596	0.307843	-0.955176	-0.790283	-0.410156	0.261475	0.099174	-0.031094	-0.023702	-0.058493	-0.748190	0.129431	-0.648104	-152.337475	-80.047221	-42.993011
13505		9.149925	-4.778542	-2.407309	0.167184	4.189269	-0.077654	-0.892514	0.314797	-1.253123	-0.776367	-0.427734	0.253174	0.091159	-0.048465	-0.024001	-0.066104	-0.747696	0.127531	-0.648318	-156.176210	-80.522616	-39.617568
13506		8.737725	-5.367965	-2.481211	0.264709	4.992765	-0.521903	-0.823780	0.324199	-1.585588	-0.778320	-0.438721	0.246826	0.086907	-0.054472	-0.024730	-0.076414	-0.747192	0.123851	-0.648479	-162.498343	-81.116897	-33.832928
13507		8.984096	-4.558824	-2.371915	0.214493	4.339742	-0.419088	-0.674155	0.355682	-1.927936	-0.759766	-0.462891	0.236328	0.089353	-0.046531	-0.023723	-0.085410	-0.746935	0.118684	-0.648620	-169.622105	-81.582262	-27.018432
13508		9.425258	-3.735820	-2.544137	-0.079323	3.805629	-0.077679	-0.602238	0.382018	-2.231752	-0.748047	-0.476074	0.228027	0.093779	-0.038483	-0.025506	-0.096744	-0.746552	0.111849	-0.648683	-179.729402	-81.969330	-17.276572
13509		10.007907	-2.986473	-2.639835	-0.267205	3.335621	0.426539	-0.588696	0.371354	-2.486220	-0.727295	-0.502441	0.222168	0.099648	-0.031183	-0.026493	-0.107216	-0.746391	0.104281	-0.648484	169.661143	-82.056823	-6.904652
13510		13.255897	-2.138236	-2.335129	0.277662	2.728260	3.536888	-0.600451	0.419737	-2.697089	-0.715576	-0.522217	0.218262	0.132205	-0.023237	-0.023561	-0.119877	-0.745884	0.095719	-0.648170	157.321700	-81.837135	5.095526
13511		17.656668	-2.288057	-2.050552	1.279216	3.283232	7.758831	-0.616947	0.522656	-2.878728	-0.699219	-0.544189	0.214355	0.176158	-0.025482	-0.020890	-0.131755	-0.745114	0.086650	-0.648026	146.171458	-81.317351	16.008864
13512		19.914861	-3.195925	-1.125152	2.825732	4.556518	9.662990	-0.776330	0.700362	-3.016230	-0.673584	-0.574707	0.199707	0.198595	-0.035002	-0.011816	-0.145924	-0.743386	0.077184	-0.648171	135.064286	-80.473397	26.718351
13513		22.888846	-3.907672	-2.432832	2.323246	6.544140	12.476614	-0.715136	0.713918	-3.252695	-0.653076	-0.590088	0.193604	0.228123	-0.042880	-0.024995	-0.159388	-0.741697	0.066871	-0.648081	126.091286	-79.319686	35.415196
13514		22.713163	-6.120337	-2.409907	3.103181	9.398081	11.661448	-0.921836	0.657633	-3.530096	-0.634277	-0.625244	0.181152	0.225923	-0.065311	-0.024549	-0.175164	-0.739719	0.055711	-0.647325	118.270908	-77.740081	42.828522
13515		23.531127	-8.576458	-3.445964	3.177864	12.951755	11.663205	-0.980226	0.570143	-3.838800	-0.606934	-0.645020	0.168457	0.233507	-0.090428	-0.034691	-0.191348	-0.737935	0.044166	-0.645668	112.422850	-75.888810	48.256786
13516		25.609997	-8.920872	-2.752138	4.455252	14.334655	12.937764	-0.993307	0.616311	-4.179621	-0.579102	-0.673340	0.165039	0.254074	-0.094671	-0.027845	-0.208697	-0.735578	0.030615	-0.643765	107.431443	-73.710609	52.883232
13517		26.295880	-10.491907	-4.862511	3.312661	17.628321	12.622153	-1.018563	0.690842	-4.428571	-0.542725	-0.695313	0.154541	0.260378	-0.110953	-0.048973	-0.226758	-0.732773	0.016868	-0.641358	103.481154	-71.367884	56.411282
13518		21.979131	-11.176736	-6.927629	0.990006	18.731563	7.623620	-0.881294	0.717867	-4.492378	-0.521973	-0.717285	0.144043	0.216953	-0.116968	-0.069551	-0.243756	-0.729488	0.001468	-0.639083	100.303515	-68.927065	59.379277
13519		19.575864	-9.043054	-6.847893	0.108703	16.816817	5.319395	-0.792471	0.754066	-4.418246	-0.485840	-0.732422	0.140137	0.193434	-0.094993	-0.068841	-0.260717	-0.725954	-0.013043	-0.636276	97.832972	-66.493306	61.557663
13520		18.877045	-6.222986	-6.796474	-0.788719	14.775264	5.095662	-0.758644	0.862556	-4.265926	-0.458496	-0.756348	0.129883	0.187088	-0.066492	-0.068527	-0.275913	-0.721664	-0.027994	-0.634263	95.683073	-64.158271	63.593774
13521		17.437005	-2.802934	-5.170538	-0.532116	11.363859	4.649972	-0.624292	0.926669	-4.128591	-0.435791	-0.765137	0.125732	0.173498	-0.031780	-0.052415	-0.291076	-0.717118	-0.042192	-0.631852	93.897616	-61.843515	65.195421
13522		15.698815	0.062560	-4.295129	-0.898639	8.493760	4.040796	-0.562360	0.770849	-3.855609	-0.413086	-0.782715	0.117432	0.156793	-0.002520	-0.043552	-0.303913	-0.712881	-0.055864	-0.629537	92.573765	-59.724841	66.488427
13523		13.506376	-0.170651	-4.419705	-1.317068	8.190525	1.726161	-0.617543	0.627824	-3.430671	-0.390381	-0.793457	0.108887	0.134867	-0.004158	-0.044610	-0.316700	-0.708892	-0.067103	-0.626634	91.511001	-57.771599	67.317171
13524		10.533936	-1.794697	-3.309819	-0.369285	7.915292	-1.916980	-0.873054	0.526763	-2.797114	-0.376709	-0.802490	0.095947	0.104986	-0.019562	-0.033292	-0.327215	-0.704887	-0.075399	-0.624804	90.526113	-56.251953	68.026613
13525		8.480842	-1.796997	-1.559595	0.867713	6.403622	-3.827431	-1.124386	0.589054	-2.158926	-0.365234	-0.809082	0.087158	0.084561	-0.018972	-0.015740	-0.337685	-0.700334	-0.080463	-0.623720	89.388837	-55.013105	68.623504
13526		6.944679	-0.139335	-1.203228	0.373377	4.307604	-4.244984	-0.867671	0.427445	-1.768242	-0.351807	-0.813477	0.080811	0.069405	-0.002060	-0.012173	-0.344829	-0.696875	-0.084886	-0.623098	88.601280	-54.086328	69.117251
13527		3.859772	1.231607	-2.547457	-1.930900	2.185419	-6.018053	-0.689446	0.161309	-1.581369	-0.344727	-0.820068	0.074219	0.038672	0.011923	-0.025547	-0.352087	-0.694483	-0.088532	-0.621201	88.115321	-53.176415	69.229808
13528		2.320848	-1.128958	-2.985519	-1.916113	3.265898	-8.700699	-0.159275	0.023339	-1.213575	-0.340332	-0.824463	0.070068	0.023136	-0.011454	-0.029849	-0.355246	-0.693706	-0.092400	-0.619706	88.069818	-52.573829	69.296654
13529		0.424529	-4.599921	-2.705936	-0.993296	4.620782	-12.327289	0.582665	-0.165485	-0.445865	-0.344727	-0.822266	0.076660	0.004165	-0.045929	-0.027190	-0.354690	-0.695038	-0.095467	-0.618064	88.536091	-52.319752	69.129255
13530		0.152474	-5.317406	-2.314365	-0.521071	4.849657	-12.953275	1.090206	-0.386178	0.224729	-0.351563	-0.817627	0.092041	0.001629	-0.053045	-0.023430	-0.349332	-0.698435	-0.097327	-0.616996	89.488053	-52.548035	68.821664
13531		0.912669	-3.648604	-1.186705	0.153314	3.652194	-11.292962	1.338191	-0.442717	0.774767	-0.363037	-0.811035	0.102783	0.009294	-0.036370	-0.012090	-0.342483	-0.702488	-0.097981	-0.616129	90.588252	-52.990299	68.402502
13532		1.204984	-1.981733	-0.372129	0.470291	2.292036	-10.020052	1.401654	-0.525731	1.230515	-0.374268	-0.812988	0.125000	0.012181	-0.019716	-0.003828	-0.332938	-0.707262	-0.096989	-0.616057	91.867538	-53.788741	67.913141
13533		1.335264	-0.768759	-0.604651	-0.062776	1.520737	-9.162420	1.349560	-0.601857	1.608080	-0.390137	-0.799805	0.131104	0.013432	-0.007539	-0.006057	-0.323494	-0.712096	-0.094460	-0.615912	93.174653	-54.692645	67.254958
13534		1.287053	0.126539	-1.065079	-0.746882	0.936390	-8.641311	1.213654	-0.605989	1.954729	-0.412842	-0.791260	0.137451	0.012889	0.001456	-0.010603	-0.312321	-0.716965	-0.090197	-0.616670	94.535301	-55.885730	66.552477
13535		1.122507	0.736386	-1.442608	-1.294126	0.461773	-8.400155	0.992993	-0.634237	2.349160	-0.430908	-0.782471	0.145996	0.011183	0.007567	-0.014353	-0.301786	-0.721465	-0.083847	-0.617562	95.835016	-57.192049	65.676316
13536		1.308041	1.448671	-1.854832	-1.819825	0.061594	-7.829217	0.774432	-0.656402	2.730698	-0.449463	-0.762695	0.154297	0.012941	0.014736	-0.018449	-0.289884	-0.725911	-0.075164	-0.619170	97.229310	-58.798015	64.631080
13537		1.467128	1.694949	-1.540330	-1.552815	-0.233258	-7.591902	0.469896	-0.613294	3.053705	-0.474365	-0.749512	0.158447	0.014457	0.017207	-0.015319	-0.278928	-0.729545	-0.064645	-0.621115	98.500553	-60.481940	63.469696
13538		1.937426	1.469209	-1.059384	-0.949287	-0.072566	-7.337302	0.147204	-0.590239	3.368280	-0.501709	-0.729980	0.157715	0.019154	0.015024	-0.010526	-0.267291	-0.732761	-0.051666	-0.623656	99.851586	-62.419638	62.083308
13539		2.581635	1.362397	-0.622806	-0.388470	0.047606	-6.853847	-0.061057	-0.582852	3.668274	-0.531006	-0.714844	0.157227	0.025579	0.014093	-0.006158	-0.256190	-0.735315	-0.037256	-0.626331	101.240665	-64.423780	60.490970
13540		3.080508	1.497625	-0.198060	0.055419	-0.145313	-6.385452	-0.245663	-0.639120	3.931898	-0.558594	-0.693115	0.158936	0.030509	0.015576	-0.001902	-0.244155	-0.737774	-0.020820	-0.629003	103.037766	-66.629264	58.401716
13541		3.448121	1.523012	-0.273457	0.021491	-0.159398	-6.036976	-0.421911	-0.717933	4.143549	-0.594971	-0.666992	0.155762	0.034166	0.015935	-0.002645	-0.232709	-0.739781	-0.003335	-0.631316	105.182332	-68.830868	55.823321
13542		3.539566	1.449876	-0.137284	0.151561	-0.274600	-5.998389	-0.584162	-0.797725	4.313350	-0.615967	-0.636475	0.157227	0.035077	0.015254	-0.001276	-0.220501	-0.741678	0.015709	-0.633281	108.144404	-71.139783	52.359728
13543		3.729189	1.509645	0.319563	0.555146	-0.607034	-5.861928	-0.695644	-0.887744	4.456801	-0.643555	-0.610352	0.154297	0.036929	0.015933	0.003306	-0.208850	-0.743175	0.035405	-0.634681	111.974508	-73.364603	47.920478
13544		4.249618	2.104150	0.624684	0.698368	-1.346545	-5.277075	-0.700243	-0.998802	4.581829	-0.677979	-0.575439	0.155518	0.041967	0.022029	0.006381	-0.195974	-0.744742	0.055951	-0.635470	117.624007	-75.570112	41.687806
13545		4.719894	2.618070	1.568185	1.420428	-2.312517	-4.891392	-0.756820	-1.120741	4.742240	-0.698975	-0.544678	0.156738	0.046471	0.027348	0.015842	-0.183360	-0.746008	0.077087	-0.635539	125.433076	-77.554850	33.214900
13546		5.166468	2.789876	2.184355	1.926598	-2.915207	-4.613772	-0.810680	-1.140923	4.858221	-0.726807	-0.509766	0.153564	0.050840	0.029230	0.022018	-0.169726	-0.746908	0.098961	-0.635239	136.636493	-79.272123	21.361579
13547		5.610721	3.393412	2.679685	2.141689	-3.915321	-4.312771	-0.643092	-1.174451	4.888954	-0.748047	-0.470459	0.161377	0.055096	0.035376	0.027010	-0.155972	-0.747433	0.120218	-0.634480	151.132933	-80.388726	6.262551
13548		6.034789	3.694249	2.989756	2.287213	-4.609913	-4.110945	-0.325006	-1.288667	4.932303	-0.767090	-0.437500	0.176025	0.059218	0.038461	0.030220	-0.139959	-0.748170	0.140640	-0.633146	168.856369	-80.669293	-11.821913
13549		6.729368	4.343851	3.208935	2.262003	-5.634729	-3.683410	0.259085	-1.440109	5.017140	-0.786133	-0.395752	0.188232	0.065943	0.045062	0.032625	-0.122056	-0.749126	0.159540	-0.631236	-173.891749	-79.963448	-29.168677
13550		7.817809	5.115019	3.339488	2.195586	-6.835403	-2.966571	0.861960	-1.560125	4.998322	-0.800781	-0.356201	0.196045	0.076605	0.052932	0.034222	-0.100997	-0.750423	0.176252	-0.628967	-159.581947	-78.402822	-43.147464
13551		9.887264	6.430170	2.318556	1.053599	-8.348766	-1.231526	1.698082	-1.690419	4.824624	-0.813477	-0.309814	0.221436	0.097083	0.066454	0.024569	-0.077937	-0.752073	0.189797	-0.626330	-149.335632	-76.330734	-52.648319
13552		12.397205	8.061477	1.276093	-0.064249	-10.451533	0.723697	2.719623	-1.744949	4.591498	-0.819336	-0.263428	0.244385	0.121957	0.083237	0.014951	-0.050956	-0.754020	0.198833	-0.623957	-141.607283	-73.990561	-58.941815
13553		15.238190	9.432581	0.202931	-0.939250	-12.642421	2.853232	3.522845	-1.761127	4.286325	-0.822998	-0.221436	0.270020	0.150279	0.097491	0.005058	-0.022541	-0.755831	0.204360	-0.621649	-135.781001	-71.611026	-62.926721
13554		17.178733	12.022743	-0.023020	-1.381167	-16.173073	3.456659	3.956383	-1.647759	3.917931	-0.831299	-0.175293	0.290771	0.169370	0.123516	0.003594	0.006714	-0.757121	0.206630	-0.619699	-131.048496	-69.325201	-65.474846
13555		19.350433	16.581581	-0.045894	-1.989428	-21.684043	3.420027	3.708048	-1.322630	3.507762	-0.830322	-0.133301	0.307617	0.190541	0.169130	0.003923	0.032975	-0.757208	0.208298	-0.618192	-127.213979	-67.288692	-67.314761
13556		20.702251	21.084971	-0.436448	-2.926573	-26.733518	2.434607	2.586541	-0.616539	3.079381	-0.835693	-0.102539	0.313477	0.203750	0.214031	-0.000979	0.052931	-0.755344	0.211498	-0.617999	-124.033621	-65.673620	-69.138915
13557		16.877383	19.984548	-1.439091	-3.956431	-24.443111	-1.260653	1.182211	-0.015411	2.545563	-0.838623	-0.082764	0.319580	0.166213	0.202052	-0.013188	0.065265	-0.752313	0.217429	-0.618458	-121.671554	-64.444385	-70.996925
13558		15.413556	17.899673	-2.688863	-4.841212	-21.947472	-2.062910	0.641120	0.038008	1.863679	-0.843506	-0.067383	0.310303	0.152453	0.180508	-0.026341	0.072814	-0.749922	0.222226	-0.618815	-120.188730	-63.606555	-72.270833
13559		14.799671	19.582124	-4.487156	-7.078292	-23.002859	-3.226136	0.253967	-0.077694	1.218754	-0.846191	-0.052002	0.318604	0.146817	0.196775	-0.044565	0.077615	-0.748701	0.225972	-0.618352	-119.430706	-62.979522	-72.956698
13560		15.350751	20.455732	-4.526784	-7.332254	-24.028625	-3.222058	-0.281279	-0.120662	0.469693	-0.841797	-0.054199	0.325439	0.153054	0.204853	-0.045463	0.076938	-0.748607	0.228552	-0.617602	-119.543718	-62.812194	-73.121121
13561		11.340258	13.769930	-13.907206	-15.205187	-14.793602	-1.966002	-0.607092	-1.027594	-0.277425	-0.839355	-0.062744	0.341064	0.114307	0.137119	-0.138903	0.074974	-0.752317	0.228983	-0.613159	-121.034312	-62.653563	-71.835759
13562		10.582712	-11.381717	-19.958963	-14.484639	8.872902	8.931521	-0.910000	-1.701557	-0.039185	-0.837158	-0.058105	0.354248	0.107495	-0.114742	-0.198159	0.071374	-0.757755	0.231522	-0.605897	-123.325240	-62.275252	-70.071112
13563		21.573176	-46.331460	2.194770	18.094177	30.741457	26.852097	-1.812108	0.655614	1.290617	-0.843750	-0.060547	0.343262	0.218794	-0.461689	0.025422	0.067646	-0.754871	0.242114	-0.605784	-123.008312	-61.862882	-71.605226
13564		36.109230	-21.814047	19.700725	30.067082	-0.915374	25.725514	-0.929875	1.621994	-0.414123	-0.848145	-0.060791	0.325439	0.362228	-0.217980	0.195086	0.059394	-0.750611	0.244384	-0.611009	-122.418047	-62.651695	-73.055690
13565		23.926694	1.182283	-4.222420	-1.159671	-10.345453	12.171371	1.399574	1.076724	-3.009228	-0.840820	-0.082520	0.328369	0.239180	0.008525	-0.043445	0.054120	-0.750470	0.229091	-0.617563	-122.428549	-64.439109	-72.148579
13566		11.250464	9.476114	-4.329808	-5.078313	-12.144392	-1.949922	2.548206	-0.420386	-2.938606	-0.842529	-0.104492	0.335449	0.113975	0.093633	-0.041862	0.054175	-0.754283	0.209718	-0.619791	-123.463692	-65.821326	-69.452963
13567		14.349809	6.333177	1.719407	2.192658	-11.410296	0.862799	-0.153597	-0.111268	-2.624590	-0.834961	-0.128662	0.329590	0.144303	0.061455	0.017227	0.045565	-0.757356	0.200241	-0.619870	-125.627664	-67.025305	-67.188379
13568		6.200446	2.252482	3.610786	3.833519	-4.888923	-5.575019	-0.841629	0.375996	-2.409829	-0.836670	-0.148438	0.336670	0.062339	0.021926	0.035898	0.033400	-0.758688	0.193511	-0.621153	-127.839562	-68.371887	-65.398007
13569		4.031961	5.249459	-0.215733	-0.848177	-6.143074	-7.488696	1.099393	-0.817645	-2.152118	-0.822754	-0.163574	0.345947	0.040889	0.052067	-0.001704	0.031664	-0.763064	0.181773	-0.619426	-130.136424	-69.037146	-62.257171
13570		12.600087	3.421970	-9.848736	-8.057741	-5.351515	3.374375	0.592583	-0.754242	-1.831567	-0.822510	-0.174316	0.350586	0.126679	0.033352	-0.097911	0.027812	-0.766889	0.172468	-0.617546	-132.675791	-69.649796	-59.254351
13571		11.049356	4.245605	-6.474830	-5.195225	-6.135676	1.022380	0.190179	0.156774	-1.174921	-0.822021	-0.185303	0.355225	0.110690	0.041868	-0.064795	0.024767	-0.767378	0.167386	-0.618466	-133.650193	-70.203664	-58.101242
13572		9.504984	4.260391	-1.336692	-0.570145	-6.456431	-1.550088	-0.876280	0.320357	-0.908720	-0.823975	-0.198486	0.351318	0.095220	0.042112	-0.013705	0.016900	-0.767182	0.166573	-0.619193	-135.051329	-70.810527	-57.272230
13573		9.237591	1.218301	-2.059381	-0.620618	-3.282747	-0.874241	-0.908281	0.338966	-0.869686	-0.819092	-0.211670	0.344971	0.092392	0.011687	-0.020804	0.010430	-0.766918	0.166065	-0.619799	-136.216826	-71.299224	-56.590529
13574		12.051132	-2.002110	-1.632705	1.064779	-0.946259	2.429611	-0.240157	0.053395	-0.821320	-0.818848	-0.220459	0.349609	0.120423	-0.020535	-0.016335	0.005432	-0.767365	0.163612	-0.619962	-137.592448	-71.749538	-55.416900
13575		12.012537	-0.077303	-2.959973	-0.652834	-2.403923	2.306004	-0.048645	-0.049923	-0.780298	-0.816406	-0.224854	0.349609	0.120129	-0.001249	-0.029569	0.002855	-0.768154	0.160757	-0.619749	-138.700330	-72.028022	-54.280942
13576		9.897488	0.449996	-0.409114	1.282839	-2.775415	-0.379704	-0.302906	0.106031	-0.638816	-0.818359	-0.233643	0.345459	0.098986	0.004178	-0.004150	-0.001835	-0.768258	0.159187	-0.620029	-139.905676	-72.414724	-53.326234
13577		8.763764	-3.762380	1.232050	3.697911	1.230866	-1.021383	-0.222508	-0.142193	-0.708492	-0.809326	-0.235840	0.354492	0.087495	-0.037920	0.012425	-0.004786	-0.769255	0.157145	-0.619297	-141.196492	-72.611269	-52.106907
13578		9.129232	-3.379736	-2.614544	0.048309	1.640961	0.132452	0.210402	-0.369578	-0.786834	-0.811279	-0.246826	0.356934	0.091207	-0.034129	-0.026013	-0.007432	-0.770941	0.153287	-0.618141	-142.931920	-72.819430	-50.267798
13579		11.021338	1.274943	-4.656318	-2.638562	-2.749210	1.600285	-0.025372	-0.185244	-0.704041	-0.811035	-0.253174	0.361572	0.110300	0.012355	-0.046463	-0.009577	-0.772047	0.150646	-0.617380	-144.210796	-72.975121	-48.945351
13580		10.135614	1.066972	-3.589648	-1.723242	-2.472431	0.563810	-0.470358	0.097932	-0.582779	-0.810791	-0.264160	0.361816	0.101369	0.010290	-0.035971	-0.014619	-0.772069	0.149753	-0.617470	-145.589910	-73.303074	-47.902746
13581		8.644157	-0.080488	-2.508702	-0.693649	-1.214519	-0.920838	-0.570371	0.128673	-0.546021	-0.808350	-0.272949	0.355469	0.086423	-0.001112	-0.025140	-0.018618	-0.772033	0.149384	-0.617497	-146.656446	-73.540232	-47.131330
13582		9.737596	-0.246786	-2.119015	-0.066268	-1.286833	0.072217	-0.370869	0.082504	-0.462604	-0.808105	-0.277588	0.353271	0.097361	-0.002732	-0.021225	-0.022908	-0.771994	0.148678	-0.617572	-147.878128	-73.808589	-46.200556
13583		9.990655	-0.950271	-3.248224	-0.899141	-0.367967	0.690794	-0.346007	0.092087	-0.366231	-0.801270	-0.283936	0.355713	0.099874	-0.009742	-0.032512	-0.025458	-0.771940	0.148309	-0.617628	-148.603803	-73.965482	-45.651985
13584		10.361440	0.502497	-2.811167	-0.792484	-1.853416	0.744358	-0.373475	0.139112	-0.340746	-0.801025	-0.290527	0.353516	0.103603	0.004796	-0.028193	-0.029371	-0.771626	0.148044	-0.617911	-149.606589	-74.214778	-44.945641
13585		9.524861	-0.437489	-1.748662	0.295582	-0.996526	-0.174656	-0.288163	0.141487	-0.285766	-0.805420	-0.295166	0.349365	0.095230	-0.004536	-0.017548	-0.031486	-0.771356	0.147798	-0.618202	-150.137114	-74.368688	-44.566486
13586		9.210966	-0.595364	-2.526048	-0.458444	-0.550944	-0.269970	-0.194247	0.121378	-0.308755	-0.802979	-0.297363	0.349365	0.092085	-0.006120	-0.025310	-0.034608	-0.771080	0.147141	-0.618537	-151.034577	-74.593885	-43.868345
13587		9.343756	-0.305418	-2.565549	-0.552275	-0.809800	-0.167987	-0.093489	0.146795	-0.266519	-0.802979	-0.297119	0.353760	0.093415	-0.003191	-0.025723	-0.035917	-0.770804	0.146363	-0.618990	-151.435977	-74.742742	-43.508135
13588		9.056424	-0.552803	-2.489716	-0.473742	-0.490745	-0.428777	-0.063740	0.138206	-0.251757	-0.805176	-0.301514	0.354004	0.090540	-0.005650	-0.024958	-0.038339	-0.770455	0.145516	-0.619479	-152.164230	-74.954409	-42.905954
13589		8.962782	-0.483838	-2.482383	-0.510322	-0.516395	-0.528257	-0.025286	0.150837	-0.213165	-0.802734	-0.308350	0.345215	0.089604	-0.004937	-0.024891	-0.039224	-0.770137	0.144729	-0.620003	-152.440607	-75.089376	-42.635334
13590		9.435545	-0.373048	-2.295558	-0.281657	-0.705438	-0.124487	-0.044441	0.143166	-0.222411	-0.802734	-0.310303	0.351807	0.094335	-0.003841	-0.023022	-0.041462	-0.769752	0.143942	-0.620519	-153.118037	-75.290834	-42.074039
13591		9.124959	-0.991129	-2.252946	-0.137836	-0.048036	-0.362734	-0.019911	0.125190	-0.220449	-0.798096	-0.316895	0.347656	0.091224	-0.010014	-0.022586	-0.042330	-0.769517	0.143114	-0.620942	-153.446189	-75.413405	-41.747153
13592		9.481372	-0.140824	-2.255451	-0.309752	-0.875000	-0.110024	-0.016895	0.115032	-0.256511	-0.802246	-0.321533	0.345459	0.094799	-0.001532	-0.022609	-0.044534	-0.769244	0.142138	-0.621351	-154.222406	-75.604105	-41.068847
13593		9.569344	-0.654244	-1.993907	0.089709	-0.436072	-0.026075	-0.021582	0.118454	-0.240955	-0.797607	-0.327881	0.347900	0.095674	-0.006660	-0.019995	-0.045469	-0.769042	0.141236	-0.621739	-154.616553	-75.726667	-40.675315
13594		9.768952	-0.913629	-2.400994	-0.188999	-0.072331	0.286366	-0.060592	0.127017	-0.269493	-0.795166	-0.332520	0.341309	0.097662	-0.009275	-0.024069	-0.047847	-0.768731	0.140321	-0.622152	-155.457335	-75.921433	-39.951786
13595		9.571712	-1.544375	-2.038338	0.284934	0.500939	0.077985	-0.029285	0.126191	-0.251445	-0.797363	-0.334717	0.339355	0.095685	-0.015567	-0.020441	-0.048849	-0.768507	0.139399	-0.622558	-155.890621	-76.048411	-39.523039
13596		9.606578	-1.073369	-2.129687	0.073531	0.115527	0.084544	-0.004451	0.107423	-0.300289	-0.797119	-0.343262	0.343994	0.096038	-0.010878	-0.021348	-0.051007	-0.768300	0.138138	-0.622922	-156.806241	-76.233428	-38.678219
13597		9.422882	-0.617499	-2.344679	-0.290988	-0.208061	-0.089442	0.014538	0.093251	-0.311032	-0.794922	-0.343262	0.343994	0.094208	-0.006320	-0.023491	-0.052005	-0.768227	0.136857	-0.623212	-157.396451	-76.353739	-38.062692
13598		9.329313	-0.546213	-2.023612	-0.025073	-0.294182	-0.255377	0.019175	0.101315	-0.335254	-0.796631	-0.356445	0.346436	0.093274	-0.005617	-0.020284	-0.054194	-0.768055	0.135454	-0.623544	-158.411077	-76.535310	-37.109950
13599		9.633454	0.670193	-2.068478	-0.345085	-1.455563	-0.050857	0.003870	0.072607	-0.370510	-0.792236	-0.360840	0.339844	0.096339	0.006524	-0.020720	-0.055405	-0.768079	0.133981	-0.623726	-159.187654	-76.652600	-36.309916
13600		9.575683	0.361872	-1.664090	0.113169	-1.204050	-0.162236	-0.017883	0.069867	-0.312640	-0.794189	-0.363037	0.340088	0.095757	0.003468	-0.016675	-0.057596	-0.767982	0.132753	-0.623910	-160.237893	-76.804014	-35.336526
13601		9.951605	0.666663	-1.751747	0.019269	-1.491241	0.203461	-0.084543	0.054321	-0.312594	-0.789795	-0.367432	0.342285	0.099522	0.006504	-0.017547	-0.058954	-0.767994	0.131782	-0.623974	-160.977571	-76.894543	-34.627266
13602		9.595404	-0.182225	-1.933432	0.020307	-0.538718	-0.037594	-0.106936	0.041828	-0.254986	-0.784912	-0.374023	0.335938	0.095948	-0.001955	-0.019353	-0.061246	-0.767920	0.131025	-0.624003	-161.998119	-77.012463	-33.731253
13603		9.506378	-0.247336	-2.240077	-0.262963	-0.358834	-0.052955	-0.128416	0.030966	-0.257763	-0.786865	-0.385254	0.331787	0.095057	-0.002610	-0.022414	-0.062586	-0.767952	0.130407	-0.623961	-162.673190	-77.075851	-33.114659
13604		9.701256	-0.451486	-1.971712	0.087741	-0.212765	0.094524	-0.112959	0.063252	-0.243413	-0.782227	-0.394043	0.329834	0.097001	-0.004644	-0.019745	-0.064853	-0.767798	0.129704	-0.624065	-163.673008	-77.196281	-32.241664
13605		9.964212	-0.220306	-2.432510	-0.362186	-0.314276	0.435294	-0.118744	0.119111	-0.284577	-0.775391	-0.393799	0.338623	0.099624	-0.002359	-0.024383	-0.066297	-0.767571	0.128923	-0.624354	-164.364912	-77.308410	-31.602659
13606		9.685784	-1.031198	-2.439784	-0.193513	0.549703	0.211811	-0.112744	0.129322	-0.350142	-0.777344	-0.402588	0.327881	0.096824	-0.010495	-0.024455	-0.068913	-0.767276	0.127789	-0.624667	-165.610159	-77.473608	-30.476847
13607		10.009673	-1.945821	-2.814002	-0.226934	1.533921	0.651240	-0.150240	0.128497	-0.425591	-0.768311	-0.411377	0.325928	0.100037	-0.019692	-0.028190	-0.070925	-0.767092	0.126561	-0.624918	-166.703064	-77.604999	-29.446384
13608		10.273165	-1.851943	-2.568145	0.028947	1.422112	0.842801	-0.157989	0.209408	-0.505820	-0.768066	-0.417969	0.323730	0.102657	-0.018799	-0.025774	-0.074205	-0.766623	0.124941	-0.625438	-168.375279	-77.820784	-27.907544
13609		9.882516	-1.776796	-2.401392	0.088836	1.408752	0.414479	-0.252726	0.225939	-0.596207	-0.756348	-0.431396	0.312988	0.098744	-0.018093	-0.024103	-0.077204	-0.766190	0.123341	-0.625923	-169.990398	-78.013486	-26.404585
13610		9.841278	-2.016262	-2.465562	0.092463	1.749510	0.381682	-0.349430	0.258629	-0.695011	-0.754150	-0.435791	0.311035	0.098310	-0.020548	-0.024747	-0.081789	-0.765593	0.121571	-0.626417	-172.359460	-78.250516	-24.263697
13611		9.480974	-2.022912	-2.678463	-0.170771	1.932611	0.055965	-0.426493	0.304814	-0.821167	-0.749268	-0.446533	0.311279	0.094685	-0.020675	-0.026885	-0.086203	-0.764953	0.119616	-0.626983	-174.797533	-78.477917	-22.024657
13612		9.651950	-2.147760	-2.266675	0.290215	2.038377	0.120620	-0.453327	0.339440	-0.984074	-0.744629	-0.455566	0.304932	0.096374	-0.022004	-0.022781	-0.092084	-0.764196	0.117027	-0.627559	-178.199296	-78.727377	-18.890179
13613		9.716322	-2.251448	-2.823554	-0.183688	2.413633	0.266377	-0.454854	0.357791	-1.165029	-0.732910	-0.470703	0.302979	0.096979	-0.023144	-0.028357	-0.097710	-0.763528	0.113813	-0.628112	178.138781	-78.932913	-15.423938
13614		9.996971	-2.089582	-3.104853	-0.432623	2.482882	0.559967	-0.486659	0.424878	-1.337968	-0.718994	-0.488525	0.285889	0.099760	-0.021639	-0.031209	-0.104813	-0.762623	0.109926	-0.628758	173.413499	-79.128939	-10.960576
13615		10.120104	-2.104720	-3.069871	-0.366424	2.646393	0.633850	-0.547064	0.496734	-1.492768	-0.714111	-0.501709	0.279541	0.100963	-0.021886	-0.030891	-0.111888	-0.761567	0.105667	-0.629548	168.413513	-79.275225	-6.190377
13616		9.883715	-1.985373	-2.872035	-0.252442	2.667446	0.321226	-0.568095	0.547752	-1.613586	-0.695801	-0.514893	0.273438	0.098593	-0.020732	-0.028933	-0.120166	-0.760277	0.100909	-0.630362	162.535645	-79.342875	-0.601529
13617		10.015691	-1.111609	-2.700293	-0.330173	1.971126	0.426635	-0.563260	0.573524	-1.715955	-0.684082	-0.536865	0.265137	0.099978	-0.012051	-0.027257	-0.128026	-0.758960	0.095789	-0.631200	156.692387	-79.307786	5.015334
13618		10.957499	0.519026	-2.125338	-0.114272	0.479169	1.350037	-0.614244	0.567613	-1.827333	-0.681396	-0.543457	0.258545	0.109555	0.004123	-0.021578	-0.137090	-0.757545	0.090338	-0.631800	150.308466	-79.113238	11.098468
13619		12.474128	-0.662448	-1.372015	1.239640	1.650431	2.583235	-0.677854	0.635278	-1.909373	-0.663086	-0.563232	0.241455	0.124626	-0.007862	-0.014091	-0.145995	-0.755891	0.084783	-0.632555	144.167394	-78.825481	16.958482
13620		12.832999	-0.007494	-0.876110	1.567702	1.171023	2.900220	-0.651912	0.683501	-2.018721	-0.651367	-0.578613	0.241943	0.128289	-0.001400	-0.009196	-0.155782	-0.753990	0.078615	-0.633286	137.818746	-78.371701	23.000755
13621		14.022135	-0.946919	-0.197078	2.722257	2.213144	3.797565	-0.628993	0.660901	-2.119558	-0.633057	-0.598389	0.233643	0.140103	-0.010962	-0.002401	-0.165142	-0.752187	0.072073	-0.633836	132.107071	-77.777063	28.469069
13622		15.347515	-2.546922	-0.420975	3.283266	4.264463	4.789820	-0.421575	0.706246	-2.295390	-0.610107	-0.611328	0.220703	0.153153	-0.027238	-0.004695	-0.174841	-0.750288	0.064076	-0.634344	126.518520	-76.979131	33.901604
13623		17.479796	-2.969798	-2.589419	1.807437	6.067847	6.949314	-0.150496	0.751692	-2.462986	-0.598633	-0.628906	0.221191	0.174316	-0.031866	-0.026527	-0.183472	-0.748495	0.054627	-0.634909	121.632959	-76.047766	38.835927
13624		18.143331	-2.793304	-4.697352	-0.074899	7.200538	7.713660	-0.110963	0.737553	-2.640180	-0.573486	-0.644043	0.219482	0.180868	-0.030350	-0.047625	-0.192953	-0.746614	0.044302	-0.635118	117.128733	-74.899815	43.384972
13625		18.182393	-3.580883	-4.205671	0.658456	8.253840	7.290655	-0.382400	0.690199	-2.838619	-0.561768	-0.661621	0.211182	0.181144	-0.038464	-0.042611	-0.203554	-0.744596	0.034225	-0.634800	113.179441	-73.591577	47.259592
13626		19.766516	-5.150496	-4.094073	1.610774	10.534872	8.086676	-0.688519	0.674359	-3.140779	-0.541260	-0.679199	0.211670	0.196683	-0.054741	-0.041420	-0.216567	-0.742116	0.023932	-0.633869	109.418579	-72.021838	50.753057
13627		21.410359	-6.860250	-3.341368	3.251199	12.824751	8.667936	-0.829909	0.665392	-3.388672	-0.516113	-0.694580	0.194336	0.212787	-0.072355	-0.033828	-0.230460	-0.739391	0.013239	-0.632467	106.135178	-70.285048	53.718751
13628		21.785110	-8.194818	-3.949687	3.297639	14.994085	8.120086	-1.048744	0.676204	-3.569547	-0.495605	-0.707764	0.186035	0.216206	-0.086025	-0.039786	-0.245863	-0.736082	0.002506	-0.630657	103.123399	-68.382328	56.277418
13629		20.683927	-9.703334	-5.100615	2.614394	17.036768	6.025201	-1.127088	0.746201	-3.724211	-0.466064	-0.725098	0.175537	0.204790	-0.101148	-0.051210	-0.261743	-0.732239	-0.008589	-0.628683	100.422875	-66.376289	58.502106
13630		19.501179	-8.903184	-5.911213	1.485572	16.837782	4.634457	-1.159833	0.881313	-3.786599	-0.447754	-0.744873	0.165039	0.193014	-0.093043	-0.059434	-0.277836	-0.727594	-0.019994	-0.626908	97.900686	-64.310900	60.543609
13631		20.124207	-6.186201	-5.303757	1.395090	15.150447	5.673914	-1.256824	1.168662	-3.748919	-0.420410	-0.760254	0.152100	0.199718	-0.065952	-0.053802	-0.294011	-0.721648	-0.031336	-0.625940	95.362527	-62.250199	62.577659
13632		20.113422	-4.777309	-4.915833	1.315643	14.463855	5.696690	-1.375757	1.477183	-3.647939	-0.399658	-0.780029	0.137207	0.199846	-0.051770	-0.050291	-0.309954	-0.714267	-0.042351	-0.626065	92.764611	-60.238754	64.653603
13633		18.002904	-3.606021	-4.154833	1.152715	12.877034	3.868499	-1.226844	1.716244	-3.556814	-0.381836	-0.784424	0.126465	0.178983	-0.039510	-0.042852	-0.325066	-0.706079	-0.053888	-0.626802	90.315804	-58.223517	66.684120
13634		16.098685	-0.852834	-3.744644	0.145371	10.171717	3.240895	-0.855450	1.789214	-3.467521	-0.359131	-0.795410	0.115723	0.160462	-0.011478	-0.038839	-0.338125	-0.698034	-0.066298	-0.627714	88.276667	-56.252847	68.549009
13635		13.630071	-1.311779	-4.951213	-1.390037	10.157588	0.525701	-0.337195	1.595583	-3.287716	-0.347656	-0.804199	0.102783	0.135659	-0.015436	-0.050571	-0.349061	-0.691239	-0.079424	-0.627724	86.877809	-54.327783	70.014475
13636		9.701993	-4.224312	-6.500226	-2.712926	11.011430	-4.752634	0.218356	1.073788	-3.008436	-0.329590	-0.814941	0.116211	0.096020	-0.043621	-0.065567	-0.356904	-0.687029	-0.092294	-0.626173	86.322692	-52.609683	70.892256
13637		7.002746	-5.439932	-6.142359	-2.587593	10.294840	-7.895386	0.662811	0.586246	-2.503984	-0.315918	-0.819336	0.118652	0.069160	-0.055064	-0.061809	-0.362191	-0.685149	-0.104032	-0.623350	86.389869	-51.152359	71.288615
13638		5.892018	-1.656517	-2.521228	-0.654892	5.636936	-6.405130	0.393986	0.493049	-1.903850	-0.313477	-0.825928	0.121094	0.058697	-0.017075	-0.025390	-0.366028	-0.683409	-0.112578	-0.621532	86.375365	-50.094896	71.641945
13639		5.167045	4.183259	-3.120673	-3.105782	1.364879	-3.299096	0.115127	0.145352	-1.702256	-0.297852	-0.825684	0.118896	0.052001	0.041409	-0.031221	-0.370855	-0.682173	-0.119037	-0.618818	86.414245	-49.112147	71.676537
13640		6.406988	5.188111	-2.366574	-2.403625	1.266881	-1.677403	-0.143235	-0.152126	-1.524026	-0.297852	-0.830322	0.112305	0.064481	0.051374	-0.023654	-0.375642	-0.681580	-0.123417	-0.615719	86.515521	-48.296919	71.479768
13641		6.179094	0.601664	-3.572109	-2.195668	4.790990	-4.962082	0.039838	0.112493	-0.908008	-0.302246	-0.830078	0.118896	0.061797	0.005743	-0.035755	-0.378253	-0.680730	-0.126867	-0.614359	86.500626	-47.769665	71.529524
13642		2.544824	-5.336100	-2.675982	-0.427333	6.222107	-11.605299	0.819974	0.356129	0.120708	-0.306641	-0.834717	0.116943	0.025432	-0.053235	-0.027024	-0.374341	-0.681401	-0.129565	-0.615446	86.768269	-47.878889	71.854454
13643		0.325150	-5.814641	-2.159477	-0.329594	4.971649	-13.521135	1.119563	0.041501	0.842347	-0.324707	-0.828125	0.125488	0.003491	-0.058010	-0.021920	-0.367923	-0.683887	-0.130237	-0.616417	87.354229	-48.355706	71.928052
13644		0.952514	-3.603195	-1.701933	-0.429098	3.703325	-11.512014	1.112547	-0.140002	1.326648	-0.342773	-0.819336	0.138428	0.009775	-0.035872	-0.017212	-0.359534	-0.687355	-0.128781	-0.617814	88.078772	-49.175217	71.868676
13645		1.555339	-1.531542	-0.990042	-0.213916	2.380667	-9.635594	0.917663	-0.200719	1.741330	-0.360840	-0.810547	0.140381	0.015696	-0.015134	-0.009954	-0.351137	-0.690702	-0.125286	-0.619627	88.705484	-50.171903	71.735397
13646		1.807023	-0.227682	-0.991407	-0.518291	1.573718	-8.565825	0.727323	-0.262648	2.134417	-0.383545	-0.799561	0.148926	0.018106	-0.002048	-0.009898	-0.341557	-0.694236	-0.119612	-0.622148	89.314201	-51.455684	71.545421
13647		2.019656	0.401367	-1.301243	-0.940972	1.296080	-7.977532	0.504193	-0.236208	2.562660	-0.403809	-0.793213	0.148682	0.020158	0.004305	-0.012978	-0.331971	-0.697295	-0.111893	-0.625344	89.760567	-52.921276	71.345258
13648		1.983783	0.475638	-1.235155	-0.916902	1.141947	-7.930633	0.307516	-0.233548	3.029076	-0.437744	-0.780273	0.152588	0.019777	0.005075	-0.012321	-0.320912	-0.700299	-0.101810	-0.629469	90.155640	-54.715002	71.131562
13649		2.010326	0.187954	-0.960583	-0.590347	1.232838	-8.043325	0.083383	-0.255594	3.452350	-0.465088	-0.760742	0.145508	0.020079	0.002230	-0.009579	-0.309861	-0.702881	-0.089580	-0.633972	90.431178	-56.688633	70.855105
13650		2.282559	-0.095535	-0.593350	-0.134182	1.414775	-7.928263	-0.147284	-0.269623	3.795144	-0.500977	-0.747559	0.151611	0.022846	-0.000526	-0.005902	-0.297798	-0.705231	-0.075262	-0.638984	90.669362	-58.918937	70.530485
13651		2.674077	-0.083402	-0.060480	0.415259	1.343654	-7.536186	-0.251569	-0.330623	4.080151	-0.533203	-0.719482	0.148438	0.026751	-0.000289	-0.000560	-0.285735	-0.707292	-0.059585	-0.643850	90.908394	-61.250324	70.087739
13652		3.337489	0.206873	0.393941	0.843858	1.140300	-6.759388	-0.273919	-0.404564	4.345664	-0.558105	-0.702148	0.143555	0.033311	0.002798	0.004003	-0.272145	-0.709477	-0.042660	-0.648659	91.343727	-63.792308	69.474875
13653		4.091189	0.211736	0.751461	1.260970	1.177667	-6.022251	-0.223148	-0.484407	4.557501	-0.596924	-0.673828	0.142822	0.040831	0.003057	0.007611	-0.258212	-0.711524	-0.025120	-0.653016	91.973856	-66.391049	68.638655
13654		4.651452	0.445088	1.281775	1.728768	0.811666	-5.360108	-0.045688	-0.577785	4.713564	-0.635742	-0.641113	0.148438	0.046355	0.005548	0.012951	-0.242364	-0.713881	-0.007357	-0.656947	93.115592	-69.131048	67.428580
13655		5.232916	1.117409	1.388465	1.652909	0.138263	-4.539860	0.073748	-0.720059	4.901253	-0.661377	-0.606201	0.147461	0.051984	0.012446	0.014077	-0.225979	-0.716292	0.010749	-0.660109	94.871083	-71.900719	65.611182
13656		5.563962	1.412518	1.233273	1.403892	-0.262903	-4.118273	0.097314	-0.846578	5.115370	-0.700439	-0.569092	0.153076	0.055201	0.015535	0.012574	-0.208019	-0.718801	0.029804	-0.662695	97.707599	-74.816379	62.757036
13657		5.850825	1.383313	0.597044	0.795301	-0.259436	-3.829901	0.201404	-0.925570	5.264991	-0.721680	-0.533936	0.167480	0.058089	0.015360	0.006255	-0.189663	-0.721032	0.048991	-0.664636	102.074073	-77.695997	58.381569
13658		6.557914	1.402099	0.374292	0.605839	-0.419013	-3.137477	0.464032	-1.025835	5.358186	-0.749756	-0.494385	0.173096	0.065152	0.015761	0.004113	-0.169274	-0.723402	0.067827	-0.665910	109.856136	-80.540876	50.774142
13659		7.777312	0.811310	1.407502	1.840641	-0.451195	-2.097828	0.625209	-1.062955	5.448818	-0.782227	-0.448486	0.180664	0.077438	0.010181	0.014517	-0.148470	-0.725338	0.086307	-0.666628	123.789706	-83.067468	37.062847
13660		9.023632	0.593582	1.724649	2.276178	-0.722985	-0.922857	0.994718	-1.198447	5.426892	-0.799316	-0.402344	0.195068	0.089927	0.008291	0.017823	-0.125633	-0.727520	0.103640	-0.666475	150.847200	-84.740518	10.472958
13661		10.633488	1.308021	2.341075	2.743673	-2.092235	0.595506	1.677848	-1.396122	5.377314	-0.818604	-0.356201	0.213623	0.105768	0.015728	0.024275	-0.100860	-0.730133	0.118423	-0.665364	-173.758079	-84.560284	-24.102378
13662		13.563370	2.153142	2.486202	2.877880	-3.692623	3.333447	2.187314	-1.445040	5.308024	-0.831299	-0.312012	0.232422	0.134818	0.024836	0.026098	-0.073792	-0.732621	0.131324	-0.663758	-148.479609	-82.724166	-48.233416
13663		16.218333	4.374811	0.927726	1.027112	-6.388498	5.714625	2.906391	-1.388517	5.114634	-0.839600	-0.259033	0.253174	0.160924	0.047722	0.011072	-0.045252	-0.734609	0.140848	-0.662166	-134.744153	-80.269426	-60.434161
13664		16.729266	6.454824	-0.013720	-0.238064	-9.063703	5.654828	3.577326	-1.343347	4.906499	-0.852539	-0.201904	0.275879	0.165633	0.068600	0.002182	-0.014454	-0.736051	0.147385	-0.660528	-126.212764	-77.587516	-67.007438
13665		17.002397	7.700596	-0.562900	-0.785021	-11.002393	5.251945	3.932571	-1.298610	4.552345	-0.856201	-0.155518	0.292480	0.168237	0.080925	-0.002967	0.015992	-0.736922	0.151159	-0.658666	-120.619909	-75.002427	-70.444151
13666		18.092460	9.873922	-1.018425	-1.200708	-14.030250	5.269894	4.017970	-1.260305	4.046001	-0.860107	-0.109375	0.311279	0.178927	0.102535	-0.007018	0.045398	-0.737350	0.152766	-0.656442	-116.614502	-72.589372	-72.195414
13667		16.669719	12.275623	-1.830954	-2.082109	-16.448415	2.715429	3.701635	-0.890870	3.639130	-0.856934	-0.067383	0.316895	0.164496	0.126064	-0.015261	0.071631	-0.736400	0.153762	-0.654936	-113.249633	-70.486286	-73.506963
13668		15.884778	13.702894	-1.939983	-2.041998	-18.036147	0.879616	3.002797	-0.428923	3.198612	-0.855713	-0.034668	0.318115	0.156665	0.139813	-0.016977	0.093648	-0.734059	0.155571	-0.654359	-110.287896	-68.675804	-74.819532
13669		14.090990	13.255385	-1.272424	-1.207481	-17.380864	-1.310089	2.218466	-0.081535	2.778079	-0.856689	-0.005859	0.322021	0.139054	0.134624	-0.011182	0.110907	-0.731011	0.158432	-0.654386	-107.845359	-67.158962	-76.084069
13670		13.156896	13.287597	-1.073224	-0.901941	-17.298021	-2.688099	1.613478	-0.086781	2.345303	-0.857178	0.013672	0.321533	0.130002	0.134487	-0.009595	0.124532	-0.728447	0.161673	-0.654002	-106.119200	-65.859433	-76.958730
13671		13.565226	14.614096	-1.195312	-0.951295	-18.836010	-3.232338	0.969509	0.030207	1.947334	-0.860107	0.037842	0.314209	0.134219	0.147508	-0.011261	0.134378	-0.726129	0.165590	-0.653651	-104.879357	-64.791764	-77.712361
13672		12.512547	14.114017	-1.516652	-1.302989	-18.047544	-4.276430	0.278286	0.225442	1.587891	-0.860596	0.051025	0.320557	0.123982	0.142149	-0.015109	0.140204	-0.723857	0.170565	-0.653667	-103.989839	-63.961034	-78.535409
13673		11.534206	12.341481	-1.623828	-1.438957	-16.095251	-4.630495	-0.310243	0.267851	1.240294	-0.858643	0.059814	0.320313	0.114552	0.124101	-0.016584	0.142883	-0.722128	0.176238	-0.653495	-103.526605	-63.310192	-79.251377
13674		10.885251	10.560550	-1.367015	-1.236474	-14.255507	-4.603887	-0.856957	0.295568	0.897136	-0.867676	0.068604	0.315674	0.108357	0.106032	-0.014284	0.142114	-0.720974	0.182418	-0.653241	-103.468936	-62.884707	-79.890986
13675		12.553732	8.013592	-4.746634	-4.388234	-12.617139	-1.695146	-1.164853	0.126860	0.374701	-0.858887	0.070801	0.313232	0.125357	0.080092	-0.048012	0.138999	-0.721034	0.187646	-0.652364	-103.900959	-62.696280	-80.156259
13676		7.367363	5.706030	-13.381066	-13.204061	-7.782799	-4.247780	-0.915260	-0.889526	0.036302	-0.854248	0.062256	0.329102	0.074258	0.056462	-0.133741	0.136197	-0.724549	0.190030	-0.648357	-105.391603	-62.594376	-79.099359
13677		13.581252	2.271143	-20.720561	-19.440327	-7.109696	3.987776	-1.137384	-1.817545	-0.373863	-0.849854	0.060303	0.349121	0.137729	0.021281	-0.206083	0.132562	-0.731530	0.191099	-0.640915	-108.082961	-62.502625	-76.801564
13678		20.930951	-22.132560	-8.612181	-3.675414	10.810835	19.712373	-1.669122	-0.017709	0.265732	-0.856201	0.055664	0.340332	0.209611	-0.221756	-0.084254	0.126917	-0.732570	0.197143	-0.639037	-109.030672	-62.404137	-76.831243
13679		24.788443	-24.201699	7.954180	13.526570	9.836517	21.551830	-1.198772	1.166671	-0.394243	-0.862793	0.051270	0.335938	0.247871	-0.242029	0.079547	0.120090	-0.729967	0.200246	-0.642361	-108.638088	-62.836848	-78.047462
13680		23.566995	-7.912157	-0.469531	2.835994	-3.114317	14.691433	0.830370	0.209079	-2.470826	-0.864258	0.022705	0.334473	0.234663	-0.082004	-0.005277	0.114643	-0.731319	0.188466	-0.645376	-108.899606	-64.255347	-77.239263
13681		15.702492	4.360981	0.875801	1.895311	-10.460672	2.569274	1.119841	-0.257175	-3.094332	-0.863525	0.000732	0.337158	0.157662	0.041123	0.009195	0.108958	-0.734325	0.173349	-0.647182	-109.823200	-65.882482	-75.513970
13682		14.602589	8.254273	3.405410	3.978443	-13.400420	0.063863	0.245861	-0.175063	-2.877039	-0.851807	-0.016602	0.344238	0.147163	0.080389	0.034282	0.100293	-0.737261	0.161681	-0.648265	-111.300174	-67.435692	-73.773678
13683		13.226665	5.644400	-0.993891	-0.156027	-9.899482	0.663645	-0.792294	-0.187785	-2.803387	-0.853271	-0.045166	0.342773	0.133049	0.054543	-0.010033	0.088404	-0.740456	0.153787	-0.648275	-113.533003	-68.882908	-71.858077
13684		8.128496	4.662594	-2.426368	-2.014207	-6.880016	-3.308774	-1.327015	-0.167536	-2.714736	-0.845703	-0.073730	0.347900	0.081927	0.045355	-0.024499	0.074290	-0.743646	0.147750	-0.647798	-116.370443	-70.306943	-69.673667
13685		7.747474	4.778232	-0.835360	-0.473425	-6.839360	-3.767141	-0.286034	-0.623044	-2.019500	-0.844971	-0.095459	0.348633	0.077978	0.046985	-0.008179	0.067118	-0.747221	0.140910	-0.645988	-118.980655	-71.169281	-67.083036
13686		11.622289	2.969810	-0.512386	0.650827	-6.153814	0.476298	-0.050751	-0.865191	-1.534715	-0.844727	-0.102051	0.359863	0.116467	0.028804	-0.004628	0.062011	-0.751145	0.134827	-0.643240	-121.720661	-71.733931	-64.257976
13687		12.347741	-2.069027	-1.914064	0.084104	-1.272218	2.788225	-0.338922	-0.303503	-1.319816	-0.842041	-0.117188	0.366699	0.123366	-0.021537	-0.018917	0.056672	-0.753099	0.130844	-0.642270	-123.627244	-72.279871	-62.458212
13688		10.007893	1.984152	-0.409572	0.783566	-4.504147	-0.682533	-0.459089	-0.388416	-1.253332	-0.837402	-0.128174	0.362793	0.100208	0.019205	-0.003946	0.050576	-0.755329	0.127269	-0.640877	-125.907332	-72.798773	-60.380771
13689		10.272601	1.505317	-1.986797	-0.615651	-3.852952	0.011445	-0.404099	-0.312123	-1.315366	-0.837158	-0.134766	0.376221	0.102853	0.014337	-0.019737	0.045008	-0.757250	0.123494	-0.639763	-128.101501	-73.296276	-58.329680
13690		9.596296	0.774308	-2.126303	-0.709623	-2.847475	-0.400093	-0.015020	-0.393970	-1.048855	-0.832520	-0.143555	0.376465	0.096043	0.007238	-0.021074	0.041214	-0.759194	0.119260	-0.638517	-130.139321	-73.675501	-56.252651
13691		10.785345	-0.798088	-2.584638	-0.723363	-1.477868	1.184265	0.115210	-0.309330	-0.791190	-0.838867	-0.154297	0.385498	0.107861	-0.008393	-0.025684	0.039284	-0.760623	0.115804	-0.637573	-131.561614	-73.905682	-54.703425
13692		11.552604	-0.915724	-2.030428	-0.003773	-1.503449	1.856206	0.055879	-0.233750	-0.560413	-0.832031	-0.158691	0.385498	0.115523	-0.009475	-0.020172	0.037220	-0.761725	0.113217	-0.636845	-132.806842	-74.106787	-53.413862
13693		11.384850	-0.513901	-1.273720	0.684920	-1.863545	1.481517	-0.285580	-0.081011	-0.499280	-0.827148	-0.167480	0.387939	0.113840	-0.005441	-0.012683	0.034562	-0.762315	0.112188	-0.636470	-133.791003	-74.286355	-52.561796
13694		9.171914	-0.218193	-1.616107	-0.029552	-1.579634	-0.631889	-0.332318	-0.200612	-0.502894	-0.831787	-0.165283	0.394531	0.091729	-0.002439	-0.016065	0.031176	-0.763330	0.111066	-0.635626	-135.185694	-74.463244	-51.351155
13695		8.683539	-0.925800	-2.473157	-0.829368	-0.659598	-0.798572	-0.370431	-0.225065	-0.497307	-0.829102	-0.180664	0.390625	0.086840	-0.009520	-0.024616	0.028280	-0.764375	0.110288	-0.634640	-136.469150	-74.572507	-50.240329
13696		9.254816	-0.783155	-2.754027	-0.995763	-0.823973	-0.211707	-0.502446	-0.173869	-0.484525	-0.828857	-0.187256	0.390625	0.092553	-0.008125	-0.027440	0.024294	-0.765298	0.109772	-0.633781	-137.946445	-74.737469	-49.045918
13697		9.449092	-1.495432	-2.263883	-0.359600	-0.164848	0.010248	-0.564085	-0.119714	-0.427963	-0.826660	-0.189209	0.397461	0.094472	-0.015220	-0.022540	0.020817	-0.765976	0.109884	-0.633066	-139.122768	-74.851618	-48.162584
13698		9.602302	-1.630522	-1.925461	0.045875	-0.041449	0.115362	-0.444996	-0.188296	-0.367897	-0.821533	-0.204590	0.397949	0.096011	-0.016524	-0.019128	0.017443	-0.766856	0.109621	-0.632148	-140.442045	-74.951991	-47.097246
13699		10.057291	-1.931630	-2.020677	0.106160	0.215820	0.623088	-0.356899	-0.148925	-0.324269	-0.819580	-0.202393	0.397705	0.100556	-0.019515	-0.020097	0.015103	-0.767533	0.109469	-0.631413	-141.395346	-75.006041	-46.322703
13700		10.335545	-2.071836	-2.571666	-0.356604	0.413207	1.023890	-0.120430	0.295833	-0.260672	-0.828125	-0.208984	0.400146	0.103290	-0.020869	-0.025857	0.013062	-0.766784	0.108629	-0.632512	-141.721001	-75.276146	-46.093105
13701		10.461076	-1.430626	-2.219016	-0.135744	-0.239606	0.972880	0.037138	0.699237	-0.262887	-0.821289	-0.217773	0.389404	0.104513	-0.014440	-0.022558	0.011964	-0.764708	0.107525	-0.635230	-141.202491	-75.686580	-46.607514
13702		10.217224	-1.174871	-2.765009	-0.833167	-0.337045	0.799030	0.342423	0.965513	-0.157291	-0.832520	-0.213623	0.386963	0.102028	-0.011781	-0.028163	0.011679	-0.761732	0.105644	-0.639114	-140.101727	-76.215873	-47.573240
13703		9.211089	-1.589618	-2.696969	-0.968618	0.263308	-0.136103	0.303077	0.995550	-0.202306	-0.834473	-0.220215	0.382813	0.091959	-0.015948	-0.027452	0.011631	-0.758629	0.103937	-0.643074	-138.764588	-76.727990	-48.770709
13704		8.155034	-2.112824	-2.688659	-1.124429	0.988235	-1.097403	0.345875	0.675178	-0.172293	-0.836670	-0.220215	0.382813	0.081441	-0.021152	-0.027198	0.011487	-0.756566	0.101945	-0.645820	-138.004369	-77.127616	-49.376888
13705		8.988264	-1.550143	-2.389782	-0.844009	0.277087	-0.425804	0.426648	0.434288	-0.172458	-0.832275	-0.220215	0.380615	0.089817	-0.015528	-0.024126	0.012291	-0.755223	0.099914	-0.647692	-137.355260	-77.381694	-49.792578
13706		9.266166	-1.261961	-1.898984	-0.400769	-0.082750	-0.278909	0.402292	0.319764	-0.158551	-0.829834	-0.226807	0.378418	0.092621	-0.012655	-0.019163	0.012617	-0.754292	0.097753	-0.649099	-137.095720	-77.621569	-49.847354
13707		9.433798	-0.505642	-1.423097	-0.037697	-0.889495	-0.300341	0.316202	0.229197	-0.162456	-0.832031	-0.229004	0.376221	0.094317	-0.005110	-0.014347	0.013139	-0.753605	0.096103	-0.650132	-136.829099	-77.784762	-49.935640
13708		9.606091	-0.288122	-0.993118	0.364456	-1.149224	-0.226620	0.195299	0.148829	-0.194543	-0.822998	-0.231201	0.378662	0.096051	-0.002965	-0.010006	0.012662	-0.753255	0.094460	-0.650788	-137.061869	-77.966352	-49.606583
13709		9.493901	-0.889780	-0.873047	0.532949	-0.532918	-0.267008	0.114977	0.089696	-0.215864	-0.827148	-0.237793	0.380859	0.094925	-0.008995	-0.008778	0.012318	-0.753056	0.093253	-0.651198	-137.273364	-78.091882	-49.323894
13710		9.214726	-1.993173	-1.142409	0.365482	0.653833	-0.345486	0.106471	0.007490	-0.235935	-0.827148	-0.239990	0.378906	0.092123	-0.020034	-0.011438	0.011436	-0.753184	0.091741	-0.651281	-137.916318	-78.228919	-48.628643
13711		9.412590	-1.409076	-1.375908	0.094865	0.095645	-0.197217	0.074443	-0.087262	-0.251153	-0.829346	-0.246582	0.385498	0.094114	-0.014204	-0.013723	0.010906	-0.753577	0.090521	-0.651006	-138.565774	-78.291244	-47.922613
13712		9.703350	-2.142137	-1.387450	0.228021	0.810124	0.185331	-0.119962	-0.127283	-0.292471	-0.829102	-0.253174	0.385742	0.097011	-0.021572	-0.013800	0.009061	-0.754175	0.089530	-0.650479	-139.724542	-78.386259	-46.832955
13713		9.456884	-1.437757	-1.438986	0.077345	0.188743	-0.141661	-0.215563	-0.183017	-0.307077	-0.819824	-0.259521	0.388184	0.094560	-0.014538	-0.014288	0.007297	-0.754915	0.089037	-0.649710	-140.850721	-78.421759	-45.810278
13714		9.577024	-1.043215	-1.449465	0.061723	-0.173030	-0.072322	-0.293551	-0.212746	-0.348258	-0.817383	-0.268311	0.390625	0.095767	-0.010620	-0.014377	0.004668	-0.755811	0.088401	-0.648778	-142.403774	-78.487795	-44.419406
13715		9.365248	-1.050031	-1.833358	-0.314211	-0.058685	-0.217415	-0.400151	-0.252679	-0.358626	-0.814941	-0.272705	0.388428	0.093656	-0.010705	-0.018194	0.002069	-0.756794	0.088309	-0.647657	-143.885231	-78.498855	-43.142441
13716		9.504254	-0.907834	-1.982316	-0.421971	-0.150591	-0.071867	-0.530056	-0.284180	-0.390237	-0.807861	-0.285645	0.393311	0.095053	-0.009316	-0.019664	-0.001549	-0.757927	0.088277	-0.646337	-145.805353	-78.529154	-41.514697
13717		9.498485	-1.334352	-1.990945	-0.332579	0.314319	-0.027195	-0.566433	-0.318611	-0.378514	-0.803223	-0.292480	0.386963	0.094991	-0.013579	-0.019720	-0.004813	-0.759113	0.088646	-0.644877	-147.534816	-78.499290	-40.081990
13718		9.945120	-1.496775	-2.084960	-0.287703	0.482114	0.442909	-0.583842	-0.296531	-0.380750	-0.800781	-0.305420	0.393799	0.099453	-0.015218	-0.020658	-0.008584	-0.760256	0.088817	-0.643466	-149.480455	-78.499443	-38.458068
13719		9.979343	-1.278980	-2.244689	-0.426422	0.330179	0.481511	-0.586984	-0.284500	-0.388410	-0.795898	-0.312012	0.391846	0.099800	-0.013049	-0.022267	-0.011974	-0.761312	0.089212	-0.642107	-151.182970	-78.471268	-37.064750
13720		9.973673	-1.198348	-2.325800	-0.475597	0.320899	0.482458	-0.544123	-0.255286	-0.425708	-0.791260	-0.318604	0.389648	0.099740	-0.012259	-0.023098	-0.015738	-0.762320	0.089076	-0.640847	-153.151066	-78.483107	-35.392882
13721		9.730268	-1.242665	-2.477668	-0.618623	0.465283	0.275011	-0.501992	-0.216980	-0.451225	-0.784180	-0.331787	0.392334	0.097301	-0.012708	-0.024639	-0.019037	-0.763171	0.088951	-0.639761	-154.869223	-78.487746	-33.933921
13722		9.880536	-1.289959	-2.606972	-0.675789	0.577206	0.448652	-0.461801	-0.189254	-0.481484	-0.779297	-0.344727	0.394775	0.098798	-0.013197	-0.025946	-0.022675	-0.763980	0.088324	-0.638764	-156.856829	-78.524924	-32.191937
13723		9.583230	-1.518607	-2.333596	-0.390790	0.848748	0.122942	-0.441606	-0.159320	-0.494618	-0.770508	-0.346924	0.388428	0.095813	-0.015474	-0.023226	-0.025908	-0.764651	0.087832	-0.637905	-158.597723	-78.550714	-30.674761
13724		9.758510	-0.971891	-2.170360	-0.263725	0.333198	0.222385	-0.376137	-0.141113	-0.522404	-0.767578	-0.366699	0.386719	0.097574	-0.010014	-0.021616	-0.029347	-0.765316	0.086760	-0.637105	-160.609799	-78.598374	-28.855681
13725		9.648449	-1.109932	-2.061688	-0.127994	0.519378	0.101374	-0.348480	-0.126657	-0.539842	-0.760742	-0.368896	0.388916	0.096467	-0.011396	-0.020536	-0.032382	-0.765897	0.085791	-0.636390	-162.405792	-78.630233	-27.228299
13726		9.534937	-0.629410	-2.038511	-0.181591	0.119949	-0.044422	-0.341684	-0.134186	-0.573248	-0.747070	-0.377441	0.393555	0.095344	-0.006602	-0.020310	-0.035838	-0.766547	0.084410	-0.635607	-164.549413	-78.665156	-25.253935
13727		9.710158	-0.879767	-1.727105	0.219945	0.362075	0.079947	-0.364998	-0.116412	-0.608503	-0.744629	-0.386230	0.393799	0.097084	-0.009125	-0.017198	-0.039159	-0.767102	0.083226	-0.634897	-166.554658	-78.689808	-23.423177
13728		9.555027	-1.342905	-2.551549	-0.496050	1.040821	0.101066	-0.321086	-0.114547	-0.668306	-0.737549	-0.397217	0.391846	0.095519	-0.013789	-0.025439	-0.042835	-0.767709	0.081412	-0.634161	-168.953028	-78.718167	-21.176661
13729		9.932724	-0.845721	-2.497591	-0.439906	0.590002	0.437682	-0.314830	-0.061384	-0.719531	-0.733154	-0.401855	0.383301	0.099304	-0.008854	-0.024932	-0.046338	-0.768122	0.079628	-0.633641	-171.231376	-78.756320	-19.038529
13730		9.626349	-1.228189	-2.578945	-0.483535	1.087235	0.157746	-0.305829	-0.021776	-0.775698	-0.719238	-0.414795	0.385742	0.096218	-0.012695	-0.025760	-0.050309	-0.768456	0.077322	-0.633219	-173.906762	-78.807710	-16.498800
13731		9.358071	-1.639296	-3.097948	-0.941592	1.680441	-0.007231	-0.280445	0.008983	-0.819802	-0.714355	-0.432373	0.386230	0.093511	-0.016820	-0.030960	-0.054024	-0.768665	0.075024	-0.632936	-176.465531	-78.853649	-14.055461
13732		9.775060	-0.771354	-2.894661	-0.809964	0.869362	0.341782	-0.308888	0.053700	-0.879619	-0.705322	-0.436523	0.390869	0.097708	-0.008188	-0.028960	-0.058330	-0.768769	0.072294	-0.632744	-179.463591	-78.902870	-11.185855
13733		10.039013	-0.661517	-2.741512	-0.621428	0.823592	0.563723	-0.327989	0.104775	-0.938889	-0.696045	-0.447510	0.384521	0.100343	-0.007131	-0.027456	-0.062638	-0.768670	0.069657	-0.632749	177.563392	-78.954800	-8.349016
13734		10.227442	-0.455729	-2.475314	-0.358591	0.683518	0.691530	-0.409262	0.167719	-0.985853	-0.693359	-0.460693	0.380371	0.102229	-0.005112	-0.024829	-0.067677	-0.768380	0.066786	-0.632891	174.141854	-79.004420	-5.104212
13735		10.251035	-0.385120	-2.122473	-0.023678	0.664104	0.641696	-0.520206	0.199852	-1.043367	-0.681885	-0.469482	0.374023	0.102467	-0.004441	-0.021316	-0.073083	-0.767904	0.064320	-0.633123	170.678897	-79.039102	-1.881405
13736		9.969594	-0.985169	-2.029353	0.132560	1.365007	0.316457	-0.548086	0.223684	-1.090479	-0.672363	-0.487061	0.367920	0.099617	-0.010451	-0.020377	-0.078982	-0.767366	0.061458	-0.633351	166.824699	-79.031803	1.724285
13737		9.691096	-1.193188	-2.755184	-0.571895	1.837075	0.148676	-0.553832	0.199935	-1.162570	-0.656494	-0.500244	0.368164	0.096812	-0.012571	-0.027614	-0.084889	-0.766852	0.058636	-0.633477	163.012663	-78.968390	5.283288
13738		10.077115	-0.566630	-2.738788	-0.596349	1.370174	0.537943	-0.553378	0.220908	-1.255486	-0.651611	-0.509033	0.364014	0.100702	-0.006375	-0.027482	-0.091296	-0.766299	0.055150	-0.633568	158.793992	-78.835682	9.261503
13739		9.832157	-0.764132	-2.919281	-0.770206	1.738435	0.294747	-0.543212	0.250174	-1.316802	-0.637939	-0.522217	0.351074	0.098231	-0.008368	-0.029294	-0.097657	-0.765599	0.051675	-0.633760	154.681317	-78.667743	13.136240
13740		10.315801	0.313877	-3.035176	-1.006513	0.897339	0.859984	-0.564187	0.384372	-1.411337	-0.633057	-0.535400	0.355957	0.103118	0.002325	-0.030557	-0.104599	-0.764478	0.047529	-0.634329	150.115937	-78.465363	17.470410
13741		10.071261	-0.575877	-2.785993	-0.644973	1.864063	0.464979	-0.587623	0.543790	-1.477124	-0.616943	-0.548340	0.349609	0.100590	-0.006584	-0.028115	-0.111697	-0.762767	0.043425	-0.635472	145.463289	-78.275222	21.875633
13742		10.838185	-1.344629	-2.000968	0.392379	2.679785	0.954843	-0.689155	0.636546	-1.578582	-0.609619	-0.568359	0.334717	0.108207	-0.014370	-0.020306	-0.119655	-0.760702	0.038879	-0.636791	140.428297	-77.992761	26.627624
13743		11.803093	-1.144914	-0.757706	1.696260	2.492376	1.680991	-0.660735	0.660862	-1.722462	-0.593750	-0.577148	0.328369	0.117901	-0.012491	-0.007927	-0.127816	-0.758497	0.033998	-0.638114	135.460538	-77.609029	31.321563
13744		11.430046	-2.485361	-0.927680	1.733468	4.010512	1.077210	-0.659317	0.609293	-1.892238	-0.575439	-0.594727	0.322266	0.114030	-0.025964	-0.009540	-0.136617	-0.756434	0.028201	-0.639022	130.545181	-77.023036	35.982739
13745		13.060087	-2.258888	-0.930552	1.964675	4.261968	2.617220	-0.600852	0.632378	-2.149296	-0.568359	-0.607666	0.320313	0.130318	-0.024019	-0.009647	-0.145879	-0.754250	0.021522	-0.639815	125.773154	-76.273658	40.532135
13746		17.223660	-3.221685	-2.667419	1.241785	6.615212	6.583316	-0.408880	0.703319	-2.409998	-0.545654	-0.618652	0.309570	0.171736	-0.034344	-0.027210	-0.155348	-0.751909	0.012937	-0.640572	121.127376	-75.312608	45.090766
13747		17.253531	-3.036951	-2.596264	1.248208	6.861325	6.465903	-0.413199	0.733771	-2.614157	-0.529541	-0.636230	0.307861	0.172022	-0.032675	-0.026528	-0.165349	-0.749330	0.003825	-0.641210	116.860708	-74.200496	49.266154
13748		17.373240	-3.129728	-3.062543	0.821726	7.566265	6.406325	-0.503832	0.735120	-2.855065	-0.511230	-0.651611	0.301758	0.173147	-0.033850	-0.031179	-0.176493	-0.746531	-0.006119	-0.641486	112.910988	-72.865992	53.093323
13749		18.185580	-4.863624	-3.023552	1.370141	9.883640	6.432811	-0.622548	0.739836	-3.125489	-0.485840	-0.671387	0.286865	0.180952	-0.051564	-0.030749	-0.188838	-0.743405	-0.016477	-0.641418	109.320364	-71.341907	56.490083
13750		19.377003	-5.337682	-3.954685	0.804851	11.448951	7.152873	-0.726145	0.615746	-3.343661	-0.469971	-0.686523	0.285156	0.192717	-0.056749	-0.039939	-0.202225	-0.740360	-0.027377	-0.640486	106.291795	-69.604273	59.274973
13751		20.512363	-5.138049	-3.493014	1.461455	12.104877	7.812328	-0.940377	0.522645	-3.578169	-0.440430	-0.699707	0.270020	0.204067	-0.055203	-0.035211	-0.217100	-0.737107	-0.038171	-0.638814	103.650144	-67.694785	61.531162
13752		18.273797	-6.300527	-2.922651	1.945836	12.862935	4.777715	-1.204832	0.501299	-3.768156	-0.417480	-0.717285	0.261719	0.181432	-0.066608	-0.029288	-0.233395	-0.733342	-0.048931	-0.636665	101.234404	-65.636365	63.428649
13753		16.700974	-4.246749	-1.932531	2.230914	10.728581	3.625101	-1.262940	0.548502	-3.785867	-0.394531	-0.739258	0.251221	0.166111	-0.045740	-0.019500	-0.249937	-0.729037	-0.059458	-0.634430	99.049705	-63.550127	65.044549
13754		16.344561	-3.866296	-2.061178	2.021554	10.791704	3.062109	-1.465503	0.698679	-3.560500	-0.369873	-0.748047	0.236084	0.162648	-0.041716	-0.020883	-0.266211	-0.723808	-0.068775	-0.632853	96.910527	-61.583567	66.529128
13755		14.598969	-3.912441	-2.490960	1.339641	10.637130	1.126811	-1.595286	0.893542	-3.387003	-0.362549	-0.763428	0.227783	0.145185	-0.041788	-0.025233	-0.282385	-0.717547	-0.077197	-0.632001	94.736994	-59.698533	67.972626
13756		14.626182	-2.515571	-2.835273	0.697036	9.994701	1.496097	-1.580702	0.929295	-3.194565	-0.337646	-0.776611	0.210449	0.145700	-0.027713	-0.028818	-0.297579	-0.711055	-0.085037	-0.631361	92.768869	-57.914235	69.237477
13757		14.683023	-1.298065	-2.268920	0.942404	9.252223	1.845453	-1.529419	0.947655	-2.984441	-0.319580	-0.783203	0.195068	0.146504	-0.015345	-0.023273	-0.312030	-0.704398	-0.092252	-0.630833	90.965915	-56.216491	70.340034
13758		14.139672	0.450926	-1.884908	0.725232	7.845029	2.086835	-1.451854	1.028149	-2.861401	-0.310303	-0.796387	0.184570	0.141341	0.002346	-0.019598	-0.325423	-0.697518	-0.099386	-0.630628	89.289685	-54.593578	71.393119
13759		15.788404	2.229512	-2.114713	0.294906	7.863284	4.215087	-1.286373	0.970995	-2.677081	-0.292236	-0.800781	0.173584	0.158057	0.020040	-0.022048	-0.337868	-0.690934	-0.106269	-0.630208	87.842617	-53.039912	72.271297
13760		15.551110	1.693669	-3.794412	-1.213645	9.080799	3.421815	-1.207437	0.816318	-2.468752	-0.289795	-0.807617	0.160400	0.155546	0.014785	-0.038673	-0.349074	-0.685003	-0.112384	-0.629514	86.649502	-51.626184	72.936101
13761		11.984084	-1.012097	-6.168855	-3.329296	10.033248	-1.390184	-0.887641	0.695808	-2.086514	-0.278564	-0.805420	0.151611	0.119509	-0.011644	-0.062055	-0.358306	-0.680029	-0.117977	-0.628697	85.745770	-50.400581	73.443003
13762		8.588476	-3.480256	-6.354864	-3.412698	9.922141	-5.792767	-0.242002	0.594776	-1.743506	-0.271484	-0.816406	0.147461	0.085387	-0.035625	-0.063760	-0.363853	-0.676755	-0.124266	-0.627831	85.317170	-49.406566	73.870047
13763		5.504945	-4.778985	-5.988039	-3.261964	8.823740	-9.105669	0.116131	0.263105	-1.431805	-0.269287	-0.818604	0.156494	0.054627	-0.048147	-0.059980	-0.367821	-0.675218	-0.129984	-0.626014	85.286795	-48.570370	73.997045
13764		5.216568	0.008574	-3.024782	-1.900018	4.331601	-6.072503	0.707429	0.186552	-1.192763	-0.271484	-0.818604	0.151855	0.052137	-0.000118	-0.030297	-0.368514	-0.675249	-0.136691	-0.624141	85.660837	-47.915392	74.107812
13765		6.701359	7.465774	-2.660684	-3.290416	0.063916	0.030744	0.768692	-0.158091	-1.053501	-0.271240	-0.827148	0.161133	0.067427	0.074405	-0.026267	-0.369345	-0.676409	-0.142385	-0.621113	86.245515	-47.313523	73.911082
13766		10.413113	7.331279	-4.803620	-4.465884	3.344086	2.602038	0.568779	-0.554506	-1.264563	-0.266846	-0.827148	0.167725	0.104725	0.072788	-0.047539	-0.371155	-0.678367	-0.147585	-0.616669	86.987996	-46.644078	73.422459
13767		9.539512	-0.215218	-1.976186	0.051605	7.072694	-3.109844	0.892729	0.132092	-0.577926	-0.269043	-0.824951	0.169922	0.095375	-0.002339	-0.019835	-0.369843	-0.679165	-0.152573	-0.615363	87.435360	-46.303600	73.509461
13768		4.773362	-3.559537	-0.774005	1.059456	5.828196	-8.830881	0.954128	0.015177	0.147747	-0.282715	-0.818359	0.180664	0.047759	-0.035523	-0.007913	-0.365478	-0.681095	-0.155262	-0.615166	88.004133	-46.425852	73.572779
13769		3.525614	-2.901944	-0.725715	0.677043	4.540544	-9.262349	0.957157	-0.215043	0.434713	-0.289307	-0.820557	0.185059	0.035327	-0.028908	-0.007358	-0.361081	-0.683818	-0.156362	-0.614462	88.673354	-46.672426	73.404942
13770		2.869019	-0.214585	-0.246624	0.375410	2.099833	-7.866444	1.137216	-0.336553	0.674198	-0.307373	-0.816162	0.196045	0.028701	-0.002035	-0.002430	-0.354704	-0.687526	-0.157145	-0.613840	89.560002	-47.103205	73.175851
13771		3.245662	3.233553	-0.607468	-0.629843	0.002185	-5.234257	1.267995	-0.514971	0.971441	-0.316406	-0.815918	0.204834	0.032314	0.032530	-0.005786	-0.347792	-0.692080	-0.156810	-0.612762	90.606303	-47.653520	72.739890
13772		3.895629	5.086723	-0.517854	-0.759471	-1.005044	-3.509432	0.907271	-0.475458	1.255988	-0.330078	-0.807373	0.202393	0.038648	0.051133	-0.004855	-0.340490	-0.696180	-0.154622	-0.612773	91.480467	-48.409403	72.355880
13773		3.574150	5.051760	-0.747898	-1.012997	-1.215633	-3.783644	0.487312	-0.402549	1.548424	-0.350098	-0.802979	0.210938	0.035364	0.050810	-0.007284	-0.334385	-0.699402	-0.150066	-0.613598	92.052865	-49.283320	71.965185
13774		2.951397	3.313132	-0.422652	-0.474225	-0.518683	-5.411357	0.241087	-0.377208	1.857716	-0.364014	-0.789795	0.215088	0.029212	0.033409	-0.004131	-0.327435	-0.702427	-0.143902	-0.615366	92.536437	-50.377400	71.606057
13775		2.797177	1.791178	-0.098450	0.105866	0.351122	-6.510072	0.181473	-0.414221	2.176036	-0.393066	-0.785645	0.212646	0.027777	0.018216	-0.000910	-0.320416	-0.705508	-0.136162	-0.617294	93.005488	-51.605623	71.135008
13776		3.233511	1.316058	0.511347	0.867113	0.713642	-6.467951	0.126810	-0.425809	2.479764	-0.422607	-0.770508	0.214355	0.032158	0.013557	0.005191	-0.311909	-0.708763	-0.127346	-0.619800	93.540510	-53.048188	70.641751
13777		3.525534	1.237317	0.881940	1.286191	0.742183	-6.272613	0.022128	-0.439068	2.732477	-0.438232	-0.764160	0.209717	0.035062	0.012852	0.008898	-0.303648	-0.711819	-0.117065	-0.622421	94.035676	-54.588230	70.042845
13778		3.570092	1.143469	1.035113	1.447660	0.691319	-6.270111	-0.026234	-0.448377	2.917440	-0.465332	-0.753418	0.209473	0.035506	0.011955	0.010429	-0.294242	-0.714914	-0.106111	-0.625348	94.620043	-56.273369	69.399280
13779		3.592112	1.303051	0.967145	1.337028	0.481145	-6.136247	-0.027222	-0.504741	3.090970	-0.494873	-0.733643	0.208740	0.035689	0.013585	0.009760	-0.284942	-0.717995	-0.094252	-0.628019	95.284841	-58.007402	68.588256
13780		3.653525	1.563401	0.594598	0.918933	0.278902	-5.911112	0.000298	-0.607154	3.290702	-0.519775	-0.720703	0.212891	0.036253	0.016232	0.006056	-0.274233	-0.721464	-0.081730	-0.630560	96.222324	-59.885736	67.570922
13781		3.742468	1.512777	0.467151	0.809918	0.263102	-5.839541	0.064534	-0.671771	3.462319	-0.549561	-0.696777	0.216553	0.037139	0.015771	0.004802	-0.263352	-0.724965	-0.068541	-0.632751	97.362305	-61.804855	66.307030
13782		4.043733	1.505162	0.261764	0.658725	0.307631	-5.551805	0.120379	-0.773649	3.622646	-0.574707	-0.679199	0.218262	0.040145	0.015779	0.002783	-0.251075	-0.728802	-0.054908	-0.634660	98.914421	-63.832939	64.711159
13783		4.371412	1.571841	0.141296	0.576789	0.246705	-5.207951	0.187352	-0.869020	3.799426	-0.602295	-0.655273	0.226318	0.043398	0.016543	0.001617	-0.238562	-0.732693	-0.040586	-0.636083	100.860177	-65.887164	62.679748
13784		4.709438	1.241085	0.220404	0.783603	0.445907	-5.021914	0.181929	-0.906925	3.982586	-0.627441	-0.629150	0.221191	0.046824	0.013343	0.002429	-0.224781	-0.736565	-0.025617	-0.637408	103.355598	-68.043631	60.148743
13785		5.026977	1.039908	0.218991	0.877814	0.523639	-4.777694	0.215067	-0.918816	4.133339	-0.652832	-0.604980	0.235840	0.050030	0.011432	0.002432	-0.210919	-0.740095	-0.010072	-0.638492	106.401939	-70.193097	57.019845
13786		5.388242	1.015775	0.485443	1.187244	0.339088	-4.448797	0.241104	-0.906943	4.261070	-0.678223	-0.574219	0.243896	0.053627	0.011296	0.005111	-0.195855	-0.743397	0.005772	-0.639506	110.363986	-72.378126	53.045481
13787		5.754291	1.113632	0.701880	1.411304	0.023649	-4.081494	0.228615	-0.858853	4.404593	-0.708252	-0.545898	0.245361	0.057248	0.012391	0.007279	-0.180883	-0.746050	0.022222	-0.640466	115.308945	-74.510373	48.023538
13788		6.121365	1.240159	0.674048	1.386919	-0.290902	-3.693184	0.271675	-0.806760	4.561677	-0.731689	-0.504150	0.257568	0.060882	0.013783	0.007005	-0.164590	-0.748281	0.039011	-0.641454	122.052205	-76.610395	41.278357
13789		6.666343	1.535825	0.830841	1.510553	-0.835366	-3.141791	0.300048	-0.758115	4.674569	-0.752930	-0.469238	0.260986	0.066248	0.016897	0.008585	-0.148316	-0.749837	0.056121	-0.642338	131.028229	-78.505553	32.263745
13790		8.008565	1.740760	0.793332	1.598144	-1.235715	-1.831300	0.328858	-0.837606	4.777555	-0.774170	-0.434326	0.262207	0.079605	0.019300	0.008298	-0.130967	-0.751307	0.073533	-0.642633	143.797788	-80.027622	19.509973
13791		9.952749	1.669379	0.792890	1.881691	-1.495082	0.019709	0.368132	-0.928502	4.854168	-0.797607	-0.394775	0.274414	0.099045	0.019087	0.008423	-0.113640	-0.752518	0.091141	-0.642258	160.114163	-80.872081	3.180828
13792		11.429835	1.510700	0.730676	2.044296	-1.843576	1.405710	0.530181	-0.919168	4.852816	-0.807861	-0.348633	0.281982	0.113852	0.017853	0.007876	-0.095165	-0.753409	0.108182	-0.641572	178.345293	-80.867172	-14.932569
13793		12.592852	2.169640	0.139293	1.408928	-2.936027	2.543245	0.801312	-0.835887	4.780767	-0.833740	-0.309082	0.294189	0.125355	0.024690	0.002013	-0.076365	-0.753661	0.123957	-0.640935	-165.284924	-80.072848	-31.063350
13794		13.920018	2.675215	-0.627083	0.664772	-3.961119	3.794169	1.054723	-0.765985	4.628466	-0.833008	-0.265137	0.302002	0.138553	0.029994	-0.005587	-0.056678	-0.753491	0.138302	-0.640244	-152.181364	-78.670223	-43.746377
13795		15.492288	3.544256	-1.574635	-0.318307	-5.420513	5.204785	1.386209	-0.776593	4.354010	-0.845215	-0.225586	0.309814	0.154160	0.038910	-0.014885	-0.037000	-0.753161	0.150423	-0.639337	-142.766644	-76.951493	-52.564622
13796		15.773733	4.781644	-2.271439	-1.304042	-7.157426	5.149277	1.684314	-0.866014	4.044022	-0.855225	-0.190430	0.324463	0.156820	0.051179	-0.021612	-0.016741	-0.753054	0.160416	-0.637883	-135.974332	-75.037063	-58.542520
13797		14.881780	4.931083	-2.637676	-1.789255	-7.638663	4.013116	1.927774	-0.917088	3.710762	-0.861084	-0.150635	0.336670	0.147983	0.052308	-0.025202	0.003059	-0.752998	0.168253	-0.636141	-131.080722	-73.136160	-62.482631
13798		14.528843	5.326598	-2.657240	-1.878714	-8.473970	3.269794	2.225403	-0.959514	3.313635	-0.864502	-0.115479	0.351318	0.144500	0.055951	-0.025265	0.023062	-0.753111	0.173587	-0.634161	-127.361564	-71.294607	-65.023630
13799		14.738571	6.807288	-2.816337	-2.224383	-10.384082	2.784508	2.236558	-0.950245	2.929818	-0.863281	-0.082275	0.359131	0.146494	0.070527	-0.026686	0.041562	-0.753193	0.177360	-0.632073	-124.552647	-69.619876	-66.645019
13800		14.103392	9.834895	-3.349909	-3.304989	-13.344015	1.042669	1.976465	-0.866735	2.600607	-0.861816	-0.055908	0.367432	0.139877	0.100493	-0.031905	0.058209	-0.753154	0.180641	-0.629873	-122.359221	-68.087097	-67.758619
13801		13.649361	11.820003	-3.484741	-3.725270	-15.342323	-0.385427	1.630792	-0.554452	2.329833	-0.862793	-0.029541	0.375488	0.135196	0.120057	-0.033497	0.072151	-0.752249	0.184073	-0.628516	-120.410547	-66.786071	-68.857723
13802		13.929839	12.929323	-3.418836	-3.713943	-16.730870	-0.915232	1.058246	-0.155077	2.035853	-0.856689	-0.007568	0.370605	0.137998	0.130880	-0.033391	0.082818	-0.750499	0.188202	-0.628070	-118.681822	-65.721732	-70.061059
13803		14.099457	14.219680	-3.628265	-4.109796	-18.128500	-1.529231	0.295694	-0.029950	1.654968	-0.863770	0.005615	0.372559	0.139817	0.143410	-0.036050	0.089119	-0.748895	0.193439	-0.627532	-117.578399	-64.881535	-71.089935
13804		13.230389	14.582689	-3.305163	-4.046688	-18.237655	-2.767855	-0.367371	0.161914	1.167187	-0.861572	0.010010	0.367920	0.131423	0.146534	-0.033427	0.091314	-0.747502	0.198820	-0.627195	-116.993563	-64.335863	-71.949746
13805		12.496311	14.571738	-2.525520	-3.534453	-18.031574	-3.710352	-0.969875	0.165152	0.591037	-0.861572	0.005615	0.374756	0.124511	0.145961	-0.026066	0.089346	-0.746835	0.204117	-0.626571	-117.061230	-64.081395	-72.492644
13806		13.102076	14.366874	-0.827404	-1.969645	-18.279289	-3.430004	-1.580756	0.227544	0.078147	-0.868164	0.005371	0.368164	0.130954	0.143648	-0.009558	0.083433	-0.746842	0.209179	-0.625708	-117.722870	-64.119288	-72.746192
13807		13.604924	13.628648	0.909717	-0.337010	-18.014744	-2.956431	-1.936429	0.384132	-0.412342	-0.867676	-0.010010	0.366211	0.136345	0.136083	0.007517	0.074475	-0.746849	0.213821	-0.625260	-118.666516	-64.435671	-72.931163
13808		12.382227	9.182674	-3.688391	-4.118187	-12.684088	-1.245728	-1.927991	-0.044500	-1.103522	-0.867188	-0.029541	0.368896	0.124333	0.090781	-0.037735	0.063733	-0.748948	0.215405	-0.623391	-120.525062	-65.001292	-72.088525
13809		6.350830	-10.918170	-10.416607	-6.426920	9.123808	2.166090	-1.085330	-0.907431	-0.827044	-0.855713	-0.040283	0.382568	0.063524	-0.110006	-0.103282	0.058035	-0.752996	0.215368	-0.619068	-122.639543	-65.136786	-70.443423
13810		11.580053	-41.717837	-6.171653	6.443149	34.017404	16.905284	-0.789510	-0.495021	0.479195	-0.864502	-0.040527	0.382568	0.116950	-0.417138	-0.059781	0.057003	-0.754376	0.219104	-0.616167	-123.336145	-64.777962	-70.154474
13811		27.034719	-25.691878	14.579191	24.506332	9.461886	20.410011	-1.073802	1.042862	-0.130170	-0.862305	-0.042725	0.369385	0.270940	-0.256312	0.145757	0.051377	-0.751599	0.222185	-0.618945	-122.973397	-65.171276	-71.234679
13812		27.933144	-0.213504	-1.537578	2.342990	-10.303224	16.090760	0.619096	0.773953	-2.242314	-0.864014	-0.060303	0.374023	0.279222	-0.005216	-0.016469	0.045777	-0.751495	0.211952	-0.623087	-123.376909	-66.503923	-70.409281
13813		15.074429	9.529313	-8.152670	-8.074495	-12.673794	2.783684	2.456550	-0.408238	-3.009020	-0.852295	-0.079834	0.374756	0.152329	0.093999	-0.080057	0.046025	-0.755257	0.192832	-0.624727	-124.728145	-67.805807	-67.416783
13814		18.288487	8.336292	-0.772187	0.092029	-13.716808	4.896742	0.134749	-0.458069	-3.054846	-0.855957	-0.106201	0.375244	0.184147	0.080562	-0.007246	0.037272	-0.759540	0.180625	-0.623766	-127.844003	-69.081036	-63.988996
13815		10.648134	1.819207	1.007469	2.212690	-5.160908	-0.529922	-1.459283	0.583055	-2.589514	-0.850586	-0.132568	0.371582	0.106734	0.016883	0.009637	0.023091	-0.760252	0.175403	-0.625074	-130.529755	-70.446125	-62.018758
13816		-0.584216	-1.124007	-1.540766	-1.302709	1.509379	-9.754962	-0.227363	0.001303	-2.056476	-0.845703	-0.145752	0.378662	-0.005958	-0.011197	-0.015395	0.015575	-0.762045	0.168185	-0.625106	-132.971874	-71.348229	-59.584661
13817		6.048026	5.753553	-4.767956	-4.877997	-6.194319	-4.312942	0.739928	-0.994700	-2.024100	-0.838623	-0.160889	0.387939	0.061295	0.057093	-0.047164	0.012871	-0.766751	0.158043	-0.622052	-136.219258	-71.777724	-55.715719
13818		13.709048	4.802902	-6.439013	-4.764379	-6.867675	3.700121	0.077567	-0.550023	-1.782443	-0.831299	-0.182861	0.390625	0.137688	0.046829	-0.063994	0.007872	-0.769858	0.150782	-0.620099	-139.218387	-72.251040	-52.522245
13819		14.374709	1.085941	-3.854470	-1.271672	-3.734179	4.578394	-0.400756	0.411298	-1.349325	-0.828857	-0.189453	0.379639	0.143736	0.009812	-0.038861	0.001803	-0.769600	0.146814	-0.621416	-140.867986	-72.931512	-51.035011
13820		11.386837	2.239168	-0.947860	0.688373	-4.492009	0.907302	-0.717413	0.334235	-1.269120	-0.828369	-0.204834	0.377930	0.113991	0.021634	-0.009748	-0.005319	-0.769515	0.143973	-0.622166	-142.864185	-73.549214	-49.381775
13821		11.188805	2.404024	-2.620880	-1.002431	-4.136863	1.128822	-0.871092	0.400217	-1.237035	-0.827637	-0.222412	0.376221	0.111981	0.023233	-0.026535	-0.012840	-0.769119	0.141880	-0.623026	-144.888192	-74.155391	-47.795150
13822		9.198953	-1.020414	-1.494194	0.494511	-0.529649	-0.465574	-0.259828	0.403081	-1.070181	-0.827393	-0.233398	0.369873	0.091903	-0.010716	-0.015114	-0.017644	-0.768622	0.138367	-0.624311	-146.476452	-74.709279	-46.304758
13823		9.808233	-0.750806	-1.492803	0.542177	-0.795346	0.090143	-0.000394	0.156309	-1.108972	-0.824951	-0.239990	0.372070	0.098027	-0.008052	-0.015005	-0.021248	-0.768894	0.134062	-0.624803	-148.300234	-75.130054	-44.417068
13824		10.642696	0.314160	-1.855571	0.108240	-1.784582	0.846176	0.154420	0.206578	-1.033189	-0.826904	-0.250977	0.374756	0.106422	0.002606	-0.018663	-0.024205	-0.768969	0.129423	-0.625580	-150.015517	-75.550628	-42.557532
13825		9.966119	-0.923719	-0.983454	1.084403	-0.548146	0.170635	0.154025	0.558393	-0.834287	-0.819824	-0.259766	0.363770	0.099594	-0.009645	-0.010120	-0.026617	-0.767776	0.125635	-0.627716	-150.967240	-76.067167	-41.485722
13826		9.829917	-1.722222	0.128868	2.254922	0.120253	-0.091074	0.315864	0.775577	-0.746555	-0.819824	-0.261963	0.361572	0.098238	-0.017591	0.000880	-0.028420	-0.765857	0.121529	-0.630782	-151.549063	-76.676742	-40.706990
13827		9.750998	-1.331598	-2.256254	-0.209799	0.300202	0.277440	0.725049	0.895290	-0.589648	-0.821533	-0.273193	0.357422	0.097368	-0.013520	-0.023047	-0.028081	-0.763483	0.116825	-0.634553	-151.377482	-77.291368	-40.457607
13828		9.384572	-1.627859	-2.136703	-0.180173	0.687317	-0.077200	0.850407	0.873292	-0.701508	-0.821533	-0.277588	0.353271	0.093693	-0.016515	-0.021846	-0.027754	-0.761233	0.111201	-0.638269	-151.508305	-77.936475	-39.832168
13829		9.489335	0.967050	-3.010958	-1.602657	-1.632100	-0.075341	0.574942	0.573761	-0.615918	-0.823486	-0.284180	0.351074	0.094836	0.009465	-0.030354	-0.027885	-0.759818	0.106911	-0.640678	-151.941136	-78.395760	-39.054264
13830		10.257657	2.019744	-2.901437	-1.622518	-2.715667	0.565626	0.090247	0.473341	-0.557048	-0.821045	-0.290771	0.351318	0.102563	0.019925	-0.029248	-0.029746	-0.758621	0.104311	-0.642440	-152.773471	-78.796119	-38.157637
13831		9.309089	-0.785465	-2.591739	-0.945326	0.138797	-0.164887	-0.111532	0.344577	-0.440823	-0.812012	-0.295166	0.335938	0.093028	-0.008074	-0.026073	-0.031800	-0.757728	0.102916	-0.643619	-153.558848	-79.088803	-37.423414
13832		9.460767	-0.852405	-1.962851	-0.318961	0.122391	-0.118946	-0.095348	0.246032	-0.367262	-0.818604	-0.297363	0.342773	0.094568	-0.008707	-0.019741	-0.033621	-0.757125	0.101653	-0.644436	-154.393163	-79.318503	-36.632654
13833		9.848592	-0.682461	-1.867416	-0.216316	-0.063733	0.232051	-0.161279	0.204783	-0.319642	-0.811768	-0.306152	0.340820	0.098456	-0.006997	-0.018769	-0.035401	-0.756603	0.100898	-0.645073	-155.129980	-79.505113	-35.977982
13834		9.821892	-0.792040	-1.917498	-0.257450	0.096250	0.222153	-0.186505	0.177608	-0.303239	-0.815918	-0.310547	0.340820	0.098190	-0.008087	-0.019255	-0.037315	-0.756165	0.100186	-0.645588	-155.981062	-79.679177	-35.223627
13835		9.667699	-0.777920	-1.625816	-0.009653	0.082026	0.021228	-0.237900	0.186256	-0.320731	-0.813477	-0.321777	0.332275	0.096649	-0.007954	-0.016339	-0.039379	-0.755682	0.099676	-0.646111	-156.840909	-79.852785	-34.489296
13836		9.650413	-1.077841	-1.835633	-0.163443	0.458870	0.057690	-0.241573	0.191463	-0.342089	-0.808838	-0.326172	0.327881	0.096468	-0.010966	-0.018436	-0.041625	-0.755200	0.098996	-0.646637	-157.873454	-80.037945	-33.583101
13837		9.718697	-1.662388	-1.691963	0.095388	1.038160	0.136800	-0.305012	0.223530	-0.348701	-0.815186	-0.332764	0.325928	0.097139	-0.016819	-0.017003	-0.044050	-0.754587	0.098589	-0.647254	-158.873723	-80.232756	-32.746115
13838		9.617853	-1.345161	-1.634843	0.061690	0.771905	0.004922	-0.281163	0.223563	-0.352410	-0.808105	-0.345947	0.317383	0.096136	-0.013644	-0.016437	-0.046483	-0.753988	0.097994	-0.647872	-159.991453	-80.430917	-31.776968
13839		9.764343	-0.932226	-1.741677	-0.117533	0.420369	0.139910	-0.263081	0.221062	-0.360707	-0.803467	-0.356934	0.322021	0.097607	-0.009521	-0.017512	-0.048788	-0.753389	0.097405	-0.648489	-161.087741	-80.621141	-30.819254
13840		9.915981	0.061917	-1.790413	-0.364074	-0.506405	0.244495	-0.297352	0.223104	-0.347213	-0.798828	-0.361328	0.311279	0.099141	0.000420	-0.018015	-0.051257	-0.752774	0.096885	-0.649090	-162.279501	-80.811227	-29.785195
13841		10.032979	0.359370	-1.690059	-0.328709	-0.780476	0.332692	-0.350154	0.241801	-0.358220	-0.798584	-0.365723	0.311279	0.100315	0.003384	-0.017028	-0.053891	-0.752073	0.096581	-0.649734	-163.483697	-81.005797	-28.769774
13842		9.510655	-0.496956	-1.587805	-0.129808	0.121938	-0.159255	-0.347659	0.224495	-0.381391	-0.793701	-0.378906	0.316162	0.095079	-0.005179	-0.015976	-0.056654	-0.751446	0.096095	-0.650296	-164.916581	-81.194323	-27.521508
13843		9.666287	-0.474837	-1.435160	0.025086	0.104099	-0.029507	-0.307271	0.191860	-0.406701	-0.789063	-0.383301	0.307373	0.096639	-0.004967	-0.014437	-0.059260	-0.750930	0.095481	-0.650750	-166.421485	-81.360024	-26.178032
13844		9.494314	-1.069393	-1.349080	0.210890	0.726371	-0.193262	-0.261199	0.173109	-0.433997	-0.789063	-0.387695	0.302979	0.094908	-0.010918	-0.013559	-0.061840	-0.750508	0.094537	-0.651135	-168.153098	-81.515571	-24.578908
13845		9.205426	-0.871591	-1.714188	-0.227223	0.677758	-0.435758	-0.197174	0.140599	-0.448923	-0.777588	-0.398682	0.296631	0.092022	-0.008939	-0.017198	-0.064145	-0.750202	0.093420	-0.651426	-169.905094	-81.644823	-22.922956
13846		9.318561	-0.487105	-1.941239	-0.517811	0.397172	-0.303998	-0.165962	0.127596	-0.488484	-0.770264	-0.411865	0.292725	0.093161	-0.005115	-0.019468	-0.066515	-0.749970	0.091978	-0.651660	-171.930459	-81.764087	-20.972455
13847		9.799743	-0.367752	-2.436733	-0.957390	0.422811	0.237793	-0.261842	0.126563	-0.571346	-0.765869	-0.414063	0.292725	0.097971	-0.003989	-0.024424	-0.069453	-0.749732	0.090616	-0.651818	-174.319561	-81.876115	-18.711300
13848		10.622644	-0.588933	-2.547621	-0.898827	0.702295	1.067390	-0.458112	0.133040	-0.677280	-0.760986	-0.429443	0.288574	0.106189	-0.006307	-0.025533	-0.073523	-0.749454	0.089411	-0.651858	-177.386208	-81.981317	-15.878092
13849		10.855516	-1.915871	-2.577735	-0.579814	2.087342	1.298719	-0.631599	0.166992	-0.825639	-0.753906	-0.440430	0.291260	0.108453	-0.019688	-0.025806	-0.078692	-0.749039	0.088282	-0.651886	178.840635	-82.083283	-12.434517
13850		10.223321	-3.673303	-2.667333	-0.315511	3.950529	0.647544	-0.684896	0.193088	-1.033029	-0.744385	-0.455811	0.278320	0.102016	-0.037352	-0.026645	-0.084779	-0.748596	0.086453	-0.651876	174.020840	-82.155579	-7.962438
13851		10.962321	-4.525395	-2.930832	-0.227992	4.968649	1.345236	-0.768052	0.205313	-1.334102	-0.730713	-0.471191	0.274414	0.109288	-0.046096	-0.029245	-0.092125	-0.748158	0.083843	-0.651723	167.926226	-82.151141	-2.255471
13852		10.757015	-5.795416	-2.949124	0.091713	6.386551	1.013041	-0.946040	0.265248	-1.699266	-0.725830	-0.482178	0.270264	0.107033	-0.059004	-0.029356	-0.101356	-0.747550	0.080330	-0.651492	160.254065	-82.025853	4.947324
13853		10.072981	-7.402715	-3.515226	-0.071323	8.289202	0.182233	-0.904267	0.313612	-2.134979	-0.709473	-0.506348	0.261963	0.099876	-0.075255	-0.034971	-0.111847	-0.746879	0.075101	-0.651170	151.379873	-81.685653	13.387242
13854		11.494044	-6.051175	-3.129334	0.222064	7.194254	1.443650	-0.757247	0.272212	-2.571531	-0.690918	-0.523926	0.249268	0.114106	-0.062101	-0.031216	-0.123156	-0.746484	0.067699	-0.650393	142.229486	-81.000936	22.210284
13855		13.166901	-3.593820	-2.691854	0.321412	5.156721	3.103139	-0.803811	0.238160	-2.969844	-0.667969	-0.550049	0.252197	0.131083	-0.037996	-0.026925	-0.135917	-0.746132	0.059043	-0.649098	133.658066	-79.956201	30.432749
13856		16.421853	-4.639951	-1.240167	2.581022	6.490398	5.805561	-1.084678	0.259303	-3.302818	-0.646973	-0.576416	0.239746	0.163406	-0.049170	-0.012352	-0.150732	-0.745432	0.049959	-0.647391	126.013759	-78.588857	37.587707
13857		20.582163	-6.741279	0.229178	5.360243	9.155285	9.069014	-1.258388	0.258216	-3.682925	-0.623779	-0.602539	0.231689	0.204537	-0.071172	0.002467	-0.167415	-0.744426	0.040071	-0.645133	119.451809	-76.886974	43.563081
13858		27.074849	-10.344525	0.903560	8.286841	14.178725	14.083855	-1.211641	0.388212	-4.184864	-0.593994	-0.628906	0.218994	0.268524	-0.109024	0.009162	-0.185457	-0.742829	0.028018	-0.642671	113.703944	-74.836089	48.777741
13859		35.821772	-14.720926	-3.067231	7.514179	22.423851	21.005073	-0.621468	0.621502	-4.712396	-0.564209	-0.655029	0.217529	0.354519	-0.155689	-0.031303	-0.202977	-0.740700	0.011899	-0.640330	108.868540	-72.442560	53.443845
13860		32.676190	-16.856230	-6.679577	4.278576	26.174345	16.507816	-0.023620	0.756868	-5.146049	-0.536621	-0.681152	0.216064	0.322026	-0.176897	-0.068000	-0.219505	-0.738312	-0.007816	-0.637693	105.129475	-69.751583	57.378522
13861		24.566473	-14.706963	-9.136176	-0.063822	23.811457	8.519630	-0.078356	0.548633	-5.449962	-0.493408	-0.709473	0.217041	0.241284	-0.153721	-0.091968	-0.237102	-0.735983	-0.028312	-0.633491	102.445914	-66.787723	60.217009
13862		23.786746	-9.236345	-11.678993	-3.903402	20.482240	8.964329	-0.681262	0.465279	-5.439732	-0.463867	-0.729248	0.206543	0.234959	-0.099179	-0.117009	-0.256592	-0.732673	-0.046646	-0.628629	100.170300	-63.795205	62.295083
13863		21.188885	-9.081599	-9.538643	-2.268683	19.566481	5.493974	-1.170017	0.607653	-5.118343	-0.429932	-0.748779	0.196045	0.209173	-0.096751	-0.095470	-0.276767	-0.727807	-0.062511	-0.624331	97.957054	-60.948433	64.034755
13864		17.260002	-5.996792	-7.979141	-2.272700	15.467124	2.558949	-1.076280	0.613818	-4.870783	-0.411377	-0.770752	0.190186	0.170819	-0.064573	-0.079978	-0.295422	-0.722693	-0.077668	-0.620006	96.176876	-58.239824	65.399485
13865		14.071889	-1.009799	-6.303899	-2.550339	9.915894	1.759058	-0.769219	0.539354	-4.668379	-0.379639	-0.785889	0.188477	0.140258	-0.013619	-0.063370	-0.312414	-0.717860	-0.092955	-0.615170	94.866612	-55.601742	66.435751
13866		11.058071	1.459145	-6.343505	-3.790856	6.905404	0.315167	-0.618624	0.246922	-4.206375	-0.357178	-0.792480	0.179688	0.110774	0.012066	-0.063612	-0.327143	-0.714074	-0.106501	-0.609700	94.070248	-53.231310	67.004028
13867		9.563494	-0.299089	-5.487833	-2.814611	7.481524	-2.212672	-0.859135	0.159422	-3.249230	-0.341064	-0.805664	0.169189	0.095523	-0.004779	-0.054937	-0.340018	-0.710342	-0.115757	-0.605311	93.303557	-51.374048	67.349637
13868		9.377734	1.875449	-2.279682	-0.338812	4.898571	-1.295650	-1.122467	0.303137	-2.369420	-0.325195	-0.810059	0.160400	0.093955	0.017513	-0.023040	-0.350687	-0.706149	-0.121300	-0.603041	92.384882	-50.049351	67.738970
13869		6.402573	0.089910	-3.249953	-1.495836	4.933405	-4.814189	-1.657630	0.193104	-1.700461	-0.327148	-0.823486	0.145264	0.063997	0.000085	-0.032564	-0.361557	-0.701570	-0.122664	-0.601689	91.267684	-49.073822	67.957768
13870		0.962113	-7.759438	-2.975385	-0.458977	7.129851	-14.164761	-1.331582	0.470790	-0.783370	-0.335938	-0.825928	0.127686	0.009247	-0.077827	-0.029258	-0.367988	-0.697315	-0.122276	-0.602814	90.208193	-48.651921	68.387579
13871		-1.419852	-13.668198	-2.301857	1.289220	9.522421	-19.902034	-0.617694	0.075478	0.128542	-0.340576	-0.821533	0.127441	-0.014119	-0.136761	-0.022591	-0.369739	-0.696017	-0.120132	-0.603673	89.804093	-48.720364	68.453230
13872		-0.612756	-12.785788	-1.759242	1.787447	9.232690	-18.673191	0.085862	-0.308313	0.677094	-0.358154	-0.823730	0.129639	-0.005667	-0.127870	-0.017656	-0.367266	-0.697588	-0.117480	-0.603892	90.075343	-49.134065	68.195896
