// General information: 
//  MT Manager version: 2019.2.0 
//  XDA version: 2019.2.0 build 3853 rev 94535 built on 2019-09-09
// Device information: 
//  DeviceId: 00B40AC7
//  ProductCode: MTW2-3A7G6
//  Firmware Version: 4.3.5
//  Hardware Version: 1.1.0
// Device settings: 
//  Filter Profile: human(46.1)
//  Option Flags: Orientation Smoother Disabled, AHS Disabled, ICC Disabled
// Coordinate system: ENU
PacketCounter	SampleTimeFine	Acc_X	Acc_Y	Acc_Z	FreeAcc_E	FreeAcc_N	FreeAcc_U	Gyr_X	Gyr_Y	Gyr_Z	Mag_X	Mag_Y	Mag_Z	VelInc_X	VelInc_Y	VelInc_Z	Quat_q0	Quat_q1	Quat_q2	Quat_q3	Roll	Pitch	Yaw
55215		12.782247	1.260309	-0.044575	-0.000000	-0.000000	3.031291	-0.391977	0.961515	-2.267780	-0.492188	-0.744141	0.080811	0.127950	0.011151	-0.001083	0.503461	0.538626	-0.462709	0.492249	95.549727	-84.995847	-1.838198
55216		13.143793	0.644030	0.158165	0.000000	0.000000	3.347421	-0.377556	1.089741	-2.484182	-0.465088	-0.748535	0.069824	0.131510	0.004809	0.000855	-0.496866	-0.520758	0.474935	-0.506333	79.917815	-87.872885	13.251011
55217		14.357776	0.143207	-0.131810	0.756522	0.175204	4.524881	-0.300946	1.237984	-2.650189	-0.437744	-0.768066	0.061523	0.143568	-0.000473	-0.002207	0.508965	0.528154	-0.466561	0.494296	84.951386	-85.602031	7.739406
55218		15.260927	-0.396337	0.291490	1.776692	-0.003581	5.351827	-0.209357	1.340724	-2.817534	-0.415283	-0.774658	0.050781	0.152548	-0.006110	0.001898	0.519547	0.530816	-0.456169	0.490118	79.004217	-83.894076	13.590488
55219		17.757688	-0.997102	0.646163	3.138818	-0.013630	7.704900	-0.112514	1.477288	-2.981108	-0.385742	-0.789795	0.049072	0.177443	-0.012614	0.005157	0.531025	0.533787	-0.444337	0.485436	75.410660	-81.950501	17.108795
55220		18.608096	-1.226124	0.413632	4.005236	0.564836	8.395504	0.080193	1.604059	-3.166425	-0.358643	-0.802979	0.047363	0.185881	-0.015207	0.002639	0.541976	0.537057	-0.431363	0.481412	73.003238	-79.954160	19.592693
55221		18.508768	-1.450125	0.728761	4.555345	0.552730	8.190375	0.107649	1.628214	-3.434928	-0.333984	-0.807129	0.045166	0.184853	-0.017681	0.005773	0.550102	0.537700	-0.421628	0.480102	70.474431	-78.572716	22.178706
55222		20.097874	-3.460721	0.520772	7.450506	1.293265	9.132886	-0.008789	1.639827	-3.649241	-0.302490	-0.820068	0.043457	0.200336	-0.038266	0.003565	0.562231	0.541324	-0.407244	0.474359	69.701168	-76.286810	22.965642
55223		21.438908	-4.266839	0.247660	8.257213	1.914182	10.336296	-0.314743	1.691480	-3.779853	-0.268555	-0.833008	0.041748	0.213543	-0.046708	0.000739	0.563879	0.534590	-0.408616	0.478838	65.933240	-76.602271	26.428307
55224		21.603409	-3.343852	-1.146350	8.087475	3.633193	10.200364	-0.759044	1.623369	-3.967132	-0.237305	-0.837402	0.026367	0.215212	-0.037761	-0.013075	0.578588	0.536542	-0.395157	0.470329	65.806358	-74.147641	26.109979
55225		22.587984	-3.738944	-2.575959	7.484566	4.895711	11.418419	-0.911881	1.590263	-4.062998	-0.198730	-0.852539	0.018066	0.224843	-0.042087	-0.027365	0.567637	0.523153	-0.416708	0.480056	61.480155	-77.255448	29.607389
55226		24.033677	-3.004953	-5.033277	7.868775	7.820212	12.296403	-0.451679	1.577576	-4.022441	-0.174072	-0.856934	0.013916	0.239260	-0.034985	-0.052148	0.581625	0.526341	-0.402696	0.471713	62.374893	-74.796414	28.418912
55227		24.289812	-1.475674	-4.855735	4.566519	6.382247	13.726236	0.524856	1.436115	-3.923787	-0.147217	-0.867676	0.023193	0.242191	-0.019383	-0.050345	0.549797	0.522368	-0.439511	0.481337	65.820921	-80.454314	25.006859
55228		21.437283	-1.884044	-3.597464	5.363609	5.256646	10.671314	1.343751	1.264874	-3.658423	-0.124756	-0.871826	0.030029	0.213750	-0.022506	-0.037471	0.557755	0.530947	-0.423154	0.477436	67.471397	-78.242584	24.111122
55229		17.976538	-3.039130	-3.515947	4.589145	3.665406	7.800586	1.229422	1.010572	-3.328936	-0.095703	-0.869385	0.034424	0.179047	-0.033155	-0.036264	0.518780	0.534499	-0.460498	0.482825	87.652270	-83.685420	4.530985
55230		13.782287	-1.411385	-2.447577	3.018331	2.682829	3.663608	0.278541	0.794200	-3.051093	-0.077881	-0.869141	0.030029	0.137488	-0.016178	-0.025044	0.527165	0.540262	-0.449554	0.477614	85.092699	-81.911483	7.271446
55231		8.795961	0.487971	-0.422998	0.062136	-0.026139	-0.993620	-0.991912	0.739498	-2.757725	-0.059814	-0.878174	0.014893	0.087999	0.003644	-0.004575	0.499520	0.537866	-0.484004	0.476361	121.722454	-84.858515	-29.961421
55232		1.204839	16.868616	-2.163110	-16.725381	1.746777	-7.008597	-2.335154	-0.024199	-2.505512	-0.046387	-0.882568	-0.004883	0.014161	0.168250	-0.023596	0.511635	0.538076	-0.482818	0.464318	113.887313	-83.580205	-23.431564
55233		11.032108	2.666481	-4.024149	-1.439632	3.001424	1.759707	-2.907498	-0.149768	-1.966413	-0.037354	-0.878662	-0.035889	0.110603	0.024990	-0.040530	0.510223	0.545142	-0.497875	0.441149	127.601791	-81.506656	-38.854668
55234		12.807087	-9.646244	-6.398124	11.349749	4.864478	2.250184	-2.961869	-0.260506	-0.616880	-0.043945	-0.876953	-0.071533	0.127853	-0.097789	-0.062373	0.518949	0.539634	-0.503334	0.431442	125.315349	-81.133698	-38.258433
55235		8.656354	-6.190930	-1.839113	7.076226	0.177435	-1.655954	-3.554588	-0.426660	0.447244	-0.055176	-0.877441	-0.111328	0.086740	-0.062027	-0.017104	0.508116	0.534914	-0.531541	0.416112	143.605314	-80.176303	-58.703854
55236		2.700101	-3.555267	0.954093	3.635212	-1.698782	-7.636049	-3.819474	-0.669722	1.009776	-0.072998	-0.871338	-0.140137	0.027146	-0.035224	0.010306	0.514348	0.523813	-0.543782	0.406653	145.429484	-80.199682	-62.775966
55237		-0.218182	-2.876952	0.851795	2.715145	-1.183940	-10.337520	-3.251158	-0.881395	1.345906	-0.093262	-0.865234	-0.173584	-0.002028	-0.028640	0.008975	0.500811	0.511457	-0.570926	0.402049	163.097209	-79.455646	-82.211314
55238		0.613212	-2.672880	-0.172965	2.671409	-0.396080	-9.306509	-2.753287	-1.051741	1.625862	-0.113281	-0.859131	-0.202637	0.006357	-0.026698	-0.001329	0.501510	0.501964	-0.583171	0.395514	167.097809	-79.112476	-87.888298
55239		2.175193	-3.845699	-1.019075	3.885473	-0.205631	-7.484930	-2.111924	-1.298197	2.036814	-0.140137	-0.853027	-0.220703	0.022207	-0.038336	-0.009642	0.485525	0.490008	-0.605514	0.396876	-178.710513	-77.668736	-103.075469
55240		3.201380	-3.221334	-0.895943	3.132050	-0.517576	-6.443851	-1.461933	-1.541856	2.464390	-0.167236	-0.844482	-0.227539	0.032475	-0.031878	-0.008476	0.479484	0.481993	-0.618115	0.394603	-173.613990	-76.691442	-109.160882
55241		3.614386	-2.491138	-0.373721	2.056644	-1.033936	-6.056564	-0.985689	-1.762443	2.821941	-0.212158	-0.833740	-0.232422	0.036521	-0.024415	-0.003295	0.457977	0.470857	-0.638201	0.401559	-162.517170	-74.305374	-120.452343
55242		3.982156	-2.361473	-0.139614	1.694432	-1.385093	-5.730833	-0.344833	-1.995606	3.199928	-0.241455	-0.823242	-0.237061	0.040204	-0.022975	-0.000956	0.445915	0.463779	-0.650882	0.403016	-158.193608	-72.610757	-125.167974
55243		4.262946	-2.210377	-0.051323	1.212037	-1.550255	-5.432535	0.489536	-2.140209	3.604474	-0.279541	-0.816650	-0.226318	0.043021	-0.021330	-0.000107	0.419898	0.454523	-0.666535	0.415723	-150.245239	-69.662933	-132.364492
55244		4.735574	-1.667031	-0.112784	0.396770	-1.537686	-5.049132	1.315963	-2.229067	3.996890	-0.326904	-0.803467	-0.207031	0.047686	-0.015714	-0.000703	0.401053	0.448471	-0.677373	0.423315	-146.250067	-67.370788	-135.846683
55245		5.488759	-1.126656	-0.257001	-0.631094	-1.509253	-4.448022	1.934023	-2.276736	4.363168	-0.369385	-0.794678	-0.178711	0.055141	-0.010044	-0.002044	0.371479	0.440390	-0.688014	0.441245	-140.080308	-64.132397	-140.390049
55246		6.514125	-0.888507	-0.297763	-1.484495	-1.764723	-3.649554	2.292592	-2.305485	4.695439	-0.410156	-0.774902	-0.155029	0.065355	-0.007323	-0.002315	0.347992	0.433403	-0.697296	0.452595	-136.570100	-61.356418	-142.859906
55247		7.557533	-0.635909	-0.214836	-2.533136	-2.139830	-2.989433	2.493435	-2.293921	4.992841	-0.459961	-0.757324	-0.124512	0.075721	-0.004450	-0.001344	0.318149	0.424784	-0.704510	0.471174	-131.931542	-58.056812	-145.624800
55248		8.540370	-0.406136	-0.084001	-3.570070	-2.596333	-2.491222	2.602228	-2.236562	5.257410	-0.498779	-0.730957	-0.094482	0.085474	-0.001812	0.000082	0.292205	0.415466	-0.712755	0.483719	-128.961005	-54.932847	-147.398024
55249		9.637530	-0.001231	0.096682	-4.890167	-3.093028	-2.106581	2.620067	-2.180819	5.480791	-0.548828	-0.700195	-0.066650	0.096309	0.002606	0.002040	0.264323	0.405798	-0.717116	0.501204	-125.358688	-51.801771	-149.155885
55250		10.997728	0.719471	0.261777	-6.682959	-3.667820	-1.851289	2.499339	-2.115200	5.700496	-0.590088	-0.667236	-0.036621	0.109677	0.010281	0.003895	0.237244	0.393745	-0.724826	0.513135	-122.932577	-48.418311	-150.450335
55251		12.143916	1.443599	0.238382	-8.338888	-3.977009	-1.799393	2.237012	-2.052177	5.869492	-0.633545	-0.627686	-0.009033	0.120912	0.017953	0.003814	0.213420	0.383048	-0.727614	0.527545	-120.245641	-45.620635	-151.638068
55252		13.264598	2.565836	0.290054	-10.381106	-4.355594	-2.341666	2.006194	-2.030318	5.986891	-0.673096	-0.581543	0.014160	0.131759	0.029572	0.004525	0.186287	0.368556	-0.735554	0.537052	-118.454712	-42.060479	-152.563153
55253		14.404567	3.646506	0.488715	-12.212951	-4.822034	-2.845474	1.618737	-2.009940	6.071527	-0.701172	-0.537354	0.037109	0.142791	0.040764	0.006645	0.168103	0.357917	-0.737853	0.547000	-116.673379	-39.764387	-153.392310
55254		15.544022	4.601600	0.533299	-14.083637	-5.219521	-3.697803	1.049963	-1.960118	6.108470	-0.742920	-0.487061	0.049072	0.153875	0.050698	0.007104	0.142201	0.341439	-0.747169	0.552211	-115.654075	-36.127858	-154.070933
55255		16.685013	5.637157	0.572959	-15.801062	-5.447139	-4.240981	0.488187	-1.917672	6.109211	-0.771240	-0.434326	0.063232	0.164959	0.061413	0.007463	0.131794	0.331188	-0.750742	0.556176	-114.867521	-34.491473	-154.819931
55256		17.992970	6.987848	0.562835	-17.971000	-5.693406	-5.641865	0.113322	-1.957998	6.081947	-0.792725	-0.388428	0.068604	0.177628	0.075300	0.007417	0.107280	0.313711	-0.761404	0.557082	-114.522451	-30.856744	-155.338542
55257		19.159197	9.809794	0.764293	-20.681210	-5.580229	-7.601618	-0.198339	-2.003445	5.977424	-0.808105	-0.329102	0.086914	0.188458	0.103771	0.009440	0.103894	0.305183	-0.765530	0.556807	-114.423921	-29.928824	-156.068042
55258		19.645576	13.380292	1.471707	-23.067200	-5.559582	-11.805381	-0.479720	-2.035781	5.768240	-0.815918	-0.289551	0.092529	0.192327	0.139428	0.016359	0.080729	0.288382	-0.776362	0.554599	-114.533854	-26.437620	-156.417265
55259		18.665992	17.390037	2.054294	-24.514209	-4.428505	-15.671363	-0.794295	-2.007126	5.373766	-0.830811	-0.240967	0.111084	0.181683	0.178912	0.021679	0.086638	0.282735	-0.780787	0.550387	-115.069797	-26.520576	-157.241460
55260		17.518474	19.783723	2.046613	-24.521882	-3.075846	-19.381265	-1.069942	-1.960799	4.711562	-0.836670	-0.201416	0.118896	0.170254	0.201999	0.021078	0.067503	0.269179	-0.790975	0.545293	-115.617396	-23.599999	-157.396205
55261		16.651309	20.590410	2.158697	-24.518969	-2.004498	-19.842425	-1.178179	-1.867291	3.898700	-0.835205	-0.175049	0.127197	0.162253	0.209223	0.021889	0.084666	0.268252	-0.794885	0.537615	-116.733133	-25.026214	-158.273450
55262		15.056285	21.878055	3.590541	-23.267193	-2.002318	-22.957962	-1.236352	-1.711737	2.992760	-0.835938	-0.155273	0.131104	0.146958	0.221219	0.035811	0.071464	0.260391	-0.802813	0.531583	-117.482479	-23.052999	-158.173075
55263		12.351382	24.131184	6.652199	-22.528116	-2.512666	-26.099323	-1.291352	-1.473617	1.991049	-0.831787	-0.139648	0.141846	0.120614	0.242949	0.065853	0.099073	0.264836	-0.804957	0.521623	-118.988021	-25.835418	-158.968810
55264		10.235279	25.337941	9.036847	-20.881207	-3.207106	-29.360326	-1.152995	-1.163282	0.973047	-0.827393	-0.139648	0.146240	0.100595	0.254389	0.089492	0.093376	0.263371	-0.809792	0.515900	-119.794678	-25.022611	-158.628757
55265		8.936923	24.947544	9.700874	-20.910186	-3.106391	-28.506742	-0.709128	-0.792232	0.099309	-0.827393	-0.144043	0.146240	0.088862	0.249862	0.096476	0.128510	0.273659	-0.807070	0.507182	-121.160794	-29.013953	-159.142048
55266		10.252906	23.108857	8.414402	-21.032651	-2.943139	-25.903309	-0.103689	-0.379135	-0.544361	-0.822998	-0.141846	0.146240	0.102998	0.230852	0.084219	0.128502	0.276749	-0.806827	0.505892	-121.413626	-29.167753	-158.744243
55267		17.277213	19.008561	5.447581	-25.238793	-3.654072	-16.069625	0.704008	-0.036584	-0.725570	-0.813721	-0.150391	0.150879	0.173450	0.189264	0.055175	0.166031	0.289843	-0.797741	0.502030	-122.025314	-33.774095	-159.158948
55268		11.858419	21.167692	11.386864	-22.305821	-6.974478	-22.932520	1.142597	0.813196	-1.827530	-0.822266	-0.167969	0.153564	0.120973	0.209926	0.114583	0.172196	0.296021	-0.791496	0.506215	-121.476431	-34.909766	-158.971439
55269		17.620339	9.889074	3.312443	-19.584697	-4.819483	-6.288479	1.822740	1.508929	-2.778615	-0.815186	-0.179199	0.142822	0.177799	0.096129	0.032671	0.216548	0.315071	-0.773141	0.506053	-121.379720	-40.823364	-159.256706
55270		22.064693	-29.810259	-5.695840	5.847715	-8.593699	26.238547	3.260920	2.000828	-1.809182	-0.821289	-0.192383	0.136475	0.217327	-0.299073	-0.064015	0.223675	0.320462	-0.759701	0.519738	-119.095984	-42.296305	-159.882623
55271		24.684080	-2.244136	9.307317	-14.723564	-14.958994	6.322046	3.229469	2.233640	-1.820993	-0.814209	-0.207764	0.123535	0.247630	-0.026163	0.089908	0.256956	0.333177	-0.737529	0.528222	-117.011501	-46.970896	-161.191816
55272		24.159764	26.959959	14.947976	-36.604580	-13.692168	-12.335984	0.555809	1.929980	-3.822916	-0.810791	-0.243164	0.113525	0.248118	0.264486	0.147846	0.273183	0.342814	-0.727041	0.528451	-116.696247	-49.424716	-161.187485
55273		16.393431	8.802370	2.801167	-16.676836	-3.961997	-2.053759	-0.232206	0.745725	-4.378566	-0.800781	-0.278076	0.114502	0.165912	0.084438	0.027296	0.311655	0.360558	-0.710333	0.517973	-117.770511	-54.713777	-160.862868
55274		4.311749	-2.858024	-3.239135	0.345730	1.734206	-3.971306	0.929136	0.441423	-3.687366	-0.795410	-0.306641	0.115234	0.042511	-0.029217	-0.032620	0.321041	0.373893	-0.700461	0.516227	-118.368691	-56.697286	-159.494613
55275		0.680323	-0.908199	-2.267614	0.655817	1.907085	-8.275650	1.397651	0.581723	-3.274618	-0.786133	-0.323975	0.124512	0.006589	-0.009032	-0.022759	0.346131	0.388487	-0.683293	0.512232	-118.660904	-60.576074	-158.968924
55276		6.789178	7.067446	1.732660	-9.450716	-1.703418	-7.201816	1.210641	0.890308	-3.177940	-0.780762	-0.348389	0.114014	0.069080	0.069478	0.017444	0.354907	0.399100	-0.672373	0.512518	-118.754045	-62.418357	-158.073698
55277		9.762965	11.480737	2.466944	-14.567760	-2.163130	-5.776366	0.395033	0.978864	-2.897881	-0.773193	-0.376709	0.114746	0.099399	0.113327	0.024411	0.376657	0.408695	-0.659058	0.506695	-119.390851	-65.594740	-157.667093
55278		9.893789	3.410918	0.696083	-6.883582	-1.679195	-2.079876	-0.571028	0.998302	-2.357517	-0.768311	-0.394287	0.106445	0.099364	0.032958	0.006370	0.387055	0.412824	-0.653750	0.502370	-120.114364	-67.051513	-157.234410
55279		10.342568	2.653541	3.559751	-6.308080	-4.507449	-1.653718	-0.715654	0.804856	-1.972374	-0.765381	-0.409912	0.100098	0.103823	0.025639	0.035087	0.405147	0.417327	-0.645885	0.494496	-121.283445	-69.404970	-156.830022
55280		10.652171	3.652183	3.925447	-7.236392	-4.700163	-1.581307	-0.707328	0.449756	-1.951692	-0.762695	-0.429688	0.093994	0.106960	0.035617	0.038887	0.412880	0.421062	-0.642613	0.489168	-122.713564	-70.490134	-155.739133
55281		8.667224	5.365845	2.503765	-7.883449	-2.625402	-3.398821	-0.292865	0.280897	-1.749352	-0.755371	-0.444824	0.094482	0.087172	0.052934	0.024838	0.426884	0.424650	-0.636335	0.482204	-124.173347	-72.329464	-154.902753
55282		9.458386	3.679433	0.378659	-6.088883	-0.952209	-1.740558	0.058377	0.254632	-1.584328	-0.743896	-0.460205	0.092529	0.094876	0.036042	0.003677	0.431377	0.429189	-0.632265	0.479532	-125.422179	-73.158446	-153.560107
55283		9.736040	3.644441	-0.403166	-5.796182	-0.148402	-1.174670	0.017930	0.313279	-1.421725	-0.741211	-0.471191	0.090820	0.097610	0.035751	-0.004181	0.442322	0.432249	-0.626304	0.474610	-126.715160	-74.656375	-152.647549
55284		9.415207	2.491809	0.371554	-4.605251	-1.070112	-1.289868	0.038660	0.272748	-1.287013	-0.736328	-0.488770	0.095703	0.094315	0.024311	0.003592	0.446139	0.435709	-0.622813	0.472463	-127.897098	-75.337924	-151.401026
55285		9.336281	2.420196	1.828210	-4.552081	-2.451066	-1.467901	0.242696	0.147217	-1.198916	-0.736084	-0.495117	0.104492	0.093519	0.023620	0.018242	0.453836	0.439462	-0.617372	0.468784	-129.541119	-76.506425	-149.871571
55286		9.850462	3.201497	1.768516	-5.295239	-2.341338	-1.044218	0.409345	0.057820	-1.159130	-0.729004	-0.508301	0.102783	0.098693	0.031407	0.017721	0.455825	0.443826	-0.613721	0.467535	-131.026098	-77.034810	-148.105233
55287		10.771592	3.453453	1.937168	-5.572695	-2.506474	-0.098395	-0.007150	0.461716	-1.011878	-0.724365	-0.517090	0.103027	0.107933	0.033990	0.019121	0.464210	0.444940	-0.609087	0.464273	-132.130655	-78.135594	-147.332068
55288		9.658131	3.706772	0.400742	-5.296466	-0.805700	-0.953930	-0.299750	0.447577	-0.903194	-0.717041	-0.532471	0.092285	0.096756	0.036637	0.003736	0.468332	0.445951	-0.606725	0.462252	-133.091127	-78.690357	-146.526976
55289		9.741907	4.242530	-0.179487	-5.600477	-0.065880	-0.781318	-0.273644	0.267620	-0.792498	-0.717041	-0.536865	0.096924	0.097584	0.042036	-0.001983	0.475581	0.446215	-0.603803	0.458407	-134.602327	-79.549028	-145.465605
55290		9.685818	4.925558	-0.731522	-6.097843	0.618379	-0.810200	-0.123087	0.194127	-0.638213	-0.712158	-0.545654	0.092773	0.097008	0.048942	-0.007440	0.477904	0.447402	-0.602195	0.456947	-135.669645	-79.886112	-144.452580
55291		9.414502	4.790808	-0.221529	-5.905964	0.154713	-1.053167	-0.069155	0.140649	-0.473529	-0.709717	-0.552246	0.092773	0.094257	0.047684	-0.002298	0.482157	0.448894	-0.599380	0.454711	-137.281000	-80.478922	-142.962728
55292		9.590727	4.555874	0.194078	-5.732476	-0.306135	-0.878452	-0.182379	0.065672	-0.342387	-0.709717	-0.554443	0.097412	0.095986	0.045396	0.001868	0.483543	0.449331	-0.598866	0.453485	-138.106453	-80.639084	-142.231906
55293		10.052930	3.074620	0.569534	-4.326320	-0.984710	-0.265315	-0.243304	0.025895	-0.209547	-0.705078	-0.560791	0.102051	0.100562	0.030648	0.005645	0.486309	0.450794	-0.597028	0.451493	-139.847793	-81.019272	-140.571919
55294		10.266530	3.012484	0.534323	-4.268149	-0.979474	-0.035892	-0.280492	-0.037266	-0.150028	-0.709473	-0.563232	0.093018	0.102687	0.030055	0.005320	0.487170	0.450644	-0.597411	0.450206	-140.514822	-81.058210	-140.059380
55295		10.265601	2.137459	0.404386	-3.325248	-1.016196	0.088064	-0.246867	-0.089970	-0.111207	-0.707031	-0.567627	0.095459	0.102666	0.021323	0.004064	0.489205	0.451908	-0.596244	0.448276	-142.273812	-81.313480	-138.387006
55296		10.114132	2.727244	0.253381	-3.847804	-0.749356	-0.095147	-0.223081	-0.128100	-0.127972	-0.704590	-0.573975	0.095703	0.101157	0.027211	0.002568	0.489615	0.452031	-0.596766	0.447007	-143.075087	-81.299869	-137.705758
55297		10.237767	2.105945	0.305138	-3.204288	-0.939053	0.096433	-0.167948	-0.139545	-0.155788	-0.697998	-0.576172	0.097900	0.102392	0.020982	0.003105	0.491306	0.453544	-0.595611	0.445156	-145.013005	-81.513287	-135.816801
55298		10.192478	1.901099	-0.093608	-2.912509	-0.599641	0.120450	-0.100629	-0.142472	-0.183922	-0.700195	-0.578369	0.100098	0.101943	0.018917	-0.000873	0.491521	0.454162	-0.595766	0.444080	-145.963408	-81.506025	-134.914200
55299		11.243772	1.753348	-0.385869	-2.759016	-0.465352	1.224375	-0.046493	-0.142155	-0.208470	-0.695313	-0.587158	0.100342	0.112459	0.017415	-0.003783	0.492947	0.455966	-0.594382	0.442502	-147.993592	-81.701532	-132.872007
55300		10.808471	2.144092	-1.277235	-2.914072	0.505123	0.878638	-0.080141	-0.157514	-0.246698	-0.695068	-0.593750	0.098389	0.108121	0.021302	-0.012696	0.493209	0.456851	-0.594383	0.441296	-149.190256	-81.698462	-131.709119
55301		10.156472	1.614052	-0.470173	-2.414099	-0.336398	0.189263	-0.126316	-0.151230	-0.310902	-0.690674	-0.595947	0.102783	0.101593	0.015980	-0.004635	0.494584	0.459138	-0.592881	0.439399	-151.789130	-81.869338	-129.079202
55302		9.866801	1.459832	-0.027620	-2.287909	-0.784966	-0.136179	-0.136423	-0.136174	-0.357579	-0.683594	-0.604736	0.098633	0.098694	0.014422	-0.000219	0.495280	0.460160	-0.592693	0.437796	-153.395837	-81.894672	-127.535228
55303		9.800092	1.340949	0.382152	-2.171484	-1.218829	-0.232240	-0.078791	-0.120005	-0.386114	-0.681152	-0.613525	0.098877	0.098024	0.013222	0.003875	0.496769	0.462528	-0.590972	0.435937	-156.206446	-82.062260	-124.680743
55304		9.870212	2.555857	0.669613	-3.383346	-1.290831	-0.258189	-0.104235	-0.098384	-0.434105	-0.674561	-0.611328	0.094482	0.098754	0.025348	0.006731	0.497666	0.463766	-0.590436	0.434321	-158.074070	-82.107223	-122.855494
55305		9.908623	2.390427	0.586732	-3.133245	-1.256144	-0.177135	-0.103069	-0.066485	-0.505532	-0.663086	-0.624268	0.099365	0.099144	0.023657	0.005888	0.499895	0.465770	-0.588614	0.432085	-161.272839	-82.304740	-119.692203
55306		9.735653	1.851117	0.172819	-2.466310	-0.950866	-0.260078	-0.092232	-0.036360	-0.562266	-0.656250	-0.628662	0.099365	0.097408	0.018238	0.001737	0.501217	0.467271	-0.587590	0.430321	-163.659768	-82.382204	-117.337170
55307		9.803918	2.024629	-0.152748	-2.492469	-0.610596	-0.135204	-0.138081	-0.001347	-0.644612	-0.653564	-0.641846	0.093018	0.098104	0.019929	-0.001541	0.504160	0.469117	-0.585512	0.427700	-167.526278	-82.597890	-113.563919
55308		10.135535	2.169235	-0.372213	-2.540824	-0.416872	0.234357	-0.192522	0.061159	-0.745059	-0.644531	-0.644043	0.091064	0.101434	0.021311	-0.003774	0.506383	0.470680	-0.584016	0.425397	-170.841574	-82.712691	-110.332473
55309		10.330643	1.793115	-0.627569	-2.017797	-0.260388	0.492228	-0.220663	0.132399	-0.848875	-0.633057	-0.652588	0.095703	0.103377	0.017485	-0.006364	0.510208	0.472673	-0.581272	0.422365	-175.943006	-82.940491	-105.351949
55310		10.609570	2.092667	-0.926859	-2.162285	0.057205	0.823171	-0.286497	0.199177	-0.988581	-0.617188	-0.659180	0.084717	0.106188	0.020389	-0.009404	0.513547	0.474389	-0.579022	0.419474	179.300755	-83.071442	-100.725518
55311		10.896825	1.826917	-0.824957	-1.777228	-0.117615	1.122814	-0.335144	0.283330	-1.111340	-0.605469	-0.678955	0.087646	0.109056	0.017649	-0.008434	0.518353	0.476735	-0.575391	0.415883	172.365370	-83.237996	-93.928749
55312		11.051019	1.274942	-0.458707	-1.175350	-0.589825	1.243073	-0.364332	0.369708	-1.216612	-0.589600	-0.685547	0.076660	0.110576	0.012068	-0.004814	0.522806	0.478513	-0.572276	0.412553	166.004861	-83.315476	-87.734519
55313		11.177487	1.975508	0.054863	-1.783220	-0.938933	1.357726	-0.385870	0.449714	-1.357876	-0.580566	-0.692139	0.074707	0.111906	0.018996	0.000260	0.528615	0.480972	-0.567729	0.408553	157.427880	-83.326979	-79.319230
55314		11.743377	1.875909	0.453282	-1.582773	-1.385057	1.900759	-0.374702	0.543721	-1.498509	-0.560059	-0.709717	0.064209	0.117582	0.017887	0.004179	0.534105	0.483110	-0.563433	0.404821	149.509544	-83.221930	-71.562417
55315		12.146066	1.469969	0.296138	-0.910639	-1.315490	2.320399	-0.338604	0.642418	-1.627104	-0.548584	-0.716064	0.064453	0.121584	0.013715	0.002547	0.541088	0.485488	-0.557803	0.400476	140.000453	-82.975317	-62.246448
55316		12.289995	1.637760	-0.000722	-0.780839	-0.967020	2.523306	-0.311639	0.727404	-1.750397	-0.517090	-0.729248	0.053711	0.123036	0.015301	-0.000479	0.547355	0.488049	-0.552182	0.396618	131.841142	-82.575921	-54.202136
55317		12.312502	1.618420	0.131387	-0.523094	-1.037763	2.551706	-0.326305	0.803592	-1.879425	-0.501221	-0.737793	0.051758	0.123274	0.015028	0.000794	0.555402	0.490219	-0.545665	0.391744	123.047835	-81.975261	-45.657884
55318		12.291278	1.539983	0.370413	-0.242011	-1.232165	2.516186	-0.345873	0.894317	-2.030030	-0.485107	-0.753418	0.039063	0.123076	0.014157	0.003129	0.562634	0.493015	-0.538846	0.387329	115.948764	-81.213563	-38.682441
55319		12.819705	1.988849	0.743172	-0.389548	-1.463611	3.092759	-0.349367	1.015513	-2.183010	-0.466797	-0.761963	0.037109	0.128439	0.018500	0.006747	0.571969	0.494918	-0.531199	0.381753	108.661200	-80.241770	-31.713919
55320		13.587437	0.830987	0.450248	1.224574	-1.424155	3.677078	-0.257992	1.153200	-2.285312	-0.437744	-0.768555	0.032959	0.135980	0.006762	0.003709	0.579987	0.498008	-0.522692	0.377353	103.042952	-79.161061	-26.154354
55321		14.583209	0.467147	0.428216	2.119679	-1.453216	4.555810	-0.179593	1.226014	-2.414569	-0.419434	-0.779297	0.031006	0.145897	0.002914	0.003385	0.590014	0.499782	-0.513809	0.371621	97.553305	-77.895686	-20.975315
55322		16.456605	0.121028	0.625201	3.187080	-1.754258	6.248807	-0.057439	1.359709	-2.554716	-0.396973	-0.788086	0.020264	0.164601	-0.000891	0.005133	0.598338	0.503598	-0.503464	0.367294	93.484166	-76.512367	-16.836732
55323		18.083271	-0.553756	0.215596	4.777246	-1.460699	7.576266	0.099980	1.500402	-2.721963	-0.372070	-0.803223	0.018555	0.180744	-0.007999	0.000796	0.609082	0.505371	-0.492955	0.361407	89.295060	-74.969715	-12.923292
55324		18.285619	-0.543699	-0.122698	5.449383	-0.989245	7.621995	0.123130	1.548272	-3.011627	-0.342773	-0.807617	0.016602	0.182730	-0.008188	-0.002646	0.617943	0.510299	-0.480335	0.356398	86.477509	-73.211619	-9.920608
55325		19.451306	-2.475064	-0.342228	8.223949	-1.127861	7.953806	0.071744	1.572280	-3.293533	-0.313477	-0.820557	0.016846	0.194035	-0.027947	-0.004959	0.629899	0.512151	-0.468731	0.348167	83.560105	-71.286418	-7.432269
55326		20.951339	-2.985418	-0.685570	9.925987	-0.817109	8.871329	-0.036842	1.628187	-3.515106	-0.275391	-0.829102	0.012939	0.208881	-0.033531	-0.008552	0.639811	0.517343	-0.454576	0.341113	81.684078	-69.168545	-5.461549
55327		21.083630	-3.269616	-0.301806	10.825666	-1.158974	8.536731	-0.381351	1.661799	-3.693559	-0.248291	-0.840088	0.002197	0.210150	-0.036589	-0.004699	0.653632	0.517181	-0.443227	0.329908	79.349282	-67.022541	-3.992511
55328		21.357052	-2.148621	-1.559587	10.985649	0.454150	8.686342	-0.876442	1.620158	-3.837020	-0.221191	-0.844238	-0.004395	0.212970	-0.025649	-0.017216	0.665672	0.520030	-0.429353	0.319539	77.788905	-64.683168	-2.833199
55329		22.920630	-2.910998	-3.246759	13.486621	1.858778	9.133087	-1.152287	1.686776	-3.878822	-0.189697	-0.855225	-0.019287	0.228298	-0.033737	-0.034210	0.681239	0.516598	-0.419377	0.305226	75.658528	-62.467687	-2.161507
55330		23.912189	-3.500618	-5.752046	15.883584	4.173397	8.824284	-0.792888	1.693313	-3.769121	-0.165039	-0.859619	-0.023682	0.237905	-0.039730	-0.059387	0.692440	0.519103	-0.404989	0.295031	74.506918	-60.130671	-1.366808
55331		22.085062	-4.140935	-6.134891	16.275833	4.324856	6.276591	0.456579	1.411906	-3.580280	-0.135742	-0.868164	-0.018799	0.219623	-0.045206	-0.063003	0.701360	0.521156	-0.394449	0.284429	73.965258	-58.186179	-1.322219
55332		18.855194	-3.441826	-3.633584	13.874070	2.286805	3.708187	1.781121	1.208167	-3.255207	-0.111084	-0.874268	-0.005371	0.187737	-0.037146	-0.037794	0.703599	0.532005	-0.379120	0.279619	74.732190	-56.203071	-1.020503
55333		15.932619	-3.455687	-3.068946	12.452250	1.764312	1.004769	1.650296	0.994580	-2.940033	-0.095703	-0.871826	0.005615	0.158642	-0.036633	-0.031776	0.706527	0.537834	-0.370221	0.272929	75.205897	-54.758109	-1.248342
55334		12.217667	-0.738722	-0.877902	7.963427	0.493933	-0.489744	0.484176	0.813794	-2.787343	-0.075439	-0.874023	0.003662	0.122021	-0.009066	-0.009296	0.710461	0.543535	-0.359147	0.266136	75.419851	-53.094633	-1.169865
55335		5.502462	5.749207	0.757764	-1.224644	0.811226	-1.955009	-1.148148	0.699204	-2.337929	-0.066406	-0.880615	-0.016113	0.055717	0.056885	0.007056	0.719069	0.538651	-0.356995	0.255635	74.445556	-52.073907	-1.580452
55336		3.987070	15.073137	-2.329561	-8.128896	6.671359	1.930997	-2.474749	-0.006721	-2.246484	-0.048584	-0.878662	-0.044922	0.041559	0.149967	-0.025153	0.728494	0.533698	-0.354079	0.243086	73.478435	-50.837559	-2.156927
55337		11.583674	-7.419710	-5.784456	14.266826	2.722744	-6.387824	-2.264190	0.066248	-1.079161	-0.043945	-0.881104	-0.064697	0.115413	-0.075469	-0.057033	0.735723	0.525607	-0.356665	0.235031	72.322561	-50.523124	-2.622984
55338		11.204299	-9.846279	-4.646953	15.507730	0.597038	-8.016102	-2.322500	-0.179903	0.201430	-0.063965	-0.877197	-0.098145	0.112183	-0.098880	-0.045222	0.741220	0.516880	-0.360558	0.231140	71.066746	-50.664700	-2.719942
55339		7.137766	-4.376221	-0.610831	7.777541	-1.323880	-6.944382	-2.671343	-0.446171	0.862651	-0.077393	-0.873291	-0.124756	0.071578	-0.043529	-0.005366	0.745991	0.503626	-0.371451	0.227777	69.577652	-51.593881	-3.165502
55340		2.911024	-2.477557	0.430453	3.413165	-1.488983	-8.848278	-2.511834	-0.682965	1.176528	-0.093018	-0.871582	-0.146973	0.029239	-0.024546	0.004713	0.749633	0.492799	-0.379781	0.225756	68.295538	-52.363221	-3.364940
55341		0.905452	-0.968964	0.045831	1.214643	-0.495376	-9.612771	-2.382103	-0.876625	1.469914	-0.117676	-0.867676	-0.171387	0.009123	-0.009616	0.000613	0.752117	0.478918	-0.393853	0.223244	67.010238	-53.733859	-4.016749
55342		1.755150	-1.743228	-1.384974	2.805023	0.373049	-9.640146	-2.137180	-1.112085	1.849719	-0.135742	-0.854736	-0.189453	0.017789	-0.017414	-0.013565	0.752894	0.468425	-0.404802	0.223301	66.011393	-54.959486	-4.294557
55343		2.951277	-2.902758	-2.539768	4.787674	0.714278	-9.421605	-1.404310	-1.390318	2.283566	-0.164795	-0.850830	-0.200928	0.030018	-0.028863	-0.024987	0.750614	0.456977	-0.421128	0.224503	65.387425	-56.866013	-5.023252
55344		3.752432	-2.817877	-2.267268	5.027484	0.429830	-8.509191	-0.744352	-1.615867	2.717770	-0.198730	-0.840088	-0.205566	0.038084	-0.027747	-0.022263	0.745764	0.450215	-0.434180	0.229413	65.264158	-58.667227	-5.381744
55345		4.193881	-2.199269	-1.686329	4.473445	0.147765	-7.525143	-0.210153	-1.846269	3.100139	-0.234375	-0.838135	-0.205811	0.042426	-0.021355	-0.016450	0.738258	0.441663	-0.452325	0.235183	65.452258	-61.117035	-6.215826
55346		4.965762	-1.702278	-1.138937	4.110972	-0.124550	-6.358091	0.332824	-2.046569	3.445219	-0.272705	-0.824951	-0.195313	0.050054	-0.016144	-0.010906	0.728696	0.437418	-0.467002	0.244084	66.137636	-63.398010	-6.774651
55347		5.577781	-1.232484	-0.996541	3.760077	-0.067594	-5.399586	0.886085	-2.235964	3.798767	-0.315186	-0.818359	-0.175537	0.056105	-0.011219	-0.009391	0.716391	0.431043	-0.486328	0.253913	67.255033	-66.304783	-7.931438
55348		5.970326	-1.151630	-1.018503	3.645231	-0.017241	-4.841477	1.326269	-2.362440	4.156305	-0.358398	-0.794434	-0.165283	0.060040	-0.010206	-0.009548	0.702293	0.428554	-0.501911	0.266854	68.907774	-69.019176	-8.896315
55349		6.668355	-1.357155	-1.007076	3.742180	-0.168692	-4.043805	1.628888	-2.442840	4.511383	-0.403076	-0.790039	-0.143555	0.067083	-0.011983	-0.009355	0.686056	0.422471	-0.521737	0.280420	71.040683	-72.330042	-10.645029
55350		7.836473	-1.489625	-0.837140	3.776963	-0.413866	-2.750303	1.825585	-2.493557	4.845289	-0.446289	-0.763672	-0.115479	0.078791	-0.012919	-0.007515	0.668621	0.419416	-0.537747	0.296417	73.907203	-75.407761	-12.539238
55351		9.030864	-1.192420	-0.400470	3.113449	-0.700926	-1.272697	1.917255	-2.497591	5.147989	-0.496094	-0.739746	-0.098633	0.090616	-0.009562	-0.002973	0.649660	0.411555	-0.557625	0.312440	78.071648	-79.023592	-16.170387
55352		10.062728	-0.678062	0.045400	2.116557	-0.870260	0.008398	1.922093	-2.487962	5.413496	-0.530518	-0.710938	-0.068359	0.100746	-0.004067	0.001659	0.629997	0.406391	-0.573567	0.330108	84.971836	-82.305674	-22.044277
55353		11.121348	0.308787	0.295223	0.551036	-0.657495	1.282001	1.905112	-2.490749	5.632580	-0.580811	-0.673828	-0.040771	0.111020	0.006179	0.004385	0.609209	0.395796	-0.593042	0.347148	103.331425	-85.845227	-39.902531
55354		12.228544	0.903674	0.387990	-0.688759	-0.497749	2.423811	1.824095	-2.468014	5.839680	-0.622314	-0.634033	-0.013184	0.121892	0.012555	0.005490	0.587818	0.388106	-0.608624	0.365268	164.531800	-87.496442	-100.136255
55355		13.471663	1.602947	0.484619	-2.284180	-0.271816	3.563915	1.732160	-2.438536	6.016572	-0.666016	-0.594482	0.014404	0.134081	0.020018	0.006646	0.565627	0.374788	-0.627118	0.382522	-140.418302	-84.976537	-154.756305
55356		14.862256	2.565748	0.573277	-4.219603	0.036374	4.675508	1.533417	-2.401933	6.166344	-0.696289	-0.548584	0.028564	0.147654	0.030166	0.007730	0.543106	0.364169	-0.642169	0.400044	-127.280156	-81.455026	-167.095557
55357		16.271452	3.673097	0.620029	-6.525950	0.501800	5.539540	1.139673	-2.349688	6.270392	-0.733643	-0.500244	0.053955	0.161368	0.041761	0.008330	0.520460	0.347845	-0.659771	0.415725	-121.120272	-77.417918	-173.076654
55358		17.561089	4.805809	0.736527	-8.914719	0.880544	6.050986	0.654153	-2.323850	6.320029	-0.757568	-0.443115	0.070068	0.173874	0.053543	0.009562	0.498226	0.333333	-0.675070	0.430048	-118.276625	-73.611917	-175.624988
55359		18.910409	6.307972	0.817273	-11.782770	1.508947	6.212327	0.309060	-2.346294	6.305852	-0.781738	-0.390381	0.081787	0.186877	0.068981	0.010478	0.475474	0.315270	-0.691909	0.442483	-116.566644	-69.549258	-177.457790
55360		19.923651	8.979172	1.314266	-15.656097	2.208340	5.324625	0.099616	-2.377944	6.224550	-0.805420	-0.339844	0.095947	0.196139	0.095922	0.015534	0.453060	0.299062	-0.706767	0.453630	-115.666323	-65.747115	-178.369023
55361		20.131147	12.841915	2.475993	-20.323072	2.778854	2.651614	-0.064586	-2.368239	6.048577	-0.813721	-0.291260	0.116943	0.196995	0.134430	0.027067	0.429810	0.282785	-0.721417	0.463523	-115.255195	-61.920948	-178.836466
55362		19.680139	16.622202	3.341345	-24.130008	3.649284	-0.924873	-0.396863	-2.256368	5.635953	-0.824219	-0.243164	0.122314	0.191622	0.171740	0.035258	0.408975	0.266703	-0.734819	0.470797	-115.125537	-58.448600	-179.247884
55363		19.363721	18.601706	3.335160	-25.940671	4.398777	-3.514920	-0.703417	-2.116397	4.984811	-0.829834	-0.205566	0.136719	0.188557	0.190880	0.034699	0.388494	0.255619	-0.746474	0.475928	-115.587058	-55.417977	-178.805140
55364		18.434476	19.861756	2.948703	-26.445765	5.466500	-6.120759	-0.934842	-1.924877	4.210220	-0.826416	-0.172607	0.142578	0.179819	0.202575	0.030292	0.372379	0.242599	-0.757610	0.478024	-116.043112	-52.766169	-178.903484
55365		15.725752	21.815689	4.265136	-26.768187	4.915790	-10.608747	-1.156765	-1.746494	3.319928	-0.824951	-0.148193	0.155273	0.153232	0.220970	0.042729	0.356559	0.240260	-0.765732	0.478325	-117.177433	-50.886940	-177.560975
55366		12.551036	24.503251	7.339966	-27.503853	3.646173	-16.293684	-1.346725	-1.537452	2.324793	-0.822998	-0.139404	0.157227	0.122087	0.246956	0.072688	0.346689	0.232607	-0.774394	0.475410	-118.142651	-49.298251	-177.308694
55367		10.252772	25.325812	10.121052	-27.378806	1.307221	-19.692893	-1.276256	-1.227281	1.272913	-0.823242	-0.135010	0.166016	0.100293	0.254543	0.100209	0.337360	0.240497	-0.778211	0.471950	-119.736051	-48.770845	-175.136147
55368		9.303370	24.388760	11.030370	-26.259422	0.367104	-20.458669	-0.744778	-0.836674	0.327333	-0.814453	-0.132813	0.166016	0.092174	0.244448	0.109781	0.334222	0.239938	-0.781760	0.468590	-120.525892	-48.368062	-174.651864
55369		10.161887	23.126654	10.318157	-25.826497	-0.210492	-18.617098	0.016629	-0.390997	-0.400085	-0.818604	-0.141602	0.168457	0.101879	0.231054	0.103400	0.330880	0.256738	-0.778097	0.468156	-121.526934	-49.051590	-172.130974
55370		16.785545	21.524005	8.356817	-28.467022	0.108117	-11.929806	0.814806	0.010529	-0.804131	-0.809570	-0.141357	0.170654	0.168723	0.214220	0.084433	0.331753	0.261186	-0.775126	0.470001	-121.332966	-49.448000	-171.770787
55371		10.415425	18.339172	8.499105	-22.185324	-1.714589	-14.491620	1.689473	0.625013	-1.421800	-0.811768	-0.147949	0.168701	0.105719	0.181919	0.086203	0.332756	0.283843	-0.763268	0.475529	-121.283050	-51.070176	-169.285207
55372		13.421846	19.610805	2.808642	-23.701522	3.206855	-10.538132	2.205221	1.161857	-2.628984	-0.808838	-0.167725	0.173584	0.136946	0.194000	0.029443	0.340258	0.294737	-0.752235	0.481141	-120.273034	-52.705153	-168.962989
55373		19.147070	-23.759584	-11.269705	10.322154	0.259743	21.031617	3.491572	1.703533	-2.020404	-0.806396	-0.174316	0.164795	0.188079	-0.237473	-0.118455	0.343448	0.320896	-0.731627	0.493753	-118.843107	-55.028530	-166.850100
55374		23.696697	-16.507701	3.881946	-0.283077	-11.369273	17.013731	3.523302	1.974414	-1.302865	-0.808350	-0.183350	0.154053	0.236231	-0.167240	0.033551	0.348158	0.326767	-0.717283	0.507459	-115.857045	-56.211615	-168.022057
55375		27.168306	22.320548	15.526287	-35.135720	-12.809721	-0.948311	1.032921	2.333050	-3.268099	-0.804932	-0.216309	0.143799	0.277068	0.217912	0.153186	0.361265	0.347231	-0.699484	0.509550	-115.434348	-59.233713	-166.709123
55376		21.968479	14.787623	8.756161	-24.640204	-7.508702	0.878825	-0.177636	1.097997	-4.431890	-0.802002	-0.244873	0.137939	0.223366	0.143030	0.086214	0.376612	0.359523	-0.690075	0.502696	-116.502509	-61.792620	-165.599280
55377		10.676789	3.317557	0.143865	-7.496467	-0.812169	-1.557542	-0.250117	0.504866	-3.959753	-0.789551	-0.280029	0.138916	0.107400	0.031055	0.001128	0.388983	0.383030	-0.675832	0.495209	-119.125729	-64.841244	-161.843975
55378		1.886533	0.202264	0.059742	-0.923861	-0.267222	-8.176174	-0.108322	0.477811	-3.554509	-0.781982	-0.310791	0.133057	0.018899	0.001687	0.000551	0.399546	0.393587	-0.668253	0.488764	-120.927807	-66.742280	-159.936538
55379		5.993342	5.502015	0.886093	-7.263481	-0.660462	-6.101054	0.086980	0.776175	-3.434772	-0.779297	-0.328369	0.133301	0.060900	0.053976	0.008649	0.410810	0.413888	-0.652779	0.483540	-123.784567	-69.488163	-155.901896
55380		8.528792	8.124648	2.001014	-10.533205	-1.645631	-4.419500	0.341960	0.785513	-2.968071	-0.771484	-0.359131	0.118652	0.086559	0.079934	0.019809	0.419797	0.422331	-0.644116	0.480126	-125.246236	-71.145251	-154.141668
55381		8.768500	8.372392	1.322289	-10.464065	-1.191487	-3.663864	-0.034714	0.797321	-2.371338	-0.764160	-0.378662	0.123779	0.088721	0.082678	0.012856	0.428846	0.437905	-0.630353	0.476430	-128.374810	-73.317569	-150.021521
55382		10.176628	1.730949	1.679909	-4.307828	-2.795214	-0.701842	-0.317488	0.797475	-1.956178	-0.763672	-0.398682	0.117432	0.101995	0.016339	0.016366	0.436694	0.441467	-0.625077	0.472952	-129.776106	-74.476511	-148.752471
55383		10.495146	2.286033	2.311134	-4.607380	-3.411611	-0.440127	-0.376492	0.568700	-1.835486	-0.756592	-0.409424	0.117920	0.105221	0.021939	0.022771	0.444793	0.454071	-0.613527	0.468576	-134.004504	-76.244274	-143.831413
55384		8.685378	3.823763	1.680778	-5.526528	-2.288014	-2.256100	-0.323580	0.428013	-1.740625	-0.749512	-0.425049	0.109375	0.087218	0.037507	0.016560	0.450905	0.457672	-0.609352	0.464663	-136.453065	-77.121776	-141.505870
55385		8.710606	4.314344	1.106797	-5.663281	-1.726235	-2.024317	-0.012706	0.342747	-1.491996	-0.749023	-0.435791	0.116211	0.087443	0.042493	0.010916	0.457150	0.469235	-0.598322	0.461349	-141.795348	-78.524003	-135.400953
55386		10.161865	2.991814	-1.184537	-4.182755	0.143850	-0.009634	0.296759	0.322692	-1.328818	-0.748535	-0.451172	0.116699	0.101795	0.029260	-0.011966	0.460479	0.473136	-0.593763	0.459943	-144.141755	-79.131188	-132.836030
55387		9.879867	3.155667	-1.547692	-3.999743	0.517049	-0.132877	0.137930	0.353881	-1.218324	-0.748291	-0.462158	0.119141	0.098961	0.030965	-0.015630	0.465814	0.483513	-0.583002	0.457538	-150.597346	-80.262308	-125.602522
55388		9.688341	2.223104	0.469345	-3.149536	-1.535282	-0.498789	0.071423	0.304861	-1.089627	-0.748047	-0.473145	0.112793	0.097010	0.021701	0.004553	0.469023	0.486153	-0.579479	0.455936	-153.360058	-80.710863	-122.759913
55389		10.181783	2.462356	1.854696	-3.281322	-2.966677	-0.137849	0.108415	0.224751	-1.026343	-0.738770	-0.481934	0.119629	0.101963	0.024091	0.018446	0.473616	0.495561	-0.569659	0.453426	-161.397116	-81.493991	-114.022112
55390		10.329645	3.311841	1.857007	-4.028539	-2.908892	0.007010	0.130122	0.080308	-1.029800	-0.733887	-0.497070	0.117920	0.103473	0.032574	0.018550	0.475858	0.498617	-0.566608	0.451548	-165.066560	-81.709236	-110.237659
55391		10.467014	2.727010	0.626047	-3.073169	-1.799228	0.419829	0.049702	0.019565	-0.966413	-0.733643	-0.505859	0.122559	0.104801	0.026762	0.006257	0.480316	0.507084	-0.557917	0.448208	-174.569641	-82.100940	-100.195206
55392		10.271946	3.430222	0.394589	-3.655711	-1.496577	0.278413	-0.059973	-0.017492	-0.869947	-0.724365	-0.512451	0.122803	0.102867	0.033856	0.003945	0.482373	0.509405	-0.555875	0.445900	-178.208752	-82.123006	-96.556151
55393		9.922899	3.194614	0.058444	-3.156726	-1.159569	0.054575	-0.074521	-0.042861	-0.757116	-0.721924	-0.519043	0.116211	0.099349	0.031570	0.000594	0.486700	0.516406	-0.548414	0.442369	172.620135	-82.184009	-87.005278
55394		9.861170	4.142344	-0.519894	-3.988338	-0.516082	0.111949	-0.131097	-0.016132	-0.629633	-0.717285	-0.527832	0.123291	0.098742	0.041109	-0.005218	0.488393	0.517850	-0.547106	0.440430	169.956939	-82.120638	-84.392849
55395		10.025550	3.675733	-0.207397	-3.341433	-0.889174	0.292242	-0.316964	0.029838	-0.506774	-0.717041	-0.534180	0.127686	0.100348	0.036500	-0.002147	0.493047	0.522960	-0.540839	0.436934	161.929158	-82.019537	-76.179926
55396		10.181327	2.893450	0.200801	-2.540558	-1.360268	0.373915	-0.368226	0.034095	-0.397218	-0.712402	-0.543213	0.121338	0.101871	0.028736	0.001938	0.494978	0.523053	-0.540509	0.435042	160.131271	-81.964188	-74.577515
55397		10.085071	2.300192	0.063261	-1.762914	-1.241721	0.304314	-0.339443	0.007974	-0.311354	-0.712402	-0.545166	0.123535	0.100886	0.022846	0.000590	0.499308	0.527125	-0.535118	0.431832	153.427575	-81.744228	-67.763930
55398		10.019448	2.194560	-0.293670	-1.601812	-0.882860	0.284162	-0.345931	-0.005126	-0.280332	-0.712158	-0.549561	0.121582	0.100225	0.021800	-0.002972	0.500820	0.527025	-0.535128	0.430188	152.245909	-81.668210	-66.770207
55399		10.187195	2.251039	-0.118712	-1.497371	-1.057603	0.458607	-0.382895	-0.004446	-0.264763	-0.714111	-0.558350	0.124023	0.101902	0.022373	-0.001228	0.505215	0.530377	-0.530305	0.426890	146.379752	-81.363535	-60.877203
55400		10.313739	2.478806	0.021959	-1.695947	-1.190056	0.590466	-0.404515	0.009329	-0.293355	-0.711914	-0.558350	0.121826	0.103174	0.024637	0.000165	0.506947	0.530116	-0.530354	0.425096	145.205549	-81.273150	-59.923990
55401		10.095072	1.690642	-0.313022	-0.739978	-0.866795	0.364135	-0.380329	0.012793	-0.322634	-0.702637	-0.567139	0.117676	0.100978	0.016738	-0.003169	0.511578	0.533103	-0.525639	0.421655	139.820570	-80.888322	-54.561453
55402		9.767277	1.671819	-0.564630	-0.692228	-0.573799	0.071894	-0.380805	-0.005233	-0.365456	-0.704834	-0.567139	0.117676	0.097703	0.016529	-0.005675	0.513359	0.533103	-0.525468	0.419699	138.621392	-80.748731	-53.567883
55403		9.837511	1.815256	-0.623724	-0.664711	-0.492489	0.176120	-0.386479	-0.015582	-0.399734	-0.697754	-0.580322	0.113525	0.098412	0.017944	-0.006264	0.518084	0.535916	-0.520929	0.415952	133.852022	-80.265060	-48.864752
55404		10.261952	2.406002	-0.793502	-1.138894	-0.330199	0.690637	-0.403164	-0.026188	-0.451417	-0.699951	-0.580566	0.111328	0.102674	0.023812	-0.007970	0.520045	0.536104	-0.520611	0.413655	132.650219	-80.065596	-47.879631
55405		9.925408	1.523069	-1.337189	-0.090788	0.196345	0.315221	-0.360618	-0.055028	-0.452257	-0.693115	-0.591309	0.113770	0.099292	0.014982	-0.013372	0.524638	0.538882	-0.516214	0.409736	128.613856	-79.498535	-43.922644
55406		9.556945	1.663436	-0.949334	-0.266659	-0.134272	-0.070300	-0.337696	-0.070878	-0.472706	-0.681641	-0.597900	0.109619	0.095612	0.016392	-0.009487	0.526343	0.539364	-0.515803	0.407426	127.687701	-79.259447	-43.177378
55407		9.415422	2.242856	-0.613479	-0.741197	-0.387035	-0.150516	-0.283004	-0.078964	-0.502342	-0.677246	-0.597900	0.105225	0.094213	0.022183	-0.006129	0.530628	0.542275	-0.511395	0.403543	124.336228	-78.632615	-39.877720
55408		9.430482	2.331146	-0.424097	-0.795394	-0.577242	-0.138908	-0.182381	-0.100724	-0.514732	-0.674805	-0.600098	0.100830	0.094367	0.023065	-0.004215	0.531914	0.543314	-0.510618	0.401431	123.646829	-78.354617	-39.281006
55409		9.577483	3.216410	0.062717	-1.542884	-0.992296	0.122703	-0.126433	-0.046876	-0.566575	-0.667725	-0.615479	0.101318	0.095865	0.031893	0.000629	0.535869	0.546422	-0.505919	0.397886	120.790346	-77.698453	-36.410120
55410		9.819116	2.003620	-0.260304	-0.221376	-0.812818	0.176673	-0.087815	0.026147	-0.579843	-0.658691	-0.622070	0.096924	0.098248	0.019750	-0.002625	0.537339	0.547605	-0.504423	0.396173	119.911304	-77.417935	-35.561658
55411		9.973559	2.766197	-0.465034	-0.764646	-0.545492	0.505131	-0.088943	0.062762	-0.632808	-0.658447	-0.628662	0.099365	0.099821	0.027344	-0.004694	0.541457	0.550362	-0.499569	0.392882	117.283513	-76.766542	-32.925802
55412		10.496186	2.420893	-0.473227	-0.254656	-0.626667	0.948192	-0.175475	0.128401	-0.692220	-0.646973	-0.637207	0.099609	0.105042	0.023841	-0.004821	0.543630	0.551366	-0.497642	0.390914	116.149743	-76.443765	-31.863885
55413		10.973369	2.035906	-0.634575	0.402007	-0.525691	1.346335	-0.215116	0.196045	-0.766404	-0.642090	-0.650391	0.106689	0.109804	0.019931	-0.006475	0.548446	0.553500	-0.492709	0.387404	113.554374	-75.767411	-29.345388
55414		11.129842	2.017986	-0.799890	0.569336	-0.363308	1.506693	-0.307057	0.241680	-0.893766	-0.626465	-0.654785	0.086914	0.111377	0.019670	-0.008164	0.551629	0.554391	-0.490146	0.384854	112.103745	-75.347379	-28.029316
55415		11.329173	0.855406	-0.194824	1.856647	-1.045429	1.348787	-0.335656	0.308828	-1.026883	-0.614746	-0.665771	0.084961	0.113330	0.007969	-0.002137	0.557260	0.556268	-0.484818	0.380760	109.532950	-74.568495	-25.609728
55416		11.280260	0.774612	0.170318	2.008139	-1.378282	1.229928	-0.303296	0.401972	-1.181443	-0.598877	-0.678955	0.072021	0.112849	0.007082	0.001465	0.561330	0.557515	-0.480963	0.377836	107.806873	-73.998930	-23.997389
55417		11.314836	0.939501	0.526928	2.022435	-1.662059	1.247640	-0.272476	0.530686	-1.368712	-0.585205	-0.687744	0.070068	0.113223	0.008627	0.004957	0.567733	0.559494	-0.474404	0.373613	105.179904	-73.085174	-21.498761
55418		11.465810	0.466693	0.571262	2.680502	-1.715805	1.227092	-0.190472	0.644477	-1.568404	-0.566895	-0.703125	0.068359	0.114708	0.003773	0.005339	0.572717	0.561454	-0.468509	0.370491	103.208772	-72.302291	-19.548759
55419		11.918432	0.432187	0.385449	3.111148	-1.502856	1.608441	-0.097939	0.756674	-1.768609	-0.555420	-0.711914	0.062012	0.119230	0.003269	0.003402	0.579685	0.563947	-0.460278	0.366159	100.688472	-71.195149	-17.071799
55420		12.381612	0.567653	0.460916	3.348024	-1.533489	2.030968	-0.035740	0.860570	-1.977826	-0.534912	-0.724854	0.060303	0.123882	0.004452	0.004075	0.585367	0.566792	-0.452228	0.362742	98.731969	-70.158881	-15.020547
55421		13.067265	0.627334	0.177438	3.857752	-1.201939	2.630919	-0.013386	0.990176	-2.183418	-0.508057	-0.733643	0.053955	0.130737	0.004846	0.001127	0.593086	0.569597	-0.442309	0.358010	96.383291	-68.827516	-12.669193
55422		13.859498	0.603649	-0.152144	4.504663	-0.829346	3.282442	0.017790	1.110045	-2.375858	-0.485352	-0.746582	0.049805	0.138642	0.004390	-0.002290	0.599706	0.572873	-0.432163	0.354126	94.486210	-67.529965	-10.615116
55423		14.863927	0.880996	-0.290101	5.027765	-0.590201	4.192846	-0.001004	1.257187	-2.551078	-0.462402	-0.761719	0.050293	0.148713	0.006913	-0.003836	0.608227	0.575640	-0.420575	0.349020	92.322054	-65.983764	-8.425239
55424		16.067459	0.164381	-0.108104	6.543055	-0.745547	4.843857	-0.009922	1.381677	-2.739123	-0.435547	-0.770508	0.041748	0.160664	-0.000557	-0.002191	0.615882	0.578896	-0.408439	0.344597	90.515691	-64.431661	-6.442222
55425		18.154734	-1.498304	0.267687	9.367407	-1.163144	5.768706	0.066913	1.571159	-2.888973	-0.408203	-0.785889	0.035645	0.181319	-0.017604	0.001246	0.624959	0.581614	-0.394921	0.339395	88.561320	-62.674371	-4.393695
55426		18.955794	-1.970809	-0.077417	10.682683	-0.637031	5.955925	0.138089	1.702787	-3.079873	-0.381348	-0.792236	0.033691	0.189209	-0.022622	-0.002401	0.633062	0.585151	-0.380329	0.334934	86.950599	-60.869988	-2.476295
55427		19.409061	-2.093021	0.678972	11.489130	-1.143693	5.941687	-0.052295	1.754355	-3.343121	-0.351563	-0.812012	0.023193	0.193754	-0.024169	0.005095	0.643089	0.587487	-0.365287	0.328422	85.250124	-58.838401	-0.752314
55428		21.050493	-4.744333	0.882866	15.144124	-1.321040	5.525619	-0.355893	1.814617	-3.509956	-0.322510	-0.816162	0.023438	0.209698	-0.051115	0.007012	0.653097	0.589661	-0.349636	0.321742	83.708802	-56.733735	0.827827
55429		22.192976	-6.216534	-0.802826	17.695784	0.477768	4.964881	-0.464593	1.851954	-3.656702	-0.291016	-0.829102	0.014893	0.220658	-0.066229	-0.009925	0.664441	0.590382	-0.334223	0.313469	82.129478	-54.515752	2.164554
55430		21.832425	-4.986188	-1.318016	17.095453	1.403445	4.642556	-0.364654	1.865471	-3.840707	-0.261475	-0.840088	0.008789	0.217178	-0.054066	-0.015113	0.674512	0.592532	-0.317164	0.305525	80.933752	-52.178877	3.393952
55431		21.783729	-3.671115	-1.961268	16.644130	2.433667	4.638190	-0.236714	1.845953	-3.913968	-0.228027	-0.846436	0.006836	0.216870	-0.040987	-0.021571	0.684777	0.593876	-0.300750	0.296549	79.846182	-49.828736	4.349562
55432		23.208637	-0.998591	-3.909750	16.239732	5.053943	6.483574	0.198643	1.871490	-3.922467	-0.209961	-0.854980	0.007080	0.231452	-0.014489	-0.041278	0.692665	0.597541	-0.282310	0.288895	79.225136	-47.421072	5.328337
55433		24.152555	0.380666	-5.136695	16.516325	6.778735	7.247775	1.276733	1.786073	-3.818657	-0.169434	-0.863281	0.020752	0.241072	-0.000462	-0.053515	0.697238	0.603727	-0.264033	0.282239	79.245209	-45.151914	6.085913
55434		21.271655	0.141899	-4.452364	15.162894	6.144920	4.491278	1.817577	1.590638	-3.655639	-0.147217	-0.863037	0.038574	0.212337	-0.002050	-0.046222	0.698853	0.612501	-0.244805	0.276619	79.787705	-42.923728	6.803335
55435		17.794580	-1.556152	-4.103998	14.155687	5.534816	0.427598	1.304457	1.291320	-3.332219	-0.128906	-0.878174	0.045654	0.177386	-0.018247	-0.042300	0.701056	0.618687	-0.229358	0.270449	80.137602	-41.013105	7.263245
55436		13.832758	-3.072358	-3.798706	12.418299	4.868078	-3.706406	0.478626	1.001924	-2.922994	-0.106689	-0.878174	0.041260	0.137667	-0.032647	-0.038754	0.704600	0.622287	-0.216108	0.263809	80.175461	-39.262102	7.629557
55437		8.389239	-3.766467	-1.948053	8.827669	2.477310	-7.741423	-0.529071	1.053828	-2.514667	-0.095459	-0.878174	0.036865	0.083306	-0.038767	-0.019819	0.710522	0.621361	-0.206260	0.257927	79.585352	-37.852883	8.022800
55438		-0.255080	12.138872	-2.869563	-7.725868	4.059717	-0.897931	-1.432446	0.432105	-2.286745	-0.073242	-0.878418	0.005859	-0.001228	0.121198	-0.029561	0.718309	0.618015	-0.199428	0.249634	78.766004	-36.516759	8.020068
55439		10.552447	10.207386	-2.535775	2.306438	4.921269	4.058960	-2.263268	-0.153051	-2.050454	-0.063965	-0.882813	-0.013916	0.106581	0.100690	-0.026421	0.727360	0.611959	-0.197141	0.239979	77.712883	-35.485671	7.608899
55440		13.507346	-2.254418	-6.526877	12.275576	7.509864	-5.013273	-2.527844	-0.262435	-1.070282	-0.068359	-0.887695	-0.046875	0.135033	-0.024088	-0.064794	0.736059	0.604078	-0.197815	0.232759	76.463930	-34.918819	7.262591
55441		8.680155	-6.013753	-6.497133	10.679999	6.201013	-10.908976	-3.028466	-0.206079	0.129695	-0.075195	-0.881592	-0.073730	0.086907	-0.061055	-0.063962	0.744253	0.593157	-0.202909	0.230391	74.833541	-35.123903	7.179749
55442		2.818600	-7.317565	-2.967315	6.700257	1.666764	-14.568508	-3.377404	-0.411477	1.276814	-0.095215	-0.875488	-0.106934	0.028714	-0.073480	-0.028375	0.752267	0.579671	-0.212063	0.230447	72.914479	-35.889381	7.151682
55443		1.005890	-6.341259	-1.239140	4.686771	-0.173837	-14.368888	-2.690602	-0.634926	1.775138	-0.117676	-0.869385	-0.131592	0.010660	-0.063479	-0.011504	0.756627	0.568609	-0.223074	0.233318	71.447497	-37.077977	7.155992
55444		1.283701	-3.201148	-0.366674	3.002129	-0.333500	-11.517039	-2.092151	-0.831336	1.919780	-0.140137	-0.863281	-0.158447	0.013158	-0.031922	-0.003278	0.759334	0.559462	-0.234074	0.235847	70.317641	-38.270511	7.042901
55445		2.230036	-1.881241	-0.438112	2.946464	0.121543	-9.896652	-2.019139	-1.065391	2.100077	-0.169189	-0.856934	-0.169678	0.022519	-0.018619	-0.004073	0.760628	0.550730	-0.246822	0.239208	69.328425	-39.714161	6.871296
55446		2.850261	-2.201009	-1.241618	3.721994	0.808195	-9.863117	-1.741066	-1.356580	2.397674	-0.196289	-0.844238	-0.185547	0.028847	-0.021771	-0.012031	0.760788	0.542701	-0.260614	0.242399	68.527987	-41.272793	6.567336
55447		3.705514	-2.263818	-1.185391	4.393961	0.759915	-9.200597	-1.313313	-1.606997	2.749500	-0.223145	-0.840088	-0.201172	0.037455	-0.022201	-0.011407	0.758298	0.536161	-0.276222	0.247421	68.061156	-43.175215	6.222067
55448		4.600865	-1.967131	-1.090149	4.799512	0.777902	-8.205636	-0.931980	-1.857408	3.111501	-0.261475	-0.824951	-0.201904	0.046406	-0.019001	-0.010382	0.754259	0.530537	-0.292690	0.252897	67.835080	-45.224431	5.780089
55449		5.078696	-2.290846	-0.660029	5.216340	0.255684	-7.764062	-0.473224	-2.063421	3.465046	-0.299561	-0.820801	-0.202148	0.051238	-0.022038	-0.006020	0.747443	0.526321	-0.310693	0.260354	67.969189	-47.604730	5.288943
55450		5.241127	-2.588706	-0.387462	5.398538	-0.128499	-7.542256	0.194452	-2.205525	3.821922	-0.342529	-0.799072	-0.189453	0.052932	-0.024875	-0.003317	0.738359	0.523856	-0.328646	0.269060	68.493972	-50.104387	4.739886
55451		5.817977	-2.192110	-0.185072	5.303366	-0.201228	-6.569936	0.885644	-2.291886	4.176812	-0.380859	-0.783691	-0.176758	0.058637	-0.020693	-0.001274	0.725947	0.523241	-0.347296	0.280367	69.501580	-52.904914	4.147715
55452		6.810871	-1.742681	-0.163399	5.363137	-0.079862	-5.266058	1.403671	-2.359586	4.522151	-0.419434	-0.766357	-0.157471	0.068493	-0.015873	-0.000942	0.711596	0.523612	-0.365583	0.292936	70.853813	-55.798247	3.473536
55453		7.460489	-1.334863	-0.444042	5.192793	0.281956	-4.282824	1.797760	-2.412587	4.860065	-0.467041	-0.744141	-0.125000	0.074946	-0.011495	-0.003647	0.694608	0.524383	-0.384685	0.307506	72.607548	-58.971658	2.640539
55454		8.227018	-1.198174	-0.555884	5.166312	0.391724	-3.288472	2.112044	-2.410255	5.164487	-0.512207	-0.722412	-0.105713	0.082602	-0.009799	-0.004676	0.676187	0.525252	-0.403152	0.323031	74.690026	-62.197274	1.639609
55455		9.581757	-0.917670	-0.487390	5.104526	0.340233	-1.646274	2.317943	-2.375266	5.438688	-0.558105	-0.687012	-0.069092	0.096068	-0.006518	-0.003820	0.655723	0.525555	-0.422100	0.340075	77.216048	-65.646357	0.321874
55456		11.022869	-0.340757	-0.236878	4.592944	0.126854	0.213596	2.302226	-2.334280	5.663664	-0.599121	-0.656250	-0.045654	0.110284	-0.000267	-0.001097	0.634781	0.524843	-0.440476	0.357175	80.152675	-69.088559	-1.429591
55457		12.435489	0.330912	-0.272608	3.798116	0.141256	2.033323	2.188253	-2.297510	5.825211	-0.638428	-0.616699	-0.020264	0.124208	0.006948	-0.001236	0.612770	0.522550	-0.459483	0.374605	83.903296	-72.672016	-4.064785
55458		13.749983	1.365591	-0.327608	2.430226	0.167185	3.790010	2.117881	-2.315645	5.931983	-0.677734	-0.570557	0.004883	0.137038	0.017748	-0.001514	0.590478	0.519459	-0.477833	0.391374	89.120443	-76.145030	-8.219169
55459		14.951565	2.791420	0.028204	0.353539	-0.243804	5.388426	2.028889	-2.321670	6.040539	-0.708252	-0.526611	0.030273	0.148563	0.032395	0.002324	0.567052	0.514983	-0.496675	0.408115	97.584965	-79.617367	-15.682383
55460		15.926403	4.067114	0.379724	-1.778036	-0.742291	6.512867	1.854140	-2.271458	6.131555	-0.741211	-0.473877	0.055420	0.157859	0.045477	0.006002	0.543816	0.509357	-0.514815	0.424009	112.634295	-82.691072	-29.830810
55461		16.965894	5.813080	0.453418	-4.501705	-0.977333	7.522206	1.586490	-2.210589	6.183181	-0.762695	-0.425537	0.071777	0.167688	0.063288	0.006884	0.520255	0.501844	-0.533389	0.439299	143.631457	-84.819739	-60.087342
55462		18.240927	7.699849	0.638472	-7.484509	-1.371081	8.473473	1.237068	-2.152085	6.207573	-0.782227	-0.368408	0.085693	0.179818	0.082558	0.008828	0.497505	0.492961	-0.551531	0.453091	-174.380832	-84.557312	-101.529017
55463		19.552687	10.580273	0.586061	-11.584588	-1.464475	9.109992	0.890593	-2.132342	6.153884	-0.802002	-0.313232	0.110840	0.192069	0.111715	0.008410	0.474879	0.482492	-0.570045	0.465553	-147.875487	-82.161562	-127.690444
55464		20.308595	14.333742	1.075853	-16.590672	-1.938084	8.622058	0.485974	-2.047498	5.985482	-0.812256	-0.271484	0.118652	0.198550	0.149295	0.013165	0.453718	0.471117	-0.587913	0.475970	-135.651019	-79.102913	-139.792561
55465		20.263287	18.410164	1.668565	-21.717258	-2.289206	6.777212	-0.006110	-1.900160	5.611985	-0.813721	-0.220947	0.130615	0.197192	0.189687	0.018571	0.434350	0.458800	-0.605370	0.484118	-129.374325	-75.956302	-146.216198
55466		19.389440	21.330951	1.806196	-25.241577	-2.020482	4.073272	-0.528939	-1.726704	4.976957	-0.823975	-0.181396	0.136230	0.188344	0.218092	0.019132	0.418155	0.446613	-0.621592	0.489189	-126.191446	-73.097452	-149.832289
55467		17.579040	22.711083	1.203252	-26.647614	-0.891090	0.922937	-1.009912	-1.623680	4.107245	-0.822510	-0.155029	0.146484	0.170978	0.230717	0.012275	0.405098	0.435782	-0.636391	0.490914	-124.930619	-70.641696	-151.745280
55468		15.034834	23.442143	1.876097	-26.997584	-0.802082	-2.775953	-1.450549	-1.524644	3.162577	-0.825195	-0.139648	0.148438	0.146475	0.236891	0.018175	0.395588	0.426452	-0.649804	0.489290	-124.898059	-68.658205	-152.666585
55469		12.310671	24.351471	4.276133	-27.362425	-2.214522	-6.782663	-1.756658	-1.406182	2.188304	-0.814453	-0.128418	0.156982	0.120135	0.245208	0.041464	0.389325	0.419904	-0.661109	0.484811	-125.830737	-67.208509	-152.694117
55470		10.255976	24.790643	6.542823	-27.384035	-3.558084	-9.801407	-1.757314	-1.273069	1.176940	-0.816895	-0.121826	0.161377	0.100686	0.249069	0.063888	0.385940	0.415655	-0.670256	0.478579	-127.267502	-66.234824	-152.226369
55471		9.230253	24.393432	7.135376	-26.760463	-3.706889	-10.943766	-1.396781	-1.083849	0.280978	-0.807861	-0.128174	0.168213	0.091577	0.244556	0.070145	0.384691	0.415528	-0.675670	0.472038	-129.079005	-65.802468	-151.059532
55472		10.470719	23.090858	6.091201	-25.889349	-3.035763	-9.141245	-0.804859	-0.717176	-0.450701	-0.807861	-0.130371	0.168213	0.105010	0.230916	0.060359	0.385013	0.417197	-0.677990	0.466949	-130.610431	-65.739868	-149.886090
55473		19.110426	20.618853	2.983437	-26.200325	-2.449259	0.521061	-0.104582	-0.505433	-0.789839	-0.807617	-0.136963	0.175049	0.191841	0.205448	0.030211	0.385741	0.421981	-0.676783	0.463790	-132.009038	-66.000179	-148.358491
55474		9.877845	14.825731	8.464562	-18.261810	-7.066840	-7.449994	0.400122	0.269131	-1.362362	-0.804932	-0.150146	0.166504	0.099899	0.147410	0.084807	0.388973	0.426736	-0.672432	0.463067	-132.722252	-66.683274	-147.329775
55475		13.419349	16.212040	8.250414	-20.532127	-7.504261	-4.062891	0.709570	1.022721	-2.642082	-0.804443	-0.165527	0.173584	0.136738	0.160033	0.082379	0.397604	0.435716	-0.662200	0.462119	-134.031203	-68.324744	-145.428242
55476		18.095529	-22.394573	-3.746449	16.401621	-4.142541	13.782743	2.015360	1.622320	-2.275346	-0.803955	-0.176514	0.162598	0.178071	-0.225580	-0.041184	0.403800	0.443451	-0.649251	0.467729	-133.482318	-69.911678	-144.780014
55477		22.275561	-21.544743	4.358109	14.204052	-11.680105	15.506193	3.559047	1.984408	-1.410883	-0.806152	-0.183350	0.154053	0.221617	-0.217717	0.037517	0.406435	0.451162	-0.632907	0.480304	-130.800670	-71.416635	-145.465446
55478		22.941040	16.302767	13.148482	-22.411315	-14.888679	5.708408	2.435893	2.124328	-2.561496	-0.802979	-0.209717	0.143555	0.232853	0.158463	0.130972	0.413744	0.459028	-0.616816	0.487491	-129.455197	-73.325758	-145.412867
55479		21.583556	17.313970	9.530132	-22.129630	-10.995328	5.862365	-0.071797	1.166421	-4.019860	-0.797607	-0.240479	0.137695	0.219808	0.168782	0.093966	0.428768	0.468126	-0.604807	0.480859	-133.306144	-75.661108	-141.580222
55480		14.763244	6.248941	0.945195	-8.775827	-2.581924	3.385022	-0.390039	0.490054	-4.006973	-0.787842	-0.268799	0.145264	0.148867	0.059533	0.008970	0.440724	0.478139	-0.595178	0.472132	-139.695874	-77.450308	-135.241599
55481		5.498898	-1.458587	-0.117236	0.715045	-0.851161	-4.232393	0.652580	0.379912	-3.649857	-0.780029	-0.301758	0.139404	0.054708	-0.015582	-0.001326	0.450661	0.489070	-0.583576	0.465997	-147.126845	-79.052393	-127.431250
55482		5.687335	2.448964	2.888701	-3.181664	-3.500089	-4.882236	0.983878	0.593600	-3.360560	-0.774902	-0.325928	0.144531	0.057358	0.023387	0.028834	0.457763	0.499639	-0.571622	0.462668	-154.917962	-80.288349	-118.939930
55483		8.726357	9.489449	2.571992	-10.158487	-3.147508	-2.086344	0.918274	0.585755	-3.184445	-0.769775	-0.347900	0.147217	0.088834	0.093370	0.025892	0.466278	0.508936	-0.559801	0.458467	-165.039398	-81.380869	-108.332529
55484		9.673254	6.250662	-1.365042	-6.486046	0.354036	-0.205204	0.315320	0.539169	-2.752132	-0.764648	-0.367676	0.141113	0.097544	0.061190	-0.013815	0.473264	0.516094	-0.550747	0.454253	-175.135821	-81.960618	-97.946830
55485		8.185280	3.385286	-1.889601	-3.327037	0.956085	-1.443491	0.109075	0.629627	-2.084368	-0.759766	-0.380615	0.143555	0.082140	0.033008	-0.019136	0.481220	0.520233	-0.543212	0.450229	174.976372	-82.417684	-88.075748
55486		10.572498	4.243031	1.821323	-4.191431	-2.929059	0.528788	-0.758926	0.710289	-1.909760	-0.759277	-0.400635	0.135254	0.106188	0.041486	0.017678	0.489411	0.521971	-0.538195	0.445386	165.767157	-82.637329	-79.226780
55487		9.746141	2.754753	2.480410	-2.563452	-3.481413	-0.324068	-0.532005	0.461843	-1.848630	-0.751953	-0.420166	0.133545	0.097768	0.026710	0.024507	0.497880	0.524202	-0.532990	0.439601	155.612838	-82.572766	-69.464324
55488		8.419289	4.818767	0.982923	-4.416072	-1.681097	-1.283852	-0.030850	0.297778	-1.667633	-0.744873	-0.431152	0.129395	0.084605	0.047485	0.009696	0.502420	0.527903	-0.527910	0.436124	148.617747	-82.275985	-62.425902
55489		9.547189	4.366915	0.455510	-3.687655	-1.283671	-0.056789	0.122977	0.397424	-1.462403	-0.748779	-0.444580	0.127686	0.095797	0.042967	0.004392	0.508111	0.530712	-0.522407	0.432734	141.374596	-81.970348	-55.227658
55490		10.726126	3.275259	-0.646291	-2.283712	-0.351816	1.180649	-0.173346	0.714295	-1.255340	-0.746094	-0.459961	0.125732	0.107440	0.032073	-0.006874	0.513157	0.531998	-0.517604	0.430969	135.572906	-81.798804	-49.467972
55491		9.321320	2.368791	0.291403	-1.430790	-1.092653	-0.360679	-0.583297	0.834864	-1.084725	-0.743652	-0.472900	0.126221	0.093351	0.023189	0.002456	0.520935	0.531038	-0.513434	0.427798	128.674021	-81.605097	-43.014469
55492		9.401414	3.020523	-0.057694	-1.930939	-0.631526	-0.149114	-0.545075	0.708825	-1.050489	-0.738770	-0.481934	0.115234	0.094168	0.029709	-0.000992	0.526455	0.530792	-0.509934	0.425526	123.779625	-81.357854	-38.381608
55493		9.533876	3.502009	-0.096783	-2.259934	-0.490346	0.077689	-0.122412	0.510744	-0.903922	-0.734131	-0.490723	0.111084	0.095493	0.034588	-0.001233	0.531701	0.531217	-0.506059	0.423092	119.259827	-80.986543	-34.057498
55494		9.679480	3.131838	0.848033	-1.871533	-1.438760	0.119415	0.185938	0.345104	-0.762633	-0.735840	-0.501709	0.111328	0.096928	0.030941	0.008342	0.533707	0.532912	-0.502699	0.422439	116.991188	-80.692384	-31.651941
55495		9.829007	2.381219	0.898027	-1.015710	-1.526262	0.173528	0.308886	0.215492	-0.639555	-0.731445	-0.506104	0.113770	0.098375	0.023484	0.008911	0.536453	0.534421	-0.499387	0.420981	114.592459	-80.318394	-29.218922
55496		10.157435	3.625724	0.376665	-2.083747	-0.939573	0.734166	0.273419	0.139546	-0.567587	-0.729004	-0.510254	0.118164	0.101679	0.035964	0.003745	0.537281	0.536282	-0.496899	0.420503	113.545776	-80.051885	-27.998006
55497		9.817737	3.266872	-0.053327	-1.663688	-0.491845	0.387964	0.182797	0.087141	-0.485706	-0.719971	-0.516846	0.118408	0.098256	0.032431	-0.000546	0.539703	0.537303	-0.494626	0.418774	111.926488	-79.710870	-26.429263
55498		9.861430	4.143429	-0.070764	-2.470050	-0.416676	0.586634	0.042996	0.045846	-0.422466	-0.721924	-0.521240	0.125244	0.098701	0.041226	-0.000721	0.540603	0.538373	-0.493256	0.417853	111.318336	-79.493193	-25.786218
55499		9.859369	3.013557	0.507641	-1.343315	-1.054181	0.367219	-0.024672	0.023280	-0.333325	-0.721680	-0.532227	0.125488	0.098644	0.029972	0.005061	0.543055	0.538616	-0.491982	0.415857	110.091741	-79.210535	-24.729497
55500		9.893606	2.190522	0.561838	-0.503654	-1.173071	0.255463	-0.066825	-0.023846	-0.261469	-0.723877	-0.534424	0.121094	0.098964	0.021778	0.005623	0.543739	0.539134	-0.491461	0.414909	109.840839	-79.062609	-24.513319
55501		9.939867	2.155655	0.029419	-0.365028	-0.638646	0.331647	-0.090055	-0.064692	-0.222753	-0.721436	-0.538818	0.125732	0.099422	0.021446	0.000317	0.545915	0.539070	-0.490887	0.412806	109.006301	-78.821911	-23.896921
55502		9.875577	2.344103	-0.358079	-0.503569	-0.241373	0.328228	-0.127394	-0.101070	-0.212403	-0.717041	-0.536377	0.127930	0.098782	0.023334	-0.003546	0.546468	0.539459	-0.490832	0.411632	108.996815	-78.685440	-23.961997
55503		9.900355	2.473954	-0.355793	-0.577328	-0.228043	0.379403	-0.129623	-0.104091	-0.235992	-0.712158	-0.547363	0.128174	0.099034	0.024620	-0.003522	0.548641	0.539397	-0.490422	0.409305	108.287644	-78.431798	-23.493160
55504		9.850375	2.119520	-0.527607	-0.198511	-0.092874	0.274559	-0.085631	-0.105459	-0.246750	-0.712158	-0.549561	0.128174	0.098533	0.021071	-0.005233	0.549137	0.539990	-0.490199	0.408124	108.289447	-78.275967	-23.545432
55505		9.818038	1.637125	-0.492193	0.313544	-0.163523	0.146790	-0.068999	-0.102697	-0.248388	-0.712158	-0.553955	0.137207	0.098203	0.016248	-0.004877	0.551122	0.540134	-0.489627	0.405938	107.652267	-78.017147	-23.108712
55506		9.784256	1.559076	-0.566249	0.415359	-0.106385	0.101904	-0.065124	-0.125794	-0.248364	-0.709717	-0.560547	0.135010	0.097865	0.015467	-0.005606	0.551513	0.540824	-0.489413	0.404744	107.722044	-77.856959	-23.218568
55507		10.014213	2.440002	-0.447667	-0.361213	-0.166007	0.496550	-0.087797	-0.156671	-0.264391	-0.707275	-0.562744	0.133057	0.100178	0.024266	-0.004409	0.553398	0.541066	-0.488996	0.402344	107.243351	-77.583047	-22.950492
55508		9.993767	2.179561	-0.192332	-0.112860	-0.459311	0.406856	-0.085179	-0.192094	-0.249951	-0.700439	-0.569092	0.135254	0.099967	0.021670	-0.001837	0.553681	0.541835	-0.489000	0.400914	107.464005	-77.410743	-23.226854
55509		10.232069	2.203676	0.415280	-0.108034	-1.086910	0.605122	-0.101962	-0.214097	-0.229228	-0.702637	-0.573486	0.139893	0.102341	0.021922	0.004251	0.555352	0.542065	-0.488874	0.398438	107.171228	-77.149017	-23.154406
55510		10.022955	1.363286	0.316173	0.697830	-1.073412	0.226181	-0.052852	-0.238573	-0.210501	-0.697998	-0.577881	0.133301	0.100240	0.013528	0.003278	0.555351	0.542915	-0.489047	0.397066	107.541034	-76.990288	-23.565272
55511		10.153426	2.285823	0.723966	-0.176177	-1.412932	0.522381	-0.070903	-0.258530	-0.252751	-0.695557	-0.582275	0.137939	0.101554	0.022732	0.007363	0.556881	0.543313	-0.488967	0.394470	107.355641	-76.713584	-23.592246
55512		10.202582	1.835377	0.283769	0.349899	-1.052347	0.498075	-0.053281	-0.236045	-0.331771	-0.690674	-0.593262	0.131592	0.102053	0.018185	0.002953	0.557122	0.544448	-0.488804	0.392762	107.615556	-76.488760	-23.891194
55513		10.171889	2.061994	-0.332602	0.256753	-0.426296	0.559483	-0.061679	-0.169242	-0.451916	-0.688477	-0.599854	0.140625	0.101768	0.020389	-0.003246	0.559245	0.545113	-0.487963	0.389858	107.098053	-76.123421	-23.579650
55514		10.137371	1.425576	-0.966339	0.993223	0.122346	0.421111	-0.070953	-0.081967	-0.559403	-0.677002	-0.608643	0.129883	0.101417	0.013969	-0.009627	0.560347	0.546445	-0.486780	0.387884	106.851923	-75.800205	-23.368239
55515		10.114618	0.946151	-1.282507	1.574726	0.388672	0.297423	-0.078032	0.002602	-0.642205	-0.665771	-0.612793	0.136475	0.101176	0.009132	-0.012830	0.563245	0.547187	-0.484980	0.384885	105.898792	-75.359942	-22.612386
55516		10.442123	2.337434	-1.244462	0.379184	0.462602	0.943328	-0.163417	0.069944	-0.746468	-0.658691	-0.621582	0.130127	0.104503	0.022974	-0.012500	0.565315	0.548406	-0.483027	0.382563	105.216429	-74.955592	-22.003738
55517		10.693769	2.011258	-0.940821	0.829199	0.120757	1.076942	-0.274010	0.147100	-0.862323	-0.651855	-0.625977	0.134766	0.107016	0.019638	-0.009514	0.569421	0.548868	-0.480573	0.378885	103.867701	-74.410470	-20.941375
55518		10.924994	1.410482	-0.778145	1.549239	-0.116659	1.120545	-0.338486	0.217906	-1.010163	-0.640137	-0.643555	0.126465	0.109311	0.013539	-0.007924	0.572800	0.549919	-0.477789	0.375776	102.767503	-73.872777	-19.999684
55519		11.336200	0.959022	-0.553835	2.205592	-0.401858	1.354593	-0.368701	0.295873	-1.162685	-0.630859	-0.652344	0.119873	0.113407	0.008921	-0.005723	0.577992	0.550516	-0.474250	0.371408	101.143323	-73.168042	-18.696724
55520		11.716266	0.242110	-0.395853	3.114452	-0.654297	1.472531	-0.332908	0.380958	-1.294485	-0.608154	-0.665527	0.109375	0.117167	0.001656	-0.004185	0.582223	0.551911	-0.470167	0.367905	99.813802	-72.474998	-17.505224
55521		12.069041	1.229683	-0.198826	2.441217	-0.719749	2.050397	-0.370547	0.492692	-1.478316	-0.590088	-0.674072	0.109619	0.120771	0.011400	-0.002307	0.588372	0.552769	-0.465206	0.363109	98.000613	-71.596963	-15.999512
55522		12.551371	0.827151	-0.467152	3.204530	-0.500427	2.349371	-0.371984	0.623137	-1.657609	-0.580811	-0.685303	0.096680	0.125561	0.007222	-0.005077	0.593856	0.554384	-0.459421	0.359062	96.394696	-70.695801	-14.528259
55523		12.702881	0.631322	-1.050651	3.768475	0.105496	2.379426	-0.339550	0.767294	-1.826838	-0.560059	-0.704834	0.090576	0.127038	0.005134	-0.011003	0.601047	0.555494	-0.452620	0.353982	94.425111	-69.613187	-12.826670
55524		12.641113	1.286447	-1.246281	3.419959	0.464128	2.479078	-0.317339	0.895923	-2.038415	-0.541992	-0.713623	0.090820	0.126476	0.011555	-0.013048	0.607547	0.557540	-0.444772	0.349591	92.709962	-68.475605	-11.185297
55525		12.961680	0.721193	-1.008309	4.316389	0.222243	2.469531	-0.304123	1.025119	-2.202222	-0.517090	-0.726807	0.080322	0.129632	0.005769	-0.010757	0.615638	0.559001	-0.436019	0.344085	90.765898	-67.153413	-9.458750
55526		13.310881	1.430935	-0.790965	4.076375	0.185258	2.961934	-0.315850	1.151064	-2.381979	-0.501221	-0.737549	0.073975	0.133218	0.012710	-0.008697	0.623094	0.561199	-0.426295	0.339237	89.070223	-65.783647	-7.807273
55527		14.478940	1.148349	-0.328264	5.101586	-0.250009	3.787423	-0.289325	1.297754	-2.542588	-0.475830	-0.761719	0.065674	0.144894	0.009636	-0.004237	0.632008	0.562764	-0.415629	0.333341	87.218238	-64.229835	-6.133656
55528		15.555074	0.357551	0.051941	6.601556	-0.644093	4.261294	-0.220615	1.407720	-2.682388	-0.453369	-0.766113	0.059326	0.155579	0.001489	-0.000578	0.639971	0.565236	-0.403924	0.328314	85.668702	-62.641663	-4.543229
55529		16.546847	-0.427946	-0.170289	8.212349	-0.409732	4.553123	-0.070435	1.524664	-2.800398	-0.424072	-0.779053	0.052979	0.165368	-0.006596	-0.002962	0.648815	0.567324	-0.391387	0.322487	84.108363	-60.901600	-3.019569
55530		16.891272	-0.214673	0.393920	8.568045	-0.758862	4.730411	-0.010775	1.588214	-2.998138	-0.399170	-0.787842	0.044434	0.168879	-0.004678	0.002598	0.656714	0.570519	-0.377663	0.317184	82.870875	-59.087394	-1.598399
55531		17.766109	-0.716808	0.633508	9.911665	-0.898411	4.934086	-0.082461	1.618704	-3.227412	-0.365234	-0.805176	0.042969	0.177558	-0.010032	0.004901	0.666038	0.572812	-0.363593	0.309968	81.601664	-57.081064	-0.383725
55532		19.021005	-2.144182	0.678769	12.297860	-0.957357	4.838560	-0.111713	1.685353	-3.419073	-0.336182	-0.811523	0.041016	0.189855	-0.024686	0.005200	0.674618	0.575944	-0.348266	0.303134	80.569668	-54.991757	0.782624
55533		19.679037	-2.248388	0.426285	13.345802	-0.524510	4.818237	-0.161190	1.737917	-3.609087	-0.306885	-0.820313	0.034668	0.196369	-0.026028	0.002575	0.684453	0.577923	-0.332836	0.294531	79.484899	-52.755014	1.749605
55534		20.669320	-3.503102	-0.096354	15.555662	0.033524	4.239368	-0.404078	1.785744	-3.739018	-0.279541	-0.835449	0.024170	0.205971	-0.038891	-0.002729	0.693968	0.580011	-0.316414	0.286144	78.500258	-50.452387	2.709720
55535		20.469225	-3.968736	-1.423067	16.469221	1.416388	2.972428	-0.780571	1.744856	-3.845737	-0.250244	-0.848633	0.013428	0.203744	-0.043671	-0.015846	0.705302	0.579621	-0.301213	0.275425	77.320516	-48.088398	3.376048
55536		21.876471	-2.352010	-2.671703	16.899943	3.160071	4.172253	-1.010668	1.686195	-3.937269	-0.220947	-0.853027	0.004883	0.218009	-0.027958	-0.028423	0.716038	0.579527	-0.285145	0.264822	76.285416	-45.667144	3.999942
55537		23.317679	-2.518071	-4.676756	18.810435	5.280951	3.975717	-0.646763	1.631708	-3.864971	-0.189697	-0.857178	0.002686	0.232239	-0.029830	-0.048573	0.726016	0.579302	-0.270101	0.253684	75.438188	-43.323369	4.368738
55538		22.909876	-2.810099	-5.123581	19.264460	5.804557	2.602137	0.288552	1.509867	-3.669560	-0.162842	-0.861328	-0.001465	0.228137	-0.032217	-0.053005	0.731745	0.583277	-0.253542	0.245059	75.324482	-41.066221	4.783444
55539		19.670900	-3.906331	-4.810064	17.886436	5.199040	-0.961563	1.220576	1.385755	-3.424527	-0.137939	-0.872070	0.016602	0.195664	-0.042120	-0.049710	0.734583	0.589303	-0.238301	0.237324	75.698980	-39.036521	5.007905
55540		16.276056	-4.406940	-3.304231	15.678793	3.565625	-3.755697	1.550392	1.139156	-2.999619	-0.115723	-0.871826	0.025635	0.161885	-0.046239	-0.034319	0.734829	0.597127	-0.223370	0.231456	76.414101	-37.206930	5.287787
55541		13.020678	-3.147982	-2.316909	12.418588	2.656918	-4.962569	0.317925	0.904397	-2.642693	-0.104492	-0.874023	0.014648	0.129669	-0.033158	-0.023808	0.738293	0.599277	-0.213278	0.224283	76.411813	-35.713972	5.338841
55542		9.442869	-0.688907	-0.847283	8.140116	1.433022	-5.118047	-1.006228	0.880548	-2.515900	-0.079834	-0.876221	0.001465	0.094293	-0.008120	-0.008849	0.745006	0.597198	-0.203565	0.216522	75.734407	-34.189154	5.514054
55543		0.778406	13.536875	-0.393194	-6.877065	3.223541	1.426038	-1.907514	0.196264	-2.243984	-0.073242	-0.876465	-0.025146	0.009297	0.135224	-0.005231	0.753573	0.591287	-0.199787	0.206382	74.719935	-33.036226	5.117986
55544		7.840847	9.841166	-2.895052	1.474812	5.598719	1.727588	-2.131153	-0.343599	-1.957663	-0.061768	-0.878906	-0.049316	0.079415	0.097323	-0.029856	0.761482	0.585505	-0.197440	0.195822	73.812650	-32.005760	4.533437
55545		11.996009	-6.242740	-6.341655	13.953106	5.320867	-10.102329	-2.203846	-0.318811	-0.926474	-0.066406	-0.876953	-0.067139	0.119767	-0.063675	-0.062528	0.768583	0.577753	-0.199373	0.189027	72.715038	-31.660928	4.054992
55546		9.584659	-7.058249	-4.270472	12.220547	2.721004	-11.593151	-2.889462	-0.420281	0.323871	-0.079590	-0.877441	-0.100342	0.096049	-0.071032	-0.041479	0.776134	0.566662	-0.204602	0.186140	71.164897	-31.907800	3.854023
55547		4.108504	-5.475402	-1.138366	6.474507	-0.363823	-12.282505	-3.288329	-0.697180	1.204874	-0.088623	-0.871338	-0.133789	0.041452	-0.054681	-0.010340	0.783451	0.552746	-0.215111	0.185484	69.345811	-32.827356	3.604718
55548		1.061235	-5.328751	-0.532604	3.804405	-1.212472	-13.535500	-2.563138	-1.018481	1.675237	-0.108887	-0.865234	-0.158203	0.011083	-0.053258	-0.004588	0.787795	0.541778	-0.226050	0.186433	68.004696	-33.929514	3.372164
55549		1.518254	-2.976872	-0.306482	2.922613	-0.699845	-11.305492	-2.146705	-1.167304	1.843539	-0.140137	-0.858887	-0.174072	0.015473	-0.029657	-0.002656	0.790437	0.531687	-0.239084	0.188034	66.891581	-35.303843	3.021939
55550		2.915974	-2.503102	-0.804459	3.904890	-0.070762	-10.214166	-2.109673	-1.385686	2.085733	-0.160156	-0.857178	-0.194092	0.029473	-0.024806	-0.007579	0.792334	0.522089	-0.252027	0.190029	65.862827	-36.712781	2.714932
55551		3.842220	-3.461054	-1.429931	5.329260	0.092007	-10.424408	-1.543256	-1.687118	2.432130	-0.191895	-0.842041	-0.203369	0.038957	-0.034246	-0.013707	0.791748	0.513800	-0.267994	0.193193	65.180841	-38.527666	2.236606
55552		4.612213	-3.368248	-1.228434	5.837941	-0.100015	-9.635197	-0.940433	-1.906737	2.857523	-0.223389	-0.833740	-0.208008	0.046711	-0.033074	-0.011684	0.788736	0.508011	-0.283721	0.198298	64.888230	-40.469030	1.848794
55553		5.368627	-3.110703	-0.606030	6.070776	-0.608530	-8.533464	-0.424204	-2.096991	3.254277	-0.263916	-0.820801	-0.210693	0.054242	-0.030239	-0.005429	0.783356	0.502979	-0.302182	0.205063	64.877908	-42.821542	1.350914
55554		5.843522	-2.671096	0.003620	5.904246	-1.013058	-7.491220	0.086050	-2.279472	3.603080	-0.297607	-0.809814	-0.202393	0.058898	-0.025653	0.000695	0.775837	0.500099	-0.319987	0.213508	65.229790	-45.240294	0.915068
55555		6.196397	-2.372647	0.224539	5.763471	-1.129289	-6.718305	0.632767	-2.426798	3.948181	-0.346924	-0.801270	-0.187256	0.062384	-0.022506	0.002928	0.765826	0.497817	-0.340151	0.223575	65.906856	-48.038296	0.323272
55556		6.792421	-2.356375	0.141479	6.013859	-1.064400	-6.017898	1.128802	-2.521718	4.315278	-0.387695	-0.785889	-0.169922	0.068388	-0.022102	0.002148	0.753668	0.497460	-0.359147	0.235650	66.945318	-50.878448	-0.192396
55557		7.755869	-2.220973	0.191867	6.273939	-1.088701	-4.856726	1.479185	-2.559990	4.678876	-0.430664	-0.763916	-0.139893	0.078018	-0.020406	0.002760	0.739474	0.496402	-0.380263	0.249326	68.184520	-54.088203	-0.858474
55558		8.912604	-1.813299	0.391486	6.281828	-1.143726	-3.325288	1.675553	-2.577710	5.012029	-0.480713	-0.737549	-0.116211	0.089485	-0.015932	0.004927	0.723864	0.496072	-0.399954	0.264520	69.649608	-57.295216	-1.469879
55559		9.694952	-1.424845	0.629689	5.900833	-1.270685	-2.069384	1.801175	-2.569071	5.307482	-0.521729	-0.709229	-0.094971	0.097193	-0.011735	0.007431	0.706787	0.493878	-0.421612	0.280677	71.248775	-60.835038	-2.315807
55560		10.739192	-1.176221	1.123252	5.557936	-1.693024	-0.637443	1.859628	-2.500074	5.606870	-0.560547	-0.678223	-0.062744	0.107517	-0.008861	0.012485	0.688712	0.491891	-0.441439	0.298077	73.042900	-64.328443	-3.136352
55561		12.003508	-0.761466	1.442626	5.008570	-1.926970	1.045570	1.760201	-2.419694	5.841943	-0.608398	-0.645508	-0.046143	0.120006	-0.004244	0.015831	0.669885	0.486906	-0.463075	0.315812	74.919175	-68.118469	-4.282944
55562		13.509421	0.314625	1.400418	3.899817	-1.621720	3.097202	1.569247	-2.357603	6.004214	-0.647705	-0.601563	-0.022949	0.134743	0.007077	0.015639	0.650777	0.481722	-0.482831	0.333627	77.131664	-71.779806	-5.680440
55563		15.090563	1.587838	1.702775	2.203255	-1.617677	5.207109	1.307840	-2.318735	6.102642	-0.693848	-0.555420	0.000000	0.150118	0.020348	0.018895	0.631449	0.473121	-0.504407	0.350717	79.887971	-75.668025	-7.981113
55564		16.446059	2.976484	2.207373	0.073086	-1.791554	6.947084	0.987852	-2.282431	6.152265	-0.719971	-0.504883	0.016357	0.163177	0.034682	0.024104	0.612242	0.464473	-0.524134	0.367026	84.074580	-79.339623	-11.687814
55565		17.265349	3.936927	2.805517	-2.045746	-2.153010	7.865835	0.598718	-2.188010	6.144035	-0.752441	-0.465332	0.032959	0.171016	0.044552	0.030061	0.593511	0.452078	-0.545401	0.381979	91.754568	-83.106748	-19.321839
55566		18.052010	5.014333	3.160929	-4.251906	-2.245446	8.565700	0.347178	-2.086683	6.119762	-0.771973	-0.408203	0.049072	0.178531	0.055570	0.033572	0.575059	0.440178	-0.564456	0.396156	112.734392	-86.330393	-40.181651
55567		19.183145	6.900570	3.157561	-7.267914	-1.711521	9.414528	0.297165	-2.025602	6.043924	-0.798096	-0.357666	0.067627	0.189298	0.074703	0.033610	0.556485	0.425762	-0.584219	0.409560	-174.079935	-87.397174	-113.490439
55568		19.889424	10.040097	3.145072	-11.483266	-0.807938	9.516135	0.309486	-2.003885	5.873520	-0.811035	-0.307129	0.077393	0.195504	0.106125	0.033582	0.537700	0.413374	-0.601363	0.422331	-135.724393	-84.788827	-151.742276
55569		19.683842	14.570017	3.434908	-17.046693	0.323958	8.094345	0.384432	-1.959068	5.618366	-0.819092	-0.260986	0.091797	0.192294	0.151076	0.036535	0.519020	0.399559	-0.618401	0.434225	-124.527362	-81.463548	-162.986278
55570		18.420982	18.707986	3.128128	-21.638304	1.871727	5.260796	0.403722	-1.831480	5.200250	-0.827148	-0.217041	0.097168	0.178966	0.191713	0.033320	0.501084	0.388360	-0.632414	0.445133	-120.293380	-78.386941	-167.050444
55571		17.100846	21.987308	2.348638	-24.957375	3.657077	2.228975	0.484453	-1.681425	4.521356	-0.826172	-0.181641	0.116211	0.165773	0.223600	0.025433	0.484710	0.377475	-0.644963	0.454523	-117.950760	-75.553834	-169.306293
55572		16.363602	24.702984	2.070456	-27.704751	4.685918	-0.186043	0.296177	-1.499664	3.618761	-0.826904	-0.155273	0.122314	0.158968	0.249902	0.022277	0.471019	0.369867	-0.654616	0.461322	-117.077886	-73.321049	-170.036464
55573		14.375224	26.777857	3.551698	-29.734259	3.986427	-3.792911	-0.103053	-1.329455	2.591960	-0.829834	-0.135498	0.126221	0.140026	0.269628	0.036317	0.460809	0.363574	-0.663050	0.464579	-117.075194	-71.603674	-170.153038
55574		11.790652	28.286440	5.640814	-30.970854	2.656078	-7.647540	-0.586276	-1.171490	1.526788	-0.827637	-0.135254	0.139404	0.115412	0.283917	0.056258	0.454442	0.359872	-0.669840	0.463992	-117.967913	-70.520774	-169.564806
55575		9.717265	28.179467	6.490492	-30.435614	2.058584	-10.066422	-0.708266	-1.012792	0.515572	-0.823242	-0.133057	0.137207	0.096118	0.282272	0.064394	0.451063	0.359106	-0.674599	0.460979	-119.424963	-69.993456	-168.425674
55576		8.787350	27.554954	5.980209	-29.412679	2.503000	-10.753369	-0.439647	-0.742366	-0.270768	-0.820801	-0.135254	0.137207	0.088025	0.275561	0.059523	0.449989	0.360743	-0.676781	0.457540	-120.898907	-69.916940	-167.125242
55577		9.628277	25.880348	5.340188	-28.010369	2.459543	-9.196634	-0.071595	-0.313869	-0.861341	-0.822998	-0.139648	0.148438	0.097312	0.258405	0.053462	0.450995	0.365109	-0.675612	0.454805	-122.185388	-70.305365	-165.722398
55578		20.478001	24.211070	3.213207	-29.398897	2.930149	2.143771	0.055485	-0.195467	-1.162548	-0.818359	-0.143799	0.150879	0.206151	0.240906	0.032400	0.452891	0.369607	-0.673779	0.451999	-123.443681	-70.807607	-164.354715
55579		8.503215	14.073235	8.494189	-17.769486	-4.349122	-7.013386	0.009695	0.573839	-1.382212	-0.813477	-0.159424	0.140137	0.086245	0.140135	0.084702	0.457901	0.374452	-0.669059	0.449970	-124.133716	-71.751828	-163.491956
55580		13.845652	-3.391319	1.074242	-1.177381	-3.270164	4.053292	0.273983	1.312649	-2.242144	-0.812988	-0.172607	0.138184	0.138131	-0.035477	0.009787	0.466805	0.379603	-0.661168	0.448164	-124.296434	-73.240212	-163.157155
55581		17.545962	-33.699302	-2.791919	27.319756	-8.646917	15.287399	2.754035	1.669106	-1.308457	-0.821777	-0.174805	0.135986	0.172985	-0.337690	-0.034017	0.470089	0.387841	-0.647684	0.457275	-121.554251	-74.501765	-164.261991
55582		21.852413	-2.707351	5.909857	-4.306484	-7.824610	11.162766	3.464924	1.921757	-1.396509	-0.814697	-0.187988	0.125244	0.218875	-0.029595	0.056498	0.472703	0.396036	-0.632381	0.468830	-117.444939	-75.743763	-166.459875
55583		26.472247	23.385706	11.949006	-30.688453	-7.427779	10.019683	1.511751	1.808725	-3.284227	-0.811768	-0.216553	0.125977	0.269581	0.228557	0.118808	0.483387	0.406231	-0.617397	0.469184	-116.343775	-77.980851	-166.668187
55584		23.037520	12.005452	6.894687	-17.219277	-5.060429	10.192022	-0.394909	0.749689	-4.018326	-0.810303	-0.256348	0.109375	0.232982	0.115525	0.067846	0.495848	0.415844	-0.608205	0.459669	-120.277174	-80.215994	-162.894120
55585		10.026841	0.227808	0.328766	-1.712098	-0.784823	0.043180	0.268510	0.528263	-3.763834	-0.805176	-0.278320	0.107666	0.100296	0.000387	0.003024	0.506039	0.427228	-0.597650	0.451903	-126.386796	-82.306572	-156.535810
55586		0.218106	-3.008288	-1.581704	3.234056	0.874567	-9.201225	1.612701	0.679633	-3.363557	-0.791016	-0.306641	0.121826	0.001622	-0.029984	-0.016065	0.512154	0.439753	-0.584978	0.449573	-133.292561	-84.043171	-148.651542
55587		5.003210	5.013635	0.352795	-5.325050	0.388055	-5.145601	1.595041	0.671708	-3.200574	-0.785889	-0.330811	0.117920	0.050838	0.049298	0.003754	0.518227	0.452107	-0.571898	0.447182	-145.722300	-85.631768	-135.236420
55588		9.330595	8.029846	3.433459	-8.879317	-2.363520	-0.930984	0.895537	0.821245	-2.981838	-0.782959	-0.352539	0.123047	0.094629	0.078741	0.034303	0.525172	0.461066	-0.560936	0.443806	-165.963189	-86.781864	-114.439244
55589		9.854068	5.654056	0.166961	-5.669948	0.343838	0.027262	0.778230	0.782479	-2.648821	-0.768799	-0.372314	0.116943	0.099284	0.055223	0.001499	0.531881	0.469243	-0.550326	0.440517	162.755435	-87.233571	-82.651095
55590		8.707726	3.681681	-1.097378	-3.288249	1.309125	-0.977893	0.187582	0.822230	-2.121529	-0.772949	-0.385498	0.114990	0.087415	0.035901	-0.011299	0.538363	0.473744	-0.542694	0.437282	136.894845	-87.024392	-56.651949
55591		10.900124	4.886838	2.056464	-4.712698	-1.631171	1.234768	-0.972718	0.761437	-2.143349	-0.765625	-0.407715	0.100098	0.109594	0.047794	0.019914	0.547791	0.475758	-0.536968	0.430401	116.451827	-86.220924	-36.704106
55592		9.969451	2.752045	2.359008	-2.497037	-2.200234	0.259472	-1.053755	0.607324	-2.116180	-0.753906	-0.425049	0.093994	0.100050	0.026586	0.023145	0.556463	0.477217	-0.532478	0.423178	105.652001	-85.208029	-26.480440
55593		8.474180	5.463248	0.324785	-4.671142	0.406963	-0.880977	-0.744386	0.501025	-1.923341	-0.753174	-0.444824	0.098877	0.085269	0.053825	0.002833	0.564041	0.479607	-0.527393	0.416763	99.146369	-84.102695	-20.355432
55594		10.063091	2.884334	-0.375237	-1.683006	0.573594	0.510185	-0.198621	0.487153	-1.660653	-0.750732	-0.453613	0.090332	0.100856	0.028003	-0.004026	0.569262	0.482398	-0.522411	0.412698	95.441047	-83.190943	-16.742273
55595		9.839237	2.196586	-0.184469	-0.893603	0.280157	0.226766	0.034093	0.478907	-1.453736	-0.741211	-0.473389	0.086426	0.098544	0.021250	-0.002077	0.573789	0.485721	-0.516815	0.409565	92.581660	-82.287550	-13.815941
55596		9.207365	3.556681	0.475154	-2.282934	-0.066872	-0.198456	-0.059204	0.454884	-1.335888	-0.736328	-0.482178	0.082031	0.092319	0.034952	0.004531	0.577851	0.488066	-0.512353	0.406663	90.554880	-81.526243	-11.803515
55597		9.688909	3.555839	1.184849	-2.203176	-0.762773	0.310828	0.071344	0.396701	-1.210680	-0.731445	-0.497559	0.089111	0.097125	0.034967	0.011669	0.581479	0.490962	-0.507486	0.404099	88.992485	-80.744156	-10.156392
55598		9.870467	2.766849	1.663979	-1.379821	-1.380011	0.387357	0.207214	0.347334	-1.068104	-0.735596	-0.510742	0.082764	0.098879	0.027124	0.016496	0.584022	0.493571	-0.503406	0.402354	88.015208	-80.123812	-9.045390
55599		9.814818	3.560114	1.633460	-2.023270	-1.195820	0.490161	0.272156	0.278094	-0.968618	-0.724121	-0.519531	0.089844	0.098342	0.035103	0.016246	0.586321	0.496586	-0.499085	0.400681	87.289437	-79.480282	-8.130735
55600		9.910668	3.997252	1.885527	-2.372590	-1.368897	0.687345	0.254027	0.219616	-0.874442	-0.721924	-0.523682	0.092041	0.099301	0.039515	0.018797	0.588005	0.499073	-0.495733	0.399281	86.899226	-78.970083	-7.585812
55601		9.822325	3.956892	1.287153	-2.135340	-0.792091	0.608644	0.229888	0.160693	-0.759437	-0.719238	-0.534668	0.096680	0.098383	0.039181	0.012838	0.589671	0.501604	-0.492379	0.397799	86.588538	-78.452379	-7.121592
55602		9.564464	4.848752	0.730211	-2.868368	-0.085930	0.545267	0.158790	0.109599	-0.654494	-0.714844	-0.532471	0.090088	0.095807	0.048168	0.007288	0.590862	0.503469	-0.490073	0.396521	86.478910	-78.070766	-6.917151
55603		9.364422	3.704849	0.723286	-1.735203	-0.285694	0.129580	0.100685	0.054225	-0.499128	-0.712402	-0.543213	0.103760	0.093738	0.036811	0.007226	0.592042	0.505161	-0.487953	0.395221	86.383616	-77.708864	-6.748293
55604		9.749364	2.966259	0.937900	-0.939287	-0.644223	0.357419	0.016277	0.002447	-0.349427	-0.709961	-0.545654	0.099365	0.097545	0.029491	0.009380	0.592718	0.506063	-0.487007	0.394220	86.435935	-77.505408	-6.792769
55605		10.069286	3.356427	0.964426	-1.206220	-0.614939	0.758645	-0.054764	-0.045972	-0.258333	-0.711914	-0.556641	0.097412	0.100734	0.033437	0.009658	0.593552	0.506875	-0.486128	0.393006	86.478335	-77.289418	-6.857920
55606		9.623681	3.424684	0.952585	-1.343954	-0.587539	0.341113	-0.099577	-0.093676	-0.209674	-0.707275	-0.558594	0.104004	0.096268	0.034151	0.009554	0.594010	0.507279	-0.486046	0.391892	86.681688	-77.169105	-7.125393
55607		9.808810	3.631370	0.644080	-1.415312	-0.260499	0.567266	-0.159772	-0.129297	-0.197670	-0.705078	-0.565186	0.108643	0.098120	0.036222	0.006475	0.594776	0.507766	-0.485803	0.390397	86.857372	-76.994695	-7.391542
55608		9.849383	2.473429	0.515389	-0.257911	-0.355186	0.346108	-0.141254	-0.157162	-0.159135	-0.707031	-0.569580	0.111084	0.098509	0.024660	0.005214	0.595085	0.508046	-0.486118	0.389169	87.177246	-76.904702	-7.803441
55609		10.103594	2.396407	0.154605	-0.036003	-0.036096	0.572236	-0.148911	-0.170514	-0.168874	-0.704834	-0.567383	0.106445	0.101055	0.023880	0.001614	0.595651	0.508553	-0.486076	0.387690	87.447164	-76.751508	-8.161629
55610		10.190823	1.981906	0.047892	0.415287	-0.026376	0.560833	-0.109091	-0.162378	-0.173997	-0.700195	-0.578369	0.104492	0.101925	0.019731	0.000551	0.595893	0.508972	-0.486304	0.386481	87.787775	-76.652124	-8.576322
55611		9.921370	2.306538	0.117796	0.058835	-0.042527	0.373688	-0.093603	-0.163181	-0.236112	-0.699951	-0.580566	0.111328	0.099240	0.022949	0.001248	0.596444	0.509772	-0.485991	0.384967	88.068123	-76.464126	-8.913996
55612		9.886632	1.673999	-0.117068	0.721969	0.054280	0.189172	-0.066460	-0.162541	-0.275238	-0.695557	-0.582520	0.111328	0.098890	0.016604	-0.001096	0.596770	0.510562	-0.485877	0.383557	88.426532	-76.305685	-9.322422
55613		9.963780	0.894231	-0.737912	1.634128	0.497905	0.071780	-0.000617	-0.174181	-0.278525	-0.697510	-0.589111	0.115967	0.099657	0.008804	-0.007292	0.597118	0.511742	-0.485337	0.382123	88.775101	-76.097006	-9.676949
55614		9.987794	1.680312	-0.547203	0.880036	0.431433	0.282768	0.006084	-0.188570	-0.288928	-0.688477	-0.595703	0.116211	0.099907	0.016659	-0.005377	0.597218	0.512828	-0.485124	0.380780	89.216138	-75.929709	-10.128347
55615		9.841687	2.542024	0.237777	-0.088057	-0.196867	0.352478	-0.043654	-0.185966	-0.325317	-0.681641	-0.600098	0.114014	0.098456	0.025261	0.002464	0.597708	0.514000	-0.484606	0.379086	89.554110	-75.697759	-10.497709
55616		9.998430	2.909481	0.490528	-0.415906	-0.407561	0.595727	-0.049601	-0.184478	-0.356396	-0.678955	-0.610840	0.121094	0.100031	0.028918	0.004990	0.598085	0.515071	-0.484309	0.377413	89.932921	-75.490356	-10.918641
55617		9.886453	2.424477	0.538045	0.050837	-0.561004	0.365331	-0.020339	-0.177600	-0.392320	-0.669922	-0.615234	0.123291	0.098907	0.024051	0.005466	0.598649	0.516437	-0.483567	0.375598	90.244849	-75.221787	-11.249588
55618		10.302356	1.963292	0.175340	0.700510	-0.334881	0.647750	-0.020762	-0.162190	-0.422569	-0.667725	-0.619629	0.116699	0.103063	0.019415	0.001835	0.599125	0.517707	-0.482974	0.373851	90.567937	-74.975334	-11.596716
55619		10.646940	2.669924	-0.365190	0.275006	0.286711	1.162790	-0.094252	-0.128201	-0.482471	-0.656006	-0.635010	0.117188	0.106536	0.026441	-0.003596	0.600157	0.518948	-0.482010	0.371713	90.710746	-74.657882	-11.799646
55620		10.864198	2.505195	-0.751459	0.619116	0.605517	1.328281	-0.212401	-0.074183	-0.567450	-0.656006	-0.639404	0.119629	0.108715	0.024736	-0.007501	0.601604	0.519821	-0.481128	0.369291	90.720014	-74.328552	-11.936049
55621		11.074948	2.342642	-0.888883	0.935390	0.687861	1.482617	-0.346391	-0.001382	-0.698776	-0.644531	-0.648193	0.111084	0.110830	0.023024	-0.008928	0.603964	0.520576	-0.479691	0.366231	90.455373	-73.890670	-11.865109
55622		11.049015	1.531960	-0.700977	1.744031	0.345484	1.221678	-0.443071	0.076183	-0.828155	-0.626221	-0.656982	0.104736	0.110550	0.014846	-0.007085	0.606832	0.521086	-0.478085	0.362849	90.038598	-73.412624	-11.695828
55623		11.424605	0.703124	-0.405206	2.677526	-0.126715	1.322567	-0.513470	0.170338	-0.959981	-0.610596	-0.665527	0.107178	0.114274	0.006472	-0.004166	0.610466	0.521616	-0.475749	0.359042	89.386828	-72.827702	-11.319377
55624		11.819673	1.580971	-0.184312	2.053217	-0.184469	1.934083	-0.556838	0.293614	-1.151078	-0.610107	-0.674561	0.091797	0.118282	0.015124	-0.002059	0.614692	0.522123	-0.472814	0.354949	88.565410	-72.161471	-10.793122
55625		12.314200	1.180340	0.009410	2.698054	-0.463254	2.251145	-0.520099	0.436962	-1.358046	-0.587402	-0.689697	0.094482	0.123218	0.010967	-0.000204	0.619622	0.523026	-0.468625	0.350576	87.550735	-71.344830	-10.038449
55626		12.442756	0.416327	-0.131220	3.661880	-0.463500	2.077848	-0.442480	0.585990	-1.574471	-0.569336	-0.696289	0.081543	0.124451	0.003180	-0.001685	0.624910	0.524304	-0.463423	0.346167	86.460238	-70.422503	-9.153170
55627		12.679642	-0.265250	-0.504091	4.663610	-0.217987	1.989690	-0.298955	0.719089	-1.764053	-0.548828	-0.709473	0.079590	0.126747	-0.003779	-0.005492	0.630525	0.526232	-0.456878	0.341731	85.332679	-69.358722	-8.139115
55628		12.656291	0.939646	-0.370002	3.767506	-0.045197	2.311638	-0.279691	0.829850	-1.958903	-0.537598	-0.716064	0.071045	0.126630	0.008151	-0.004237	0.636489	0.528384	-0.449532	0.337066	84.211849	-68.193685	-7.109222
55629		12.860174	1.678796	-0.438393	3.466470	0.230244	2.690003	-0.318124	0.968848	-2.149876	-0.510254	-0.733398	0.064941	0.128749	0.015397	-0.005033	0.643214	0.530543	-0.441148	0.331947	83.001967	-66.886457	-6.005273
55630		13.330279	1.330808	-0.523280	4.285019	0.290390	2.887137	-0.327817	1.095209	-2.314081	-0.489746	-0.744385	0.054199	0.133413	0.011755	-0.005983	0.650307	0.532737	-0.431967	0.326645	81.798302	-65.485134	-4.895523
55631		14.381881	1.564189	-0.620837	4.881899	0.488572	3.810283	-0.325308	1.236424	-2.488392	-0.467041	-0.757324	0.052490	0.143956	0.013840	-0.007122	0.657958	0.534971	-0.421715	0.321021	80.573336	-63.950534	-3.756778
55632		15.510986	-0.502619	-0.492907	7.536109	-0.020779	3.762114	-0.258072	1.353612	-2.635949	-0.437744	-0.770508	0.046143	0.154988	-0.007077	-0.005970	0.665680	0.537453	-0.410551	0.315376	79.432058	-62.324354	-2.643875
55633		17.179326	-0.337112	-0.559172	8.608051	0.173378	5.066895	-0.143239	1.504063	-2.805678	-0.412842	-0.779053	0.041992	0.171675	-0.005785	-0.006880	0.673589	0.540253	-0.398141	0.309660	78.350069	-60.569877	-1.519227
55634		17.810441	-0.133830	-0.175587	9.153348	-0.013413	5.466222	-0.072878	1.599499	-3.060131	-0.387939	-0.792236	0.031494	0.178035	-0.004064	-0.003179	0.681626	0.543547	-0.384513	0.303468	77.405634	-58.658959	-0.473534
55635		18.951440	-1.063812	-0.118530	11.045967	-0.128211	5.622059	-0.106593	1.630343	-3.349948	-0.354248	-0.802979	0.029541	0.189283	-0.013811	-0.002722	0.690098	0.546968	-0.369989	0.296140	76.577037	-56.575874	0.414775
55636		20.505622	-1.894837	-0.054550	13.155906	-0.211787	6.027003	-0.150451	1.675417	-3.596677	-0.320313	-0.813965	0.021240	0.204657	-0.022633	-0.002245	0.698816	0.550517	-0.354494	0.287960	75.847878	-54.341491	1.194575
55637		21.225360	-2.614610	-0.560294	14.857035	0.282566	5.575244	-0.215789	1.705067	-3.810700	-0.297607	-0.831299	0.021729	0.211646	-0.030190	-0.007378	0.707841	0.553797	-0.338433	0.278806	75.176319	-51.991346	1.847736
55638		21.987667	-3.395219	-1.185267	16.661044	0.878521	4.950489	-0.392779	1.716180	-3.941982	-0.259521	-0.833496	0.006348	0.219038	-0.038301	-0.013662	0.717180	0.556558	-0.321884	0.268862	74.510382	-49.549997	2.416103
55639		21.243453	-3.420390	-2.298216	16.971647	2.051200	3.451780	-0.788543	1.675450	-4.015796	-0.232422	-0.844238	0.002197	0.211488	-0.038552	-0.024610	0.727352	0.557609	-0.305971	0.257707	73.714225	-47.096115	2.834341
55640		22.197150	-1.721220	-3.820748	17.239717	4.072128	4.201594	-1.118663	1.617757	-4.024273	-0.194580	-0.846436	-0.015137	0.221244	-0.021889	-0.039885	0.737963	0.557475	-0.290203	0.245791	72.840767	-44.616974	3.157462
55641		22.741620	-1.337724	-5.134456	18.158823	5.528322	3.786827	-0.720666	1.478389	-3.901511	-0.171631	-0.861572	-0.012451	0.226708	-0.017993	-0.052963	0.746762	0.558334	-0.275097	0.234374	72.285590	-42.266695	3.319587
55642		21.116451	-2.794519	-4.392302	18.293451	4.428390	1.081832	0.515060	1.319649	-3.602427	-0.145020	-0.861572	-0.016846	0.210321	-0.031623	-0.045391	0.751235	0.563563	-0.259428	0.225256	72.495443	-40.066442	3.448400
55643		17.558099	-3.968998	-3.275457	16.472108	2.960572	-2.420627	1.333312	1.145219	-3.229502	-0.124756	-0.870117	-0.005615	0.174720	-0.042292	-0.034033	0.752434	0.571197	-0.244981	0.218086	73.187725	-38.155957	3.523490
55644		14.099740	-4.492842	-2.351210	14.142819	1.848424	-5.223035	0.770659	0.909794	-2.774010	-0.102539	-0.867676	-0.005615	0.140248	-0.046784	-0.024329	0.754299	0.576438	-0.232737	0.211152	73.593755	-36.479747	3.581343
55645		11.457508	-2.426237	-0.899137	10.772045	0.841075	-5.206480	-0.675781	0.828330	-2.504150	-0.091064	-0.874268	-0.016357	0.114221	-0.025725	-0.009380	0.759725	0.575695	-0.223686	0.203367	73.169955	-35.032054	3.602820
55646		7.744309	2.479328	1.232635	4.869592	-0.131110	-3.186418	-1.807553	0.720394	-2.292718	-0.068604	-0.874512	-0.038330	0.077765	0.024011	0.011827	0.767991	0.570596	-0.216133	0.194671	72.131721	-33.651032	3.606463
55647		3.504668	16.752815	-0.350217	-5.992821	5.305412	5.319108	-2.633999	-0.060756	-2.342737	-0.057373	-0.879150	-0.071533	0.037007	0.167037	-0.005693	0.777537	0.562804	-0.212866	0.182690	70.916231	-32.456549	3.022574
55648		9.375099	3.637165	-5.579101	6.812608	6.802561	-3.523569	-2.346448	-0.398549	-1.810038	-0.050781	-0.872803	-0.089355	0.094183	0.034864	-0.056019	0.785294	0.555910	-0.211412	0.171998	69.922613	-31.551924	2.359729
55649		12.998655	-8.637942	-7.511301	16.534897	4.576572	-12.186672	-2.625272	-0.532310	-0.822151	-0.050537	-0.875488	-0.128906	0.129825	-0.087886	-0.073620	0.792529	0.546796	-0.214010	0.164655	68.700513	-31.284276	1.807022
55650		6.632622	-7.789612	-3.717123	10.137619	0.795259	-13.695237	-3.399145	-0.608563	0.536507	-0.068604	-0.867188	-0.160156	0.066646	-0.078332	-0.035640	0.800619	0.533171	-0.220625	0.161439	66.878781	-31.696624	1.565208
55651		1.031940	-6.101731	0.010793	3.904832	-2.388070	-13.977037	-3.081208	-0.778968	1.289188	-0.084473	-0.861084	-0.187012	0.010709	-0.060937	0.001088	0.806652	0.519884	-0.230273	0.161267	65.190189	-32.627854	1.411282
55652		0.398414	-4.684404	0.626448	2.561749	-2.511990	-12.914453	-1.996109	-0.974453	1.586482	-0.115723	-0.856934	-0.207031	0.004323	-0.046745	0.006752	0.809375	0.510746	-0.239886	0.162802	64.121334	-33.684354	1.273558
55653		2.356259	-2.099479	0.391568	2.934821	-1.221775	-9.894012	-1.561940	-1.152666	1.746369	-0.126709	-0.854980	-0.220459	0.023721	-0.020756	0.004215	0.810343	0.503092	-0.250940	0.165137	63.333931	-34.949516	1.058628
55654		3.143383	-2.087812	-0.667774	3.820273	-0.291196	-9.738445	-1.437801	-1.445978	2.016818	-0.158203	-0.844482	-0.229736	0.031689	-0.020606	-0.006300	0.810409	0.495881	-0.263006	0.167833	62.662745	-36.351329	0.795944
55655		3.583375	-2.517058	-1.220078	4.545201	-0.034057	-9.868643	-1.049671	-1.712065	2.361666	-0.185303	-0.838135	-0.232178	0.036230	-0.024807	-0.011761	0.808527	0.489735	-0.277342	0.171826	62.251815	-38.081068	0.451499
55656		4.065779	-2.367407	-1.112931	4.804317	-0.094039	-9.282339	-0.481078	-1.907489	2.741211	-0.219238	-0.822998	-0.239258	0.041081	-0.023139	-0.010683	0.804602	0.485561	-0.292113	0.177527	62.165827	-39.976230	0.149610
55657		4.745359	-2.432566	-0.533250	5.153400	-0.661562	-8.500541	0.149743	-2.081678	3.128149	-0.252686	-0.822998	-0.230469	0.047878	-0.023575	-0.004853	0.798111	0.483160	-0.308607	0.185303	62.452206	-42.195907	-0.187856
55658		5.194018	-1.650263	0.172690	4.723242	-0.936599	-7.255151	0.729807	-2.223277	3.468397	-0.286377	-0.812256	-0.215576	0.052193	-0.015606	0.002248	0.789542	0.482678	-0.325088	0.194841	63.080803	-44.542023	-0.494825
55659		5.865246	-1.078229	0.349448	4.653371	-0.849923	-6.165181	1.266743	-2.331151	3.775517	-0.331299	-0.799072	-0.198242	0.058797	-0.009698	0.004116	0.778630	0.483433	-0.342813	0.206171	64.052483	-47.154435	-0.875718
55660		6.423485	-0.886338	0.021932	4.839954	-0.487507	-5.525855	1.767757	-2.410592	4.099737	-0.374268	-0.783691	-0.178955	0.064390	-0.007551	0.000924	0.765764	0.485621	-0.360149	0.219251	65.341567	-49.864645	-1.244723
55661		7.072532	-1.067453	-0.228252	5.238892	-0.358331	-4.951907	2.233474	-2.441140	4.470576	-0.419189	-0.772705	-0.150635	0.070962	-0.009070	-0.001525	0.750563	0.488298	-0.378507	0.234421	66.931516	-52.856009	-1.684850
55662		7.958004	-1.173912	-0.252347	5.583186	-0.391970	-4.030761	2.571937	-2.419603	4.838102	-0.459961	-0.752930	-0.120361	0.079856	-0.009784	-0.001693	0.733714	0.491415	-0.396189	0.251415	68.737007	-55.942542	-2.092969
55663		9.334124	-0.800135	0.020583	5.605230	-0.527622	-2.326232	2.705141	-2.351270	5.137323	-0.501221	-0.724121	-0.083496	0.093496	-0.005613	0.001218	0.715399	0.493496	-0.414595	0.269771	70.677835	-59.256465	-2.602883
55664		10.793278	-0.213857	0.374269	5.290899	-0.686664	-0.422077	2.692656	-2.280779	5.384196	-0.551025	-0.702148	-0.055420	0.107887	0.000705	0.004970	0.696413	0.494792	-0.432167	0.288828	72.708119	-62.592157	-3.160442
55665		11.980464	0.519046	0.578855	4.545970	-0.693701	1.275440	2.490669	-2.212256	5.589864	-0.590088	-0.662598	-0.025635	0.119524	0.008450	0.007204	0.676833	0.493861	-0.450632	0.308108	74.816769	-66.110602	-3.968075
55666		13.042780	1.464692	0.499650	3.466217	-0.397074	2.847581	2.233398	-2.156227	5.745899	-0.622559	-0.625244	-0.002441	0.129871	0.018316	0.006590	0.657267	0.491537	-0.468412	0.327081	77.074869	-69.600932	-5.023989
55667		13.966039	2.555540	0.609365	1.932560	-0.276369	4.261229	1.910532	-2.111033	5.848912	-0.668213	-0.590088	0.018799	0.138758	0.029553	0.007831	0.637513	0.486782	-0.487096	0.345483	79.712897	-73.217846	-6.706447
55668		14.806175	3.681410	0.991280	0.115887	-0.437003	5.467241	1.485388	-2.070940	5.925588	-0.700928	-0.546143	0.041748	0.146771	0.041093	0.011732	0.618308	0.480416	-0.505277	0.362755	83.035405	-76.750164	-9.264171
55669		15.621228	4.736691	1.611417	-1.875397	-0.864054	6.457004	1.042308	-2.028837	5.961016	-0.733887	-0.489014	0.062500	0.154534	0.051900	0.017950	0.599344	0.471441	-0.524421	0.378831	88.138879	-80.336194	-13.914535
55670		16.443779	6.123870	2.228690	-4.274091	-1.201466	7.306076	0.548951	-2.004513	5.968086	-0.755371	-0.443115	0.067871	0.162279	0.066039	0.024098	0.581213	0.461007	-0.543172	0.393228	97.922216	-83.698968	-23.471785
55671		17.254085	7.504443	2.460560	-6.700792	-1.143739	7.900225	0.066959	-2.001770	5.955806	-0.783936	-0.390381	0.083984	0.169947	0.080123	0.026342	0.563424	0.448140	-0.562948	0.405972	126.526286	-86.582498	-52.181268
55672		17.799416	9.065789	2.430693	-9.285452	-0.745566	8.020158	-0.216062	-1.996642	5.889069	-0.798828	-0.344238	0.096191	0.174968	0.095868	0.025962	0.546084	0.434799	-0.581915	0.417273	-168.998987	-86.767539	-116.867408
55673		18.256995	11.883388	2.566204	-13.153865	-0.114465	7.735363	-0.219371	-1.969896	5.747217	-0.813721	-0.293701	0.110352	0.178792	0.124038	0.027301	0.528400	0.420817	-0.600505	0.427901	-137.452884	-84.126744	-148.674956
55674		18.028860	15.321777	2.781739	-17.476425	0.679591	6.358092	-0.245409	-1.847766	5.430944	-0.819336	-0.254150	0.113770	0.175774	0.158067	0.029263	0.511554	0.407651	-0.617074	0.437439	-127.410866	-81.106807	-158.939169
55675		17.511339	17.854161	2.605190	-20.594924	1.670113	4.509677	-0.333944	-1.699820	4.843757	-0.827393	-0.214600	0.123779	0.170493	0.182753	0.027211	0.496058	0.394988	-0.632203	0.445230	-123.069072	-78.220384	-163.580647
55676		16.760603	19.729746	2.368410	-22.760818	2.563147	2.478236	-0.455936	-1.591277	4.009641	-0.830566	-0.181641	0.127441	0.163412	0.200657	0.024541	0.482907	0.384640	-0.644920	0.450478	-121.365689	-75.793429	-165.596881
55677		15.086401	21.432940	3.271467	-24.604006	2.409262	-0.514874	-0.567390	-1.450045	3.079631	-0.831299	-0.159424	0.144531	0.147300	0.216710	0.033179	0.472158	0.376333	-0.655735	0.453268	-120.926463	-73.817824	-166.402170
55678		12.733897	23.029095	5.357155	-26.226626	1.173513	-4.160772	-0.586761	-1.261299	2.115853	-0.831787	-0.146240	0.146240	0.124554	0.231776	0.053684	0.464314	0.370847	-0.663958	0.453922	-121.240220	-72.409582	-166.426054
55679		11.130617	23.923251	7.077429	-27.139171	0.018234	-6.689360	-0.425460	-1.034855	1.167598	-0.822998	-0.139404	0.155029	0.109540	0.240026	0.070834	0.458883	0.368363	-0.669506	0.453316	-121.972061	-71.517593	-165.904617
55680		13.175583	23.611689	6.991772	-27.498194	-0.160284	-4.932833	0.005918	-0.801279	0.440643	-0.821045	-0.135010	0.155029	0.130954	0.236404	0.070450	0.455208	0.368722	-0.672123	0.452859	-122.715834	-71.061740	-165.116198
55681		11.752688	21.904973	5.794623	-25.187892	0.395916	-5.696742	0.672727	-0.433099	-0.129123	-0.816406	-0.137207	0.157227	0.117541	0.218777	0.058937	0.452755	0.371931	-0.671218	0.454035	-123.091790	-71.002523	-164.286601
55682		12.336345	23.591161	7.539190	-27.353908	-1.044900	-5.784730	1.136592	0.207736	-1.089209	-0.813965	-0.143799	0.161865	0.124723	0.234802	0.076599	0.453817	0.377684	-0.666107	0.455748	-123.154353	-71.593312	-163.533458
55683		16.415427	27.744133	10.662445	-33.073155	-3.573898	-3.014712	1.617092	0.900730	-2.184329	-0.813477	-0.159180	0.159912	0.167650	0.274753	0.108103	0.458713	0.386992	-0.655910	0.457823	-123.082581	-72.959148	-162.597715
55684		19.183715	10.344522	-0.651881	-14.570205	1.797423	6.308522	1.895114	1.411817	-2.980491	-0.812744	-0.183350	0.151855	0.193303	0.100636	-0.006917	0.466436	0.397818	-0.642435	0.459843	-122.866588	-74.835160	-161.692807
55685		22.138237	-28.116099	-4.632863	22.421936	-4.059925	18.163527	3.019973	2.013321	-2.047279	-0.810303	-0.187744	0.145264	0.217984	-0.282639	-0.052795	0.471565	0.407313	-0.626176	0.468643	-119.774637	-76.491230	-163.048285
55686		21.713612	3.595425	12.338073	-10.481533	-12.556763	9.397504	2.572634	2.085778	-2.095630	-0.816650	-0.203369	0.136719	0.218760	0.032096	0.121534	0.477697	0.414981	-0.610828	0.475905	-116.111660	-78.115376	-165.292185
55687		18.923087	23.748907	12.664906	-28.714675	-8.478962	3.822121	-0.416614	1.589829	-3.928845	-0.806396	-0.242920	0.117920	0.194846	0.233959	0.124625	0.492814	0.422451	-0.599410	0.468377	-117.490607	-80.584619	-164.107340
55688		12.912369	4.744149	0.954013	-6.557349	-0.549530	2.304150	-0.607506	0.595914	-4.153294	-0.794189	-0.278076	0.118896	0.130099	0.044774	0.009015	0.505519	0.431917	-0.590441	0.457468	-124.194953	-82.809462	-157.685551
55689		6.218124	0.304856	-2.382916	-0.422426	2.079809	-3.493808	0.294865	0.226939	-3.631763	-0.793457	-0.300049	0.123779	0.062196	0.001954	-0.023896	0.514013	0.443150	-0.580848	0.449471	-135.407816	-84.558192	-146.212684
55690		5.906117	2.592518	1.094886	-3.117071	-0.860600	-4.125759	-0.193144	0.523182	-3.438537	-0.776855	-0.328369	0.115723	0.059524	0.024915	0.010769	0.523630	0.451403	-0.572214	0.441155	-152.747630	-85.975824	-128.927197
55691		8.409941	7.337886	2.689080	-7.946482	-1.611583	-1.685766	0.176184	0.726552	-3.250073	-0.769287	-0.356934	0.116455	0.085374	0.071975	0.026646	0.532621	0.459842	-0.562102	0.434629	178.713742	-86.856356	-100.210864
55692		10.209929	9.134126	1.781254	-9.250303	-0.472718	0.436295	-0.227172	0.564396	-2.969251	-0.766602	-0.374512	0.114746	0.103490	0.089832	0.017419	0.541141	0.466308	-0.554183	0.427322	147.707054	-86.668450	-69.287800
55693		10.041624	-0.157164	-0.001666	0.492361	-0.570137	0.201631	-0.185719	0.573633	-2.338603	-0.761475	-0.398682	0.117676	0.100388	-0.002746	-0.000302	0.548344	0.471378	-0.547093	0.421677	127.745871	-85.970699	-49.368616
55694		9.698002	4.874527	1.284585	-4.477917	-0.802788	0.125201	0.097546	0.460921	-2.093378	-0.756592	-0.411865	0.106934	0.097512	0.047720	0.012645	0.553777	0.476378	-0.540639	0.417257	116.704216	-85.091114	-38.238182
55695		9.558425	3.347772	1.729479	-2.868263	-1.532008	-0.066680	-0.379036	0.410037	-2.000111	-0.749268	-0.427002	0.114014	0.095948	0.032552	0.017036	0.560151	0.480176	-0.535070	0.411537	109.079293	-84.075967	-30.775377
55696		7.358133	5.357962	1.347826	-4.775580	-0.641369	-1.973892	0.064505	0.304329	-1.774598	-0.744141	-0.448975	0.107910	0.074073	0.052919	0.013383	0.564459	0.484464	-0.529783	0.407443	104.945107	-83.151711	-26.578771
55697		8.797648	3.949914	-0.368769	-2.752316	0.674767	-0.587500	0.177058	0.400613	-1.497002	-0.739258	-0.462158	0.108154	0.088261	0.038843	-0.003830	0.568346	0.488399	-0.524221	0.404527	101.509023	-82.315120	-22.992617
55698		9.541346	2.797571	-1.478089	-1.186043	1.499845	0.055997	0.342329	0.431973	-1.273830	-0.738770	-0.477539	0.108643	0.095557	0.027393	-0.014940	0.571225	0.491830	-0.519158	0.402840	99.037680	-81.638231	-20.299247
55699		9.734856	3.225961	-0.842123	-1.571629	0.957635	0.311304	0.291150	0.437118	-1.123440	-0.736328	-0.486328	0.113281	0.097509	0.031725	-0.008588	0.574091	0.494993	-0.514124	0.401345	96.843885	-80.980144	-17.888881
55700		9.872288	3.418786	1.327441	-2.041435	-1.132428	0.456747	0.254593	0.378388	-1.041554	-0.727295	-0.492920	0.113525	0.098924	0.033656	0.013130	0.576535	0.497639	-0.509920	0.399930	95.276885	-80.406642	-16.153621
55701		9.492757	3.932108	1.631557	-2.536530	-1.326078	0.189433	0.418074	0.170375	-0.999314	-0.731445	-0.505859	0.122559	0.095136	0.038812	0.016316	0.578104	0.501334	-0.505685	0.398426	94.564387	-79.790229	-15.165551
55702		10.309502	2.924271	1.409625	-1.275728	-1.346130	0.835494	0.403030	0.129676	-0.922032	-0.717773	-0.512451	0.118408	0.103237	0.028739	0.014088	0.579271	0.504571	-0.502168	0.397089	94.165928	-79.266123	-14.525959
55703		10.996880	3.200364	1.614743	-1.343457	-1.531283	1.572853	0.089614	0.342476	-0.804105	-0.717529	-0.521240	0.120850	0.110124	0.031554	0.015973	0.581686	0.506425	-0.498569	0.395732	92.964173	-78.765748	-13.231424
55704		9.863993	4.497675	0.502641	-2.519314	-0.135422	0.742600	-0.249969	0.378580	-0.732032	-0.712646	-0.532227	0.112305	0.098813	0.044621	0.004784	0.584726	0.506774	-0.496083	0.393925	91.656793	-78.352275	-12.044120
55705		9.681770	4.211508	0.107358	-2.121634	0.241117	0.527770	-0.226197	0.301873	-0.617931	-0.710449	-0.534424	0.116699	0.096949	0.041817	0.000880	0.587452	0.507287	-0.493695	0.392206	90.590286	-77.950074	-11.070713
55706		9.653882	3.680978	-0.466852	-1.449719	0.735695	0.401116	-0.256222	0.202544	-0.482635	-0.714600	-0.541016	0.114746	0.096622	0.036571	-0.004813	0.589566	0.507332	-0.492355	0.390657	89.892235	-77.670810	-10.507203
55707		9.912276	2.987817	0.062617	-0.771580	0.096119	0.511046	-0.258978	0.100893	-0.345679	-0.712158	-0.549805	0.119385	0.099174	0.029708	0.000538	0.591322	0.507460	-0.491310	0.389150	89.421799	-77.421969	-10.160312
55708		9.983504	2.731739	0.295186	-0.520697	-0.173868	0.527451	-0.310265	0.010227	-0.258900	-0.703125	-0.552002	0.114990	0.099870	0.027193	0.002905	0.592657	0.507163	-0.491203	0.387636	89.217608	-77.270277	-10.133685
55709		10.078401	2.681386	0.122993	-0.384866	-0.015460	0.609918	-0.310651	-0.050447	-0.228830	-0.709473	-0.560791	0.117432	0.100814	0.026700	0.001214	0.593933	0.507127	-0.491015	0.385966	89.114648	-77.091455	-10.194521
55710		9.897111	2.473232	0.049521	-0.189419	0.019567	0.387108	-0.237447	-0.115997	-0.204605	-0.707275	-0.562988	0.113037	0.098996	0.024632	0.000523	0.594665	0.507153	-0.491276	0.384469	89.266353	-76.971836	-10.490262
55711		10.050396	2.352066	-0.450267	0.085396	0.468777	0.508084	-0.172100	-0.154234	-0.209801	-0.702637	-0.569336	0.119873	0.100532	0.023411	-0.004445	0.595287	0.507665	-0.491192	0.382935	89.494766	-76.806951	-10.810988
55712		10.349477	2.054474	-0.308907	0.428682	0.243745	0.731729	-0.110755	-0.158931	-0.201542	-0.698242	-0.571533	0.122070	0.103518	0.020439	-0.003018	0.595584	0.508140	-0.491342	0.381648	89.812888	-76.688664	-11.203469
55713		10.744666	1.996616	-0.702759	0.678645	0.583445	1.101851	-0.089623	-0.151893	-0.210243	-0.695801	-0.573730	0.122314	0.107473	0.019850	-0.006955	0.595990	0.508882	-0.491108	0.380326	90.072611	-76.525327	-11.508746
55714		10.561175	2.014959	-1.372430	0.774567	1.231534	0.928137	-0.097340	-0.180903	-0.234642	-0.695557	-0.584717	0.126953	0.105648	0.020019	-0.013639	0.596260	0.509517	-0.491212	0.378915	90.436571	-76.387045	-11.940948
55715		10.062289	1.896942	-0.430069	0.615374	0.288119	0.413320	-0.149626	-0.195388	-0.274261	-0.693359	-0.584717	0.126953	0.100653	0.018828	-0.004216	0.596815	0.510312	-0.491070	0.377151	90.752925	-76.188475	-12.339917
55716		9.727311	1.934355	0.039425	0.432840	-0.169689	0.094260	-0.159295	-0.208607	-0.294984	-0.688477	-0.593262	0.127197	0.097301	0.019200	0.000480	0.597286	0.510960	-0.491216	0.375335	91.125328	-76.014130	-12.818041
55717		9.580817	1.205487	0.431628	1.040720	-0.711502	-0.229257	-0.075107	-0.215442	-0.263319	-0.686035	-0.600098	0.122803	0.095819	0.011930	0.004415	0.597570	0.511970	-0.491038	0.373737	91.511838	-75.822710	-13.247251
55718		9.588233	2.979635	0.905949	-0.716311	-0.852875	0.206922	-0.057328	-0.235633	-0.294600	-0.683838	-0.599854	0.122803	0.095915	0.029658	0.009164	0.597709	0.512968	-0.491070	0.372100	91.981385	-75.646480	-13.766099
55719		9.962284	2.405577	1.166668	-0.102522	-1.270144	0.423089	-0.017404	-0.232838	-0.332059	-0.676758	-0.613037	0.127686	0.099649	0.023891	0.011781	0.597929	0.514326	-0.490675	0.370389	92.409569	-75.415797	-14.207677
55720		10.060615	1.885762	0.493098	0.584698	-0.748317	0.390900	0.053484	-0.205188	-0.393542	-0.672363	-0.608643	0.129883	0.100638	0.018658	0.005039	0.598037	0.515837	-0.490152	0.368803	92.840335	-75.181767	-14.621814
55721		9.862705	2.426091	0.052058	0.161863	-0.225763	0.340350	0.031461	-0.167179	-0.502497	-0.660889	-0.619385	0.130127	0.098687	0.024013	0.000607	0.598605	0.517608	-0.489045	0.366863	93.108670	-74.856031	-14.873036
55722		9.929895	1.835656	-0.293115	0.860525	-0.032042	0.252924	-0.030184	-0.103140	-0.598847	-0.656250	-0.625977	0.128174	0.099355	0.018059	-0.002883	0.599548	0.519176	-0.487833	0.364716	93.229555	-74.506767	-15.016782
55723		10.007441	2.542612	-0.326279	0.291378	0.115799	0.513078	-0.118163	-0.013881	-0.719633	-0.644775	-0.636963	0.132813	0.100165	0.025064	-0.003271	0.601259	0.520726	-0.485981	0.362152	93.062073	-74.063283	-14.906377
55724		10.243479	2.198617	-0.627082	0.822110	0.316009	0.645784	-0.176649	0.075796	-0.837011	-0.637939	-0.645752	0.126465	0.102523	0.021552	-0.006329	0.603434	0.522093	-0.483865	0.359389	92.720404	-73.583068	-14.656491
55725		10.709625	1.734389	-1.019461	1.569025	0.572970	0.955435	-0.187314	0.173114	-0.920301	-0.626221	-0.658936	0.117920	0.107166	0.016841	-0.010303	0.606110	0.523557	-0.481045	0.356531	92.166396	-73.030660	-14.183750
55726		10.984041	1.993820	-1.171593	1.547919	0.756408	1.279097	-0.259633	0.227968	-1.030557	-0.612793	-0.661133	0.118164	0.109928	0.019357	-0.011867	0.609187	0.524841	-0.478087	0.353363	91.529377	-72.441202	-13.672950
55727		11.316204	1.294401	-0.724066	2.335915	0.163620	1.357423	-0.310856	0.286006	-1.151114	-0.607910	-0.674316	0.107422	0.113223	0.012281	-0.007422	0.612817	0.526244	-0.474522	0.349789	90.770025	-71.757181	-13.055538
55728		11.545528	2.123975	-0.321122	1.697569	-0.066260	1.807352	-0.346893	0.376770	-1.299202	-0.587646	-0.685059	0.112061	0.115584	0.020483	-0.003465	0.616901	0.527598	-0.470519	0.345955	89.911103	-71.010496	-12.359434
55729		12.095236	1.384778	-0.124140	2.688301	-0.425538	2.053938	-0.333989	0.487602	-1.446703	-0.573730	-0.698242	0.105957	0.121045	0.012970	-0.001559	0.621513	0.529209	-0.465566	0.341919	88.924454	-70.153112	-11.510798
55730		12.579785	0.715236	-0.450871	3.727826	-0.248666	2.229052	-0.281271	0.588000	-1.582758	-0.553467	-0.704834	0.097168	0.125835	0.006150	-0.004888	0.626329	0.531000	-0.459989	0.337876	87.915400	-69.233622	-10.607243
55731		12.783713	1.505043	-0.551482	3.323480	0.038832	2.634826	-0.282636	0.696045	-1.747657	-0.535156	-0.717773	0.095459	0.127942	0.013925	-0.005980	0.631698	0.533008	-0.453457	0.333523	86.827374	-68.192329	-9.610383
55732		12.819355	1.011698	-0.325964	3.978026	-0.239318	2.417503	-0.288922	0.816206	-1.933624	-0.510254	-0.733154	0.082520	0.128269	0.008872	-0.003796	0.637528	0.535094	-0.446156	0.328904	85.699159	-67.052528	-8.569880
55733		12.523905	1.048247	-0.007081	4.030558	-0.467839	2.081661	-0.266566	0.956942	-2.137780	-0.494385	-0.743896	0.087402	0.125339	0.009142	-0.000683	0.643931	0.537453	-0.437650	0.323974	84.518102	-65.765729	-7.446853
55734		12.881291	0.730240	-0.408279	4.834621	-0.095434	2.155418	-0.216808	1.085863	-2.351340	-0.469238	-0.757324	0.070068	0.128862	0.005783	-0.004789	0.650664	0.540102	-0.428123	0.318806	83.365350	-64.356479	-6.313177
55735		13.815952	-0.222463	-0.670213	6.450671	-0.005888	2.424775	-0.159763	1.208574	-2.523367	-0.455811	-0.763672	0.074707	0.138073	-0.003973	-0.007534	0.657717	0.543030	-0.417478	0.313431	82.242263	-62.819217	-5.163195
55736		14.782160	0.064973	-0.626726	6.990980	0.071006	3.226249	-0.111786	1.327041	-2.704663	-0.426270	-0.776855	0.061768	0.147766	-0.001353	-0.007247	0.664973	0.546172	-0.405871	0.307857	81.180335	-61.172162	-4.033646
55737		16.392705	-0.076366	-0.207198	8.218147	-0.305368	4.368809	-0.080312	1.438179	-2.904551	-0.401611	-0.787598	0.060059	0.163872	-0.003145	-0.003250	0.672558	0.549512	-0.393160	0.301873	80.172272	-59.385336	-2.930759
55738		18.657996	-0.886886	-0.432326	10.578147	-0.169442	5.586443	0.061033	1.588455	-3.094031	-0.367676	-0.798584	0.051514	0.186371	-0.011752	-0.005807	0.680099	0.553323	-0.379139	0.295893	79.262291	-57.474565	-1.822378
55739		19.057204	-1.249334	-0.611722	11.657462	0.091587	5.325519	0.106508	1.633650	-3.334404	-0.342773	-0.815918	0.054199	0.190270	-0.015664	-0.007680	0.687770	0.557455	-0.364130	0.289179	78.485711	-55.415011	-0.827212
55740		19.747150	-2.082215	-0.682431	13.289387	0.145590	4.954545	-0.031800	1.610354	-3.597658	-0.311279	-0.824463	0.048096	0.196991	-0.024370	-0.008408	0.695876	0.561463	-0.348513	0.281168	77.797949	-53.204060	-0.003580
55741		21.006788	-3.445487	-0.207392	15.604653	-0.451628	4.658940	-0.315769	1.622362	-3.751774	-0.279785	-0.828857	0.041504	0.209347	-0.038392	-0.003716	0.704757	0.564427	-0.332781	0.272023	77.045703	-50.907984	0.704970
55742		21.868911	-2.666940	-1.651004	16.388613	1.275219	4.945449	-0.737913	1.593264	-3.883417	-0.248047	-0.843994	0.028809	0.217975	-0.030972	-0.018140	0.714627	0.565996	-0.317108	0.261532	76.181063	-48.528028	1.283328
55743		21.984459	-2.724168	-2.499609	17.243141	2.199376	4.142386	-0.987826	1.533099	-4.012386	-0.214600	-0.850586	0.020264	0.219038	-0.031770	-0.026528	0.724949	0.566573	-0.301667	0.249880	75.297964	-46.098910	1.691457
55744		23.010697	-3.168503	-4.311343	19.134036	3.966965	3.460709	-0.867733	1.533160	-3.991526	-0.185303	-0.854736	0.013916	0.229072	-0.036456	-0.044721	0.734549	0.567400	-0.285787	0.238373	74.547063	-43.658142	2.050182
55745		23.425177	-2.862703	-5.625616	19.965100	5.408414	2.861727	-0.393059	1.487918	-3.873335	-0.156006	-0.863525	0.007568	0.233211	-0.033263	-0.057931	0.742237	0.569472	-0.270017	0.227766	74.113580	-41.318661	2.333408
55746		20.852454	-3.279564	-4.807337	18.620029	4.533458	0.256235	0.805312	1.267957	-3.520915	-0.133545	-0.872070	0.018799	0.207596	-0.036258	-0.049533	0.745543	0.575666	-0.254291	0.219341	74.444553	-39.175954	2.534613
55747		17.663404	-4.486575	-2.649992	16.898109	2.144343	-2.814549	1.403755	1.041974	-3.119147	-0.109131	-0.869629	0.023193	0.175765	-0.047420	-0.027744	0.746079	0.583515	-0.240218	0.212534	75.162362	-37.335159	2.652235
55748		14.996541	-3.478574	-1.574408	14.246172	1.311452	-3.914725	0.606440	0.835084	-2.741787	-0.097900	-0.873779	0.023438	0.149402	-0.036787	-0.016478	0.748159	0.588121	-0.228404	0.205433	75.460928	-35.690318	2.733660
55749		11.356658	-1.264937	-0.140184	10.025382	0.289628	-4.336076	-1.097461	0.764549	-2.613399	-0.080078	-0.874023	0.008057	0.113382	-0.014141	-0.001761	0.754801	0.586029	-0.219417	0.196726	74.803476	-34.180885	2.758146
55750		1.581927	10.853861	1.696450	-4.755601	1.111516	0.153434	-2.435715	0.440269	-2.362730	-0.064209	-0.880615	-0.018311	0.017137	0.108537	0.015606	0.764646	0.578910	-0.213167	0.186384	73.490944	-32.805857	2.606730
55751		6.382069	13.835127	-4.105741	-1.332655	7.942953	3.755956	-2.657574	-0.365854	-2.252002	-0.048340	-0.880859	-0.047119	0.065446	0.137060	-0.042766	0.773862	0.571296	-0.210952	0.173946	72.333759	-31.684703	1.898267
55752		13.449767	-6.202452	-8.298474	15.725275	6.393973	-10.037437	-2.268710	-0.551821	-1.145670	-0.048584	-0.876953	-0.075928	0.134363	-0.063728	-0.081897	0.780702	0.564158	-0.211741	0.165514	71.341492	-31.155676	1.307288
55753		11.539999	-9.794779	-4.562461	15.424424	1.354219	-13.001287	-2.814066	-0.645440	0.152964	-0.061768	-0.875244	-0.100342	0.115619	-0.098485	-0.043868	0.787629	0.553437	-0.217449	0.161442	69.931296	-31.415141	0.914732
55754		4.692659	-7.321051	1.051069	7.442529	-3.491860	-12.834644	-3.120492	-0.855809	1.103628	-0.077637	-0.869141	-0.138184	0.047280	-0.072772	0.011850	0.794338	0.540560	-0.226332	0.159989	68.286791	-32.176887	0.641646
55755		1.008154	-5.432658	1.990677	3.193423	-3.874508	-12.859171	-2.251396	-0.992530	1.561797	-0.102051	-0.864990	-0.153809	0.010403	-0.054017	0.020567	0.797840	0.530503	-0.236802	0.161067	67.123723	-33.281516	0.395023
55756		1.668631	-2.788920	1.558769	2.481232	-2.523264	-10.496834	-1.820195	-1.025750	1.713532	-0.120117	-0.861084	-0.169434	0.016843	-0.027601	0.015926	0.800012	0.521992	-0.246855	0.162996	66.181040	-34.412017	0.214235
