// General information: 
//  MT Manager version: 2019.2.0 
//  XDA version: 2019.2.0 build 3853 rev 94535 built on 2019-09-09
// Device information: 
//  DeviceId: 00B40A23
//  ProductCode: MTW2-3A7G6
//  Firmware Version: 4.3.5
//  Hardware Version: 1.1.0
// Device settings: 
//  Filter Profile: human(46.1)
//  Option Flags: Orientation Smoother Disabled, AHS Disabled, ICC Disabled
// Coordinate system: ENU
PacketCounter	SampleTimeFine	Acc_X	Acc_Y	Acc_Z	FreeAcc_E	FreeAcc_N	FreeAcc_U	Gyr_X	Gyr_Y	Gyr_Z	Mag_X	Mag_Y	Mag_Z	VelInc_X	VelInc_Y	VelInc_Z	Quat_q0	Quat_q1	Quat_q2	Quat_q3	Roll	Pitch	Yaw	TrigIn1_Polarity	TrigIn1_Timestamp	TrigIn1_FrameNumber	TrigIn2_Polarity	TrigIn2_Timestamp	TrigIn2_FrameNumber
60744		26.831747	-8.619909	12.676690	13.517556	3.654533	17.720958	-1.016812	-9.518597	-2.221295	-0.741455	0.108398	0.639893	0.260896	-0.088436	0.139751	-0.071825	-0.708869	0.110036	-0.692992	-119.955867	-86.646680	-74.827387						
60745		20.943263	-14.351900	11.378994	15.939076	9.847368	10.743708	-0.573242	-8.624961	-2.979870	-0.688721	0.084717	0.702393	0.202093	-0.146223	0.123029	-0.079367	-0.739454	0.104474	-0.660298	-169.884207	-83.267372	-25.080343						
60746		22.779392	-9.857019	16.177583	21.387311	4.383409	10.201891	-0.788998	-7.948128	-3.595323	-0.626953	0.054688	0.747070	0.219307	-0.101902	0.171003	-0.089940	-0.766572	0.096862	-0.628408	175.240807	-78.772766	-10.495052						
60747		25.081244	-6.523779	20.155508	26.296899	0.319879	9.828236	-1.078150	-6.445497	-3.722214	-0.583008	0.024414	0.778564	0.242881	-0.068692	0.209833	-0.102590	-0.787610	0.088842	-0.601043	167.936597	-74.797222	-3.634659						
60748		16.330265	7.615003	22.978075	23.783521	-13.810489	-0.005289	-1.933931	-4.635100	-3.257698	-0.547852	-0.008301	0.801270	0.159167	0.075776	0.232768	-0.117900	-0.801635	0.084194	-0.579994	163.031052	-71.757313	0.325394						
60749		40.252799	-9.667236	25.552087	39.018315	1.383173	19.203345	-4.779077	-3.238674	-1.174698	-0.535156	-0.050293	0.804443	0.397743	-0.092773	0.264236	-0.139057	-0.808368	0.095243	-0.564032	160.145633	-69.781318	0.477776						
60750		21.815930	-16.682583	24.354762	34.298122	7.395085	0.971848	-3.443609	2.089624	-0.995760	-0.559082	-0.070801	0.776123	0.219888	-0.163718	0.244093	-0.156764	-0.800332	0.099492	-0.570084	155.440137	-70.683489	3.376875						
60751		4.497373	-21.947250	17.565400	24.530168	13.917966	-13.683061	-2.028777	3.219791	-0.576044	-0.590332	-0.080078	0.754150	0.047188	-0.217814	0.177121	-0.168108	-0.789715	0.100456	-0.581376	150.927728	-72.179071	6.907125						
60752		-1.760718	-18.700518	13.197603	17.831685	12.152124	-17.644296	0.046544	3.194310	-0.513952	-0.608398	-0.078125	0.732178	-0.015977	-0.186993	0.132196	-0.170992	-0.780536	0.095658	-0.593611	147.068227	-73.614206	10.968532						
60753		-1.121087	-13.929889	10.407411	13.883282	8.951104	-15.356606	1.476676	2.636033	-0.123221	-0.625000	-0.058594	0.716309	-0.009933	-0.140057	0.103178	-0.166847	-0.773958	0.088560	-0.604407	144.717989	-74.823419	14.286681						
60754		3.191163	-8.888416	10.214763	13.024909	4.877297	-10.086505	2.051532	2.686752	0.503238	-0.650146	-0.045654	0.693848	0.033497	-0.089840	0.100786	-0.158525	-0.767106	0.082138	-0.616175	143.286139	-76.260333	16.974844						
60755		6.741917	-6.558974	10.394707	13.096200	3.163174	-5.942270	2.075306	3.291202	1.302700	-0.678223	-0.017090	0.666748	0.069540	-0.066207	0.102129	-0.147882	-0.757930	0.078145	-0.630529	142.058306	-78.210769	19.449619						
60756		6.328096	-5.740389	9.491196	11.702665	2.889337	-5.599866	1.922559	3.993789	1.899215	-0.699463	0.004639	0.635254	0.065699	-0.057688	0.093062	-0.136092	-0.745668	0.076396	-0.647783	139.952246	-80.699724	22.707224						
60757		6.571061	-5.730129	8.498238	10.519033	3.375485	-4.698642	1.851615	4.560477	2.229090	-0.738770	0.035156	0.594727	0.068256	-0.057324	0.082915	-0.123673	-0.731051	0.075608	-0.666748	135.108773	-83.491429	28.663528						
60758		7.460502	-5.462190	7.742731	9.432862	3.522679	-3.178353	1.919180	5.047657	2.373879	-0.764404	0.054932	0.552246	0.077165	-0.054443	0.074978	-0.110560	-0.714042	0.074827	-0.687257	119.318370	-86.380864	45.609138						
60759		8.548579	-4.980952	7.213743	8.348079	3.364986	-1.514354	2.061023	5.535811	2.392298	-0.788086	0.087891	0.498535	0.088022	-0.049490	0.069213	-0.097007	-0.694922	0.073217	-0.708740	52.937785	-87.770627	113.233046						
60760		8.546989	-3.495178	6.792536	6.995299	2.123602	-0.985829	2.138678	5.961475	2.361815	-0.818359	0.109619	0.444824	0.087846	-0.034629	0.064959	-0.083291	-0.673398	0.071007	-0.731133	5.742457	-85.215735	161.719055						
60761		8.805262	-1.519418	6.690004	5.828208	0.296547	-0.299764	1.978921	6.250977	2.377071	-0.846436	0.135986	0.377930	0.090260	-0.014773	0.063954	-0.070118	-0.650143	0.069160	-0.753402	-5.135643	-81.625202	173.801522						
60762		10.059944	-0.100772	6.672916	4.661130	-1.053908	1.271085	1.534655	6.512054	2.452672	-0.856201	0.158203	0.310791	0.102706	-0.000252	0.063404	-0.058054	-0.624695	0.069118	-0.775634	-9.381348	-77.713274	179.003058						
60763		11.360055	0.291050	6.618781	3.450457	-1.477537	2.788280	0.940755	6.836315	2.547212	-0.866211	0.180420	0.248291	0.115727	0.004077	0.062273	-0.047569	-0.597181	0.071423	-0.797503	-11.667428	-73.597643	-178.085742						
60764		11.345783	-0.519997	6.230336	2.293915	-0.726475	2.913113	0.397509	7.139600	2.586954	-0.862549	0.198486	0.170166	0.115640	-0.003832	0.058192	-0.038540	-0.567242	0.075899	-0.819140	-13.154844	-69.252626	-176.282729						
60765		11.126543	-1.609463	6.236046	1.584256	0.205088	2.940584	0.026834	7.231883	2.543595	-0.852295	0.218750	0.096436	0.113615	-0.014667	0.058278	-0.030768	-0.536277	0.081582	-0.839527	-14.180873	-64.884980	-175.156079						
60766		12.487346	-2.824444	6.756360	0.611240	1.091085	4.605856	-0.194257	7.210667	2.474841	-0.832764	0.237305	0.035889	0.127537	-0.026614	0.063023	-0.023775	-0.504359	0.087947	-0.858675	-14.951640	-60.498417	-174.419938						
60767		14.596992	-4.181983	7.786428	-0.538694	1.943327	7.127896	-0.250244	7.238344	2.417597	-0.799316	0.242432	-0.021973	0.149151	-0.039936	0.072555	-0.017195	-0.471855	0.094221	-0.876459	-15.502477	-56.135998	-173.945119						
60768		16.350497	-5.605691	8.971605	-1.745949	2.794702	9.376084	-0.156186	7.329048	2.433271	-0.772705	0.249756	-0.069092	0.167311	-0.053970	0.083673	-0.010292	-0.437997	0.100028	-0.893335	-15.885701	-51.685123	-173.588181						
60769		19.364450	-6.729372	10.435653	-3.947018	3.144983	12.624602	-0.006123	7.396092	2.628091	-0.743652	0.250488	-0.106934	0.198187	-0.064706	0.097084	-0.002258	-0.403345	0.105381	-0.908957	-16.216758	-47.199367	-173.161384						
60770		23.496597	-7.532738	10.748381	-8.352526	3.174620	15.566759	0.177198	7.600127	3.030429	-0.725830	0.250977	-0.144775	0.239926	-0.071806	0.098363	0.007919	-0.366646	0.110597	-0.923730	-16.559727	-42.501660	-172.539385						
60771		24.959113	-6.256403	9.312435	-12.546833	1.591965	14.444144	0.426931	7.874514	3.633289	-0.712891	0.262451	-0.185059	0.254077	-0.058159	0.083050	0.021120	-0.327945	0.115520	-0.937369	-16.904037	-37.584510	-171.629337						
60772		23.823930	-4.492692	7.949643	-14.501676	-0.324899	11.166500	0.554548	7.809393	4.275229	-0.693359	0.278564	-0.236572	0.241986	-0.039983	0.069979	0.037581	-0.288284	0.120722	-0.949161	-17.314263	-32.559934	-170.373288						
60773		25.096352	-3.300880	6.678264	-17.912978	-2.121431	9.148112	0.615996	7.416049	4.632627	-0.680908	0.303223	-0.281494	0.253883	-0.027336	0.057313	0.055943	-0.249941	0.125779	-0.958426	-17.693543	-27.711980	-168.921801						
60774		28.613028	-1.414505	4.592541	-23.261839	-4.959136	6.788471	0.663462	6.897009	4.843657	-0.654541	0.321777	-0.335205	0.287718	-0.007319	0.035988	0.075636	-0.213261	0.130540	-0.965276	-17.999025	-23.076761	-167.335546						
60775		31.977209	0.308430	1.870494	-28.260410	-7.658250	3.159959	0.709001	6.457858	4.778896	-0.624512	0.353516	-0.385010	0.319960	0.010687	0.008403	0.095184	-0.178572	0.134575	-0.970022	-18.152226	-18.712432	-165.776100						
60776		32.124909	0.635168	-2.681205	-30.555405	-7.879417	-3.223904	0.797234	6.005729	4.253936	-0.591553	0.369873	-0.427734	0.320018	0.013300	-0.036392	0.112454	-0.145961	0.137326	-0.973237	-18.073725	-14.668343	-164.472460						
60777		28.791281	-1.589368	-9.159966	-29.938828	-4.033211	-11.385067	1.064426	5.337992	3.043977	-0.558105	0.379395	-0.463623	0.285523	-0.011021	-0.099310	0.124332	-0.117262	0.137326	-0.975670	-17.633353	-11.225432	-163.728973						
60778		25.164640	-2.773083	-15.435148	-28.113573	-0.681679	-19.203333	1.530726	4.403035	1.288830	-0.537842	0.373291	-0.494629	0.248331	-0.024913	-0.160041	0.128482	-0.093859	0.133358	-0.978212	-16.753584	-8.589826	-163.767570						
60779		27.560332	5.011346	-20.398382	-29.211223	-7.408065	-26.915453	1.528483	3.253267	-0.044399	-0.517334	0.364990	-0.514404	0.272252	0.051632	-0.208040	0.126805	-0.077013	0.127953	-0.980621	-15.807125	-6.810769	-164.317256						
60780		34.309538	12.835750	-24.544564	-34.185082	-15.335691	-33.060452	0.220191	2.356242	-0.364746	-0.517090	0.362793	-0.527832	0.340407	0.128008	-0.249326	0.123601	-0.065561	0.128262	-0.981822	-15.624908	-5.568252	-164.885063						
60781		33.805745	10.372440	-28.407457	-34.600496	-11.427033	-36.822942	-1.279127	1.635339	-0.372632	-0.506104	0.365234	-0.534424	0.335906	0.101266	-0.287480	0.120310	-0.058591	0.135446	-0.981706	-16.319317	-4.729255	-165.347822						
60782		26.719522	1.680297	-27.818096	-29.547940	-0.980414	-34.642616	-1.459110	0.284960	-0.878391	-0.515137	0.367188	-0.530029	0.266863	0.013599	-0.278668	0.115378	-0.058757	0.142540	-0.981284	-17.115800	-4.727828	-165.876175						
60783		24.135228	-3.313812	-20.880761	-27.247303	2.953878	-26.495616	-0.407198	-1.316457	-1.812532	-0.526123	0.360352	-0.514404	0.242403	-0.035755	-0.207143	0.107310	-0.066771	0.143260	-0.981582	-17.281785	-5.758477	-166.646168						
60784		27.677977	-2.401556	-10.854786	-29.104894	-1.016360	-16.252613	0.638096	-2.159135	-2.524330	-0.549561	0.330811	-0.502441	0.277601	-0.027176	-0.105637	0.096663	-0.078981	0.138137	-0.982515	-16.804664	-7.382585	-167.670340						
60785		-4.231427	5.639009	13.850929	7.599921	-8.003213	1.129890	0.167601	-1.624913	-2.876689	-0.571777	0.319336	-0.488770	-0.042622	0.056886	0.138211	0.083720	-0.088889	0.135398	-0.983238	-16.526022	-8.750261	-168.993165						
60786		0.194145	-9.755849	27.352434	4.287007	2.405322	18.807931	-0.194745	-2.396712	-2.394683	-0.589111	0.303467	-0.472900	-0.002503	-0.097280	0.273607	0.073464	-0.102542	0.134289	-0.982881	-16.485762	-10.477136	-169.928928						
60787		-24.934700	-21.055644	19.516721	26.476533	19.406969	9.374883	-0.013942	-3.141523	-2.347310	-0.622314	0.295898	-0.447998	-0.254819	-0.207574	0.191208	0.064030	-0.119572	0.131999	-0.981926	-16.337756	-12.586827	-170.724281						
60788		-0.104808	3.906964	-7.068824	-1.528854	-2.017604	-17.482044	-0.394654	-5.483923	-1.427365	-0.651611	0.295410	-0.405762	0.001170	0.038927	-0.070753	0.060379	-0.147655	0.131316	-0.978421	-16.597898	-15.847589	-170.611238						
60789		24.018636	-12.258296	11.459701	-19.575113	4.929098	11.415326	-1.143536	-7.546353	0.663615	-0.685547	0.303467	-0.350342	0.236022	-0.121103	0.124252	0.067701	-0.184395	0.135051	-0.971173	-17.786210	-19.869069	-168.884919						
60790		26.570956	2.819926	16.632476	-17.311085	-11.561612	13.788432	-0.032953	-5.515573	0.128223	-0.696533	0.302979	-0.310303	0.260971	0.028396	0.173561	0.071988	-0.211191	0.133459	-0.965611	-18.223747	-22.869999	-167.756605						
60791		18.279145	8.265352	7.394177	-12.267633	-13.182965	1.709209	-0.527029	-5.164893	-0.471748	-0.716553	0.298096	-0.263428	0.180999	0.082428	0.078414	0.072584	-0.236587	0.133626	-0.959636	-18.839139	-25.764733	-167.003264						
60792		30.112202	-19.676677	10.932941	-22.147836	10.398483	18.728735	0.771383	-4.445455	-1.207247	-0.738525	0.286377	-0.238770	0.297408	-0.199006	0.115203	0.070640	-0.258572	0.126870	-0.955016	-18.486104	-28.421572	-166.819596						
60793		21.305720	-7.365953	6.653648	-15.082971	1.509343	8.149642	1.491629	-3.337968	-0.782858	-0.731445	0.279785	-0.211914	0.211622	-0.075001	0.069520	0.070943	-0.274464	0.117561	-0.951744	-17.730452	-30.381738	-166.624004						
60794		23.233190	2.947757	10.769218	-13.271111	-9.333884	10.216536	1.148305	-2.017407	-0.862525	-0.726807	0.273193	-0.194092	0.231351	0.027851	0.110192	0.069580	-0.284374	0.110227	-0.949810	-17.007115	-31.659110	-166.765510						
60795		6.662799	1.387388	8.316580	-0.736275	-4.010608	0.129844	0.530152	-1.348628	-0.525994	-0.722412	0.275635	-0.187500	0.066101	0.013478	0.083649	0.068584	-0.290906	0.106515	-0.948327	-16.667286	-32.489014	-166.839150						
60796		12.715252	-7.799017	6.766713	-7.063016	4.047419	4.400703	0.514282	-1.202342	-0.313824	-0.713379	0.275635	-0.180908	0.126621	-0.078364	0.068228	0.068463	-0.296837	0.103231	-0.946860	-16.397180	-33.229290	-166.805393						
60797		9.415549	-0.744717	7.725464	-3.228542	-2.232300	1.740761	0.508369	-0.700007	-0.440282	-0.702148	0.275879	-0.178711	0.093867	-0.007851	0.077564	0.067499	-0.300231	0.099956	-0.946210	-16.024310	-33.687895	-166.958892						
60798		8.715631	-2.339585	7.144361	-3.038615	-0.397591	1.281727	0.363966	-0.461845	-0.347899	-0.695313	0.276123	-0.180908	0.086950	-0.023677	0.071602	0.066611	-0.302719	0.097583	-0.945728	-15.745606	-34.026735	-167.096571						
60799		6.964255	-2.518285	7.677083	-1.283748	0.077605	0.776263	0.332420	-0.309681	-0.338361	-0.675293	0.278564	-0.187744	0.069481	-0.025428	0.076836	0.065671	-0.304267	0.095421	-0.945518	-15.465408	-34.252857	-167.261875						
60800		7.151627	-2.522601	7.649078	-1.416953	0.098904	0.864387	0.243833	-0.260427	-0.313935	-0.675537	0.289795	-0.194580	0.071377	-0.025431	0.076553	0.064663	-0.305823	0.093732	-0.945254	-15.243896	-34.474497	-167.418193						
60801		8.410373	-1.095494	7.529955	-2.382738	-1.463567	1.178905	0.113991	-0.191756	-0.279181	-0.669434	0.303223	-0.206055	0.084016	-0.011115	0.075374	0.063613	-0.306853	0.092731	-0.945090	-15.096591	-34.625488	-167.568123						
60802		7.268987	-1.746780	7.261869	-1.641604	-0.565166	0.463977	0.050039	-0.142559	-0.186958	-0.665039	0.307861	-0.217285	0.072622	-0.017554	0.072666	0.062853	-0.307856	0.092188	-0.944868	-15.020521	-34.762620	-167.662316						
60803		6.913731	-1.009346	8.119658	-0.786559	-1.325469	0.787866	-0.008408	-0.122778	-0.123458	-0.660889	0.314697	-0.235107	0.069081	-0.010133	0.081239	0.062319	-0.308525	0.092025	-0.944701	-14.995026	-34.851983	-167.720738						
60804		7.351486	-0.708284	8.117191	-1.098847	-1.696236	0.973882	-0.125206	-0.157254	0.012431	-0.663574	0.323486	-0.237549	0.073451	-0.007027	0.081234	0.062237	-0.309560	0.092610	-0.944311	-15.097117	-34.967680	-167.678171						
60805		7.231685	-1.052280	7.497389	-1.373161	-1.272906	0.488257	-0.202901	-0.180678	0.127384	-0.670898	0.341064	-0.253418	0.072256	-0.010401	0.075050	0.062613	-0.310447	0.093735	-0.943884	-15.286250	-35.051549	-167.556433						
60806		7.147403	-1.753022	7.171436	-1.516737	-0.556257	0.335117	-0.228612	-0.186440	0.169545	-0.675781	0.350098	-0.262451	0.071422	-0.017388	0.071801	0.063124	-0.311578	0.095040	-0.943346	-15.511975	-35.159387	-167.401743						
60807		6.590017	-2.083832	7.149622	-1.084777	-0.160293	0.070897	-0.244729	-0.170030	0.159150	-0.689941	0.365234	-0.269531	0.065856	-0.020698	0.071578	0.063579	-0.312411	0.096414	-0.942901	-15.737206	-35.231724	-167.259516						
60808		6.192541	-2.033539	7.412503	-0.582330	-0.201080	0.038628	-0.213940	-0.188283	0.138339	-0.697021	0.374023	-0.274170	0.061870	-0.020213	0.074205	0.063965	-0.313559	0.097599	-0.942371	-15.943698	-35.344569	-167.124375						
60809		5.924008	-2.235785	7.539715	-0.281611	-0.000580	0.029086	-0.265614	-0.218626	0.149758	-0.708740	0.391602	-0.278809	0.059174	-0.022213	0.075491	0.064366	-0.314630	0.099042	-0.941836	-16.183691	-35.444258	-166.978015						
60810		6.622326	-2.384648	6.579942	-1.393520	0.125126	-0.279605	-0.326753	-0.292088	0.174846	-0.720703	0.404785	-0.290283	0.066148	-0.023681	0.065935	0.064797	-0.316282	0.100782	-0.941069	-16.482434	-35.607192	-166.796277						
60811		5.741183	-2.828452	7.182031	-0.325664	0.598399	-0.216926	-0.285802	-0.274371	0.157529	-0.729980	0.413330	-0.285889	0.057335	-0.028137	0.071939	0.065229	-0.317615	0.102313	-0.940424	-16.745166	-35.735064	-166.631747						
60812		5.737422	-2.934277	7.040264	-0.380510	0.695697	-0.301410	-0.265702	-0.304462	0.121937	-0.741455	0.422119	-0.283691	0.057285	-0.029214	0.070529	0.065512	-0.319328	0.103678	-0.939675	-16.991873	-35.912121	-166.480812						
60813		4.986663	-3.813543	6.355644	-0.229606	1.779595	-1.061437	-0.105912	-0.301882	-0.010487	-0.745850	0.422119	-0.283691	0.049769	-0.038104	0.063652	0.065456	-0.320815	0.104086	-0.939127	-17.089875	-36.082275	-166.422484						
60814		5.765746	-4.294576	6.054265	-1.021558	2.152487	-0.720688	0.096705	-0.293126	-0.223672	-0.766357	0.428223	-0.281494	0.057521	-0.043039	0.060606	0.064690	-0.322531	0.103201	-0.938690	-16.990962	-36.310517	-166.506978						
60815		6.578497	-4.332795	5.650112	-1.885152	2.131207	-0.545680	0.237520	-0.182554	-0.428957	-0.773438	0.434814	-0.281738	0.065640	-0.043536	0.056509	0.063159	-0.323561	0.101362	-0.938640	-16.708502	-36.484892	-166.758764						
60816		6.160999	-4.400589	5.856854	-1.412784	2.297956	-0.628522	0.325112	-0.000595	-0.649798	-0.781982	0.423584	-0.279297	0.061466	-0.044301	0.058497	0.060615	-0.324044	0.098812	-0.938913	-16.268235	-36.621036	-167.196429						
60817		5.787296	-4.512399	5.746874	-1.184154	2.567356	-0.930864	0.490983	0.099508	-0.961956	-0.795410	0.425537	-0.281494	0.057683	-0.045543	0.057329	0.056849	-0.323928	0.095004	-0.939581	-15.585301	-36.720519	-167.873993						
60818		6.143874	-4.640623	5.939484	-1.336755	2.713852	-0.571113	0.595970	0.199114	-1.297865	-0.808594	0.416260	-0.281250	0.061194	-0.046980	0.059194	0.051605	-0.323688	0.090188	-0.940441	-14.695603	-36.834862	-168.800805						
60819		7.158165	-3.352660	6.065794	-2.004890	1.417240	-0.156426	0.609999	0.336707	-1.501720	-0.812744	0.402832	-0.278564	0.071428	-0.034248	0.060434	0.045382	-0.322643	0.085000	-0.941603	-13.690103	-36.861926	-169.899708						
60820		7.804002	-2.545783	5.830324	-2.648120	0.722831	-0.125646	0.574967	0.524289	-1.593772	-0.816895	0.396240	-0.287354	0.077985	-0.026247	0.058024	0.038568	-0.320967	0.079871	-0.942928	-12.653335	-36.808061	-171.090053						
60821		6.476769	-0.726718	7.836213	-0.374593	-1.012564	0.322191	0.432504	0.578412	-1.395058	-0.827881	0.386963	-0.280518	0.064940	-0.007889	0.078158	0.032457	-0.318733	0.075729	-0.944257	-11.774719	-36.656457	-172.149832						
60822		5.706225	-1.112966	7.966703	0.267397	-0.451169	0.035763	0.446959	0.525354	-1.155277	-0.824951	0.373779	-0.284668	0.057205	-0.011638	0.079491	0.027504	-0.316870	0.071893	-0.945340	-11.001361	-36.522946	-173.026835						
60823		6.668838	-0.918465	6.939415	-1.159130	-0.512238	-0.228041	0.500503	0.434386	-1.059429	-0.833984	0.369141	-0.288818	0.066788	-0.009712	0.069225	0.023137	-0.315151	0.067934	-0.946324	-10.244331	-36.393476	-173.823303						
60824		5.763817	-0.532640	8.222397	0.303513	-0.858748	0.201431	0.536908	0.391735	-0.993614	-0.840088	0.357910	-0.284180	0.057771	-0.005834	0.082096	0.019139	-0.313826	0.063901	-0.947134	-9.503037	-36.300829	-174.563063						
60825		4.845319	-0.885678	8.585493	1.232136	-0.384178	0.000865	0.520859	0.220235	-0.896265	-0.833252	0.355957	-0.284180	0.048507	-0.009298	0.085778	0.015645	-0.313044	0.060076	-0.947707	-8.822069	-36.261325	-175.214640						
60826		5.081733	-1.505806	8.913012	1.239688	0.263961	0.479360	0.402407	0.053021	-0.816581	-0.835449	0.349121	-0.283936	0.050778	-0.015445	0.089086	0.012381	-0.313258	0.056920	-0.947880	-8.254644	-36.331225	-175.790647						
60827		6.984502	-0.357745	8.978570	-0.247383	-0.906950	1.529328	0.448468	-0.240937	-0.864433	-0.837158	0.337891	-0.274902	0.069720	-0.004080	0.089861	0.009059	-0.314643	0.053453	-0.947660	-7.653999	-36.539823	-176.374436						
60828		6.942718	-1.243983	7.970316	-0.756666	0.167855	0.802073	0.407719	-0.386919	-0.860844	-0.848145	0.328857	-0.274658	0.069218	-0.012901	0.079811	0.005717	-0.316935	0.050172	-0.947102	-7.082466	-36.853074	-176.945927						
60829		6.145635	-0.841815	8.377192	0.174634	-0.150153	0.608486	0.331285	-0.589563	-0.872209	-0.843262	0.322266	-0.265625	0.061171	-0.008824	0.083938	0.002263	-0.319960	0.047232	-0.946250	-6.552597	-37.251179	-177.515327						
60830		6.409809	-0.725636	8.295580	-0.004129	-0.191064	0.694035	0.261026	-0.794313	-0.855925	-0.845215	0.311035	-0.258789	0.063736	-0.007638	0.083200	-0.001187	-0.324160	0.044640	-0.944948	-6.071957	-37.787435	-178.064128						
60831		5.584060	0.228324	8.931622	1.108568	-1.112016	0.605614	0.085279	-1.053901	-0.807183	-0.860596	0.306396	-0.251953	0.055377	0.002021	0.089610	-0.004624	-0.329341	0.042963	-0.943222	-5.715150	-38.438976	-178.567961						
60832		5.761108	-0.749637	8.681732	0.994436	-0.078281	0.585744	-0.007620	-1.538837	-0.710879	-0.860107	0.290771	-0.233643	0.056914	-0.007696	0.087257	-0.007665	-0.336982	0.041881	-0.940548	-5.465625	-39.385746	-178.976382						
60833		6.506233	0.057039	8.415511	0.400147	-0.840182	0.783805	-0.088089	-1.894911	-0.643792	-0.868896	0.290527	-0.213623	0.064263	0.000400	0.084766	-0.010441	-0.346036	0.041310	-0.937253	-5.298186	-40.504678	-179.320491						
60834		5.097837	-0.161070	8.722630	1.898834	-0.618568	0.092141	-0.130046	-2.242601	-0.590382	-0.873291	0.283691	-0.191406	0.049991	-0.001702	0.087792	-0.012976	-0.356875	0.041030	-0.933160	-5.184245	-41.844271	-179.610268						
60835		6.248199	0.524427	8.557633	1.143624	-1.288041	0.655120	-0.213642	-2.596916	-0.523744	-0.886230	0.272217	-0.164307	0.061378	0.005175	0.086373	-0.015265	-0.369081	0.041286	-0.928354	-5.159656	-43.356608	-179.831912						
60836		5.750845	0.437418	8.239171	1.579709	-1.175369	0.049522	-0.212264	-2.978593	-0.450998	-0.890381	0.265381	-0.137695	0.056283	0.004334	0.083231	-0.017143	-0.383171	0.041677	-0.922577	-5.183503	-45.108037	-179.974990						
60837		7.018198	0.654295	7.600953	0.542621	-1.347310	0.450734	-0.273375	-3.408184	-0.342782	-0.903809	0.267334	-0.104248	0.068885	0.006529	0.077182	-0.018533	-0.398911	0.042597	-0.915812	-5.327472	-47.073979	-179.996800						
60838		6.403645	0.551930	8.122622	1.721744	-1.319919	0.314931	-0.337487	-3.844502	-0.266811	-0.907959	0.260498	-0.062012	0.062467	0.005574	0.082428	-0.019618	-0.416686	0.043970	-0.907775	-5.587584	-49.309198	-179.909793						
60839		5.534677	0.239340	8.865856	3.283410	-1.121977	0.048143	-0.419772	-4.417247	-0.169466	-0.921143	0.255615	-0.019531	0.053373	0.002535	0.089847	-0.020285	-0.436654	0.045974	-0.898225	-6.027157	-51.840335	-179.656136						
60840		5.690663	0.323136	7.712994	2.733282	-1.145470	-0.692648	-0.450013	-5.149592	-0.054359	-0.923340	0.253174	0.035889	0.054897	0.003392	0.078553	-0.020337	-0.459808	0.048393	-0.886465	-6.684805	-54.803172	-179.160230						
60841		5.762813	1.840088	7.510642	2.901734	-2.700740	-1.022635	-0.474009	-5.982235	0.148773	-0.932129	0.252930	0.098145	0.055335	0.018623	0.076741	-0.019311	-0.486054	0.051451	-0.872199	-7.740233	-58.196377	-178.224398						
60842		6.242798	2.801689	6.340276	2.133118	-3.625436	-1.488300	-0.534054	-6.888439	0.516190	-0.914063	0.252930	0.175781	0.060125	0.028347	0.065425	-0.016596	-0.515807	0.055676	-0.854733	-9.595959	-62.079948	-176.441139						
60843		5.194078	2.935535	6.977251	3.765337	-3.911635	-2.412969	-0.685011	-8.077018	0.988408	-0.909668	0.259521	0.268799	0.048924	0.029846	0.071688	-0.011880	-0.549578	0.061803	-0.833068	-13.038000	-66.511654	-173.062994						
60844		6.016878	0.036580	9.721055	6.919059	-1.545233	-0.849007	-0.987218	-9.189076	1.232343	-0.882568	0.261963	0.355225	0.055615	0.001207	0.099832	-0.006641	-0.586980	0.069781	-0.806561	-19.181308	-71.405175	-167.096572						
60845		14.913881	-4.736243	10.019012	6.085560	2.231640	7.593474	-1.341612	-9.311851	0.941910	-0.848389	0.255859	0.441895	0.144471	-0.045970	0.107302	-0.003529	-0.623513	0.078211	-0.777883	-29.155252	-76.070412	-157.521069						
60846		12.409758	-6.749983	6.793131	5.157880	4.579372	4.258149	-0.963517	-9.042274	0.190166	-0.801025	0.251953	0.532715	0.120913	-0.067038	0.073771	-0.002290	-0.658085	0.082634	-0.748392	-45.113942	-80.193747	-141.796839						
60847		21.273921	-6.814622	9.928705	8.708414	3.158342	12.801404	-0.896950	-8.907352	-0.513904	-0.761963	0.237061	0.612793	0.207855	-0.068210	0.108925	-0.003488	-0.690966	0.084345	-0.717941	-75.117929	-83.089119	-112.016655						
60848		25.670524	-7.278059	9.431335	10.250531	3.119319	16.370853	-0.847361	-8.757358	-1.020998	-0.702881	0.220215	0.670410	0.251867	-0.073643	0.105726	-0.006416	-0.722256	0.083942	-0.686483	-118.440626	-83.077445	-68.899322						
60849		20.105276	-0.935908	11.004870	12.667024	-2.690134	9.114358	-0.973966	-7.942502	-1.229284	-0.650391	0.200928	0.730713	0.196412	-0.010014	0.117959	-0.010822	-0.749423	0.083058	-0.656772	-145.877296	-80.469525	-41.761668						
60850		18.028890	-3.950683	13.498949	16.682239	0.158746	5.816254	-1.897928	-7.809168	-1.171167	-0.595459	0.179688	0.779541	0.174598	-0.039213	0.142255	-0.018559	-0.774923	0.085267	-0.626003	-160.108601	-76.748405	-28.368543						
60851		23.261485	-6.846738	17.023100	22.916894	1.794247	8.867857	-2.686288	-6.809504	-1.529090	-0.540283	0.145020	0.817871	0.226100	-0.067848	0.178919	-0.030845	-0.796109	0.088348	-0.597874	-168.711205	-73.215175	-21.063195						
60852		21.922655	0.757478	16.834425	22.128995	-5.722128	5.742026	-3.257005	-5.560649	-2.070519	-0.502686	0.103516	0.840820	0.214519	0.008143	0.174223	-0.047553	-0.812746	0.090661	-0.573553	-175.477100	-70.208028	-15.910055						
60853		23.923917	10.617154	18.070279	22.373444	-16.117815	6.037061	-5.360472	-3.838036	-2.232482	-0.478271	0.052979	0.855225	0.236951	0.108392	0.182379	-0.073977	-0.823010	0.097843	-0.554624	177.972445	-68.032957	-12.191025						
60854		44.187404	-13.201088	24.045982	41.394421	3.301399	21.498463	-6.073848	-1.287475	-1.777723	-0.484863	-0.009521	0.849854	0.439144	-0.128482	0.247231	-0.103276	-0.824799	0.107796	-0.545363	172.169294	-67.204772	-9.684340						
60855		16.515462	-16.969545	18.901986	27.889335	9.494728	-2.739407	-4.095925	2.743647	-2.639006	-0.512939	-0.043213	0.821777	0.165534	-0.167991	0.190203	-0.128811	-0.816316	0.106650	-0.552866	165.433838	-68.450877	-4.949486						
60856		5.844910	-18.036277	14.268471	20.405079	12.036534	-11.156892	-2.418022	3.452460	-2.880504	-0.538818	-0.070313	0.798096	0.058336	-0.179469	0.143851	-0.148468	-0.806466	0.099342	-0.563650	158.310358	-69.822230	1.185424						
60857		1.868939	-15.643843	11.353412	15.768647	10.640457	-13.718148	-0.791355	3.512697	-2.821861	-0.567627	-0.082031	0.778564	0.018481	-0.156250	0.113827	-0.161328	-0.797183	0.087589	-0.575152	151.347388	-70.955378	8.091259						
60858		0.937659	-12.097314	9.575448	12.730453	7.935257	-13.538269	0.324931	3.250951	-2.310852	-0.588135	-0.077881	0.747559	0.009529	-0.121238	0.095404	-0.168074	-0.788908	0.074851	-0.586321	145.272273	-71.854342	14.692531						
60859		3.404786	-8.488902	9.437383	12.161893	4.945386	-10.398466	0.751253	3.225678	-1.367117	-0.615234	-0.073975	0.727539	0.034978	-0.085478	0.093494	-0.170311	-0.780482	0.064563	-0.598058	140.230753	-72.850562	20.430921						
60860		4.774275	-7.078560	8.793350	11.435657	4.180176	-8.412139	0.811015	3.728790	-0.309536	-0.648926	-0.076660	0.696777	0.049257	-0.071214	0.086736	-0.169238	-0.769923	0.057805	-0.612565	135.369296	-74.327453	25.978125						
60861		5.668665	-6.834468	8.655726	11.312893	4.287305	-7.095761	0.777399	4.228947	0.610881	-0.685547	-0.063965	0.663330	0.058705	-0.068500	0.085064	-0.165569	-0.757285	0.054213	-0.629418	129.942390	-76.227802	32.045520						
60862		5.181718	-6.749030	7.861873	10.259029	4.566100	-6.968954	0.869097	4.759188	1.173476	-0.715576	-0.044434	0.623047	0.054059	-0.067515	0.077057	-0.159810	-0.742401	0.052036	-0.648532	122.395138	-78.399494	40.285089						
60863		5.919116	-5.981598	7.506497	9.569485	4.206134	-5.585877	1.006390	5.201112	1.478932	-0.745605	-0.024902	0.582764	0.061553	-0.059738	0.073184	-0.152583	-0.725692	0.050117	-0.669013	110.680043	-80.500891	52.781464						
60864		6.549193	-4.282497	7.057701	8.399914	2.958150	-4.182282	1.039230	5.594925	1.638486	-0.780273	-0.003174	0.529297	0.067777	-0.042635	0.068480	-0.144646	-0.706950	0.048376	-0.690622	91.762579	-82.081683	72.510374						
60865		6.470523	-2.444422	6.583214	7.062184	1.449142	-3.553475	0.855964	5.909514	1.758787	-0.812256	0.007568	0.475830	0.066823	-0.024139	0.063775	-0.136918	-0.686416	0.047371	-0.712631	66.178652	-82.434122	98.813272						
60866		6.387424	-0.984508	6.219070	5.918635	0.214743	-3.079023	0.429839	6.079828	1.890497	-0.844238	0.022461	0.417969	0.065814	-0.009360	0.060189	-0.130052	-0.664143	0.048226	-0.734626	41.995899	-81.240630	123.477322						
60867		7.478777	-0.321497	6.204066	5.168180	-0.250496	-1.583423	-0.161744	6.144360	2.034135	-0.863037	0.037842	0.362305	0.076673	-0.002393	0.059706	-0.124540	-0.640654	0.051584	-0.755905	25.146655	-78.930386	140.477727						
60868		9.313808	-0.442991	6.540366	4.636143	-0.017704	0.588157	-0.745313	6.258112	2.194508	-0.883789	0.048828	0.297852	0.095163	-0.003157	0.062460	-0.120151	-0.615493	0.057590	-0.776798	13.923425	-75.945850	151.526383						
60869		11.597822	-1.213611	6.884375	3.878674	0.822215	3.132683	-1.214131	6.462574	2.344491	-0.900391	0.070801	0.235107	0.118251	-0.010356	0.065113	-0.116576	-0.588639	0.065633	-0.797249	6.233323	-72.532326	158.786707						
60870		12.945536	-2.580767	6.961972	2.958407	2.136072	4.654662	-1.466694	6.761323	2.477090	-0.903320	0.086670	0.159424	0.132016	-0.023693	0.065364	-0.113128	-0.559489	0.074870	-0.817660	0.655624	-68.730386	163.797271						
60871		13.125877	-3.948851	7.000054	2.225927	3.310966	5.048646	-1.494195	6.959269	2.598534	-0.899902	0.109131	0.081299	0.134088	-0.037257	0.065651	-0.109213	-0.528847	0.084287	-0.837430	-3.442924	-64.709738	167.321012						
60872		13.721271	-4.845562	7.588033	1.582655	3.911211	6.043125	-1.345034	6.953391	2.779701	-0.894043	0.129395	0.018555	0.140397	-0.046029	0.071350	-0.103944	-0.497302	0.093502	-0.856238	-6.633026	-60.581581	170.034175						
60873		15.449691	-4.676117	8.198761	-0.049886	3.534575	7.939235	-1.129895	6.836582	3.082860	-0.864014	0.165771	-0.051270	0.157875	-0.043901	0.076882	-0.096680	-0.465678	0.102414	-0.873675	-9.260260	-56.460520	172.350176						
60874		17.947433	-4.640651	8.371995	-2.720529	3.365355	10.057097	-0.963350	6.784465	3.504088	-0.824463	0.188965	-0.107422	0.182952	-0.042837	0.077764	-0.086974	-0.433289	0.111521	-0.890089	-11.606204	-52.253924	174.545623						
60875		19.665222	-4.861302	8.530417	-5.169484	3.264251	11.294037	-0.734360	6.748026	4.002023	-0.782959	0.216553	-0.150391	0.200299	-0.044331	0.078754	-0.074451	-0.400403	0.120467	-0.905330	-13.697579	-47.981775	176.716851						
60876		21.584169	-2.657099	9.109210	-8.227219	0.553721	12.269484	-0.483747	6.580051	4.605331	-0.739014	0.241943	-0.186523	0.219215	-0.021339	0.083971	-0.058430	-0.367198	0.129426	-0.919239	-15.636486	-43.646813	179.020289						
60877		25.239426	-0.096966	9.088142	-13.119453	-2.560699	13.437069	-0.384034	6.494207	5.190427	-0.710449	0.258057	-0.213867	0.255075	0.005792	0.082619	-0.039432	-0.333596	0.138739	-0.931617	-17.444337	-39.235500	-178.587408						
60878		27.727681	1.496970	7.895356	-17.737019	-4.692601	12.464880	-0.307011	6.578270	5.429500	-0.673096	0.276611	-0.238770	0.279127	0.022644	0.069760	-0.019139	-0.298703	0.147888	-0.942624	-18.970281	-34.665894	-176.356524						
60879		29.053895	3.066544	6.294315	-21.429769	-6.722991	9.890457	-0.193350	6.597482	5.153833	-0.655762	0.292725	-0.274658	0.291483	0.038225	0.053302	0.000003	-0.263555	0.155762	-0.951986	-20.051152	-30.119136	-174.553015						
60880		30.810618	4.453013	3.540702	-25.672854	-8.172892	6.164484	-0.154593	6.533076	4.458556	-0.631592	0.308838	-0.308594	0.307948	0.051420	0.025306	0.015967	-0.228699	0.162319	-0.959737	-20.726210	-25.708797	-173.314634						
60881		31.515698	6.677608	-0.582297	-29.069987	-9.662102	0.152583	-0.241767	6.262238	3.576035	-0.620850	0.320068	-0.339844	0.313507	0.072377	-0.015743	0.027765	-0.195652	0.167989	-0.965779	-21.145847	-21.628358	-172.622538						
60882		30.480998	7.811659	-5.670941	-30.480084	-9.255279	-7.122366	-0.537421	5.756349	2.568862	-0.596680	0.329590	-0.377930	0.301971	0.081839	-0.065645	0.034819	-0.165651	0.173859	-0.970114	-21.521477	-18.016695	-172.437355						
60883		27.813765	6.599311	-11.240874	-29.819798	-5.857835	-14.257462	-0.830470	5.076341	1.396284	-0.581299	0.341064	-0.406982	0.274694	0.067432	-0.119689	0.036490	-0.139932	0.179892	-0.972999	-21.902483	-15.021381	-172.781776						
60884		24.330442	2.867057	-15.564892	-27.524958	-0.068865	-19.016015	-0.772411	4.190526	0.049312	-0.569824	0.332520	-0.420166	0.239964	0.028116	-0.160810	0.032424	-0.119653	0.184440	-0.974994	-22.133283	-12.788960	-173.679198						
60885		24.086504	3.529572	-18.308687	-27.609247	0.900524	-22.644843	-0.486878	3.041335	-1.121232	-0.562744	0.325928	-0.440186	0.238234	0.033503	-0.186806	0.023871	-0.105953	0.186637	-0.976407	-22.147361	-11.419758	-174.956844						
60886		30.176663	8.778613	-20.590227	-33.781121	-2.932658	-25.993227	-0.813533	2.030586	-1.505919	-0.560547	0.323975	-0.451172	0.300298	0.084674	-0.209305	0.014193	-0.097635	0.190072	-0.976800	-22.376515	-10.681204	-176.216543						
60887		29.505200	7.798615	-23.941978	-33.645407	0.152100	-29.112383	-1.542707	1.306447	-1.480449	-0.562744	0.321533	-0.448975	0.294034	0.073947	-0.241924	0.004981	-0.092792	0.196988	-0.975992	-23.065332	-10.321156	-177.303733						
60888		25.168080	3.149425	-24.415821	-29.306188	5.679467	-28.476008	-1.648720	0.041652	-1.612570	-0.569336	0.316895	-0.437744	0.251862	0.027450	-0.244448	-0.003709	-0.094388	0.204303	-0.974340	-23.855762	-10.687201	-178.172354						
60889		26.029632	-1.367183	-18.868519	-29.002891	8.196734	-21.083226	-0.939164	-1.322144	-1.913227	-0.580322	0.314453	-0.426514	0.261383	-0.017049	-0.186885	-0.012107	-0.102786	0.208010	-0.972636	-24.259657	-11.828538	-178.875433						
60890		19.503740	-13.411562	-8.682133	-19.801634	15.495359	-7.964267	1.271441	-2.474860	-2.254712	-0.599365	0.285156	-0.412354	0.194575	-0.135766	-0.085271	-0.019866	-0.117466	0.200827	-0.972356	-23.399628	-13.675164	-179.496029						
60891		-0.053627	-2.833748	23.509555	5.846516	-6.361624	12.232707	2.864002	-2.651517	-3.232399	-0.616699	0.262695	-0.400879	-0.004143	-0.031652	0.234619	-0.031216	-0.133875	0.185233	-0.973032	-21.464403	-15.788927	179.336016						
60892		-2.791867	-13.402623	23.069772	10.274813	4.252583	14.598155	2.734425	-2.159458	-2.142058	-0.626953	0.240234	-0.384766	-0.031850	-0.136833	0.228510	-0.037818	-0.147017	0.170843	-0.973534	-19.691560	-17.408024	178.594725						
60893		-12.649845	-2.496784	8.814178	14.875842	-0.896560	-5.141601	2.950605	-3.237736	-1.905648	-0.644287	0.224121	-0.364258	-0.128137	-0.025029	0.085707	-0.042136	-0.164947	0.155673	-0.973028	-17.858791	-19.518706	178.136846						
60894		1.001943	27.635135	1.940367	-3.963283	-26.807589	-15.653196	0.501474	-5.235384	-0.066563	-0.662354	0.228271	-0.319824	0.009587	0.276298	0.020351	-0.037967	-0.190738	0.154281	-0.968698	-17.918071	-22.411123	179.088697						
60895		27.976293	4.670489	17.269520	-19.522248	-9.789107	15.196472	-0.821020	-6.018582	0.167570	-0.673584	0.229980	-0.284424	0.274363	0.047668	0.180812	-0.033269	-0.219538	0.159517	-0.961899	-18.919335	-25.655637	-179.616227						
60896		34.893809	0.379208	16.207353	-24.303289	-5.836651	19.436846	-0.266773	-3.398312	-0.924256	-0.676025	0.234375	-0.268799	0.346131	0.002410	0.167967	-0.035317	-0.236783	0.160338	-0.957590	-19.143030	-27.697722	-179.463462						
60897		19.138630	-18.692880	8.391794	-10.271054	14.949237	11.567813	1.234349	-2.381796	-1.384407	-0.673584	0.232178	-0.264404	0.189076	-0.188765	0.085018	-0.038562	-0.249514	0.153221	-0.955395	-18.269955	-29.247649	-179.817577						
60898		15.641578	-4.945171	5.865848	-10.019279	2.841791	4.153297	1.479593	-2.429652	-0.306812	-0.682617	0.231934	-0.257813	0.155614	-0.050132	0.060183	-0.036343	-0.261892	0.146244	-0.953260	-17.577489	-30.659344	-179.512969						
60899		12.749758	13.480378	10.928476	-7.443852	-16.182840	2.286861	1.017168	-1.699247	-0.528325	-0.680420	0.234375	-0.255615	0.126914	0.133906	0.111047	-0.036276	-0.270576	0.141034	-0.951621	-16.999266	-31.681922	-179.509974						
60900		12.459014	-0.277655	8.648299	-6.111086	-2.279828	3.882246	0.324899	-1.008828	-0.669949	-0.678467	0.243164	-0.260254	0.124141	-0.003334	0.087105	-0.038345	-0.276195	0.138767	-0.950258	-16.690926	-32.381516	-179.743670						
60901		8.599934	-8.316461	5.929208	-2.925940	6.282647	1.599767	0.553955	-0.721818	-0.463489	-0.681152	0.252197	-0.262695	0.085592	-0.083528	0.059370	-0.039274	-0.280075	0.135661	-0.949532	-16.290153	-32.856500	-179.903978						
60902		8.855595	-1.542196	8.563143	-2.691590	-0.894588	2.273724	0.525458	-0.650483	-0.393901	-0.685791	0.256592	-0.278320	0.088246	-0.015821	0.085878	-0.039997	-0.283831	0.132750	-0.948798	-15.918473	-33.313224	179.962900						
60903		5.992844	-1.826794	8.219994	-0.368914	-0.472106	0.505272	0.375880	-0.341507	-0.430870	-0.690674	0.269775	-0.280762	0.059748	-0.018551	0.082267	-0.041274	-0.285837	0.130453	-0.948460	-15.585745	-33.571636	179.744429						
60904		6.865479	-3.131309	7.739348	-1.098434	0.965768	0.897017	0.304206	-0.331329	-0.432636	-0.699951	0.271729	-0.293945	0.068458	-0.031579	0.077459	-0.042705	-0.288053	0.128466	-0.947997	-15.288551	-33.856759	179.519890						
60905		7.413611	-1.421188	6.999972	-2.172499	-0.428521	0.241031	0.285167	-0.210875	-0.560939	-0.711182	0.276123	-0.296387	0.074022	-0.014519	0.070057	-0.044811	-0.289499	0.126381	-0.947740	-14.941902	-34.060305	179.186382						
60906		8.148096	-1.356721	7.000116	-2.752977	-0.424375	0.650315	0.242688	-0.128292	-0.586504	-0.720459	0.282471	-0.309814	0.081396	-0.013891	0.070037	-0.047187	-0.290831	0.124416	-0.947476	-14.597568	-34.253326	178.818080						
60907		6.640779	-0.979935	7.847094	-1.087027	-0.983494	0.409249	0.148639	-0.074782	-0.575285	-0.740723	0.282227	-0.313965	0.066350	-0.010049	0.078488	-0.049643	-0.291604	0.122922	-0.947308	-14.306307	-34.380199	178.447126						
60908		7.320218	-1.483580	7.866631	-1.523211	-0.445316	0.918194	0.082686	-0.143500	-0.493284	-0.750000	0.288818	-0.325195	0.073109	-0.015049	0.078713	-0.051801	-0.292908	0.121850	-0.946929	-14.086395	-34.565675	178.140486						
60909		7.205574	-1.683739	6.954414	-1.864613	0.018465	0.169391	0.096413	-0.099987	-0.425654	-0.763672	0.290771	-0.327393	0.071985	-0.017024	0.069572	-0.053607	-0.293692	0.120826	-0.946717	-13.881781	-34.683338	177.872253						
60910		7.489870	-1.183870	7.144345	-2.054677	-0.472350	0.390079	0.108057	-0.104554	-0.359331	-0.779297	0.290283	-0.327393	0.074840	-0.012012	0.071476	-0.055116	-0.294735	0.119817	-0.946434	-13.692335	-34.827148	177.647237						
60911		7.214678	-0.789434	7.247627	-1.823515	-0.860530	0.244006	0.137208	-0.097520	-0.279177	-0.790771	0.296875	-0.327393	0.072100	-0.008045	0.072506	-0.056170	-0.295428	0.118813	-0.946283	-13.519000	-34.922234	177.476270						
60912		6.454856	-1.888594	7.589260	-0.798924	0.111808	0.295624	0.172765	-0.074761	-0.244543	-0.799805	0.294434	-0.331787	0.064497	-0.019030	0.075900	-0.057057	-0.296279	0.117656	-0.946108	-13.332445	-35.033171	177.322746						
60913		6.327178	-2.285880	7.538655	-0.637005	0.532450	0.257087	0.206941	-0.054373	-0.276965	-0.815430	0.296387	-0.325195	0.063219	-0.023024	0.075380	-0.058023	-0.296784	0.116312	-0.946057	-13.114905	-35.102964	177.145202						
60914		6.925625	-2.008885	7.088064	-1.402018	0.436618	0.191519	0.200282	-0.052537	-0.314249	-0.822021	0.293945	-0.324951	0.069206	-0.020269	0.070879	-0.059210	-0.297576	0.114914	-0.945905	-12.882043	-35.209394	176.939455						
60915		6.674760	-1.995497	7.131704	-1.162430	0.435961	0.079441	0.199047	-0.015518	-0.329929	-0.835449	0.291504	-0.324951	0.066709	-0.020136	0.071302	-0.060460	-0.297924	0.113517	-0.945886	-12.643614	-35.263009	176.718605						
60916		6.137071	-2.167507	7.565129	-0.437503	0.502954	0.144643	0.181476	0.002970	-0.345690	-0.844482	0.291260	-0.320313	0.061334	-0.021850	0.075631	-0.061854	-0.298463	0.112143	-0.945789	-12.402965	-35.340906	176.481656						
60917		5.893341	-2.130445	7.926438	-0.034896	0.397882	0.283800	0.166152	-0.026122	-0.351393	-0.846924	0.293457	-0.322754	0.058885	-0.021474	0.079254	-0.063247	-0.298861	0.110872	-0.945722	-12.174822	-35.401580	176.246750						
60918		6.212852	-1.733504	7.248851	-0.721646	0.230543	-0.139199	0.168616	-0.064268	-0.350207	-0.846680	0.286865	-0.315918	0.062075	-0.017505	0.072494	-0.064642	-0.299713	0.109573	-0.945509	-11.944270	-35.515853	176.015581						
60919		7.046747	-1.299037	6.917414	-1.646360	-0.030274	0.009900	0.138349	-0.091105	-0.345737	-0.851074	0.288818	-0.311523	0.070413	-0.013160	0.069197	-0.066013	-0.300403	0.108460	-0.945323	-11.738485	-35.610805	175.792830						
60920		6.533201	-1.559628	7.603109	-0.776434	0.053128	0.302482	0.123577	-0.091569	-0.344817	-0.853271	0.284424	-0.298096	0.065270	-0.015756	0.076051	-0.067433	-0.301364	0.107390	-0.945040	-11.536402	-35.738357	175.567739						
60921		5.643846	-2.523989	7.499641	0.091452	0.986441	-0.143842	0.162696	-0.087082	-0.416948	-0.864258	0.277588	-0.300049	0.056353	-0.025418	0.075000	-0.069106	-0.302079	0.106052	-0.944841	-11.285918	-35.837759	175.293621						
60922		5.480466	-2.312146	7.968715	0.472879	0.694646	0.095671	0.208579	-0.100727	-0.539213	-0.859619	0.273193	-0.293213	0.054702	-0.023352	0.079690	-0.071309	-0.303210	0.104288	-0.944512	-10.954741	-35.990043	174.932985						
60923		6.337658	-1.423347	7.562507	-0.592070	0.041914	0.138729	0.258143	-0.130443	-0.644252	-0.859375	0.268799	-0.279785	0.063281	-0.014535	0.075648	-0.073886	-0.304279	0.102169	-0.944202	-10.557328	-36.135609	174.503983						
60924		7.347705	-1.012726	7.010528	-1.759142	-0.088785	0.240125	0.228288	-0.136270	-0.669613	-0.863525	0.261963	-0.284180	0.073395	-0.010453	0.070143	-0.076653	-0.305642	0.100124	-0.943760	-10.159689	-36.317134	174.053132						
60925		6.560501	-1.414584	7.252742	-0.878334	0.235808	0.026828	0.239738	-0.122631	-0.691566	-0.867920	0.259521	-0.284180	0.065511	-0.014459	0.072550	-0.079483	-0.306682	0.098012	-0.943410	-9.748078	-36.458109	173.585727						
60926		6.354762	-1.308754	7.022280	-0.828127	0.225735	-0.290548	0.249753	-0.155207	-0.706783	-0.865234	0.248535	-0.279297	0.063446	-0.013400	0.070255	-0.082379	-0.308153	0.095812	-0.942908	-9.318506	-36.648592	173.106042						
60927		6.143575	-1.643343	7.143259	-0.484211	0.556094	-0.277165	0.239305	-0.188422	-0.697904	-0.867188	0.239746	-0.276855	0.061310	-0.016733	0.071470	-0.085205	-0.309498	0.093716	-0.942427	-8.903866	-36.821813	172.636967						
60928		6.150749	-2.071520	7.350548	-0.232454	0.979686	-0.058755	0.275312	-0.210666	-0.747980	-0.873535	0.228271	-0.267822	0.061352	-0.021046	0.073541	-0.088225	-0.311249	0.091350	-0.941804	-8.439475	-37.041273	172.128454						
60929		5.806668	-2.184704	7.894806	0.424001	0.989783	0.170210	0.327472	-0.275124	-0.837743	-0.873535	0.226074	-0.263428	0.057865	-0.022219	0.078992	-0.091529	-0.313094	0.088656	-0.941135	-7.913155	-37.268905	171.562660						
60930		4.979243	-1.825831	8.663440	1.498526	0.438425	0.224404	0.371285	-0.380477	-0.887203	-0.875244	0.212891	-0.265137	0.049545	-0.018639	0.086694	-0.094971	-0.315734	0.085693	-0.940186	-7.334626	-37.587559	170.962984						
60931		5.704926	-1.487554	8.294121	0.710648	0.347572	0.332495	0.364282	-0.549320	-0.886784	-0.879150	0.197021	-0.256104	0.056754	-0.015279	0.083070	-0.098323	-0.318890	0.082871	-0.939028	-6.769390	-37.965664	170.376049						
60932		6.167145	0.181205	8.194252	-0.008275	-1.119488	0.383283	0.384641	-0.782512	-0.881639	-0.889893	0.183594	-0.249023	0.061357	0.001383	0.082186	-0.101539	-0.323396	0.080043	-0.937389	-6.190444	-38.502630	169.799321						
60933		6.460562	0.131421	8.128976	-0.149879	-0.962046	0.525927	0.283369	-1.044678	-0.813333	-0.889893	0.185791	-0.235840	0.064184	0.000937	0.081627	-0.104468	-0.328780	0.077960	-0.935368	-5.709345	-39.149671	169.286102						
60934		5.619336	-0.519300	8.248096	0.861871	-0.444422	0.133950	0.192650	-1.300696	-0.787986	-0.900391	0.165527	-0.221924	0.055634	-0.005493	0.082839	-0.107343	-0.335541	0.076438	-0.932763	-5.282576	-39.968779	168.792689						
60935		6.097754	-0.628460	8.262370	0.697347	-0.248048	0.448596	0.173031	-1.562538	-0.805776	-0.909180	0.163086	-0.210693	0.060303	-0.006600	0.083091	-0.110206	-0.343241	0.075146	-0.929728	-4.863374	-40.904795	168.294572						
60936		5.763436	-0.360656	8.218335	1.040007	-0.536936	0.163039	0.085971	-1.878092	-0.787775	-0.917480	0.145020	-0.185791	0.056844	-0.003867	0.082718	-0.113026	-0.352570	0.074421	-0.925949	-4.489017	-42.047505	167.807316						
60937		6.132914	0.767579	8.680051	0.988468	-1.667719	0.665000	0.129023	-2.232208	-0.759739	-0.928223	0.135986	-0.165527	0.060384	0.007389	0.087483	-0.115474	-0.363260	0.073773	-0.921556	-4.107382	-43.358947	167.349160						
60938		6.049345	0.445666	8.419829	1.223412	-1.327262	0.406031	0.079015	-2.598741	-0.717441	-0.936523	0.120117	-0.131836	0.059408	0.004209	0.084977	-0.117685	-0.375777	0.073592	-0.916257	-3.757134	-44.905304	166.914927						
60939		5.946127	0.847301	8.826081	1.746153	-1.850430	0.555183	0.052967	-2.955541	-0.687837	-0.952148	0.113037	-0.100586	0.058177	0.008248	0.089129	-0.119633	-0.389582	0.073820	-0.910200	-3.436465	-46.623565	166.505533						
60940		6.192657	0.934560	8.382304	1.578946	-1.839174	0.365703	0.033721	-3.370823	-0.613158	-0.962402	0.092773	-0.062500	0.060530	0.009144	0.084853	-0.121117	-0.405366	0.074467	-0.903030	-3.146675	-48.603723	166.143005						
60941		5.967141	0.709260	8.261743	2.058227	-1.693255	0.048855	0.018892	-3.861267	-0.549964	-0.964111	0.081543	-0.010986	0.058081	0.006924	0.083750	-0.122100	-0.422962	0.075623	-0.894693	-2.907122	-50.833103	165.839262						
60942		6.108015	0.845273	8.412325	2.453680	-1.921843	0.140096	-0.068452	-4.455192	-0.528385	-0.963867	0.079102	0.040039	0.059208	0.008324	0.085453	-0.122917	-0.443185	0.077500	-0.884574	-2.708739	-53.428392	165.541471						
60943		5.898631	-0.066076	8.381214	3.272231	-1.181075	-0.173353	-0.093146	-5.202112	-0.502687	-0.963379	0.067871	0.106934	0.056778	-0.000766	0.085309	-0.123289	-0.466200	0.080000	-0.872386	-2.552189	-56.422555	165.281339						
60944		5.726236	0.994128	8.720895	3.850361	-2.432181	-0.375563	0.023867	-5.966452	-0.439844	-0.958496	0.058838	0.171387	0.054649	0.009809	0.088867	-0.122739	-0.492431	0.082498	-0.857695	-2.356699	-59.878440	165.069587						
60945		4.996161	2.002867	7.882938	3.774338	-3.411247	-1.738354	0.095408	-7.136904	-0.206713	-0.942139	0.050049	0.262451	0.047128	0.019941	0.080555	-0.120370	-0.522883	0.085939	-0.839476	-2.404303	-63.972471	165.182007						
60946		5.600507	-0.066121	6.894950	3.876467	-1.267861	-1.924112	0.023778	-8.391197	0.138882	-0.912598	0.045898	0.349121	0.053049	-0.000632	0.071217	-0.116052	-0.557794	0.091159	-0.816754	-3.081984	-68.799379	165.936609						
60947		8.625985	-2.017105	10.198005	7.137760	-0.301632	1.646599	-0.095007	-9.039500	-0.028098	-0.878662	0.039551	0.446777	0.081533	-0.020133	0.105747	-0.112197	-0.594105	0.096650	-0.790639	-4.053786	-73.973235	166.900380						
60948		14.186894	-7.552685	10.516379	8.774592	4.921982	6.541711	-0.095213	-9.003634	-0.569416	-0.828613	0.031494	0.524414	0.136730	-0.075869	0.111434	-0.110309	-0.629484	0.100273	-0.762579	-4.289909	-79.168821	167.085683						
60949		15.216661	-8.618116	8.250166	8.226472	6.367107	6.479955	0.132802	-8.937738	-1.498598	-0.778564	0.014404	0.599854	0.147630	-0.087357	0.089110	-0.111016	-0.663748	0.099907	-0.732893	0.538731	-84.323127	162.285284						
60950		22.900696	-2.065505	9.994163	9.060181	-0.388331	13.551661	-0.323888	-9.156953	-2.053613	-0.718994	-0.011230	0.668945	0.223887	-0.022799	0.110309	-0.114953	-0.697558	0.099249	-0.700249	71.561488	-88.708993	91.013865						
60951		23.341563	2.005139	11.039258	10.970597	-4.872484	13.125329	-1.172992	-9.228550	-1.923790	-0.650879	-0.025635	0.733398	0.228181	0.018528	0.120893	-0.121075	-0.729367	0.101867	-0.665573	154.162837	-84.599654	7.676431						
60952		21.048744	-4.918276	12.643434	16.312909	0.743694	9.161027	-1.921698	-8.711400	-1.820005	-0.586670	-0.053467	0.778076	0.204253	-0.049785	0.135900	-0.129617	-0.757475	0.106787	-0.630895	160.112750	-79.563508	0.560592						
60953		27.673531	-14.218617	17.594624	27.000211	7.385814	12.395344	-2.189363	-7.972459	-2.717310	-0.522949	-0.074463	0.815918	0.267445	-0.143846	0.188302	-0.142107	-0.781945	0.108496	-0.597158	159.392122	-74.736233	0.009706						
60954		26.845446	-10.674625	16.511337	26.315395	4.207085	10.102138	-1.380983	-5.946318	-3.524527	-0.483643	-0.107178	0.834229	0.261452	-0.110216	0.173710	-0.154744	-0.800219	0.103003	-0.570171	156.672367	-70.804256	2.023822						
60955		19.849139	1.441577	17.747479	21.956223	-7.553466	3.294798	-1.392968	-4.054355	-3.290764	-0.455566	-0.133301	0.847900	0.195056	0.012441	0.181361	-0.167564	-0.812112	0.096936	-0.550453	153.908837	-67.902678	4.119996						
60956		39.189827	-10.773952	21.422176	37.295616	2.489687	16.897468	-3.532151	-2.828587	-1.266881	-0.454590	-0.157715	0.841797	0.388122	-0.106336	0.221615	-0.184006	-0.817369	0.103866	-0.535968	152.095143	-66.119431	3.887772						
60957		19.085852	-15.169746	18.632387	28.891989	6.556968	-1.824541	-2.172019	1.533816	-0.994727	-0.476807	-0.169189	0.822266	0.191537	-0.150624	0.186496	-0.196338	-0.811705	0.104229	-0.540113	148.730437	-66.599865	6.198810						
60958		6.068382	-18.499107	13.824830	21.038931	10.922651	-12.680539	-0.895577	1.922193	-0.635951	-0.499023	-0.171875	0.811279	0.061427	-0.184566	0.138487	-0.202694	-0.805919	0.102204	-0.546776	146.102493	-67.331010	8.493124						
60959		3.472683	-14.633082	10.695505	15.921162	8.732297	-13.104883	0.889056	1.942322	-0.652839	-0.520020	-0.154541	0.793213	0.035280	-0.146918	0.105962	-0.201888	-0.801804	0.095197	-0.554336	144.321191	-68.029518	10.965974						
60960		3.754352	-10.183689	9.240994	13.019637	5.614286	-11.281529	1.914716	1.741422	-0.316070	-0.543213	-0.139404	0.784180	0.038179	-0.102773	0.091098	-0.195892	-0.798976	0.086908	-0.561881	143.573909	-68.734303	12.947044						
60961		7.073243	-6.986103	9.751703	13.371619	3.086569	-7.448613	2.412255	2.058835	0.223331	-0.571289	-0.108643	0.763672	0.071804	-0.070945	0.095930	-0.186510	-0.795369	0.079025	-0.571277	143.380002	-69.756405	14.629168						
60962		7.988943	-5.330857	9.967527	13.168385	1.907073	-6.001304	2.559404	2.844870	0.754516	-0.601074	-0.091553	0.750244	0.081493	-0.054263	0.097833	-0.175248	-0.789148	0.072107	-0.584238	143.071826	-71.329234	16.508424						
60963		6.953607	-4.462501	9.706054	12.181209	1.434081	-6.347338	2.551515	3.620331	1.114846	-0.633789	-0.058594	0.714111	0.071523	-0.045453	0.095201	-0.163197	-0.780215	0.065892	-0.600242	142.178929	-73.363734	18.976176						
60964		5.862435	-4.473474	8.888335	10.967625	1.924785	-6.753197	2.520179	4.252460	1.274906	-0.668945	-0.025879	0.682373	0.060776	-0.045456	0.087036	-0.150868	-0.768784	0.059875	-0.618566	140.157947	-75.732337	22.567293						
60965		5.087292	-3.682079	8.043991	9.596661	1.639909	-6.757728	2.462680	4.750066	1.298807	-0.708252	0.000000	0.639893	0.052999	-0.037458	0.078739	-0.138762	-0.755288	0.053676	-0.638282	136.113042	-78.256897	28.162439						
60966		5.173404	-2.320993	7.542971	8.581796	0.727184	-5.959418	2.230350	5.135856	1.346431	-0.736084	0.021973	0.595215	0.053802	-0.023681	0.073803	-0.127341	-0.739704	0.048126	-0.659019	128.376069	-80.828245	37.323315						
60967		5.833146	-0.912494	7.307223	7.856976	-0.315444	-4.674769	1.767913	5.497699	1.464952	-0.770508	0.041260	0.559326	0.060377	-0.009323	0.071349	-0.117254	-0.722053	0.044227	-0.680393	113.135199	-83.183548	53.728253						
60968		6.492977	0.070090	7.107907	7.171299	-1.028515	-3.474373	1.160711	5.857192	1.661973	-0.800537	0.058838	0.501465	0.066967	0.000847	0.069142	-0.108627	-0.702011	0.042893	-0.702525	83.395060	-84.671629	84.290541						
60969		7.216106	0.058961	6.991965	6.654536	-0.859925	-2.335522	0.531729	6.187213	1.876515	-0.828369	0.080566	0.441162	0.074269	0.001098	0.067646	-0.101450	-0.679818	0.044259	-0.724981	45.780529	-84.092569	122.376190						
60970		7.863039	-0.596040	6.853083	6.098329	-0.127480	-1.333275	0.024281	6.482128	2.031355	-0.855957	0.089111	0.374512	0.080851	-0.005155	0.065933	-0.095357	-0.655394	0.047830	-0.747715	21.412589	-81.578677	146.933668						
60971		8.675116	-1.303833	6.910237	5.576850	0.584001	-0.157873	-0.326861	6.693575	2.115673	-0.878906	0.099854	0.312256	0.089129	-0.011994	0.066166	-0.090070	-0.629329	0.052793	-0.770094	9.003209	-78.179890	159.338882						
60972		10.320818	-1.968446	7.127209	4.845366	1.242193	1.853541	-0.555246	6.862056	2.141651	-0.890869	0.115479	0.247559	0.105774	-0.018369	0.067724	-0.085298	-0.601571	0.058615	-0.792086	2.077236	-74.363675	166.131533						
60973		12.275268	-3.062770	7.428851	3.912264	2.285604	4.138101	-0.689538	7.041808	2.137681	-0.893555	0.126709	0.165039	0.125584	-0.029049	0.070001	-0.080918	-0.572380	0.064761	-0.813412	-2.166208	-70.329201	170.164060						
60974		14.292436	-4.492039	7.683622	2.643212	3.634290	6.409700	-0.703304	7.215278	2.168789	-0.901123	0.144531	0.091553	0.146049	-0.043089	0.071758	-0.076358	-0.541515	0.070935	-0.834206	-5.049871	-66.106927	172.827568						
60975		15.807849	-5.545259	7.846071	1.094170	4.575745	8.073129	-0.576328	7.342697	2.323549	-0.893066	0.162842	0.017822	0.161447	-0.053375	0.072729	-0.070778	-0.509472	0.076803	-0.854125	-7.178582	-61.784792	174.824482						
60976		17.187200	-5.199825	8.284337	-0.706124	4.035624	9.528639	-0.412756	7.385536	2.647845	-0.864502	0.178955	-0.047119	0.175443	-0.049529	0.076511	-0.063265	-0.476246	0.082717	-0.873124	-8.980580	-57.363511	176.631429						
60977		19.818650	-3.580089	7.434027	-4.719305	2.450159	10.980058	-0.389984	7.402568	3.118286	-0.834229	0.208740	-0.114502	0.201282	-0.032543	0.066993	-0.053594	-0.442165	0.089465	-0.890850	-10.696489	-52.882024	178.445382						
60978		21.154582	-1.765371	6.139824	-8.510965	0.573774	10.565808	-0.550138	7.458731	3.643546	-0.790283	0.231934	-0.172852	0.213912	-0.013616	0.053490	-0.041829	-0.406655	0.097976	-0.907349	-12.471586	-48.258257	-179.674873						
60979		22.197572	-2.218772	5.836356	-10.999458	0.555104	10.438387	-0.784485	7.369838	4.072763	-0.748779	0.261719	-0.207031	0.224313	-0.017427	0.050199	-0.028522	-0.370734	0.108214	-0.921972	-14.264287	-43.613201	-177.811754						
60980		24.978835	-2.241455	5.804688	-14.692447	-0.144108	11.315110	-0.755306	7.167441	4.302435	-0.706299	0.267090	-0.236084	0.252057	-0.016811	0.049110	-0.013899	-0.334823	0.118631	-0.934680	-15.863544	-38.991281	-176.056150						
60981		28.470000	0.094939	4.895717	-19.831793	-3.146506	10.944044	-0.676051	6.971212	4.399059	-0.675781	0.287842	-0.272217	0.286060	0.007376	0.038982	0.001405	-0.299338	0.128595	-0.945441	-17.210608	-34.447575	-174.457767						
60982		30.451527	3.576187	2.912088	-24.248398	-6.978769	7.832799	-0.819745	6.776512	4.307074	-0.649414	0.303955	-0.299316	0.304400	0.042410	0.018639	0.016218	-0.264223	0.138929	-0.954265	-18.422270	-29.984875	-173.079262						
60983		31.876729	6.963878	0.294247	-27.981125	-10.419331	3.328235	-1.268035	6.367025	4.038752	-0.623047	0.317871	-0.326416	0.317144	0.076029	-0.007641	0.029383	-0.230985	0.150755	-0.960758	-19.680946	-25.784134	-171.949467						
60984		34.946087	7.764196	-3.752636	-33.213419	-10.986888	-1.373705	-1.780958	5.857088	3.572142	-0.605957	0.338135	-0.351318	0.346693	0.083453	-0.048434	0.040078	-0.200253	0.164251	-0.965046	-21.040757	-21.921809	-171.124155						
60985		34.682060	3.180864	-10.274262	-35.927886	-4.863880	-7.898598	-1.720228	5.424227	2.586477	-0.588379	0.352051	-0.374023	0.343418	0.035326	-0.112382	0.046371	-0.172236	0.176173	-0.968064	-22.117158	-18.489620	-170.871080						
60986		28.897138	0.629523	-17.191178	-32.893050	0.873025	-16.743864	-0.698423	4.805448	0.947527	-0.572754	0.354492	-0.405273	0.284698	0.007034	-0.178811	0.046119	-0.148305	0.181467	-0.971055	-22.356812	-15.740799	-171.432126						
60987		21.608639	2.813874	-22.310000	-27.014525	2.053194	-25.255930	0.311120	3.462294	-0.654610	-0.565674	0.339355	-0.422607	0.212273	0.027791	-0.226753	0.040036	-0.132024	0.180267	-0.973895	-21.891094	-14.047122	-172.562095						
60988		21.331597	5.843868	-22.126718	-26.269034	-0.405269	-26.798950	0.465477	1.662109	-1.602070	-0.574219	0.327881	-0.426758	0.211930	0.057255	-0.222898	0.031042	-0.125390	0.177306	-0.975641	-21.335649	-13.512819	-173.798360						
60989		31.047469	7.713136	-19.046980	-34.795868	-3.755898	-22.514648	-0.315929	0.459769	-1.529483	-0.574219	0.327881	-0.426758	0.310612	0.074455	-0.191303	0.022988	-0.124577	0.177980	-0.975846	-21.300452	-13.588849	-174.734078						
60990		33.806726	5.010807	-18.703029	-37.438998	-1.054759	-20.536136	-1.080163	0.241091	-0.897174	-0.567383	0.328125	-0.429199	0.338058	0.047579	-0.187699	0.017710	-0.124505	0.182753	-0.975083	-21.797504	-13.670129	-175.274757						
60991		26.856512	-0.155199	-19.825752	-30.962065	5.120669	-21.191399	-0.861872	-0.283843	-0.667426	-0.574219	0.327881	-0.415771	0.268837	-0.003302	-0.197864	0.014191	-0.126601	0.186538	-0.974153	-22.222761	-13.967039	-175.574518						
60992		22.810575	-1.730158	-18.191192	-26.701679	6.465859	-19.784167	0.330220	-1.500560	-1.097238	-0.584961	0.318848	-0.406494	0.229364	-0.018259	-0.180224	0.010430	-0.135163	0.184163	-0.973502	-21.973997	-15.029800	-175.838126						
60993		-1.752818	-1.246344	1.788826	2.227545	0.657562	-8.253664	1.721087	-2.362259	-2.215477	-0.593018	0.294189	-0.388184	-0.017875	-0.012419	0.017571	0.002996	-0.148617	0.174161	-0.973433	-20.795504	-16.755790	-176.551351						
60994		16.638243	2.535233	19.556023	-9.962335	-9.792531	11.877890	0.717591	-3.196515	-2.204536	-0.608398	0.284912	-0.385742	0.163489	0.022831	0.198274	-0.004440	-0.166337	0.168996	-0.971469	-20.218110	-18.946379	-177.115686						
60995		-14.061322	-16.881062	28.927402	24.057278	7.254847	16.416800	1.838903	-2.026617	-2.380722	-0.619141	0.271484	-0.372070	-0.145541	-0.169739	0.286258	-0.012750	-0.178233	0.158129	-0.971116	-18.846578	-20.499719	-178.066376						
60996		-7.175992	3.446824	5.042640	8.172723	-4.624850	-9.027980	1.770393	-3.789538	-2.428961	-0.631836	0.255371	-0.340576	-0.072280	0.034904	0.049368	-0.019982	-0.198878	0.147605	-0.968639	-17.582308	-23.027938	-178.754787						
60997		9.133740	15.407228	3.285202	-8.524106	-15.922755	-7.490731	-0.765271	-5.645784	-0.421740	-0.647705	0.259521	-0.305176	0.090698	0.154011	0.034829	-0.018601	-0.226399	0.151424	-0.962013	-18.377088	-26.182396	-177.906923						
60998		38.370846	-6.120157	20.230406	-24.133188	-1.693701	26.702305	-0.766109	-5.036462	-0.800110	-0.656738	0.261475	-0.285156	0.378202	-0.061922	0.212111	-0.019526	-0.251339	0.154640	-0.955266	-19.078947	-29.093089	-177.348146						
60999		32.746171	-15.773884	15.716150	-18.934322	9.216156	23.722184	1.418802	-1.847047	-1.735215	-0.663330	0.254639	-0.280518	0.324607	-0.161687	0.159030	-0.024592	-0.261642	0.145876	-0.953761	-17.923348	-30.415132	-178.044631						
61000		8.548020	-4.834768	2.751146	-5.342780	3.595708	-1.904736	1.309381	-2.103110	-0.569196	-0.658936	0.259277	-0.276123	0.085048	-0.048773	0.028089	-0.024086	-0.272527	0.139159	-0.951727	-17.211153	-31.698322	-177.979119						
61001		20.605855	8.026219	9.727624	-13.331976	-10.987321	7.074089	1.074004	-1.771117	-0.515818	-0.667969	0.261230	-0.280518	0.205389	0.079201	0.099524	-0.023835	-0.281455	0.133580	-0.949932	-16.608039	-32.758209	-177.961817						
61002		10.679087	6.572519	8.660182	-5.131121	-8.932561	1.417564	0.465320	-0.830694	-0.527513	-0.666016	0.270264	-0.287598	0.106602	0.065241	0.087197	-0.025164	-0.286123	0.130741	-0.948898	-16.245660	-33.338380	-178.143885						
61003		9.000099	-5.322424	7.139474	-2.989340	3.032505	2.110781	0.365746	-0.762644	-0.218762	-0.673340	0.281250	-0.296631	0.089670	-0.053453	0.071639	-0.025173	-0.289955	0.128816	-0.947997	-16.041325	-33.796021	-178.139929						
61004		8.542259	-2.007505	8.065539	-2.427735	-0.367974	1.850222	0.304170	-0.551396	-0.103781	-0.680176	0.283447	-0.303223	0.085189	-0.020242	0.080860	-0.024905	-0.292995	0.127304	-0.947274	-15.891461	-34.155061	-178.101494						
61005		8.535596	-2.770054	7.724571	-2.465256	0.475048	1.758627	0.186245	-0.310665	-0.082320	-0.696533	0.298584	-0.314697	0.085224	-0.027808	0.077352	-0.024818	-0.294569	0.126368	-0.946913	-15.791462	-34.342244	-178.094964						
61006		6.018175	-2.964584	7.516660	-0.444400	0.800497	0.220708	0.165689	-0.182409	-0.086774	-0.701172	0.302979	-0.323486	0.060100	-0.029734	0.075197	-0.024905	-0.295834	0.125489	-0.946633	-15.687612	-34.495572	-178.116001						
61007		6.224790	-2.332923	7.869878	-0.475762	0.108572	0.477470	0.101762	-0.172026	-0.112085	-0.715088	0.313965	-0.334717	0.062167	-0.023404	0.078740	-0.025171	-0.296758	0.124892	-0.946416	-15.609561	-34.610883	-178.156166						
61008		5.446779	-3.129158	7.436629	0.045814	1.020406	-0.131824	0.069001	-0.143566	-0.152650	-0.733154	0.315674	-0.336914	0.054390	-0.031359	0.074395	-0.025737	-0.297865	0.124369	-0.946122	-15.531544	-34.752621	-178.229111						
61009		7.507880	-1.877806	7.447205	-1.776459	-0.235244	0.777124	-0.013064	-0.128627	-0.178578	-0.742188	0.317871	-0.339111	0.075014	-0.018840	0.074522	-0.026514	-0.298610	0.124210	-0.945886	-15.488738	-34.854080	-178.322543						
61010		7.204109	-1.192959	7.122465	-1.773088	-0.800014	0.200702	-0.053523	-0.062686	-0.206797	-0.755859	0.322021	-0.341553	0.072006	-0.011985	0.071250	-0.027568	-0.299350	0.124175	-0.945627	-15.450942	-34.959202	-178.447442						
61011		7.237716	-1.629428	7.314649	-1.625901	-0.418750	0.469566	-0.055274	-0.087225	-0.187747	-0.771729	0.326172	-0.348145	0.072330	-0.016342	0.073183	-0.028478	-0.299898	0.124197	-0.945423	-15.423873	-35.039095	-178.555144						
61012		5.830308	-2.555080	7.801743	-0.061360	0.389941	0.248738	-0.029953	-0.102395	-0.185758	-0.780518	0.321533	-0.343506	0.058239	-0.025593	0.078051	-0.029373	-0.300816	0.124085	-0.945119	-15.384064	-35.162932	-178.659082						
61013		6.630062	-1.914099	7.258881	-1.085495	-0.102496	0.143418	-0.034568	-0.150282	-0.179445	-0.789551	0.323486	-0.339111	0.066229	-0.019188	0.072642	-0.030174	-0.301659	0.124029	-0.944832	-15.354555	-35.276296	-178.749856						
61014		7.835082	-0.975051	6.990535	-2.318224	-0.960030	0.429917	-0.060574	-0.158219	-0.139384	-0.796387	0.323486	-0.334717	0.078289	-0.009784	0.069970	-0.030861	-0.302805	0.124139	-0.944429	-15.355787	-35.423666	-178.812455						
61015		6.748051	-1.600795	7.208053	-1.208340	-0.390906	0.109099	-0.074741	-0.147267	-0.105384	-0.807617	0.323242	-0.332275	0.067419	-0.016017	0.072136	-0.031374	-0.303581	0.124385	-0.944131	-15.377628	-35.524117	-178.853841						
61016		6.199453	-2.656852	6.899079	-0.770417	0.717118	-0.221987	-0.059891	-0.156816	-0.118627	-0.818848	0.325195	-0.330078	0.061925	-0.026585	0.069047	-0.031964	-0.304707	0.124521	-0.943730	-15.385956	-35.667696	-178.902927						
61017		6.124385	-2.430463	7.176380	-0.563885	0.431512	-0.096131	-0.010848	-0.156524	-0.155604	-0.821045	0.322998	-0.325684	0.061169	-0.024348	0.071813	-0.032611	-0.305568	0.124389	-0.943447	-15.352026	-35.780889	-178.976882						
61018		6.368507	-2.510070	6.789692	-0.944793	0.611422	-0.237107	0.015798	-0.158062	-0.193382	-0.823242	0.320557	-0.323242	0.063607	-0.025168	0.067945	-0.033436	-0.306756	0.124055	-0.943076	-15.286985	-35.936248	-179.076947						
61019		6.514143	-2.520872	6.439253	-1.239745	0.723611	-0.421618	0.077238	-0.159186	-0.262980	-0.827881	0.324951	-0.312256	0.065057	-0.025319	0.064435	-0.034453	-0.307709	0.123343	-0.942823	-15.159092	-36.066913	-179.224401						
61020		5.557642	-2.833556	7.384971	0.147222	0.817211	-0.181249	0.102294	-0.159882	-0.314083	-0.836670	0.320313	-0.310059	0.055473	-0.028461	0.073880	-0.035712	-0.308993	0.122416	-0.942477	-14.994899	-36.240854	-179.407807						
61021		4.776021	-2.447142	7.941054	1.067579	0.332460	-0.293819	0.103102	-0.190480	-0.395127	-0.841309	0.324707	-0.301270	0.047636	-0.024607	0.079443	-0.037292	-0.310177	0.121382	-0.942160	-14.800205	-36.407633	-179.641883						
61022		5.204906	-3.027842	7.835089	0.784497	0.944953	-0.007641	0.090290	-0.234963	-0.470112	-0.840820	0.315674	-0.301025	0.051886	-0.030436	0.078398	-0.039256	-0.311900	0.120282	-0.941653	-14.584591	-36.644349	-179.921435						
61023		5.512035	-2.341341	7.083945	0.040061	0.499366	-0.550102	0.104401	-0.272605	-0.571558	-0.847412	0.311279	-0.287598	0.054956	-0.023608	0.070902	-0.041615	-0.313573	0.118982	-0.941161	-14.321599	-36.880455	179.734021						
61024		6.379239	-2.812126	7.096432	-0.523017	1.001253	0.070912	0.214647	-0.286660	-0.761407	-0.851563	0.302246	-0.278320	0.063583	-0.028440	0.071025	-0.044721	-0.315727	0.116848	-0.940565	-13.913154	-37.183881	179.256231						
61025		6.589853	-2.379415	7.437618	-0.505562	0.561700	0.377219	0.214880	-0.327737	-0.879785	-0.851318	0.297607	-0.273926	0.065671	-0.024163	0.074458	-0.048322	-0.317853	0.114550	-0.939953	-13.454934	-37.488733	178.698705						
61026		6.328760	-1.802542	7.496497	-0.297443	0.050282	0.157680	0.202555	-0.284626	-0.937939	-0.862305	0.290771	-0.271484	0.063095	-0.018398	0.075036	-0.052273	-0.320082	0.112186	-0.939271	-12.966946	-37.807853	178.086643						
61027		6.793920	-1.716645	7.574024	-0.577891	0.027008	0.489483	0.167512	-0.354762	-0.924460	-0.866699	0.286377	-0.260254	0.067724	-0.017543	0.075846	-0.056141	-0.322333	0.110041	-0.938531	-12.507378	-38.126086	177.490710						
61028		7.055184	-1.319592	7.177900	-1.021299	-0.188653	0.284833	0.147271	-0.406192	-0.884864	-0.861816	0.277344	-0.260010	0.070346	-0.013560	0.071912	-0.059859	-0.325069	0.108046	-0.937589	-12.072773	-38.498712	176.923533						
61029		6.721180	-1.005060	7.196780	-0.745494	-0.455601	0.047038	0.124824	-0.443930	-0.793722	-0.870605	0.272705	-0.246582	0.067011	-0.010362	0.072110	-0.063132	-0.327639	0.106333	-0.936675	-11.691605	-38.844470	176.423127						
61030		6.210630	-1.779990	7.976692	0.337190	0.131951	0.445782	0.161159	-0.517238	-0.735146	-0.872314	0.259521	-0.244141	0.061834	-0.018092	0.079913	-0.066062	-0.330804	0.104543	-0.935562	-11.313512	-39.256045	175.968118						
61031		6.782351	-1.641024	7.428795	-0.389293	0.206815	0.369908	0.184680	-0.564588	-0.719593	-0.883545	0.254639	-0.232910	0.067554	-0.016722	0.074464	-0.068822	-0.333904	0.102704	-0.934464	-10.930705	-39.656230	175.527471						
61032		6.351897	-1.395347	7.688311	0.136129	-0.073649	0.256029	0.167715	-0.664032	-0.705161	-0.883057	0.245850	-0.226074	0.063213	-0.014241	0.077081	-0.071521	-0.337723	0.100977	-0.933076	-10.562572	-40.142184	175.102455						
61033		6.639655	-0.830928	7.534018	-0.199733	-0.526511	0.248069	0.149568	-0.872658	-0.682316	-0.891846	0.236816	-0.223633	0.066038	-0.008591	0.075622	-0.074005	-0.342213	0.099468	-0.931407	-10.230830	-40.707789	174.718346						
61034		6.507781	-0.930267	7.357813	-0.074931	-0.367888	0.046922	0.078140	-1.058585	-0.650271	-0.897949	0.223389	-0.207764	0.064656	-0.009542	0.073917	-0.076397	-0.347785	0.098386	-0.929263	-9.958991	-41.406694	174.372233						
61035		5.745171	-1.249843	8.057950	1.131059	-0.261731	0.094393	0.044260	-1.291219	-0.625042	-0.904541	0.223145	-0.192139	0.056890	-0.012695	0.080945	-0.078583	-0.354125	0.097615	-0.926764	-9.735941	-42.200141	174.071112						
61036		6.186119	-1.375541	7.890965	0.883956	-0.058358	0.269001	0.024073	-1.540626	-0.604401	-0.915527	0.211670	-0.176270	0.061209	-0.013951	0.079381	-0.080612	-0.361847	0.097039	-0.923662	-9.542881	-43.164335	173.806580						
61037		6.221719	-0.959322	7.598368	0.751535	-0.385651	0.018328	0.059680	-1.801701	-0.599795	-0.924072	0.204834	-0.151611	0.061500	-0.009801	0.076537	-0.082393	-0.370491	0.096431	-0.920135	-9.351412	-44.242338	173.574569						
61038		6.084974	-1.096068	8.247311	1.520325	-0.420397	0.373292	0.060366	-2.081401	-0.602126	-0.934814	0.191162	-0.129150	0.059954	-0.011167	0.083097	-0.084069	-0.380644	0.095892	-0.915886	-9.167671	-45.510250	173.363176						
61039		5.975391	-0.392299	8.412346	1.784448	-1.157672	0.291615	0.067908	-2.408515	-0.610545	-0.941162	0.184326	-0.102295	0.058723	-0.004132	0.084833	-0.085571	-0.391990	0.095455	-0.910994	-9.000568	-46.931459	173.181437						
61040		6.037245	0.556607	8.707313	2.004104	-2.162244	0.379290	-0.016198	-2.800120	-0.540025	-0.947510	0.170898	-0.068604	0.059160	0.005412	0.087907	-0.086744	-0.405229	0.095660	-0.905049	-8.947084	-48.599022	173.096665						
61041		7.070177	1.026298	7.883781	0.935824	-2.378317	0.514601	-0.140676	-3.247825	-0.416796	-0.958496	0.170410	-0.026367	0.069431	0.010173	0.079965	-0.087348	-0.420034	0.096878	-0.898085	-9.098486	-50.477624	173.185709						
61042		7.091175	1.021296	7.805181	1.224442	-2.424224	0.427431	-0.230576	-3.710245	-0.269285	-0.962646	0.161377	0.018311	0.069462	0.010210	0.079338	-0.087261	-0.436913	0.098949	-0.889776	-9.468174	-52.634315	173.488845						
61043		6.425879	-0.869690	7.594686	2.309611	-0.681849	-0.121795	-0.227826	-4.227154	-0.214871	-0.959961	0.154541	0.078369	0.062625	-0.008677	0.077292	-0.086602	-0.455650	0.101346	-0.880120	-9.998604	-55.045552	173.980254						
61044		6.519533	-0.417213	7.446231	2.459439	-1.171989	-0.289911	-0.173056	-4.821309	-0.217066	-0.957275	0.147705	0.138428	0.063371	-0.004176	0.076008	-0.085519	-0.477017	0.103668	-0.868559	-10.657103	-57.818601	174.650556						
61045		6.026469	-1.095687	7.819282	3.662566	-0.743185	-0.611120	-0.164435	-5.457927	-0.242456	-0.943359	0.138916	0.200684	0.058088	-0.010963	0.079807	-0.084103	-0.500617	0.106129	-0.855012	-11.544395	-60.917333	175.568353						
61046		5.799342	-1.500739	7.340833	3.992657	-0.340791	-1.228720	-0.120213	-6.416586	-0.276281	-0.929932	0.139160	0.271484	0.055578	-0.015040	0.075227	-0.082177	-0.528115	0.108591	-0.838182	-12.817698	-64.576654	176.920699						
61047		5.805280	-2.188643	8.333479	5.612584	-0.056851	-1.072811	-0.105187	-7.434959	-0.371689	-0.900146	0.130615	0.360352	0.054862	-0.021946	0.085426	-0.079921	-0.559082	0.111060	-0.817745	-14.761787	-68.768332	178.967477						
61048		7.589853	-2.097609	9.973622	7.169764	-0.717445	0.649822	-0.277507	-8.409982	-0.481889	-0.863525	0.117676	0.436035	0.071566	-0.021011	0.102836	-0.077969	-0.593327	0.114108	-0.793009	-18.146761	-73.500314	-177.629476						
61049		12.983338	-7.496977	9.638819	7.830325	4.296486	5.605461	-0.573123	-8.758298	-0.891995	-0.820068	0.100586	0.520508	0.125108	-0.075248	0.102152	-0.078136	-0.627772	0.117067	-0.765567	-23.751280	-78.377704	-172.198870						
61050		15.590773	-9.318225	7.229101	6.956669	6.464466	7.268233	-0.359235	-8.669921	-1.861199	-0.769775	0.083496	0.593994	0.151701	-0.094469	0.079098	-0.081276	-0.661459	0.115875	-0.736505	-32.778958	-83.300218	-163.275728						
61051		21.613651	-4.171484	9.684158	8.991683	0.590565	12.474991	-0.358952	-8.659178	-2.598628	-0.715088	0.066650	0.651855	0.211110	-0.044295	0.106134	-0.086937	-0.694037	0.112033	-0.705835	-72.910854	-87.752792	-123.268174						
61052		23.279149	0.662170	10.292063	10.232387	-4.288975	13.095191	-0.994053	-8.595815	-2.638638	-0.657715	0.036377	0.714355	0.228150	0.004135	0.112770	-0.094825	-0.724850	0.110014	-0.673422	-171.879421	-85.653895	-24.789048						
61053		20.615547	-4.228856	12.601278	15.473816	-0.327548	9.207717	-1.882012	-7.990665	-2.263879	-0.595947	0.012939	0.765625	0.200407	-0.043340	0.134502	-0.104792	-0.751459	0.111863	-0.641727	174.847652	-81.081140	-12.526274						
61054		20.728037	-9.678501	14.341745	20.329560	4.066901	7.471585	-2.530765	-7.557575	-2.918053	-0.540527	-0.028076	0.797363	0.200213	-0.097851	0.152308	-0.119376	-0.775447	0.112882	-0.609663	168.237837	-76.525379	-7.275642						
61055		24.359978	-11.241853	15.594559	24.281154	4.819020	8.888590	-2.526137	-6.226938	-3.501519	-0.499023	-0.056396	0.826660	0.236566	-0.114557	0.164823	-0.136250	-0.794350	0.110671	-0.581546	162.971706	-72.565531	-3.319887						
61056		16.698057	-5.336737	17.586601	22.802321	-1.388986	-0.090222	-2.102402	-5.226907	-3.879519	-0.461182	-0.100098	0.840576	0.161248	-0.054650	0.180701	-0.152929	-0.809873	0.104883	-0.556524	158.576692	-68.988076	0.053414						
61057		30.132559	-1.431513	12.179109	22.413234	-3.220069	13.541930	-3.921023	-4.368914	-2.549731	-0.435547	-0.126221	0.845459	0.298371	-0.015655	0.128629	-0.173541	-0.819963	0.108783	-0.534518	155.443980	-66.110430	1.008106						
61058		37.717920	-16.600729	24.172656	41.758568	5.427346	12.753685	-3.760302	-0.283880	-1.206080	-0.445557	-0.162109	0.828613	0.375841	-0.163686	0.245353	-0.192016	-0.817998	0.114127	-0.530079	152.067837	-65.648945	2.342922						
61059		12.668304	-22.561380	15.517938	26.882829	13.599594	-8.182530	-2.218409	2.255952	-0.485508	-0.485596	-0.171631	0.813477	0.127896	-0.224194	0.156233	-0.203650	-0.810072	0.115869	-0.537480	148.811086	-66.633707	4.510656						
61060		3.522415	-20.909793	12.550879	20.248867	13.043873	-15.007567	-0.042797	2.430684	-0.301821	-0.510498	-0.167725	0.795654	0.036431	-0.209125	0.125116	-0.206023	-0.803617	0.112316	-0.546937	146.681146	-67.718826	6.792653						
61061		0.086364	-14.641786	9.659350	13.978505	8.786864	-15.735016	1.764097	2.040022	-0.099493	-0.533936	-0.145752	0.791016	0.001767	-0.147263	0.095282	-0.200346	-0.799849	0.105010	-0.555946	145.958172	-68.657713	8.656752						
61062		3.257212	-8.725957	9.474437	12.566952	4.044158	-11.302105	2.644879	1.743454	0.345510	-0.561768	-0.121826	0.770508	0.033542	-0.088442	0.093290	-0.189667	-0.797359	0.097335	-0.564597	146.463157	-69.602431	9.737434						
61063		6.650461	-4.106622	9.725636	12.166541	0.264971	-7.060934	2.785370	2.108688	1.057926	-0.592285	-0.086914	0.756592	0.067742	-0.042053	0.095965	-0.176583	-0.793413	0.091704	-0.575244	147.650761	-70.943655	10.168008						
61064		7.855577	-2.321173	10.220450	12.279097	-1.233033	-5.426118	2.528113	2.839070	1.728373	-0.613770	-0.056152	0.733887	0.080197	-0.023803	0.100775	-0.162809	-0.786488	0.088823	-0.589101	149.086140	-72.855521	10.181213						
61065		7.821508	-2.550271	9.950153	11.960824	-0.706640	-5.006389	2.275359	3.620544	2.075854	-0.648682	-0.025635	0.704590	0.080262	-0.025796	0.097768	-0.149322	-0.776546	0.087341	-0.605847	150.329251	-75.244159	10.241238						
61066		6.926015	-3.295972	9.188369	11.077453	0.411417	-5.301575	2.268775	4.306501	2.064736	-0.685791	0.007080	0.668457	0.071554	-0.033257	0.089983	-0.136051	-0.763978	0.085302	-0.624941	150.892331	-77.985010	10.997417						
61067		6.474968	-2.993773	8.252858	9.785706	0.602934	-5.033114	2.387136	4.791581	1.914361	-0.714111	0.037842	0.625732	0.066985	-0.030273	0.080581	-0.122952	-0.749522	0.081891	-0.645286	150.144439	-80.912671	13.145933						
61068		6.936567	-2.081803	7.499610	8.596563	0.158584	-3.918742	2.443045	5.177359	1.785223	-0.748779	0.059570	0.585449	0.071459	-0.021086	0.072908	-0.110065	-0.733190	0.077544	-0.666562	146.349784	-83.989693	18.382505						
61069		7.340403	-0.954556	6.942607	7.460013	-0.600019	-2.960518	2.286763	5.504938	1.746558	-0.777100	0.092529	0.533936	0.075360	-0.009670	0.067259	-0.097953	-0.715092	0.073289	-0.688243	130.470629	-87.045497	35.615107						
61070		8.341724	-0.286559	6.546976	6.530177	-0.999468	-1.514793	1.930659	5.783007	1.817842	-0.807129	0.114258	0.478027	0.085288	-0.002712	0.062995	-0.086828	-0.695032	0.070340	-0.710242	40.926107	-88.182237	126.310854						
61071		9.664300	-0.476888	6.321552	5.779065	-0.658905	0.172955	1.495852	6.097736	1.935736	-0.832764	0.135986	0.419922	0.098552	-0.004279	0.060197	-0.076863	-0.672994	0.069099	-0.732390	1.518248	-85.144829	166.622864						
61072		11.240108	-1.136537	6.105328	4.863502	0.076363	2.069489	1.078885	6.395746	2.084455	-0.855713	0.144775	0.362061	0.114387	-0.010496	0.057358	-0.067729	-0.648787	0.069727	-0.754736	-6.673955	-81.405510	175.486879						
61073		12.523134	-2.589174	5.592723	3.580968	1.577478	3.581983	0.810297	6.728117	2.215372	-0.876953	0.168945	0.292969	0.127293	-0.024704	0.051566	-0.059052	-0.622514	0.071562	-0.777090	-9.958607	-77.408688	179.295538						
61074		12.586794	-3.958897	4.937717	2.193994	2.971128	3.779585	0.754830	7.000492	2.283299	-0.891357	0.186523	0.223633	0.127931	-0.038311	0.044776	-0.050257	-0.594192	0.073684	-0.799363	-11.596493	-73.207291	-178.568429						
61075		12.329966	-4.517611	4.437893	0.867675	3.523895	3.561612	0.827827	7.095817	2.318079	-0.889893	0.208984	0.149902	0.125279	-0.043902	0.039773	-0.041118	-0.564797	0.075456	-0.820744	-12.450556	-68.957120	-177.168155						
61076		12.019554	-4.568865	4.406669	-0.063128	3.484094	3.322546	0.917953	7.047360	2.401783	-0.883789	0.222656	0.076416	0.122182	-0.044418	0.039578	-0.031256	-0.534654	0.077038	-0.840972	-13.001737	-64.698763	-176.000720						
61077		12.349148	-4.655025	5.039335	-0.643671	3.333265	3.896832	0.953998	6.843793	2.546333	-0.875977	0.245361	0.002686	0.125695	-0.045185	0.045899	-0.020618	-0.504714	0.078741	-0.859441	-13.471104	-60.550670	-174.860532						
61078		14.695130	-5.158618	6.090479	-1.943012	3.385708	6.444317	0.969993	6.678340	2.749580	-0.851807	0.261475	-0.064453	0.149562	-0.049820	0.055694	-0.008921	-0.474587	0.080842	-0.876443	-13.948097	-56.443346	-173.654268						
61079		17.268269	-4.478046	7.137618	-3.826204	2.135842	8.890874	0.996641	6.648457	3.039610	-0.821289	0.284424	-0.122803	0.175579	-0.042462	0.065355	0.004079	-0.443979	0.083364	-0.892142	-14.436484	-52.326250	-172.355363						
61080		19.456001	-2.464245	7.159830	-6.661450	-0.419992	9.963974	0.861699	6.720585	3.414728	-0.781494	0.298828	-0.169922	0.197202	-0.021579	0.064903	0.018472	-0.412132	0.087251	-0.906749	-15.050515	-48.088463	-170.919959						
61081		20.794860	-1.700425	6.891459	-9.192854	-1.792679	10.058147	0.561637	6.806063	3.712190	-0.737305	0.317627	-0.219482	0.210401	-0.013294	0.061740	0.033474	-0.379329	0.092944	-0.919973	-15.781528	-43.766586	-169.459675						
61082		20.719602	-1.740858	7.067431	-10.408684	-2.369023	9.372923	0.302576	6.809387	3.782218	-0.697510	0.331787	-0.253174	0.209721	-0.013558	0.063539	0.048305	-0.345817	0.099862	-0.931721	-16.502818	-39.402419	-168.119212						
61083		21.071770	-1.530560	7.614579	-11.640480	-3.326818	9.095919	0.134964	6.686291	3.634114	-0.664307	0.345703	-0.278076	0.213337	-0.011493	0.069033	0.062096	-0.312608	0.107085	-0.941782	-17.104551	-35.135963	-167.003585						
61084		22.782160	-0.963576	8.606143	-13.676907	-4.961128	9.734390	0.042394	6.528066	3.359638	-0.635254	0.344238	-0.309326	0.230587	-0.005794	0.078562	0.074489	-0.279774	0.114153	-0.950340	-17.559016	-30.981122	-166.134589						
61085		24.796775	0.698424	8.858089	-16.346540	-7.598696	9.386239	-0.036004	6.435086	3.047159	-0.615723	0.360352	-0.340820	0.250501	0.010803	0.080545	0.085202	-0.247331	0.120935	-0.957571	-17.883352	-26.940573	-165.514049						
61086		25.729135	2.410149	7.721405	-18.685260	-9.736115	7.015874	-0.223183	6.405449	2.718011	-0.588867	0.363037	-0.369873	0.259227	0.027696	0.068902	0.094049	-0.214925	0.128071	-0.963618	-18.177924	-22.962108	-165.129152						
61087		26.073435	3.117840	5.320290	-20.905566	-10.367907	3.341981	-0.446255	6.332965	2.285855	-0.569092	0.374756	-0.401123	0.261863	0.034274	0.044848	0.100482	-0.183074	0.135606	-0.968503	-18.476983	-19.108789	-165.017105						
61088		25.247318	2.257731	2.758164	-21.975087	-8.970307	-0.510144	-0.551589	6.158230	1.762637	-0.542236	0.375244	-0.430176	0.252949	0.024867	0.019731	0.104305	-0.152245	0.142947	-0.972372	-18.744927	-15.441669	-165.190934						
61089		23.294159	0.750914	-0.624066	-21.957881	-6.239192	-5.086851	-0.402824	5.846632	1.181845	-0.515625	0.382568	-0.463867	0.232577	0.008863	-0.013061	0.105530	-0.123152	0.148814	-0.975475	-18.871956	-12.055297	-165.640437						
61090		19.786358	-2.135484	-5.693971	-20.640620	-1.171744	-10.800193	-0.008387	5.266692	0.499221	-0.497559	0.380859	-0.488281	0.196326	-0.020866	-0.062123	0.104012	-0.097107	0.151911	-0.978097	-18.749076	-9.111721	-166.352484						
61091		22.114987	2.585679	-11.019364	-23.089048	-4.304554	-17.903355	0.249580	4.298946	-0.328080	-0.479492	0.376709	-0.508301	0.218756	0.025638	-0.114881	0.099252	-0.076213	0.152755	-0.980309	-18.474292	-6.840320	-167.323742						
61092		29.152711	11.017297	-17.507544	-29.350178	-11.265339	-26.820956	-0.947916	3.684499	-0.622139	-0.459473	0.379395	-0.523926	0.288569	0.108424	-0.180927	0.093009	-0.059184	0.158985	-0.981107	-18.916372	-4.965644	-168.341368						
61093		29.354756	8.713639	-25.601989	-30.735539	-5.688078	-34.629119	-2.463906	3.083080	-0.738539	-0.444092	0.393066	-0.524414	0.289855	0.082862	-0.261546	0.086202	-0.045813	0.172277	-0.980199	-20.258543	-3.446176	-169.332469						
61094		23.794808	0.856497	-28.159400	-26.458140	4.694128	-35.065136	-2.672183	1.672263	-1.245104	-0.446533	0.399658	-0.517822	0.235614	0.003313	-0.283638	0.078015	-0.039999	0.185790	-0.978670	-21.736942	-2.825973	-170.341893						
61095		21.648015	-4.981712	-22.313913	-24.408224	9.261686	-27.413097	-1.601680	-0.131127	-1.882435	-0.453125	0.392822	-0.506592	0.216133	-0.053637	-0.222578	0.068615	-0.043041	0.193209	-0.977809	-22.605859	-3.305391	-171.311211						
61096		26.741691	-7.715557	-13.103378	-28.756620	8.138112	-17.101825	-0.264293	-1.163598	-2.243441	-0.470459	0.376953	-0.499512	0.267284	-0.080326	-0.129374	0.058682	-0.051201	0.193627	-0.977979	-22.699224	-4.440424	-172.240598						
61097		29.040907	-5.627527	-5.821109	-29.915185	3.670685	-10.518504	0.504524	-0.983992	-2.247541	-0.474609	0.365723	-0.503662	0.290036	-0.059391	-0.056931	0.048785	-0.058066	0.190305	-0.978791	-22.329076	-5.457156	-173.215413						
61098		20.586653	-1.470442	-3.850057	-20.970148	0.499855	-10.698557	0.429074	-0.694784	-1.934185	-0.480957	0.354492	-0.498779	0.205844	-0.016614	-0.037820	0.040070	-0.063479	0.187500	-0.979392	-21.999795	-6.275854	-174.093272						
61099		-31.842651	-3.142473	37.067540	36.759651	-7.512174	21.652042	-0.279175	-1.428626	-2.152242	-0.491699	0.343018	-0.480713	-0.321373	-0.027462	0.368427	0.030793	-0.072572	0.187907	-0.979018	-22.062096	-7.500029	-174.932873						
61100		-28.223928	-33.677924	15.440348	29.553821	28.092424	12.691450	0.670894	-2.152941	-1.845328	-0.517822	0.324707	-0.462646	-0.286966	-0.334655	0.150206	0.023991	-0.084993	0.183626	-0.979021	-21.606379	-9.068108	-175.458586						
61101		-2.019409	-2.927450	0.063637	1.979119	2.866461	-9.094506	1.625791	-5.156285	-2.711882	-0.541748	0.302002	-0.435303	-0.020592	-0.028998	-0.000128	0.016146	-0.112514	0.173840	-0.978192	-20.605011	-12.386599	-175.848625						
61102		3.665739	12.316436	3.666863	-2.721923	-13.082909	-9.836388	-0.407468	-6.864748	-0.553445	-0.575439	0.305664	-0.386475	0.035717	0.123141	0.037655	0.019158	-0.146751	0.174920	-0.973396	-21.128978	-16.200078	-174.704033						
61103		33.417224	-7.003038	21.294312	-24.600080	-3.901939	21.781816	-0.525256	-6.689640	0.086855	-0.597900	0.307373	-0.353027	0.326829	-0.069308	0.224141	0.025046	-0.179224	0.176827	-0.967462	-21.905188	-19.750645	-173.175040						
61104		22.425798	6.926711	11.990941	-16.290402	-13.113775	6.224310	-0.449712	-5.355656	-0.566261	-0.611084	0.302490	-0.315186	0.221139	0.068916	0.125704	0.026605	-0.205866	0.177800	-0.961924	-22.505650	-22.742764	-172.248540						
61105		22.293519	-5.656818	8.963145	-16.146353	-0.568179	8.846852	-0.659214	-5.033150	-0.669256	-0.622070	0.297852	-0.286133	0.220393	-0.057000	0.095387	0.027184	-0.230714	0.179580	-0.955920	-23.231710	-25.551726	-171.404869						
61106		24.327935	-17.830738	8.080357	-17.103681	10.795276	13.976557	1.632725	-4.086859	-0.977505	-0.631104	0.295410	-0.268311	0.240703	-0.180167	0.084274	0.028019	-0.251120	0.170076	-0.952485	-22.503205	-27.959409	-170.959349						
61107		19.802479	-1.827815	7.690363	-13.159755	-3.401034	6.613611	1.381026	-3.657386	-0.507161	-0.624023	0.288818	-0.254883	0.196528	-0.019325	0.080376	0.030451	-0.268755	0.162345	-0.948940	-22.006981	-30.011701	-170.356672						
61108		18.522084	1.183512	9.316093	-10.797100	-6.463604	6.706407	0.909565	-2.194721	-0.750012	-0.628662	0.292969	-0.252686	0.184225	0.010713	0.095237	0.029857	-0.279923	0.156711	-0.946675	-21.537000	-31.374779	-170.272041						
61109		8.354979	-6.978340	7.089207	-2.892450	3.463461	2.369038	0.528575	-1.779361	-0.428526	-0.631348	0.306396	-0.255127	0.082766	-0.070150	0.071446	0.029969	-0.288618	0.153364	-0.944606	-21.328324	-32.416339	-170.099541						
61110		9.470985	-4.729413	8.033263	-3.171830	0.980357	3.054909	0.663433	-1.475252	-0.530517	-0.631592	0.310791	-0.252930	0.093988	-0.047812	0.080870	0.029511	-0.296199	0.149273	-0.942928	-20.973576	-33.351749	-170.067421						
61111		8.197155	-3.220220	7.628215	-2.246616	-0.080308	1.619593	0.600328	-1.098629	-0.605594	-0.636230	0.312988	-0.255371	0.081453	-0.032679	0.076633	0.028371	-0.301763	0.145407	-0.941802	-20.566751	-34.066227	-170.186151						
61112		7.310977	-3.241081	8.251879	-1.037498	-0.010004	1.631544	0.544768	-0.901331	-0.581883	-0.638672	0.317383	-0.266357	0.072642	-0.032848	0.082758	0.027070	-0.306666	0.141868	-0.940796	-20.175506	-34.704224	-170.340225						
61113		8.684638	-1.557706	8.488876	-1.974230	-1.794641	2.136829	0.396561	-0.695796	-0.521831	-0.643555	0.328369	-0.275635	0.086509	-0.015972	0.085159	0.025723	-0.310281	0.139134	-0.940056	-19.852041	-35.184044	-170.513565						
61114		9.843272	-2.195344	6.516440	-3.964064	-0.792858	1.493527	0.274873	-0.528518	-0.427830	-0.655029	0.332764	-0.284424	0.098213	-0.022253	0.065394	0.024467	-0.313344	0.137142	-0.939366	-19.614643	-35.589816	-170.664591						
61115		8.478365	-1.771767	6.909988	-2.597289	-1.071113	0.905348	0.191891	-0.354977	-0.333014	-0.664307	0.343506	-0.295654	0.084631	-0.017925	0.069233	0.023454	-0.315243	0.135703	-0.938966	-19.428999	-35.848197	-170.799453						
61116		8.228535	-2.155557	6.546858	-2.553054	-0.549035	0.598693	0.131415	-0.296219	-0.299275	-0.673584	0.350098	-0.300293	0.082156	-0.021722	0.065576	0.022416	-0.317144	0.134609	-0.938508	-19.288143	-36.103719	-170.923504						
61117		7.965057	-0.856554	7.697054	-1.677386	-2.013138	0.983331	0.101726	-0.196424	-0.251036	-0.689697	0.356445	-0.309326	0.079564	-0.008705	0.077044	0.021538	-0.318251	0.133739	-0.938278	-19.162393	-36.260286	-171.042927						
61118		8.013808	-1.611318	7.268546	-1.910535	-1.172073	0.893632	0.012523	-0.181214	-0.166465	-0.703369	0.363037	-0.318115	0.080059	-0.016184	0.072757	0.020856	-0.319535	0.133423	-0.937902	-19.124527	-36.428490	-171.106566						
61119		7.458729	-1.119658	7.079940	-1.586031	-1.525685	0.295160	-0.068688	-0.150671	-0.107949	-0.719238	0.369385	-0.313721	0.074528	-0.011212	0.070859	0.020347	-0.320348	0.133585	-0.937613	-19.146378	-36.533265	-171.141112						
61120		7.115120	-1.479841	7.383565	-1.089228	-1.212010	0.418465	-0.139886	-0.130919	-0.041485	-0.735107	0.373535	-0.320557	0.071100	-0.014761	0.073893	0.019971	-0.321328	0.134186	-0.937200	-19.238307	-36.650923	-171.132758						
61121		7.052682	-1.260690	7.944075	-0.695482	-1.566364	0.746704	-0.257806	-0.117322	0.048124	-0.744385	0.377686	-0.311768	0.070483	-0.012487	0.079498	0.019867	-0.321899	0.135487	-0.936819	-19.426771	-36.708160	-171.069617						
61122		6.267595	-2.841105	7.498309	-0.246260	0.131824	0.360864	-0.297919	-0.114458	0.105237	-0.758057	0.381836	-0.316162	0.062648	-0.028266	0.075061	0.019911	-0.322717	0.137063	-0.936307	-19.666088	-36.788704	-170.966021						
61123		6.774012	-2.322372	6.604918	-1.204302	-0.244381	-0.148556	-0.319484	-0.138139	0.112625	-0.758057	0.386230	-0.309570	0.067707	-0.023080	0.066133	0.020023	-0.323345	0.138754	-0.935839	-19.919475	-36.844240	-170.853714						
61124		6.709948	-3.105353	6.211821	-1.330912	0.584261	-0.265930	-0.283805	-0.161826	0.079517	-0.776123	0.383789	-0.307129	0.067061	-0.030939	0.062216	0.020000	-0.324397	0.140216	-0.935257	-20.148053	-36.954465	-170.755046						
61125		5.766619	-3.973235	6.097544	-0.593205	1.547579	-0.676298	-0.174822	-0.143260	-0.021803	-0.782715	0.385742	-0.298340	0.057618	-0.039685	0.061051	0.019721	-0.325127	0.141012	-0.934890	-20.265600	-37.038707	-170.731207						
61126		5.791846	-4.206705	6.244728	-0.487634	1.728521	-0.484618	-0.046415	-0.097906	-0.169403	-0.787354	0.387939	-0.298340	0.057852	-0.042102	0.062485	0.018876	-0.326029	0.140968	-0.934600	-20.248405	-37.163505	-170.815241						
61127		5.738500	-4.068276	6.240568	-0.442163	1.618735	-0.560117	0.067989	-0.008109	-0.338802	-0.791992	0.387695	-0.291748	0.057313	-0.040801	0.062394	0.017415	-0.326327	0.140124	-0.934651	-20.077212	-37.237678	-171.038978						
61128		5.661809	-4.760900	5.599375	-0.718413	2.488184	-0.903821	0.182783	0.080763	-0.525531	-0.800537	0.378662	-0.295898	0.056515	-0.047809	0.055927	0.015158	-0.326619	0.138446	-0.934839	-19.755491	-37.335062	-171.408575						
61129		5.804416	-4.315855	6.571915	-0.251361	1.857257	-0.221289	0.335443	0.146824	-0.704561	-0.811768	0.378418	-0.293701	0.057940	-0.043473	0.065604	0.012317	-0.326420	0.135765	-0.935343	-19.256145	-37.393485	-171.919688						
61130		5.329830	-3.869528	7.448041	0.639590	1.338610	0.018496	0.396265	0.245355	-0.830244	-0.816162	0.374023	-0.291260	0.053228	-0.039064	0.074338	0.008876	-0.326126	0.132599	-0.935938	-18.660339	-37.453210	-172.537556						
61131		5.278414	-3.257939	6.794408	0.234660	0.993901	-0.669587	0.451543	0.281670	-0.920001	-0.813721	0.371826	-0.286865	0.052729	-0.032975	0.067796	0.005126	-0.325421	0.129024	-0.936711	-17.984126	-37.468690	-173.228963						
61132		6.866690	-2.299376	6.844402	-1.059530	0.001242	0.094928	0.483349	0.327723	-0.984172	-0.820313	0.364990	-0.297607	0.068664	-0.023497	0.068275	0.001058	-0.324817	0.125194	-0.937454	-17.261111	-37.498237	-173.972153						
61133		6.690331	-0.819691	7.088207	-0.902884	-1.377275	-0.170991	0.419004	0.276239	-0.882280	-0.822266	0.360596	-0.291016	0.066964	-0.008641	0.070772	-0.002565	-0.324096	0.121826	-0.938144	-16.619377	-37.497154	-174.636969						
61134		6.552351	-1.111562	7.825605	-0.331046	-1.169674	0.381953	0.374152	0.268736	-0.728321	-0.831055	0.353760	-0.292969	0.065587	-0.011501	0.078147	-0.005571	-0.323594	0.118911	-0.938678	-16.072846	-37.504694	-175.191527						
61135		5.556932	-1.578440	8.232985	0.732679	-0.671430	0.195560	0.345960	0.163808	-0.616097	-0.835449	0.353516	-0.286377	0.055587	-0.016098	0.082257	-0.007995	-0.323227	0.116314	-0.939112	-15.599005	-37.513803	-175.649171						
61136		6.425298	-1.391811	7.482729	-0.419927	-0.676043	0.116016	0.325060	0.054946	-0.546803	-0.837158	0.340332	-0.277100	0.064235	-0.014215	0.074787	-0.010102	-0.323609	0.113924	-0.939253	-15.181347	-37.604142	-176.036739						
61137		6.940711	-0.719406	7.122317	-1.102547	-1.223026	0.021272	0.295167	0.005052	-0.492312	-0.835205	0.344727	-0.283936	0.069391	-0.007470	0.071211	-0.011934	-0.323906	0.111769	-0.939388	-14.806196	-37.677429	-176.379075						
61138		5.568092	-2.441826	7.274221	0.254560	0.542424	-0.351123	0.269112	-0.063585	-0.514644	-0.843994	0.340088	-0.277100	0.055595	-0.024659	0.072727	-0.013912	-0.324816	0.109695	-0.939291	-14.444620	-37.824602	-176.724934						
61139		6.224545	-2.151031	7.220269	-0.304218	0.289189	-0.049094	0.275670	-0.135154	-0.490909	-0.848389	0.340088	-0.277100	0.062143	-0.021762	0.072215	-0.015691	-0.325766	0.107641	-0.939172	-14.094004	-37.972111	-177.043533						
61140		5.663159	-3.217945	6.920922	0.089588	1.465534	-0.422817	0.285992	-0.102685	-0.488656	-0.850342	0.331055	-0.268066	0.056517	-0.032417	0.069192	-0.017495	-0.326838	0.105530	-0.939007	-13.734525	-38.133712	-177.367553						
61141		4.620123	-3.278988	7.403063	1.232120	1.509541	-0.696463	0.290854	-0.111016	-0.571742	-0.847900	0.326660	-0.263428	0.046066	-0.033029	0.074008	-0.019641	-0.327712	0.103268	-0.938911	-13.333582	-38.275375	-177.751290						
61142		5.016605	-2.699073	8.152845	1.352779	0.826162	0.006035	0.263979	-0.172682	-0.666712	-0.852051	0.317627	-0.260986	0.050005	-0.027265	0.081536	-0.022276	-0.329192	0.100975	-0.938584	-12.911347	-38.495139	-178.194057						
61143		4.828822	-2.696892	8.128631	1.521099	0.886115	-0.139731	0.208033	-0.232306	-0.753908	-0.853760	0.304199	-0.256348	0.048091	-0.027235	0.081314	-0.025349	-0.330711	0.098812	-0.938202	-12.483651	-38.723122	-178.693308						
61144		5.276080	-2.765234	8.726396	1.602625	0.879906	0.593575	0.192500	-0.330290	-0.888978	-0.864746	0.295166	-0.253906	0.052493	-0.027970	0.087324	-0.029061	-0.333016	0.096501	-0.937520	-12.009707	-39.052116	-179.278284						
61145		6.455825	-2.969033	7.500988	0.017710	1.382417	0.426712	0.252319	-0.449322	-1.009871	-0.864502	0.290771	-0.242676	0.064238	-0.030110	0.075117	-0.033153	-0.335668	0.093730	-0.936719	-11.449823	-39.425040	-179.939644						
61146		7.649405	-1.612984	7.010114	-1.295406	0.235566	0.604698	0.292055	-0.569454	-1.109167	-0.879639	0.274902	-0.242188	0.076203	-0.016656	0.070294	-0.037611	-0.339187	0.090615	-0.935589	-10.822562	-39.903436	179.334838						
61147		8.092492	-0.732671	6.899786	-1.735937	-0.507849	0.692526	0.261887	-0.640119	-1.102493	-0.885742	0.256836	-0.239502	0.080661	-0.007862	0.069246	-0.042029	-0.342750	0.087668	-0.934382	-10.209796	-40.382598	178.612419						
61148		7.102253	0.162673	7.921557	-0.365010	-1.518741	0.712455	0.136435	-0.743022	-1.042713	-0.894287	0.243408	-0.225830	0.070735	0.001203	0.079480	-0.046360	-0.346990	0.085417	-0.932820	-9.693094	-40.940780	177.935515						
61149		5.566649	-0.678880	8.566376	1.427205	-0.811330	0.293504	-0.165711	-0.944763	-0.925537	-0.907471	0.236328	-0.203369	0.055229	-0.006974	0.085931	-0.050556	-0.351773	0.084831	-0.930862	-9.412812	-41.565891	177.361867						
61150		6.685713	1.591886	8.763528	0.506980	-3.008277	0.898212	0.120210	-1.431668	-0.743863	-0.916016	0.227295	-0.180908	0.066286	0.015619	0.088121	-0.053218	-0.359055	0.083338	-0.928064	-9.086217	-42.479158	176.973962						
61151		6.211988	-0.230874	8.222132	0.956995	-1.122300	0.388660	-0.131695	-1.713999	-0.459580	-0.927002	0.220459	-0.167480	0.061407	-0.002396	0.082751	-0.054868	-0.367177	0.083607	-0.924760	-9.068443	-43.493762	176.832777						
61152		5.182714	-0.877916	8.804046	2.399646	-0.653738	0.134812	-0.054076	-2.119323	-0.439557	-0.928711	0.211426	-0.127441	0.050871	-0.008868	0.088585	-0.056135	-0.377401	0.083639	-0.920555	-9.045164	-44.767141	176.752492						
61153		6.609814	0.242117	8.471601	1.214341	-1.648808	0.738001	-0.114404	-2.515213	-0.350180	-0.939941	0.208740	-0.093994	0.065030	0.002355	0.085537	-0.056903	-0.389088	0.084234	-0.915575	-9.145807	-46.225158	176.797434						
61154		6.025728	-0.494359	8.309789	1.911095	-0.951117	0.239290	-0.129102	-2.851187	-0.282940	-0.946045	0.195313	-0.049316	0.059058	-0.004974	0.083949	-0.057270	-0.402450	0.085087	-0.909678	-9.330983	-47.897392	176.947012						
61155		6.383738	-0.016947	8.156529	1.787164	-1.419924	0.289863	-0.191680	-3.292117	-0.245054	-0.943604	0.195068	-0.002686	0.062483	-0.000168	0.082601	-0.057360	-0.417443	0.086427	-0.902763	-9.643197	-49.784281	177.211751						
61156		6.498094	0.754360	8.608373	2.276535	-2.331149	0.495942	-0.350550	-3.766106	-0.081372	-0.943359	0.190674	0.050781	0.063348	0.007670	0.087274	-0.056852	-0.434558	0.088913	-0.894439	-10.247140	-51.950732	177.728755						
61157		6.157905	-0.671082	8.041195	2.703687	-0.920519	-0.073210	-0.448080	-4.328188	0.037007	-0.938965	0.195068	0.099609	0.059821	-0.006518	0.081734	-0.055721	-0.453691	0.092236	-0.884620	-11.152156	-54.386858	178.534671						
61158		6.499895	-1.426543	8.149738	3.182184	-0.306579	0.210236	-0.410693	-4.955187	0.034838	-0.918457	0.188477	0.168457	0.062956	-0.014085	0.083103	-0.054232	-0.475578	0.095491	-0.872792	-12.266305	-57.194973	179.593900						
61159		5.390380	-1.626838	8.210172	4.363219	-0.228849	-0.868799	-0.293802	-5.710498	-0.033645	-0.902588	0.193115	0.237061	0.051528	-0.016155	0.083620	-0.052329	-0.500261	0.098233	-0.858691	-13.620155	-60.391427	-179.024183						
61160		5.654563	-1.536351	7.439978	4.089152	-0.233481	-1.275649	-0.111960	-6.508484	-0.076617	-0.882080	0.184326	0.303711	0.054079	-0.015342	0.076195	-0.049753	-0.528168	0.100182	-0.841740	-15.382279	-64.043908	-177.109883						
61161		6.481545	-0.889508	7.624465	4.372813	-1.007955	-0.826590	-0.111504	-7.465015	-0.139456	-0.852783	0.184814	0.378906	0.061904	-0.008896	0.078597	-0.046862	-0.559276	0.102099	-0.821334	-18.060771	-68.167426	-174.255485						
61162		6.249994	-2.547821	9.565113	7.255467	0.104481	-0.630357	-0.226475	-8.338196	-0.343804	-0.813965	0.178467	0.458740	0.058397	-0.025471	0.098172	-0.044652	-0.593347	0.103943	-0.796958	-22.336117	-72.751398	-169.865105						
61163		11.124205	-5.195418	9.035029	6.809061	2.440740	3.600407	-0.425481	-8.771402	-0.715315	-0.766602	0.172607	0.527588	0.106950	-0.052143	0.095215	-0.044167	-0.628010	0.105403	-0.769768	-29.470878	-77.462705	-162.744517						
61164		14.441160	-8.196963	7.458937	6.510940	5.415817	6.294935	-0.126380	-8.880831	-1.495189	-0.714355	0.162354	0.598633	0.140293	-0.082979	0.080934	-0.045632	-0.662478	0.103063	-0.740553	-42.387601	-82.140339	-149.711817						
61165		18.951721	-4.447826	8.195982	7.537732	1.332459	9.865282	-0.001622	-8.923333	-2.182527	-0.655273	0.147705	0.663086	0.185112	-0.046514	0.090287	-0.049077	-0.695952	0.097797	-0.709702	-80.204772	-85.897222	-111.725407						
61166		24.525897	-2.819472	11.650890	12.461818	-1.245416	14.432723	-0.602241	-8.904173	-2.272456	-0.595703	0.122070	0.712158	0.239411	-0.030565	0.127347	-0.054860	-0.727912	0.094126	-0.676960	-148.433634	-84.785948	-43.673430						
61167		19.542600	-0.620252	13.244090	15.089939	-3.422648	8.018632	-1.467376	-8.305004	-1.840538	-0.539063	0.114258	0.765381	0.189642	-0.006955	0.140447	-0.062477	-0.755817	0.094611	-0.644892	-170.242789	-80.631955	-22.555071						
61168		19.774120	-6.192638	13.048132	17.676981	1.883016	7.016396	-2.255234	-8.175241	-2.181981	-0.488281	0.077393	0.801270	0.191492	-0.062502	0.139098	-0.074140	-0.781885	0.096113	-0.611491	-179.618293	-76.044416	-14.314351						
61169		27.442867	-14.182192	18.295763	27.943557	7.809116	11.317491	-2.397041	-6.968111	-2.922004	-0.433105	0.047119	0.832764	0.265708	-0.143465	0.194031	-0.089045	-0.803101	0.094554	-0.581515	173.870756	-71.965365	-8.977404						
61170		19.055956	-12.689555	16.541179	24.642248	7.241720	1.925140	-1.501140	-5.540551	-3.666552	-0.400879	0.025391	0.859863	0.183511	-0.129031	0.171525	-0.103080	-0.819880	0.086626	-0.556478	168.577713	-68.489230	-4.273188						
61171		22.364373	-3.705898	14.326762	22.336260	-0.749448	5.003593	-1.382804	-4.551172	-3.010169	-0.372803	-0.002930	0.864746	0.219722	-0.039371	0.148565	-0.115123	-0.832821	0.080472	-0.535426	165.218617	-65.554547	-1.489670						
61172		39.805997	-16.789680	25.989591	43.794113	8.283321	13.750104	-2.217554	-1.695442	-1.207770	-0.390137	-0.018799	0.863037	0.394815	-0.167367	0.265110	-0.126904	-0.836514	0.082368	-0.526645	163.093344	-64.421920	-0.549141						
61173		15.127734	-18.506827	19.359329	28.203822	11.779670	-6.361198	-0.850201	1.658075	-0.511941	-0.421631	-0.019287	0.854248	0.152407	-0.184636	0.193118	-0.132499	-0.831793	0.081437	-0.532854	161.397151	-65.234281	0.783376						
61174		5.528478	-15.857109	15.669986	20.244503	10.382784	-12.960173	0.495026	2.163214	-0.221096	-0.450928	-0.019775	0.836670	0.056797	-0.159020	0.155698	-0.131879	-0.826398	0.077797	-0.541869	160.525452	-66.365026	2.049839						
61175		4.202614	-11.026173	12.010640	15.154101	7.056952	-11.821051	1.415201	2.110640	0.077934	-0.487549	-0.000488	0.832031	0.043328	-0.111089	0.118870	-0.126645	-0.821529	0.072914	-0.551122	160.489802	-67.517019	2.966531						
61176		6.597380	-6.152272	11.243811	14.047212	2.895377	-8.371994	1.739480	2.460471	0.534140	-0.517334	0.012207	0.813965	0.067512	-0.062314	0.111074	-0.118864	-0.815542	0.068794	-0.562165	161.065183	-68.954043	3.421705						
61177		8.113642	-3.599904	10.891347	13.536258	0.772283	-6.129805	1.567787	3.223549	1.032488	-0.563232	0.035889	0.784912	0.083062	-0.036419	0.107301	-0.110671	-0.806931	0.066697	-0.576338	161.896570	-70.890268	3.489771						
61178		7.004352	-2.993264	9.832925	11.917397	0.585286	-6.303344	1.325673	4.036941	1.278689	-0.604248	0.048584	0.751465	0.072198	-0.030120	0.096687	-0.102905	-0.795371	0.065836	-0.593684	162.659139	-73.325074	3.488234						
61179		5.628674	-3.354910	8.404053	10.117896	1.373121	-6.765494	1.179034	4.600364	1.262606	-0.652344	0.072021	0.713379	0.058409	-0.033674	0.082515	-0.095965	-0.781683	0.064998	-0.612811	163.024451	-76.053965	3.806768						
61180		5.229509	-3.785809	7.309115	8.901838	2.141047	-6.457823	1.184949	4.957856	1.088582	-0.688721	0.084961	0.671143	0.054288	-0.037993	0.071537	-0.089522	-0.766389	0.063275	-0.632953	162.640449	-78.963622	4.896386						
61181		5.555180	-3.512353	6.750234	8.146898	2.104901	-5.577356	1.218946	5.223868	0.950405	-0.725586	0.102051	0.628906	0.057453	-0.035258	0.065804	-0.083475	-0.749837	0.060726	-0.653520	160.844075	-81.974325	7.422289						
61182		7.100805	-2.876293	6.671025	7.845740	1.625733	-3.570057	1.108951	5.506993	0.998687	-0.759766	0.112549	0.571045	0.072949	-0.028764	0.064560	-0.077632	-0.731629	0.058583	-0.674729	155.958117	-85.136489	12.977466						
61183		8.339765	-2.506963	6.437837	7.220284	1.408313	-1.867244	0.893571	5.906749	1.236189	-0.794434	0.134277	0.517334	0.085402	-0.024826	0.061764	-0.071898	-0.711369	0.057799	-0.696739	130.796476	-88.353605	38.678511						
61184		7.821571	-2.358896	5.949057	6.195040	1.379179	-1.950364	0.655252	6.266565	1.556538	-0.828613	0.147217	0.455078	0.080208	-0.023159	0.056922	-0.065854	-0.688867	0.058833	-0.719489	7.854430	-87.454171	162.026796						
61185		7.798376	-2.215143	5.562722	5.257068	1.297827	-1.608533	0.427319	6.414920	1.881625	-0.849609	0.166992	0.395020	0.079917	-0.021521	0.053038	-0.059473	-0.665016	0.061659	-0.741900	-6.549955	-83.764583	176.708180						
61186		9.030503	-2.788340	5.284533	4.335624	1.865155	-0.069539	0.262435	6.516041	2.113622	-0.866211	0.182373	0.334717	0.092250	-0.026982	0.049825	-0.052665	-0.639785	0.065807	-0.763918	-10.867503	-79.872249	-178.781060						
61187		10.265631	-3.301155	5.000253	3.200308	2.327656	1.392941	0.231883	6.660287	2.185537	-0.883057	0.208984	0.267578	0.104597	-0.031931	0.046503	-0.045742	-0.613321	0.070146	-0.785382	-12.808932	-75.883008	-176.663807						
61188		10.523415	-2.489747	5.007889	2.208848	1.419092	1.809169	0.231567	6.755942	2.193971	-0.894775	0.219971	0.194092	0.107109	-0.023784	0.046453	-0.038683	-0.585582	0.074446	-0.806260	-13.852283	-71.809184	-175.441300						
61189		11.305840	-1.650583	5.226228	1.193555	0.417306	2.685090	0.087881	6.758210	2.251793	-0.895508	0.238037	0.131592	0.114914	-0.015241	0.048393	-0.031845	-0.557174	0.079359	-0.825981	-14.620669	-67.741668	-174.572529						
61190		11.944934	-1.745479	5.783095	0.559858	0.244644	3.556029	-0.121427	6.762595	2.340543	-0.887207	0.253906	0.062500	0.121506	-0.016007	0.053755	-0.025102	-0.527828	0.085327	-0.844681	-15.361980	-63.634181	-173.837973						
61191		12.704291	-2.648119	6.501212	0.001468	0.789563	4.677446	-0.257999	6.726995	2.457237	-0.883789	0.278564	-0.004639	0.129445	-0.024820	0.060717	-0.018262	-0.498029	0.092030	-0.862070	-16.091190	-59.545590	-173.180923						
61192		14.371512	-3.391018	7.572875	-0.924563	0.996439	6.722791	-0.268579	6.686933	2.611362	-0.862061	0.292480	-0.071777	0.146565	-0.031911	0.070903	-0.010661	-0.467542	0.099096	-0.878334	-16.811460	-55.429531	-172.512903						
61193		16.071226	-3.161289	8.790863	-2.143991	0.136277	8.647781	-0.167272	6.723679	2.822766	-0.831543	0.315430	-0.132324	0.163970	-0.029243	0.082457	-0.001981	-0.436328	0.106033	-0.893516	-17.465150	-51.274574	-171.821900						
61194		17.820361	-1.435063	9.902733	-3.901290	-2.271552	10.115141	-0.152418	6.783585	3.074491	-0.796387	0.331787	-0.188232	0.181616	-0.011503	0.092914	0.007908	-0.403972	0.113357	-0.907686	-18.132251	-47.017947	-171.060431						
61195		20.120764	0.146105	9.982823	-6.986340	-4.498466	11.049647	-0.317781	6.925350	3.285987	-0.752197	0.352783	-0.233398	0.204440	0.004954	0.092779	0.018248	-0.370431	0.121653	-0.920678	-18.844359	-42.660665	-170.313720						
61196		22.099074	0.042567	8.660893	-10.855809	-4.854577	10.722081	-0.523909	7.118677	3.367410	-0.712402	0.364746	-0.273926	0.223834	0.004392	0.078666	0.028509	-0.335266	0.130927	-0.932546	-19.564356	-38.158369	-169.672663						
61197		22.544903	-0.654382	6.991553	-13.698868	-4.349906	8.914732	-0.505753	7.102743	3.302632	-0.663574	0.379150	-0.314209	0.227807	-0.002631	0.061862	0.038392	-0.299838	0.139758	-0.942916	-20.147222	-33.690901	-169.178928						
61198		23.086673	-0.200197	5.675025	-16.196814	-4.978005	6.856506	-0.240758	6.754352	3.159935	-0.623291	0.382324	-0.341309	0.232599	0.001727	0.048913	0.048245	-0.265541	0.146893	-0.951621	-20.510566	-29.420498	-168.756547						
61199		24.282132	1.518543	4.721058	-18.744686	-6.937685	4.832699	0.088283	6.167423	2.962657	-0.596680	0.389648	-0.368164	0.243863	0.018775	0.039708	0.057907	-0.233879	0.151834	-0.958590	-20.644824	-25.518527	-168.362602						
61200		27.714795	5.091552	2.608100	-23.415852	-10.693052	1.932524	0.256618	5.628952	2.616993	-0.576416	0.390137	-0.392578	0.277039	0.054515	0.018350	0.066497	-0.204678	0.155274	-0.964145	-20.621794	-21.964189	-168.065259						
61201		30.226174	9.151496	-1.251415	-27.530507	-14.143393	-3.431342	0.055751	5.288135	2.122376	-0.544922	0.388428	-0.412842	0.300797	0.094717	-0.020455	0.072662	-0.177469	0.158898	-0.968492	-20.620115	-18.703047	-167.986906						
61202		29.712666	10.061893	-5.925861	-28.903355	-13.548682	-9.693621	-0.428471	4.922770	1.317569	-0.529053	0.386719	-0.430664	0.294874	0.102429	-0.066754	0.074749	-0.152688	0.163911	-0.971716	-20.779672	-15.797225	-168.288047						
61203		27.489333	7.706049	-10.536486	-28.518541	-9.219843	-15.066328	-0.750636	4.361149	0.252482	-0.515869	0.393555	-0.450684	0.272408	0.076994	-0.111612	0.071823	-0.131567	0.169365	-0.974088	-21.016418	-13.414083	-169.066889						
61204		25.896486	3.949189	-14.493216	-28.332718	-3.616123	-18.776751	-0.744386	3.577513	-0.748660	-0.506836	0.387207	-0.463867	0.256460	0.037977	-0.149678	0.064642	-0.115088	0.173766	-0.975900	-21.192352	-11.663498	-170.231515						
61205		25.893071	1.245591	-17.745007	-29.148773	0.661395	-21.505528	-0.412267	2.693797	-1.527276	-0.499512	0.374023	-0.474854	0.256592	0.010120	-0.180939	0.054617	-0.103420	0.175774	-0.977458	-21.162517	-10.543226	-171.628731						
61206		26.659067	2.259520	-19.667048	-30.050394	0.967288	-23.904947	-0.124980	1.735626	-1.964253	-0.505859	0.362793	-0.474609	0.265075	0.019863	-0.198988	0.043407	-0.096817	0.175840	-0.978684	-20.981452	-10.034476	-173.058245						
61207		28.056328	3.797073	-20.393891	-31.402784	0.290212	-25.018964	-0.219570	0.791086	-2.020001	-0.503174	0.351807	-0.476563	0.280117	0.034915	-0.205087	0.032732	-0.094793	0.176123	-0.979246	-20.890865	-10.027572	-174.317980						
61208		27.724354	3.503694	-20.167350	-31.086533	1.132495	-24.643424	-0.487034	-0.067649	-1.856259	-0.514160	0.344727	-0.478516	0.277618	0.031970	-0.201660	0.023442	-0.097027	0.177623	-0.979023	-20.996121	-10.466235	-175.312016						
61209		8.507043	-1.833277	-12.803749	-10.935706	5.500095	-19.290093	-0.321920	-1.011812	-1.847633	-0.522949	0.337891	-0.460693	0.085541	-0.019327	-0.127575	0.015153	-0.103682	0.178200	-0.978399	-21.033417	-11.389910	-176.104231						
61210		5.225296	-2.591918	-2.229920	-5.539885	2.880830	-9.796134	0.018056	-3.589143	-2.651400	-0.540527	0.330811	-0.447021	0.052292	-0.026610	-0.021363	0.005354	-0.123811	0.176440	-0.976479	-20.873894	-13.881068	-176.802598						
61211		-1.269288	-20.241051	29.028459	9.748420	9.055566	23.000627	-0.409519	-4.255801	-1.783984	-0.555908	0.321533	-0.415771	-0.020672	-0.201655	0.290315	0.000157	-0.146167	0.177201	-0.973260	-21.090192	-16.526650	-176.884241						
61212		-4.078730	-17.879999	8.458856	7.486599	14.127595	2.524400	0.888937	-3.961386	-1.605791	-0.580322	0.312256	-0.390869	-0.043877	-0.178827	0.082945	-0.003520	-0.167059	0.171687	-0.970877	-20.569522	-19.001745	-176.936577						
61213		6.221859	2.205331	4.132603	-4.480208	-3.834579	-4.727752	-0.141051	-6.698655	-0.049054	-0.600830	0.322754	-0.351074	0.060794	0.022068	0.043363	0.001887	-0.199545	0.172380	-0.964605	-21.163900	-22.601143	-175.499868						
61214		31.246067	5.432213	16.764084	-21.737338	-13.257415	15.449060	-0.386466	-6.479604	0.014947	-0.614258	0.324707	-0.317871	0.306811	0.054682	0.177538	0.007141	-0.230899	0.174149	-0.957239	-22.015597	-26.076017	-173.986862						
61215		26.929745	-0.935046	14.875123	-16.738958	-6.682716	15.133381	-0.143420	-4.963738	-0.609810	-0.627686	0.324463	-0.297852	0.265466	-0.010054	0.155379	0.008387	-0.255145	0.173927	-0.951094	-22.493907	-28.843369	-173.134678						
61216		28.032896	-15.308332	7.880751	-19.005019	9.056761	15.465672	1.729481	-3.308414	-1.524579	-0.645508	0.317383	-0.288574	0.277808	-0.155908	0.082077	0.006180	-0.272336	0.163609	-0.948170	-21.452270	-30.958681	-173.247334						
61217		17.391387	-4.274836	5.264892	-11.537106	0.725470	4.843280	1.699585	-3.061982	-0.799628	-0.652100	0.319336	-0.284180	0.172910	-0.043901	0.054932	0.007215	-0.287437	0.154370	-0.945250	-20.608478	-32.763469	-173.006685						
61218		19.353019	6.626745	8.472987	-11.850794	-10.641091	5.567366	1.112886	-1.882057	-1.094527	-0.658936	0.321533	-0.286377	0.193076	0.064730	0.086911	0.005061	-0.297402	0.147491	-0.943278	-19.838315	-34.026273	-173.259451						
61219		8.169300	-6.069288	6.045292	-2.771973	3.403661	1.180377	0.752510	-1.270946	-0.947874	-0.663330	0.319092	-0.290771	0.081018	-0.061306	0.060739	0.002654	-0.304093	0.142523	-0.941917	-19.227636	-34.897074	-173.582048						
61220		10.372081	-5.957008	7.634478	-3.499601	2.796841	3.651263	0.884943	-1.145580	-0.809206	-0.679199	0.321045	-0.290771	0.103039	-0.060327	0.076670	0.000965	-0.310341	0.137131	-0.940682	-18.569082	-35.704166	-173.854551						
61221		9.459620	-0.837254	9.163167	-2.158109	-2.308194	2.999850	0.764457	-0.771426	-0.842097	-0.688477	0.329834	-0.304199	0.094205	-0.009121	0.091962	-0.001274	-0.314564	0.132250	-0.939978	-17.903416	-36.277931	-174.247112						
61222		6.527720	-2.083643	7.891312	-0.356751	-0.434170	0.623238	0.665692	-0.461664	-0.803959	-0.704102	0.325195	-0.310791	0.065010	-0.021361	0.078993	-0.003737	-0.317566	0.127884	-0.939566	-17.264514	-36.705680	-174.689594						
61223		8.673769	-2.819106	6.943239	-2.511320	0.454010	1.362108	0.588046	-0.326196	-0.852139	-0.718018	0.331543	-0.319580	0.086503	-0.028764	0.069490	-0.006592	-0.319678	0.123801	-0.939381	-16.622892	-37.029787	-175.202498						
61224		7.958595	-2.251171	6.720438	-2.080168	0.117597	0.638588	0.534575	-0.052951	-1.014880	-0.731201	0.324707	-0.321777	0.079452	-0.023095	0.067164	-0.010507	-0.320869	0.119691	-0.939471	-15.907660	-37.258360	-175.888296						
61225		7.224835	-1.734334	6.777543	-1.491014	-0.240893	0.130098	0.469509	0.061287	-1.132670	-0.744629	0.322266	-0.330322	0.072169	-0.017911	0.067712	-0.015105	-0.321305	0.115692	-0.939761	-15.159317	-37.401413	-176.683742						
61226		7.743970	-0.727770	7.499956	-1.551617	-1.296778	0.801354	0.371531	0.041670	-1.070564	-0.764404	0.312988	-0.339111	0.077414	-0.007831	0.074969	-0.019597	-0.322055	0.112243	-0.939839	-14.493294	-37.572116	-177.435669						
61227		7.623692	-0.303062	7.757555	-1.333248	-1.666310	0.856773	0.288112	-0.043170	-0.881430	-0.773682	0.317139	-0.336914	0.076206	-0.003478	0.077587	-0.023245	-0.322805	0.109502	-0.939822	-13.959914	-37.723343	-178.043614						
61228		7.519645	-0.617835	7.264789	-1.484924	-1.172525	0.488950	0.225911	-0.127953	-0.682932	-0.789063	0.310303	-0.341064	0.075128	-0.006517	0.072689	-0.026055	-0.324108	0.107369	-0.939546	-13.553864	-37.924542	-178.500756						
61229		6.819440	-0.288633	8.232447	-0.366272	-1.635869	0.749075	0.202563	-0.112353	-0.475312	-0.797852	0.307861	-0.338623	0.068141	-0.003132	0.082360	-0.027894	-0.324943	0.105691	-0.939395	-13.247196	-38.053444	-178.815361						
61230		6.764185	-0.344244	8.391036	-0.194938	-1.578623	0.852773	0.123758	-0.131983	-0.283144	-0.811523	0.312012	-0.336426	0.067581	-0.003590	0.083953	-0.028991	-0.326032	0.104682	-0.939098	-13.069794	-38.200892	-178.993153						
61231		6.301797	-0.513000	8.213320	0.100519	-1.350126	0.463569	0.067340	-0.163465	-0.142715	-0.822754	0.307373	-0.329834	0.062947	-0.005203	0.082183	-0.029461	-0.326911	0.104186	-0.938833	-12.989680	-38.313753	-179.065128						
61232		6.460717	-1.629875	7.700680	-0.169095	-0.143096	0.368114	0.017939	-0.234313	-0.103462	-0.820313	0.302979	-0.325195	0.064508	-0.016339	0.077081	-0.029835	-0.328366	0.103979	-0.938336	-12.960878	-38.494465	-179.099832						
61233		6.458263	-2.069903	7.376304	-0.281105	0.360539	0.197029	-0.009987	-0.291140	-0.147284	-0.836182	0.309326	-0.327393	0.064460	-0.020743	0.073858	-0.030386	-0.329833	0.103857	-0.937817	-12.935454	-38.679125	-179.154636						
61234		6.078191	-2.504574	7.424268	0.140530	0.783938	0.071777	-0.026416	-0.336794	-0.198179	-0.838135	0.302490	-0.318359	0.060632	-0.025096	0.074348	-0.031224	-0.331807	0.103717	-0.937108	-12.899631	-38.928905	-179.240766						
61235		6.461712	-2.169070	7.670589	-0.009110	0.406739	0.440646	-0.007655	-0.349229	-0.245759	-0.843018	0.309082	-0.307373	0.064456	-0.021767	0.076819	-0.032202	-0.333596	0.103429	-0.936472	-12.833494	-39.158515	-179.357541						
61236		6.049004	-2.495764	7.317194	0.182692	0.815945	-0.032028	-0.014695	-0.368518	-0.291811	-0.844727	0.300049	-0.302734	0.060319	-0.025040	0.073285	-0.033440	-0.335763	0.103082	-0.935692	-12.750136	-39.437408	-179.507184						
61237		6.590783	-2.021052	7.329868	-0.243747	0.359380	0.240235	-0.034291	-0.411244	-0.381438	-0.854004	0.304443	-0.293945	0.065718	-0.020323	0.073437	-0.035066	-0.337903	0.102700	-0.934903	-12.641047	-39.718495	-179.714005						
61238		6.800659	-1.325338	7.632572	-0.252081	-0.369594	0.485916	-0.053161	-0.449149	-0.422772	-0.860840	0.308594	-0.280762	0.067807	-0.013377	0.076482	-0.036938	-0.340499	0.102326	-0.933930	-12.524107	-40.058083	-179.948396						
61239		6.200725	-1.545661	7.724824	0.350323	-0.162660	0.205373	-0.123137	-0.480210	-0.375890	-0.860840	0.308594	-0.274170	0.061792	-0.015525	0.077406	-0.038652	-0.342936	0.102379	-0.932963	-12.471938	-40.376509	179.856839						
61240		6.982556	-1.524025	7.229556	-0.497622	-0.071003	0.340748	-0.163379	-0.539478	-0.319405	-0.862793	0.302002	-0.260498	0.069606	-0.015292	0.072496	-0.040183	-0.345869	0.102709	-0.931778	-12.472724	-40.753156	179.709875						
61241		6.910944	-1.633207	6.825314	-0.623604	0.125898	0.016269	-0.153920	-0.551786	-0.347312	-0.867188	0.297363	-0.258301	0.068892	-0.016399	0.068456	-0.041779	-0.348612	0.102965	-0.930657	-12.456362	-41.108004	179.545655						
61242		7.484987	-1.135727	6.704546	-1.138853	-0.325669	0.230342	-0.180085	-0.593220	-0.359051	-0.867188	0.297363	-0.247070	0.074630	-0.011431	0.067277	-0.043496	-0.351802	0.103312	-0.929339	-12.450209	-41.519400	179.376029						
61243		6.728520	-1.444388	7.100336	-0.205267	-0.119648	0.072515	-0.226084	-0.583847	-0.332653	-0.869141	0.294922	-0.236084	0.067053	-0.014475	0.071216	-0.045133	-0.354662	0.103934	-0.928103	-12.483074	-41.890376	179.226160						
61244		6.604855	-1.724625	7.208491	0.070028	0.120982	0.114090	-0.260737	-0.577446	-0.301246	-0.875977	0.297119	-0.233887	0.065814	-0.017251	0.072298	-0.046731	-0.357719	0.104749	-0.926758	-12.547582	-42.285755	179.095729						
61245		7.124912	-1.844146	6.267114	-0.845703	0.450114	-0.193759	-0.267768	-0.608324	-0.333978	-0.873535	0.290527	-0.213623	0.071027	-0.018476	0.062912	-0.048435	-0.360674	0.105564	-0.925432	-12.604354	-42.670796	178.948117						
61246		6.528096	-2.558950	6.560521	-0.018903	1.068968	-0.270090	-0.215194	-0.671794	-0.465067	-0.882324	0.283691	-0.213379	0.065000	-0.025670	0.065851	-0.050658	-0.364252	0.105893	-0.923873	-12.566341	-43.139277	178.707537						
61247		6.412000	-2.577808	6.570246	0.158945	1.090132	-0.341012	-0.187052	-0.780444	-0.604068	-0.879883	0.281494	-0.195801	0.063785	-0.025909	0.065976	-0.053371	-0.368151	0.105884	-0.922174	-12.450525	-43.653985	178.378559						
61248		5.823181	-2.570831	7.391397	1.233400	0.888740	-0.177370	-0.193824	-0.882168	-0.680730	-0.888184	0.265625	-0.186523	0.057817	-0.025834	0.074195	-0.056434	-0.372797	0.105769	-0.920136	-12.301058	-44.265699	177.999847						
61249		5.070892	-2.384478	7.664111	2.030246	0.629791	-0.559656	-0.213689	-1.069082	-0.717665	-0.890137	0.258789	-0.175293	0.050212	-0.023943	0.076936	-0.059564	-0.378053	0.105744	-0.917794	-12.160067	-44.954655	177.620430						
61250		5.292830	-2.730249	7.444593	1.918094	1.027643	-0.530791	-0.173542	-1.242161	-0.739208	-0.903320	0.251953	-0.161621	0.052363	-0.027432	0.074796	-0.062660	-0.384351	0.105521	-0.914994	-11.993012	-45.772906	177.242832						
61251		5.678289	-2.261511	7.422287	1.687583	0.599308	-0.366074	-0.092916	-1.488853	-0.807673	-0.909912	0.245117	-0.148193	0.056136	-0.022808	0.074653	-0.065742	-0.391571	0.104887	-0.911783	-11.761785	-46.706162	176.844777						
61252		6.340702	-2.427941	7.786124	1.705234	0.715572	0.350967	0.030550	-1.744712	-0.913579	-0.918457	0.236084	-0.127930	0.062613	-0.024579	0.078406	-0.068960	-0.400255	0.103539	-0.907921	-11.408467	-47.823481	176.384781						
61253		6.330693	-2.012885	7.793118	1.840579	0.343045	0.254699	0.216311	-2.007896	-0.992757	-0.924316	0.215820	-0.103027	0.062419	-0.020525	0.078539	-0.071988	-0.409958	0.101287	-0.903600	-10.911370	-49.065513	175.882095						
61254		7.142078	-0.352530	7.672184	1.114370	-1.160266	0.550816	0.239120	-2.328218	-1.003712	-0.930664	0.202148	-0.073730	0.070502	-0.003973	0.077542	-0.074876	-0.421289	0.098991	-0.898393	-10.398960	-50.514986	175.388091						
61255		7.009177	0.704819	7.702901	1.263252	-2.170753	0.318707	0.195064	-2.693887	-0.908679	-0.941406	0.195313	-0.042480	0.069077	0.006657	0.077971	-0.077204	-0.433895	0.097230	-0.892368	-9.993757	-52.129540	175.008370						
61256		7.477553	1.438481	8.281135	1.577605	-2.993554	0.915752	0.082681	-3.214386	-0.702851	-0.945313	0.177246	-0.004395	0.073482	0.014090	0.084005	-0.078619	-0.448793	0.096573	-0.884916	-9.840677	-54.044604	174.873946						
61257		6.221153	1.356355	8.892172	3.176151	-3.158389	0.164073	-0.037476	-3.832191	-0.524764	-0.954102	0.174805	0.037842	0.060528	0.013420	0.090090	-0.079159	-0.465927	0.097080	-0.875912	-9.985380	-56.262554	175.020372						
61258		6.386524	2.832881	9.126375	3.360666	-4.707941	0.118240	-0.213231	-4.645433	-0.250989	-0.958008	0.165771	0.100342	0.061759	0.028349	0.092684	-0.078519	-0.486410	0.099248	-0.864517	-10.634349	-58.937559	175.641566						
61259		4.710842	1.118616	9.228752	5.171722	-3.253011	-1.371432	-0.522656	-5.757754	0.028607	-0.948975	0.163574	0.166748	0.044425	0.011436	0.093563	-0.076777	-0.510896	0.103825	-0.849889	-12.122084	-62.171881	177.001965						
61260		4.566118	-0.818124	10.401680	7.237156	-1.823718	-1.212908	-0.491649	-7.132626	0.029772	-0.932861	0.156982	0.251221	0.041915	-0.007917	0.105576	-0.074206	-0.540877	0.108665	-0.830745	-14.373622	-66.175802	179.185261						
61261		4.545283	0.381775	12.805759	9.749671	-3.776064	-1.131633	-0.659925	-8.712650	0.108038	-0.907959	0.156982	0.351074	0.039818	0.004267	0.129861	-0.070740	-0.576258	0.114856	-0.806059	-18.514057	-70.951951	-176.780064						
61262		10.220735	-3.727340	14.550203	11.550369	-0.695065	4.183810	-1.219795	-9.928377	0.223355	-0.864502	0.146484	0.444336	0.094856	-0.036256	0.150557	-0.067627	-0.615152	0.123786	-0.775688	-27.116902	-76.185602	-168.555183						
61263		16.402415	-10.304322	11.763154	10.789633	5.662305	9.285172	-1.114934	-9.967501	-0.690753	-0.814697	0.136230	0.537598	0.157521	-0.102907	0.126166	-0.067485	-0.653087	0.129226	-0.743117	-42.461513	-81.145544	-153.577683						
61264		24.057405	-4.015017	12.757612	11.172425	-1.595127	15.280014	-1.278884	-9.781630	-1.316993	-0.761963	0.114746	0.613281	0.233680	-0.040838	0.139380	-0.070205	-0.689170	0.132828	-0.708853	-80.814920	-84.679093	-115.711502						
61265		28.373191	-5.806118	14.101610	15.332867	-1.150990	18.478812	-2.293815	-9.129358	-1.362639	-0.697754	0.086914	0.682373	0.276489	-0.058242	0.154418	-0.076800	-0.720853	0.139343	-0.674579	-135.301618	-83.692759	-62.307858						
61266		23.047952	-16.667718	14.167399	20.772576	9.243113	12.372186	-2.219617	-8.032789	-2.759600	-0.649170	0.052002	0.731689	0.222183	-0.168128	0.152572	-0.088491	-0.748421	0.139845	-0.642245	-163.512772	-80.432218	-35.135844						
