// General information: 
//  MT Manager version: 2019.2.0 
//  XDA version: 2019.2.0 build 3853 rev 94535 built on 2019-09-09
// Device information: 
//  DeviceId: 00B40A8D
//  ProductCode: MTW2-3A7G6
//  Firmware Version: 4.6.0
//  Hardware Version: 1.1.0
// Device settings: 
//  Filter Profile: human(46.1)
//  Option Flags: Orientation Smoother Disabled, AHS Disabled, ICC Disabled
// Coordinate system: ENU
PacketCounter	SampleTimeFine	Acc_X	Acc_Y	Acc_Z	FreeAcc_E	FreeAcc_N	FreeAcc_U	Gyr_X	Gyr_Y	Gyr_Z	Mag_X	Mag_Y	Mag_Z	VelInc_X	VelInc_Y	VelInc_Z	Quat_q0	Quat_q1	Quat_q2	Quat_q3	Roll	Pitch	Yaw
07292		10.254299	0.296344	5.468165	-0.000000	0.000000	1.812253	-0.180445	-0.137315	0.104295	-0.483643	-0.126953	-0.769531	0.102504	0.003066	0.054749	0.854532	0.058786	-0.510942	0.072506	3.205542	-61.855155	7.778778
07293		10.203799	-0.074677	6.325533	0.000000	0.000000	2.192951	-0.244029	-0.130554	0.172210	-0.479492	-0.120361	-0.767334	0.101997	-0.000582	0.063323	0.866610	0.059951	-0.482375	0.112727	-0.526315	-58.165760	15.115348
07294		10.575425	-0.337228	6.478184	-0.219665	-0.521206	2.580865	-0.097063	-0.195205	0.259513	-0.483887	-0.122559	-0.758545	0.105695	-0.003204	0.064887	0.860926	0.057547	-0.497229	0.090869	1.001691	-60.067538	11.471117
07295		11.113219	-0.246067	7.007301	-0.445476	-0.445864	3.312444	0.059765	-0.038491	0.401345	-0.479736	-0.115967	-0.760742	0.111123	-0.002259	0.070094	0.860629	0.056824	-0.497482	0.092734	0.636939	-60.092878	11.931464
07296		10.842337	-0.406378	8.897385	-2.126367	-0.934315	4.025300	0.027018	0.409608	0.583365	-0.482178	-0.111328	-0.767334	0.108617	-0.003759	0.088751	0.861364	0.055299	-0.495870	0.095428	0.071257	-59.860312	12.602690
07297		9.784393	-0.631936	10.935390	-4.255131	-1.575372	4.156108	-0.023827	0.660394	0.717681	-0.477783	-0.111328	-0.762939	0.098226	-0.005954	0.109031	0.862655	0.053101	-0.493230	0.098641	-0.642018	-59.479882	13.413246
07298		9.849776	0.928898	11.375300	-4.891233	-0.043624	4.447460	0.042564	0.266166	0.773141	-0.478027	-0.104736	-0.769531	0.098612	0.009646	0.113624	0.862952	0.051227	-0.492192	0.102162	-1.364589	-59.310194	14.280286
07299		10.573602	3.131491	9.490448	-3.470572	2.641192	4.067291	-0.239940	-0.156418	0.900840	-0.482666	-0.100342	-0.767334	0.105519	0.031904	0.094949	0.862158	0.048054	-0.493215	0.105418	-2.377448	-59.382918	15.297850
07300		8.963046	2.721286	7.020295	-2.117009	2.607932	1.400764	-0.708624	0.194441	0.936059	-0.479004	-0.086914	-0.773926	0.089569	0.027880	0.070018	0.862422	0.042636	-0.492753	0.107727	-3.654851	-59.216543	16.317553
07301		6.803507	1.476871	7.295540	-3.121278	1.160825	-0.294138	-0.715560	0.379838	0.802299	-0.481445	-0.080322	-0.776367	0.068113	0.015302	0.072772	0.863064	0.037369	-0.491663	0.109503	-4.803752	-58.965597	17.178765
07302		6.513431	0.167862	8.154554	-3.692988	-0.206989	-0.052158	-0.659159	-0.143858	0.634122	-0.480225	-0.062500	-0.769531	0.065069	0.002154	0.081586	0.862671	0.033206	-0.492427	0.110510	-5.739521	-58.975153	17.847383
07303		7.991762	-0.918967	7.957245	-2.616042	-0.920626	1.157197	-0.563735	-0.557205	0.483710	-0.487061	-0.056152	-0.767334	0.079717	-0.008772	0.079820	0.861116	0.029891	-0.495217	0.111115	-6.580556	-59.262828	18.450986
07304		9.706156	-1.120729	7.106852	-1.077185	-0.651119	2.203472	-0.263062	-0.439141	0.356017	-0.485107	-0.053711	-0.771729	0.096925	-0.010941	0.071296	0.860177	0.028270	-0.496771	0.111867	-7.058540	-59.423171	18.851012
07305		10.557331	-0.417280	6.648105	-0.473394	0.277637	2.658376	0.049660	-0.096277	0.265484	-0.487305	-0.051514	-0.767334	0.105547	-0.004049	0.066531	0.859782	0.027878	-0.497195	0.113118	-7.297368	-59.458894	19.161405
07306		10.533903	-0.290846	6.351314	-0.246275	0.462256	2.480096	0.031176	0.123589	0.158298	-0.489502	-0.053955	-0.767334	0.105381	-0.002835	0.063448	0.860334	0.027689	-0.496084	0.113839	-7.350013	-59.305411	19.263301
07307		10.085908	-0.048103	6.734174	-0.817810	0.575185	2.273553	-0.032330	0.292467	-0.004053	-0.487061	-0.058350	-0.769531	0.100957	-0.000472	0.067194	0.861065	0.027393	-0.494844	0.113781	-7.328726	-59.139509	19.216966
07308		9.683961	0.256722	6.906565	-1.173538	0.779770	2.000877	-0.147202	0.307563	-0.161144	-0.476318	-0.046875	-0.776367	0.096948	0.002540	0.068915	0.862291	0.027172	-0.492969	0.112684	-7.144565	-58.902426	18.928175
07309		9.513889	0.223653	6.255474	-0.662507	0.820209	1.526769	-0.202260	0.300607	-0.288511	-0.482666	-0.058105	-0.776367	0.095236	0.002162	0.062409	0.863220	0.026842	-0.491746	0.110982	-6.954333	-58.751778	18.570397
07310		8.977309	0.302391	5.625143	-0.353471	0.889702	0.742361	-0.128927	0.377625	-0.382979	-0.476074	-0.053467	-0.780762	0.089885	0.002888	0.056080	0.864766	0.027291	-0.489456	0.108936	-6.528557	-58.482090	18.017136
07311		8.194184	0.529175	5.392664	-0.550178	1.001004	-0.055609	-0.098709	0.398585	-0.430536	-0.473633	-0.060059	-0.785156	0.082060	0.005142	0.053761	0.865986	0.027701	-0.487726	0.106886	-6.145919	-58.282337	17.501387
07312		7.548807	0.560238	5.211908	-0.669132	0.932254	-0.694281	-0.146878	0.391231	-0.439782	-0.469482	-0.053223	-0.780762	0.075602	0.005474	0.051967	0.867592	0.028301	-0.485350	0.104494	-5.667369	-58.004077	16.878886
07313		7.066865	0.479836	5.132969	-0.790498	0.777295	-1.135765	-0.159876	0.380881	-0.391076	-0.466797	-0.059814	-0.789551	0.070775	0.004701	0.051191	0.868740	0.028357	-0.483724	0.102463	-5.369872	-57.808403	16.419602
07314		6.761750	0.451732	5.176373	-0.925888	0.679769	-1.362794	-0.113152	0.347273	-0.322477	-0.464600	-0.059570	-0.791748	0.067714	0.004437	0.051644	0.870183	0.028935	-0.481480	0.100603	-4.972510	-57.540748	15.921039
07315		6.757308	0.583125	5.107608	-0.867445	0.809447	-1.405478	-0.073216	0.283379	-0.246678	-0.460205	-0.059570	-0.793945	0.067652	0.005767	0.050978	0.870999	0.029067	-0.480247	0.099394	-4.772075	-57.390970	15.633539
07316		6.854747	0.574884	4.909569	-0.607857	0.831408	-1.424533	-0.134531	0.266585	-0.182081	-0.460205	-0.059570	-0.796143	0.068618	0.005719	0.049000	0.872220	0.029348	-0.478289	0.098036	-4.502666	-57.150685	15.279380
07317		6.887178	0.381858	4.708417	-0.361271	0.678404	-1.496594	-0.222548	0.290416	-0.148000	-0.455811	-0.057129	-0.800537	0.068943	0.003820	0.046980	0.873018	0.028589	-0.477108	0.096901	-4.479519	-56.991433	15.099889
07318		6.742562	0.236836	4.655805	-0.323093	0.519897	-1.638336	-0.271234	0.310962	-0.140773	-0.453369	-0.059326	-0.798340	0.067500	0.002384	0.046450	0.874351	0.028240	-0.474993	0.095368	-4.307621	-56.720823	14.775736
07319		6.632809	0.222009	4.560888	-0.276052	0.511607	-1.781054	-0.278417	0.293031	-0.133935	-0.448975	-0.059082	-0.800537	0.066396	0.002239	0.045509	0.875148	0.027201	-0.473824	0.094163	-4.331697	-56.559175	14.613574
07320		6.565861	0.471548	4.553962	-0.314557	0.746093	-1.849283	-0.281395	0.278595	-0.125942	-0.451416	-0.054688	-0.807129	0.065725	0.004738	0.045441	0.876371	0.026806	-0.471886	0.092624	-4.180128	-56.310959	14.304296
07321		6.474639	0.568160	4.637376	-0.428925	0.827606	-1.882993	-0.320170	0.255475	-0.107676	-0.447021	-0.052246	-0.804932	0.064809	0.005721	0.046282	0.877064	0.025539	-0.470899	0.091431	-4.255394	-56.169501	14.174187
07322		6.523436	0.478067	4.505424	-0.242689	0.761999	-1.910597	-0.312707	0.187958	-0.092016	-0.447510	-0.045654	-0.811523	0.065279	0.004821	0.044985	0.878085	0.025100	-0.469306	0.089938	-4.132806	-55.965050	13.892832
07323		6.731056	0.352649	4.303227	0.071122	0.702129	-1.847062	-0.291663	0.132857	-0.096522	-0.434082	-0.045166	-0.809326	0.067341	0.003557	0.042982	0.878475	0.023987	-0.468841	0.088847	-4.210145	-55.893135	13.784470
07324		7.101272	0.200428	4.211222	0.401090	0.606854	-1.586299	-0.270996	0.096356	-0.117023	-0.440918	-0.041016	-0.813965	0.071034	0.002020	0.042075	0.879235	0.023863	-0.467693	0.087410	-4.055268	-55.750574	13.500466
07325		7.475269	0.285199	4.039702	0.738450	0.763000	-1.377482	-0.225833	0.069571	-0.133687	-0.440918	-0.043213	-0.811523	0.074769	0.002848	0.040368	0.879482	0.023152	-0.467469	0.086302	-4.068356	-55.716199	13.359734
07326		7.783322	0.422300	3.601819	1.263589	0.975489	-1.375667	-0.239869	0.057642	-0.149624	-0.434326	-0.038574	-0.816162	0.077847	0.004208	0.035991	0.880104	0.023344	-0.466571	0.084753	-3.857394	-55.610670	13.035938
07327		7.774483	0.412096	3.177888	1.615774	1.013437	-1.622840	-0.286806	0.113549	-0.162221	-0.432129	-0.036377	-0.816162	0.077766	0.004103	0.031729	0.880470	0.022412	-0.466172	0.083383	-3.879975	-55.551974	12.864096
07328		7.555347	0.446094	3.073587	1.595815	1.015967	-1.865966	-0.308957	0.153684	-0.185583	-0.432373	-0.033936	-0.813965	0.075581	0.004438	0.030671	0.881166	0.022362	-0.465171	0.081627	-3.691385	-55.430234	12.524718
07329		7.152055	0.563299	3.155753	1.301220	1.070397	-2.158340	-0.316679	0.172423	-0.198559	-0.432129	-0.036377	-0.813965	0.071553	0.005612	0.031487	0.881682	0.021358	-0.464516	0.080034	-3.699151	-55.338876	12.313649
07330		6.887754	0.617476	3.318185	1.029956	1.057423	-2.285815	-0.335392	0.126502	-0.199880	-0.434570	-0.034180	-0.816162	0.068905	0.006161	0.033128	0.882153	0.021242	-0.463972	0.078008	-3.513573	-55.275663	11.947168
07331		6.973784	0.504514	3.561209	0.905278	0.929114	-2.073978	-0.357257	0.015174	-0.186383	-0.430420	-0.029541	-0.816162	0.069745	0.005044	0.035598	0.882297	0.020092	-0.464022	0.076359	-3.563745	-55.273444	11.759113
07332		7.298964	0.149148	3.763907	0.974334	0.577117	-1.677472	-0.424571	-0.105929	-0.159644	-0.432617	-0.027344	-0.818359	0.072971	0.001513	0.037675	0.882161	0.019717	-0.464648	0.074197	-3.445480	-55.357476	11.423192
07333		7.925661	-0.177787	3.925968	1.225772	0.311754	-1.057050	-0.455748	-0.206709	-0.129750	-0.435303	-0.018555	-0.811523	0.079215	-0.001740	0.039346	0.881772	0.018085	-0.465713	0.072546	-3.609586	-55.480111	11.305296
07334		8.624551	-0.361239	4.485706	1.157759	0.135804	-0.154735	-0.356330	-0.217898	-0.094058	-0.433350	-0.014160	-0.816162	0.086195	-0.003573	0.044957	0.881225	0.017836	-0.467015	0.070863	-3.531293	-55.651209	11.059226
07335		8.904398	-0.521210	4.881016	0.991030	-0.028267	0.306666	-0.168540	-0.154969	-0.063620	-0.439941	-0.016602	-0.816162	0.089004	-0.005199	0.048884	0.880901	0.017296	-0.467750	0.070175	-3.582702	-55.741923	11.004467
07336		8.905302	-0.519444	5.015686	0.861041	-0.061873	0.384670	-0.016825	-0.096682	-0.021468	-0.433594	-0.007568	-0.807129	0.089028	-0.005200	0.050200	0.880503	0.018327	-0.468525	0.069729	-3.377353	-55.856197	10.846609
07337		8.728338	-0.352151	5.111969	0.651667	0.073050	0.287318	0.032655	-0.090591	0.002345	-0.442139	-0.018799	-0.813965	0.087260	-0.003529	0.051159	0.880288	0.018496	-0.468911	0.069808	-3.365307	-55.907735	10.854505
07338		8.713672	-0.288904	5.057887	0.656143	0.118258	0.244610	0.062556	-0.177570	-0.004416	-0.435791	-0.011963	-0.807129	0.087092	-0.002907	0.050655	0.879613	0.019547	-0.470174	0.069543	-3.185653	-56.084408	10.738024
07339		8.878581	-0.473930	5.121301	0.699965	-0.064179	0.423884	0.146854	-0.253979	-0.038809	-0.444824	-0.010010	-0.813965	0.088720	-0.004794	0.051322	0.879014	0.020370	-0.471234	0.069692	-3.080549	-56.230712	10.712557
07340		9.056611	-0.738916	5.623334	0.384677	-0.395705	0.859024	0.249102	-0.256918	-0.086943	-0.441895	-0.023193	-0.807129	0.090491	-0.007499	0.056340	0.878119	0.022431	-0.472830	0.069542	-2.735694	-56.462198	10.525107
07341		9.152525	-0.080947	6.880037	-0.715211	0.095509	1.614880	0.491426	-0.179837	-0.141292	-0.448486	-0.023438	-0.811768	0.091463	-0.001043	0.068880	0.877685	0.024982	-0.473430	0.070063	-2.339215	-56.568483	10.386993
07342		9.547839	1.245715	7.854158	-1.527888	1.263367	2.453931	0.524305	-0.188761	-0.197041	-0.447998	-0.034668	-0.804932	0.095416	0.012157	0.078664	0.877011	0.028516	-0.474472	0.070104	-1.724959	-56.744409	10.072120
07343		10.465155	1.940732	7.755732	-1.077245	1.992379	3.160630	0.258437	-0.244990	-0.261545	-0.450195	-0.034668	-0.802734	0.104582	0.019170	0.077710	0.876484	0.030353	-0.475416	0.069535	-1.354094	-56.888500	9.805551
07344		11.224383	1.050532	8.383376	-1.069373	1.036658	4.157031	0.010930	-0.018747	-0.356703	-0.452637	-0.030273	-0.802734	0.112254	0.010301	0.083845	0.876459	0.031999	-0.475650	0.067483	-0.851163	-56.939305	9.267129
07345		11.040998	-0.963809	9.982579	-2.165105	-1.215120	4.895123	0.164928	0.309824	-0.483308	-0.443359	-0.036621	-0.807129	0.110541	-0.009987	0.099646	0.877329	0.033764	-0.474155	0.065806	-0.330390	-56.764408	8.757629
07346		10.459368	-2.053161	10.693682	-2.859139	-2.536966	4.794045	0.428129	0.179463	-0.669236	-0.442871	-0.047852	-0.800537	0.104620	-0.021110	0.106798	0.877885	0.037826	-0.473140	0.063451	0.664373	-56.670551	7.909670
07347		10.579941	-2.837007	8.973634	-1.241924	-3.195040	3.926242	0.247628	-0.152666	-0.789361	-0.437988	-0.054199	-0.807129	0.105618	-0.028898	0.089781	0.877721	0.040824	-0.473576	0.060542	1.496788	-56.749231	7.083133
07348		9.803297	-3.071811	6.733313	0.237848	-3.295895	2.017686	0.379397	0.135030	-0.760936	-0.439697	-0.065430	-0.804932	0.097960	-0.031218	0.067208	0.878382	0.044322	-0.472355	0.057977	2.404992	-56.611214	6.257172
07349		7.626023	-1.524500	6.747189	-1.139610	-1.988793	0.224736	0.686376	0.506967	-0.639989	-0.432861	-0.067383	-0.811523	0.076381	-0.015720	0.067225	0.879602	0.048697	-0.469779	0.056899	3.328123	-56.302474	5.621003
07350		5.976398	-0.349938	7.207176	-2.537701	-1.051880	-0.855212	0.533809	0.320808	-0.456834	-0.432373	-0.076172	-0.811523	0.059871	-0.003828	0.071966	0.880567	0.051944	-0.467682	0.056360	3.980005	-56.048044	5.205351
07351		5.531696	-0.227419	7.095497	-2.695624	-0.984674	-1.282659	0.215450	-0.134895	-0.320029	-0.438965	-0.083252	-0.809326	0.055265	-0.002439	0.070990	0.880286	0.053676	-0.468128	0.055419	4.383173	-56.111392	4.867850
07352		6.334199	-0.655685	6.596468	-1.784537	-1.327552	-0.917844	0.124974	-0.426549	-0.281338	-0.440918	-0.085449	-0.809326	0.063192	-0.006687	0.066095	0.879694	0.054983	-0.469202	0.054456	4.711874	-56.252729	4.564906
07353		7.496468	-1.078149	6.516509	-1.051002	-1.715314	-0.026107	0.117910	-0.465155	-0.300498	-0.438965	-0.081055	-0.802734	0.074797	-0.010932	0.065333	0.878650	0.056330	-0.471128	0.053283	5.071054	-56.503196	4.214337
07354		8.729573	-1.213255	6.320150	-0.215896	-1.800276	0.880012	0.102831	-0.462196	-0.314064	-0.451904	-0.090332	-0.796143	0.087130	-0.012302	0.063397	0.878042	0.057391	-0.472258	0.052167	5.376285	-56.648324	3.900922
07355		9.837348	-1.062053	6.160101	0.457215	-1.624649	1.719849	0.099559	-0.411182	-0.256064	-0.453857	-0.094727	-0.796143	0.098233	-0.010777	0.061798	0.877108	0.058537	-0.473959	0.051159	5.690279	-56.868236	3.593365
07356		10.781434	-0.950892	6.286892	0.833578	-1.521078	2.583275	0.102919	-0.246453	-0.100821	-0.456299	-0.092773	-0.793945	0.107732	-0.009596	0.062997	0.876905	0.058850	-0.474329	0.050861	5.778724	-56.915760	3.504980
07357		10.927233	-0.993370	6.245139	0.937711	-1.564338	2.679970	0.174000	-0.053872	0.073621	-0.456055	-0.094971	-0.793945	0.109259	-0.009948	0.062472	0.876708	0.059450	-0.474540	0.051581	5.818397	-56.950373	3.576371
07358		10.384209	-0.650639	5.940201	0.860756	-1.182069	2.078608	0.262983	0.106945	0.199098	-0.453857	-0.094727	-0.798340	0.103880	-0.006481	0.059338	0.877129	0.059532	-0.473572	0.053200	5.669921	-56.835265	3.872037
07359		9.366019	-0.496891	5.740227	0.464997	-1.025159	1.125876	0.217083	0.206775	0.269023	-0.449707	-0.090332	-0.802734	0.093726	-0.004905	0.057300	0.877482	0.059791	-0.472684	0.054955	5.542117	-56.732131	4.173318
07360		8.542116	-0.609193	5.546664	0.221094	-1.106279	0.327902	0.161861	0.198623	0.303420	-0.456299	-0.092773	-0.796143	0.085485	-0.006007	0.055377	0.878082	0.059164	-0.471399	0.057055	5.219377	-56.574713	4.625151
07361		7.983173	-0.734336	5.354890	0.108178	-1.204304	-0.248010	0.141414	0.161261	0.313088	-0.456299	-0.090332	-0.802734	0.079886	-0.007256	0.053479	0.878330	0.059000	-0.470740	0.058811	5.017402	-56.498384	4.964240
07362		7.580061	-0.733547	5.202712	0.031857	-1.166240	-0.663783	0.128010	0.149571	0.303015	-0.449707	-0.090332	-0.800537	0.075851	-0.007254	0.051966	0.878774	0.058190	-0.469761	0.060790	4.677994	-56.377284	5.406198
07363		7.325687	-0.500137	5.059682	-0.015918	-0.908572	-0.941926	0.112213	0.163471	0.284797	-0.449707	-0.087891	-0.802734	0.073305	-0.004925	0.050534	0.879038	0.057963	-0.469089	0.062352	4.486604	-56.296754	5.713249
07364		7.181198	-0.286133	5.026646	-0.084728	-0.668538	-1.068290	0.080783	0.172836	0.262219	-0.452148	-0.088135	-0.802734	0.071859	-0.002787	0.050203	0.879540	0.056956	-0.468029	0.064142	4.134660	-56.161082	6.135418
07365		6.969751	-0.315591	4.830257	-0.024276	-0.661754	-1.352790	0.032934	0.161956	0.231425	-0.447510	-0.090088	-0.809326	0.069740	-0.003083	0.048246	0.879836	0.056506	-0.467370	0.065283	3.946544	-56.077682	6.384556
07366		6.861290	-0.240147	4.692436	0.032707	-0.543979	-1.514680	0.060574	0.145874	0.196609	-0.445313	-0.087891	-0.811523	0.068649	-0.002348	0.046874	0.880316	0.055594	-0.466371	0.066718	3.650241	-55.947629	6.728975
07367		6.717145	-0.423261	4.506601	0.143717	-0.693039	-1.743755	0.058942	0.101769	0.158437	-0.452148	-0.088135	-0.802734	0.067198	-0.004193	0.045031	0.880484	0.055448	-0.465946	0.067581	3.544379	-55.894983	6.897358
07368		6.776835	-0.707684	4.380510	0.338491	-0.928053	-1.772829	0.065277	0.034560	0.121373	-0.447510	-0.087891	-0.800537	0.067780	-0.007050	0.043791	0.880706	0.054755	-0.465451	0.068660	3.320298	-55.829503	7.156083
07369		6.799612	-0.784456	4.446549	0.312940	-1.009254	-1.719148	0.100091	0.010499	0.072893	-0.447510	-0.090088	-0.809326	0.068001	-0.007842	0.044458	0.880678	0.055020	-0.465390	0.069217	3.315373	-55.825813	7.231126
07370		6.919282	-0.794040	4.500195	0.341602	-1.006480	-1.589000	0.106927	-0.031983	0.023842	-0.445557	-0.085693	-0.807129	0.069187	-0.007956	0.045009	0.880715	0.054729	-0.465246	0.069939	3.195242	-55.807536	7.388466
07371		7.155596	-0.823787	4.424528	0.535876	-1.010989	-1.437225	0.072994	-0.096716	-0.016609	-0.447510	-0.090088	-0.807129	0.071534	-0.008260	0.044277	0.880476	0.055121	-0.465642	0.070009	3.255304	-55.862282	7.366197
07372		7.514485	-0.757953	4.127743	0.960292	-0.863672	-1.303155	0.068517	-0.135930	-0.040672	-0.447510	-0.087891	-0.802734	0.075115	-0.007609	0.041326	0.880300	0.054800	-0.465957	0.070377	3.159230	-55.901781	7.465190
07373		7.818058	-0.542119	3.938254	1.236482	-0.606356	-1.150748	0.082538	-0.103144	-0.043452	-0.453857	-0.094727	-0.802734	0.078159	-0.005454	0.039421	0.880052	0.055299	-0.466370	0.070350	3.247716	-55.959353	7.415179
07374		7.904762	-0.260161	3.855534	1.298966	-0.300857	-1.115546	0.083333	-0.016206	-0.026176	-0.453613	-0.101318	-0.804932	0.079044	-0.002628	0.038561	0.880057	0.054983	-0.466323	0.070844	3.143755	-55.952316	7.534480
07375		7.920870	-0.139578	3.797761	1.335174	-0.175401	-1.131144	0.094821	0.032427	0.010297	-0.449463	-0.096924	-0.802734	0.079215	-0.001410	0.037964	0.880103	0.055363	-0.466150	0.071119	3.187387	-55.934124	7.547105
07376		7.920063	-0.110713	3.692770	1.417811	-0.118296	-1.189926	0.099528	0.054562	0.035710	-0.451660	-0.096924	-0.800537	0.079211	-0.001111	0.036906	0.880208	0.054965	-0.465900	0.071761	3.056676	-55.900709	7.699529
07377		7.823121	-0.343176	3.618375	1.471903	-0.340417	-1.319793	0.073152	0.091357	0.056468	-0.453857	-0.094727	-0.798340	0.078249	-0.003423	0.036147	0.880380	0.055121	-0.465488	0.072205	3.046516	-55.850257	7.762271
07378		7.866741	-0.561196	3.555647	1.588051	-0.524939	-1.324713	0.074357	0.071087	0.063876	-0.445068	-0.092285	-0.802734	0.078682	-0.005600	0.035526	0.880401	0.054642	-0.465361	0.073120	2.873936	-55.832586	7.972475
07379		7.914421	-0.836284	3.472588	1.736875	-0.774389	-1.340386	0.059702	0.057990	0.061872	-0.449463	-0.096924	-0.798340	0.079157	-0.008349	0.034700	0.880496	0.054738	-0.465103	0.073548	2.853319	-55.801419	8.038624
07380		7.956387	-1.048360	3.481418	1.790050	-0.965113	-1.304591	0.077320	0.051469	0.062228	-0.447021	-0.096924	-0.798340	0.079576	-0.010472	0.034790	0.880427	0.054308	-0.465141	0.074453	2.688949	-55.805285	8.243384
07381		8.046923	-1.193399	3.584058	1.788627	-1.114693	-1.176663	0.109213	0.048296	0.060528	-0.447021	-0.101318	-0.804932	0.080481	-0.011929	0.035815	0.880485	0.054629	-0.464907	0.074987	2.698381	-55.779582	8.307513
07382		8.120860	-1.240194	3.709856	1.732948	-1.162345	-1.043690	0.157396	0.027386	0.057180	-0.447021	-0.096924	-0.800537	0.081217	-0.012408	0.037078	0.880296	0.054539	-0.465114	0.075989	2.583869	-55.808482	8.498771
07383		8.250940	-1.239102	3.709421	1.809353	-1.151634	-0.937262	0.222399	0.002957	0.066308	-0.442627	-0.096680	-0.800537	0.082514	-0.012405	0.037079	0.880215	0.055362	-0.465037	0.076799	2.655153	-55.808892	8.566591
07384		8.403397	-1.072894	3.791809	1.790029	-0.979253	-0.758249	0.288143	0.003411	0.063152	-0.453369	-0.103760	-0.793945	0.084038	-0.010757	0.037901	0.879884	0.055842	-0.465367	0.078229	2.600090	-55.860644	8.782858
07385		8.524241	-0.886171	4.191387	1.503477	-0.858382	-0.430873	0.271556	0.040411	0.071996	-0.451416	-0.101318	-0.800537	0.085254	-0.008888	0.041885	0.879871	0.056853	-0.465106	0.079190	2.693148	-55.839820	8.858346
07386		8.569434	-0.793286	4.705610	1.087931	-0.840527	-0.100984	0.236010	0.051075	0.069947	-0.442139	-0.105469	-0.793945	0.085709	-0.007958	0.047025	0.879575	0.057075	-0.465379	0.080703	2.584148	-55.881992	9.113945
07387		8.528504	-0.757997	4.901536	0.904740	-0.849006	-0.025164	0.224630	-0.005085	0.049121	-0.444336	-0.105713	-0.793945	0.085286	-0.007614	0.049009	0.879476	0.057951	-0.465330	0.081441	2.671366	-55.886809	9.164019
07388		8.678319	-0.774102	4.710905	1.131665	-0.812703	-0.006367	0.201382	-0.064412	0.002086	-0.448730	-0.107910	-0.791748	0.086768	-0.007788	0.047129	0.878946	0.058425	-0.466073	0.082560	2.638366	-55.991381	9.329438
07389		8.900270	-0.548199	4.760709	1.162231	-0.592912	0.211150	0.172036	-0.131392	-0.053476	-0.448730	-0.108154	-0.789551	0.088970	-0.005547	0.047661	0.878608	0.059360	-0.466569	0.082688	2.787512	-56.065812	9.268458
07390		9.253870	-0.407371	5.577982	0.636537	-0.568844	0.966234	-0.022496	-0.184466	-0.073081	-0.444092	-0.112305	-0.793945	0.092486	-0.004101	0.055866	0.877851	0.059093	-0.467961	0.083057	2.683514	-56.244416	9.375358
07391		9.687945	-0.502461	6.513242	0.110160	-0.794915	1.844369	-0.228494	-0.230956	-0.047143	-0.446533	-0.107910	-0.787354	0.096803	-0.004973	0.065250	0.877393	0.058296	-0.469061	0.082248	2.602104	-56.376224	9.315896
07392		10.338692	-0.733082	7.996245	-0.739832	-1.196891	3.202144	-0.431258	-0.151776	0.017445	-0.448975	-0.103516	-0.791748	0.103327	-0.007149	0.080056	0.876848	0.056080	-0.470404	0.081935	2.209309	-56.525848	9.488884
07393		10.987814	-0.826077	8.378033	-0.705629	-1.257926	3.954135	-0.410407	-0.076490	0.129166	-0.451660	-0.094727	-0.782959	0.109851	-0.008018	0.083839	0.876724	0.054009	-0.470949	0.081515	1.864529	-56.573170	9.620392
07394		12.184607	0.612738	8.405641	-0.393297	0.323386	4.993914	-0.166218	-0.049980	0.283319	-0.444824	-0.096924	-0.785156	0.121816	0.006370	0.084082	0.876263	0.052250	-0.471724	0.083125	1.370356	-56.656974	10.099317
07395		12.812281	2.451659	9.631828	-1.416223	2.054403	6.209488	-0.360166	0.218680	0.507960	-0.449707	-0.090332	-0.785156	0.128165	0.025015	0.096133	0.876653	0.049383	-0.471053	0.084559	0.719103	-56.538011	10.632302
07396		11.504085	2.013456	10.158850	-2.453676	1.552036	5.391530	-0.772169	0.496440	0.701699	-0.443848	-0.074463	-0.793945	0.115220	0.020930	0.101223	0.877467	0.044031	-0.469672	0.086730	-0.433344	-56.292387	11.521506
07397		9.844072	1.590419	8.962852	-2.260116	1.294098	3.339636	-0.613728	0.383917	0.690527	-0.441895	-0.067871	-0.800537	0.098556	0.016519	0.089389	0.878188	0.039551	-0.468408	0.088403	-1.370518	-56.067280	12.226372
07398		8.664244	2.298526	7.044309	-1.462772	2.263676	1.264765	-0.559867	0.181628	0.583609	-0.442383	-0.056641	-0.796143	0.086638	0.023435	0.070299	0.878381	0.035249	-0.468084	0.090012	-2.287583	-55.961101	12.917384
07399		7.210847	1.053828	6.119945	-1.259926	1.092826	-0.443694	-1.044727	0.160897	0.502595	-0.445313	-0.041260	-0.800537	0.072130	0.011039	0.061085	0.878696	0.029410	-0.467937	0.089803	-3.305034	-55.856022	13.423059
07400		6.078510	-1.194809	6.355271	-1.667331	-1.190024	-1.177387	-1.086277	0.002333	0.422874	-0.443604	-0.032227	-0.800537	0.060810	-0.011474	0.063615	0.878599	0.023235	-0.468547	0.089376	-4.384454	-55.841012	13.941253
07401		5.974113	-2.211814	6.982988	-2.091287	-2.205211	-0.862416	-0.717572	-0.261716	0.298363	-0.450439	-0.030273	-0.798340	0.059682	-0.021778	0.069987	0.877923	0.019497	-0.470057	0.088976	-5.066707	-55.977494	14.268180
07402		6.762067	-2.129164	7.104958	-1.827812	-1.971524	-0.142568	-0.365640	-0.430583	0.243001	-0.450928	-0.019287	-0.793945	0.067493	-0.021079	0.071234	0.876801	0.017044	-0.472152	0.089452	-5.631148	-56.203244	14.659161
07403		7.916618	-1.621447	7.158189	-1.387110	-1.288698	0.815415	-0.128396	-0.398053	0.236107	-0.457764	-0.017090	-0.800537	0.079043	-0.016075	0.071750	0.875759	0.016096	-0.473984	0.090152	-5.942747	-56.417746	14.944524
07404		9.249436	-0.848462	7.410216	-1.057439	-0.333750	2.017510	0.025917	-0.281793	0.233497	-0.466553	-0.019775	-0.793945	0.092400	-0.008386	0.074231	0.875005	0.015124	-0.475159	0.091445	-6.293396	-56.542888	15.319412
07405		10.486427	-0.288873	7.443617	-0.557217	0.408070	3.031725	0.027779	-0.201777	0.227019	-0.459961	-0.019531	-0.793945	0.104792	-0.002780	0.074542	0.874412	0.014789	-0.476058	0.092491	-6.495313	-56.644643	15.579261
07406		10.953644	0.148454	7.285058	-0.271112	0.961626	3.305169	-0.031095	0.031902	0.191186	-0.462402	-0.012939	-0.791748	0.109547	0.001601	0.072833	0.874377	0.013649	-0.475935	0.093613	-6.806246	-56.600204	15.889791
07407		10.375553	0.590225	7.241086	-0.601160	1.336559	2.768484	-0.079422	0.311997	0.096087	-0.458008	-0.012695	-0.798340	0.103865	0.005981	0.072247	0.875071	0.012916	-0.474628	0.093868	-6.904925	-56.417708	15.952198
07408		9.633176	0.636214	6.687754	-0.506283	1.363732	1.841181	-0.158116	0.364702	-0.018380	-0.453613	-0.010498	-0.796143	0.096454	0.006406	0.066697	0.875980	0.011543	-0.473034	0.093626	-7.056287	-56.190991	15.971786
07409		9.398313	0.024347	5.983085	0.096644	0.814960	1.298234	-0.219557	0.340807	-0.145237	-0.451416	-0.010254	-0.804932	0.094085	0.000241	0.059670	0.876856	0.010751	-0.471650	0.092492	-7.026979	-56.009091	15.783181
07410		8.877711	-0.488276	5.532721	0.317616	0.289506	0.650501	-0.175766	0.393215	-0.264013	-0.447021	-0.007813	-0.811768	0.088879	-0.004952	0.055157	0.877969	0.009899	-0.469888	0.090983	-6.957638	-55.781151	15.518497
07411		8.039458	-0.438322	5.505841	-0.081935	0.206231	-0.061282	-0.114598	0.409745	-0.310062	-0.449219	-0.010254	-0.807129	0.080500	-0.004476	0.054896	0.879066	0.009921	-0.468141	0.089376	-6.727943	-55.570976	15.158756
07412		7.292407	-0.349060	5.376633	-0.358446	0.195647	-0.754964	-0.101936	0.385730	-0.292382	-0.442139	-0.016602	-0.807129	0.073022	-0.003570	0.053627	0.880176	0.009292	-0.466387	0.087671	-6.607210	-55.349435	14.844485
07413		6.802811	-0.403427	5.173770	-0.419184	0.081933	-1.267140	-0.052130	0.351794	-0.234711	-0.442383	-0.014404	-0.813965	0.068114	-0.004101	0.051619	0.881091	0.009435	-0.464866	0.086536	-6.415931	-55.166210	14.572868
07414		6.632555	-0.177039	5.165882	-0.513385	0.278587	-1.424170	0.039577	0.308302	-0.186793	-0.435547	-0.016357	-0.816162	0.066403	-0.001843	0.051556	0.881918	0.009492	-0.463426	0.085831	-6.284944	-54.988504	14.390658
07415		6.642292	0.065886	5.285555	-0.617622	0.498901	-1.360998	0.045360	0.295871	-0.154494	-0.432861	-0.022949	-0.818359	0.066501	0.000596	0.052757	0.882657	0.009902	-0.462111	0.085271	-6.112375	-54.831391	14.208822
07416		6.733704	0.114541	5.349273	-0.598464	0.553960	-1.250823	-0.071126	0.269295	-0.149412	-0.433105	-0.020752	-0.818359	0.067410	0.001114	0.053402	0.883433	0.009384	-0.460821	0.084271	-6.063134	-54.665673	14.033918
07417		6.912415	0.182728	5.227861	-0.388293	0.656897	-1.177696	-0.143162	0.232002	-0.154152	-0.426270	-0.020508	-0.820557	0.069186	0.001811	0.052197	0.884029	0.008986	-0.459866	0.083274	-6.006751	-54.544588	13.861289
07418		7.049509	0.441758	4.844719	-0.017339	0.970433	-1.302696	-0.158323	0.216281	-0.169682	-0.424316	-0.013672	-0.820557	0.070551	0.004396	0.048367	0.884690	0.008230	-0.458839	0.081994	-5.985181	-54.410777	13.668959
07419		7.087844	0.699349	4.669660	0.127692	1.245038	-1.388563	-0.167736	0.240204	-0.164152	-0.428711	-0.016113	-0.822754	0.070940	0.006974	0.046606	0.885305	0.007742	-0.457855	0.080896	-5.935937	-54.285443	13.487133
07420		6.893817	0.703057	4.612097	0.088767	1.232934	-1.580896	-0.213714	0.254201	-0.141428	-0.422119	-0.015869	-0.833740	0.069002	0.007031	0.046026	0.886033	0.006621	-0.456698	0.079556	-5.969096	-54.130390	13.313537
07421		6.808212	0.543762	4.637365	0.063474	1.066929	-1.626713	-0.224448	0.223099	-0.110430	-0.419922	-0.015869	-0.827148	0.068137	0.005452	0.046292	0.886583	0.005765	-0.455812	0.078565	-5.997709	-54.011603	13.186896
07422		6.876919	0.297578	4.540008	0.237015	0.850885	-1.614393	-0.241559	0.168757	-0.064413	-0.420410	-0.004639	-0.831543	0.068808	0.003008	0.045338	0.887126	0.004292	-0.455007	0.077189	-6.101355	-53.896968	13.049663
07423		7.024432	0.152046	4.409698	0.459422	0.746293	-1.563860	-0.221358	0.148511	-0.024992	-0.420166	-0.009033	-0.831543	0.070277	0.001560	0.044043	0.887469	0.003283	-0.454448	0.076581	-6.201562	-53.815520	13.013408
07424		7.170409	0.116802	3.965423	0.919210	0.775910	-1.706764	-0.184886	0.123427	-0.002280	-0.417969	-0.006836	-0.831543	0.071729	0.001204	0.039609	0.887848	0.001895	-0.453875	0.075630	-6.335921	-53.729248	12.949758
07425		7.325951	0.296977	3.500629	1.366882	1.017238	-1.868570	-0.224679	0.102190	0.003136	-0.420410	-0.004639	-0.831543	0.073277	0.003010	0.034965	0.888072	0.000824	-0.453521	0.075139	-6.463858	-53.672398	12.945240
07426		7.174110	0.373810	3.091138	1.609578	1.111301	-2.240569	-0.274566	0.152074	-0.005193	-0.411621	0.000000	-0.838135	0.071765	0.003779	0.030852	0.888468	-0.000816	-0.452921	0.074077	-6.630519	-53.580317	12.882775
07427		7.008931	0.544198	2.999146	1.576254	1.272531	-2.443005	-0.262290	0.133211	-0.030938	-0.414063	0.002197	-0.831543	0.070110	0.005470	0.029938	0.888771	-0.001990	-0.452441	0.073348	-6.750797	-53.508067	12.841773
07428		6.941471	0.811455	3.050481	1.473026	1.530181	-2.488983	-0.269972	0.086112	-0.060863	-0.411865	0.004395	-0.833740	0.069430	0.008135	0.030464	0.889044	-0.003509	-0.452131	0.071878	-6.871475	-53.458283	12.707907
07429		6.859958	0.937637	3.197505	1.297837	1.641041	-2.478874	-0.294085	0.038564	-0.072181	-0.411865	0.004395	-0.831543	0.068609	0.009399	0.031948	0.889143	-0.004699	-0.452080	0.070895	-6.987099	-53.442690	12.638182
07430		6.913421	0.985147	3.335751	1.215569	1.691960	-2.359313	-0.328775	-0.015358	-0.068506	-0.412354	0.015625	-0.835938	0.069135	0.009883	0.033347	0.889129	-0.006225	-0.452316	0.069436	-7.128845	-53.462739	12.524572
07431		7.110252	0.752508	3.423684	1.284831	1.490655	-2.133448	-0.391595	-0.072472	-0.051215	-0.416748	0.013184	-0.833740	0.071092	0.007574	0.034248	0.888961	-0.007857	-0.452788	0.068328	-7.327253	-53.508888	12.488214
07432		7.597350	0.452398	3.927404	1.188881	1.242260	-1.422679	-0.429815	-0.100895	-0.036600	-0.408203	0.017822	-0.831543	0.075955	0.004595	0.039303	0.888704	-0.009942	-0.453493	0.066708	-7.566848	-53.582864	12.410404
07433		8.018788	-0.132964	4.843670	0.747968	0.690381	-0.499059	-0.324531	-0.090844	-0.020716	-0.417480	0.024170	-0.829346	0.080166	-0.001259	0.048475	0.888480	-0.011341	-0.454019	0.065888	-7.752874	-53.637223	12.406224
07434		8.388903	-0.586720	5.084049	0.802686	0.284225	-0.022876	-0.087941	-0.116081	-0.012566	-0.414795	0.020020	-0.827148	0.083859	-0.005850	0.050892	0.888176	-0.011794	-0.454689	0.065286	-7.801500	-53.721291	12.363692
07435		8.596066	-0.473960	5.285989	0.735904	0.413114	0.254409	0.083983	-0.105405	-0.008873	-0.421387	0.015381	-0.831543	0.085933	-0.004766	0.052903	0.887936	-0.011403	-0.455143	0.065446	-7.764567	-53.782935	12.373089
07436		8.413493	-0.313390	5.109404	0.741677	0.545311	-0.007402	0.172465	-0.147658	0.000175	-0.410645	0.026611	-0.829346	0.084097	-0.003178	0.051153	0.887538	-0.010579	-0.455915	0.065629	-7.666535	-53.890671	12.359437
07437		8.448415	-0.222303	5.185366	0.672251	0.624486	0.060062	0.247669	-0.250486	-0.007860	-0.419434	0.021973	-0.822754	0.084419	-0.002291	0.051957	0.886974	-0.009416	-0.456958	0.066175	-7.551634	-54.034650	12.388296
07438		8.717054	-0.597818	6.130240	0.070673	0.223092	0.858272	0.275354	-0.307264	-0.046048	-0.419189	0.015381	-0.820557	0.087075	-0.006083	0.061428	0.886238	-0.008066	-0.458385	0.066330	-7.383019	-54.233603	12.345243
07439		8.983114	-0.711096	7.678296	-1.052361	0.034375	1.979229	0.492067	-0.291036	-0.125657	-0.420898	0.006348	-0.820557	0.089715	-0.007356	0.076896	0.885622	-0.005540	-0.459527	0.066915	-7.038075	-54.409148	12.262952
07440		9.623843	0.285248	8.672900	-1.645337	0.976472	3.003614	0.656516	-0.334459	-0.243108	-0.429932	0.006104	-0.816162	0.096096	0.002451	0.086898	0.884881	-0.001836	-0.460932	0.067257	-6.473418	-54.636151	12.039377
07441		10.818331	1.252501	8.628076	-1.085534	2.003342	3.893383	0.340396	-0.369219	-0.361838	-0.427246	-0.000488	-0.816162	0.108046	0.012182	0.086501	0.884144	0.000589	-0.462465	0.066446	-6.026745	-54.870106	11.726506
07442		11.785849	0.523219	9.091776	-0.859887	1.295475	5.000229	-0.031592	-0.060738	-0.476596	-0.427246	-0.000488	-0.818359	0.117843	0.004966	0.090953	0.884094	0.001732	-0.462874	0.064200	-5.633398	-54.952037	11.237962
07443		11.544761	-1.473413	10.576867	-1.949823	-0.868161	5.768269	0.160624	0.375083	-0.570444	-0.429199	-0.007324	-0.813965	0.115603	-0.015149	0.105540	0.885132	0.003602	-0.461170	0.062055	-5.058064	-54.769668	10.642141
07444		10.760036	-3.272860	11.173997	-2.626059	-2.878399	5.554989	0.429027	0.213159	-0.692810	-0.422119	-0.013672	-0.818359	0.107605	-0.033341	0.111554	0.885787	0.007188	-0.460155	0.059894	-4.205698	-54.692292	9.912244
07445		10.949339	-4.072417	8.966090	-0.623249	-3.623025	4.447299	0.315456	-0.244906	-0.809989	-0.428467	-0.022705	-0.818359	0.109217	-0.041308	0.089730	0.885439	0.010482	-0.461125	0.057025	-3.389699	-54.864278	9.129768
07446		9.870691	-2.840758	6.276197	0.819743	-2.425294	1.948942	0.584657	0.124616	-0.764384	-0.418945	-0.031494	-0.816162	0.098636	-0.028968	0.062616	0.885897	0.014884	-0.460376	0.054947	-2.409262	-54.818042	8.347818
07447		7.353527	-0.744443	6.444529	-0.938585	-0.662281	-0.074103	0.745615	0.555184	-0.576157	-0.414063	-0.040039	-0.820557	0.073691	-0.007896	0.064212	0.887259	0.019321	-0.457675	0.054154	-1.508777	-54.512719	7.762800
07448		5.603589	0.424099	7.330201	-2.745529	0.215418	-0.996384	0.537867	0.305113	-0.385189	-0.416016	-0.049072	-0.820557	0.056155	0.003936	0.073227	0.888022	0.022563	-0.456102	0.053663	-0.872560	-54.338759	7.364132
07449		5.371703	0.637307	7.470896	-3.013312	0.352423	-1.102277	0.219084	-0.305956	-0.268567	-0.417969	-0.053467	-0.818359	0.053611	0.006219	0.074798	0.887363	0.024191	-0.457383	0.052938	-0.542234	-54.517247	7.107486
07450		6.408055	0.091617	6.620886	-1.701497	-0.068039	-0.756877	0.023213	-0.607858	-0.242705	-0.424805	-0.051514	-0.813965	0.063880	0.000831	0.066403	0.886062	0.025134	-0.459970	0.051857	-0.314962	-54.858357	6.862278
07451		7.799322	-0.568249	6.330586	-0.648483	-0.622814	0.208287	-0.085376	-0.552419	-0.263433	-0.428955	-0.056152	-0.811523	0.077810	-0.005758	0.063523	0.884861	0.025466	-0.462417	0.050426	-0.157315	-55.176802	6.605412
07452		9.069831	-0.929238	6.095369	0.254524	-0.899255	1.114579	-0.168655	-0.453087	-0.275896	-0.429199	-0.053955	-0.811523	0.090547	-0.009366	0.061167	0.883934	0.025596	-0.464353	0.048804	-0.007526	-55.427889	6.324383
07453		9.983300	-1.106761	6.204816	0.656700	-1.046935	1.928841	-0.151361	-0.287930	-0.233818	-0.433838	-0.049561	-0.811523	0.099731	-0.011137	0.062200	0.883335	0.025501	-0.465644	0.047384	0.093700	-55.594101	6.091689
07454		10.202956	-1.276191	6.655385	0.407206	-1.256770	2.364251	-0.071549	-0.099009	-0.124723	-0.437988	-0.054199	-0.809326	0.101989	-0.012802	0.066609	0.883184	0.025539	-0.466001	0.046653	0.165463	-55.640527	5.960220
07455		10.117733	-1.246220	6.676142	0.330448	-1.241841	2.305113	0.068211	-0.042327	-0.032899	-0.431152	-0.056152	-0.811523	0.101161	-0.012502	0.066779	0.883079	0.025888	-0.466180	0.046663	0.225052	-55.666044	5.930758
07456		9.824580	-0.859923	6.277441	0.455315	-0.846285	1.838260	0.143086	0.041461	0.034509	-0.436035	-0.052002	-0.818359	0.098260	-0.008627	0.062748	0.883180	0.026478	-0.465903	0.047191	0.283888	-55.634204	5.967376
07457		9.032210	-0.676952	6.059278	0.180546	-0.691891	1.061254	0.129258	0.137267	0.087104	-0.429199	-0.053955	-0.818359	0.090367	-0.006769	0.060526	0.883456	0.026776	-0.465289	0.047897	0.277420	-55.557128	6.060418
07458		8.241253	-0.674482	5.904411	-0.123161	-0.718472	0.321605	0.107095	0.086494	0.115732	-0.431152	-0.058350	-0.811523	0.082442	-0.006729	0.059005	0.883665	0.026893	-0.464810	0.048626	0.235259	-55.496180	6.175546
07459		7.854404	-0.648234	5.572377	-0.067291	-0.680601	-0.184837	0.114508	0.000849	0.124389	-0.440186	-0.054199	-0.813965	0.078548	-0.006465	0.055720	0.883616	0.027072	-0.464807	0.049444	0.190125	-55.497224	6.305379
07460		7.682468	-0.441474	5.273119	0.060076	-0.453359	-0.495400	0.105342	0.025978	0.124210	-0.429199	-0.051758	-0.816162	0.076834	-0.004395	0.052719	0.883647	0.027239	-0.464647	0.050285	0.142600	-55.477944	6.438948
07461		7.443145	-0.214995	5.177451	-0.016419	-0.228107	-0.746248	0.063391	0.111700	0.125779	-0.435547	-0.058594	-0.816162	0.074462	-0.002120	0.051732	0.883861	0.027162	-0.464167	0.051005	0.067114	-55.415355	6.570197
07462		7.186739	-0.109320	5.139319	-0.128760	-0.127221	-0.978607	0.030281	0.172971	0.119007	-0.431885	-0.042969	-0.820557	0.071912	-0.001058	0.051331	0.884262	0.026923	-0.463347	0.051629	-0.023246	-55.307672	6.695199
07463		6.933816	-0.182674	5.093354	-0.211793	-0.203457	-1.212271	0.015440	0.169035	0.104535	-0.431396	-0.053955	-0.816162	0.069382	-0.001794	0.050875	0.884619	0.026668	-0.462621	0.052152	-0.107543	-55.211997	6.804058
07464		6.745304	-0.449055	4.982493	-0.184268	-0.461825	-1.429444	0.035214	0.123514	0.080204	-0.427002	-0.051514	-0.818359	0.067486	-0.004472	0.049782	0.884908	0.026477	-0.462030	0.052583	-0.173430	-55.134144	6.891779
07465		6.709461	-0.768437	4.804954	-0.014162	-0.761187	-1.559485	0.066941	0.075164	0.045235	-0.429443	-0.049561	-0.811523	0.067114	-0.007685	0.048022	0.885056	0.026611	-0.461698	0.052950	-0.179048	-55.092221	6.940838
07466		6.796048	-1.129683	4.714457	0.157375	-1.104398	-1.539593	0.073851	0.031572	0.015501	-0.428711	-0.060547	-0.818359	0.067969	-0.011309	0.047130	0.885138	0.026804	-0.461497	0.053213	-0.166560	-55.067856	6.967645
07467		6.833593	-1.655311	4.594238	0.341977	-1.614367	-1.577279	0.070189	0.016132	-0.010682	-0.431152	-0.056152	-0.816162	0.068339	-0.016573	0.045931	0.885164	0.027098	-0.461418	0.053332	-0.124561	-55.059846	6.960902
07468		6.847516	-1.687259	4.592051	0.360340	-1.650844	-1.568471	0.155715	0.032227	-0.052790	-0.431152	-0.060547	-0.818359	0.068478	-0.016926	0.045896	0.885248	0.027869	-0.461188	0.053523	-0.002544	-55.036298	6.921179
07469		6.959270	-1.419199	4.573609	0.410104	-1.385808	-1.489539	0.160288	-0.009422	-0.070940	-0.426758	-0.058350	-0.822754	0.069585	-0.014253	0.045728	0.885218	0.028708	-0.461189	0.053579	0.140526	-55.042879	6.854164
07470		7.219340	-1.103194	4.385517	0.673441	-1.045601	-1.385241	0.143703	-0.051401	-0.069405	-0.435547	-0.058594	-0.822754	0.072178	-0.011089	0.043866	0.885122	0.029423	-0.461320	0.053636	0.260000	-55.065304	6.799981
07471		7.510151	-0.901952	4.217892	0.948008	-0.819386	-1.243185	0.132667	-0.051893	-0.052809	-0.428955	-0.056152	-0.818359	0.075088	-0.009067	0.042192	0.884992	0.030109	-0.461518	0.053703	0.372740	-55.096090	6.750733
07472		7.647336	-0.735037	4.092505	1.105195	-0.637755	-1.202088	0.142827	-0.040687	-0.022568	-0.435059	-0.067383	-0.813965	0.076464	-0.007388	0.040935	0.884889	0.030635	-0.461651	0.053961	0.440219	-55.117436	6.749483
07473		7.769521	-0.606629	3.862916	1.344242	-0.484135	-1.232815	0.157338	-0.019430	0.014545	-0.437744	-0.062988	-0.816162	0.077692	-0.006091	0.038632	0.884811	0.031266	-0.461709	0.054388	0.511658	-55.129871	6.767814
07474		7.728979	-0.547473	3.680043	1.463248	-0.409807	-1.370501	0.150596	0.036144	0.053362	-0.432861	-0.067383	-0.816162	0.077298	-0.005482	0.036782	0.884818	0.031733	-0.461578	0.055093	0.530703	-55.117084	6.848797
07475		7.611414	-0.542436	3.556741	1.501566	-0.398284	-1.538333	0.145014	0.080990	0.089268	-0.432861	-0.067383	-0.816162	0.076131	-0.005416	0.035533	0.884952	0.032110	-0.461206	0.055837	0.533057	-55.072465	6.942816
07476		7.516167	-0.662217	3.622684	1.415785	-0.525486	-1.580158	0.144832	0.087605	0.110348	-0.428223	-0.069580	-0.811523	0.075181	-0.006607	0.036189	0.885068	0.032391	-0.460850	0.056768	0.501213	-55.029251	7.078717
07477		7.545096	-0.847114	3.723039	1.381864	-0.713380	-1.500730	0.150785	0.065887	0.111167	-0.434814	-0.074219	-0.816162	0.075468	-0.008457	0.037199	0.885158	0.032748	-0.460546	0.057620	0.489405	-54.993392	7.194210
07478		7.642625	-1.048665	3.802625	1.403966	-0.910594	-1.376512	0.173348	0.042228	0.100088	-0.430664	-0.067383	-0.816162	0.076440	-0.010481	0.038001	0.885147	0.033246	-0.460408	0.058606	0.488227	-54.980161	7.322084
07479		7.828605	-1.343339	3.818273	1.541263	-1.190433	-1.217445	0.213136	0.011703	0.069539	-0.432861	-0.069580	-0.818359	0.078293	-0.013447	0.038164	0.885112	0.033991	-0.460318	0.059409	0.546807	-54.975201	7.395397
07480		8.040148	-1.516318	3.811484	1.692573	-1.347179	-1.049645	0.274435	-0.011443	0.036520	-0.425781	-0.076172	-0.813721	0.080402	-0.015201	0.038099	0.884974	0.034983	-0.460395	0.060288	0.639696	-54.994032	7.461441
07481		8.154254	-1.494007	3.926829	1.665020	-1.338652	-0.891948	0.339890	-0.007950	0.021251	-0.429932	-0.080566	-0.813965	0.081543	-0.014998	0.039246	0.884883	0.036405	-0.460344	0.061165	0.810556	-55.000167	7.486343
07482		8.161425	-1.056896	4.206088	1.385382	-0.950502	-0.724547	0.422645	0.015468	0.007298	-0.425537	-0.082764	-0.816162	0.081618	-0.010655	0.042032	0.884783	0.038197	-0.460235	0.062319	1.022018	-55.002485	7.525736
07483		8.176142	-0.600508	4.766781	0.877973	-0.584584	-0.388277	0.396488	-0.025392	0.008384	-0.427246	-0.091797	-0.811523	0.081756	-0.006096	0.047666	0.884639	0.039906	-0.460238	0.063266	1.236309	-55.018570	7.537309
07484		8.444049	-0.489213	5.046966	0.781545	-0.506295	-0.007282	0.334943	-0.135774	0.012809	-0.434082	-0.087402	-0.809326	0.084407	-0.004971	0.050519	0.884203	0.041376	-0.460812	0.064227	1.400035	-55.106565	7.578584
07485		8.802452	-0.522115	5.115169	0.923171	-0.536208	0.325406	0.257677	-0.156328	0.009203	-0.427734	-0.082764	-0.809326	0.087985	-0.005283	0.051214	0.883780	0.042511	-0.461435	0.064831	1.537158	-55.197678	7.587397
07486		9.096926	-0.388393	5.075758	1.086105	-0.386315	0.547783	0.205715	-0.121833	-0.000397	-0.442871	-0.092285	-0.804932	0.090938	-0.003936	0.050809	0.883377	0.043328	-0.462048	0.065417	1.619899	-55.284861	7.621962
07487		9.408269	-0.366119	4.832735	1.443120	-0.316934	0.666904	0.118545	-0.143254	0.002022	-0.440674	-0.089844	-0.802734	0.094048	-0.003689	0.048393	0.883014	0.043861	-0.462656	0.065671	1.683344	-55.368417	7.623445
07488		9.785451	-0.186004	4.835076	1.600836	-0.114119	0.985084	0.036717	-0.210723	0.005560	-0.440674	-0.092285	-0.796143	0.097804	-0.001866	0.048453	0.882363	0.044043	-0.463837	0.065969	1.672904	-55.523205	7.670823
07489		10.084062	-0.487015	5.900353	0.926855	-0.534334	1.831841	-0.159321	-0.179420	0.027014	-0.438477	-0.092041	-0.793945	0.100788	-0.004809	0.059098	0.881966	0.043304	-0.464701	0.065682	1.557114	-55.628041	7.696663
07490		10.268541	-0.957338	6.891197	0.265710	-1.104085	2.538763	-0.250279	-0.166582	0.070648	-0.436523	-0.085449	-0.802734	0.102631	-0.009451	0.069009	0.881454	0.042117	-0.465782	0.065666	1.331562	-55.757358	7.816562
07491		10.817913	-0.807623	7.019999	0.418059	-0.905961	3.070023	-0.203908	-0.148532	0.169810	-0.445313	-0.090088	-0.793945	0.108134	-0.007913	0.070288	0.881087	0.040840	-0.466554	0.065910	1.068144	-55.846248	7.990044
07492		11.375062	0.067734	7.050164	0.544160	0.040237	3.559055	-0.158317	-0.018190	0.333070	-0.445557	-0.081299	-0.793945	0.113743	0.000923	0.070511	0.880839	0.039351	-0.466959	0.067250	0.665869	-55.886140	8.378655
07493		11.415969	0.683650	8.350715	-0.589478	0.548025	4.325124	-0.295819	0.206048	0.508358	-0.434570	-0.076416	-0.798340	0.114228	0.007250	0.083379	0.881196	0.036761	-0.466265	0.068841	0.060237	-55.771759	8.902147
07494		10.643366	0.392005	9.841379	-2.177985	0.106810	4.523677	-0.470392	0.296494	0.648492	-0.435059	-0.067627	-0.798340	0.106565	0.004497	0.098246	0.881621	0.033018	-0.465437	0.070872	-0.786802	-55.624879	9.607064
07495		10.126379	0.697936	10.182365	-2.779375	0.437270	4.286744	-0.432171	0.142235	0.699557	-0.433105	-0.062988	-0.791748	0.101310	0.007554	0.101736	0.881759	0.029405	-0.465092	0.072975	-1.622730	-55.536836	10.316628
07496		10.021482	2.027557	8.771612	-1.908646	2.023567	3.368492	-0.430466	-0.011758	0.714362	-0.438232	-0.049805	-0.791748	0.100136	0.020822	0.087678	0.881434	0.025795	-0.465547	0.075332	-2.499113	-55.546393	11.086089
07497		8.905125	2.233510	6.912933	-1.054826	2.431393	1.370023	-0.729282	0.082719	0.706106	-0.436279	-0.043213	-0.807129	0.089000	0.022901	0.069010	0.881434	0.020876	-0.465560	0.076759	-3.507502	-55.479733	11.798974
07498		7.005946	0.888651	6.281276	-1.386838	1.063311	-0.524385	-0.937273	0.182057	0.615033	-0.439209	-0.029785	-0.802734	0.070088	0.009396	0.062706	0.881620	0.015096	-0.465326	0.077392	-4.582748	-55.367969	12.438841
07499		5.908584	-0.430780	6.735629	-2.174377	-0.326345	-1.116098	-0.801209	-0.013778	0.469991	-0.446533	-0.016846	-0.804932	0.059091	-0.003899	0.067377	0.881448	0.010446	-0.465746	0.077601	-5.437275	-55.354190	12.915900
07500		6.190719	-1.171329	7.157535	-2.288894	-0.986491	-0.608629	-0.589957	-0.333157	0.358236	-0.447021	-0.010254	-0.800537	0.061808	-0.011391	0.071712	0.880451	0.006892	-0.467662	0.077785	-6.150890	-55.545916	13.339102
07501		7.305427	-1.400426	7.030170	-1.586663	-1.007456	0.248173	-0.332589	-0.468719	0.307872	-0.451416	-0.008057	-0.796143	0.072911	-0.013775	0.070496	0.879232	0.004860	-0.469882	0.078350	-6.648449	-55.795105	13.707162
07502		8.405817	-1.049017	6.959123	-1.031497	-0.472004	1.091469	-0.072275	-0.370637	0.292246	-0.449463	-0.003662	-0.798340	0.083944	-0.010342	0.069751	0.878130	0.003734	-0.471761	0.079469	-7.030011	-56.009286	14.084135
07503		9.410473	-0.365225	7.124698	-0.758639	0.346037	1.966801	0.097882	-0.240016	0.275219	-0.453857	-0.005859	-0.796143	0.094024	-0.003558	0.071358	0.877440	0.003579	-0.472801	0.080907	-7.238687	-56.128276	14.399435
07504		10.144165	-0.271275	7.060278	-0.352730	0.569112	2.531413	0.036005	-0.152459	0.258552	-0.456055	-0.006104	-0.793945	0.101391	-0.002594	0.070680	0.876901	0.002909	-0.473596	0.082114	-7.508490	-56.209002	14.713280
07505		10.234587	-0.230841	7.015751	-0.282104	0.646485	2.577763	0.016428	0.060291	0.197163	-0.451660	-0.003662	-0.798340	0.102369	-0.002213	0.070126	0.876950	0.002457	-0.473350	0.083022	-7.666504	-56.162057	14.910877
07506		9.775871	0.157490	7.232441	-0.754038	0.966578	2.286806	0.030267	0.238301	0.106683	-0.454102	-0.003662	-0.802734	0.097844	0.001616	0.072208	0.877396	0.002032	-0.472424	0.083597	-7.757749	-56.031486	15.017410
07507		9.705048	0.085500	6.650699	-0.275610	0.943146	1.911712	-0.031256	0.190621	0.002273	-0.453857	-0.005859	-0.800537	0.097114	0.000866	0.066414	0.877832	0.001777	-0.471623	0.083539	-7.762930	-55.925410	14.998040
07508		9.698060	-0.348527	5.714174	0.579503	0.594425	1.418359	-0.038093	0.209733	-0.115558	-0.445068	-0.001221	-0.800537	0.097038	-0.003530	0.057041	0.878300	0.001609	-0.470854	0.082959	-7.704352	-55.829512	14.877841
07509		9.020672	-0.436152	5.368466	0.541788	0.428835	0.670900	0.002130	0.357059	-0.221846	-0.445068	-0.003418	-0.804932	0.090297	-0.004462	0.053523	0.879218	0.001959	-0.469306	0.081996	-7.485785	-55.645971	14.610760
07510		8.049724	-0.217922	5.585409	-0.159069	0.477538	-0.025511	0.019738	0.433582	-0.253486	-0.442383	-0.012207	-0.807129	0.080615	-0.002287	0.055679	0.880300	0.002197	-0.467470	0.080867	-7.262392	-55.424796	14.315795
07511		7.405703	-0.328371	5.641265	-0.503319	0.261730	-0.514613	-0.019152	0.372915	-0.221164	-0.433350	-0.011963	-0.800537	0.074158	-0.003360	0.056275	0.881246	0.002444	-0.465857	0.079857	-7.060511	-55.231111	14.052736
07512		7.039705	-0.407297	5.416635	-0.477628	0.141826	-0.934910	0.069606	0.342925	-0.152791	-0.440430	-0.007568	-0.809326	0.070487	-0.004146	0.054044	0.882054	0.002969	-0.464383	0.079497	-6.878066	-55.054151	13.887761
07513		6.901733	-0.176710	5.346474	-0.498457	0.347562	-1.101741	0.123559	0.347291	-0.089589	-0.437988	-0.009766	-0.811523	0.069109	-0.001831	0.053344	0.882880	0.003549	-0.462825	0.079398	-6.708364	-54.865230	13.762711
07514		6.830217	0.119183	5.243311	-0.469466	0.635365	-1.237478	0.060669	0.324003	-0.050929	-0.428711	-0.018311	-0.811523	0.068387	0.001159	0.052323	0.883571	0.003625	-0.461519	0.079310	-6.638299	-54.700665	13.694888
07515		6.856566	0.160877	5.093816	-0.313429	0.693527	-1.303512	-0.063373	0.276605	-0.033215	-0.426758	-0.011719	-0.816162	0.068636	0.001613	0.050843	0.884209	0.003277	-0.460347	0.079027	-6.629630	-54.548168	13.635377
07516		6.871741	0.056374	4.864243	-0.081920	0.616878	-1.416404	-0.115970	0.254389	-0.031651	-0.428955	-0.011719	-0.818359	0.068779	0.000581	0.048555	0.884784	0.002706	-0.459301	0.078699	-6.660653	-54.408709	13.592460
07517		6.891273	0.168200	4.684969	0.079619	0.750104	-1.512215	-0.094227	0.264587	-0.035218	-0.424805	-0.007080	-0.820557	0.068975	0.001692	0.046758	0.885392	0.002231	-0.458192	0.078335	-6.669584	-54.263233	13.532647
07518		6.880660	0.455010	4.580585	0.138357	1.045579	-1.601728	-0.042198	0.260452	-0.034298	-0.427002	-0.004883	-0.822754	0.068867	0.004548	0.045715	0.885972	0.001849	-0.457124	0.078027	-6.669193	-54.123987	13.476143
07519		6.821972	0.666793	4.572613	0.102194	1.252120	-1.669321	-0.061520	0.251659	0.003748	-0.422119	-0.013672	-0.818359	0.068277	0.006683	0.045638	0.886531	0.001434	-0.456060	0.077910	-6.691705	-53.983329	13.455975
07520		6.830933	0.673396	4.460499	0.214890	1.276649	-1.729674	-0.073122	0.243565	0.038798	-0.417725	-0.013428	-0.822754	0.068362	0.006764	0.044519	0.887019	0.000813	-0.455114	0.077895	-6.762754	-53.853994	13.475159
07521		6.865443	0.652584	4.465127	0.252307	1.270408	-1.699741	-0.068616	0.244655	0.067100	-0.413330	-0.011230	-0.827148	0.068707	0.006564	0.044565	0.887535	0.000225	-0.454083	0.078042	-6.839038	-53.713129	13.516483
07522		6.961421	0.538608	4.411768	0.384850	1.185949	-1.648096	-0.075071	0.240415	0.084223	-0.409180	-0.006592	-0.827148	0.069665	0.005432	0.044032	0.888043	-0.000383	-0.453048	0.078273	-6.925495	-53.570968	13.573422
07523		7.046378	0.481826	3.953514	0.825549	1.185349	-1.848564	-0.063471	0.174483	0.085457	-0.413574	-0.009033	-0.824951	0.070496	0.004861	0.039472	0.888390	-0.000962	-0.452325	0.078513	-7.018613	-53.468655	13.639523
07524		7.157498	0.527101	3.458758	1.292562	1.290257	-2.058003	-0.114793	0.142271	0.061749	-0.404541	-0.006348	-0.835938	0.071598	0.005313	0.034534	0.888683	-0.001723	-0.451750	0.078489	-7.124764	-53.384420	13.680218
07525		7.112878	0.623439	3.005797	1.626497	1.418823	-2.372394	-0.156933	0.127295	0.021257	-0.409180	-0.004395	-0.831543	0.071147	0.006266	0.030008	0.888947	-0.002554	-0.451273	0.078233	-7.226115	-53.313377	13.689968
07526		6.974353	0.843172	2.745490	1.735381	1.638781	-2.657752	-0.160757	0.110186	-0.028004	-0.409668	0.004639	-0.829346	0.069760	0.008444	0.027410	0.889242	-0.003349	-0.450794	0.077608	-7.289735	-53.245708	13.633380
07527		6.745668	1.021126	2.787755	1.552333	1.782035	-2.831790	-0.157051	0.085581	-0.071040	-0.409424	0.000000	-0.829346	0.067472	0.010209	0.027841	0.889445	-0.003957	-0.450501	0.076942	-7.324788	-53.204998	13.560275
07528		6.621879	1.131771	2.903335	1.378490	1.866742	-2.871896	-0.177681	0.029761	-0.108021	-0.400635	0.004883	-0.835938	0.066229	0.011308	0.029013	0.889521	-0.004701	-0.450524	0.075883	-7.360985	-53.205430	13.442219
07529		6.718992	1.099319	3.305376	1.117535	1.823185	-2.552799	-0.218078	-0.070461	-0.120612	-0.407471	0.004639	-0.833740	0.067185	0.010989	0.033065	0.889388	-0.005409	-0.450949	0.074861	-7.408740	-53.257108	13.341218
07530		7.133378	0.805046	3.690619	1.082095	1.566754	-1.968697	-0.261973	-0.165598	-0.123966	-0.412109	0.011230	-0.829346	0.071308	0.008055	0.036955	0.889090	-0.006469	-0.451758	0.073435	-7.494973	-53.355666	13.213242
07531		7.753858	0.405941	4.437996	0.877211	1.215833	-0.995935	-0.248733	-0.196295	-0.120480	-0.410156	0.013428	-0.829346	0.077497	0.004068	0.044451	0.888668	-0.007268	-0.452750	0.072348	-7.572873	-53.478868	13.128046
07532		8.256460	-0.044158	5.080821	0.686624	0.804100	-0.175895	-0.132374	-0.190078	-0.107071	-0.412109	0.008789	-0.827148	0.082516	-0.000452	0.050887	0.888244	-0.007843	-0.453741	0.071276	-7.613757	-53.605176	13.026284
07533		8.556697	-0.198501	5.048172	0.885897	0.685246	0.060817	0.064266	-0.205590	-0.087693	-0.414551	0.010986	-0.822754	0.085514	-0.002039	0.050569	0.887797	-0.007324	-0.454660	0.071046	-7.538320	-53.731214	12.973454
07534		8.555598	-0.000198	4.978722	0.897033	0.869747	0.006922	0.206232	-0.211157	-0.070120	-0.407471	0.006836	-0.822754	0.085503	-0.000083	0.049877	0.887312	-0.006328	-0.455623	0.071026	-7.400829	-53.868062	12.917148
07535		8.455542	0.048785	5.275611	0.571027	0.868917	0.099399	0.265523	-0.273802	-0.076138	-0.423096	0.006348	-0.816162	0.084483	0.000386	0.052872	0.886708	-0.004919	-0.456771	0.071306	-7.224834	-54.031881	12.882648
07536		8.543442	-0.408415	6.569192	-0.400584	0.326697	0.959690	0.311589	-0.309781	-0.121720	-0.416016	-0.002441	-0.820557	0.085330	-0.004239	0.065818	0.886009	-0.003276	-0.458136	0.071336	-6.993106	-54.228761	12.790387
07537		8.714192	-0.466359	8.378416	-1.791293	0.132502	2.150831	0.576519	-0.262086	-0.199709	-0.420166	-0.007080	-0.816162	0.087027	-0.004992	0.083884	0.885471	-0.000212	-0.459118	0.071780	-6.537517	-54.394056	12.631086
07538		9.314806	0.565681	9.921612	-2.859141	1.041320	3.463758	0.734308	-0.261269	-0.306133	-0.426758	-0.011719	-0.818359	0.093026	0.005150	0.099357	0.884962	0.003830	-0.460043	0.072027	-5.889972	-54.566943	12.346001
07539		10.500497	1.218038	10.006375	-2.379762	1.729656	4.442687	0.412336	-0.422436	-0.420452	-0.428467	-0.020508	-0.811523	0.104818	0.011753	0.100310	0.884114	0.006733	-0.461779	0.071111	-5.356908	-54.834147	11.977260
07540		12.125771	-0.430655	9.812276	-1.142009	0.221991	5.748367	0.017134	-0.381963	-0.542447	-0.432861	-0.025146	-0.807129	0.121058	-0.004643	0.098354	0.883373	0.008202	-0.463538	0.068679	-4.930171	-55.092855	11.463952
07541		12.295805	-3.440166	9.632478	-0.539753	-2.814178	5.922443	0.202241	-0.057076	-0.677169	-0.430420	-0.027344	-0.813965	0.122813	-0.034915	0.096325	0.883446	0.010643	-0.463716	0.066158	-4.271479	-55.159389	10.797237
07542		11.229256	-4.222845	8.208241	0.128141	-3.715065	4.240210	0.543422	-0.036756	-0.851630	-0.425293	-0.038330	-0.809326	0.112096	-0.042929	0.081987	0.883558	0.015131	-0.463724	0.063689	-3.249335	-55.223302	9.945624
07543		9.457881	-2.184444	6.494908	0.298097	-1.850767	1.715176	0.669696	0.162150	-0.828604	-0.425049	-0.044922	-0.809326	0.094539	-0.022453	0.064798	0.884121	0.019918	-0.462751	0.061596	-2.185418	-55.155953	9.112105
07544		7.205646	-0.045381	6.116740	-0.894872	0.002492	-0.403308	0.588865	0.387583	-0.647726	-0.424561	-0.056152	-0.809326	0.072172	-0.000867	0.061025	0.885156	0.023971	-0.460766	0.060161	-1.297195	-54.943302	8.450887
07545		5.852005	0.711593	6.878041	-2.348429	0.499128	-1.077972	0.442572	0.128714	-0.444684	-0.421875	-0.062500	-0.818359	0.058580	0.006834	0.068758	0.885516	0.026875	-0.460034	0.059231	-0.687163	-54.876962	8.010210
07546		5.895695	0.530983	7.119709	-2.502302	0.245254	-0.901487	0.321779	-0.402739	-0.343701	-0.428711	-0.060791	-0.802734	0.058822	0.005094	0.071324	0.884641	0.029368	-0.461659	0.058475	-0.203351	-55.108757	7.669589
07547		6.913111	0.115604	6.712233	-1.586214	-0.089311	-0.308266	0.163377	-0.696261	-0.314054	-0.432861	-0.067383	-0.807129	0.068899	0.000993	0.067363	0.883082	0.030979	-0.464667	0.057363	0.142081	-55.510791	7.358388
07548		8.294788	-0.473673	6.483406	-0.613645	-0.586023	0.691690	-0.043093	-0.691594	-0.292978	-0.441650	-0.072266	-0.802734	0.082716	-0.004844	0.065121	0.881518	0.031775	-0.467747	0.055948	0.376438	-55.915210	7.063294
07549		9.687246	-1.071956	6.199055	0.400174	-1.080226	1.680467	-0.123376	-0.611892	-0.252494	-0.450684	-0.070313	-0.791748	0.096669	-0.010803	0.062293	0.880159	0.031953	-0.470461	0.054451	0.517165	-56.267743	6.803686
07550		10.978087	-1.253870	5.943589	1.276427	-1.176788	2.613188	-0.047494	-0.501774	-0.182726	-0.446289	-0.065674	-0.793945	0.109620	-0.012625	0.059714	0.878929	0.032606	-0.472796	0.053703	0.679866	-56.575313	6.627062
07551		11.395679	-1.360900	5.995308	1.427229	-1.282846	2.992564	0.055602	-0.275955	-0.091174	-0.450439	-0.072510	-0.793945	0.113868	-0.013678	0.060106	0.878278	0.033101	-0.474005	0.053391	0.786423	-56.735975	6.532917
07552		10.633936	-1.666134	6.372346	0.720243	-1.687970	2.560485	0.105836	-0.010830	0.001264	-0.452637	-0.074707	-0.796143	0.106336	-0.016694	0.063720	0.878188	0.033704	-0.474088	0.053766	0.858781	-56.751584	6.543110
07553		9.820009	-1.513339	6.266937	0.349339	-1.579357	1.822641	0.186360	0.051953	0.081410	-0.454590	-0.081543	-0.796143	0.098223	-0.015152	0.062630	0.878244	0.034277	-0.473851	0.054576	0.886085	-56.725819	6.633490
07554		9.314086	-1.083979	5.840456	0.380635	-1.138957	1.168935	0.149746	0.087221	0.162113	-0.450439	-0.074707	-0.796143	0.093175	-0.010808	0.058356	0.878297	0.034890	-0.473547	0.055952	0.865658	-56.692366	6.823186
07555		8.723100	-0.867205	5.562944	0.270148	-0.917474	0.525402	0.066461	0.117396	0.225682	-0.452637	-0.074707	-0.796143	0.087273	-0.008592	0.055575	0.878485	0.034578	-0.473080	0.057123	0.698382	-56.630245	7.064503
07556		8.127556	-0.799018	5.552491	-0.048892	-0.872211	0.024110	0.038581	0.062173	0.257189	-0.448242	-0.072510	-0.793945	0.081303	-0.007896	0.055498	0.878483	0.034314	-0.472932	0.058529	0.513030	-56.609852	7.347111
07557		7.741745	-0.769170	5.382614	-0.122524	-0.832204	-0.389780	0.090294	-0.022177	0.260061	-0.450195	-0.076904	-0.785156	0.077421	-0.007615	0.053831	0.878324	0.034066	-0.473076	0.059883	0.331478	-56.627083	7.622099
07558		7.671207	-0.543626	5.208534	-0.052337	-0.583228	-0.542905	0.143196	-0.019525	0.236362	-0.448730	-0.065674	-0.793945	0.076713	-0.005383	0.052089	0.878094	0.034399	-0.473273	0.061489	0.230266	-56.656091	7.887118
07559		7.600407	-0.315382	5.036139	0.019164	-0.331265	-0.695766	0.141301	0.033642	0.221251	-0.459473	-0.072754	-0.791748	0.076016	-0.003105	0.050346	0.878066	0.034450	-0.473149	0.062803	0.111392	-56.640705	8.122095
07560		7.515905	0.030851	4.979923	-0.030186	0.020915	-0.796698	0.153332	0.059759	0.212462	-0.452881	-0.070313	-0.798340	0.075174	0.000350	0.049777	0.878014	0.034633	-0.473047	0.064166	0.011398	-56.629335	8.353466
07561		7.356696	-0.130923	4.775950	0.077122	-0.115922	-1.041802	0.097979	0.029041	0.226072	-0.452881	-0.072510	-0.798340	0.073575	-0.001249	0.047748	0.877978	0.034484	-0.472958	0.065398	-0.136173	-56.616182	8.593181
07562		7.215234	-0.355899	4.510725	0.251690	-0.306051	-1.305286	0.093064	0.027068	0.219560	-0.455078	-0.070313	-0.800537	0.072162	-0.003501	0.045096	0.877889	0.034455	-0.472944	0.066693	-0.269418	-56.613763	8.833853
07563		6.944100	-0.408696	4.449805	0.164126	-0.362438	-1.564657	0.103809	0.047795	0.194152	-0.450684	-0.068115	-0.798340	0.069456	-0.004043	0.044479	0.877903	0.034402	-0.472764	0.067801	-0.385484	-56.589425	9.039948
07564		6.664166	-0.491611	4.391210	0.074114	-0.453261	-1.829920	0.087825	0.036172	0.148546	-0.455078	-0.070313	-0.800537	0.066653	-0.004886	0.043898	0.877867	0.034441	-0.472696	0.068720	-0.467951	-56.580602	9.203905
07565		6.570783	-0.548727	4.311339	0.098455	-0.502969	-1.951310	0.070363	-0.009580	0.084371	-0.455322	-0.068115	-0.796143	0.065708	-0.005475	0.043115	0.877787	0.034520	-0.472760	0.069257	-0.508024	-56.589412	9.296066
07566		6.735117	-0.603864	4.115834	0.353159	-0.518450	-1.921361	0.076185	-0.049089	0.009176	-0.452881	-0.072510	-0.793945	0.067341	-0.006051	0.041173	0.877569	0.034867	-0.473099	0.069525	-0.477977	-56.636947	9.317086
07567		6.975484	-0.522558	4.041420	0.527967	-0.412304	-1.761926	0.099398	-0.076150	-0.043786	-0.457031	-0.074951	-0.793945	0.069738	-0.005261	0.040438	0.877371	0.035400	-0.473423	0.069557	-0.390420	-56.684600	9.276333
07568		7.358756	-0.453666	4.012303	0.741143	-0.316559	-1.457679	0.081487	-0.086999	-0.080964	-0.457275	-0.072754	-0.793945	0.073568	-0.004583	0.040153	0.877077	0.036135	-0.473914	0.069542	-0.264176	-56.755957	9.209526
07569		7.623765	-0.475024	3.764381	1.086268	-0.292064	-1.371555	0.070044	-0.089448	-0.083550	-0.454834	-0.074951	-0.785156	0.076219	-0.004795	0.037676	0.876865	0.036638	-0.474299	0.069328	-0.158120	-56.811334	9.126707
07570		7.842326	-0.422283	3.387269	1.499659	-0.182130	-1.394147	0.103768	-0.059595	-0.069798	-0.454834	-0.077148	-0.789551	0.078412	-0.004268	0.033894	0.876615	0.037363	-0.474700	0.069357	-0.035808	-56.870813	9.066918
07571		7.860880	-0.430968	3.199941	1.664888	-0.173188	-1.481005	0.152107	0.008819	-0.050579	-0.452637	-0.074707	-0.793945	0.078609	-0.004354	0.031993	0.876608	0.038114	-0.474633	0.069500	0.088941	-56.869834	9.018067
07572		7.801478	-0.499357	3.165496	1.673387	-0.249223	-1.550094	0.179149	0.027427	-0.030606	-0.452881	-0.070313	-0.789551	0.078018	-0.005034	0.031640	0.876578	0.039028	-0.474555	0.069892	0.218763	-56.869158	8.999020
07573		7.808281	-0.727937	3.146532	1.731650	-0.478004	-1.556011	0.151550	0.003065	-0.016751	-0.457031	-0.077148	-0.791748	0.078083	-0.007310	0.031459	0.876544	0.039699	-0.474520	0.070182	0.313586	-56.871513	8.985580
07574		7.888941	-0.920139	3.158193	1.794073	-0.667680	-1.482518	0.136303	-0.022500	-0.024080	-0.458984	-0.083984	-0.782959	0.078885	-0.009232	0.031585	0.876390	0.040220	-0.474739	0.070324	0.390960	-56.905324	8.963603
07575		7.979728	-1.026143	3.383151	1.673945	-0.801973	-1.284529	0.154720	-0.019042	-0.029352	-0.456787	-0.083984	-0.787354	0.079793	-0.010299	0.033831	0.876306	0.040942	-0.474797	0.070561	0.498806	-56.920350	8.936761
07576		8.027398	-1.107015	3.531451	1.586594	-0.907828	-1.164318	0.172335	-0.025053	-0.047127	-0.454346	-0.085938	-0.782959	0.080267	-0.011119	0.035315	0.876070	0.042008	-0.475082	0.070958	0.649946	-56.968455	8.908504
07577		8.273014	-1.082485	3.799288	1.492927	-0.911908	-0.813315	0.229564	-0.047999	-0.053568	-0.451904	-0.088135	-0.787354	0.082718	-0.010891	0.038000	0.875907	0.043127	-0.475235	0.071260	0.822680	-56.999973	8.855552
07578		8.611975	-0.956477	4.018845	1.469262	-0.806134	-0.409311	0.261801	-0.063312	-0.061823	-0.456299	-0.090576	-0.785156	0.086104	-0.009644	0.040203	0.875618	0.044611	-0.475552	0.071791	1.037236	-57.056594	8.810368
07579		8.863971	-0.642716	4.480726	1.170333	-0.559165	0.055321	0.248932	-0.005206	-0.057175	-0.456299	-0.092773	-0.780762	0.088637	-0.006508	0.044801	0.875551	0.045808	-0.475509	0.072133	1.224114	-57.063431	8.753935
07580		8.901658	-0.619242	5.120894	0.657005	-0.641681	0.434415	0.116857	0.022723	-0.036444	-0.454102	-0.092773	-0.787354	0.089021	-0.006239	0.051195	0.875455	0.046563	-0.475566	0.072443	1.330981	-57.078880	8.736945
07581		9.035318	-1.157473	5.013460	0.908221	-1.149643	0.481241	-0.000467	-0.053770	-0.013331	-0.458252	-0.094971	-0.778564	0.090339	-0.011581	0.050159	0.875312	0.046583	-0.475836	0.072374	1.337399	-57.114123	8.725387
07582		9.309197	-1.441875	4.763731	1.297122	-1.373775	0.573047	0.031459	-0.127723	-0.008692	-0.456055	-0.094971	-0.780762	0.093061	-0.014430	0.047694	0.874872	0.046940	-0.476581	0.072564	1.372147	-57.214891	8.734462
07583		9.588911	-1.331260	4.935077	1.269165	-1.271843	0.903938	0.024406	-0.189588	0.001006	-0.451660	-0.094971	-0.778564	0.095842	-0.013318	0.049440	0.874394	0.047084	-0.477440	0.072585	1.383196	-57.328226	8.734466
07584		9.857183	-1.401659	5.902134	0.597274	-1.465730	1.652858	-0.150197	-0.209370	0.030273	-0.458496	-0.092773	-0.776123	0.098512	-0.013957	0.059135	0.873816	0.046609	-0.478553	0.072526	1.283004	-57.468405	8.785770
07585		10.083951	-1.434967	7.347891	-0.508800	-1.680985	2.623226	-0.326804	-0.226162	0.076896	-0.460938	-0.086182	-0.776367	0.100762	-0.014191	0.073616	0.873302	0.045052	-0.479715	0.072029	1.024617	-57.603621	8.866732
07586		10.453098	-1.502792	8.475921	-1.284007	-1.847587	3.540375	-0.434117	-0.203924	0.164198	-0.463379	-0.082031	-0.771729	0.104457	-0.014758	0.084898	0.872726	0.042867	-0.481004	0.071744	0.623101	-57.749184	9.055478
07587		11.455878	-0.633134	8.822285	-1.230297	-0.907032	4.579465	-0.204258	-0.218113	0.315709	-0.463623	-0.079834	-0.773926	0.114472	-0.006060	0.088354	0.872109	0.041267	-0.482135	0.072586	0.214067	-57.880319	9.397224
07588		12.570409	1.203199	9.490743	-1.546348	0.965927	5.878470	-0.077935	-0.023109	0.522131	-0.465820	-0.082031	-0.771729	0.125661	0.012397	0.094917	0.871755	0.039637	-0.482588	0.074699	-0.322475	-57.921324	9.973607
07589		12.561294	2.521158	9.699057	-1.948677	2.333236	5.966139	-0.286248	0.271353	0.732655	-0.461670	-0.072998	-0.776367	0.125651	0.025810	0.096783	0.872164	0.036494	-0.481694	0.077257	-1.157127	-57.765355	10.762541
07590		11.101450	3.301428	8.716904	-2.002158	3.220311	4.178210	-0.431044	0.497412	0.809895	-0.458008	-0.055176	-0.780762	0.111095	0.033651	0.086821	0.873001	0.032636	-0.479997	0.080047	-2.117884	-57.490272	11.639594
07591		8.736672	2.913792	7.179886	-1.854061	2.918322	1.341448	-0.648814	0.596893	0.763507	-0.451904	-0.045898	-0.787354	0.087468	0.029704	0.071442	0.874197	0.027707	-0.477808	0.081922	-3.152344	-57.133450	12.423878
07592		6.634270	1.021347	6.255014	-1.841542	1.047372	-0.885618	-0.955753	0.438903	0.657943	-0.459229	-0.035156	-0.789551	0.066445	0.010730	0.062354	0.875082	0.021370	-0.476455	0.082248	-4.298984	-56.865576	13.067146
07593		5.850222	-0.844513	6.692633	-2.309772	-0.839481	-1.228447	-0.916409	0.076659	0.487698	-0.455078	-0.028320	-0.787354	0.058548	-0.007996	0.066941	0.875128	0.016140	-0.476583	0.082209	-5.251136	-56.803397	13.574088
07594		6.254110	-1.475720	7.579335	-2.762574	-1.421945	-0.374269	-0.654660	-0.236159	0.341278	-0.457764	-0.014893	-0.787354	0.062476	-0.014402	0.075915	0.874386	0.012222	-0.478120	0.081858	-5.987844	-56.942505	13.945988
07595		7.491814	-1.435450	7.657332	-2.225446	-1.170867	0.699143	-0.404562	-0.413800	0.308421	-0.462646	-0.008545	-0.776367	0.074781	-0.014084	0.076757	0.873268	0.009858	-0.480152	0.082218	-6.537563	-57.163790	14.321499
07596		8.883651	-1.117473	7.332919	-1.331990	-0.592099	1.668367	-0.137819	-0.420359	0.339394	-0.465088	-0.006348	-0.778564	0.088701	-0.010974	0.073523	0.872043	0.008009	-0.482299	0.082855	-7.032369	-57.404820	14.708916
07597		9.920128	-0.915494	7.127248	-0.695510	-0.201023	2.415167	0.000976	-0.269075	0.337000	-0.467041	-0.008545	-0.782959	0.099121	-0.008988	0.071406	0.871229	0.007284	-0.483527	0.084320	-7.369953	-57.538532	15.106474
07598		10.426501	-0.777067	7.148766	-0.499507	0.039575	2.843120	0.015617	-0.023658	0.300856	-0.467285	-0.004150	-0.778564	0.104268	-0.007619	0.071499	0.870976	0.006154	-0.483822	0.085321	-7.694159	-57.548379	15.419532
07599		10.318471	-0.431978	7.466858	-0.868318	0.360930	2.896643	0.019622	0.219192	0.184610	-0.458496	-0.003906	-0.785156	0.103270	-0.004232	0.074555	0.871401	0.005670	-0.482908	0.086183	-7.828508	-57.414683	15.588550
07600		10.121427	0.190229	7.297687	-0.897919	0.981680	2.595603	0.051576	0.275446	0.029452	-0.467285	-0.006348	-0.782959	0.101314	0.001898	0.072838	0.872035	0.005206	-0.481785	0.086086	-7.851050	-57.263136	15.566577
07601		10.249093	0.276834	6.289459	0.032599	1.177335	2.157717	0.005035	0.243421	-0.120235	-0.467041	-0.013184	-0.785156	0.102569	0.002705	0.062770	0.872648	0.005383	-0.480762	0.085584	-7.720926	-57.139341	15.411398
07602		9.962724	0.383340	5.322718	0.709055	1.318382	1.389681	0.012368	0.368123	-0.251116	-0.460693	-0.006104	-0.791748	0.099730	0.003705	0.053044	0.873518	0.005732	-0.479366	0.084508	-7.486156	-56.975543	15.118337
07603		8.817307	0.432982	5.197370	0.255069	1.197843	0.358095	-0.037729	0.541554	-0.329643	-0.457764	-0.017334	-0.789551	0.088320	0.004194	0.051734	0.874928	0.006098	-0.477049	0.082997	-7.168536	-56.697086	14.709217
07604		7.526009	0.128527	5.234540	-0.360548	0.700370	-0.678305	-0.078082	0.589584	-0.348683	-0.448975	-0.012451	-0.796143	0.075416	0.001174	0.052123	0.876400	0.006174	-0.474642	0.081237	-6.881071	-56.403570	14.284735
07605		6.678656	0.129918	5.238973	-0.768123	0.573667	-1.377708	-0.046187	0.518317	-0.310816	-0.448730	-0.019043	-0.802734	0.066924	0.001207	0.052216	0.877729	0.006468	-0.472423	0.079786	-6.598369	-56.134864	13.909040
07606		6.356382	0.088560	5.134273	-0.811133	0.490645	-1.696442	-0.042381	0.396219	-0.228790	-0.444580	-0.012207	-0.807129	0.063666	0.000824	0.051216	0.878716	0.006568	-0.470771	0.078676	-6.409472	-55.932898	13.638361
07607		6.231153	-0.141918	5.045917	-0.745006	0.248532	-1.831971	-0.029717	0.290107	-0.155137	-0.437744	-0.014404	-0.800537	0.062384	-0.001460	0.050369	0.879435	0.006657	-0.469549	0.077938	-6.276967	-55.782886	13.453699
07608		6.414308	-0.267402	4.963866	-0.539373	0.152981	-1.716981	0.026278	0.206777	-0.105385	-0.437744	-0.014160	-0.804932	0.064193	-0.002714	0.049572	0.879952	0.006676	-0.468675	0.077354	-6.185629	-55.675387	13.316364
07609		6.822792	-0.264626	4.771234	-0.143063	0.220643	-1.487063	0.014208	0.135477	-0.074165	-0.437500	-0.018799	-0.804932	0.068259	-0.002675	0.047666	0.880273	0.006828	-0.468117	0.077070	-6.111403	-55.608148	13.232232
07610		7.074512	-0.272341	4.494691	0.234971	0.267605	-1.434244	-0.027773	0.136729	-0.059193	-0.433105	-0.016357	-0.807129	0.070775	-0.002738	0.044899	0.880602	0.006641	-0.467566	0.076667	-6.086536	-55.537634	13.158551
07611		7.126043	-0.096249	4.160859	0.526851	0.475267	-1.590825	-0.012331	0.212548	-0.058412	-0.437500	-0.020996	-0.811523	0.071304	-0.000981	0.041533	0.881096	0.006609	-0.466679	0.076393	-6.034413	-55.425464	13.082589
07612		6.914637	0.182825	4.104571	0.436379	0.728075	-1.814402	0.021175	0.264082	-0.051348	-0.430664	-0.020752	-0.813965	0.069201	0.001806	0.040955	0.881726	0.006640	-0.465521	0.076194	-5.968900	-55.279020	13.005593
07613		6.602522	0.455698	4.074534	0.269092	0.959950	-2.104975	0.015564	0.247637	-0.030538	-0.428711	-0.016113	-0.804932	0.066076	0.004544	0.040664	0.882288	0.006653	-0.464468	0.076109	-5.921629	-55.145104	12.954741
07614		6.464474	0.530545	4.019564	0.243333	1.022327	-2.254684	0.018447	0.184363	0.001559	-0.430664	-0.020752	-0.813965	0.064682	0.005302	0.040137	0.882717	0.006562	-0.463653	0.076111	-5.909318	-55.039598	12.936934
07615		6.568202	0.568867	4.003313	0.320219	1.077263	-2.181936	0.006355	0.133178	0.024542	-0.430908	-0.018555	-0.809326	0.065708	0.005695	0.039990	0.882992	0.006450	-0.463110	0.076244	-5.922260	-54.967628	12.952995
07616		6.642283	0.558115	3.829699	0.512873	1.093647	-2.220658	0.019341	0.116467	0.038277	-0.424316	-0.013672	-0.816162	0.066444	0.005590	0.038259	0.883209	0.006373	-0.462658	0.076474	-5.941061	-54.907212	12.986057
07617		6.806365	0.478465	3.376543	0.990436	1.077054	-2.341706	-0.034083	0.036802	0.033204	-0.428711	-0.016113	-0.813965	0.068069	0.004802	0.033752	0.883258	0.006099	-0.462556	0.076548	-5.992228	-54.889662	13.020539
07618		6.980814	0.539179	2.891076	1.478296	1.203717	-2.481487	-0.102962	0.025900	0.006925	-0.428955	-0.013916	-0.811523	0.069812	0.005409	0.028899	0.883331	0.005385	-0.462494	0.076134	-6.076636	-54.874184	13.009183
07619		6.956082	0.738623	2.679286	1.610671	1.417320	-2.635769	-0.118669	0.018565	-0.034529	-0.422119	-0.013672	-0.816162	0.069565	0.007390	0.026782	0.883366	0.004901	-0.462502	0.075712	-6.122993	-54.871077	12.978471
07620		6.859631	1.055969	2.652362	1.535971	1.720567	-2.749751	-0.112932	-0.028442	-0.074814	-0.422119	-0.013672	-0.820557	0.068596	0.010549	0.026527	0.883336	0.004394	-0.462689	0.074944	-6.147603	-54.892975	12.894158
07621		6.771424	1.411222	2.802257	1.313593	2.047114	-2.757181	-0.129689	-0.065799	-0.082684	-0.424316	-0.013916	-0.809326	0.067711	0.014102	0.028036	0.883193	0.004004	-0.463073	0.074283	-6.168620	-54.940883	12.824726
07622		6.889466	1.384843	3.337133	0.941816	1.995163	-2.352708	-0.201422	-0.154162	-0.069087	-0.426514	-0.013916	-0.809326	0.068874	0.013858	0.033410	0.882896	0.003185	-0.463795	0.073342	-6.250705	-55.028030	12.755534
07623		7.375037	1.082583	3.841440	0.823746	1.724031	-1.647583	-0.299641	-0.303388	-0.042667	-0.431396	-0.007568	-0.798340	0.073694	0.010868	0.038510	0.882186	0.002039	-0.465288	0.072459	-6.423153	-55.208772	12.752132
07624		8.320261	0.590126	4.720112	0.661388	1.300573	-0.340338	-0.301889	-0.374302	-0.017473	-0.436035	-0.003174	-0.804932	0.083115	0.005965	0.047348	0.881271	0.000842	-0.467146	0.071655	-6.625926	-55.435301	12.780949
07625		9.096366	-0.090500	5.174931	0.767096	0.699689	0.601432	-0.157112	-0.318079	-0.006459	-0.433838	-0.005371	-0.804932	0.090881	-0.000867	0.051895	0.880505	0.000244	-0.468649	0.071263	-6.749756	-55.622025	12.817620
07626		9.561490	-0.457895	5.340462	0.900250	0.382092	1.104995	0.054453	-0.259230	-0.011081	-0.436279	0.001221	-0.793945	0.095545	-0.004599	0.053527	0.879872	0.000447	-0.469848	0.071188	-6.750714	-55.779186	12.826846
07627		9.599697	-0.330971	5.192871	1.000561	0.510459	1.048614	0.221512	-0.242028	-0.036826	-0.440430	-0.007813	-0.798340	0.095933	-0.003385	0.052041	0.879290	0.001559	-0.470879	0.071551	-6.625090	-55.924666	12.824026
07628		9.292781	-0.166326	5.108246	0.856924	0.622420	0.739839	0.249656	-0.226060	-0.070078	-0.440186	-0.010010	-0.793945	0.092869	-0.001760	0.051185	0.878727	0.002737	-0.471901	0.071694	-6.465941	-56.071786	12.774501
07629		8.710601	-0.824206	5.822280	0.013147	-0.173494	0.695524	0.172575	-0.183784	-0.107022	-0.442627	-0.005615	-0.798340	0.087048	-0.008339	0.058296	0.878304	0.003778	-0.472691	0.071633	-6.302205	-56.188593	12.691944
07630		8.176945	-1.308391	7.243726	-1.407474	-0.854723	1.065464	0.401015	-0.146129	-0.168084	-0.441895	-0.021240	-0.796143	0.081705	-0.013298	0.072470	0.877972	0.005827	-0.473277	0.071695	-5.960870	-56.292688	12.527876
07631		8.405698	0.506034	9.034532	-3.019698	0.754201	2.139143	0.874582	-0.197836	-0.287717	-0.448242	-0.028076	-0.793945	0.083974	0.004544	0.090449	0.877547	0.010382	-0.473864	0.072499	-5.238338	-56.426982	12.257402
07632		9.332456	2.460730	9.462961	-3.173492	2.653883	3.055197	0.603462	-0.380656	-0.377827	-0.446045	-0.030273	-0.791748	0.093190	0.024145	0.094880	0.876691	0.014218	-0.475363	0.072394	-4.582806	-56.673345	11.913437
07633		10.626133	2.148509	8.818234	-1.940179	2.474552	3.803624	0.082366	-0.358985	-0.423488	-0.452393	-0.037109	-0.785156	0.106148	0.021224	0.088382	0.875957	0.015680	-0.476921	0.070711	-4.198475	-56.902485	11.506035
07634		11.193905	-0.239084	9.490388	-1.880611	0.051750	4.743703	0.055879	0.028853	-0.455885	-0.445801	-0.034668	-0.791748	0.111947	-0.002673	0.094887	0.876132	0.017079	-0.476815	0.068912	-3.759245	-56.914698	11.032696
07635		10.574329	-2.466678	9.446770	-1.858719	-2.287577	4.274676	0.325839	0.033180	-0.604179	-0.452148	-0.041504	-0.785156	0.105683	-0.025140	0.094409	0.876362	0.019899	-0.476549	0.067048	-3.048570	-56.921835	10.402910
07636		10.303851	-2.189066	7.247011	-0.217955	-1.923026	2.825901	0.294405	-0.307266	-0.794045	-0.449463	-0.050293	-0.782959	0.102839	-0.022406	0.072595	0.875834	0.023165	-0.477760	0.064212	-2.193860	-57.124520	9.580666
07637		9.369274	-1.234185	5.472486	0.620296	-0.976504	1.046211	0.209734	-0.024806	-0.782018	-0.453369	-0.059326	-0.785156	0.093637	-0.012765	0.054723	0.875970	0.025923	-0.477753	0.061288	-1.389027	-57.158383	8.761170
07638		7.656634	-0.773122	5.931676	-0.720129	-0.788272	-0.155252	0.348114	0.314360	-0.699673	-0.448730	-0.065918	-0.791748	0.076632	-0.008102	0.059182	0.876828	0.029244	-0.476235	0.059313	-0.548088	-56.994793	8.037354
07639		6.291999	-0.370595	7.291004	-2.607949	-0.707934	-0.561616	0.456905	0.185788	-0.597140	-0.446045	-0.072510	-0.791748	0.062976	-0.004060	0.072843	0.877350	0.032578	-0.475241	0.057813	0.232235	-56.895041	7.414294
07640		6.084754	-0.141318	7.498399	-2.915769	-0.583118	-0.624205	0.240234	-0.223538	-0.536237	-0.452881	-0.072510	-0.789551	0.060759	-0.001666	0.075050	0.876912	0.035234	-0.476049	0.056225	0.869781	-57.020798	6.864720
07641		7.155772	-0.571853	6.893633	-1.806442	-0.916147	-0.068385	-0.025163	-0.463331	-0.499696	-0.452393	-0.079346	-0.782959	0.071383	-0.005888	0.069103	0.875925	0.036408	-0.478043	0.053894	1.299175	-57.286601	6.332156
07642		8.956001	-0.834570	6.522626	-0.543658	-1.068992	1.233237	-0.107601	-0.479884	-0.451187	-0.454834	-0.077148	-0.782959	0.089384	-0.008512	0.065445	0.874862	0.037363	-0.480146	0.051780	1.672128	-57.564035	5.855704
07643		10.828617	-0.860609	6.113670	0.747250	-0.983492	2.590964	-0.115495	-0.445215	-0.347321	-0.459229	-0.079590	-0.776367	0.108135	-0.008759	0.061383	0.873876	0.037771	-0.482103	0.049902	1.925910	-57.818616	5.472925
07644		11.698809	-1.045555	5.663780	1.563123	-1.102641	3.085933	-0.077377	-0.289727	-0.185073	-0.465820	-0.079834	-0.780762	0.116896	-0.010542	0.056811	0.873196	0.038161	-0.483390	0.049052	2.078014	-57.987520	5.278814
07645		11.377088	-0.978866	5.966294	1.109762	-1.099722	2.976058	0.019319	-0.025590	-0.034701	-0.456787	-0.083984	-0.780762	0.113762	-0.009814	0.059677	0.873115	0.038301	-0.483537	0.048945	2.114599	-58.007343	5.244584
07646		10.419771	-1.053713	6.321935	0.318592	-1.262123	2.350961	0.035335	0.077836	0.092131	-0.456787	-0.081787	-0.780762	0.104227	-0.010500	0.063177	0.873239	0.038501	-0.483217	0.049717	2.073677	-57.968510	5.368369
07647		9.778049	-0.885526	5.843080	0.369162	-1.059419	1.557331	0.065426	0.086802	0.180281	-0.461182	-0.081787	-0.785156	0.097814	-0.008786	0.058385	0.873367	0.038295	-0.482903	0.050681	1.936503	-57.928324	5.570388
07648		9.189844	-0.508879	5.297663	0.483039	-0.636260	0.776892	0.032947	0.177780	0.233719	-0.457275	-0.070557	-0.785156	0.091951	-0.004990	0.052894	0.873719	0.038095	-0.482133	0.052072	1.760518	-57.829285	5.848837
07649		8.539441	-0.229895	5.043117	0.329804	-0.339293	0.096095	-0.051245	0.157414	0.283223	-0.459473	-0.075195	-0.782959	0.085437	-0.002165	0.050365	0.874009	0.037114	-0.481559	0.053218	1.462728	-57.749564	6.162121
07650		8.049822	-0.413204	4.802993	0.303170	-0.491322	-0.447554	-0.094064	0.094063	0.311834	-0.455078	-0.070557	-0.782959	0.080527	-0.003984	0.047994	0.874160	0.035907	-0.481247	0.054372	1.120040	-57.701774	6.501216
07651		7.823245	-0.518028	4.749963	0.244591	-0.574095	-0.666967	-0.027986	0.074734	0.305762	-0.455322	-0.066162	-0.787354	0.078258	-0.005054	0.047471	0.874236	0.034996	-0.481029	0.055656	0.818937	-57.667763	6.834554
07652		7.650551	-0.412162	4.791035	0.110083	-0.459935	-0.788768	0.010723	0.094474	0.289599	-0.457520	-0.066162	-0.785156	0.076534	-0.004013	0.047874	0.874390	0.034274	-0.480650	0.056947	0.555706	-57.613538	7.147025
07653		7.619058	-0.593757	4.678450	0.218078	-0.606879	-0.875430	0.015832	0.116652	0.265968	-0.457764	-0.061768	-0.787354	0.076226	-0.005840	0.046740	0.874567	0.033638	-0.480227	0.058171	0.316931	-57.553654	7.436640
07654		7.560612	-0.560656	4.741695	0.140234	-0.565325	-0.889596	0.061867	0.175757	0.238677	-0.453125	-0.063721	-0.787354	0.075654	-0.005531	0.047349	0.874893	0.033174	-0.479523	0.059321	0.123111	-57.458193	7.690336
07655		7.333174	-0.593374	4.748968	0.031781	-0.599063	-1.076538	0.080477	0.194167	0.205606	-0.455566	-0.061523	-0.789551	0.073384	-0.005877	0.047416	0.875259	0.032942	-0.478730	0.060448	-0.022320	-57.352825	7.913672
07656		7.168923	-0.677627	4.663773	0.041505	-0.672575	-1.259950	0.095489	0.168791	0.156139	-0.453125	-0.065918	-0.793945	0.071734	-0.006743	0.046574	0.875598	0.032827	-0.478007	0.061323	-0.120706	-57.257449	8.078297
07657		6.984133	-0.767500	4.601364	0.020347	-0.762154	-1.448572	0.123980	0.157322	0.092070	-0.455322	-0.068359	-0.789551	0.069881	-0.007671	0.045954	0.875900	0.033068	-0.477341	0.062051	-0.138433	-57.172950	8.179835
07658		6.883878	-0.925851	4.530463	0.061222	-0.918513	-1.571168	0.139680	0.142516	0.024803	-0.450684	-0.070313	-0.793945	0.068872	-0.009282	0.045249	0.876187	0.033634	-0.476702	0.062607	-0.079089	-57.094958	8.217185
07659		6.990602	-0.914599	4.471098	0.177142	-0.897283	-1.514542	0.170390	0.090205	-0.032899	-0.450684	-0.070313	-0.791748	0.069925	-0.009196	0.044672	0.876359	0.034398	-0.476294	0.062887	0.040570	-57.049044	8.186916
07660		7.309629	-0.774275	4.384104	0.409365	-0.733571	-1.295362	0.171541	0.041084	-0.065783	-0.450684	-0.070313	-0.791748	0.073103	-0.007804	0.043819	0.876437	0.035391	-0.476043	0.063146	0.201678	-57.025651	8.132344
07661		7.679622	-0.667845	4.225919	0.728940	-0.590864	-1.071948	0.136425	0.027310	-0.063697	-0.448242	-0.074707	-0.793945	0.076800	-0.006732	0.042244	0.876474	0.036100	-0.475916	0.063199	0.328985	-57.015594	8.069784
07662		7.980624	-0.607542	3.961708	1.106805	-0.483763	-0.964210	0.117107	0.045669	-0.034337	-0.452637	-0.074707	-0.796143	0.079814	-0.006112	0.039595	0.876566	0.036742	-0.475666	0.063440	0.427098	-56.989085	8.047081
07663		8.034968	-0.523772	3.736616	1.317969	-0.373483	-1.042236	0.150194	0.113025	0.001829	-0.447754	-0.081299	-0.791748	0.080371	-0.005265	0.037317	0.876782	0.037328	-0.475170	0.063828	0.503824	-56.930086	8.054258
07664		7.941446	-0.406936	3.522575	1.440379	-0.240282	-1.238992	0.187364	0.160106	0.053161	-0.445557	-0.081299	-0.791748	0.079444	-0.004081	0.035158	0.877083	0.038148	-0.474423	0.064745	0.574533	-56.841165	8.132743
07665		7.830090	-0.483856	3.333179	1.562107	-0.298631	-1.438613	0.190347	0.168978	0.095440	-0.450439	-0.076904	-0.793945	0.078331	-0.004833	0.033261	0.877392	0.038670	-0.473685	0.065650	0.591764	-56.750654	8.238600
07666		7.722528	-0.664666	3.251366	1.613481	-0.469998	-1.577011	0.181758	0.182071	0.132147	-0.445313	-0.087891	-0.793945	0.077259	-0.006625	0.032437	0.877708	0.039222	-0.472885	0.066860	0.585521	-56.652734	8.396645
07667		7.581802	-0.935072	3.323671	1.534304	-0.750628	-1.658712	0.196998	0.187013	0.146241	-0.447754	-0.083496	-0.796143	0.075856	-0.009328	0.033157	0.878038	0.039648	-0.472073	0.068007	0.563001	-56.552174	8.554967
07668		7.505088	-1.186686	3.611509	1.312144	-1.038419	-1.567841	0.235163	0.181055	0.146321	-0.443359	-0.081299	-0.791748	0.075092	-0.011854	0.036033	0.878312	0.040569	-0.471258	0.069559	0.591506	-56.456467	8.738827
07669		7.576373	-1.444741	3.786270	1.265457	-1.307289	-1.415418	0.298760	0.154006	0.130424	-0.443115	-0.087891	-0.791748	0.075802	-0.014454	0.037783	0.878544	0.041491	-0.470550	0.070870	0.642205	-56.374792	8.879692
07670		7.783236	-1.431456	3.903426	1.296834	-1.295771	-1.181133	0.428423	0.116209	0.093486	-0.438721	-0.083252	-0.793945	0.077862	-0.014362	0.038958	0.878633	0.043263	-0.469975	0.072498	0.814051	-56.319648	8.998140
07671		8.065071	-1.202573	4.176428	1.205731	-1.094058	-0.796961	0.478183	0.118464	0.061447	-0.440430	-0.094482	-0.793945	0.080679	-0.012101	0.041688	0.878759	0.045147	-0.469340	0.073920	1.027266	-56.258132	9.067493
07672		8.183520	-0.999139	4.458975	1.023026	-0.937290	-0.543081	0.414126	0.148017	0.038967	-0.438232	-0.094482	-0.789551	0.081870	-0.010068	0.044508	0.878961	0.046917	-0.468575	0.075252	1.230633	-56.178993	9.130015
07673		8.139319	-0.889430	4.625759	0.860895	-0.870032	-0.488573	0.332851	0.137707	0.012198	-0.435791	-0.098633	-0.793945	0.081426	-0.008966	0.046187	0.879176	0.048271	-0.467894	0.076120	1.401995	-56.106067	9.149663
07674		8.292392	-0.788740	4.841490	0.764038	-0.803409	-0.242072	0.246790	0.055366	-0.022296	-0.435547	-0.103027	-0.798340	0.082936	-0.007956	0.048382	0.879207	0.049535	-0.467591	0.076811	1.568221	-56.081104	9.150543
07675		8.593658	-0.658890	4.974082	0.803266	-0.684074	0.082431	0.230573	-0.015226	-0.060817	-0.437744	-0.103271	-0.793945	0.085931	-0.006672	0.049740	0.879113	0.050669	-0.467601	0.077082	1.746424	-56.094621	9.091415
07676		8.895254	-0.603576	4.672295	1.202796	-0.572808	0.164553	0.193334	-0.112145	-0.097846	-0.433105	-0.107666	-0.785156	0.088923	-0.006124	0.046767	0.878798	0.052020	-0.467997	0.077370	1.956460	-56.160370	9.018921
07677		9.336299	-0.317833	4.136118	1.815387	-0.186571	0.239399	0.213340	-0.227336	-0.112017	-0.437500	-0.109863	-0.787354	0.093314	-0.003275	0.041464	0.878230	0.053279	-0.468930	0.077321	2.175688	-56.294028	8.898743
07678		9.768348	0.269456	4.604564	1.538943	0.328158	0.874648	0.109477	-0.248022	-0.080379	-0.437744	-0.105469	-0.782959	0.097627	0.002630	0.046168	0.877593	0.054320	-0.469978	0.077460	2.336124	-56.440766	8.834318
07679		10.050309	-0.171134	6.336117	0.338480	-0.372771	2.058741	-0.258632	-0.140219	0.020599	-0.446533	-0.105713	-0.787354	0.100459	-0.001619	0.063434	0.877301	0.053164	-0.470746	0.076907	2.169102	-56.527310	8.853537
07680		10.407105	-1.053689	7.019253	0.108700	-1.300232	2.716695	-0.322480	-0.195587	0.141304	-0.444336	-0.105713	-0.778564	0.104010	-0.010350	0.070311	0.876805	0.051585	-0.471855	0.076842	1.870601	-56.655195	9.008598
07681		11.348930	-0.629829	6.751195	0.723404	-0.730424	3.367468	-0.006445	-0.281035	0.273157	-0.444824	-0.099121	-0.782959	0.113403	-0.006141	0.067672	0.876013	0.050993	-0.473206	0.077954	1.630050	-56.826728	9.288546
07682		11.774277	0.106648	7.549663	0.137710	-0.059861	4.173719	-0.039981	0.079930	0.460021	-0.449219	-0.099365	-0.776123	0.117770	0.001352	0.075449	0.875957	0.049846	-0.473079	0.080063	1.211095	-56.801237	9.789857
07683		10.684061	-0.023853	9.616063	-2.087421	-0.546907	4.398600	-0.199769	0.633480	0.612749	-0.436035	-0.094238	-0.785156	0.107144	0.000185	0.095822	0.877227	0.047242	-0.470580	0.082434	0.549413	-56.449508	10.441902
07684		9.750646	0.167606	11.600286	-4.185528	-0.675841	4.736994	-0.143170	0.595194	0.662672	-0.434082	-0.087646	-0.789551	0.097845	0.002083	0.115711	0.878313	0.044932	-0.468266	0.085287	-0.097206	-56.122615	11.144246
07685		10.352049	1.809349	11.175315	-3.801360	1.158477	5.003968	-0.129915	0.025035	0.691837	-0.438965	-0.081055	-0.787354	0.103471	0.018524	0.111728	0.878076	0.042706	-0.468411	0.088030	-0.767651	-56.111049	11.858995
07686		10.722501	2.780421	8.704497	-1.802500	2.643709	3.907063	-0.464500	-0.074296	0.755775	-0.437012	-0.072021	-0.789551	0.107086	0.028411	0.087019	0.877630	0.038904	-0.469151	0.090269	-1.688467	-56.150821	12.645740
07687		8.555236	2.007832	6.630004	-1.141843	2.055091	0.941476	-0.691826	0.409086	0.718987	-0.433105	-0.060791	-0.789551	0.085614	0.020615	0.066054	0.878363	0.033973	-0.467849	0.091883	-2.688671	-55.906568	13.370666
07688		6.250326	1.087081	7.019016	-2.513332	0.898880	-0.735825	-0.596408	0.429516	0.583690	-0.431641	-0.049805	-0.793945	0.062621	0.011262	0.070023	0.879192	0.029602	-0.466369	0.092981	-3.522840	-55.645387	13.933631
07689		5.786889	-0.189742	7.769111	-3.135646	-0.442062	-0.655450	-0.621451	-0.126382	0.472630	-0.440674	-0.045654	-0.793945	0.057824	-0.001519	0.077733	0.878738	0.025802	-0.467327	0.093595	-4.288194	-55.704804	14.426030
07690		6.774728	-1.545597	7.378177	-2.071799	-1.512144	-0.007397	-0.580757	-0.524365	0.407157	-0.445557	-0.036865	-0.789551	0.067584	-0.015104	0.074003	0.877371	0.022228	-0.470052	0.093691	-5.034101	-55.994540	14.868193
07691		8.407333	-1.690868	6.699700	-0.670081	-1.288063	0.972476	-0.203160	-0.494515	0.351287	-0.443359	-0.036865	-0.787354	0.083937	-0.016693	0.067222	0.876037	0.020718	-0.472400	0.094704	-5.494564	-56.263792	15.279338
07692		9.430480	-1.020072	6.458755	-0.096694	-0.421798	1.654773	0.102260	-0.257599	0.311682	-0.447998	-0.034668	-0.785156	0.094237	-0.010087	0.064704	0.875231	0.020267	-0.473638	0.096054	-5.758211	-56.405975	15.615651
07693		9.855531	-0.854074	6.565641	-0.009734	-0.194728	2.058730	0.172651	-0.063282	0.234799	-0.454590	-0.034912	-0.782959	0.098545	-0.008482	0.065680	0.874925	0.020471	-0.473902	0.097488	-5.873370	-56.434003	15.869344
07694		9.914126	-0.577211	7.006751	-0.396365	0.038124	2.334701	0.175156	0.111939	0.111492	-0.447998	-0.034668	-0.787354	0.099184	-0.005778	0.070007	0.875054	0.020650	-0.473512	0.098189	-5.893381	-56.382434	15.965477
07695		9.792222	0.029589	7.316969	-0.814624	0.573064	2.370680	0.115697	0.195517	-0.010364	-0.452148	-0.039307	-0.791748	0.097994	0.000249	0.073074	0.875484	0.021060	-0.472646	0.098442	-5.808112	-56.277248	15.939356
07696		9.826043	0.330025	6.772887	-0.385257	0.941425	2.082576	0.013266	0.182284	-0.082020	-0.443359	-0.034668	-0.785156	0.098323	0.003255	0.067639	0.875907	0.021009	-0.471956	0.097996	-5.744589	-56.190931	15.835918
07697		9.422836	0.452445	6.045088	0.002738	1.087634	1.338750	0.070442	0.303994	-0.130213	-0.440918	-0.038818	-0.787354	0.094323	0.004442	0.060309	0.876654	0.021451	-0.470624	0.097629	-5.575163	-56.030657	15.677080
07698		8.363620	0.531691	5.823211	-0.359666	1.026991	0.334152	0.100611	0.442227	-0.161900	-0.436279	-0.045410	-0.793945	0.083769	0.005220	0.058050	0.877738	0.021788	-0.468715	0.096995	-5.377076	-55.796310	15.460139
07699		7.471895	0.482877	5.890633	-0.844017	0.828734	-0.359507	0.058552	0.436426	-0.155685	-0.438721	-0.041016	-0.793945	0.074851	0.004753	0.058744	0.878801	0.022172	-0.466802	0.096501	-5.186703	-55.561267	15.266826
07700		6.931702	0.166851	5.887912	-1.040443	0.435829	-0.786542	-0.013262	0.334570	-0.126501	-0.433838	-0.049805	-0.798340	0.069416	0.001629	0.058763	0.879611	0.022149	-0.465398	0.095915	-5.081226	-55.384848	15.114304
07701		6.806637	-0.025492	5.646335	-0.851416	0.256998	-1.013763	0.029516	0.209497	-0.091966	-0.429443	-0.045166	-0.796143	0.068125	-0.000295	0.056392	0.880113	0.022366	-0.464500	0.095608	-4.980141	-55.275666	15.008507
07702		6.830601	0.103768	5.438933	-0.675977	0.407840	-1.116334	0.122810	0.191947	-0.071355	-0.429443	-0.045166	-0.798340	0.068359	0.000980	0.054324	0.880544	0.023003	-0.463635	0.095681	-4.842861	-55.175474	14.934506
07703		6.797073	0.271747	5.264562	-0.566746	0.584053	-1.249551	0.112534	0.214295	-0.038207	-0.425049	-0.047119	-0.804932	0.068028	0.002675	0.052574	0.881020	0.023459	-0.462682	0.095803	-4.739233	-55.060737	14.883342
07704		6.816016	0.296799	5.164629	-0.461423	0.623456	-1.291072	0.039473	0.210001	-0.017549	-0.429199	-0.051758	-0.807129	0.068215	0.002952	0.051575	0.881511	0.023459	-0.461750	0.095786	-4.703322	-54.941803	14.849346
07705		6.840893	0.293628	5.009328	-0.305309	0.646830	-1.358944	-0.034777	0.190711	-0.007076	-0.420410	-0.049316	-0.807129	0.068457	0.002943	0.050028	0.881933	0.023205	-0.460974	0.095702	-4.711577	-54.839016	14.831613
07706		6.823330	0.398845	4.954736	-0.275181	0.759468	-1.409487	-0.035715	0.192289	0.005617	-0.422607	-0.051514	-0.804932	0.068281	0.003999	0.049481	0.882376	0.022970	-0.460127	0.095750	-4.725958	-54.726868	14.833145
07707		6.668206	0.541659	4.828368	-0.271749	0.899211	-1.615794	-0.047828	0.211292	0.018924	-0.418213	-0.049072	-0.813965	0.066733	0.005434	0.048212	0.882833	0.022588	-0.459268	0.095753	-4.761264	-54.611082	14.839373
07708		6.563394	0.726008	4.743974	-0.280008	1.081160	-1.758919	0.000877	0.220724	0.023735	-0.413574	-0.051270	-0.813721	0.065685	0.007268	0.047367	0.883339	0.022477	-0.458253	0.095979	-4.764247	-54.478657	14.855943
07709		6.488741	0.966285	4.811996	-0.407173	1.301801	-1.791947	0.019259	0.197583	0.032642	-0.418213	-0.049072	-0.809326	0.064933	0.009669	0.048057	0.883748	0.022366	-0.457423	0.096195	-4.772832	-54.370010	14.876616
07710		6.584268	1.000820	4.762993	-0.307220	1.360259	-1.744501	0.014039	0.133812	0.041795	-0.418213	-0.049072	-0.811523	0.065872	0.010019	0.047587	0.884053	0.022324	-0.456765	0.096525	-4.785966	-54.283828	14.916800
07711		6.861924	0.957304	4.685166	-0.072321	1.374159	-1.562859	-0.019200	0.092565	0.041678	-0.416260	-0.042480	-0.813965	0.068639	0.009592	0.046819	0.884222	0.022074	-0.456418	0.096681	-4.830520	-54.234654	14.954705
07712		7.165257	0.831718	4.599358	0.198243	1.314010	-1.361603	-0.029700	0.079007	0.044637	-0.413818	-0.046875	-0.813721	0.071669	0.008340	0.045964	0.884391	0.021716	-0.456089	0.096771	-4.888124	-54.186350	14.990759
07713		7.455778	0.840052	4.269867	0.629480	1.414105	-1.319741	-0.043393	0.064823	0.043659	-0.418213	-0.049072	-0.816162	0.074570	0.008426	0.042673	0.884497	0.021367	-0.455876	0.096877	-4.949780	-54.152855	15.032685
07714		7.592130	0.763882	3.852043	1.061586	1.420324	-1.450995	-0.118148	0.078816	0.038271	-0.418213	-0.046875	-0.816162	0.075935	0.007676	0.038486	0.884673	0.020751	-0.455570	0.096844	-5.041441	-54.103738	15.070182
07715		7.583786	0.711534	3.683892	1.208530	1.397711	-1.555751	-0.160759	0.126156	0.011566	-0.414063	-0.042236	-0.818359	0.075861	0.007149	0.036785	0.884947	0.019926	-0.455138	0.096548	-5.140480	-54.036775	15.075293
07716		7.315059	0.699650	3.702957	1.053415	1.350855	-1.764273	-0.176082	0.134605	-0.019079	-0.407471	-0.037598	-0.822754	0.073176	0.007022	0.036974	0.885279	0.019115	-0.454624	0.096088	-5.219691	-53.960536	15.047948
07717		7.157805	0.724477	3.695869	0.974170	1.359044	-1.899251	-0.196539	0.110451	-0.038520	-0.403076	-0.037598	-0.813721	0.071600	0.007267	0.036912	0.885542	0.018253	-0.454274	0.095487	-5.300829	-53.905137	15.005560
07718		6.979176	0.666343	3.707813	0.884056	1.281124	-2.035930	-0.246423	0.078576	-0.044596	-0.409912	-0.035645	-0.811523	0.069808	0.006694	0.037042	0.885844	0.017062	-0.453918	0.094591	-5.412146	-53.845557	14.939993
07719		6.979471	0.499681	3.832949	0.817704	1.112730	-1.954737	-0.336714	0.028998	-0.026380	-0.409912	-0.033203	-0.820557	0.069801	0.005052	0.038311	0.885925	0.015591	-0.453994	0.093718	-5.589023	-53.835970	14.916612
07720		7.173527	0.199052	4.046616	0.808881	0.836379	-1.656685	-0.400242	-0.063848	-0.012806	-0.416992	-0.029053	-0.813965	0.071722	0.002067	0.040485	0.885833	0.013757	-0.454455	0.092633	-5.823421	-53.870937	14.900492
07721		7.612439	0.180307	4.649186	0.567823	0.832843	-0.948118	-0.323803	-0.120743	-0.005227	-0.415039	-0.024658	-0.824951	0.076096	0.001876	0.046535	0.885558	0.012364	-0.455185	0.091872	-6.021462	-53.945512	14.912444
07722		8.031881	0.173991	5.360627	0.222560	0.826282	-0.192634	-0.164576	-0.110601	0.005676	-0.412598	-0.026855	-0.813965	0.080289	0.001786	0.053649	0.885307	0.011507	-0.455799	0.091359	-6.145694	-54.012582	14.918001
07723		8.253520	0.047175	5.420741	0.308095	0.733933	0.029754	-0.061305	-0.132160	0.010059	-0.417236	-0.022461	-0.816162	0.082499	0.000493	0.054262	0.884980	0.011246	-0.456459	0.091262	-6.206870	-54.092684	14.946601
07724		8.523172	0.029065	5.310967	0.536776	0.770275	0.185823	-0.046067	-0.168246	0.010332	-0.419922	-0.015869	-0.820557	0.085187	0.000307	0.053181	0.884597	0.010962	-0.457249	0.091056	-6.267613	-54.189726	14.963049
07725		8.478623	0.039098	5.166504	0.606809	0.787881	0.066196	-0.014604	-0.201853	0.006575	-0.424072	-0.018311	-0.818359	0.084734	0.000398	0.051751	0.884108	0.010947	-0.458195	0.091046	-6.305764	-54.309692	14.996140
07726		8.526534	-0.080812	5.134318	0.657658	0.678296	0.095737	0.057566	-0.247163	-0.002279	-0.424072	-0.020508	-0.813965	0.085202	-0.000824	0.051448	0.883548	0.010966	-0.459321	0.090816	-6.325406	-54.454673	14.994235
07727		8.612776	-0.231658	5.819097	0.153781	0.461633	0.572815	0.154008	-0.230865	-0.031759	-0.421631	-0.022705	-0.813965	0.086060	-0.002375	0.058289	0.882998	0.011796	-0.460316	0.091022	-6.239241	-54.593563	14.993085
07728		8.795190	0.269682	7.197408	-0.967563	0.812025	1.484881	0.392237	-0.209749	-0.103047	-0.426270	-0.022705	-0.811523	0.087878	0.002510	0.072071	0.882547	0.013630	-0.461090	0.091223	-5.969539	-54.721445	14.893836
07729		9.418762	1.377269	7.659494	-1.211774	1.895154	2.196369	0.423576	-0.298689	-0.193242	-0.427734	-0.033936	-0.804932	0.094086	0.013519	0.076764	0.881889	0.016053	-0.462247	0.091331	-5.602262	-54.908301	14.737650
07730		10.403805	1.750386	7.249744	-0.431115	2.404541	2.752894	0.094671	-0.362201	-0.277133	-0.427734	-0.033936	-0.807129	0.103931	0.017325	0.072694	0.881161	0.017081	-0.463838	0.090095	-5.367931	-55.135912	14.479860
07731		11.237494	0.936894	7.975059	-0.443553	1.603250	3.898379	-0.136012	-0.139374	-0.388129	-0.430420	-0.029541	-0.807129	0.112337	0.009205	0.079823	0.880998	0.017416	-0.464526	0.088062	-5.145125	-55.241263	14.109782
07732		10.884754	-0.114474	9.411038	-1.615644	0.313694	4.482399	0.117908	0.190807	-0.511368	-0.427734	-0.038330	-0.809326	0.108934	-0.001479	0.094006	0.881676	0.018808	-0.463601	0.085838	-4.660838	-55.156995	13.556763
07733		10.361823	-0.762668	9.860672	-2.131734	-0.517150	4.342506	0.215572	0.099875	-0.640342	-0.425537	-0.036133	-0.804932	0.103642	-0.008065	0.098546	0.882132	0.021170	-0.463052	0.083529	-4.012963	-55.133160	12.913909
07734		10.493829	-1.896789	8.397103	-0.677101	-1.528736	3.657039	-0.064808	-0.194054	-0.756609	-0.429688	-0.042969	-0.813965	0.104784	-0.019337	0.084079	0.882027	0.022489	-0.463855	0.079761	-3.454061	-55.270616	12.143122
07735		9.745820	-2.567479	6.771409	0.328246	-2.175615	2.128137	0.053174	0.010218	-0.807815	-0.426758	-0.053955	-0.802734	0.097357	-0.026086	0.067702	0.882336	0.024562	-0.463740	0.076326	-2.763164	-55.295386	11.335739
07736		7.662585	-1.493114	6.814366	-1.015442	-1.431464	0.400018	0.307879	0.338661	-0.781918	-0.421875	-0.062744	-0.811523	0.076682	-0.015336	0.067990	0.883390	0.027510	-0.462021	0.073496	-1.934939	-55.118119	10.521759
07737		6.016074	-0.448697	7.129688	-2.324641	-0.672045	-0.792098	0.217760	0.228689	-0.682461	-0.412842	-0.066895	-0.809326	0.060226	-0.004770	0.071223	0.884110	0.029933	-0.460879	0.071020	-1.252292	-55.003572	9.837271
07738		5.574491	-0.082330	6.994648	-2.508266	-0.382118	-1.235432	0.001973	-0.148427	-0.586811	-0.419434	-0.067139	-0.807129	0.055690	-0.000987	0.069988	0.884035	0.031420	-0.461322	0.068390	-0.755397	-55.079437	9.241267
07739		6.292006	-0.338953	6.642361	-1.800556	-0.561791	-0.853481	-0.084265	-0.420150	-0.540324	-0.428223	-0.069580	-0.800537	0.062771	-0.003531	0.066557	0.883236	0.032407	-0.463165	0.065745	-0.368223	-55.328725	8.707087
07740		7.546025	-0.769438	6.369995	-0.850794	-0.885847	0.015968	-0.113172	-0.496869	-0.542510	-0.428223	-0.069580	-0.804932	0.075281	-0.007863	0.063892	0.882275	0.033393	-0.465297	0.063039	0.026445	-55.613913	8.159775
07741		8.750908	-1.310832	6.204515	-0.012497	-1.347919	0.909965	-0.152178	-0.434359	-0.538373	-0.430420	-0.073975	-0.809326	0.087338	-0.013296	0.062245	0.881431	0.034080	-0.467214	0.060240	0.386904	-55.867221	7.614290
07742		9.615594	-1.599717	5.804975	0.797400	-1.567538	1.395489	-0.134673	-0.303288	-0.468977	-0.434814	-0.074219	-0.804932	0.096030	-0.016183	0.058206	0.880927	0.034710	-0.468428	0.057785	0.719537	-56.028134	7.123154
07743		10.220512	-1.502493	6.161341	0.799851	-1.507220	2.093902	-0.066174	-0.151217	-0.332045	-0.432129	-0.080811	-0.800537	0.102133	-0.015174	0.061696	0.880656	0.035209	-0.469099	0.056144	0.959856	-56.117505	6.784004
07744		10.366863	-1.722992	6.487369	0.631569	-1.779033	2.392339	-0.013805	-0.071578	-0.137247	-0.432617	-0.072021	-0.793945	0.103634	-0.017297	0.064912	0.880555	0.035650	-0.469319	0.055593	1.090555	-56.148791	6.643407
07745		10.126405	-1.711574	6.156883	0.764690	-1.755443	2.007399	0.143038	-0.004007	0.013955	-0.434570	-0.076416	-0.800537	0.101264	-0.017153	0.061559	0.880494	0.036218	-0.469344	0.055993	1.154322	-56.156740	6.661542
07746		9.472812	-1.248509	5.750790	0.686501	-1.293542	1.242626	0.211413	0.127414	0.141754	-0.434814	-0.074219	-0.800537	0.094774	-0.012479	0.057434	0.880731	0.036817	-0.468710	0.057161	1.157075	-56.080740	6.810487
07747		8.572393	-1.013411	5.522878	0.360798	-1.083190	0.371200	0.151974	0.197933	0.242610	-0.427979	-0.078369	-0.802734	0.085791	-0.010072	0.055136	0.881074	0.036831	-0.467883	0.058625	1.028386	-55.975470	7.066909
07748		7.939175	-1.015764	5.434826	0.099931	-1.100666	-0.201334	0.090345	0.130812	0.300733	-0.437256	-0.072021	-0.798340	0.079442	-0.010063	0.054292	0.881312	0.036514	-0.467260	0.060195	0.828465	-55.893868	7.375059
07749		7.597044	-0.786019	5.316533	-0.018668	-0.863163	-0.546998	0.103980	0.045825	0.313616	-0.430420	-0.071777	-0.809326	0.075995	-0.007769	0.053144	0.881282	0.036196	-0.467127	0.061831	0.616041	-55.875285	7.699862
07750		7.498231	-0.367590	5.131023	0.022084	-0.413738	-0.728950	0.074718	0.052358	0.306565	-0.437012	-0.074219	-0.809326	0.075001	-0.003580	0.051289	0.881312	0.035717	-0.466909	0.063311	0.391314	-55.843659	8.010486
07751		7.348315	-0.038681	5.031809	-0.024506	-0.066852	-0.906891	-0.001342	0.095830	0.277663	-0.437256	-0.069824	-0.807129	0.073508	-0.000284	0.050283	0.881425	0.035003	-0.466580	0.064552	0.149555	-55.794866	8.298045
07752		7.100146	0.094722	4.853587	-0.029807	0.089129	-1.212137	-0.059814	0.126565	0.258274	-0.439697	-0.065430	-0.809326	0.071031	0.001053	0.048491	0.881649	0.034063	-0.466086	0.065555	-0.106268	-55.722104	8.560982
07753		6.880073	0.112678	4.900123	-0.186831	0.104204	-1.367955	-0.064295	0.112529	0.218605	-0.435303	-0.065186	-0.807129	0.068827	0.001218	0.048962	0.881828	0.033204	-0.465692	0.066391	-0.332696	-55.662479	8.786750
07754		6.791430	-0.273660	4.659760	0.021459	-0.236886	-1.575262	-0.090795	0.071181	0.187555	-0.433105	-0.065186	-0.807129	0.067933	-0.002652	0.046575	0.881935	0.032219	-0.465479	0.066941	-0.557014	-55.624856	8.974898
07755		6.714879	-0.785848	4.395626	0.272957	-0.702961	-1.783988	-0.067668	0.065630	0.139201	-0.428467	-0.065186	-0.804932	0.067169	-0.007797	0.043937	0.882030	0.031545	-0.465278	0.067410	-0.718157	-55.591679	9.119410
07756		6.606233	-1.033921	4.443084	0.214375	-0.952823	-1.844095	-0.033865	0.058563	0.084786	-0.430908	-0.062988	-0.802734	0.066080	-0.010304	0.044413	0.882160	0.031132	-0.465019	0.067683	-0.812563	-55.553791	9.202717
07757		6.699430	-1.260372	4.436295	0.305557	-1.161346	-1.768464	-0.049677	-0.014765	0.028493	-0.433350	-0.060791	-0.809326	0.066993	-0.012583	0.044371	0.882102	0.030821	-0.465149	0.067694	-0.871502	-55.567286	9.235883
07758		6.967209	-1.320203	4.309955	0.561777	-1.178547	-1.617806	-0.031901	-0.088466	-0.000327	-0.430908	-0.060791	-0.802734	0.069653	-0.013195	0.043132	0.881904	0.030623	-0.465557	0.067557	-0.901985	-55.618054	9.236791
07759		7.288418	-1.194151	4.185447	0.814121	-1.010637	-1.423360	-0.025736	-0.118973	-0.019362	-0.428467	-0.065186	-0.809326	0.072858	-0.011943	0.041899	0.881615	0.030565	-0.466131	0.067397	-0.908600	-55.691647	9.223146
07760		7.610380	-0.881517	4.167031	0.952472	-0.672385	-1.169783	-0.002885	-0.133022	-0.025842	-0.435547	-0.060791	-0.802734	0.076075	-0.008824	0.041721	0.881347	0.030602	-0.466662	0.067218	-0.895618	-55.760825	9.196470
07761		8.012487	-0.530213	4.216410	1.072088	-0.298153	-0.811526	0.012764	-0.120230	-0.030620	-0.428467	-0.067383	-0.807129	0.080099	-0.005317	0.042212	0.881052	0.030739	-0.467226	0.067097	-0.870591	-55.835194	9.171261
07762		8.305610	-0.287205	4.366302	1.068850	-0.053428	-0.486116	0.027991	-0.073805	-0.031893	-0.435547	-0.061035	-0.793945	0.083040	-0.002891	0.043693	0.880914	0.030934	-0.467489	0.066996	-0.831203	-55.871296	9.138996
07763		8.517427	-0.209459	4.093085	1.393583	0.069703	-0.464059	0.044664	-0.030559	-0.036856	-0.441895	-0.065430	-0.802734	0.085168	-0.002119	0.040943	0.880826	0.031197	-0.467645	0.066936	-0.781328	-55.894287	9.105884
07764		8.670053	-0.274865	3.857207	1.681363	0.041566	-0.469524	0.062758	0.054337	-0.044509	-0.437500	-0.063232	-0.802734	0.086710	-0.002780	0.038548	0.880916	0.031540	-0.467453	0.066937	-0.716191	-55.872989	9.070425
07765		8.540464	-0.479260	3.701968	1.776182	-0.157706	-0.664241	0.063009	0.148788	-0.036301	-0.439697	-0.065430	-0.802734	0.085431	-0.004820	0.036955	0.881243	0.031822	-0.466814	0.066951	-0.654447	-55.793202	9.035657
07766		8.444527	-0.702057	3.702232	1.768822	-0.388696	-0.744633	0.083892	0.150370	-0.014517	-0.430664	-0.065186	-0.804932	0.084473	-0.007042	0.036956	0.881555	0.032133	-0.466179	0.067118	-0.602544	-55.714329	9.026254
07767		8.371696	-0.949125	3.714073	1.768369	-0.641955	-0.799296	0.091983	0.138441	0.008281	-0.430664	-0.067383	-0.800537	0.083743	-0.009505	0.037078	0.881838	0.032443	-0.465582	0.067395	-0.562083	-55.640182	9.037292
07768		8.344714	-1.193544	3.695578	1.817883	-0.883117	-0.833184	0.105946	0.123406	0.038535	-0.424072	-0.062744	-0.804932	0.083472	-0.011939	0.036898	0.882101	0.032742	-0.465001	0.067827	-0.538726	-55.567884	9.077767
07769		8.340108	-1.428879	3.654182	1.896844	-1.109038	-0.861479	0.151912	0.136315	0.068851	-0.428223	-0.069580	-0.804932	0.083431	-0.014288	0.036474	0.882347	0.033175	-0.464402	0.068509	-0.514546	-55.494618	9.150225
07770		8.279632	-1.448918	3.682577	1.859041	-1.135698	-0.898251	0.248574	0.143942	0.083995	-0.430420	-0.071777	-0.804932	0.082829	-0.014500	0.036748	0.882641	0.033935	-0.463652	0.069424	-0.451345	-55.405205	9.231633
07771		8.253249	-1.365442	3.738315	1.801541	-1.063850	-0.892026	0.345979	0.122240	0.081950	-0.421143	-0.075928	-0.800537	0.082561	-0.013685	0.037309	0.882815	0.035199	-0.463048	0.070611	-0.326828	-55.340008	9.317411
07772		8.268289	-1.251225	3.816542	1.742641	-0.964828	-0.838923	0.377939	0.067903	0.068907	-0.427979	-0.076172	-0.802734	0.082700	-0.012556	0.038114	0.882876	0.036726	-0.462619	0.071867	-0.165645	-55.300551	9.394193
07773		8.313256	-1.175512	4.150101	1.493300	-0.938078	-0.614565	0.374929	0.010160	0.049354	-0.423584	-0.076172	-0.800537	0.083138	-0.011812	0.041475	0.882790	0.038233	-0.462490	0.072957	0.002020	-55.299839	9.447768
07774		8.485590	-1.097546	4.873054	0.993003	-0.953933	-0.062793	0.309190	-0.069342	0.024350	-0.425537	-0.078369	-0.800537	0.084840	-0.011040	0.048743	0.882547	0.039540	-0.462711	0.073797	0.150884	-55.342299	9.480607
07775		8.836810	-1.132720	5.152322	0.960089	-1.007747	0.384436	0.241616	-0.191975	0.009300	-0.425293	-0.082764	-0.802734	0.088319	-0.011385	0.051594	0.882029	0.040625	-0.463513	0.074362	0.275892	-55.457459	9.493154
07776		9.248448	-1.073263	5.013786	1.273836	-0.905267	0.645874	0.185050	-0.254634	-0.024590	-0.425049	-0.087402	-0.791748	0.092419	-0.010790	0.050246	0.881415	0.041547	-0.464554	0.074639	0.394763	-55.601906	9.472456
07777		9.578189	-0.882881	5.121212	1.314395	-0.716219	0.981169	0.088535	-0.225388	-0.047668	-0.429443	-0.089600	-0.793945	0.095722	-0.008874	0.051316	0.880869	0.042102	-0.465547	0.074590	0.480626	-55.735960	9.426158
07778		9.638768	-0.662276	5.889663	0.666914	-0.611006	1.466252	-0.078573	-0.120539	-0.029090	-0.431885	-0.087402	-0.791748	0.096351	-0.006614	0.058957	0.880597	0.041981	-0.466102	0.074397	0.467327	-55.806412	9.410837
07779		9.797450	-0.391911	7.081167	-0.279316	-0.491904	2.268972	-0.244366	-0.121458	0.029367	-0.427734	-0.078613	-0.789551	0.097932	-0.003818	0.070876	0.880332	0.040853	-0.466776	0.073934	0.296929	-55.881222	9.443865
07780		10.366920	-0.612967	7.813577	-0.550701	-0.729098	3.151326	-0.453502	-0.175699	0.134075	-0.432373	-0.076416	-0.793945	0.103604	-0.005883	0.078240	0.879944	0.038612	-0.467766	0.073503	-0.083116	-55.985034	9.594067
07781		11.189936	-0.127520	7.517744	0.030190	-0.084484	3.668375	-0.341074	-0.185332	0.275939	-0.437256	-0.069824	-0.789551	0.111831	-0.000993	0.075283	0.879451	0.036505	-0.468800	0.073887	-0.520490	-56.095455	9.882110
07782		11.622628	1.303932	7.918493	-0.320010	1.379249	4.240180	-0.292237	-0.002712	0.431142	-0.432861	-0.069824	-0.796143	0.116197	0.013406	0.079167	0.879315	0.034140	-0.469039	0.075121	-1.071405	-56.098148	10.336876
07783		10.874634	1.353032	8.942065	-1.572215	1.319273	4.181424	-0.639410	0.309325	0.585224	-0.431396	-0.054199	-0.789551	0.108844	0.014134	0.089208	0.879899	0.029811	-0.468055	0.076250	-1.934503	-55.917194	10.932325
07784		9.661197	0.277749	8.986723	-2.078801	0.257101	3.217585	-0.740600	0.322816	0.653811	-0.427246	-0.047363	-0.798340	0.096746	0.003426	0.089699	0.880508	0.024796	-0.467009	0.077419	-2.914773	-55.715427	11.590453
07785		9.175571	0.928966	7.876786	-1.530590	1.088158	2.169396	-0.449692	0.155047	0.610592	-0.429932	-0.036377	-0.789551	0.091787	0.009747	0.078675	0.880661	0.021301	-0.466614	0.079079	-3.682997	-55.611516	12.205066
07786		8.160440	2.168237	7.260906	-1.771366	2.354516	0.926611	-0.610159	0.291125	0.541429	-0.432861	-0.025146	-0.798340	0.081650	0.022125	0.072423	0.881184	0.017032	-0.465647	0.079980	-4.494075	-55.423215	12.733816
07787		6.582680	1.429068	7.786412	-2.938152	1.478899	-0.056611	-1.065983	0.313383	0.471481	-0.426758	-0.009521	-0.800537	0.065914	0.014860	0.077683	0.881779	0.011083	-0.464765	0.079604	-5.478258	-55.225674	13.184115
07788		6.190896	-0.155238	8.145545	-3.214132	-0.053304	-0.098428	-0.972102	-0.088312	0.367443	-0.433838	-0.003174	-0.802734	0.061875	-0.001043	0.081489	0.881455	0.005557	-0.465629	0.078711	-6.398015	-55.259044	13.557090
07789		7.297629	-0.363404	8.291717	-2.730985	-0.042308	0.896159	-0.574607	-0.406312	0.296822	-0.433838	-0.000977	-0.793945	0.072813	-0.003287	0.083075	0.880380	0.002463	-0.467691	0.078674	-7.018477	-55.475114	13.907164
07790		8.795534	-0.259964	8.212586	-1.913968	0.333835	2.065879	-0.474789	-0.393651	0.260982	-0.431885	0.001465	-0.800537	0.087797	-0.002290	0.082304	0.879318	-0.000410	-0.469713	0.078550	-7.596204	-55.688893	14.226283
07791		10.136627	-0.287384	8.016930	-1.068046	0.557249	3.057952	-0.347537	-0.307017	0.234839	-0.443359	0.005615	-0.800537	0.101246	-0.002615	0.080329	0.878478	-0.002400	-0.471238	0.078771	-8.034054	-55.849558	14.511076
07792		10.930839	-0.270139	7.664627	-0.386114	0.755523	3.513326	-0.217978	-0.189045	0.213299	-0.437012	0.014648	-0.793945	0.109239	-0.002501	0.076752	0.877947	-0.004037	-0.472169	0.079046	-8.391531	-55.938924	14.751393
07793		10.962150	-0.445526	7.444627	-0.176382	0.637933	3.429349	-0.240272	0.086631	0.145685	-0.441406	0.012207	-0.802734	0.109657	-0.004286	0.074404	0.878066	-0.005502	-0.471921	0.079121	-8.648128	-55.882105	14.891003
07794		10.357971	-0.592511	7.774631	-0.734437	0.419717	3.124381	-0.205665	0.356967	0.025544	-0.437012	0.016846	-0.802734	0.103719	-0.005832	0.077567	0.878899	-0.006950	-0.470450	0.078516	-8.782398	-55.676260	14.854365
07795		10.126428	-0.284152	7.670703	-0.774324	0.711208	2.850622	-0.128966	0.332373	-0.134761	-0.434814	0.016846	-0.798340	0.101390	-0.002860	0.076540	0.879705	-0.007362	-0.469084	0.077613	-8.710495	-55.504385	14.673545
07796		10.240668	-0.485662	6.634462	0.211114	0.589108	2.382863	-0.142386	0.328406	-0.277248	-0.432617	0.017090	-0.804932	0.102509	-0.004952	0.066180	0.880574	-0.007792	-0.467736	0.075844	-8.563025	-55.342853	14.341764
07797		9.519272	-0.573200	5.807419	0.554761	0.427780	1.330926	-0.065112	0.491067	-0.409203	-0.430664	0.023682	-0.804932	0.095323	-0.005908	0.057842	0.881848	-0.007341	-0.465652	0.073875	-8.215094	-55.103321	13.868548
07798		8.197746	-0.184016	5.845719	-0.200317	0.607318	0.237188	-0.067231	0.587297	-0.448820	-0.421143	0.012939	-0.809326	0.082144	-0.002005	0.058217	0.883367	-0.007223	-0.463149	0.071443	-7.872592	-54.808293	13.333736
07799		7.050238	-0.275185	5.777305	-0.721977	0.348935	-0.728877	-0.135591	0.533660	-0.400755	-0.418945	0.010742	-0.811523	0.070651	-0.002854	0.057587	0.884714	-0.007118	-0.460893	0.069344	-7.579082	-54.540812	12.874429
07800		6.388002	-0.502051	5.551461	-0.843310	0.041058	-1.376789	-0.114566	0.422362	-0.322986	-0.414307	0.008789	-0.813965	0.063989	-0.005092	0.055382	0.885809	-0.007299	-0.459067	0.067425	-7.372164	-54.322040	12.491829
07801		6.150260	-0.496642	5.340785	-0.777444	0.018263	-1.689171	-0.075975	0.328521	-0.245863	-0.412109	0.010986	-0.820557	0.061584	-0.005022	0.053309	0.886620	-0.007217	-0.457687	0.066154	-7.196327	-54.157833	12.217066
07802		6.161030	-0.582581	5.043332	-0.497060	-0.055154	-1.845081	-0.111151	0.242493	-0.195403	-0.414551	0.013184	-0.818359	0.061666	-0.005858	0.050362	0.887267	-0.007612	-0.456622	0.064774	-7.105916	-54.028090	11.977075
07803		6.397763	-0.592170	4.803386	-0.149975	-0.027192	-1.792007	-0.177607	0.185321	-0.176805	-0.412354	0.013184	-0.820557	0.064017	-0.005936	0.047980	0.887718	-0.008091	-0.455904	0.063581	-7.059170	-53.939831	11.788973
07804		6.430504	-0.561015	4.522924	0.105307	0.020264	-1.931606	-0.176806	0.173446	-0.187575	-0.407959	0.015625	-0.827148	0.064339	-0.005631	0.045178	0.888166	-0.008809	-0.455222	0.062098	-7.029575	-53.855474	11.572768
07805		6.403346	-0.332838	4.413467	0.167880	0.243988	-2.034218	-0.129966	0.192190	-0.206355	-0.405762	0.015625	-0.824951	0.064072	-0.003366	0.044075	0.888640	-0.009011	-0.454458	0.060882	-6.933164	-53.765160	11.356460
07806		6.198743	-0.054274	4.384391	0.062460	0.493765	-2.236243	-0.073458	0.221866	-0.194497	-0.403320	0.013672	-0.824951	0.062035	-0.000587	0.043775	0.889254	-0.009377	-0.453443	0.059408	-6.835125	-53.642873	11.102992
07807		6.010079	0.288436	4.463529	-0.127481	0.804045	-2.365233	-0.055975	0.226639	-0.149908	-0.400879	0.007080	-0.829346	0.060153	0.002852	0.044566	0.889788	-0.009390	-0.452498	0.058608	-6.738611	-53.528661	10.938529
07808		6.009172	0.470544	4.416636	-0.090297	0.985282	-2.405981	-0.062351	0.163520	-0.078623	-0.403320	0.013672	-0.831543	0.060130	0.004696	0.044116	0.890237	-0.009832	-0.451716	0.057739	-6.715244	-53.430355	10.804351
07809		6.312890	0.637616	4.335156	0.146367	1.189696	-2.222173	-0.071304	0.083813	-0.006439	-0.401123	0.013672	-0.831543	0.063147	0.006390	0.043323	0.890404	-0.010196	-0.451403	0.057550	-6.751411	-53.387636	10.793781
07810		6.717127	0.541507	4.192158	0.514911	1.151299	-1.977090	-0.102453	0.062603	0.050329	-0.401367	0.015869	-0.831543	0.067183	0.005453	0.041898	0.890580	-0.011155	-0.451093	0.057086	-6.865372	-53.340193	10.786732
07811		7.051251	0.339519	3.859667	0.998666	1.008530	-1.893220	-0.131694	0.014121	0.083220	-0.407715	0.009033	-0.833740	0.070514	0.003450	0.038589	0.890559	-0.011970	-0.451102	0.057163	-7.010985	-53.330891	10.869395
07812		7.261929	0.246568	3.313426	1.572137	0.967288	-2.043008	-0.177058	0.024566	0.072642	-0.399170	0.020508	-0.824951	0.072622	0.002521	0.033123	0.890614	-0.013206	-0.451016	0.056707	-7.179451	-53.308646	10.893598
07813		7.239120	0.407949	3.141838	1.685332	1.140429	-2.177146	-0.179082	0.081182	0.044272	-0.396973	0.018311	-0.831543	0.072403	0.004124	0.031385	0.890752	-0.014164	-0.450741	0.056499	-7.315863	-53.263753	10.930929
07814		7.224020	0.652138	3.243042	1.581349	1.386865	-2.150768	-0.209518	0.057690	-0.000334	-0.397217	0.022705	-0.824951	0.072250	0.006555	0.032403	0.890920	-0.015461	-0.450481	0.055588	-7.450196	-53.222404	10.877115
07815		7.222888	0.859025	3.337596	1.491230	1.596319	-2.113624	-0.212699	0.044489	-0.041640	-0.404053	0.026855	-0.824951	0.072238	0.008611	0.033351	0.890994	-0.016365	-0.450383	0.054924	-7.543967	-53.204639	10.837127
07816		7.123511	0.968531	3.462861	1.329645	1.695995	-2.129622	-0.202503	0.068412	-0.064087	-0.399658	0.029297	-0.824951	0.071250	0.009698	0.034594	0.891153	-0.017432	-0.450153	0.053894	-7.630184	-53.171329	10.744403
07817		6.904919	1.021086	3.591403	1.099679	1.725416	-2.234275	-0.226780	0.064935	-0.068132	-0.397461	0.029297	-0.831543	0.069064	0.010228	0.035880	0.891277	-0.018345	-0.449969	0.053078	-7.709912	-53.144038	10.676686
07818		6.845319	0.761424	3.637448	1.053491	1.466650	-2.235862	-0.318272	-0.007119	-0.061071	-0.393311	0.033936	-0.835938	0.068454	0.007651	0.036365	0.891273	-0.019997	-0.450071	0.051661	-7.872880	-53.149733	10.577472
07819		7.083993	0.408522	3.923302	0.985354	1.147467	-1.846852	-0.348149	-0.132365	-0.065273	-0.395020	0.027344	-0.833740	0.070815	0.004130	0.039273	0.890935	-0.021406	-0.450794	0.050604	-8.045041	-53.234349	10.538299
07820		7.518340	0.079698	4.532900	0.762538	0.869816	-1.109763	-0.214726	-0.215387	-0.065480	-0.400146	0.038086	-0.831543	0.075135	0.000821	0.045409	0.890539	-0.022637	-0.451681	0.049108	-8.154816	-53.346085	10.414488
07821		8.140606	-0.135584	5.229202	0.556626	0.719160	-0.179136	-0.011006	-0.288521	-0.069522	-0.402588	0.040283	-0.827148	0.081330	-0.001381	0.052409	0.889882	-0.022498	-0.453013	0.048810	-8.147784	-53.519629	10.392777
07822		8.740041	-0.417899	5.346785	0.800662	0.494282	0.398364	0.070438	-0.358303	-0.080417	-0.404297	0.033691	-0.827148	0.087303	-0.004233	0.053623	0.889144	-0.022401	-0.454547	0.048036	-8.113216	-53.722774	10.299119
07823		9.043238	-0.490683	5.082172	1.158066	0.440782	0.498173	0.139849	-0.391919	-0.084156	-0.404541	0.035645	-0.822754	0.090330	-0.004980	0.050995	0.888267	-0.021534	-0.456301	0.048027	-8.019216	-53.956093	10.276764
07824		9.098081	-0.576390	5.083248	1.157683	0.345119	0.554917	0.114733	-0.381527	-0.094234	-0.413330	0.035400	-0.822754	0.090881	-0.005836	0.051003	0.887491	-0.021161	-0.457902	0.047296	-7.941272	-54.170959	10.167001
07825		9.001486	-1.063483	5.507817	0.748048	-0.169831	0.765839	0.130393	-0.385259	-0.125886	-0.420166	0.037354	-0.816162	0.089902	-0.010727	0.055244	0.886631	-0.020243	-0.459630	0.047079	-7.817698	-54.403686	10.101604
07826		9.027124	-0.656982	7.118260	-0.613579	0.193938	1.684088	0.450729	-0.286703	-0.176326	-0.417236	0.024170	-0.811523	0.090163	-0.006810	0.071297	0.886055	-0.018162	-0.460838	0.046964	-7.482608	-54.582362	9.932662
07827		9.219592	0.915973	9.045292	-2.211221	1.689938	2.832911	0.699826	-0.185388	-0.222926	-0.421631	0.019531	-0.809326	0.092122	0.008740	0.090569	0.885717	-0.014545	-0.461548	0.047607	-6.930300	-54.707973	9.741817
07828		9.852507	1.662061	9.297709	-2.142631	2.415448	3.448381	0.428550	-0.320307	-0.263171	-0.419189	0.015137	-0.811523	0.098398	0.016292	0.093170	0.885050	-0.012117	-0.462924	0.047335	-6.520143	-54.912426	9.513301
07829		10.917689	0.988963	9.091778	-1.361025	1.788376	4.250859	0.207594	-0.290407	-0.346139	-0.427490	0.006104	-0.807129	0.109062	0.009606	0.091086	0.884450	-0.010370	-0.464216	0.046302	-6.154339	-55.103939	9.206653
07830		11.324451	-0.338844	10.158102	-1.921356	0.406057	5.276643	0.368538	0.081514	-0.457777	-0.420898	0.004150	-0.807129	0.113277	-0.003835	0.101528	0.884758	-0.007849	-0.463812	0.044943	-5.572581	-55.086489	8.723760
07831		10.950453	-2.217098	10.834844	-2.535380	-1.612953	5.457905	0.402784	0.076300	-0.600404	-0.418213	-0.000244	-0.807129	0.109478	-0.022718	0.108261	0.885061	-0.004733	-0.463441	0.043218	-4.853745	-55.078503	8.123205
07832		10.997036	-4.187055	8.566349	-0.524475	-3.601979	4.279797	0.155632	-0.358482	-0.732160	-0.422607	-0.002686	-0.809326	0.109662	-0.042339	0.085827	0.884403	-0.002443	-0.464989	0.040135	-4.196687	-55.313647	7.396693
07833		9.949893	-4.102893	5.622725	1.273698	-3.597324	1.714894	0.478934	-0.012836	-0.743548	-0.415039	-0.020264	-0.800537	0.099342	-0.041533	0.056135	0.884500	0.001364	-0.464991	0.037961	-3.316564	-55.353238	6.654872
07834		7.452409	-1.954265	5.853035	-0.435902	-1.723822	-0.302015	0.807526	0.610111	-0.645270	-0.406250	-0.019775	-0.813721	0.074638	-0.020019	0.058223	0.886057	0.006167	-0.462075	0.036758	-2.303168	-55.015085	5.950604
07835		5.308370	-0.394577	7.019062	-2.663045	-0.427423	-1.426593	0.670525	0.551368	-0.479023	-0.412109	-0.035645	-0.811523	0.053267	-0.004308	0.070030	0.887369	0.010100	-0.459525	0.036202	-1.522243	-54.712895	5.460045
07836		4.815480	0.182968	7.538914	-3.388176	0.042134	-1.531633	0.372578	-0.131251	-0.343085	-0.414307	-0.037842	-0.811523	0.048108	0.001607	0.075424	0.887184	0.012282	-0.459919	0.035049	-1.037958	-54.778287	5.062530
07837		6.115060	-0.066685	6.879507	-2.119699	-0.143694	-0.856581	0.156785	-0.682696	-0.295356	-0.416016	-0.044678	-0.807129	0.060914	-0.000811	0.069003	0.885632	0.013733	-0.462934	0.034058	-0.723172	-55.176372	4.782399
07838		8.023105	-0.446098	6.390785	-0.671841	-0.435118	0.423040	0.018177	-0.745715	-0.276781	-0.423096	-0.038330	-0.809326	0.079986	-0.004578	0.064206	0.883977	0.014486	-0.466166	0.032605	-0.485576	-55.599201	4.480803
07839		9.686229	-0.810005	5.940451	0.588232	-0.724327	1.540594	-0.089591	-0.612810	-0.234902	-0.433838	-0.047607	-0.793945	0.096670	-0.008187	0.059705	0.882571	0.014695	-0.468905	0.031313	-0.350746	-55.955654	4.250283
07840		10.720210	-0.971579	5.727791	1.294134	-0.850171	2.281802	-0.051223	-0.388478	-0.143409	-0.436523	-0.041016	-0.798340	0.107084	-0.009778	0.057488	0.881692	0.014832	-0.470608	0.030460	-0.259010	-56.177516	4.095541
07841		10.855691	-1.093354	6.434326	0.761874	-1.015555	2.790098	0.060286	-0.092681	-0.022082	-0.438232	-0.049805	-0.800537	0.108526	-0.010965	0.064390	0.881454	0.015121	-0.471041	0.030497	-0.213850	-56.235027	4.077416
07842		10.324937	-1.623634	6.790922	0.205607	-1.589941	2.548014	0.140617	0.037125	0.075978	-0.438477	-0.047607	-0.798340	0.103268	-0.016245	0.067879	0.881510	0.015568	-0.470880	0.031149	-0.194511	-56.216105	4.151448
