// General information: 
//  MT Manager version: 2019.2.0 
//  XDA version: 2019.2.0 build 3853 rev 94535 built on 2019-09-09
// Device information: 
//  DeviceId: 00B40ACF
//  ProductCode: MTW2-3A7G6
//  Firmware Version: 4.3.5
//  Hardware Version: 1.1.0
// Device settings: 
//  Filter Profile: human(46.1)
//  Option Flags: Orientation Smoother Disabled, AHS Disabled, ICC Disabled
// Coordinate system: ENU
PacketCounter	SampleTimeFine	Acc_X	Acc_Y	Acc_Z	FreeAcc_E	FreeAcc_N	FreeAcc_U	Gyr_X	Gyr_Y	Gyr_Z	Mag_X	Mag_Y	Mag_Z	VelInc_X	VelInc_Y	VelInc_Z	Quat_q0	Quat_q1	Quat_q2	Quat_q3	Roll	Pitch	Yaw
31100		13.700731	-36.136947	-9.735255	0.000000	-0.000000	30.040942	-1.719878	-0.686555	0.742764	-0.875000	0.224365	-0.543945	0.138676	-0.361673	-0.093769	-0.332223	0.156950	0.770070	-0.521523	-104.534747	-20.362811	141.137045
31101		17.272390	-42.726177	-12.107105	-0.000000	-0.000000	37.834938	-1.494329	-0.485722	2.417142	-0.869873	0.260010	-0.533203	0.178166	-0.426017	-0.117457	-0.344927	0.157339	0.773628	-0.507711	-105.413987	-21.957830	140.198837
31102		24.840420	-32.252872	-14.072628	-5.030128	11.426802	31.409081	-0.636913	-0.263221	4.036446	-0.862061	0.291260	-0.544189	0.255035	-0.317871	-0.139376	-0.331004	0.171775	0.767895	-0.520833	-104.621293	-19.233667	139.865471
31103		25.240568	23.172732	4.574312	-23.017998	21.306855	-24.339879	1.447882	0.658479	3.903256	-0.860840	0.322266	-0.551025	0.247977	0.236261	0.046621	-0.324538	0.186041	0.759513	-0.532170	-103.492742	-17.155840	138.908503
31104		18.969177	4.287880	10.999360	-21.477287	6.095990	-10.666103	-0.979338	-0.648387	2.828303	-0.843994	0.344727	-0.538086	0.188698	0.046092	0.110386	-0.321003	0.194109	0.761277	-0.528900	-104.150287	-16.464194	138.528014
31105		8.115307	-10.132497	-0.979055	-4.908112	2.222082	2.037905	-1.105977	-0.955901	3.525379	-0.844971	0.371338	-0.527100	0.082966	-0.099924	-0.008842	-0.306911	0.206739	0.762176	-0.531180	-104.791089	-14.371531	138.554542
31106		6.239526	-7.881752	-5.495810	-0.452578	4.816391	0.572052	-1.175478	-1.412805	3.034181	-0.829834	0.389160	-0.520752	0.063968	-0.078174	-0.054049	-0.309668	0.205792	0.764509	-0.526576	-105.215220	-14.877800	138.469904
31107		13.087342	-6.199179	-2.191068	-7.996484	7.736431	-0.289276	0.011193	-0.794217	3.041663	-0.819824	0.416016	-0.511963	0.131882	-0.059990	-0.021392	-0.298598	0.215284	0.762485	-0.532080	-105.204300	-13.076716	138.451250
31108		12.971748	-4.851076	0.855073	-9.778086	6.052000	-2.048862	0.193378	-0.835092	3.078270	-0.813965	0.438232	-0.507813	0.130407	-0.046516	0.009049	-0.312616	0.216627	0.766692	-0.517231	-106.183873	-14.789431	137.310626
31109		10.715742	-2.982678	-0.195981	-7.556464	6.091691	-4.377019	0.262969	-0.823486	2.408507	-0.807861	0.456055	-0.503418	0.107513	-0.028531	-0.001556	-0.303489	0.223301	0.764627	-0.522853	-106.050775	-13.332718	137.382982
31110		9.340668	-8.025425	0.692148	-6.893307	2.354808	0.140600	0.446712	-0.820176	1.769827	-0.799316	0.465088	-0.501221	0.094083	-0.079439	0.007128	-0.331969	0.215943	0.773175	-0.495343	-107.622926	-17.422116	135.999133
31111		8.985557	0.394907	-1.008311	-5.465994	6.744685	-7.254714	0.444342	-0.989508	1.225964	-0.797363	0.469482	-0.485840	0.089877	0.004522	-0.009629	-0.325576	0.217487	0.772368	-0.500148	-107.468872	-16.581451	136.342966
31112		8.854062	-1.024795	-1.419186	-4.667594	6.140815	-5.126319	0.362159	-0.565521	0.737864	-0.794922	0.469727	-0.485840	0.088617	-0.009896	-0.013959	-0.363220	0.202875	0.779415	-0.468429	-108.714489	-22.094304	134.881656
31113		10.132851	-2.641453	-0.713015	-6.053419	5.811812	-3.508841	-0.088639	-0.561785	0.750137	-0.788818	0.485107	-0.481689	0.101446	-0.026037	-0.006834	-0.359179	0.204641	0.779873	-0.470011	-108.831977	-21.583785	135.060960
31114		11.727345	-2.329221	-1.397114	-5.881203	6.974026	-1.958959	-0.041481	-0.438211	0.882775	-0.793457	0.485107	-0.483887	0.117405	-0.022777	-0.013709	-0.400030	0.189274	0.785324	-0.432917	-110.152902	-27.673140	133.383082
31115		10.878483	-1.170775	-1.834746	-5.136258	7.335157	-3.263492	-0.097196	-0.513417	0.715080	-0.784668	0.491943	-0.479492	0.108872	-0.011327	-0.018062	-0.396371	0.191163	0.785877	-0.434448	-110.278384	-27.187019	133.534582
31116		11.227655	-1.018368	-2.006424	-4.455811	7.229918	-2.131770	-0.178829	-0.457952	0.576077	-0.784668	0.491943	-0.470703	0.112351	-0.009878	-0.019798	-0.439197	0.173388	0.789163	-0.392766	-111.596170	-33.848164	131.847996
31117		12.080298	-0.971358	-2.168313	-4.853207	7.885158	-1.697957	-0.199040	-0.412260	0.523812	-0.789307	0.496338	-0.466309	0.120872	-0.009418	-0.021425	-0.436367	0.175082	0.790000	-0.393486	-111.782522	-33.481997	131.978438
31118		10.957507	-1.182628	-2.140676	-3.443880	6.407037	-1.260653	-0.149716	-0.404974	0.403341	-0.787354	0.500732	-0.466309	0.109642	-0.011621	-0.021176	-0.477403	0.157106	0.790387	-0.350275	-113.005528	-40.136067	130.332189
31119		10.753535	-1.184294	-2.207285	-3.329484	6.331018	-1.401641	0.015440	-0.325706	0.311885	-0.785400	0.507324	-0.455322	0.107589	-0.011673	-0.021899	-0.475580	0.157731	0.790890	-0.351335	-113.082135	-39.898585	130.465082
31120		10.674842	0.158183	-1.696215	-3.149899	6.485773	-1.758670	0.247142	-0.179623	0.262117	-0.792236	0.511719	-0.457764	0.106761	0.001743	-0.016864	-0.511728	0.140622	0.787719	-0.312825	-113.777969	-45.907365	128.875710
31121		11.250404	0.179069	-1.155066	-3.901851	6.642579	-1.530810	0.405513	-0.043428	0.171828	-0.794678	0.513916	-0.459961	0.112505	0.001911	-0.011522	-0.511572	0.140192	0.787073	-0.314891	-113.528413	-45.807209	128.851723
31122		11.735240	0.128282	-0.717485	-3.797231	6.159898	-0.545341	0.582385	0.012539	0.225963	-0.796875	0.513672	-0.459961	0.117350	0.001436	-0.007178	-0.543451	0.123856	0.781410	-0.280571	-113.725914	-51.243576	127.218015
31123		11.484674	1.316340	-1.036527	-3.552159	7.122035	-1.364996	0.685399	-0.066210	0.289949	-0.796875	0.518311	-0.459961	0.114831	0.013365	-0.010282	-0.543206	0.123033	0.780443	-0.284076	-113.294106	-51.076114	127.167813
31124		11.959718	1.369000	-0.717813	-3.391895	6.792489	-0.443528	0.779833	-0.144615	0.363331	-0.794678	0.516113	-0.457764	0.119577	0.013935	-0.007038	-0.569960	0.107679	0.774035	-0.253811	-113.240912	-55.860952	125.651649
31125		11.431810	0.832885	0.118442	-3.973716	5.901114	-0.824912	0.638671	-0.307264	0.422179	-0.794922	0.522705	-0.455566	0.114298	0.008566	0.001387	-0.568575	0.107102	0.773866	-0.257649	-112.973246	-55.569388	125.770581
31126		10.744845	0.307933	-0.875106	-2.258185	4.926439	-0.488380	0.509389	-0.456092	0.430245	-0.801514	0.522705	-0.464355	0.107461	0.003332	-0.008498	-0.589892	0.093837	0.768420	-0.229682	-113.180098	-59.707674	124.602461
31127		9.853892	0.650635	-0.574165	-2.387015	4.816547	-1.508786	0.452236	-0.484677	0.482625	-0.811035	0.531250	-0.466553	0.098536	0.006757	-0.005488	-0.587682	0.093800	0.769097	-0.233069	-113.169895	-59.344190	124.891267
31128		9.290538	1.503065	-1.540284	-1.056672	5.201860	-1.889970	0.393295	-0.425778	0.519191	-0.818115	0.542236	-0.468994	0.092898	0.015302	-0.015175	-0.604923	0.082359	0.763635	-0.210112	-113.154006	-62.781843	123.820047
31129		8.794534	1.198170	-2.068674	-0.430060	4.897636	-2.138921	0.410624	-0.333713	0.556830	-0.816650	0.564453	-0.468994	0.087946	0.012269	-0.020515	-0.603228	0.082892	0.763978	-0.213499	-113.016718	-62.413397	123.930414
31130		8.645571	0.990374	-3.074261	0.873618	4.533822	-1.821525	0.446198	-0.280727	0.564803	-0.817627	0.584473	-0.456055	0.086470	0.010216	-0.030599	-0.616319	0.073279	0.759767	-0.193738	-113.243020	-65.247435	123.248525
31131		9.237892	-0.441425	-3.456160	1.254833	3.570829	-0.693882	0.510378	-0.238385	0.626162	-0.811279	0.597656	-0.445068	0.092433	-0.004037	-0.034462	-0.614989	0.073854	0.759771	-0.197692	-112.918355	-64.863863	123.212970
31132		9.228953	-0.018157	-3.095488	1.057680	3.569519	-0.818515	0.643258	-0.246730	0.704912	-0.802490	0.597900	-0.436279	0.092327	0.000243	-0.030841	-0.623753	0.068034	0.757265	-0.181255	-113.485437	-66.930364	122.859114
31133		9.174209	-0.071828	-2.896871	0.847110	3.541945	-0.907663	0.703632	-0.295731	0.729279	-0.796143	0.611328	-0.434082	0.091786	-0.000282	-0.028835	-0.622203	0.068332	0.757291	-0.186292	-113.060356	-66.479590	122.835240
31134		9.550347	-0.659208	-2.458531	0.551370	2.799346	-0.349765	0.815203	-0.276588	0.789670	-0.789795	0.620361	-0.431885	0.095562	-0.006115	-0.024479	-0.628166	0.064162	0.755720	-0.173718	-113.674265	-67.993763	122.727028
31135		9.548032	-0.135583	-2.354824	0.351164	3.356952	-0.574984	0.896917	-0.279393	0.817629	-0.781250	0.631592	-0.432129	0.095517	-0.000860	-0.023419	-0.626676	0.064191	0.755541	-0.179761	-113.065356	-67.500255	122.624370
31136		10.076427	-0.466291	-2.226708	0.257390	3.006014	0.066920	0.950875	-0.280423	0.865502	-0.777100	0.638184	-0.429932	0.100814	-0.004121	-0.022146	-0.630736	0.060594	0.754600	-0.170527	-113.650922	-68.629049	122.725267
31137		10.208976	0.679788	-1.714053	-0.452704	4.123504	-0.304064	0.974666	-0.289803	0.927799	-0.762207	0.660645	-0.423340	0.102081	0.007354	-0.016958	-0.629132	0.060772	0.754384	-0.177214	-112.946962	-68.075161	122.568711
31138		10.188054	0.973000	-1.910448	-0.221933	4.287620	-0.328031	0.873403	-0.322254	1.011920	-0.760254	0.667480	-0.429932	0.101860	0.010328	-0.018896	-0.631850	0.058256	0.754024	-0.169765	-113.582273	-68.920135	122.782600
31139		10.637193	0.203655	-1.598195	-0.567962	3.760800	0.250994	0.825095	-0.292538	1.183275	-0.745117	0.683105	-0.425781	0.106380	0.002731	-0.015816	-0.629966	0.059860	0.753882	-0.176694	-112.821433	-68.230995	122.473129
31140		11.048342	0.506155	-1.278527	-0.940082	4.008479	0.531526	0.765489	-0.259756	1.376007	-0.734619	0.703369	-0.421387	0.110461	0.005870	-0.012620	-0.631992	0.059210	0.753550	-0.171001	-113.222436	-68.784550	122.448124
31141		11.616687	0.856928	-1.140163	-1.280216	4.641031	0.855045	0.691130	-0.196221	1.568484	-0.717285	0.714844	-0.419189	0.116106	0.009519	-0.011256	-0.630093	0.062766	0.753087	-0.178613	-112.213394	-67.912198	121.788557
31142		11.851980	1.833470	-0.881295	-1.630620	5.526420	0.742103	0.626606	-0.142618	1.738358	-0.695313	0.732910	-0.421387	0.118361	0.019391	-0.008669	-0.632083	0.063910	0.752341	-0.174270	-112.231574	-68.249793	121.347044
31143		12.158655	1.370469	-0.436970	-2.110707	5.306214	1.017195	0.555137	-0.104608	1.911647	-0.689453	0.755127	-0.421631	0.121450	0.014878	-0.004266	-0.630170	0.069252	0.751539	-0.182425	-111.062890	-67.209644	120.427910
31144		12.224398	1.554587	0.580628	-3.051878	5.309047	0.896394	0.525981	-0.064059	2.089464	-0.661133	0.773682	-0.432617	0.122071	0.016806	0.005888	-0.632384	0.071775	0.750273	-0.178968	-110.747974	-67.402950	119.614217
31145		12.649032	1.238277	1.108234	-3.644450	5.299310	1.204943	0.449002	0.017748	2.261637	-0.641357	0.789307	-0.423828	0.126341	0.013787	0.011101	-0.630546	0.078850	0.748954	-0.187785	-109.430099	-66.189442	118.460333
31146		13.139075	2.669706	0.717951	-3.397093	6.899365	1.193129	0.416825	0.058512	2.417765	-0.614990	0.805420	-0.430420	0.131057	0.028268	0.007199	-0.633545	0.082656	0.746635	-0.185270	-108.632218	-66.266382	117.136216
31147		14.006174	3.588751	0.260793	-3.236838	8.412693	1.494747	0.402138	0.104060	2.572980	-0.600098	0.821289	-0.421631	0.139586	0.037680	0.002610	-0.631663	0.091077	0.744806	-0.194862	-107.276238	-64.882313	115.900106
31148		15.039251	4.119386	0.080624	-3.116399	9.374487	2.251595	0.384817	0.162943	2.727099	-0.564697	0.837646	-0.434814	0.149813	0.043238	0.000766	-0.635390	0.095663	0.741631	-0.192642	-106.200437	-64.903325	114.257416
31149		16.363525	4.093692	0.448502	-3.709587	10.164994	3.133966	0.436963	0.316489	2.944104	-0.552002	0.855469	-0.434814	0.163016	0.043330	0.004320	-0.633866	0.105485	0.738714	-0.203442	-104.664720	-63.325493	112.828877
31150		17.455123	5.413993	0.666581	-3.955630	11.866689	3.526861	0.542671	0.513502	3.184390	-0.518799	0.869385	-0.432617	0.173677	0.056892	0.006371	-0.639140	0.110832	0.733724	-0.202151	-103.009389	-63.264767	110.620479
31151		17.933581	7.439371	0.186347	-3.716226	14.387707	2.682937	0.785024	0.666270	3.343394	-0.490234	0.890137	-0.441406	0.178064	0.077371	0.001569	-0.638542	0.121245	0.728837	-0.215315	-101.082558	-61.470885	108.953547
31152		18.237176	8.423252	-0.011739	-3.310601	15.544797	2.471595	1.161593	0.834392	3.503116	-0.466309	0.908203	-0.452393	0.180858	0.087411	-0.000373	-0.645315	0.125254	0.721822	-0.216454	-98.803610	-61.328194	106.436578
31153		17.035239	8.720423	-0.418204	-2.763057	15.728894	0.739394	1.607645	0.907873	3.624998	-0.441895	0.915527	-0.476563	0.168715	0.090306	-0.004233	-0.645542	0.134105	0.714734	-0.233338	-96.491875	-59.338841	104.836555
31154		15.708600	8.555375	-2.486423	-0.300602	15.381435	-0.356761	1.613320	0.755965	3.786602	-0.415527	0.933838	-0.476563	0.155333	0.088706	-0.024746	-0.651318	0.137043	0.707510	-0.237555	-94.300660	-58.927878	102.761557
31155		17.730322	2.617323	-4.172767	1.776895	12.120165	3.917335	1.239836	0.456500	4.321113	-0.377930	0.947998	-0.491943	0.176583	0.030253	-0.041952	-0.648485	0.148798	0.701410	-0.255638	-92.930169	-56.473535	101.980900
31156		22.275792	-0.316878	-4.265015	1.880828	12.460778	9.044320	1.303281	0.394828	4.807318	-0.351318	0.959717	-0.502930	0.222659	0.002464	-0.043086	-0.649612	0.156121	0.695571	-0.264220	-91.645361	-55.205190	100.834224
31157		23.921727	2.493994	-1.652899	-1.280377	16.145254	8.041592	1.138103	0.443855	4.839452	-0.315674	0.971436	-0.515869	0.238482	0.030812	-0.016895	-0.645449	0.169791	0.688632	-0.283466	-90.572015	-52.437917	100.312628
31158		22.799818	4.520251	-2.601196	-0.393205	17.658431	5.515887	0.791839	0.310099	4.389975	-0.289063	0.978760	-0.524658	0.226891	0.050295	-0.026172	-0.644915	0.177437	0.684171	-0.290707	-89.922000	-51.196495	99.664414
31159		20.273749	5.482532	-4.102812	1.135808	17.670620	2.200413	-0.011106	-0.088360	4.067563	-0.269043	0.985596	-0.522461	0.201585	0.058931	-0.040942	-0.638558	0.191221	0.680722	-0.303802	-89.990884	-48.866103	99.745950
31160		15.794961	4.869130	-6.083368	3.652360	14.843656	-1.066546	-0.376065	-0.424627	3.654495	-0.246826	0.990723	-0.529053	0.157155	0.051454	-0.060594	-0.634530	0.199084	0.681082	-0.306372	-90.599885	-47.931711	99.924141
31161		12.387789	5.037316	-5.244124	3.110943	12.815114	-4.119203	0.446375	-0.225333	2.658556	-0.235840	0.997559	-0.529053	0.123252	0.052131	-0.052187	-0.630077	0.206357	0.678405	-0.316522	-90.468079	-46.407460	100.093131
31162		16.029149	5.339670	-0.949994	-1.638417	14.822035	-1.815523	0.206179	-0.190761	2.608489	-0.231445	1.001953	-0.537842	0.159586	0.055491	-0.009291	-0.627682	0.209536	0.678496	-0.318987	-90.701844	-45.896251	100.281645
31163		10.501533	-4.300786	-6.763937	5.849184	5.415718	0.722047	1.015979	-0.224828	1.786877	-0.229248	1.000000	-0.553223	0.105468	-0.041723	-0.067735	-0.625101	0.212039	0.675673	-0.328259	-90.241733	-44.871564	100.453021
31164		10.214621	-3.052512	-3.743127	2.788189	5.618987	-0.415059	2.498784	0.445023	1.130081	-0.220215	1.000244	-0.583740	0.102231	-0.029475	-0.038031	-0.628660	0.204516	0.671563	-0.334607	-88.836358	-45.032339	100.263604
31165		8.311921	11.030861	-1.108750	-1.662445	13.619378	-11.747405	1.928881	0.311068	-0.020299	-0.235840	1.004639	-0.601563	0.083114	0.110401	-0.010152	-0.631682	0.198894	0.667348	-0.340685	-87.552471	-45.038501	100.010980
31166		6.705982	16.325071	-1.168119	-2.438558	16.262060	-16.326994	0.683469	-0.127230	-1.262533	-0.251709	1.006592	-0.605957	0.068096	0.162862	-0.011081	-0.634883	0.188399	0.670233	-0.334988	-87.455382	-46.453588	100.272447
31167		4.263866	10.039773	-0.889921	-1.399945	10.185506	-13.562570	0.067784	-0.131523	-1.883807	-0.271729	1.001709	-0.605957	0.043588	0.099993	-0.008837	-0.637634	0.181641	0.672282	-0.329343	-87.445793	-47.535380	100.312404
31168		1.271213	5.236441	0.084010	-1.153399	4.637459	-12.303874	-0.305296	0.050181	-2.005702	-0.296143	0.994629	-0.614746	0.013237	0.052235	0.000757	-0.641610	0.172129	0.676416	-0.318072	-87.742953	-49.331398	100.379995
31169		1.048420	4.070377	0.456019	-1.272901	3.607266	-11.613130	-0.640699	0.072961	-2.342076	-0.331787	0.987305	-0.606201	0.010962	0.040592	0.004426	-0.644983	0.166366	0.679167	-0.308304	-88.000895	-50.671010	100.237459
31170		2.009167	4.393860	0.218507	-1.181334	4.554860	-10.929184	-0.780787	0.115225	-2.814789	-0.358398	0.977783	-0.608398	0.020709	0.043658	0.002002	-0.649635	0.156273	0.683706	-0.293425	-88.459754	-52.807676	100.205648
31171		2.393721	4.991906	0.209402	-1.276639	5.294110	-10.828770	-0.860588	0.216316	-3.343053	-0.391602	0.963867	-0.599609	0.024769	0.049518	0.001854	-0.654510	0.147934	0.686776	-0.279410	-88.719478	-54.719666	99.916279
31172		2.700276	5.751449	0.243445	-1.416673	6.125975	-10.756053	-0.980248	0.296275	-3.901705	-0.424561	0.943115	-0.595215	0.028121	0.056984	0.002113	-0.660655	0.135320	0.690937	-0.260441	-89.086557	-57.400430	99.664554
31173		3.451912	6.474856	-0.054966	-1.235198	7.220256	-10.231397	-1.067870	0.405039	-4.423062	-0.466797	0.928955	-0.584229	0.035938	0.063960	-0.000964	-0.666919	0.124059	0.693802	-0.241800	-89.257150	-59.931257	99.147926
31174		4.580363	6.706194	-0.239443	-1.088033	8.004689	-8.954094	-1.103387	0.510510	-4.904551	-0.503662	0.899414	-0.586426	0.047422	0.065897	-0.002880	-0.674190	0.108697	0.696951	-0.218887	-89.380015	-63.147261	98.569220
31175		6.126885	6.209137	-0.503053	-0.743588	8.214926	-6.933764	-1.117555	0.546604	-5.326273	-0.540771	0.872070	-0.579834	0.062878	0.060401	-0.005542	-0.681064	0.094462	0.698966	-0.196660	-89.283485	-66.195405	97.754093
31176		7.364295	5.070140	-0.605103	-0.427148	7.453804	-4.858796	-1.051430	0.500512	-5.699835	-0.582031	0.833496	-0.577393	0.075031	0.048543	-0.006497	-0.687987	0.076005	0.701173	-0.171037	-89.141758	-69.850386	96.968777
31177		8.046122	3.518380	-0.600928	-0.133598	5.910858	-3.293519	-0.939762	0.416385	-6.086631	-0.621338	0.801758	-0.566406	0.081468	0.032685	-0.006336	-0.693966	0.058220	0.702523	-0.146568	-88.772686	-73.333185	96.012549
31178		8.653585	2.569917	-0.925931	0.402234	4.729505	-2.080483	-0.865565	0.336003	-6.475774	-0.655518	0.759033	-0.570557	0.087290	0.022840	-0.009509	-0.699446	0.036177	0.703804	-0.118853	-88.238386	-77.407859	94.982078
31179		9.916364	2.150276	-1.202853	0.820543	4.059994	-0.474233	-0.807078	0.311196	-6.832151	-0.692139	0.718262	-0.568359	0.099801	0.018051	-0.012261	-0.704040	0.015123	0.704014	-0.091996	-86.861161	-81.311939	93.111119
31180		11.434339	2.212215	-1.802010	1.524364	3.629411	1.292639	-0.842490	0.288251	-7.192866	-0.728271	0.666504	-0.563721	0.115012	0.017917	-0.018267	-0.707791	-0.009530	0.703638	-0.061920	-82.569936	-85.740667	88.365865
31181		13.848890	2.769436	-2.404809	2.234033	3.496741	3.895995	-0.811546	0.405488	-7.558862	-0.757813	0.612793	-0.556885	0.139352	0.022339	-0.024428	-0.711083	-0.033115	0.701585	-0.032294	7.591913	-89.227519	-2.289952
31182		16.349439	2.383498	-3.064213	3.149571	1.917372	6.577342	-0.825580	0.483921	-7.835162	-0.793701	0.558838	-0.558838	0.164182	0.017283	-0.031119	-0.713318	-0.060004	0.698267	-0.000317	78.294249	-85.010672	-73.400342
31183		19.198084	1.006649	-3.891009	4.382273	-1.037963	9.272224	-0.853862	0.480871	-7.958068	-0.816162	0.500732	-0.556396	0.192080	0.002256	-0.039393	-0.714692	-0.084689	0.693606	0.030897	81.848718	-80.468712	-77.473798
31184		21.674006	-0.254475	-4.346827	5.220172	-4.358924	11.216052	-1.113776	0.429749	-7.975886	-0.838623	0.440430	-0.553955	0.216308	-0.011422	-0.043886	-0.714261	-0.110868	0.688105	0.063645	83.404775	-75.664121	-79.547517
31185		25.562143	-3.490361	-4.770359	6.164093	-10.221007	13.543959	-1.709554	0.186479	-7.785918	-0.854248	0.382324	-0.558105	0.253950	-0.045220	-0.047584	-0.712805	-0.131518	0.682034	0.097172	83.747134	-71.218639	-80.926088
31186		31.885231	-12.395997	-4.056797	6.098582	-22.658537	15.399465	-1.952445	0.029165	-7.135094	-0.863281	0.326660	-0.553223	0.314146	-0.135613	-0.039328	-0.709518	-0.151149	0.676141	0.128734	84.126250	-67.006829	-82.272667
31187		35.143340	-18.746605	-2.550762	4.655270	-31.553028	14.170589	-1.468975	0.037649	-6.232876	-0.877441	0.284180	-0.539795	0.345357	-0.198474	-0.024142	-0.706380	-0.166955	0.670005	0.155715	84.036147	-63.452130	-83.100329
31188		31.333242	-23.437138	-6.848024	8.448344	-35.188845	6.555036	-1.317930	-0.290470	-5.593803	-0.880127	0.237549	-0.539551	0.306705	-0.243455	-0.066447	-0.701377	-0.181715	0.665787	0.178262	84.498382	-60.359996	-84.208939
31189		22.025798	-26.702499	-11.613995	12.251037	-34.072580	-5.145642	-0.943765	-0.642830	-4.656901	-0.885498	0.199707	-0.534912	0.214323	-0.272604	-0.114167	-0.695742	-0.193283	0.662778	0.198268	84.977353	-57.736414	-85.397811
31190		16.359974	-31.693077	-8.604320	8.654871	-35.461619	-13.501561	-0.560313	-0.952441	-2.948181	-0.886963	0.181885	-0.521729	0.159307	-0.319538	-0.084385	-0.689766	-0.200168	0.664136	0.207555	86.090588	-56.419054	-86.715745
31191		11.505573	-35.911584	-4.024729	3.507112	-36.241571	-20.416612	-0.435784	-1.023433	-1.311964	-0.877930	0.177490	-0.517334	0.112898	-0.359947	-0.038882	-0.685416	-0.201954	0.665876	0.214545	86.780076	-55.704973	-87.847796
31192		8.813026	-33.367101	-5.676281	5.075265	-32.690641	-21.162196	-0.555838	-0.741767	-0.097122	-0.882568	0.179688	-0.508545	0.088176	-0.333869	-0.055508	-0.683275	-0.198219	0.669814	0.212585	87.514935	-56.207584	-88.731528
31193		17.631614	-23.554068	-9.145686	8.693733	-29.522575	-8.349380	-0.083550	-0.792701	0.607888	-0.873779	0.184326	-0.501953	0.177391	-0.235041	-0.090657	-0.681340	-0.195054	0.673027	0.211573	88.130011	-56.572656	-89.527596
31194		10.811221	-26.685265	-4.701551	4.180195	-28.404810	-14.986275	0.036845	-0.582868	1.476305	-0.876709	0.204102	-0.493408	0.110214	-0.266036	-0.046745	-0.680770	-0.187403	0.678971	0.201075	89.158522	-58.111903	-90.310708
31195		14.248520	-33.237400	-17.868640	17.018227	-36.225880	-14.808747	-0.615679	-0.884589	3.131433	-0.871094	0.230957	-0.500000	0.148457	-0.330627	-0.177019	-0.681398	-0.173763	0.684203	0.193310	89.617755	-59.911246	-91.257855
31196		31.685671	27.781080	10.839617	-10.660909	9.576738	31.269856	1.238339	1.707843	3.373668	-0.869629	0.257568	-0.515625	0.313038	0.282446	0.107451	-0.688867	-0.165399	0.685287	0.168781	89.245233	-62.661788	-89.527293
31197		34.524601	8.216676	14.832626	-14.492298	-7.701633	24.970672	-1.810867	0.449784	4.045320	-0.860107	0.297607	-0.515869	0.343803	0.090464	0.146758	-0.695148	-0.145641	0.685385	0.160640	87.551838	-64.971339	-88.796809
31198		20.602118	-20.831534	1.889361	-2.533956	-27.093118	1.198182	-2.430046	-0.950460	5.620634	-0.845947	0.340088	-0.498535	0.211660	-0.202161	0.022372	-0.697680	-0.113188	0.692348	0.145210	87.498086	-68.939554	-90.137468
31199		9.977649	-8.955134	-5.232628	4.643836	-12.083517	-3.526499	-1.467212	-2.096368	3.914922	-0.833496	0.364502	-0.474365	0.102045	-0.087944	-0.050615	-0.693905	-0.092967	0.700621	0.137781	89.826492	-71.210884	-93.507714
31200		11.328153	-7.852854	-2.681464	1.785104	-10.969187	-1.231320	-1.081543	-2.414183	3.798524	-0.828125	0.397705	-0.457031	0.115057	-0.076493	-0.025016	-0.688013	-0.069761	0.711535	0.124457	94.667692	-74.096818	-99.143725
31201		10.174139	-12.031467	-0.812590	-0.554169	-14.217755	-2.997949	-0.029168	-1.117842	4.136785	-0.811279	0.424805	-0.459473	0.104244	-0.118177	-0.007531	-0.686462	-0.054233	0.716642	0.110693	98.065554	-76.382377	-102.674091
31202		2.367833	0.585513	-0.014864	-0.065189	0.105413	-7.376753	0.046302	-1.141191	3.113605	-0.801025	0.447021	-0.446289	0.023584	0.006223	-0.000012	-0.674788	0.014413	0.723605	0.144392	104.105780	-78.731526	-117.063527
31203		11.203207	-4.983115	2.210797	-4.231109	-6.079969	0.205002	-0.112652	-0.621613	2.556364	-0.792725	0.467041	-0.437744	0.112587	-0.048382	0.022485	-0.674318	0.024489	0.725374	0.136118	108.032227	-80.041196	-121.123700
31204		14.404509	-8.018974	2.227440	-6.299151	-8.285848	3.164408	-0.180183	-1.007299	2.490475	-0.775635	0.487549	-0.435547	0.144914	-0.078368	0.023074	-0.663408	0.083166	0.725293	0.164084	117.312721	-81.738529	-137.503499
31205		8.475162	-4.594416	-3.537868	0.840983	-6.260659	-1.716574	0.062040	-0.896250	1.752244	-0.773682	0.496338	-0.431152	0.085307	-0.045187	-0.035011	-0.661589	0.090046	0.727553	0.157666	124.179026	-82.339947	-144.400498
31206		9.798996	-3.992502	-0.795386	-2.123187	-4.403315	-0.394923	-0.092455	-0.762290	1.085703	-0.767334	0.503174	-0.431152	0.098234	-0.039396	-0.007561	-0.651550	0.135055	0.723958	0.182009	134.058182	-83.002927	-160.018843
31207		11.137494	-2.569373	-1.586473	-0.989825	-3.394766	1.171673	-0.316715	-0.807361	1.060174	-0.763184	0.511963	-0.417969	0.111572	-0.025127	-0.015375	-0.649363	0.140657	0.725567	0.179152	140.105210	-83.077943	-166.293501
31208		10.079869	-1.609292	-3.004758	0.807003	-2.889601	0.396121	-0.285048	-0.745785	0.985693	-0.758789	0.514160	-0.413574	0.100988	-0.015638	-0.029649	-0.647523	0.150122	0.726914	0.172550	151.012944	-83.311477	-177.436664
31209		10.840894	-1.470128	-2.575828	0.363662	-2.468407	1.146092	-0.246360	-0.643972	0.779616	-0.754639	0.520996	-0.411377	0.108547	-0.014310	-0.025391	-0.645661	0.154307	0.728191	0.170435	155.643778	-83.182190	177.758030
31210		11.327918	-1.803855	-1.886751	-0.465288	-2.237324	1.585223	-0.423777	-0.653787	0.670659	-0.747803	0.520996	-0.400391	0.113400	-0.017698	-0.018459	-0.643586	0.162483	0.729384	0.165516	164.539114	-83.039275	168.588915
31211		11.262696	-0.210810	-3.149722	1.337187	-1.299987	1.734385	-0.276968	-0.558469	0.530709	-0.752686	0.529785	-0.396240	0.112719	-0.001852	-0.031180	-0.641758	0.165771	0.730515	0.164363	167.382574	-82.802544	165.563703
31212		12.972585	-0.856547	-3.577095	1.217860	-1.816203	3.492764	-0.005716	-0.344781	0.412277	-0.750244	0.527588	-0.402832	0.129805	-0.008299	-0.035547	-0.640819	0.170979	0.731289	0.159168	173.909100	-82.602048	159.033075
31213		13.317838	0.560201	-2.906134	1.215152	-0.166709	3.774787	0.177781	-0.268330	0.391984	-0.755127	0.534180	-0.396240	0.133206	0.005889	-0.028877	-0.640300	0.172057	0.731952	0.157031	175.824878	-82.468986	157.203647
31214		12.802928	-0.854950	-2.638936	0.425429	-1.151444	3.229655	0.308776	-0.181580	0.424415	-0.746094	0.534424	-0.396240	0.128071	-0.008237	-0.026286	-0.640138	0.175721	0.732504	0.150940	-178.368209	-82.245160	151.595726
31215		11.944932	-1.064448	-2.109228	-0.023351	-1.094465	2.314331	0.473293	-0.141054	0.424187	-0.748535	0.541016	-0.398438	0.119486	-0.010341	-0.021033	-0.640354	0.175867	0.732936	0.147723	-176.350202	-82.153173	149.832573
31216		11.374557	-0.429832	-1.680835	-0.017239	-0.225433	1.691188	0.618377	-0.097427	0.387976	-0.755371	0.538574	-0.398438	0.113762	-0.004026	-0.016766	-0.640708	0.178066	0.733440	0.140894	-171.224291	-81.898117	145.088699
31217		11.177902	0.668117	-1.636604	0.465927	0.814625	1.465141	0.779502	-0.050735	0.348354	-0.753662	0.552002	-0.394043	0.111771	0.006940	-0.016311	-0.641456	0.176882	0.733835	0.136872	-169.433124	-81.835843	143.730488
31218		11.399901	0.441665	-1.885458	0.596702	0.659905	1.716233	0.868383	-0.010099	0.318368	-0.757813	0.545166	-0.407227	0.113993	0.004680	-0.018829	-0.642288	0.177694	0.734214	0.129699	-165.019196	-81.589707	139.842262
31219		11.300021	0.092126	-2.038248	0.614601	0.317362	1.649196	0.859571	0.001975	0.268615	-0.757813	0.545166	-0.407227	0.112999	0.001161	-0.020379	-0.643226	0.175919	0.734518	0.125680	-163.523123	-81.548951	138.827721
31220		10.514245	0.384869	-1.865986	0.697736	0.690964	0.827566	0.878482	-0.025328	0.214460	-0.766602	0.542969	-0.418213	0.105141	0.004043	-0.018629	-0.643916	0.176046	0.734992	0.119020	-160.026081	-81.284591	135.869511
31221		9.331358	0.897321	-1.950211	1.119959	1.032571	-0.359531	0.866776	-0.035017	0.123260	-0.773682	0.549561	-0.429199	0.093311	0.009115	-0.019446	-0.644618	0.173730	0.735505	0.115404	-159.142301	-81.240993	135.477811
31222		9.028933	0.425690	-1.990228	1.011834	0.639375	-0.634932	0.825454	-0.007301	0.120435	-0.789551	0.555908	-0.444824	0.090287	0.004393	-0.019881	-0.645239	0.173387	0.735949	0.109465	-156.402362	-80.999005	133.255327
31223		8.987703	-0.345393	-1.877925	0.619960	-0.000550	-0.645340	0.818011	0.010926	0.197008	-0.796875	0.569092	-0.438232	0.089879	-0.003289	-0.018798	-0.646090	0.171467	0.736184	0.105826	-155.266813	-80.958315	132.580112
31224		9.199688	-0.594932	-1.622880	0.289981	-0.043955	-0.456631	0.774583	-0.003627	0.299357	-0.797119	0.580078	-0.434082	0.092006	-0.005749	-0.016250	-0.642903	0.197090	0.730036	0.121977	-152.320019	-80.668228	126.153763
31225		9.257192	0.061513	-1.385503	0.384244	0.690435	-0.485604	0.714727	-0.035443	0.390392	-0.793457	0.597900	-0.431885	0.092573	0.000845	-0.013836	-0.643711	0.196240	0.730195	0.118075	-150.778238	-80.543574	125.006105
31226		8.899260	0.399773	-1.556192	0.741895	0.964307	-0.851779	0.652328	-0.096835	0.431275	-0.791016	0.595703	-0.425293	0.088991	0.004240	-0.015505	-0.644166	0.197259	0.730469	0.112041	-148.043121	-80.160275	122.681800
31227		8.987644	0.157743	-1.797744	0.857383	0.712260	-0.713688	0.660554	-0.144344	0.514455	-0.784668	0.604736	-0.416504	0.089885	0.001868	-0.017907	-0.644573	0.197092	0.730790	0.107826	-146.504566	-79.931061	121.503993
31228		8.916441	0.191148	-1.742420	0.848686	0.859886	-0.806278	0.752315	-0.167438	0.612138	-0.780518	0.609375	-0.420898	0.089172	0.002250	-0.017342	-0.644919	0.198287	0.731145	0.100939	-143.800695	-79.447755	119.264670
31229		8.909886	-0.247700	-1.728955	0.668298	0.541024	-0.774055	0.786235	-0.197946	0.708577	-0.776367	0.620361	-0.416504	0.089124	-0.002094	-0.017210	-0.645323	0.198442	0.731466	0.095579	-141.999380	-79.112068	117.889857
31230		8.780702	0.803868	-1.414821	0.850000	1.710794	-1.089229	0.787148	-0.198801	0.816331	-0.774414	0.629395	-0.414551	0.087787	0.008452	-0.014028	-0.645625	0.200107	0.731696	0.088016	-139.334831	-78.529556	115.704111
31231		8.647631	0.770750	-1.438756	0.883435	1.733168	-1.230113	0.711115	-0.203572	0.892765	-0.772705	0.640381	-0.414551	0.086455	0.008144	-0.014271	-0.645974	0.201167	0.731760	0.082324	-137.450842	-78.102297	114.196345
31232		9.128396	0.021126	-1.745958	0.847065	1.157519	-0.630198	0.625297	-0.187205	1.035153	-0.757324	0.649658	-0.414551	0.091297	0.000738	-0.017372	-0.646181	0.203956	0.731608	0.074852	-134.932270	-77.430951	112.052606
31233		9.562159	-0.701040	-1.802426	0.610904	0.681788	-0.100032	0.590130	-0.146349	1.217654	-0.757813	0.662842	-0.418945	0.095675	-0.006375	-0.017974	-0.646688	0.206556	0.731042	0.068605	-132.739606	-76.869162	110.150468
31234		9.972313	0.033141	-1.867303	0.972146	1.574810	0.162680	0.541206	-0.108320	1.405193	-0.747314	0.680908	-0.412598	0.099727	0.001083	-0.018617	-0.647135	0.210786	0.730158	0.060457	-130.051989	-76.050408	107.769569
31235		10.478597	0.720861	-2.059189	1.429278	2.393363	0.521108	0.524076	-0.078488	1.562860	-0.725342	0.694580	-0.416992	0.104733	0.008081	-0.020530	-0.647851	0.214816	0.728898	0.053399	-127.685190	-75.324442	105.636923
31236		11.094084	0.463131	-1.691252	1.011466	2.643847	1.056409	0.571110	-0.064919	1.694244	-0.721436	0.710205	-0.414795	0.110902	0.005619	-0.016861	-0.648438	0.219782	0.727497	0.044421	-125.137060	-74.365023	103.398052
31237		11.365238	0.491299	-0.866111	0.311179	3.216184	1.128775	0.605912	-0.076254	1.845350	-0.713135	0.723633	-0.412598	0.113604	0.005987	-0.008601	-0.649205	0.224540	0.725815	0.036145	-122.864159	-73.463445	101.393946
31238		11.610474	0.974551	-0.272803	-0.002514	4.146421	1.079056	0.570704	-0.083931	1.951698	-0.691406	0.744141	-0.412598	0.116003	0.010886	-0.002649	-0.649654	0.230264	0.724032	0.026565	-120.648857	-72.359118	99.468935
31239		11.590740	1.234811	-0.535564	0.412606	4.492082	0.948487	0.488812	-0.061086	2.063321	-0.678467	0.761963	-0.419434	0.115773	0.013556	-0.005288	-0.650233	0.236144	0.721878	0.018018	-118.677384	-71.313905	97.688942
31240		11.978525	1.275942	-0.878445	0.812180	4.776007	1.251169	0.502518	-0.029999	2.181531	-0.659180	0.780029	-0.412842	0.119638	0.014087	-0.008732	-0.650733	0.242731	0.719416	0.008353	-116.717222	-70.110323	95.948403
31241		12.514270	0.909745	-0.749669	0.636064	4.918428	1.736934	0.567018	-0.002494	2.327911	-0.641602	0.793701	-0.417236	0.125025	0.010574	-0.007467	-0.651462	0.249246	0.716570	-0.001268	-114.842889	-68.908018	94.294424
31242		13.280870	0.492845	-0.080763	-0.047409	5.324164	2.364041	0.767786	0.052023	2.502270	-0.617676	0.816406	-0.421631	0.132733	0.006593	-0.000819	-0.652445	0.255874	0.713223	-0.012489	-112.865878	-67.561055	92.655922
31243		14.129877	1.446021	1.202238	-0.806290	7.174105	2.477986	1.027722	0.143712	2.674697	-0.593506	0.828125	-0.428223	0.141098	0.016286	0.012002	-0.654038	0.262046	0.709194	-0.024698	-110.764727	-66.168244	91.011548
31244		15.157149	4.503259	1.911251	-0.308339	10.740140	1.943623	1.082340	0.275448	2.807739	-0.571777	0.843994	-0.434814	0.150947	0.047051	0.019155	-0.656080	0.268527	0.704317	-0.037283	-108.610818	-64.709493	89.316718
31245		16.375579	6.787555	1.716122	0.778140	13.453829	1.829629	1.100466	0.520608	2.951925	-0.545654	0.868896	-0.439209	0.162776	0.070189	0.017119	-0.658756	0.275378	0.698350	-0.050141	-106.358442	-63.185212	87.511686
31246		16.952286	7.445567	1.041479	1.824639	14.363611	1.773169	1.198489	0.709001	3.116131	-0.521484	0.880615	-0.450195	0.168373	0.077023	0.010273	-0.662335	0.282195	0.691185	-0.062775	-103.988670	-61.662122	85.572384
31247		16.500893	6.688706	-0.141873	2.891872	13.510165	1.417647	1.346500	0.795390	3.375947	-0.495117	0.898926	-0.465576	0.163842	0.069670	-0.001609	-0.665809	0.289606	0.683245	-0.077478	-101.655591	-59.876487	83.783281
31248		15.677563	7.551792	-1.725366	4.800115	13.663953	-0.014136	1.436504	0.685358	3.624078	-0.466553	0.917236	-0.478760	0.155312	0.078465	-0.017231	-0.669230	0.296678	0.675032	-0.091895	-99.517263	-58.100663	82.193761
31249		17.686085	5.311474	-4.769348	7.410509	12.486404	2.551674	1.099151	0.362444	4.006569	-0.435791	0.933594	-0.489746	0.175660	0.056904	-0.047707	-0.670097	0.306627	0.667224	-0.108456	-98.032545	-55.863023	81.174459
31250		21.090346	2.990620	-5.030032	7.559903	12.969493	6.112354	0.912860	0.199254	4.404824	-0.402344	0.945313	-0.496338	0.210123	0.034770	-0.050359	-0.670131	0.316953	0.659625	-0.123931	-96.894096	-53.659622	80.375777
31251		23.923427	-1.728753	-2.363210	4.387780	12.474451	10.335053	0.949923	0.231086	4.639076	-0.374023	0.963623	-0.502930	0.239520	-0.011620	-0.023973	-0.669335	0.329126	0.650725	-0.142208	-95.798315	-51.032022	79.679488
31252		23.527959	0.681704	-1.042483	3.931312	15.050699	7.880485	0.917632	0.181223	4.352904	-0.344727	0.966553	-0.511719	0.235047	0.011983	-0.010591	-0.668735	0.338416	0.643125	-0.157034	-94.913007	-48.927094	79.169003
31253		20.892844	3.547565	-3.857887	7.175320	15.342925	3.492383	0.882995	-0.031027	3.973717	-0.318359	0.980225	-0.518311	0.208172	0.039787	-0.038377	-0.666870	0.348149	0.635677	-0.173181	-94.226552	-46.655693	78.925413
31254		18.013439	4.433088	-5.683309	8.817963	13.955260	0.379920	0.384954	-0.371131	3.675875	-0.291748	0.991943	-0.524902	0.179383	0.047741	-0.056410	-0.663767	0.355832	0.631518	-0.184342	-94.125303	-45.005292	79.041581
31255		12.503104	4.402771	-6.729162	9.092864	10.168693	-3.905323	0.720918	-0.517229	2.743260	-0.275879	0.985596	-0.531250	0.124582	0.045980	-0.066806	-0.660818	0.361590	0.627623	-0.196626	-93.892936	-43.416248	79.300721
31256		15.716808	5.807068	-2.467867	5.570095	14.535427	-3.141152	0.867812	-0.613459	2.412841	-0.267334	0.997070	-0.546631	0.156526	0.060067	-0.023940	-0.658535	0.362853	0.626533	-0.205246	-93.767963	-42.550466	79.783795
31257		8.178163	0.768810	-5.283868	6.354406	5.334624	-4.659747	1.170460	-0.413333	1.573842	-0.265137	1.001465	-0.564209	0.081825	0.008640	-0.052621	-0.657714	0.363488	0.623805	-0.214837	-93.260951	-41.635570	80.027875
31258		8.818127	-2.889879	-6.446304	6.959681	3.267179	-1.533182	2.469282	0.004048	0.465465	-0.264893	0.999512	-0.592773	0.088246	-0.027895	-0.064813	-0.662023	0.353687	0.622830	-0.220712	-92.005360	-41.953678	80.187859
31259		9.039866	8.312206	-2.346719	4.585738	11.631044	-9.886141	2.457302	0.047498	-0.386160	-0.276123	0.999512	-0.610352	0.090554	0.083227	-0.022467	-0.666890	0.344377	0.620595	-0.226987	-90.577425	-42.175224	80.157980
31260		6.815342	15.362928	-1.186126	3.835966	15.053741	-16.334571	1.498966	-0.354360	-1.503322	-0.295898	0.985840	-0.625732	0.069326	0.153194	-0.010590	-0.670118	0.330931	0.625543	-0.223879	-90.129809	-43.645896	80.683354
31261		4.599428	9.596577	-0.364539	1.949998	9.807716	-13.470909	0.803065	-0.482465	-2.232362	-0.324951	0.983154	-0.627930	0.047070	0.095458	-0.003149	-0.672387	0.320695	0.629909	-0.219694	-89.940128	-44.924598	81.070648
31262		1.278968	4.467832	0.421170	0.204623	4.128943	-11.976836	0.500579	-0.366279	-2.408191	-0.346924	0.973633	-0.630127	0.013318	0.044509	0.004347	-0.674736	0.307330	0.637330	-0.209976	-90.107698	-46.969931	81.620674
31263		0.294065	3.215593	1.062841	-0.675132	2.703908	-11.759128	0.292383	-0.281991	-2.669278	-0.371582	0.968994	-0.636963	0.003354	0.032097	0.010680	-0.677027	0.297514	0.642018	-0.202317	-90.121402	-48.498895	81.865509
31264		1.575637	3.843033	1.078093	-0.502232	4.069199	-11.078332	0.026396	-0.220520	-3.105954	-0.395508	0.952881	-0.641113	0.016339	0.038178	0.010804	-0.679484	0.283570	0.649916	-0.188413	-90.509577	-50.928304	82.321142
31265		2.749474	4.246297	0.906446	-0.185284	5.115237	-10.270562	-0.170757	-0.117050	-3.567396	-0.433105	0.936768	-0.641357	0.028241	0.041971	0.009045	-0.682113	0.272403	0.655429	-0.175874	-90.721268	-52.971424	82.465632
31266		3.554806	4.588689	1.005902	-0.173913	5.882954	-9.566438	-0.433292	-0.007273	-4.041323	-0.461426	0.916016	-0.632324	0.036465	0.045178	0.009962	-0.684950	0.256949	0.663506	-0.156781	-91.281342	-55.931467	82.784715
31267		4.437235	4.868487	0.804825	0.144769	6.544966	-8.729084	-0.749059	0.068863	-4.482438	-0.500977	0.893066	-0.632324	0.045452	0.047704	0.007853	-0.687552	0.244632	0.669445	-0.138817	-91.755138	-58.499928	82.837623
31268		5.496743	4.936724	0.717644	0.330554	7.033673	-7.465822	-1.019287	0.143431	-4.883914	-0.533936	0.868164	-0.621338	0.056156	0.048041	0.006889	-0.689961	0.228124	0.677373	-0.114365	-92.650917	-61.950680	83.139045
31269		6.976720	4.931061	0.298854	0.857572	7.487007	-5.778896	-1.225361	0.186878	-5.265799	-0.568604	0.836182	-0.610352	0.071036	0.047468	0.002628	-0.691955	0.214541	0.683187	-0.091795	-93.461327	-64.969323	83.259841
31270		8.487388	4.580333	-0.013223	1.176897	7.408628	-3.753187	-1.286310	0.205910	-5.621222	-0.614502	0.802246	-0.610352	0.086116	0.043392	-0.000505	-0.693474	0.195999	0.690398	-0.063470	-94.791093	-68.854331	83.850335
31271		9.530145	3.215838	-0.072775	1.008062	6.111857	-1.889988	-1.306935	0.223070	-5.967343	-0.646729	0.765869	-0.601318	0.096203	0.029291	-0.001032	-0.694533	0.179912	0.695565	-0.038021	-96.099387	-72.270338	84.443048
31272		10.225356	1.868483	-0.566619	1.154268	4.329836	-0.418327	-1.228228	0.251502	-6.275581	-0.678955	0.727539	-0.592529	0.102764	0.015430	-0.005897	-0.694861	0.158410	0.701441	-0.007373	-98.446554	-76.525284	86.099281
31273		11.691123	1.222672	-0.971776	1.337989	3.307438	1.427481	-1.039078	0.366024	-6.549387	-0.715576	0.684814	-0.592285	0.117209	0.008340	-0.009982	-0.695180	0.138978	0.705008	0.019318	-101.145693	-80.259745	88.245542
31274		13.454791	1.138175	-1.495531	1.666704	2.443376	3.444156	-0.844117	0.440402	-6.755714	-0.736328	0.639893	-0.585449	0.134795	0.006767	-0.015287	-0.694544	0.114052	0.708569	0.050301	-109.088412	-84.708879	95.726661
31275		15.264292	0.771281	-2.009591	1.902326	1.158493	5.437699	-0.784209	0.434033	-6.932968	-0.763428	0.588379	-0.585205	0.152742	0.002339	-0.020444	-0.693466	0.092037	0.710386	0.077370	-145.959920	-88.185550	132.198389
31276		17.282574	0.534927	-2.780356	2.289661	-0.532496	7.538099	-0.670691	0.429539	-7.048465	-0.790527	0.536865	-0.583008	0.172809	-0.000836	-0.028179	-0.690670	0.065188	0.712038	0.108288	109.321045	-86.101311	-123.421241
31277		19.684775	0.083841	-3.426040	2.468546	-2.564647	9.844293	-0.609003	0.375196	-7.079075	-0.818115	0.491943	-0.580566	0.196646	-0.006230	-0.034618	-0.687538	0.041846	0.712270	0.134955	97.677270	-82.187903	-112.074372
31278		21.526428	-2.447121	-3.842909	1.779702	-6.955015	10.981616	-0.809512	0.231924	-7.017029	-0.833984	0.440674	-0.578125	0.214181	-0.032155	-0.038558	-0.681891	0.015598	0.712349	0.165347	94.102303	-77.593425	-108.891344
31279		22.864824	-6.656768	-4.309880	0.712205	-12.738069	10.746745	-1.097836	0.048101	-6.807702	-0.856934	0.391357	-0.573486	0.226191	-0.074531	-0.042759	-0.675943	-0.004954	0.711385	0.192372	92.488681	-73.700178	-107.875966
31280		25.136888	-10.861789	-3.262500	-2.072912	-18.450966	10.570708	-1.234140	-0.063661	-6.389391	-0.864014	0.342285	-0.568848	0.247735	-0.116770	-0.031842	-0.667990	-0.027007	0.710159	0.220758	91.656505	-69.526503	-107.661834
31281		27.238417	-13.453910	-1.677220	-4.995828	-22.212964	10.364345	-1.216579	-0.179499	-5.777331	-0.871094	0.293457	-0.566162	0.268360	-0.142428	-0.015680	-0.660848	-0.043249	0.708326	0.244304	91.021766	-66.214154	-107.729410
31282		26.727419	-17.148380	-2.855869	-5.328496	-26.619268	6.901543	-1.291898	-0.381822	-5.097907	-0.878662	0.260010	-0.559570	0.262838	-0.178399	-0.026916	-0.652280	-0.059317	0.706888	0.267060	90.808308	-62.935650	-108.188592
31283		21.594937	-21.260447	-5.804474	-3.419981	-29.322309	-0.847155	-1.327678	-0.599107	-4.331258	-0.881836	0.226563	-0.550537	0.211443	-0.217593	-0.055973	-0.644602	-0.069483	0.705600	0.285990	90.627018	-60.449141	-108.846833
31284		15.148408	-23.246559	-5.788297	-6.233240	-27.621646	-8.594582	-1.413161	-0.817285	-3.307890	-0.883057	0.199951	-0.545898	0.147838	-0.235329	-0.055618	-0.620491	-0.041148	0.708382	0.333907	90.764617	-58.387106	-115.612962
31285		12.372810	-25.770376	-4.031681	-8.553052	-27.381417	-13.053924	-1.536035	-0.892875	-2.085975	-0.882568	0.186523	-0.530518	0.121202	-0.259273	-0.037785	-0.614101	-0.042280	0.708091	0.345976	90.672513	-57.184803	-116.544455
31286		11.049820	-27.216957	-3.495266	-11.839038	-26.531337	-15.378165	-1.603771	-0.724367	-0.950810	-0.885010	0.188477	-0.526123	0.109322	-0.272958	-0.032369	-0.594969	-0.011196	0.709128	0.378185	90.622894	-56.652285	-122.057402
31287		11.919680	-25.328407	-3.881090	-11.373240	-25.569400	-13.750704	-1.520754	-0.525262	0.094561	-0.882813	0.190918	-0.523926	0.119415	-0.253511	-0.036570	-0.593348	-0.005347	0.707797	0.383318	90.209848	-56.703497	-122.606015
31288		12.446644	-22.269710	-3.252985	-12.484788	-22.426279	-11.431529	-1.190724	-0.403429	0.869518	-0.880859	0.197510	-0.512939	0.125497	-0.222340	-0.030953	-0.581005	0.025513	0.707222	0.402020	90.172910	-57.385051	-126.892638
31289		11.992381	-19.458119	-2.481691	-11.792563	-19.735001	-10.023716	-1.040823	-0.382832	1.525278	-0.872803	0.217529	-0.513184	0.121450	-0.193784	-0.023576	-0.582555	0.034695	0.706016	0.401208	89.926329	-58.258035	-127.306043
31290		14.273893	-12.224775	-5.074721	-7.740449	-16.829656	-3.831307	-0.906575	-0.762561	1.784111	-0.875244	0.226318	-0.508789	0.144014	-0.121194	-0.049649	-0.573469	0.064625	0.705626	0.411155	90.471919	-59.592968	-131.278935
31291		10.412771	-13.018064	-7.340313	-5.350431	-17.214093	-7.203484	-1.062546	-0.799339	2.201884	-0.871582	0.246338	-0.500244	0.105846	-0.129408	-0.072293	-0.574782	0.077075	0.704964	0.408303	90.685737	-60.849202	-132.226824
31292		14.333758	4.797940	-13.383797	7.790144	-10.957942	5.248223	-0.407837	-0.683105	2.598087	-0.865479	0.264160	-0.502441	0.143157	0.049567	-0.133449	-0.570462	0.104086	0.704252	0.409594	91.701597	-62.718417	-135.598166
31293		26.528501	25.181418	12.717033	-2.059463	16.707756	25.060719	0.389749	1.052595	2.245785	-0.862061	0.291016	-0.517822	0.263103	0.254530	0.126276	-0.578923	0.108715	0.700825	0.402336	90.778022	-64.017351	-134.315381
31294		27.097090	-12.042074	7.260825	-20.971490	-10.294780	9.835344	-1.609365	0.237542	4.154762	-0.847900	0.331055	-0.507080	0.273473	-0.114169	0.073220	-0.582060	0.138835	0.693539	0.401166	90.078848	-66.744684	-135.967795
31295		17.404964	-21.371782	2.862796	-21.112222	-15.960466	-1.614173	-2.353221	-1.327622	4.949392	-0.844482	0.355469	-0.491943	0.179054	-0.208962	0.032283	-0.585516	0.165448	0.688973	0.393846	90.675389	-69.575228	-138.062796
31296		15.026802	-4.297190	-2.631555	-5.179387	-7.688409	3.041137	-1.810915	-2.119023	3.612629	-0.829834	0.384521	-0.472412	0.151279	-0.040472	-0.024342	-0.580313	0.197443	0.686714	0.390740	93.929048	-72.048005	-143.732652
31297		15.740022	-7.625401	0.789170	-9.880821	-6.694113	2.995004	-1.137314	-1.544774	3.414450	-0.817627	0.415771	-0.459229	0.158601	-0.073502	0.009537	-0.580443	0.215444	0.685473	0.383141	96.752311	-73.913874	-147.366310
31298		3.465180	-3.816880	0.051835	-3.692524	-2.697402	-7.432516	-1.164084	-1.801693	2.901093	-0.809570	0.435791	-0.441895	0.035193	-0.037656	0.001054	-0.577186	0.238915	0.684070	0.376595	101.809862	-75.840906	-153.835863
31299		3.391471	-1.359594	-3.310778	0.234185	-3.770807	-6.644546	-0.897834	-1.201981	2.374924	-0.801270	0.455811	-0.437500	0.034272	-0.013338	-0.032842	-0.576415	0.251867	0.682945	0.371341	105.392834	-77.001871	-158.050901
31300		10.165779	-4.817325	0.985607	-6.357769	-2.733778	-0.889726	-0.776137	-0.922715	2.291357	-0.788330	0.464844	-0.428711	0.102153	-0.046965	0.010510	-0.576356	0.267990	0.680716	0.364172	110.638093	-78.480856	-164.032407
31301		12.433979	-3.515860	-1.834072	-4.013610	-4.117357	1.903130	-0.431185	-0.877844	2.023721	-0.786621	0.480469	-0.417969	0.124766	-0.033936	-0.017720	-0.576436	0.277701	0.679707	0.358611	115.057425	-79.354494	-168.787339
31302		8.276336	-2.644312	-2.247763	-2.217906	-3.563719	-1.880338	-0.213158	-0.682001	1.164517	-0.775635	0.487305	-0.417969	0.082991	-0.025984	-0.022167	-0.576849	0.285849	0.679802	0.351291	120.672212	-80.102895	-174.443548
31303		11.152965	-1.330537	-0.763082	-2.503500	-1.522308	1.057216	-0.453701	-0.692405	0.963120	-0.766846	0.489746	-0.413574	0.111618	-0.012785	-0.007215	-0.575525	0.291641	0.679613	0.349060	124.074625	-80.356400	-178.159866
31304		11.284824	-2.279836	-2.040714	-2.456312	-2.915850	1.240474	-0.425976	-0.610280	0.931160	-0.762695	0.500732	-0.406982	0.113014	-0.022315	-0.020015	-0.575336	0.299378	0.679362	0.343261	130.007212	-80.841881	175.750982
31305		10.060926	-0.706243	-3.787535	0.028730	-3.323605	0.435169	-0.257248	-0.525833	0.771463	-0.751709	0.507568	-0.398193	0.100735	-0.006723	-0.037602	-0.574480	0.303638	0.679272	0.341125	133.101215	-80.972651	172.468273
31306		11.209752	-1.587381	-1.708740	-1.968450	-1.968092	1.293583	-0.175546	-0.369453	0.709064	-0.758545	0.507568	-0.402588	0.112184	-0.015491	-0.016867	-0.574993	0.309334	0.679091	0.335456	138.703010	-81.295218	166.876912
31307		10.789991	-2.351679	-1.481973	-2.618694	-2.166019	0.798661	-0.131155	-0.335298	0.705615	-0.751953	0.511963	-0.393799	0.108007	-0.023145	-0.014623	-0.574830	0.312667	0.678739	0.333352	141.477783	-81.407112	163.994149
31308		11.063640	-2.150881	-3.838302	-1.052871	-3.808364	1.418979	0.076336	-0.232987	0.598706	-0.759033	0.518555	-0.400635	0.110745	-0.021163	-0.038262	-0.575945	0.316968	0.678676	0.327441	146.992496	-81.625338	158.634872
31309		11.742177	-1.222499	-3.587816	-0.493669	-2.969698	2.153195	0.315131	-0.127784	0.535771	-0.754395	0.516357	-0.400391	0.117477	-0.011854	-0.035822	-0.576884	0.318087	0.678708	0.324624	149.219664	-81.725246	156.566403
31310		11.532703	0.093383	-2.709587	0.194690	-1.372261	1.953044	0.480591	-0.044096	0.466675	-0.756836	0.520752	-0.400635	0.115330	0.001268	-0.027068	-0.579003	0.320317	0.678990	0.318003	154.422420	-81.889250	151.770052
31311		11.214984	0.160935	-1.987163	-0.086218	-0.736806	1.553933	0.520841	0.019331	0.363984	-0.756836	0.523193	-0.405029	0.112145	0.001865	-0.019878	-0.580477	0.320015	0.679176	0.315209	156.026378	-81.986582	150.451424
31312		11.468177	0.828326	-1.024724	-0.061920	0.548124	1.717744	0.558839	0.062979	0.310941	-0.748291	0.530029	-0.405029	0.114665	0.008490	-0.010260	-0.582777	0.321166	0.679489	0.309059	160.603205	-82.096110	146.332687
31313		11.507821	0.466237	-1.470526	-0.054890	0.002746	1.797937	0.549046	0.035004	0.310988	-0.759521	0.534180	-0.411621	0.115068	0.004882	-0.014712	-0.584254	0.320569	0.679733	0.306341	162.095415	-82.171969	145.143821
31314		11.963090	0.320169	-1.430742	-0.161726	0.082002	2.238536	0.621652	-0.010583	0.333835	-0.761719	0.534180	-0.411621	0.119626	0.003446	-0.014291	-0.586389	0.321601	0.680243	0.299983	166.832118	-82.189936	140.889978
31315		12.042560	-0.245428	-1.535497	-0.515830	-0.307629	2.314980	0.729821	-0.034009	0.323148	-0.759521	0.531982	-0.411621	0.120432	-0.002204	-0.015343	-0.587926	0.320612	0.680913	0.296495	168.603819	-82.210130	139.523751
31316		11.525139	-0.928900	-1.886829	-0.702749	-0.953215	1.842747	0.850730	-0.089533	0.268648	-0.768311	0.529541	-0.420410	0.115272	-0.009054	-0.018856	-0.590015	0.320751	0.682015	0.289580	173.084630	-82.122913	135.651209
31317		10.716443	-0.661220	-1.210783	-0.803669	-0.309492	0.957808	0.908769	-0.121237	0.248363	-0.770752	0.536377	-0.431396	0.107180	-0.006424	-0.012072	-0.591411	0.319092	0.683283	0.285548	174.680753	-82.068816	134.565422
31318		10.029263	-0.157742	-0.702477	-0.608742	0.414548	0.215371	0.879616	-0.122487	0.266785	-0.777588	0.538330	-0.437988	0.100299	-0.001413	-0.006970	-0.593390	0.319083	0.684435	0.278611	178.898983	-81.920045	130.966003
31319		9.503474	0.670763	-1.172447	0.390488	0.566230	-0.238381	0.816035	-0.143328	0.274317	-0.791504	0.547119	-0.453369	0.095034	0.006886	-0.011629	-0.594577	0.317800	0.685552	0.274770	-179.525525	-81.838540	129.846816
31320		9.551622	0.533521	-1.408277	0.479942	0.393207	-0.163011	0.718433	-0.181586	0.287857	-0.796631	0.566895	-0.447021	0.095521	0.005523	-0.013976	-0.596078	0.318308	0.686538	0.268396	-175.692719	-81.621063	126.531371
31321		9.596292	0.074466	-1.167944	-0.010962	0.318595	-0.150562	0.710773	-0.188789	0.322929	-0.794922	0.578125	-0.438232	0.095972	0.000941	-0.011586	-0.596990	0.317553	0.687534	0.264688	-174.104917	-81.496566	125.337863
31322		9.229875	0.160843	-1.552703	0.386496	0.130809	-0.460646	0.787612	-0.158456	0.347072	-0.786377	0.589111	-0.425293	0.092308	0.001830	-0.015447	-0.598707	0.317903	0.688390	0.258083	-170.405241	-81.256420	122.187429
31323		8.777796	0.375339	-1.931350	0.856997	-0.019048	-0.858043	0.815549	-0.176992	0.391783	-0.788574	0.589111	-0.423096	0.087787	0.004004	-0.019220	-0.599893	0.317039	0.689342	0.253816	-168.629800	-81.115487	120.863620
31324		8.551615	0.502588	-1.947274	1.031989	0.114944	-1.089380	0.798560	-0.189901	0.466823	-0.782227	0.600342	-0.420898	0.085522	0.005303	-0.019371	-0.601607	0.317674	0.690074	0.246879	-164.940217	-80.809115	117.722963
31325		8.506191	0.370510	-2.318215	1.218904	-0.193851	-1.075239	0.743960	-0.190089	0.556565	-0.778320	0.609375	-0.416504	0.085073	0.004028	-0.023087	-0.602813	0.317593	0.690672	0.242329	-162.821915	-80.615481	116.008442
31326		8.882160	-0.570901	-2.345901	0.589270	-0.699794	-0.653839	0.675679	-0.191929	0.679050	-0.780518	0.613770	-0.416504	0.088863	-0.005328	-0.023392	-0.604504	0.319187	0.690900	0.235270	-159.005918	-80.228928	112.662239
31327		9.266031	-0.852594	-2.128304	0.263100	-0.611697	-0.290511	0.732790	-0.159643	0.806278	-0.774170	0.622559	-0.416504	0.092710	-0.008074	-0.021239	-0.606061	0.319945	0.690947	0.230039	-156.333538	-79.968207	110.375676
31328		9.339607	-0.043429	-2.123813	0.924526	0.074561	-0.279609	0.793178	-0.121790	0.882526	-0.767822	0.631592	-0.410156	0.093409	0.000062	-0.021182	-0.608333	0.321689	0.690727	0.222136	-152.328287	-79.514369	106.897000
31329		9.347667	0.237994	-2.247052	1.277074	0.266156	-0.284728	0.807750	-0.115974	0.966232	-0.766113	0.645020	-0.410156	0.093476	0.002922	-0.022405	-0.610292	0.322697	0.690408	0.216212	-149.461783	-79.186311	104.451207
31330		9.599834	0.261610	-1.922172	1.148213	0.680399	-0.110242	0.773848	-0.099111	1.103046	-0.750732	0.656494	-0.416748	0.095991	0.003220	-0.019162	-0.612741	0.325103	0.689682	0.207832	-145.522518	-78.616339	101.014979
31331		10.334082	0.697385	-1.599177	1.282268	1.448949	0.487390	0.774893	-0.049404	1.252071	-0.746826	0.669678	-0.414551	0.103298	0.007682	-0.015937	-0.615115	0.327095	0.688584	0.201233	-142.333663	-78.170181	98.212868
31332		10.936809	0.905690	-1.767122	1.651368	1.757837	1.038002	0.749074	-0.026744	1.396971	-0.738525	0.683350	-0.416748	0.109303	0.009887	-0.017621	-0.617942	0.330387	0.687038	0.192278	-138.405851	-77.461856	94.752073
31333		11.253934	0.978849	-1.461604	1.589093	2.212083	1.247335	0.731654	-0.043440	1.538536	-0.721191	0.701416	-0.421387	0.112462	0.010707	-0.014554	-0.620458	0.333447	0.685308	0.184927	-135.240649	-76.839486	91.935644
31334		11.582537	0.601906	-0.547884	0.803090	2.806389	1.425356	0.719510	-0.069944	1.665220	-0.715088	0.721436	-0.419189	0.115772	0.007003	-0.005414	-0.623181	0.337650	0.683301	0.175322	-131.759403	-75.938454	88.885930
31335		11.688847	0.078194	0.158903	0.060025	3.078254	1.464613	0.665710	-0.080762	1.820825	-0.697754	0.732910	-0.419189	0.116874	0.001841	0.001641	-0.625596	0.341857	0.681029	0.167223	-128.897381	-75.112033	86.324139
31336		11.899179	-0.145338	0.276007	-0.012899	3.245917	1.639259	0.583946	-0.066232	1.973457	-0.678223	0.753174	-0.419189	0.118998	-0.000287	0.002798	-0.628204	0.347416	0.678170	0.157313	-125.850790	-74.021309	83.601829
31337		12.182342	0.845908	-0.255006	1.211644	3.858230	1.712522	0.552652	-0.027313	2.104862	-0.660889	0.771240	-0.421631	0.121726	0.009747	-0.002508	-0.630689	0.352825	0.674993	0.148764	-123.264015	-73.017988	81.234601
31338		12.892562	1.233111	-1.280262	2.456883	3.898142	2.358549	0.540817	-0.012533	2.185487	-0.645752	0.787109	-0.423828	0.128781	0.013773	-0.012759	-0.633381	0.359060	0.671334	0.138621	-120.648207	-71.798955	78.889698
31339		13.571472	0.934707	-1.535301	2.686026	3.944437	3.018283	0.573507	-0.009840	2.290265	-0.626465	0.809570	-0.419434	0.135596	0.010944	-0.015316	-0.635920	0.364919	0.667603	0.129409	-118.429852	-70.653254	76.893917
31340		14.088249	2.058789	-1.131701	3.374338	5.410890	2.967143	0.773117	0.031470	2.391634	-0.604492	0.819092	-0.432617	0.140621	0.022314	-0.011255	-0.639077	0.370877	0.663388	0.118095	-116.070607	-69.310728	74.916267
31341		14.497604	3.006591	-0.804374	3.987809	6.652572	2.824400	0.903594	0.109823	2.494444	-0.582764	0.841553	-0.426025	0.144581	0.031907	-0.007982	-0.642533	0.376173	0.658885	0.107313	-113.860835	-68.040329	73.100058
31342		15.142249	4.692550	-1.180613	5.652720	8.080330	2.654917	0.979678	0.253054	2.639030	-0.560791	0.855469	-0.439209	0.150770	0.048976	-0.011761	-0.646665	0.381920	0.653377	0.095185	-111.493720	-66.597634	71.188224
31343		15.502445	6.103568	-1.842552	7.330281	9.028945	2.257912	1.117566	0.356087	2.816020	-0.541260	0.873535	-0.445801	0.154111	0.063313	-0.018351	-0.651226	0.387299	0.647302	0.083091	-109.173801	-65.154263	69.348158
31344		15.845279	5.878551	-1.266730	7.056276	9.636767	2.210342	1.241501	0.416029	3.029566	-0.515137	0.891846	-0.458984	0.157511	0.061255	-0.012620	-0.656198	0.393057	0.640378	0.069474	-106.834051	-63.514008	67.568049
31345		15.683252	5.198497	-0.958438	6.658728	9.568508	1.934055	1.386133	0.527743	3.319781	-0.490967	0.907959	-0.469971	0.155915	0.054645	-0.009624	-0.661655	0.398897	0.632496	0.055162	-104.484856	-61.762752	65.817533
31346		14.258963	6.389513	-1.960015	8.129261	9.443024	-0.184587	1.616171	0.509421	3.599749	-0.462158	0.921875	-0.483154	0.141357	0.066604	-0.019430	-0.667373	0.404793	0.623887	0.038994	-102.187615	-59.802909	64.253485
31347		14.920880	4.595735	-3.778199	8.995949	7.785489	0.978486	1.468843	0.335699	3.952749	-0.426758	0.938232	-0.498535	0.148195	0.049170	-0.037678	-0.672013	0.412071	0.614912	0.021886	-100.308632	-57.617874	63.039932
31348		18.204666	1.280468	-5.131093	9.476368	6.817692	5.121555	1.308387	0.130025	4.413928	-0.395752	0.945557	-0.511719	0.181667	0.017153	-0.051326	-0.675387	0.421050	0.605440	0.003448	-98.827764	-55.156554	62.154802
31349		20.229219	1.094991	-3.427944	8.990110	9.259800	6.172534	1.584671	0.058078	4.501985	-0.366943	0.961670	-0.524902	0.201963	0.015770	-0.034226	-0.678783	0.429211	0.595619	-0.016437	-97.376407	-52.606340	61.482513
31350		20.991306	0.386403	-2.297814	8.369803	10.423846	6.536116	1.787826	0.003355	4.190133	-0.336182	0.975586	-0.546875	0.209767	0.008465	-0.022920	-0.682040	0.435311	0.586568	-0.035551	-96.028710	-50.279808	61.047636
31351		20.645990	0.865696	-3.054375	9.511181	10.644504	5.435512	2.030911	0.081957	3.803437	-0.306885	0.978516	-0.570801	0.206229	0.012890	-0.030512	-0.685863	0.439459	0.577511	-0.054298	-94.577658	-48.113131	60.668229
31352		18.180099	3.432100	-4.135927	10.997938	10.617994	1.397128	2.000908	-0.021981	3.503463	-0.284668	0.983643	-0.586182	0.181162	0.037910	-0.040972	-0.689051	0.442310	0.569628	-0.071372	-93.332637	-46.208962	60.491680
31353		16.506052	2.600298	-5.194525	11.155880	8.941890	0.274463	1.530070	-0.350992	3.248051	-0.271484	0.992676	-0.603760	0.164696	0.029075	-0.051441	-0.690162	0.446097	0.563013	-0.087692	-92.562296	-44.338982	60.641473
31354		12.621092	1.688497	-6.540742	10.695669	5.599807	-2.121584	2.139401	-0.353229	2.305051	-0.255371	0.984375	-0.629883	0.126115	0.019036	-0.064989	-0.692762	0.444585	0.558697	-0.101406	-91.539165	-43.150728	60.869463
31355		15.300856	2.195241	-2.413219	8.305460	9.948121	-1.049103	2.340807	-0.483582	2.037145	-0.250977	0.991211	-0.651855	0.152830	0.023787	-0.023491	-0.695493	0.441872	0.554586	-0.116071	-90.434160	-41.977886	61.218721
31356		9.173579	0.191995	-5.776504	8.404172	3.353440	-3.839498	2.281088	-0.483796	1.096971	-0.244141	0.989258	-0.676025	0.091860	0.003080	-0.057512	-0.698381	0.436197	0.553274	-0.126035	-89.445862	-41.516797	61.610625
31357		9.715854	3.870657	-3.916164	8.072675	6.900708	-6.359380	2.724424	-0.074367	0.448571	-0.255371	0.991455	-0.706787	0.097085	0.039453	-0.038591	-0.703765	0.427840	0.550784	-0.135295	-87.927901	-41.259836	61.675729
31358		7.785337	12.985234	-0.755396	7.011116	12.639117	-14.383263	1.662658	-0.382259	-0.329597	-0.263916	0.980225	-0.715576	0.078080	0.129780	-0.006326	-0.706282	0.420302	0.552643	-0.138197	-87.249284	-41.642044	61.988429
31359		6.588291	13.752177	0.207046	5.791306	12.867344	-15.596995	0.574228	-0.791906	-1.329262	-0.284180	0.979980	-0.713379	0.066785	0.137073	0.002728	-0.706192	0.414044	0.557816	-0.136756	-87.296491	-42.423458	62.550331
31360		4.106773	7.054615	1.388749	2.046711	7.689057	-12.103892	0.044915	-0.856624	-1.724725	-0.299316	0.970703	-0.719971	0.041614	0.070186	0.014081	-0.704911	0.407891	0.565327	-0.130883	-87.777632	-43.649014	63.173159
31361		1.280738	3.370120	2.229358	-0.661148	3.921726	-11.279238	-0.184194	-0.768065	-1.899426	-0.326172	0.965820	-0.719971	0.013041	0.033599	0.022312	-0.703567	0.402651	0.571998	-0.125234	-88.274786	-44.750967	63.734860
31362		1.420812	2.910156	2.328309	-0.823693	3.777478	-10.792824	-0.339692	-0.710929	-2.281305	-0.345947	0.956543	-0.711182	0.014456	0.028977	0.023285	-0.702127	0.396266	0.580143	-0.115871	-88.937329	-46.289123	64.267794
31363		2.980882	4.175634	2.239042	0.107557	5.559992	-10.451815	-0.386763	-0.642936	-2.778448	-0.377197	0.947021	-0.715820	0.030313	0.041381	0.022407	-0.701030	0.389155	0.588068	-0.106263	-89.532693	-47.885053	64.778051
31364		3.753558	5.185293	2.530954	0.395416	6.848898	-10.374269	-0.550918	-0.584341	-3.304840	-0.408203	0.935303	-0.709229	0.038312	0.051294	0.025279	-0.699803	0.380422	0.597521	-0.092323	-90.312287	-50.000517	65.271128
31365		4.234500	5.724525	2.643060	0.617710	7.562865	-10.134101	-0.763970	-0.564489	-3.815312	-0.448242	0.925537	-0.696045	0.043354	0.056525	0.026335	-0.698287	0.371367	0.606989	-0.077753	-91.186627	-52.181406	65.832035
31366		4.844902	5.831273	2.721723	0.771276	8.007940	-9.418597	-1.004011	-0.536801	-4.265444	-0.480713	0.895996	-0.687256	0.049607	0.057399	0.027060	-0.696189	0.361030	0.617674	-0.058793	-92.361669	-54.843689	66.452190
31367		5.864371	5.880412	2.566016	1.176941	8.474592	-8.283103	-1.171433	-0.472183	-4.704294	-0.516113	0.879883	-0.678467	0.059947	0.057554	0.025461	-0.693791	0.350337	0.627970	-0.039642	-93.647761	-57.520543	67.191936
31368		7.368667	5.493544	2.819047	1.101453	8.918289	-6.398249	-1.235724	-0.361835	-5.090604	-0.562012	0.845703	-0.667480	0.075005	0.053211	0.027993	-0.691137	0.337825	0.638694	-0.016564	-95.163772	-60.651867	68.001146
31369		8.635538	4.317789	3.370126	0.283334	8.633969	-4.341985	-1.329741	-0.277660	-5.425038	-0.596680	0.813721	-0.656494	0.087441	0.041039	0.033545	-0.688181	0.324946	0.648677	0.005960	-96.842824	-63.726008	69.037458
31370		9.351493	2.863594	3.191422	-0.212737	7.379367	-2.649390	-1.363158	-0.190287	-5.765326	-0.633545	0.777588	-0.643066	0.094262	0.026143	0.031820	-0.684696	0.310156	0.658754	0.032225	-98.965071	-67.232352	70.369878
31371		10.482163	1.968205	2.839243	-0.370612	6.503709	-0.905171	-1.244918	0.001768	-6.079447	-0.667969	0.739258	-0.636475	0.105359	0.016661	0.028282	-0.681461	0.294249	0.667657	0.057119	-101.266484	-70.661475	72.070538
31372		11.886154	1.958248	2.374900	-0.103822	6.150925	0.811111	-1.151765	0.188430	-6.360171	-0.695801	0.700928	-0.634033	0.119429	0.015926	0.023538	-0.677956	0.276084	0.675929	0.085286	-104.335892	-74.491748	74.446595
31373		13.607151	2.223343	2.083310	0.072500	6.009812	2.766989	-1.083658	0.381745	-6.615212	-0.732178	0.655762	-0.631836	0.136749	0.017829	0.020468	-0.674546	0.257089	0.682923	0.111844	-108.505252	-78.190604	78.096080
31374		15.279211	2.092079	1.636281	0.050666	5.135025	4.817646	-1.187160	0.497462	-6.853520	-0.759277	0.599854	-0.627197	0.153431	0.015765	0.015878	-0.670089	0.236602	0.689078	0.142031	-116.920191	-82.178025	85.786982
31375		17.120939	1.266396	0.782736	-0.101964	3.264271	7.056099	-1.276210	0.644936	-7.041899	-0.777588	0.555176	-0.629150	0.171539	0.006675	0.007219	-0.665367	0.216012	0.693896	0.170684	-138.066915	-85.659238	106.305942
31376		19.153755	0.337388	-0.513272	-0.128031	0.710225	9.333172	-1.296085	0.766102	-7.130755	-0.796143	0.508057	-0.620117	0.191473	-0.003491	-0.005859	-0.659571	0.194132	0.697468	0.202035	151.946637	-86.862834	175.504619
31377		21.478339	-1.263985	-2.185144	-0.365345	-2.841032	11.618193	-1.367538	0.772870	-7.095741	-0.821289	0.460938	-0.619873	0.214065	-0.020397	-0.022558	-0.653335	0.172995	0.699965	0.230814	112.270535	-83.978516	-145.499485
31378		23.818480	-4.398222	-2.834196	-2.546120	-7.434169	13.267634	-1.472317	0.700188	-6.899534	-0.836914	0.403076	-0.624023	0.236374	-0.052369	-0.028807	-0.645484	0.152103	0.701421	0.261198	100.086923	-80.053445	-134.204408
31379		26.021935	-10.023292	-3.238175	-6.440304	-13.883867	13.715183	-1.759037	0.468122	-6.515407	-0.848877	0.360596	-0.612793	0.256690	-0.108917	-0.032053	-0.636910	0.134236	0.702167	0.288596	95.392382	-76.388690	-130.440845
31380		27.770743	-14.897412	-3.706429	-10.042431	-19.592833	13.030994	-1.718511	0.362583	-6.013753	-0.860596	0.320557	-0.612549	0.272989	-0.157545	-0.036233	-0.627374	0.117456	0.702098	0.315695	92.607400	-72.768917	-128.699342
31381		26.473211	-16.426457	-5.193469	-10.348557	-22.295271	10.016537	-1.592095	0.218607	-5.403913	-0.870361	0.278076	-0.596924	0.260103	-0.171743	-0.050873	-0.618428	0.103092	0.701795	0.338236	91.037427	-69.678250	-128.005178
31382		22.936916	-19.588643	-8.347473	-9.709461	-26.213504	4.254313	-1.760945	-0.155427	-4.562392	-0.871338	0.244629	-0.592285	0.224875	-0.201774	-0.081539	-0.608568	0.092385	0.701320	0.359529	90.112466	-66.930621	-128.181488
31383		18.268464	-23.673663	-9.870974	-10.418732	-28.870785	-2.782830	-1.772344	-0.546012	-3.434230	-0.883789	0.222168	-0.583496	0.178839	-0.240689	-0.096097	-0.599544	0.086700	0.701249	0.375872	89.801475	-64.963145	-128.953061
31384		13.624432	-26.727878	-8.756929	-12.387083	-28.683857	-9.161560	-1.482764	-0.749344	-2.262417	-0.878662	0.204590	-0.574463	0.133526	-0.269436	-0.085073	-0.591700	0.084407	0.701612	0.387953	89.841038	-63.608725	-129.968703
31385		10.227518	-27.918869	-7.893542	-13.193832	-27.575825	-13.254083	-1.263145	-0.726103	-1.265210	-0.880859	0.199951	-0.570068	0.100786	-0.280319	-0.076800	-0.586137	0.085111	0.701812	0.395803	89.945505	-62.884522	-130.896280
31386		10.356109	-25.837843	-8.455314	-11.921116	-26.410253	-12.403304	-1.001264	-0.599986	-0.291507	-0.876465	0.202393	-0.563477	0.103434	-0.258947	-0.082947	-0.583046	0.088193	0.701800	0.399695	90.075364	-62.730852	-131.661460
31387		11.127355	-23.355519	-7.804890	-11.410084	-24.484510	-10.539804	-0.487418	-0.491084	0.541630	-0.874512	0.211182	-0.561279	0.112096	-0.233441	-0.077205	-0.582183	0.092496	0.702013	0.399607	90.348094	-63.040100	-132.281721
31388		13.934918	-18.375324	-5.923632	-10.789938	-20.790268	-5.539628	-0.039873	-0.657481	1.031420	-0.875000	0.219971	-0.552734	0.140488	-0.183042	-0.058739	-0.582176	0.097690	0.703557	0.395645	91.173174	-63.700377	-133.156688
31389		12.053466	-16.007085	-2.423431	-11.446313	-16.163248	-5.925681	0.098235	-0.840895	1.430946	-0.877686	0.235352	-0.543945	0.121776	-0.159191	-0.023802	-0.582076	0.104099	0.705476	0.390710	92.272475	-64.505412	-134.316201
31390		10.707526	-19.374151	-7.331518	-9.519018	-21.211111	-8.022124	-0.680885	-0.824226	2.415089	-0.869629	0.255615	-0.546387	0.109705	-0.192674	-0.072210	-0.583918	0.116482	0.705460	0.384445	93.166833	-65.982767	-135.629364
31391		19.040000	15.665384	2.286417	2.673360	6.941875	13.804556	-0.248756	0.540405	2.866259	-0.861328	0.278076	-0.559570	0.188189	0.159389	0.022157	-0.591124	0.126268	0.701660	0.377228	92.491993	-67.638342	-135.050432
31392		26.085764	18.543770	14.559418	-5.618656	15.828238	21.075837	-1.453129	0.802428	2.898041	-0.864502	0.300049	-0.562012	0.258702	0.190243	0.143183	-0.598850	0.139530	0.694868	0.372920	90.753820	-69.440783	-133.971450
31393		22.122643	-14.066544	1.116122	-15.171323	-13.947417	6.425317	-3.184980	-0.704038	4.518080	-0.852783	0.342285	-0.542480	0.224279	-0.135412	0.014132	-0.602372	0.166021	0.687617	0.369821	90.141260	-72.026365	-135.255765
31394		14.093532	-18.158210	-2.349464	-13.813323	-16.561352	-1.526075	-2.658628	-1.915494	3.891992	-0.835693	0.366943	-0.524902	0.144638	-0.179070	-0.019729	-0.601048	0.191340	0.685137	0.364305	92.562525	-74.368009	-139.292227
31395		18.131864	-12.735864	-3.976959	-9.923826	-14.159219	4.600475	-1.286884	-2.047451	3.585516	-0.832520	0.397949	-0.509766	0.183955	-0.124321	-0.037089	-0.599192	0.211176	0.685356	0.355894	96.949925	-76.320181	-144.588489
31396		11.818827	-7.450060	3.088391	-9.601454	-4.006412	0.008889	-0.707075	-1.459506	3.473925	-0.818115	0.427002	-0.494629	0.119226	-0.072324	0.032010	-0.600054	0.228312	0.684798	0.344760	102.007105	-78.310019	-150.082941
31397		3.486852	-2.272866	-1.745531	-1.110087	-3.100313	-6.726418	-0.924734	-1.661043	2.613803	-0.816406	0.442627	-0.481445	0.035305	-0.022349	-0.017059	-0.597738	0.242872	0.685115	0.338142	108.159509	-79.510623	-156.891771
31398		7.166068	-3.623521	1.078917	-4.543869	-1.958983	-3.397219	-0.956635	-1.155297	2.212022	-0.803711	0.458252	-0.468262	0.071991	-0.035387	0.011375	-0.596835	0.255815	0.684295	0.331794	114.379320	-80.602048	-163.657835
31399		12.232537	-3.623485	0.311161	-4.785533	-2.529939	1.743743	-0.898491	-1.129480	2.089982	-0.788330	0.471680	-0.459473	0.122674	-0.034938	0.003963	-0.595239	0.267503	0.683447	0.327158	120.988603	-81.363438	-170.870754
31400		11.979397	-3.564967	-2.462535	-2.842760	-4.321806	1.828376	-0.454817	-1.005036	1.729994	-0.781982	0.476318	-0.457275	0.120218	-0.034666	-0.023942	-0.594517	0.276985	0.683400	0.320615	128.792725	-81.970492	-178.917669
31401		8.562917	-3.272807	-1.085253	-2.989887	-2.897592	-1.574002	-0.338656	-0.774173	0.992403	-0.784668	0.489502	-0.453125	0.085831	-0.032320	-0.010466	-0.592980	0.282621	0.683770	0.317740	133.668465	-82.106037	175.963230
31402		10.898387	-3.192676	-1.655102	-2.861437	-3.120783	0.854032	-0.494621	-0.715688	0.813042	-0.780273	0.491943	-0.446533	0.109171	-0.031523	-0.016082	-0.591627	0.288580	0.684002	0.314390	139.089901	-82.222390	170.311388
31403		10.580054	-2.260365	-3.568102	-0.903160	-3.899029	0.853102	-0.361216	-0.604864	0.766960	-0.778076	0.494141	-0.435547	0.105994	-0.022261	-0.035320	-0.590235	0.293222	0.684107	0.312476	142.986925	-82.229340	166.169326
31404		10.061589	-0.681883	-3.448052	0.334838	-2.711360	0.489040	-0.247155	-0.445196	0.605403	-0.771484	0.498535	-0.439941	0.100712	-0.006556	-0.034248	-0.589785	0.297281	0.684210	0.309247	147.319856	-82.281865	161.763474
31405		11.146348	-1.448916	-1.661703	-1.495397	-1.700035	1.321716	-0.294436	-0.311153	0.547783	-0.765137	0.503174	-0.435547	0.111528	-0.014208	-0.016423	-0.589126	0.300507	0.683854	0.308170	149.820201	-82.293482	159.070048
31406		11.056315	-0.919197	-2.965646	-0.223051	-2.294366	1.437556	-0.237958	-0.231263	0.483946	-0.769775	0.507568	-0.435547	0.110619	-0.008960	-0.029518	-0.589190	0.303761	0.683520	0.305590	153.304917	-82.349492	155.526535
31407		11.988892	-0.354532	-3.802457	0.644155	-2.491306	2.503811	-0.009145	-0.096276	0.408984	-0.767334	0.507568	-0.431152	0.119914	-0.003302	-0.037967	-0.589471	0.305337	0.683166	0.304265	155.060586	-82.401932	153.749907
31408		12.082032	0.477064	-2.704610	0.658487	-1.039682	2.516270	0.175404	-0.013298	0.440879	-0.767578	0.511963	-0.431152	0.120811	0.005061	-0.027034	-0.590801	0.306862	0.682895	0.300739	158.300835	-82.515966	150.693434
31409		10.910848	0.890362	-2.576840	1.072826	-0.720708	1.359103	0.312568	0.029328	0.364272	-0.767578	0.514160	-0.444336	0.109088	0.009143	-0.025770	-0.591927	0.307143	0.682717	0.298635	159.933938	-82.606068	149.227073
31410		11.148653	-0.008362	-1.395873	-0.328947	-0.310915	1.413887	0.408604	0.082363	0.317851	-0.770264	0.520752	-0.442383	0.111481	0.000122	-0.014005	-0.593717	0.307380	0.682696	0.294863	162.748278	-82.714275	146.733574
31411		11.665945	0.277125	-0.911262	-0.430044	0.300495	1.880304	0.493640	0.073722	0.356581	-0.772217	0.518555	-0.444580	0.116651	0.003002	-0.009148	-0.595251	0.307027	0.682653	0.292226	164.488217	-82.812378	145.264777
31412		11.697175	0.480188	-1.381543	0.080795	0.133521	1.974531	0.624444	-0.000224	0.422640	-0.779297	0.527344	-0.446777	0.116961	0.005092	-0.013800	-0.597214	0.307075	0.682995	0.287329	168.057520	-82.862950	142.131389
31413		11.954009	0.582121	-1.057851	-0.032150	0.510144	2.191254	0.774882	-0.071557	0.461740	-0.775146	0.534180	-0.444580	0.119530	0.006138	-0.010512	-0.598817	0.306444	0.683605	0.283185	170.647848	-82.871402	139.968314
31414		11.797746	0.107974	-1.039897	-0.332974	0.279794	2.023291	0.906172	-0.124884	0.421592	-0.772949	0.534180	-0.448975	0.117981	0.001375	-0.010320	-0.600743	0.305785	0.684669	0.277186	174.421194	-82.810907	136.787529
31415		10.862483	1.098739	-0.569250	0.213932	1.254722	1.045697	1.013045	-0.159969	0.342948	-0.784424	0.540527	-0.455566	0.108610	0.011202	-0.005549	-0.602211	0.304140	0.686018	0.272433	176.611326	-82.734640	135.164964
31416		10.033838	1.135834	-0.141057	0.057217	1.592423	0.159706	0.929864	-0.188167	0.360883	-0.784180	0.538330	-0.459961	0.100319	0.011545	-0.001263	-0.603824	0.303244	0.687331	0.266488	179.947172	-82.602005	132.433106
31417		9.706560	1.089426	-0.137577	0.061135	1.579853	-0.173020	0.791061	-0.174030	0.438392	-0.798096	0.547119	-0.479736	0.097043	0.011112	-0.001248	-0.605004	0.302599	0.688237	0.262172	-177.685636	-82.496982	130.502900
31418		9.626226	0.519743	-0.930449	0.217435	0.678111	-0.153872	0.637474	-0.187295	0.487330	-0.801025	0.564941	-0.475586	0.096258	0.005461	-0.009197	-0.606302	0.302979	0.688908	0.256918	-174.233841	-82.330633	127.477878
31419		9.839316	-0.344760	-1.697853	0.120676	-0.390838	0.169598	0.617326	-0.191635	0.532006	-0.799316	0.578125	-0.464600	0.098418	-0.003134	-0.016894	-0.607256	0.303191	0.689469	0.252879	-171.744950	-82.183937	125.323092
31420		9.739717	-0.330883	-1.957216	0.366754	-0.500961	0.107816	0.659423	-0.177829	0.573292	-0.795166	0.586914	-0.458252	0.097423	-0.002965	-0.019496	-0.608688	0.303753	0.689969	0.247340	-168.231390	-81.976497	122.242889
31421		9.394106	-0.534006	-2.048120	0.350233	-0.687778	-0.214092	0.720174	-0.164446	0.615964	-0.793457	0.598145	-0.449463	0.093974	-0.004977	-0.020422	-0.609969	0.303895	0.690415	0.242720	-165.548178	-81.804013	119.949432
31422		9.079177	0.011578	-1.878702	0.701754	-0.146993	-0.568956	0.765702	-0.147502	0.670915	-0.791504	0.609131	-0.451660	0.090804	0.000492	-0.018719	-0.611733	0.304395	0.690763	0.236584	-161.924130	-81.554453	116.813981
31423		8.820104	0.503925	-2.009057	1.204248	0.138543	-0.834128	0.747328	-0.137575	0.720891	-0.787354	0.613770	-0.449463	0.088196	0.005432	-0.020010	-0.613241	0.304766	0.690960	0.231577	-159.073895	-81.341427	114.364774
31424		9.231917	0.318872	-2.194993	1.240733	0.023992	-0.399544	0.728751	-0.119245	0.812511	-0.782715	0.613770	-0.445068	0.092318	0.003644	-0.021882	-0.615147	0.305794	0.690917	0.225208	-155.361007	-81.028049	111.110931
31425		9.647602	0.354241	-1.959067	1.133484	0.349833	-0.033547	0.761681	-0.092870	0.921589	-0.774658	0.636230	-0.445313	0.096467	0.004061	-0.019531	-0.617018	0.306743	0.690637	0.219587	-152.112083	-80.745628	108.262558
31426		10.124691	0.318760	-1.720508	0.994088	0.665589	0.392152	0.819462	-0.073939	1.025070	-0.770508	0.642822	-0.447510	0.101235	0.003777	-0.017153	-0.619377	0.308129	0.690171	0.212350	-148.145124	-80.337838	104.794537
31427		10.254561	0.416519	-1.222598	0.773492	1.188559	0.425080	0.835388	-0.061602	1.163644	-0.759766	0.658691	-0.443115	0.102523	0.004813	-0.012175	-0.621671	0.309624	0.689437	0.205753	-144.579561	-79.937838	101.661439
31428		10.594769	0.396857	-0.921914	0.626175	1.556418	0.696368	0.820937	-0.041767	1.300234	-0.758057	0.671875	-0.449707	0.105921	0.004695	-0.009179	-0.624336	0.311867	0.688361	0.197740	-140.509231	-79.381460	98.075411
31429		10.879118	0.506454	-0.919849	0.792488	1.807173	0.937268	0.794243	-0.022129	1.478325	-0.745117	0.683350	-0.447510	0.108751	0.005905	-0.009164	-0.626939	0.314497	0.686884	0.190340	-136.791555	-78.810794	94.752984
31430		11.086387	1.266839	-1.271474	1.683026	2.324328	1.045090	0.714960	-0.020559	1.641572	-0.732178	0.696777	-0.449951	0.110756	0.013623	-0.012656	-0.629724	0.318160	0.684989	0.181693	-132.863344	-78.048303	91.229777
31431		11.517698	1.015649	-1.018877	1.452123	2.545034	1.418400	0.623566	-0.031080	1.796499	-0.715088	0.719482	-0.449951	0.115081	0.011222	-0.010137	-0.632213	0.322373	0.682762	0.173833	-129.467686	-77.259923	88.119678
31432		11.788476	1.059009	-0.318318	1.103194	3.269646	1.513341	0.614213	-0.023841	1.932259	-0.702393	0.744141	-0.449951	0.117775	0.011738	-0.003134	-0.634931	0.327269	0.680182	0.164652	-126.058344	-76.290105	85.041519
31433		11.411290	0.562220	0.220656	0.507934	3.334352	1.105269	0.572138	-0.052521	2.072217	-0.687256	0.757568	-0.447998	0.114046	0.006798	0.002255	-0.637358	0.332534	0.677387	0.156021	-123.161924	-75.293944	82.392101
31434		11.713235	0.506697	0.802738	0.198368	3.935297	1.258433	0.562007	-0.047440	2.206213	-0.667480	0.771484	-0.456787	0.117065	0.006336	0.008072	-0.639954	0.338445	0.674206	0.146153	-120.341286	-74.122885	79.858310
31435		12.308984	0.947383	0.637642	0.802930	4.509261	1.669050	0.589096	-0.017763	2.338661	-0.652832	0.796143	-0.454590	0.122967	0.010893	0.006418	-0.642553	0.344442	0.670684	0.136632	-117.828104	-72.944995	77.589877
31436		12.653889	0.987019	0.153773	1.410758	4.560899	1.948211	0.625502	0.004648	2.449342	-0.628418	0.805420	-0.456787	0.126405	0.011414	0.001569	-0.645398	0.350804	0.666742	0.125908	-115.388155	-71.616364	75.455100
31437		13.546249	1.702584	0.120742	2.157883	5.560192	2.468672	0.741503	0.049844	2.574820	-0.609131	0.825684	-0.461182	0.135229	0.018763	0.001241	-0.648427	0.356942	0.662469	0.115191	-113.131271	-70.281115	73.517196
31438		14.288892	2.061183	0.327156	2.521619	6.449120	2.858746	0.883809	0.147475	2.758146	-0.584961	0.839600	-0.465576	0.142589	0.022565	0.003263	-0.652125	0.363249	0.657412	0.102924	-110.758351	-68.780806	71.568593
31439		15.376076	3.355422	0.334909	3.687077	8.021123	3.219740	1.021776	0.322102	2.944621	-0.561035	0.862305	-0.474365	0.153250	0.035796	0.003281	-0.656474	0.369397	0.651455	0.090524	-108.342711	-67.250596	69.595244
31440		16.336776	5.601687	-0.318511	5.968927	9.866100	3.047237	1.188479	0.535967	3.139820	-0.541260	0.875977	-0.487549	0.162453	0.058591	-0.003278	-0.661835	0.375548	0.644234	0.076812	-105.731816	-65.567208	67.524471
31441		16.970634	6.731062	-1.225213	7.756726	10.660890	2.874198	1.390947	0.688458	3.306370	-0.512939	0.896484	-0.498535	0.168519	0.070189	-0.012352	-0.667823	0.381279	0.636171	0.062658	-103.127621	-63.828689	65.525943
31442		16.881220	6.716923	-2.017107	8.681911	10.474471	2.395206	1.622055	0.690370	3.549746	-0.484375	0.917236	-0.509521	0.167513	0.070314	-0.020189	-0.674158	0.386934	0.627390	0.046633	-100.598504	-61.885528	63.750993
31443		16.615412	7.242489	-3.457473	10.376480	10.246495	1.490849	1.645316	0.504572	3.846030	-0.453369	0.928955	-0.527100	0.164630	0.075884	-0.034377	-0.679670	0.393259	0.618489	0.029461	-98.490616	-59.758294	62.416981
31444		18.338680	3.269445	-4.250435	9.673512	8.264504	4.439488	1.263957	0.235043	4.235174	-0.422607	0.947266	-0.538086	0.182586	0.036835	-0.042495	-0.683369	0.401953	0.609350	0.011501	-97.001724	-57.359199	61.529724
31445		20.794568	1.050721	-3.858937	9.300547	8.708800	7.098418	1.231449	0.142174	4.493550	-0.389160	0.957031	-0.546875	0.207609	0.015412	-0.038652	-0.686348	0.411327	0.599735	-0.007334	-95.750480	-54.807582	60.872623
31446		21.995547	1.560011	-2.385898	9.141088	11.070200	7.091169	1.067246	0.242432	4.352316	-0.355957	0.966553	-0.557861	0.219516	0.020508	-0.024025	-0.688938	0.420614	0.589770	-0.024911	-94.646247	-52.342149	60.256366
31447		20.891069	0.247485	-3.438747	9.532314	9.616116	6.463738	1.322845	0.247647	4.042945	-0.324951	0.982666	-0.573242	0.208758	0.006925	-0.034610	-0.691788	0.427923	0.580111	-0.042225	-93.507634	-50.039722	59.768230
31448		20.004430	1.268559	-4.524742	10.981687	9.671594	4.611901	1.326251	0.080336	3.709080	-0.300537	0.987793	-0.586182	0.199741	0.016692	-0.045226	-0.693938	0.433987	0.571565	-0.058476	-92.572232	-47.945250	59.518038
31449		17.673257	1.612750	-5.329262	11.263754	8.558022	2.153814	0.987947	-0.410733	3.432876	-0.286865	0.988037	-0.599365	0.176527	0.019421	-0.052839	-0.693789	0.440187	0.565155	-0.074105	-92.170988	-45.968398	59.743753
31450		11.432898	3.833661	-7.246290	11.691038	5.479570	-4.227485	1.609612	-0.491781	2.661901	-0.266602	0.988525	-0.619141	0.113977	0.040435	-0.071863	-0.694854	0.441833	0.560467	-0.088539	-91.500100	-44.478868	60.062958
31451		13.020480	4.188177	-2.963373	8.726769	9.124905	-3.777574	2.129642	-0.340637	2.210505	-0.261963	0.986572	-0.643066	0.129779	0.043628	-0.028954	-0.697539	0.440433	0.555753	-0.102942	-90.446856	-43.207363	60.304204
31452		10.001152	-0.619912	-5.588518	8.264038	3.258984	-2.551972	1.888078	-0.533921	1.469821	-0.248535	0.989258	-0.667236	0.100200	-0.004937	-0.055668	-0.699373	0.437567	0.553566	-0.113918	-89.674096	-42.423469	60.706945
31453		9.447866	-1.727206	-5.565729	7.774064	2.435581	-2.272861	3.064063	-0.244644	0.913988	-0.255371	0.989258	-0.697998	0.094622	-0.015986	-0.055793	-0.704785	0.429195	0.550601	-0.126128	-88.055100	-41.900887	60.910607
31454		6.341697	5.612412	-2.691367	6.266635	6.299619	-9.836740	2.884480	-0.269018	0.094074	-0.259521	0.987061	-0.722168	0.063426	0.056533	-0.026015	-0.710037	0.419035	0.549738	-0.134331	-86.579365	-41.919792	61.110051
31455		4.313218	12.207360	-1.224378	5.841038	9.833626	-16.001205	1.918334	-0.658882	-0.897143	-0.277344	0.980225	-0.735352	0.043717	0.121987	-0.010930	-0.712801	0.409298	0.552630	-0.137804	-85.791022	-42.456062	61.572984
31456		2.914126	9.627084	-0.436176	3.852097	7.811325	-14.862780	1.204861	-0.827310	-1.732626	-0.294922	0.973145	-0.748535	0.029990	0.096037	-0.003660	-0.714063	0.399563	0.558564	-0.135901	-85.511517	-43.558729	62.101714
31457		0.955240	5.420090	0.677455	1.067649	4.420218	-12.985927	0.832723	-0.740736	-1.980557	-0.323486	0.957031	-0.748535	0.010063	0.054074	0.007037	-0.714954	0.390537	0.564560	-0.132639	-85.357753	-44.722034	62.566152
31458		0.411403	3.400568	1.418486	-0.298356	3.103712	-11.818376	0.479891	-0.623683	-2.126668	-0.343750	0.956787	-0.755127	0.004431	0.033925	0.014280	-0.715431	0.382302	0.570898	-0.126800	-85.385212	-46.048254	62.916499
31459		1.754988	3.367207	1.478930	0.061451	3.964269	-10.753676	0.098300	-0.597466	-2.453446	-0.367920	0.943115	-0.757324	0.017917	0.033446	0.014859	-0.715409	0.374545	0.577614	-0.119449	-85.574517	-47.474999	63.253752
31460		3.060886	4.185333	1.235637	0.902350	5.236260	-10.235176	-0.280051	-0.605390	-2.895807	-0.396484	0.929199	-0.752930	0.031173	0.041422	0.012392	-0.714720	0.366686	0.585599	-0.108590	-86.027525	-49.239128	63.574424
31461		3.747130	4.726100	0.944547	1.528523	5.909276	-9.913132	-0.705903	-0.635370	-3.370749	-0.427734	0.924072	-0.742188	0.038231	0.046654	0.009401	-0.713282	0.358945	0.594340	-0.095637	-86.722252	-51.188057	63.952160
31462		4.196056	4.845526	0.560023	2.066385	6.080779	-9.426665	-1.112738	-0.661484	-3.830577	-0.462891	0.903320	-0.735596	0.042860	0.047671	0.005474	-0.710928	0.351020	0.604259	-0.078981	-87.754528	-53.486863	64.381561
31463		4.783471	4.818075	0.216136	2.546838	6.195188	-8.686433	-1.461559	-0.665319	-4.270150	-0.498535	0.889160	-0.715820	0.048842	0.047160	0.001976	-0.707851	0.342968	0.614536	-0.060546	-89.034341	-55.941732	64.923324
31464		5.443655	4.682556	0.081221	2.796310	6.284234	-7.752133	-1.723924	-0.648209	-4.675907	-0.540039	0.861816	-0.704834	0.055509	0.045542	0.000595	-0.703991	0.334250	0.625429	-0.038883	-90.636484	-58.715550	65.583733
31465		6.096382	4.494111	-0.023566	2.949298	6.271448	-6.759563	-1.837570	-0.613621	-5.066317	-0.572754	0.834473	-0.687256	0.062077	0.043374	-0.000450	-0.699726	0.324641	0.636180	-0.016327	-92.438858	-61.606477	66.447329
31466		6.495570	4.165893	-0.080702	2.903492	5.970423	-5.880478	-1.917680	-0.542700	-5.471101	-0.612061	0.804688	-0.671875	0.066065	0.039853	-0.001017	-0.694891	0.313592	0.647074	0.009005	-94.594882	-64.815214	67.560947
31467		7.498932	3.823809	-0.189085	2.928043	5.790002	-4.448644	-1.999712	-0.455600	-5.859371	-0.648926	0.770752	-0.654053	0.076071	0.036000	-0.002086	-0.689682	0.301462	0.657440	0.035101	-97.125640	-68.127052	69.070588
31468		8.981246	3.366015	-0.555388	3.081606	5.395622	-2.487257	-1.980875	-0.359065	-6.163904	-0.683350	0.729980	-0.643066	0.090802	0.030816	-0.005706	-0.683872	0.287736	0.667472	0.063318	-100.382893	-71.689454	71.257894
31469		10.865774	3.036260	-0.968829	3.227061	5.002660	-0.182720	-1.960846	-0.259011	-6.393786	-0.715332	0.685059	-0.631836	0.109565	0.026773	-0.009821	-0.677779	0.273033	0.676559	0.091303	-104.672534	-75.233498	74.558676
31470		12.768474	2.638087	-1.302162	3.086903	4.323925	2.162225	-1.940783	-0.197019	-6.590065	-0.749756	0.642090	-0.620850	0.128471	0.022029	-0.013123	-0.670786	0.257023	0.685101	0.120920	-111.579515	-78.893510	80.428719
31471		14.469005	1.974210	-1.491551	2.505768	3.224873	4.283740	-1.937065	-0.105582	-6.773516	-0.777100	0.597168	-0.609619	0.145252	0.014683	-0.014997	-0.663424	0.240232	0.692562	0.150049	-123.962459	-82.314827	91.848627
31472		16.394896	1.066066	-1.756635	1.660253	1.637612	6.541549	-1.936355	0.027415	-6.961693	-0.800049	0.552246	-0.602783	0.164181	0.004777	-0.017654	-0.655195	0.222129	0.699056	0.180828	-153.293130	-85.116874	120.152403
31473		18.730070	0.159837	-2.463997	0.979472	-0.411309	9.045349	-1.887872	0.161211	-7.108220	-0.822754	0.498535	-0.600342	0.187174	-0.005290	-0.024763	-0.646792	0.203183	0.704243	0.210757	155.456013	-85.303314	170.475189
31474		21.612828	-1.375146	-3.134869	-0.386850	-3.301923	11.810610	-1.782944	0.253910	-7.129350	-0.847412	0.438232	-0.600098	0.215409	-0.021720	-0.031453	-0.637514	0.183189	0.708403	0.241211	123.198875	-82.572096	-158.201517
31475		24.811125	-5.631890	-3.041869	-4.183144	-8.233103	14.083073	-1.651796	0.234880	-6.914366	-0.863281	0.386963	-0.595459	0.245926	-0.065097	-0.030195	-0.628093	0.163576	0.711547	0.269152	110.423793	-79.078834	-146.226581
31476		28.242282	-11.089644	-1.850889	-9.838091	-13.645386	15.499676	-1.292656	0.156149	-6.495406	-0.868164	0.335693	-0.599365	0.278607	-0.120105	-0.017971	-0.618062	0.143992	0.714306	0.295011	104.272700	-75.450357	-140.745880
31477		29.537776	-13.847218	-2.444746	-12.168594	-17.611856	14.918330	-0.838855	-0.039299	-6.004836	-0.882080	0.293213	-0.592529	0.291047	-0.147356	-0.023784	-0.608178	0.125139	0.717186	0.316392	101.256907	-72.089770	-138.106827
31478		27.783908	-15.880118	-5.470731	-11.392337	-21.700426	11.473364	-0.328988	-0.216217	-5.506477	-0.887207	0.250977	-0.583496	0.273385	-0.166459	-0.054140	-0.597879	0.106516	0.720538	0.334694	99.757575	-68.889799	-136.763351
31479		21.748415	-19.102740	-7.172193	-10.823940	-24.367070	3.539684	-0.045758	-0.470427	-4.702034	-0.885498	0.208984	-0.581055	0.213081	-0.196088	-0.071173	-0.588125	0.090478	0.724172	0.348566	99.296874	-66.188953	-136.293364
31480		16.657151	-23.918761	-6.188623	-13.026311	-26.202001	-4.195008	-0.012101	-0.771368	-3.440056	-0.893555	0.182129	-0.572266	0.162662	-0.242012	-0.061239	-0.578964	0.079307	0.727923	0.358662	99.540330	-64.128060	-136.594790
31481		13.247162	-26.346268	-3.462533	-15.490557	-25.324731	-9.293063	0.072460	-0.932614	-2.202679	-0.897461	0.166260	-0.552490	0.129719	-0.264889	-0.034112	-0.571607	0.072753	0.731576	0.364376	100.203726	-62.793722	-137.289896
31482		11.386433	-26.995266	-2.755230	-15.804903	-24.745250	-11.776116	0.041416	-0.812835	-1.166095	-0.892578	0.157471	-0.556641	0.112399	-0.270605	-0.027149	-0.566384	0.069863	0.734460	0.367282	100.896666	-62.042115	-138.046270
31483		13.472738	-24.729592	-3.682403	-14.670505	-24.304536	-8.980169	0.131998	-0.617597	-0.130690	-0.892578	0.157471	-0.552246	0.134679	-0.247360	-0.036571	-0.563919	0.070150	0.736495	0.366946	101.597800	-61.900283	-138.754921
31484		14.067313	-22.207779	-2.443163	-14.554175	-21.882835	-7.291399	0.342192	-0.403677	0.824141	-0.888672	0.168701	-0.550293	0.141636	-0.221454	-0.024526	-0.564090	0.073060	0.738055	0.362959	102.454453	-62.337114	-139.480377
31485		13.731204	-19.030658	-1.657904	-13.394111	-18.945163	-5.923369	0.275688	-0.364529	1.606912	-0.898193	0.184082	-0.548096	0.138865	-0.189172	-0.016588	-0.565742	0.078878	0.738972	0.357260	103.409282	-63.188372	-140.376629
31486		14.187398	-14.692185	-0.483800	-12.175375	-15.064620	-3.318263	0.142614	-0.261117	2.175718	-0.889648	0.195313	-0.552490	0.143467	-0.145363	-0.004755	-0.568847	0.087142	0.739153	0.349959	104.465038	-64.411999	-141.421710
31487		15.174677	-9.990795	-4.298563	-6.999164	-13.985973	0.382646	-0.272671	-0.287656	2.935784	-0.904541	0.230469	-0.561523	0.153253	-0.097724	-0.042632	-0.572739	0.099268	0.738136	0.342449	105.599119	-65.994543	-142.842962
31488		20.177393	28.342205	10.681328	0.739383	23.049310	18.340819	-0.000796	0.870080	2.624687	-0.900391	0.243896	-0.568359	0.198494	0.286042	0.105944	-0.580620	0.107674	0.734356	0.334677	105.514925	-67.643435	-142.700217
31489		23.498360	6.004601	13.277071	-13.814796	7.590599	12.902057	-2.310790	0.424584	2.801472	-0.892822	0.277344	-0.566162	0.234378	0.064857	0.131542	-0.585525	0.123946	0.727627	0.335196	104.655607	-69.257254	-143.199876
31490		19.464991	-27.430825	-7.149088	-16.043055	-28.675624	0.313752	-2.985220	-0.445454	4.386973	-0.887451	0.310791	-0.575195	0.200771	-0.270971	-0.066987	-0.589461	0.149501	0.720957	0.332275	105.546958	-71.677572	-145.918926
31491		21.493622	-13.601089	-3.009651	-11.487372	-15.427869	7.097668	-0.259933	-0.729842	3.863386	-0.877441	0.342041	-0.564453	0.217618	-0.131863	-0.029132	-0.592939	0.165383	0.719649	0.321211	108.775696	-73.670859	-149.456538
31492		15.762984	-3.901793	1.740848	-7.450519	-3.703125	4.239795	0.077813	-1.550998	3.467144	-0.869629	0.370850	-0.549316	0.158133	-0.036286	0.018619	-0.593221	0.180307	0.721388	0.308507	114.595733	-75.270729	-155.389263
31493		10.611633	-6.513358	-1.023782	-5.744889	-6.487646	-0.814313	0.086399	-1.433918	3.090484	-0.865967	0.393066	-0.536133	0.107176	-0.063479	-0.009500	-0.592808	0.193391	0.722884	0.297686	120.809491	-76.459003	-161.745257
31494		2.364221	-1.924326	-3.029534	0.512269	-3.578466	-7.488499	0.221570	-1.218747	2.396979	-0.860107	0.417725	-0.536377	0.024054	-0.018923	-0.030171	-0.592489	0.203407	0.724439	0.287700	126.977132	-77.286822	-167.879981
31495		7.203396	-2.851718	-1.718333	-2.059961	-3.544238	-3.018083	0.293116	-0.515657	1.942246	-0.856445	0.433105	-0.527588	0.072350	-0.027791	-0.017038	-0.593682	0.210313	0.724376	0.280339	131.399764	-77.963687	-172.235691
31496		11.782768	-4.477693	0.560745	-5.640622	-3.234614	0.999959	0.194138	-0.381460	1.960052	-0.843262	0.442383	-0.525391	0.118248	-0.043625	0.005790	-0.595556	0.217576	0.723681	0.272508	136.413898	-78.685881	-177.172951
31497		10.682771	-2.937046	-2.141963	-2.339379	-3.647555	0.606307	0.310614	-0.392085	1.616919	-0.839111	0.453369	-0.529785	0.107102	-0.028472	-0.021255	-0.596656	0.223036	0.723487	0.266125	140.904052	-79.129903	178.432907
31498		8.286282	-1.631246	-1.993900	-1.094716	-2.449378	-1.560373	0.264666	-0.246468	0.838122	-0.839355	0.460205	-0.532227	0.082955	-0.015939	-0.019858	-0.597511	0.225817	0.723619	0.261462	143.971106	-79.366091	175.537387
31499		10.695072	-0.867216	-2.174697	-0.886978	-1.884053	0.935761	0.050772	-0.220238	0.598102	-0.833252	0.471436	-0.525635	0.107000	-0.008347	-0.021631	-0.597550	0.228126	0.723664	0.259234	145.896130	-79.460040	173.608654
31500		10.746883	-0.698205	-2.338590	-0.630275	-1.782225	1.044478	0.012342	-0.198770	0.581570	-0.844482	0.471191	-0.521240	0.107512	-0.006668	-0.023279	-0.597929	0.230662	0.723595	0.256294	148.243903	-79.593531	171.300407
31501		10.802464	0.040708	-2.979406	0.335509	-1.576256	1.276692	0.018655	-0.113020	0.492797	-0.833496	0.480225	-0.525635	0.108040	0.000676	-0.029733	-0.598171	0.232543	0.723386	0.254613	149.768907	-79.683709	169.761028
31502		10.794184	0.172916	-1.800931	-0.420987	-0.653599	1.104411	0.040487	-0.051267	0.446433	-0.835693	0.478027	-0.523438	0.107942	0.001974	-0.017981	-0.598917	0.234314	0.723060	0.252149	151.621828	-79.824256	167.972829
31503		10.983471	0.037190	-1.382003	-0.827924	-0.438404	1.217729	-0.011761	-0.069139	0.436662	-0.838135	0.486816	-0.525635	0.109838	0.000611	-0.013782	-0.599203	0.236025	0.722739	0.250793	152.966188	-79.905750	166.600365
31504		11.384037	0.165608	-2.571119	0.112360	-1.032987	1.812908	0.025318	-0.079796	0.420412	-0.833984	0.491211	-0.519043	0.113847	0.001899	-0.025666	-0.599779	0.237775	0.722499	0.248439	154.844786	-80.006048	164.777313
31505		12.022037	0.186599	-2.795595	0.215392	-1.087979	2.481587	0.198228	-0.033548	0.417721	-0.833984	0.493408	-0.523438	0.120221	0.002145	-0.027934	-0.600411	0.238742	0.722347	0.246420	156.254983	-80.087800	163.460942
31506		12.562060	0.631035	-0.975340	-0.905168	0.510157	2.760099	0.332698	0.032683	0.460648	-0.836426	0.495605	-0.519043	0.125604	0.006616	-0.009763	-0.601786	0.239572	0.722094	0.242980	158.350855	-80.235925	161.595727
31507		11.042457	1.015370	-0.762070	-0.539936	0.906580	1.252298	0.342513	-0.037410	0.477788	-0.832275	0.509033	-0.525879	0.110401	0.010430	-0.007582	-0.602639	0.240323	0.722046	0.240249	160.095426	-80.313101	160.024900
31508		10.783162	0.745303	-1.723360	0.095331	0.134624	1.131469	0.463948	-0.042729	0.449950	-0.832520	0.513428	-0.523682	0.107818	0.007736	-0.017193	-0.603870	0.240794	0.722166	0.236294	162.390602	-80.396478	158.033410
31509		11.450503	0.780287	-1.274288	-0.291010	0.538292	1.718656	0.670132	0.018598	0.505473	-0.837402	0.520020	-0.517090	0.114484	0.008135	-0.012727	-0.605336	0.240584	0.722286	0.232357	164.416363	-80.489413	156.368586
31510		11.572659	0.291418	-1.128350	-0.673189	0.328199	1.794344	0.778419	0.033919	0.574847	-0.832764	0.515625	-0.514893	0.115716	0.003291	-0.011291	-0.607336	0.240449	0.722357	0.226995	167.302797	-80.605946	153.959688
31511		11.294627	0.687959	-0.771347	-0.613090	0.900937	1.476635	0.790428	-0.009045	0.636068	-0.825928	0.515869	-0.525879	0.112924	0.007269	-0.007680	-0.608968	0.240366	0.722507	0.222183	169.941500	-80.672605	151.744469
31512		10.444691	1.043452	-0.984097	-0.061281	1.063386	0.676060	0.644819	-0.105307	0.623721	-0.834961	0.520264	-0.536865	0.104419	0.010792	-0.009752	-0.610324	0.240946	0.722746	0.216996	173.067402	-80.675935	149.014901
31513		9.674609	0.754120	-1.295345	0.136569	0.648004	-0.045103	0.343160	-0.221123	0.623591	-0.833008	0.529053	-0.547852	0.096736	0.007865	-0.012833	-0.610611	0.242404	0.723036	0.213573	175.507761	-80.585054	146.740934
31514		9.111837	0.535656	-2.123382	0.754825	0.000166	-0.471856	0.174209	-0.233112	0.647199	-0.851807	0.546631	-0.550293	0.091125	0.005670	-0.021123	-0.610931	0.244624	0.723100	0.209878	178.397178	-80.474111	143.975012
31515		9.110414	-0.608628	-2.627993	0.476735	-1.146882	-0.392847	0.186116	-0.155019	0.704908	-0.854736	0.568604	-0.550293	0.091145	-0.005741	-0.026215	-0.611334	0.246779	0.722900	0.206848	-179.084605	-80.387140	141.529528
31516		9.085342	-0.122050	-1.853039	0.213106	-0.223006	-0.544652	0.213436	-0.106686	0.768720	-0.849121	0.593018	-0.532959	0.090867	-0.000852	-0.018483	-0.612248	0.249177	0.722449	0.202806	-175.887603	-80.300627	138.471149
31517		8.599812	0.828366	-2.223497	1.176192	0.318494	-0.975174	0.079550	-0.161516	0.750817	-0.840576	0.604248	-0.521973	0.085984	0.008615	-0.022162	-0.612521	0.251822	0.722082	0.200004	-173.391125	-80.167491	135.984350
31518		8.786940	-0.104117	-2.973918	1.212674	-0.773560	-0.647756	0.157806	-0.142221	0.735424	-0.827393	0.611084	-0.517578	0.087894	-0.000695	-0.029677	-0.613165	0.254295	0.721702	0.196236	-170.506612	-80.013578	133.206484
31519		8.798935	-0.192304	-2.898855	1.132247	-0.730256	-0.645036	0.327433	-0.168917	0.769297	-0.822998	0.613281	-0.502197	0.088020	-0.001537	-0.028917	-0.613722	0.256245	0.721555	0.192465	-167.971406	-79.835163	130.822260
31520		8.978680	-0.231901	-2.931667	1.157259	-0.670492	-0.459843	0.400610	-0.204986	0.822668	-0.810303	0.629150	-0.500244	0.089825	-0.001891	-0.029229	-0.614487	0.258341	0.721468	0.187485	-164.936919	-79.588261	128.027808
31521		9.196697	0.103437	-2.741882	1.225798	-0.177020	-0.295695	0.473307	-0.185264	0.903382	-0.801514	0.640381	-0.502441	0.091986	0.001515	-0.027330	-0.615269	0.260331	0.721302	0.182745	-162.146957	-79.338519	125.466000
31522		9.273614	-0.238929	-2.612069	0.963450	-0.259825	-0.227115	0.580182	-0.185531	0.983968	-0.799805	0.649414	-0.509033	0.092770	-0.001857	-0.026041	-0.616428	0.262423	0.721070	0.176657	-158.835452	-79.020132	122.487030
31523		9.875749	-0.449707	-2.105263	0.427742	0.062678	0.285662	0.683255	-0.175708	1.078585	-0.786865	0.662842	-0.495850	0.098798	-0.003893	-0.020980	-0.617632	0.264371	0.720783	0.170619	-155.737310	-78.687050	119.728517
31524		10.531847	-0.551902	-1.454234	-0.145863	0.588797	0.816032	0.721466	-0.155296	1.186591	-0.780518	0.674072	-0.506836	0.105360	-0.004842	-0.014479	-0.619190	0.266707	0.720249	0.163441	-152.184976	-78.271936	116.577156
31525		10.663307	-0.011102	-0.574364	-0.478721	1.666457	0.724303	0.679700	-0.148036	1.299515	-0.760986	0.694336	-0.504883	0.106635	0.000601	-0.005663	-0.620609	0.269412	0.719507	0.156752	-148.919273	-77.830100	113.637410
31526		10.956659	0.708473	-0.489886	-0.072627	2.490479	0.891539	0.570610	-0.119198	1.406905	-0.761475	0.705566	-0.504883	0.109516	0.007869	-0.004812	-0.622192	0.272937	0.718357	0.149484	-145.407161	-77.294024	110.426817
31527		11.026324	0.921094	-1.391545	0.860521	2.316590	1.061825	0.453881	-0.102875	1.510485	-0.744141	0.719238	-0.500488	0.110196	0.010075	-0.013837	-0.623552	0.277035	0.716930	0.142993	-142.260169	-76.733481	107.464355
31528		11.168817	1.289507	-1.778252	1.476962	2.595034	1.171337	0.435033	-0.086545	1.639000	-0.722168	0.737305	-0.507080	0.111585	0.013848	-0.017705	-0.625141	0.281740	0.715157	0.135545	-138.915031	-76.054233	104.328379
31529		11.434195	0.590417	-1.512667	0.950534	2.406173	1.442558	0.464690	-0.058389	1.808197	-0.709229	0.748535	-0.502686	0.114287	0.006973	-0.015078	-0.626784	0.286797	0.713073	0.128126	-135.744759	-75.324909	101.331654
31530		11.542014	0.433561	-0.309188	-0.004276	3.151108	1.303410	0.481980	-0.025325	2.008921	-0.694336	0.769043	-0.511719	0.115369	0.005502	-0.003065	-0.628768	0.292572	0.710481	0.119453	-132.368028	-74.440599	98.166635
31531		11.917265	1.074057	0.160271	0.093977	4.211863	1.387588	0.433955	0.003932	2.189857	-0.672607	0.789307	-0.502930	0.119046	0.012041	0.001626	-0.630685	0.298983	0.707476	0.111007	-129.254952	-73.489609	95.186601
31532		12.492301	1.470041	-0.216278	0.772131	4.713422	1.825420	0.373946	0.028466	2.348203	-0.659668	0.800781	-0.509521	0.124739	0.016170	-0.002151	-0.632726	0.306173	0.703965	0.101732	-126.181536	-72.388286	92.241382
31533		13.262093	1.764140	-0.659455	1.469423	5.182493	2.451214	0.392823	0.030507	2.502037	-0.631104	0.818848	-0.502930	0.132385	0.019312	-0.006578	-0.634655	0.313713	0.700178	0.092454	-123.419955	-71.218097	89.571747
31534		14.045903	2.309684	-0.578686	1.906455	6.180457	2.880313	0.504846	0.054277	2.649455	-0.611816	0.841553	-0.513916	0.140135	0.024969	-0.005763	-0.636915	0.321407	0.695947	0.081820	-120.673605	-69.903148	87.009550
31535		15.301974	3.162570	0.197300	1.971342	7.971935	3.481569	0.658671	0.140775	2.811964	-0.583252	0.857666	-0.516113	0.152556	0.033766	0.001974	-0.639545	0.329020	0.691172	0.070772	-118.027134	-68.535211	84.583046
31536		16.496177	4.488421	0.445766	2.782107	9.881364	3.864510	0.883759	0.327887	2.978451	-0.561279	0.873535	-0.524902	0.164276	0.047315	0.004393	-0.643209	0.336374	0.685377	0.058253	-115.164429	-67.053689	82.078691
31537		17.538841	5.864032	-0.498061	4.657771	11.181755	4.169130	1.184449	0.553598	3.106292	-0.532715	0.889893	-0.540283	0.174435	0.061385	-0.005106	-0.647909	0.343017	0.678615	0.045108	-112.193658	-65.547839	79.576029
31538		17.979754	6.636761	-0.703002	5.577000	12.194890	3.897173	1.556805	0.701259	3.259882	-0.510986	0.910156	-0.555664	0.178659	0.069341	-0.007126	-0.653676	0.348820	0.670916	0.030082	-109.059352	-63.910603	77.132842
31539		17.262517	7.861355	-1.607864	7.179109	12.719383	2.394675	1.970649	0.665790	3.406823	-0.479736	0.919922	-0.568848	0.171198	0.081695	-0.015855	-0.659725	0.353654	0.662956	0.013472	-106.056678	-62.161349	75.031416
31540		16.902643	6.874527	-1.626967	6.905722	12.189186	1.989852	2.116114	0.531335	3.605728	-0.453125	0.929199	-0.584229	0.167706	0.071947	-0.015966	-0.665403	0.358473	0.654762	-0.004756	-103.321286	-60.221448	73.322887
31541		17.036424	2.189577	-4.259001	7.338891	7.982753	4.170867	2.017640	0.319658	3.985830	-0.417725	0.943359	-0.599609	0.169809	0.025714	-0.042615	-0.669800	0.364742	0.646337	-0.024067	-101.058814	-58.024714	72.034418
31542		19.907722	-0.883825	-6.009906	8.416316	6.986876	7.892815	2.059687	0.204928	4.346841	-0.393555	0.955078	-0.619385	0.199136	-0.003890	-0.060360	-0.673561	0.371751	0.637250	-0.045044	-99.016150	-55.584739	71.025647
31543		22.302855	0.224746	-5.345369	9.207466	10.087427	8.610251	2.027263	0.290171	4.479489	-0.362549	0.966797	-0.630127	0.222818	0.007784	-0.053717	-0.677036	0.379163	0.627291	-0.066056	-97.123192	-53.063806	70.125991
31544		22.452581	1.234830	-2.562326	7.577600	12.774778	7.260939	1.814463	0.350247	4.275827	-0.331055	0.971924	-0.647705	0.224145	0.017377	-0.025874	-0.680018	0.386384	0.617220	-0.085568	-95.476295	-50.652758	69.365156
31545		18.724812	3.782461	-2.440889	7.853464	12.906434	2.128039	1.400729	0.028757	3.857194	-0.306396	0.974609	-0.658691	0.186467	0.041596	-0.024153	-0.681014	0.393470	0.608935	-0.102952	-94.430680	-48.449353	69.046247
31546		14.660982	4.950354	-4.015261	8.838103	10.886116	-2.136218	0.545755	-0.437477	3.384558	-0.286621	0.984131	-0.669678	0.145830	0.052085	-0.039693	-0.678959	0.401543	0.603418	-0.116891	-94.224952	-46.512058	69.194615
31547		10.015692	3.507972	-6.606229	9.629881	6.155713	-4.750516	1.059624	-0.477864	2.468121	-0.279785	0.984131	-0.676025	0.099868	0.036662	-0.065632	-0.678134	0.405090	0.599402	-0.129436	-93.797078	-45.079190	69.445000
31548		15.193405	4.647280	-2.566705	7.560848	12.102343	-2.371030	1.626923	-0.187721	2.188038	-0.272949	0.979980	-0.687012	0.151436	0.048337	-0.025137	-0.679427	0.405891	0.594556	-0.141893	-92.900205	-43.846587	69.485592
31549		11.658925	3.199059	-1.571334	5.325859	9.355052	-4.090225	1.202990	-0.134100	1.880023	-0.265869	0.975830	-0.704590	0.116292	0.033178	-0.015438	-0.680088	0.407286	0.590298	-0.152139	-92.237948	-42.764050	69.525321
31550		6.491591	-5.922255	-8.107421	7.649012	-2.180255	-0.886490	2.086949	-0.207690	1.049037	-0.263916	0.984863	-0.728760	0.065307	-0.058031	-0.081616	-0.682932	0.402998	0.587333	-0.161979	-91.139541	-42.195425	69.652471
31551		7.997328	-2.418262	-3.216116	4.524539	2.913763	-2.658379	3.371905	0.506938	0.484186	-0.272461	0.971436	-0.752930	0.079948	-0.023440	-0.032763	-0.690715	0.393270	0.581801	-0.172509	-88.945648	-41.915297	69.261778
31552		4.830291	12.698713	-0.263178	4.193940	11.355668	-15.986121	2.124189	0.050373	-0.701872	-0.278809	0.967041	-0.763672	0.048748	0.126835	-0.001296	-0.695630	0.383845	0.581251	-0.175809	-87.702874	-42.353671	69.195650
31553		2.858561	14.582449	-0.816547	4.433444	11.187922	-18.567875	0.772169	-0.373416	-1.840582	-0.301270	0.964355	-0.772705	0.029941	0.145583	-0.007548	-0.697603	0.375475	0.585367	-0.172379	-87.417689	-43.413540	69.427028
31554		1.213295	7.971837	-0.580157	2.461108	5.948327	-14.703111	0.195971	-0.381376	-2.293671	-0.327881	0.957275	-0.766113	0.013057	0.079578	-0.005699	-0.698821	0.367616	0.590935	-0.165239	-87.471748	-44.783216	69.636503
31555		0.200958	4.545990	0.042130	0.951350	3.248199	-12.854297	-0.190131	-0.178685	-2.326823	-0.345703	0.950195	-0.768311	0.002538	0.045433	0.000380	-0.699812	0.361245	0.595947	-0.156884	-87.627157	-46.116754	69.701994
31556		1.705324	3.232079	0.624412	0.514188	3.547774	-10.757437	-0.510699	-0.153133	-2.570396	-0.374268	0.936279	-0.757324	0.017462	0.032114	0.006175	-0.700422	0.355095	0.601619	-0.146191	-87.965043	-47.642076	69.734891
31557		2.817440	2.911093	0.732155	0.620803	4.064930	-9.616883	-0.749034	-0.188703	-2.915835	-0.407959	0.933350	-0.750977	0.028588	0.028723	0.007240	-0.700570	0.348782	0.607930	-0.134064	-88.457896	-49.312554	69.820176
31558		3.180515	3.130896	0.819510	0.692661	4.460485	-9.351889	-0.972441	-0.191940	-3.345030	-0.441162	0.919434	-0.742188	0.032315	0.030811	0.008075	-0.700453	0.341691	0.615135	-0.119255	-89.110324	-51.283474	69.917038
31559		3.551255	3.856113	0.642699	1.150765	5.133497	-9.350362	-1.175745	-0.159654	-3.815298	-0.467529	0.903320	-0.729004	0.036235	0.037911	0.006232	-0.700084	0.333924	0.622786	-0.102546	-89.878212	-53.467521	70.036140
31560		4.161692	4.788465	0.403290	1.797295	6.064042	-9.178243	-1.381379	-0.128376	-4.300290	-0.504883	0.884766	-0.718018	0.042631	0.047002	0.003733	-0.699420	0.325043	0.631097	-0.082912	-90.806465	-55.986371	70.178580
31561		5.360524	4.847224	0.056424	2.406039	6.544727	-7.914971	-1.542416	-0.090883	-4.748554	-0.542236	0.859619	-0.704834	0.054736	0.047184	0.000222	-0.698374	0.315328	0.639570	-0.061581	-91.871316	-58.702504	70.393660
31562		6.623800	4.351122	-0.291816	2.800839	6.487015	-6.213872	-1.586252	-0.060699	-5.170087	-0.574951	0.832275	-0.696045	0.067334	0.041755	-0.003234	-0.697016	0.303996	0.648312	-0.038030	-93.078545	-61.720418	70.712725
31563		7.072208	3.657795	-0.604942	2.885287	5.775593	-5.115685	-1.559455	-0.037184	-5.584457	-0.611816	0.795898	-0.680420	0.071707	0.034536	-0.006311	-0.695292	0.291208	0.656949	-0.013574	-94.432072	-64.909271	71.227331
31564		7.595191	3.315812	-0.572456	2.720820	5.405915	-4.124030	-1.601331	0.021982	-6.012818	-0.652832	0.755127	-0.671631	0.076901	0.030808	-0.005986	-0.693079	0.276656	0.665530	0.013161	-96.073095	-68.405427	71.989570
31565		9.023221	3.174156	-0.723785	2.838479	5.327344	-2.359641	-1.634533	0.081245	-6.352744	-0.687256	0.716797	-0.656006	0.091175	0.028794	-0.007518	-0.690296	0.261042	0.673566	0.040698	-98.133244	-72.020792	73.182954
31566		11.121246	3.112239	-0.725685	2.803037	5.342209	0.058908	-1.554372	0.170056	-6.601386	-0.721680	0.673828	-0.656006	0.112151	0.027372	-0.007574	-0.687040	0.243739	0.680985	0.069477	-100.905839	-75.835296	75.114110
31567		13.464824	2.922929	-0.651903	2.524741	5.051081	2.769328	-1.480439	0.274826	-6.801159	-0.749268	0.631104	-0.642578	0.135528	0.024580	-0.006898	-0.683393	0.225440	0.687399	0.098152	-105.085066	-79.666950	78.520588
31568		15.654682	2.051320	-0.839057	2.003561	3.670634	5.431628	-1.451988	0.325340	-6.984546	-0.769775	0.582031	-0.640137	0.157120	0.014969	-0.008768	-0.678911	0.205818	0.693081	0.127896	-113.976766	-83.579169	86.635281
31569		17.854221	1.494308	-1.300519	1.698111	2.128036	7.939585	-1.406637	0.396407	-7.174377	-0.799072	0.530273	-0.635498	0.178896	0.008436	-0.013434	-0.673797	0.185357	0.697752	0.157425	-144.649723	-87.017990	116.585522
31570		20.512744	1.561991	-2.343431	1.999972	0.506672	10.784660	-1.265185	0.468881	-7.309568	-0.814941	0.474609	-0.637451	0.205456	0.007963	-0.023982	-0.667899	0.163333	0.701515	0.187374	130.063992	-86.650789	-158.793471
31571		22.991876	0.481275	-3.189694	1.399480	-2.382645	13.233886	-1.315229	0.431086	-7.367679	-0.833252	0.423096	-0.628418	0.229813	-0.003868	-0.032386	-0.660969	0.141382	0.704367	0.216792	105.220772	-82.945609	-134.619592
31572		25.400103	-3.699066	-4.161245	-0.834218	-8.303696	14.808653	-1.582800	0.248836	-7.213838	-0.849365	0.378418	-0.623779	0.252387	-0.046444	-0.041585	-0.652267	0.120563	0.706471	0.246801	98.108298	-78.850485	-128.367140
31573		28.727224	-9.501626	-2.344595	-6.604917	-14.367160	16.083673	-1.549535	0.112391	-6.834971	-0.860840	0.322754	-0.612549	0.283786	-0.104934	-0.022819	-0.642900	0.101277	0.707879	0.274464	95.021321	-74.968632	-126.110833
31574		29.891614	-11.207440	-1.198812	-9.585640	-16.884154	15.549440	-1.095070	0.109539	-6.426767	-0.869873	0.271484	-0.614502	0.295103	-0.121663	-0.011502	-0.633370	0.081619	0.708909	0.299382	93.284461	-71.239829	-124.977257
31575		27.622051	-13.133700	-4.258709	-8.416586	-20.634921	11.557418	-1.274993	-0.234989	-5.884778	-0.879639	0.231201	-0.598877	0.272242	-0.139654	-0.041393	-0.622925	0.065127	0.709825	0.322291	92.462355	-67.867517	-124.879641
31576		22.209323	-16.733585	-7.700551	-6.971915	-24.372776	3.961655	-1.517181	-0.768323	-5.032404	-0.882568	0.188965	-0.596436	0.218071	-0.173430	-0.074862	-0.611210	0.053055	0.711157	0.343313	92.314908	-64.925925	-125.686167
31577		17.358354	-21.419575	-8.385134	-8.236262	-26.886556	-3.521570	-1.537452	-1.149835	-3.841789	-0.883789	0.162354	-0.580811	0.169891	-0.218114	-0.081201	-0.599982	0.046067	0.712888	0.360124	92.582234	-62.700344	-126.965465
31578		13.975051	-24.929860	-6.214473	-11.398367	-26.923539	-9.068944	-1.371717	-1.153247	-2.634775	-0.885498	0.144531	-0.569824	0.136795	-0.251528	-0.059630	-0.590601	0.042830	0.714415	0.372782	92.903295	-61.140004	-128.233804
31579		11.527542	-25.795619	-5.553833	-12.036081	-26.045579	-12.236625	-1.148235	-0.813788	-1.564490	-0.885254	0.137695	-0.565430	0.113472	-0.259160	-0.053589	-0.584504	0.042159	0.714975	0.381298	92.993351	-60.222613	-129.091483
31580		12.811432	-24.915234	-6.999208	-11.114218	-26.629021	-10.932180	-0.729142	-0.525849	-0.468472	-0.885254	0.137695	-0.556641	0.127712	-0.249704	-0.068746	-0.581507	0.043694	0.715256	0.385161	93.090171	-59.941164	-129.689557
31581		14.398595	-22.337992	-6.501712	-10.830097	-25.077619	-8.264355	0.072961	-0.290301	0.559385	-0.885498	0.144287	-0.552246	0.144704	-0.222952	-0.064889	-0.581563	0.046054	0.716117	0.383198	93.453452	-60.253462	-130.060269
31582		15.649124	-17.805842	-4.205297	-10.725606	-20.952444	-4.755429	0.455951	-0.324975	1.221215	-0.881348	0.153320	-0.561035	0.157643	-0.177002	-0.042202	-0.582831	0.049907	0.717708	0.377773	94.157683	-60.963674	-130.564445
31583		13.221181	-16.445753	-2.843144	-10.315291	-18.212571	-5.910317	0.211789	-0.427872	1.904910	-0.882324	0.177734	-0.554688	0.133831	-0.163158	-0.028320	-0.584923	0.056944	0.718846	0.371327	94.888741	-62.034222	-131.258069
31584		13.797426	-14.671992	-3.467388	-9.084293	-17.381350	-4.068303	-0.335536	-0.447305	2.668104	-0.880615	0.195557	-0.554688	0.139992	-0.144919	-0.034118	-0.588177	0.068597	0.718780	0.364277	95.505872	-63.574772	-132.156386
31585		17.836550	3.208062	-3.168890	-0.959227	-5.240003	7.796116	-0.234246	-0.193667	3.261057	-0.886230	0.222168	-0.563721	0.177842	0.034946	-0.031556	-0.593265	0.081361	0.717709	0.355403	95.997086	-65.424602	-132.849105
31586		19.945240	24.683544	10.270118	-0.186643	18.563793	17.897419	-0.335142	0.327013	2.776155	-0.868896	0.240234	-0.563721	0.196166	0.249745	0.101962	-0.599248	0.092032	0.715018	0.348111	95.811576	-67.075764	-132.842586
31587		19.116183	-2.804422	8.357311	-13.065814	-2.154134	6.549868	-2.053377	-0.216254	3.058531	-0.863770	0.277832	-0.552979	0.191461	-0.024256	0.084042	-0.602755	0.109492	0.710564	0.346118	95.362074	-68.809743	-133.626869
31588		17.065203	-16.930313	3.796890	-16.878440	-14.288790	0.342598	-1.305134	-0.219247	4.109866	-0.855713	0.304688	-0.555420	0.174037	-0.165496	0.039247	-0.608353	0.128606	0.706582	0.337800	95.623118	-71.189253	-134.682207
31589		12.328960	-7.499020	-4.688238	-3.574996	-11.172554	-0.190465	-0.470211	-0.774069	3.626150	-0.852539	0.335693	-0.548828	0.124803	-0.072846	-0.046228	-0.611338	0.144144	0.705687	0.327863	97.465814	-73.205166	-136.900067
31590		12.776852	-7.340140	-4.161860	-3.896127	-10.463428	0.664102	-0.423605	-0.972936	3.140721	-0.844482	0.358154	-0.538086	0.129101	-0.071468	-0.040840	-0.612824	0.158352	0.705626	0.318532	100.201089	-74.956774	-139.971289
31591		14.570894	-5.776025	-0.651415	-5.891259	-6.939918	2.962406	-0.457673	-1.167670	3.287426	-0.838623	0.384766	-0.531738	0.146666	-0.055368	-0.005531	-0.613486	0.173201	0.705762	0.309087	104.097873	-76.660518	-144.260510
31592		10.522203	-5.165157	0.474268	-5.487834	-4.833992	-0.640695	0.136519	-0.813138	3.085297	-0.819336	0.402832	-0.527344	0.105982	-0.050024	0.005138	-0.615586	0.185186	0.705720	0.297858	108.577334	-78.288164	-148.740278
31593		7.379318	-1.512846	1.436868	-3.296209	-0.899853	-2.947557	0.177540	-1.010316	2.336527	-0.820068	0.425049	-0.520752	0.073890	-0.014279	0.014729	-0.615618	0.194388	0.706872	0.289067	113.864359	-79.329615	-154.025573
31594		9.937926	-1.826570	-0.274309	-2.575836	-2.255492	-0.302276	-0.249969	-1.007520	1.867097	-0.813965	0.438232	-0.514404	0.099556	-0.017340	-0.002220	-0.614650	0.203474	0.707760	0.282631	119.447703	-80.085152	-159.813625
31595		11.355288	-4.124952	0.934972	-5.145288	-3.072125	0.718911	-0.417062	-0.921595	1.853716	-0.807617	0.449463	-0.507813	0.113884	-0.040175	0.009959	-0.613552	0.212622	0.708076	0.277442	125.214194	-80.702798	-165.904078
31596		8.316718	-1.013803	-2.224587	-0.273422	-2.477081	-1.510140	-0.608751	-0.802977	1.393530	-0.801270	0.456299	-0.496826	0.083324	-0.009625	-0.021882	-0.612153	0.220794	0.708183	0.273852	130.540772	-81.101174	-171.616308
31597		9.578222	-0.904995	-2.444238	-0.231826	-2.457928	-0.198132	-0.682674	-0.619402	0.911117	-0.801270	0.460693	-0.492432	0.095897	-0.008696	-0.024115	-0.610444	0.226968	0.708122	0.272776	134.118022	-81.249702	-175.632030
31598		10.376785	-1.731483	-1.859913	-1.330396	-2.585760	0.467286	-0.719654	-0.659964	0.813090	-0.790527	0.467529	-0.488037	0.103898	-0.016959	-0.018195	-0.608553	0.233213	0.708218	0.271481	138.024439	-81.341228	-179.966250
31599		10.221048	-0.898410	-3.024657	0.079882	-2.647961	0.551035	-0.776021	-0.639529	0.718476	-0.794922	0.469482	-0.481445	0.102338	-0.008733	-0.029885	-0.606350	0.238999	0.708257	0.271276	141.211353	-81.330086	176.360495
31600		10.581657	-1.028816	-3.426071	0.217259	-2.921848	0.966136	-0.705539	-0.495754	0.589671	-0.795410	0.476318	-0.477295	0.105931	-0.010096	-0.033962	-0.604698	0.244178	0.708093	0.270780	144.153473	-81.340907	173.010150
31601		10.941058	-0.672597	-3.227451	0.248335	-2.455442	1.344572	-0.521203	-0.321317	0.535648	-0.795654	0.482910	-0.468506	0.109480	-0.006517	-0.032081	-0.603647	0.248100	0.707697	0.270595	146.219857	-81.366076	170.618152
31602		11.287754	-0.352460	-1.957066	-0.485824	-1.276955	1.567155	-0.373184	-0.212827	0.522738	-0.793213	0.480713	-0.470703	0.112907	-0.003266	-0.019444	-0.603273	0.251660	0.707190	0.269466	148.590911	-81.449153	168.037077
31603		11.012413	-0.114637	-1.761302	-0.406296	-0.926503	1.294286	-0.283486	-0.160217	0.480604	-0.795654	0.482910	-0.468506	0.110141	-0.000907	-0.017523	-0.602998	0.254447	0.706680	0.268799	150.341260	-81.510946	166.103168
31604		10.344538	0.136730	-2.329696	0.293341	-1.103084	0.730208	-0.146099	-0.134608	0.415346	-0.789063	0.487305	-0.461914	0.103458	0.001565	-0.023228	-0.603026	0.256834	0.706366	0.267289	152.407897	-81.576132	163.961674
31605		10.059534	0.636643	-2.475641	0.797763	-0.817558	0.503485	0.035938	-0.081183	0.330832	-0.791260	0.489502	-0.461914	0.100595	0.006537	-0.024714	-0.603230	0.258020	0.706230	0.266042	153.734924	-81.621326	162.641285
31606		10.131090	0.856009	-1.792256	0.473232	-0.145980	0.499372	0.102891	-0.046648	0.274578	-0.796143	0.498291	-0.461914	0.101303	0.008708	-0.017894	-0.603683	0.259046	0.706158	0.264201	155.344909	-81.678793	161.104352
31607		9.659414	0.909458	-1.964657	0.711618	-0.224172	0.058208	0.119579	-0.056494	0.203876	-0.791504	0.493896	-0.466309	0.096590	0.009205	-0.019614	-0.603912	0.259498	0.706219	0.263071	156.254248	-81.697864	160.254828
31608		10.749020	0.481495	-1.361675	-0.143521	-0.036328	1.031918	0.158403	-0.046287	0.196649	-0.793945	0.498291	-0.468506	0.107489	0.004931	-0.013588	-0.604324	0.260080	0.706316	0.261283	157.631737	-81.728029	158.983611
31609		11.292439	-0.159780	-0.888904	-0.979811	-0.126688	1.472643	0.208548	-0.075892	0.267270	-0.796143	0.493896	-0.457520	0.112930	-0.001438	-0.008848	-0.604679	0.260512	0.706465	0.259621	158.863261	-81.744998	157.860148
31610		11.161846	-0.697312	-0.925305	-1.280608	-0.506567	1.324303	0.256614	-0.132047	0.302534	-0.798096	0.491699	-0.468506	0.111635	-0.006792	-0.009188	-0.605051	0.261276	0.706802	0.257059	160.813130	-81.741066	156.067269
31611		10.703414	-0.155231	-1.297365	-0.570502	-0.351931	0.949323	0.364748	-0.181871	0.287770	-0.802734	0.496094	-0.483887	0.107048	-0.001375	-0.012879	-0.605257	0.261442	0.707439	0.254641	162.345643	-81.694737	154.730042
31612		10.264348	0.757784	-1.785795	0.472787	0.011283	0.622654	0.410509	-0.203114	0.241415	-0.821533	0.513428	-0.490723	0.102652	0.007738	-0.017738	-0.605495	0.261606	0.708253	0.251626	164.208326	-81.627034	153.114228
31613		10.243698	-0.051965	-2.053217	0.128495	-0.726060	0.608825	0.449219	-0.213636	0.241783	-0.824219	0.526611	-0.484131	0.102459	-0.000350	-0.020424	-0.605632	0.261391	0.709142	0.249002	165.608599	-81.545177	151.959163
31614		10.347942	0.182653	-1.838374	0.132014	-0.347327	0.692294	0.590904	-0.194436	0.302638	-0.822510	0.537842	-0.477783	0.103494	0.002037	-0.018277	-0.606196	0.261209	0.710058	0.245180	167.730237	-81.476780	150.184300
31615		10.547637	0.427264	-1.447063	-0.002939	0.157194	0.841150	0.695625	-0.175405	0.344547	-0.816406	0.553467	-0.462402	0.105481	0.004504	-0.014363	-0.606904	0.260558	0.710983	0.241414	169.570823	-81.417134	148.726331
31616		10.604670	0.801716	-1.135223	0.030258	0.709658	0.859038	0.789866	-0.158087	0.394435	-0.816406	0.553467	-0.462402	0.106039	0.008271	-0.011236	-0.607946	0.260042	0.711880	0.236656	172.057792	-81.359617	146.695911
31617		10.263055	0.968754	-1.437144	0.425348	0.667284	0.565542	0.879438	-0.167909	0.439747	-0.816895	0.564453	-0.451416	0.102621	0.009976	-0.014242	-0.609008	0.259152	0.712847	0.231946	174.300515	-81.293773	144.937237
31618		9.999948	0.759456	-1.664764	0.520375	0.414737	0.331469	0.926769	-0.187861	0.556824	-0.810059	0.566650	-0.451416	0.099993	0.007950	-0.016517	-0.610278	0.258812	0.713740	0.226169	177.393668	-81.200675	142.371312
31619		9.999598	0.649327	-1.274019	0.188400	0.657514	0.265417	0.906492	-0.175229	0.776393	-0.808350	0.580078	-0.445068	0.099981	0.006939	-0.012622	-0.611697	0.259033	0.714278	0.220311	-179.194859	-81.106629	139.444711
31620		9.846350	1.495842	-1.335367	0.844882	1.356502	0.107814	0.855489	-0.152423	1.004775	-0.797607	0.591309	-0.445068	0.098397	0.015510	-0.013213	-0.613450	0.260445	0.714340	0.213462	-174.671637	-80.972687	135.387281
31621		9.782669	2.291453	-1.422793	1.477952	2.020219	0.021363	0.755155	-0.169763	1.206767	-0.791748	0.613525	-0.445068	0.097698	0.023558	-0.014057	-0.615102	0.262636	0.714073	0.206813	-170.028049	-80.782923	131.122786
31622		10.275123	1.848245	-1.143949	1.003280	2.043302	0.440074	0.685319	-0.166937	1.385974	-0.787842	0.626953	-0.447510	0.102629	0.019233	-0.011289	-0.616906	0.265911	0.713418	0.199381	-164.697749	-80.490826	126.142341
31623		10.551382	1.701662	-1.127444	0.953747	2.115129	0.680764	0.663827	-0.128471	1.545043	-0.770264	0.640625	-0.445313	0.105385	0.017868	-0.011148	-0.618851	0.269516	0.712392	0.192045	-159.490372	-80.146442	121.245994
31624		10.858498	1.269042	-1.520789	1.066780	1.745042	1.033692	0.586165	-0.097617	1.685525	-0.762207	0.660889	-0.443115	0.108480	0.013649	-0.015116	-0.620963	0.274047	0.710916	0.184126	-153.993813	-79.680095	116.026851
31625		11.363606	1.216812	-1.339998	0.967163	2.059628	1.466785	0.564899	-0.073806	1.797336	-0.749512	0.678711	-0.440918	0.113525	0.013226	-0.013322	-0.623104	0.278761	0.709165	0.176404	-148.919425	-79.147902	111.194348
31626		11.652461	0.951310	-1.410580	0.970656	2.047933	1.743004	0.590522	-0.055953	1.885257	-0.738770	0.694580	-0.445557	0.116432	0.010652	-0.014043	-0.625426	0.283888	0.707150	0.167893	-143.894849	-78.483210	106.438556
31627		11.957609	0.229176	-1.111635	0.413875	1.907840	2.038749	0.631549	-0.046444	1.988146	-0.719482	0.717041	-0.438965	0.119548	0.003515	-0.011079	-0.627795	0.288991	0.704960	0.159343	-139.353242	-77.751585	102.167785
31628		12.094963	-0.660763	-0.518509	-0.449294	1.799228	2.168504	0.653846	-0.055310	2.102004	-0.706543	0.732666	-0.436768	0.121011	-0.005319	-0.005170	-0.630237	0.294608	0.702520	0.149911	-134.989410	-76.865208	98.098879
31629		12.423323	-0.676012	-0.013140	-0.710794	2.368622	2.380511	0.681029	-0.021543	2.233765	-0.682617	0.750977	-0.447754	0.124298	-0.005372	-0.000138	-0.632797	0.300328	0.699753	0.140412	-131.020310	-75.916846	94.417150
31630		12.657877	0.542475	-0.594056	0.657557	3.275037	2.422645	0.739523	0.046830	2.319932	-0.669922	0.773438	-0.443604	0.126503	0.006914	-0.005946	-0.635708	0.306263	0.696526	0.130112	-127.183949	-74.855916	90.911402
31631		12.862664	1.639917	-1.545671	2.254302	3.872967	2.452565	0.756333	0.064223	2.356562	-0.645996	0.793945	-0.450195	0.128416	0.017972	-0.015432	-0.638575	0.312025	0.693145	0.120049	-123.843524	-73.774039	87.892443
31632		13.458767	1.625682	-1.487385	2.398883	4.316154	2.899510	0.757845	0.081540	2.445922	-0.628418	0.805420	-0.447998	0.134369	0.017957	-0.014863	-0.641501	0.318202	0.689400	0.109324	-120.723998	-72.568529	85.106757
31633		13.952914	2.172512	-0.863059	2.423362	5.496078	2.995800	0.852788	0.138610	2.587294	-0.606689	0.823486	-0.458984	0.139226	0.023564	-0.008629	-0.644690	0.324304	0.685233	0.098269	-117.795970	-71.309680	82.541505
31634		14.108837	2.484778	-0.848154	2.817619	6.075262	2.879500	0.964300	0.211586	2.734393	-0.584961	0.839600	-0.456787	0.140722	0.026814	-0.008504	-0.648289	0.330598	0.680449	0.086115	-114.906094	-69.916574	80.081654
31635		14.575811	3.834952	-0.361025	3.430952	7.813968	2.614942	1.096018	0.335643	2.877525	-0.563232	0.859863	-0.472168	0.145180	0.040461	-0.003636	-0.652403	0.336675	0.674987	0.073574	-112.080678	-68.476641	77.731607
31636		15.571495	4.839200	-0.057392	4.061317	9.396502	2.879173	1.210102	0.523781	3.051280	-0.541260	0.875977	-0.480957	0.154951	0.050764	-0.000678	-0.657266	0.342928	0.668425	0.060086	-109.168792	-66.907972	75.349955
31637		16.001475	5.936180	-0.704296	5.506762	10.346680	2.612190	1.399790	0.689751	3.185391	-0.512695	0.892090	-0.496338	0.159017	0.061950	-0.007165	-0.662823	0.348736	0.661003	0.046084	-106.262307	-65.284968	73.048808
31638		16.111728	7.434748	-0.174375	6.117559	12.105590	1.628208	1.645370	0.755732	3.349187	-0.488770	0.912598	-0.511719	0.159836	0.077046	-0.001723	-0.668859	0.354216	0.652857	0.030598	-103.401861	-63.510366	70.936360
31639		16.008936	7.909245	-0.568020	6.901764	12.528957	0.888804	1.867412	0.686497	3.499037	-0.459961	0.922119	-0.531494	0.158653	0.081928	-0.005470	-0.674804	0.359239	0.644509	0.013980	-100.780843	-61.627762	69.189611
