// General information: 
//  MT Manager version: 2019.2.0 
//  XDA version: 2019.2.0 build 3853 rev 94535 built on 2019-09-09
// Device information: 
//  DeviceId: 00B40AC7
//  ProductCode: MTW2-3A7G6
//  Firmware Version: 4.3.5
//  Hardware Version: 1.1.0
// Device settings: 
//  Filter Profile: human(46.1)
//  Option Flags: Orientation Smoother Disabled, AHS Disabled, ICC Disabled
// Coordinate system: ENU
PacketCounter	SampleTimeFine	Acc_X	Acc_Y	Acc_Z	FreeAcc_E	FreeAcc_N	FreeAcc_U	Gyr_X	Gyr_Y	Gyr_Z	Mag_X	Mag_Y	Mag_Z	VelInc_X	VelInc_Y	VelInc_Z	Quat_q0	Quat_q1	Quat_q2	Quat_q3	Roll	Pitch	Yaw
31100		12.809439	-3.991975	-1.306377	0.000000	-0.000000	3.667435	-0.522688	0.259657	-2.588168	-0.599609	-0.472412	0.449707	0.127546	-0.041607	-0.013122	-0.239891	-0.575748	0.466033	-0.627518	-107.504648	-71.116738	-133.293352
31101		13.145291	-4.672440	-1.113873	-0.000000	0.000000	4.182236	-0.498239	0.295588	-2.805841	-0.585449	-0.492188	0.450195	0.130763	-0.048590	-0.011213	-0.231755	-0.559923	0.475969	-0.637361	-102.994331	-69.125496	-138.181021
31102		13.620161	-5.887597	-1.914152	0.661371	1.063874	5.095357	-0.409142	0.357309	-3.020062	-0.560303	-0.511719	0.446289	0.135257	-0.060963	-0.019260	-0.245876	-0.567999	0.469907	-0.629373	-105.550410	-71.092589	-136.191082
31103		14.486831	-7.872136	-3.119876	1.967789	3.056804	6.568127	-0.344272	0.370266	-3.235627	-0.541992	-0.527100	0.442383	0.143511	-0.081104	-0.031327	-0.257872	-0.573937	0.461283	-0.625553	-106.706237	-72.932502	-135.183401
31104		16.063467	-8.045714	-3.898740	1.920451	3.750474	8.080912	-0.399249	0.318262	-3.421928	-0.519287	-0.546631	0.445068	0.159164	-0.083267	-0.039077	-0.269582	-0.581147	0.452597	-0.620282	-108.940141	-74.790714	-133.079970
31105		16.426062	-9.846660	-4.694520	3.592035	5.496222	8.779186	-0.772624	0.275307	-3.497959	-0.494141	-0.566406	0.434570	0.162439	-0.101499	-0.046781	-0.283254	-0.587074	0.444385	-0.614519	-111.531299	-76.726103	-130.863749
31106		15.959586	-12.059854	-5.377953	5.710810	7.026542	8.816185	-1.470062	0.220335	-3.463118	-0.481934	-0.592773	0.422119	0.157413	-0.123729	-0.053052	-0.290370	-0.591301	0.446896	-0.605253	-116.545946	-77.240279	-126.733317
31107		16.325011	-11.985839	-4.986279	6.490083	6.760038	8.819396	-2.347430	0.165019	-3.324886	-0.461182	-0.621338	0.407471	0.161181	-0.123125	-0.048564	-0.307680	-0.594700	0.443838	-0.595544	-121.913222	-78.949946	-122.623262
31108		18.860356	-9.736707	-3.502017	4.684066	2.837792	10.989486	-3.390972	0.397971	-3.161474	-0.442383	-0.645752	0.370361	0.186959	-0.100910	-0.033702	-0.299437	-0.590641	0.471540	-0.582350	-126.074042	-76.003787	-120.557749
31109		18.103630	-5.180172	-6.937107	0.069142	4.577575	9.723837	-3.884503	0.625474	-3.199495	-0.430664	-0.665771	0.348877	0.179947	-0.056027	-0.068874	-0.321601	-0.590357	0.472314	-0.570062	-132.047831	-77.653841	-116.709029
31110		17.359844	-0.385360	-9.469617	-5.301941	4.328982	8.741352	-3.659573	0.653685	-3.717976	-0.402588	-0.698975	0.314453	0.173155	-0.008814	-0.095132	-0.310446	-0.587969	0.502268	-0.552850	-135.840797	-74.148114	-115.090963
31111		20.288637	-7.564491	-8.669636	2.337183	5.418814	12.749932	-3.665412	0.934094	-3.905618	-0.384277	-0.716797	0.283936	0.200934	-0.081165	-0.086184	-0.334246	-0.589288	0.499283	-0.540126	-143.016184	-76.011883	-109.839857
31112		20.701433	-12.389227	-7.847902	7.648291	3.981925	14.044860	-2.805977	0.644022	-3.487397	-0.365723	-0.734375	0.266846	0.204549	-0.128564	-0.077358	-0.321958	-0.598976	0.524462	-0.512358	-150.451972	-72.080511	-104.135666
31113		15.828526	-12.378142	-6.268615	9.255109	4.102415	8.640688	-1.789030	0.191816	-2.925224	-0.349854	-0.745605	0.244873	0.156387	-0.126633	-0.061712	-0.335265	-0.603187	0.519898	-0.503457	-156.070983	-72.933458	-99.319404
31114		8.926399	-9.437599	-6.027463	6.469484	4.193350	2.254849	-1.592464	-0.157483	-2.541985	-0.343018	-0.752197	0.234131	0.088098	-0.095976	-0.059445	-0.302491	-0.600813	0.551344	-0.493501	-151.289932	-67.904237	-104.636052
31115		9.411488	-3.367995	-4.926323	1.227987	1.748996	1.124048	-1.756128	-0.400434	-2.365197	-0.331299	-0.763428	0.210205	0.093802	-0.035220	-0.048770	-0.312465	-0.605599	0.549116	-0.483826	-155.567820	-68.305386	-101.110238
31116		11.531731	2.033832	-4.246721	-4.506377	-1.477770	1.704903	-2.224416	-0.235719	-1.440965	-0.331055	-0.768066	0.192627	0.115508	0.019034	-0.042548	-0.283262	-0.599248	0.578349	-0.475581	-151.454370	-63.848284	-105.978731
31117		9.739854	-0.409238	-7.832913	-2.540467	2.930443	2.075873	-3.235794	0.015538	-0.460566	-0.333008	-0.779541	0.155273	0.097381	-0.005583	-0.078254	-0.294059	-0.595880	0.584564	-0.465555	-153.778534	-63.977556	-105.455212
31118		3.849909	-9.169795	-5.023904	7.344882	3.734116	-2.312842	-3.080642	0.285015	0.185247	-0.346191	-0.781982	0.137451	0.038514	-0.092422	-0.048874	-0.285170	-0.590931	0.605484	-0.450408	-154.227516	-61.360443	-106.852991
31119		-1.224765	-14.820844	-1.450626	14.341343	3.237027	-7.147823	-1.710414	-0.226338	1.137330	-0.370850	-0.777832	0.117432	-0.011389	-0.148392	-0.013251	-0.286962	-0.585528	0.612987	-0.446159	-154.244121	-60.960390	-107.952783
31120		-3.608402	-14.054331	-0.405976	14.128357	3.116555	-8.638872	-0.127799	-0.706840	2.165496	-0.397949	-0.764893	0.132568	-0.034545	-0.140926	-0.004094	-0.248035	-0.571324	0.638271	-0.452414	-147.831269	-56.467918	-113.937810
31121		-4.318029	-9.113184	0.900475	9.858748	1.969244	-11.006966	0.979314	-0.834347	2.668750	-0.425049	-0.753906	0.136475	-0.041995	-0.091740	0.008380	-0.236511	-0.565846	0.644643	-0.456415	-145.769673	-55.230510	-115.750755
31122		-2.823054	-5.168813	1.072222	5.892984	0.916331	-10.328050	1.767434	-0.970797	2.750442	-0.452393	-0.738525	0.160400	-0.027565	-0.052162	0.010128	-0.181654	-0.546088	0.664351	-0.476894	-137.748313	-49.659906	-121.433078
31123		-0.353512	-3.652409	0.156702	3.420761	0.259116	-8.501510	2.332880	-1.153835	3.048827	-0.486328	-0.720947	0.181885	-0.002985	-0.036587	0.001122	-0.164146	-0.540721	0.668027	-0.484166	-135.479418	-47.979477	-122.671407
31124		1.144090	-4.676471	-0.627879	3.185799	0.076825	-6.150222	2.622140	-1.027283	3.491548	-0.507324	-0.692139	0.209961	0.012288	-0.046468	-0.006828	-0.112172	-0.520478	0.679146	-0.505253	-129.187225	-42.711617	-126.110781
31125		0.771127	-5.646020	-1.425359	3.655325	0.967548	-5.318331	2.744916	-1.053883	3.999556	-0.544189	-0.659180	0.233154	0.008913	-0.056088	-0.014980	-0.091313	-0.510939	0.683001	-0.513918	-126.783860	-40.533795	-127.360737
31126		1.916374	-6.072998	-2.953702	2.182611	1.397849	-3.289816	3.032150	-1.090644	4.486700	-0.578613	-0.628418	0.256836	0.020677	-0.059821	-0.030339	-0.041794	-0.489036	0.689443	-0.532696	-121.734015	-35.355308	-129.447324
31127		3.771276	-5.988729	-2.852823	0.807374	0.065210	-2.226344	3.318961	-1.023096	4.893812	-0.613281	-0.588623	0.291016	0.039304	-0.058456	-0.029308	-0.017102	-0.475367	0.692472	-0.542417	-119.213542	-32.641430	-130.553005
31128		6.172536	-5.123869	-2.833693	-1.878233	-1.736976	-1.699994	3.393796	-0.921254	5.294073	-0.646240	-0.535889	0.318359	0.063176	-0.049092	-0.028893	0.028440	-0.451603	0.695970	-0.557558	-115.162127	-27.645697	-131.804744
31129		9.307847	-4.322930	-2.118994	-4.337997	-4.495374	-1.401300	3.209874	-0.726610	5.686563	-0.677002	-0.483154	0.341309	0.094328	-0.040215	-0.021510	0.054050	-0.433143	0.699383	-0.565976	-112.859754	-24.500097	-132.857179
31130		12.139031	-3.555846	-1.682675	-6.924825	-6.914533	-1.626556	2.898791	-0.553647	6.013614	-0.707275	-0.437012	0.357666	0.122428	-0.031642	-0.016966	0.089194	-0.409811	0.700920	-0.576897	-109.857030	-20.352910	-133.737965
31131		13.573706	-2.542910	-1.909831	-9.004753	-7.838327	-2.618040	2.637008	-0.445362	6.335278	-0.738281	-0.377686	0.371582	0.136489	-0.020861	-0.019090	0.114375	-0.387479	0.705681	-0.582059	-108.030273	-16.836823	-134.726428
31132		15.015454	-2.192530	-2.396058	-10.845508	-8.535419	-3.071786	2.334524	-0.326609	6.626066	-0.769043	-0.318604	0.383301	0.150804	-0.016656	-0.023930	0.138722	-0.368274	0.704794	-0.590250	-105.821174	-13.839670	-135.308146
31133		17.323432	-3.142747	-3.283348	-13.203998	-9.576147	-2.425132	2.207695	-0.281262	6.798380	-0.791016	-0.261475	0.397217	0.174207	-0.025153	-0.032890	0.163749	-0.343385	0.710150	-0.592419	-104.374087	-10.036950	-136.185926
31134		19.501185	-2.621351	-4.929701	-16.267093	-9.839845	-2.752132	2.181835	-0.354988	6.860721	-0.810791	-0.193359	0.402100	0.195833	-0.018967	-0.049183	0.179275	-0.330354	0.706928	-0.599149	-102.709287	-8.186332	-136.455485
31135		20.909610	-1.450212	-6.061985	-18.778089	-9.943616	-4.876823	2.157780	-0.472247	6.892913	-0.819336	-0.132080	0.402588	0.209558	-0.006633	-0.060225	0.205035	-0.305260	0.710962	-0.599424	-101.411286	-4.267654	-137.019267
31136		21.713933	0.477605	-6.531136	-20.167828	-9.958618	-6.941374	2.219050	-0.700347	6.759593	-0.832764	-0.063965	0.418701	0.217023	0.012832	-0.064439	0.211736	-0.299572	0.706792	-0.604872	-100.308729	-3.617666	-137.080276
31137		23.857025	4.432678	-5.574468	-21.803253	-11.701978	-12.517765	2.281581	-0.793659	6.482469	-0.834717	-0.000244	0.427979	0.237171	0.052655	-0.054232	0.237432	-0.276473	0.708338	-0.604521	-98.995684	0.120105	-137.254775
31138		24.267788	7.724927	-5.007096	-22.203027	-12.078838	-15.690315	1.989093	-0.496469	6.394156	-0.832031	0.059082	0.426514	0.240155	0.085444	-0.048650	0.234056	-0.276866	0.705038	-0.609495	-98.480417	-0.427412	-137.488872
31139		22.758894	6.758615	-5.653017	-21.114993	-10.404834	-16.239180	1.735964	-0.323206	6.089242	-0.824951	0.116211	0.416260	0.225472	0.074958	-0.055535	0.256034	-0.254218	0.707444	-0.607735	-97.492383	3.053316	-137.790255
31140		22.545439	5.866519	-5.323883	-20.809371	-10.633533	-14.792918	1.780837	-0.562255	5.345510	-0.822021	0.166748	0.428223	0.223918	0.065131	-0.052047	0.244940	-0.262780	0.703445	-0.613283	-97.342967	1.277019	-137.909413
31141		22.634372	8.518722	-4.920801	-20.450300	-10.589447	-18.680150	1.995073	-0.890002	4.273711	-0.809814	0.206299	0.420654	0.224661	0.090479	-0.047321	0.263724	-0.247960	0.701650	-0.613720	-96.190095	3.768647	-137.691357
31142		18.695370	15.967449	-5.685154	-18.923184	-7.189283	-24.877281	1.900497	-1.175706	3.250827	-0.797363	0.235107	0.431152	0.184644	0.163212	-0.054222	0.247208	-0.268405	0.693899	-0.620766	-96.147058	0.563915	-137.199915
31143		14.914745	23.170066	-5.788281	-16.055390	-3.904375	-32.610336	1.133961	-1.142809	2.489621	-0.789063	0.252686	0.432861	0.146568	0.233856	-0.055719	0.260395	-0.261884	0.692232	-0.620021	-95.485751	2.049347	-136.692956
31144		16.407044	23.195479	-5.723825	-18.365021	-5.780717	-31.475449	0.180833	-0.574739	1.613124	-0.778320	0.266113	0.441406	0.162355	0.233320	-0.056559	0.234784	-0.287097	0.689965	-0.621611	-96.719857	-1.887662	-136.493565
31145		16.108072	21.842379	-5.297315	-17.560999	-5.808355	-30.367318	-0.546947	-0.034512	0.544523	-0.778320	0.263916	0.441406	0.160495	0.218715	-0.053543	0.235808	-0.285966	0.692400	-0.619031	-97.032710	-1.575596	-136.511304
31146		15.762223	16.206361	-4.145733	-17.118960	-7.211870	-23.348074	-1.147012	0.132638	-0.257464	-0.778076	0.254883	0.437256	0.157803	0.161619	-0.042490	0.200666	-0.316092	0.692335	-0.616839	-99.177296	-6.436387	-136.402617
31147		14.124827	15.186880	-3.895253	-15.742952	-6.285947	-22.381012	-0.764025	-0.043425	-1.350198	-0.777588	0.237549	0.439941	0.142277	0.150760	-0.039499	0.195438	-0.321657	0.692493	-0.615462	-99.633117	-7.195591	-136.250586
31148		18.995333	19.450545	-7.881510	-24.008335	-7.472700	-22.811267	-0.275523	-0.468700	-2.968014	-0.785400	0.206787	0.451660	0.192995	0.191548	-0.078630	0.157459	-0.361710	0.682739	-0.615013	-101.494284	-13.291517	-135.048255
31149		21.982993	-22.597696	-5.518827	-11.494760	-10.425182	18.176758	-1.197536	0.595918	-3.900016	-0.795654	0.173828	0.443604	0.215201	-0.230531	-0.054463	0.141233	-0.374057	0.679692	-0.614942	-102.212637	-15.548619	-134.919367
31150		28.183717	-16.825602	5.961484	-7.321619	-22.039312	14.135418	0.460836	-0.126954	-3.461039	-0.797119	0.151855	0.450928	0.278830	-0.173236	0.059397	0.103952	-0.414391	0.663241	-0.614479	-103.910917	-21.800731	-133.145731
31151		23.430478	11.208744	5.812830	-15.750657	-21.338217	-12.031964	0.870156	0.031702	-3.677893	-0.807617	0.125488	0.451416	0.236319	0.107500	0.058565	0.094331	-0.425964	0.652846	-0.619232	-103.615945	-23.851940	-132.620953
31152		16.691461	14.552437	-3.845951	-19.371352	-10.939250	-12.997570	-0.225911	-0.881649	-5.024357	-0.799316	0.075195	0.459473	0.170667	0.141225	-0.037874	0.055353	-0.469519	0.629402	-0.616718	-105.723290	-30.626691	-129.987387
31153		13.668306	7.211653	-6.091859	-15.164702	-6.172327	-7.016855	-0.212952	-1.149671	-5.059447	-0.793945	0.044678	0.471191	0.138795	0.068559	-0.060199	0.042852	-0.488885	0.617652	-0.614542	-106.744599	-33.226159	-128.287493
31154		11.861298	-5.395596	-4.706205	-5.334454	-2.730270	2.677909	0.457466	-1.227253	-4.458807	-0.788330	0.007324	0.483398	0.117659	-0.056480	-0.046465	0.012509	-0.525874	0.593151	-0.609485	-109.225981	-38.769240	-124.945931
31155		7.909338	1.204046	-2.108696	-5.554121	-3.917232	-5.095269	1.478336	-0.688866	-3.847444	-0.778809	-0.014404	0.488281	0.079379	0.010669	-0.020732	0.006711	-0.539176	0.578357	-0.612166	-109.293490	-40.720361	-123.515711
31156		7.358316	6.624134	-4.418290	-9.982762	-3.830081	-8.020725	0.559481	-0.209842	-3.404194	-0.771240	-0.038574	0.486816	0.074744	0.065099	-0.043922	-0.016771	-0.563066	0.558278	-0.609099	-111.272955	-44.801396	-120.991019
31157		8.483948	-0.100235	-4.392675	-5.884838	-2.018054	-2.561847	0.395584	-0.250522	-2.917238	-0.768555	-0.058105	0.493896	0.084869	-0.002153	-0.043824	-0.023842	-0.571944	0.548820	-0.609187	-111.808173	-46.303641	-119.923962
31158		12.083475	4.768586	-1.353018	-7.885226	-8.125129	-3.302812	0.191335	-0.098117	-2.308328	-0.765869	-0.069092	0.496338	0.121381	0.046300	-0.013426	-0.040280	-0.588915	0.534285	-0.605059	-113.825943	-49.086430	-117.569651
31159		8.251053	6.239288	-2.785327	-8.568605	-5.507037	-6.493722	-0.176741	0.074967	-1.696778	-0.767578	-0.086670	0.499023	0.083025	0.061665	-0.027939	-0.046134	-0.593164	0.529788	-0.604444	-114.346524	-49.991697	-117.018624
31160		5.920607	-0.229076	-4.532902	-4.447336	-0.063981	-3.823533	0.016067	-0.071717	-1.189871	-0.765381	-0.086426	0.507813	0.059207	-0.002639	-0.045308	-0.058061	-0.603571	0.520664	-0.601032	-115.975541	-51.812516	-115.346396
31161		10.168926	-2.131269	-2.700137	-2.952790	-2.815547	0.116701	0.222445	-0.188263	-1.147980	-0.756104	-0.099609	0.501709	0.101590	-0.021866	-0.026930	-0.060350	-0.607180	0.516576	-0.600699	-116.344797	-52.355540	-114.716863
31162		14.547056	1.131659	0.259195	-4.048330	-8.663538	1.210723	0.279761	-0.308959	-1.306699	-0.749023	-0.112793	0.512939	0.145536	0.010362	0.002832	-0.068355	-0.616916	0.507574	-0.597588	-117.890396	-53.775967	-112.851084
31163		13.475723	-1.359516	-3.100292	-4.125653	-4.533005	2.656624	0.147207	-0.459429	-1.183904	-0.748779	-0.116943	0.515381	0.134744	-0.014370	-0.030704	-0.070272	-0.621331	0.503628	-0.596127	-118.567382	-54.249339	-111.910265
31164		13.595048	-1.346090	-4.591066	-4.884492	-3.410374	3.310739	-0.145832	-0.424428	-0.976824	-0.746338	-0.127930	0.522217	0.135979	-0.014158	-0.045612	-0.079238	-0.627053	0.498993	-0.592901	-120.011300	-55.349857	-110.708501
31165		10.508171	-1.764129	-3.262102	-2.965618	-2.464648	0.642215	-0.253387	-0.368156	-0.727637	-0.746094	-0.136719	0.515869	0.105076	-0.018065	-0.032405	-0.081272	-0.629854	0.497603	-0.590821	-120.727630	-55.603141	-110.015347
31166		8.625911	-1.697568	-3.891178	-2.916091	-0.973047	-0.703433	-0.229424	-0.314316	-0.638014	-0.743896	-0.138916	0.524658	0.086265	-0.017295	-0.038756	-0.088651	-0.633529	0.494916	-0.588082	-121.916749	-56.396146	-109.151128
31167		10.407408	-0.647696	-3.386805	-3.605183	-2.756433	0.167705	-0.254066	-0.189040	-0.713116	-0.738770	-0.156250	0.525146	0.104082	-0.006891	-0.033761	-0.091086	-0.635732	0.493483	-0.586534	-122.530821	-56.684279	-108.589638
31168		12.237081	-1.495090	-4.523758	-3.885350	-2.374958	2.504301	-0.448079	-0.058505	-0.824562	-0.734131	-0.162842	0.529785	0.122321	-0.015557	-0.045167	-0.099102	-0.638759	0.490989	-0.584033	-123.710645	-57.504075	-107.811164
31169		12.744035	-1.020976	-4.768450	-4.379118	-2.633895	2.839401	-0.747628	0.080164	-0.777017	-0.731445	-0.173828	0.523438	0.127380	-0.010883	-0.047696	-0.103956	-0.640053	0.490643	-0.582060	-124.473810	-57.898745	-107.415156
31170		11.451979	-1.655457	-4.671472	-3.479667	-1.595813	2.063982	-1.131595	0.222246	-0.498834	-0.733398	-0.189209	0.519531	0.114426	-0.017104	-0.046746	-0.113109	-0.640947	0.491125	-0.578956	-125.662896	-58.568118	-107.036763
31171		9.874496	-2.031538	-4.311939	-2.650328	-0.819207	0.795310	-1.362575	0.307125	-0.300052	-0.741699	-0.202637	0.513184	0.098648	-0.020757	-0.043131	-0.119097	-0.640008	0.493921	-0.576409	-126.376052	-58.810891	-107.115900
31172		9.380815	-2.012335	-3.449216	-1.939003	-1.119134	0.133847	-1.422768	0.337164	-0.321072	-0.737061	-0.209229	0.506592	0.093717	-0.020519	-0.034505	-0.127915	-0.640105	0.495568	-0.572989	-127.547014	-59.353293	-106.855780
31173		9.878934	-2.106722	-2.791140	-1.477501	-1.750859	0.413409	-1.315708	0.304025	-0.410470	-0.734619	-0.220215	0.500244	0.098703	-0.021454	-0.027921	-0.134054	-0.639394	0.497816	-0.570425	-128.313299	-59.646119	-106.841425
31174		10.162232	-2.080348	-2.377442	-1.193352	-2.129657	0.545454	-1.208033	0.251724	-0.399297	-0.732178	-0.220459	0.491455	0.101550	-0.021150	-0.023775	-0.141960	-0.639567	0.498916	-0.567348	-129.406147	-60.154015	-106.530769
31175		9.287299	-1.445320	-2.414371	-1.546337	-1.941635	-0.431288	-1.128611	0.196659	-0.340680	-0.740967	-0.222900	0.471680	0.092824	-0.014748	-0.024152	-0.147025	-0.639048	0.500879	-0.564909	-130.120029	-60.376381	-106.453422
31176		8.729537	-0.876901	-2.370286	-1.834932	-1.902664	-1.117593	-1.060435	0.178322	-0.333608	-0.753906	-0.238525	0.449707	0.087259	-0.009040	-0.023733	-0.154367	-0.638550	0.502334	-0.562214	-131.047797	-60.819969	-106.300916
31177		8.591335	-1.049105	-2.345346	-1.618433	-1.747859	-1.167591	-0.933045	0.157416	-0.397439	-0.764160	-0.262939	0.441650	0.085874	-0.010771	-0.023471	-0.158859	-0.638378	0.503558	-0.560059	-131.731868	-61.050695	-106.129992
31178		8.776815	-1.353129	-2.399374	-1.357866	-1.594596	-0.855367	-0.811711	0.097856	-0.469538	-0.763184	-0.293701	0.446777	0.087724	-0.013835	-0.023981	-0.165581	-0.638253	0.504175	-0.557694	-132.632887	-61.505622	-105.866621
31179		9.159192	-1.804519	-2.422542	-0.990250	-1.527632	-0.341617	-0.782284	0.056057	-0.498021	-0.762939	-0.306641	0.455811	0.091540	-0.018368	-0.024180	-0.169608	-0.638699	0.504714	-0.555482	-133.398321	-61.736424	-105.506162
31180		9.027980	-2.066206	-2.713194	-0.835146	-1.069216	-0.257901	-0.806411	0.050727	-0.509177	-0.746826	-0.319824	0.454102	0.090220	-0.021001	-0.027071	-0.176317	-0.638439	0.505464	-0.553004	-134.330348	-62.173234	-105.228729
31181		8.821181	-1.688801	-2.909370	-1.162749	-0.956157	-0.492656	-0.868390	0.050431	-0.574588	-0.739746	-0.332764	0.456543	0.088155	-0.017268	-0.029042	-0.180805	-0.638978	0.505978	-0.550456	-135.230926	-62.427524	-104.773626
31182		8.943145	-1.623543	-3.056927	-1.220119	-0.856150	-0.339665	-0.942044	0.094648	-0.689351	-0.728271	-0.345947	0.454834	0.089360	-0.016687	-0.030534	-0.188302	-0.638859	0.506504	-0.547591	-136.358152	-62.925809	-104.349858
31183		9.139015	-1.807557	-3.327056	-1.131946	-0.607000	-0.004152	-1.050423	0.144702	-0.821299	-0.723633	-0.352539	0.448242	0.091290	-0.018625	-0.033240	-0.194271	-0.639540	0.506607	-0.544607	-137.526998	-63.307919	-103.714258
31184		9.274760	-2.382737	-3.402122	-0.566012	-0.289687	0.329665	-1.176629	0.205718	-0.940913	-0.716309	-0.370117	0.444336	0.092599	-0.024463	-0.033974	-0.203082	-0.639645	0.506702	-0.541170	-138.979738	-63.911660	-103.040116
31185		9.172790	-2.539687	-3.388368	-0.288901	-0.133522	0.285237	-1.231078	0.230180	-1.075388	-0.711426	-0.387695	0.436035	0.091550	-0.026098	-0.033830	-0.210507	-0.640476	0.506342	-0.537676	-140.480374	-64.410824	-102.156603
31186		9.094093	-2.460696	-2.772995	0.088813	-0.547707	-0.007729	-1.231744	0.242943	-1.264151	-0.699707	-0.403320	0.420898	0.090749	-0.025352	-0.027686	-0.220061	-0.641292	0.505361	-0.533786	-142.335851	-65.100273	-101.041448
31187		9.196728	-2.411984	-2.291322	0.405364	-0.931919	-0.085797	-1.154892	0.253499	-1.513609	-0.687988	-0.420898	0.412598	0.091752	-0.024947	-0.022887	-0.228436	-0.643141	0.503286	-0.529990	-144.329159	-65.734949	-99.577264
31188		9.174663	-3.471544	-1.951103	1.672331	-0.693440	0.023580	-1.053600	0.272546	-1.764018	-0.671875	-0.438232	0.408691	0.091409	-0.035625	-0.019450	-0.238917	-0.644837	0.500402	-0.526025	-146.705356	-66.564644	-97.833839
31189		10.530485	-3.449418	-1.768964	1.848018	-1.288184	1.180021	-0.867751	0.261955	-1.980054	-0.662354	-0.458008	0.402588	0.104933	-0.035611	-0.017674	-0.247566	-0.648028	0.495956	-0.522301	-149.275131	-67.293622	-95.581273
31190		11.342159	-3.971354	-2.287381	2.285069	-0.816907	2.177006	-0.801006	0.302230	-2.195860	-0.650391	-0.477783	0.396484	0.112941	-0.041047	-0.022882	-0.258969	-0.649954	0.491606	-0.518477	-152.189228	-68.216689	-93.242481
31191		11.646585	-4.324544	-2.497981	2.770209	-0.471056	2.543694	-0.786935	0.255059	-2.394287	-0.629639	-0.504150	0.390625	0.115904	-0.044733	-0.024954	-0.268342	-0.654107	0.485494	-0.514229	-155.618541	-68.951843	-90.043443
31192		12.449537	-4.294622	-1.591804	3.385300	-1.368627	2.939759	-0.844924	0.253212	-2.565702	-0.604736	-0.517334	0.382080	0.123910	-0.044606	-0.015889	-0.281108	-0.656011	0.480689	-0.509477	-159.456273	-69.833586	-86.883370
31193		12.458142	-4.824371	-0.668581	4.550833	-1.795510	2.636462	-0.888357	0.297624	-2.745381	-0.597168	-0.541504	0.371826	0.123893	-0.049977	-0.006651	-0.291703	-0.660534	0.473477	-0.504405	-163.958530	-70.489809	-82.638585
31194		12.138164	-5.718124	-0.888617	5.559659	-0.993944	2.390205	-0.925049	0.318204	-2.911389	-0.569824	-0.561035	0.365723	0.120518	-0.058981	-0.008808	-0.306732	-0.661247	0.468808	-0.498886	-168.812819	-71.328640	-78.712059
31195		12.366266	-6.847312	-1.727824	6.652063	0.274573	2.775134	-0.972942	0.382114	-3.066585	-0.546875	-0.583008	0.361816	0.122560	-0.070442	-0.017174	-0.318456	-0.665903	0.460447	-0.493099	-174.493241	-71.800944	-73.312549
31196		13.514932	-7.652329	-2.044189	7.730643	0.675737	3.794217	-1.052206	0.476198	-3.225443	-0.519287	-0.609131	0.353760	0.133842	-0.078796	-0.020351	-0.335640	-0.665192	0.455896	-0.486851	179.500162	-72.502988	-68.483877
31197		15.631296	-7.929848	-2.481393	8.520155	0.823736	5.681602	-1.241335	0.639805	-3.372480	-0.503174	-0.622314	0.343018	0.154865	-0.082072	-0.024807	-0.349382	-0.669129	0.446551	-0.480408	172.544569	-72.735068	-61.941562
31198		16.606211	-8.804723	-3.080078	9.740041	1.606413	6.474910	-1.799778	0.730649	-3.431763	-0.482422	-0.646729	0.326172	0.164404	-0.091154	-0.030592	-0.370377	-0.665496	0.443704	-0.472295	165.199977	-73.195453	-56.366874
31199		16.565565	-8.730311	-4.192415	9.909304	2.836899	6.371332	-2.439923	0.677889	-3.454886	-0.459229	-0.673096	0.298096	0.163968	-0.090653	-0.041389	-0.388075	-0.666889	0.436611	-0.462631	157.232957	-72.925288	-49.500834
31200		18.110157	-6.063270	-6.076374	7.807403	3.567699	8.295697	-2.842342	0.693235	-3.716658	-0.429443	-0.695068	0.281006	0.179713	-0.064842	-0.060487	-0.412697	-0.660696	0.436034	-0.450595	148.967860	-72.806735	-43.708248
31201		19.504428	-6.863439	-9.356387	8.952588	6.856887	9.879904	-2.733251	0.572540	-4.228962	-0.401855	-0.719482	0.257324	0.193250	-0.074008	-0.093132	-0.432370	-0.662774	0.426899	-0.437657	140.623516	-71.675731	-36.592315
31202		26.502375	-7.040201	-5.951846	12.564947	2.602122	15.138233	-2.500212	0.621401	-4.610412	-0.370117	-0.734863	0.235840	0.263111	-0.077226	-0.059401	-0.455566	-0.659723	0.421839	-0.423411	132.867915	-70.564960	-30.887121
31203		24.839232	-9.086341	-7.389954	14.881206	5.090891	12.696181	-2.427981	0.852315	-4.248573	-0.344971	-0.752441	0.223145	0.246060	-0.097004	-0.073799	-0.474227	-0.661146	0.410893	-0.411294	126.242018	-68.997174	-25.309956
31204		17.931704	-10.420373	-7.822767	14.660423	6.870515	5.324022	-1.943209	0.698922	-3.757457	-0.326660	-0.767822	0.199219	0.177035	-0.108302	-0.077810	-0.493523	-0.655814	0.408523	-0.399314	121.138089	-67.969215	-22.193451
31205		13.347174	-9.371732	-7.120898	12.698376	6.739067	0.674615	-1.453162	0.201456	-3.411598	-0.304199	-0.774414	0.195068	0.131770	-0.096490	-0.070648	-0.505427	-0.658682	0.399669	-0.388518	117.784863	-66.323412	-19.458620
31206		11.624755	-6.264044	-6.214914	9.670258	5.416544	-0.319128	-1.551489	-0.053499	-2.763016	-0.288330	-0.785400	0.175293	0.115380	-0.064718	-0.061622	-0.518616	-0.653808	0.401805	-0.376995	115.358913	-65.467980	-18.883271
31207		13.737308	-2.175260	-3.729600	7.278237	2.123418	2.429056	-1.481700	-0.100795	-2.475086	-0.279053	-0.791992	0.173340	0.137106	-0.023726	-0.037056	-0.527870	-0.655061	0.396725	-0.367230	113.377248	-64.152097	-17.631723
31208		15.536180	4.812171	-6.517585	1.777791	3.828928	7.192403	-2.325082	0.039007	-1.554828	-0.274170	-0.803223	0.142822	0.155713	0.046150	-0.065750	-0.540576	-0.645765	0.403803	-0.357363	111.355419	-63.911699	-17.899620
31209		13.182102	-1.000850	-6.400237	6.387688	4.689632	2.553731	-3.327723	1.011608	-0.700058	-0.280762	-0.808105	0.111816	0.131457	-0.011539	-0.064484	-0.554530	-0.636276	0.404689	-0.351962	108.063309	-63.729359	-16.355887
31210		5.054432	-10.697824	-2.924235	11.893347	2.614166	-9.310508	-2.270509	0.587328	0.081971	-0.293945	-0.806152	0.098389	0.050504	-0.107281	-0.028174	-0.563725	-0.624053	0.413880	-0.348533	106.312580	-64.373889	-16.607469
31211		0.288563	-12.987617	-1.371131	12.006486	1.560276	-14.716665	-0.601232	-0.119089	1.113485	-0.314209	-0.802002	0.096191	0.003617	-0.129898	-0.013319	-0.563403	-0.620249	0.418728	-0.350048	106.486590	-64.966469	-17.181154
31212		-1.690694	-8.833223	0.247920	7.480139	-0.022791	-14.811699	0.756626	-0.370024	1.806350	-0.336670	-0.797607	0.109131	-0.016112	-0.088489	0.002114	-0.558656	-0.613028	0.432032	-0.354186	108.245604	-66.486682	-19.619403
31213		-1.251612	-3.846141	1.261358	3.064077	-1.042348	-12.546601	1.683571	-0.472223	2.006412	-0.361572	-0.786621	0.128662	-0.012158	-0.038689	0.012260	-0.548874	-0.614179	0.436480	-0.361948	110.712792	-67.480182	-21.251863
31214		-0.383517	-2.001275	0.972431	1.715595	-0.890775	-10.979154	2.370310	-0.553792	2.256976	-0.386719	-0.773193	0.152588	-0.003635	-0.020168	0.009476	-0.538247	-0.609769	0.448859	-0.370131	114.333834	-69.160910	-24.753643
31215		1.223793	-2.619697	0.444028	2.860726	-0.547822	-9.542536	2.765938	-0.503285	2.720077	-0.416260	-0.750977	0.185059	0.012583	-0.026086	0.004110	-0.523550	-0.611923	0.453300	-0.382052	118.504418	-70.428539	-27.508712
31216		1.916256	-3.884718	0.009838	4.256518	-0.184220	-9.032510	2.949333	-0.360266	3.241786	-0.447998	-0.737793	0.206787	0.019789	-0.038526	-0.000436	-0.509578	-0.605884	0.466190	-0.394844	124.105714	-72.473822	-32.658723
31217		2.141241	-3.857505	-1.147315	4.231804	0.996799	-8.443087	2.970034	-0.400924	3.840759	-0.480225	-0.711426	0.230469	0.022169	-0.037979	-0.011996	-0.491915	-0.605111	0.472843	-0.410219	130.873808	-74.081652	-37.947795
31218		3.118373	-3.400069	-1.203206	3.874286	0.851503	-7.168429	3.080718	-0.376732	4.365753	-0.514893	-0.671875	0.258057	0.031936	-0.033119	-0.012487	-0.474892	-0.595767	0.487863	-0.426062	141.075640	-76.175388	-47.665641
31219		4.158149	-2.998593	-1.164083	3.465134	0.644394	-5.913029	3.173860	-0.307014	4.831840	-0.558350	-0.638916	0.279053	0.042305	-0.028781	-0.012039	-0.454200	-0.591922	0.496017	-0.444181	153.279683	-77.533889	-58.327972
31220		5.243621	-2.825516	-1.080690	3.119770	0.328679	-4.636241	3.099679	-0.120015	5.263407	-0.593262	-0.592773	0.300049	0.053159	-0.026691	-0.011197	-0.435136	-0.578749	0.511468	-0.462717	171.070822	-78.727852	-75.607139
31221		6.501972	-2.843030	-0.876322	2.864955	-0.088167	-3.263287	2.928610	0.101895	5.716318	-0.636963	-0.546631	0.320801	0.065790	-0.026425	-0.009193	-0.413476	-0.569970	0.520746	-0.482696	-170.720035	-78.776804	-92.456971
31222		7.907393	-3.284641	-1.057551	2.724749	-0.152679	-1.629785	2.678677	0.353245	6.178181	-0.669922	-0.496338	0.334961	0.080016	-0.030237	-0.011133	-0.394028	-0.550983	0.536907	-0.502882	-150.061924	-77.761016	-112.849795
31223		9.258456	-4.034225	-1.069285	2.744694	-0.301820	-0.041744	2.416083	0.552512	6.625036	-0.707275	-0.435059	0.335449	0.093819	-0.037113	-0.011412	-0.371956	-0.536227	0.547656	-0.523624	-135.050366	-75.689502	-126.844696
31224		11.013030	-4.272945	-1.638986	1.753540	-0.064708	1.980901	2.360551	0.572989	6.971845	-0.742676	-0.373535	0.351563	0.111477	-0.038659	-0.017180	-0.351260	-0.512202	0.564081	-0.544130	-122.377794	-72.494428	-139.441926
31225		13.299205	-3.629736	-2.518470	-0.494645	0.265577	4.186456	2.450912	0.515980	7.264401	-0.775879	-0.308105	0.347412	0.134119	-0.031124	-0.025932	-0.326422	-0.494240	0.574692	-0.564716	-114.548411	-68.970391	-146.243526
31226		16.122457	-2.412854	-3.784375	-4.004960	0.817148	6.411529	2.387280	0.480633	7.498054	-0.797852	-0.246582	0.356934	0.161874	-0.017610	-0.038468	-0.302838	-0.467828	0.589563	-0.584673	-108.122530	-64.707215	-152.465776
31227		19.351678	-1.749528	-5.753265	-7.586694	1.931377	8.872758	2.190815	0.377563	7.596707	-0.820068	-0.178711	0.350830	0.193870	-0.009501	-0.058032	-0.276388	-0.447286	0.599891	-0.603054	-104.126629	-60.584634	-155.548603
31228		21.537032	-1.104512	-8.516867	-11.316881	4.025591	10.012870	2.037197	0.038589	7.555962	-0.842529	-0.099854	0.353027	0.215544	-0.002034	-0.085262	-0.249918	-0.422346	0.612736	-0.619451	-101.112854	-56.048693	-158.139712
31229		22.543808	0.283582	-10.551166	-14.975841	5.348262	9.330183	2.042272	-0.379425	7.473414	-0.846924	-0.031738	0.360107	0.225295	0.012332	-0.104990	-0.221115	-0.402864	0.622204	-0.633776	-99.199148	-51.795430	-159.058375
31230		25.239146	4.727715	-10.789435	-21.531958	3.894988	7.410138	1.914042	-0.853524	7.219377	-0.846680	0.031982	0.367432	0.250898	0.057376	-0.106304	-0.189455	-0.385271	0.631729	-0.645439	-98.078691	-47.451653	-159.011146
31231		27.701595	11.124442	-9.358222	-28.500440	0.621931	3.057405	1.298811	-0.788903	7.005098	-0.839600	0.093506	0.365967	0.273245	0.121460	-0.091733	-0.161739	-0.366677	0.641371	-0.654242	-97.245586	-43.413578	-159.135435
31232		24.098175	8.643576	-6.264485	-24.234826	-1.851004	0.369526	0.744141	-0.104641	6.549217	-0.839111	0.148438	0.364502	0.238008	0.094495	-0.062178	-0.132943	-0.353323	0.649276	-0.660249	-96.930301	-39.731897	-158.387644
31233		20.455921	7.322876	-5.457623	-21.080001	-1.636744	-2.418800	1.715708	-0.651825	5.485978	-0.825195	0.198975	0.369873	0.202615	0.079265	-0.053251	-0.109633	-0.338660	0.653465	-0.668037	-95.961274	-36.566598	-158.364532
31234		17.956456	8.715827	-8.007618	-21.114490	0.382102	-5.757648	2.829981	-1.458479	4.318544	-0.806152	0.236328	0.371338	0.178182	0.092125	-0.077493	-0.078277	-0.341708	0.649519	-0.674710	-95.364461	-34.249157	-155.843977
31235		16.750151	16.881156	-10.258635	-25.544186	1.142340	-13.920725	2.514188	-1.410510	2.959431	-0.795898	0.260742	0.370605	0.165675	0.172534	-0.099260	-0.059402	-0.337766	0.646507	-0.681479	-94.359489	-32.491111	-155.051953
31236		15.139888	26.727740	-9.472383	-28.994277	-1.926520	-23.556181	1.302054	-0.967525	1.975657	-0.794189	0.276123	0.374756	0.149195	0.269364	-0.092249	-0.037759	-0.350032	0.642184	-0.680920	-94.707832	-31.680598	-152.104227
31237		13.568480	28.345092	-9.388566	-28.337024	-1.834031	-26.224027	0.111132	-0.561434	1.204744	-0.789795	0.278320	0.372559	0.134236	0.284314	-0.093350	-0.031659	-0.348088	0.644006	-0.680507	-94.804375	-30.966024	-151.796012
31238		13.486808	23.803465	-7.493210	-25.210490	-3.630782	-22.298392	-0.777279	-0.035643	0.117236	-0.785156	0.274170	0.383789	0.134742	0.237820	-0.075833	-0.021280	-0.366899	0.641888	-0.672987	-96.274085	-31.409733	-148.779769
31239		12.597416	17.462753	-4.843534	-20.241250	-4.299559	-17.487327	-1.174158	-0.006810	-0.897830	-0.789307	0.260742	0.384033	0.126757	0.173771	-0.049453	-0.026433	-0.369668	0.644175	-0.669093	-96.985832	-31.920295	-148.705475
31240		12.701886	12.733784	-4.310980	-17.608533	-4.727440	-12.919327	-0.970981	-0.176269	-1.776842	-0.788574	0.239014	0.386719	0.128180	0.125992	-0.043611	-0.022303	-0.396796	0.637677	-0.659866	-98.841904	-33.511855	-145.135034
31241		15.365677	10.508885	-4.007259	-18.111254	-5.849748	-9.228269	-0.764068	-0.380469	-2.459815	-0.790039	0.217041	0.387207	0.155009	0.103035	-0.040175	-0.030721	-0.405775	0.635306	-0.656345	-99.579157	-34.868265	-144.602211
31242		12.810627	7.061478	-3.806398	-14.071348	-4.872328	-7.223077	-0.615350	-0.591556	-2.846859	-0.791992	0.201904	0.403076	0.129205	0.068664	-0.037896	-0.028870	-0.437550	0.623726	-0.647057	-101.632696	-37.031414	-140.437007
31243		8.338404	-13.357063	-7.975057	-1.394169	5.396125	6.934502	-0.157490	-0.911075	-2.594387	-0.791260	0.179932	0.410400	0.082003	-0.134703	-0.079269	-0.034765	-0.448524	0.618632	-0.644137	-102.356516	-38.377159	-139.401190
31244		7.031575	-34.827204	-7.691138	12.800172	11.349184	22.263336	0.520659	-1.468835	-1.339469	-0.789063	0.182373	0.421387	0.068549	-0.348534	-0.077311	-0.023206	-0.477403	0.605589	-0.636247	-104.193866	-39.464370	-134.706450
31245		24.295638	-12.533010	8.292444	-0.685796	-16.449261	13.533822	0.664850	0.221904	-1.072697	-0.793213	0.168945	0.417236	0.242370	-0.126905	0.082235	-0.025704	-0.480013	0.600874	-0.638652	-103.834214	-40.091707	-134.673268
31246		26.281529	12.265762	9.581605	-14.878662	-25.811088	-3.083373	0.500423	0.777895	-3.563933	-0.799072	0.140381	0.420166	0.265313	0.117706	0.095086	-0.030221	-0.504113	0.582834	-0.636601	-104.772861	-42.614837	-131.737059
31247		23.265328	9.105007	0.710043	-16.307892	-16.251742	-0.093680	0.307438	-0.984964	-5.367434	-0.797363	0.092285	0.423584	0.234945	0.084753	0.008387	-0.043650	-0.522747	0.568258	-0.633966	-105.909476	-45.431873	-129.848756
31248		17.342931	14.034157	-8.365572	-21.538525	-8.672253	-4.475356	0.414281	-2.102073	-4.474170	-0.783447	0.066406	0.446533	0.177377	0.136573	-0.081520	-0.046876	-0.554439	0.547893	-0.624671	-108.787668	-48.077494	-124.747044
31249		16.552277	4.428975	-6.059586	-12.864633	-6.432578	1.295021	-0.184540	-1.928167	-4.057822	-0.782227	0.031250	0.458496	0.166949	0.040857	-0.059030	-0.054769	-0.571394	0.537533	-0.617711	-110.997925	-49.888648	-121.958535
31250		9.667404	-1.698473	-0.151927	-1.793998	-4.437068	-1.242617	0.515337	-0.988607	-4.165702	-0.772705	0.011719	0.469971	0.096299	-0.018990	-0.001090	-0.060245	-0.597813	0.515564	-0.610888	-113.827650	-52.421005	-117.117428
31251		9.759249	-0.000333	-1.003752	-3.249758	-4.532114	-1.741773	1.808996	-0.529643	-3.664743	-0.772217	-0.010010	0.474854	0.097598	-0.001702	-0.009789	-0.064656	-0.609296	0.499134	-0.612734	-114.313227	-54.215034	-115.219803
31252		8.435749	7.256177	-4.520435	-9.907933	-5.208104	-5.459736	1.681853	-0.517514	-2.786375	-0.765137	-0.020996	0.481934	0.085476	0.071752	-0.044378	-0.064642	-0.628512	0.477553	-0.610521	-116.128803	-56.014632	-111.139088
31253		12.540976	4.679816	-2.009084	-7.005583	-7.688704	-1.151888	0.816155	-0.360191	-2.519213	-0.764648	-0.040771	0.484619	0.126022	0.045294	-0.019677	-0.068905	-0.635837	0.467217	-0.610469	-116.919983	-57.214565	-109.631758
31254		7.893214	0.915741	-3.237408	-4.148741	-2.441207	-2.709932	0.491082	-0.327954	-1.848795	-0.764404	-0.047119	0.493652	0.079066	0.008506	-0.032223	-0.071126	-0.650485	0.452125	-0.606129	-119.247202	-58.525481	-105.966204
31255		8.303957	1.899045	-2.837523	-4.490025	-3.453144	-2.846456	0.518823	-0.382762	-1.089111	-0.759766	-0.055908	0.500488	0.083196	0.018611	-0.028167	-0.071877	-0.654281	0.447134	-0.605657	-119.771358	-58.961144	-105.005506
31256		9.869156	1.080326	-2.559151	-3.662760	-3.944464	-1.086797	0.481247	-0.273306	-1.064281	-0.752686	-0.062256	0.509521	0.098782	0.010339	-0.025431	-0.072425	-0.665985	0.434895	-0.601735	-121.862007	-59.824178	-101.758894
31257		11.482662	2.105888	-3.326501	-4.981628	-4.861282	0.132249	0.471983	-0.299108	-1.183947	-0.745850	-0.068604	0.516357	0.114998	0.020457	-0.033044	-0.073768	-0.669618	0.429628	-0.601323	-122.471462	-60.307867	-100.743791
31258		11.457740	-1.493320	-3.396584	-2.327013	-2.520895	1.731819	0.481533	-0.412995	-1.066703	-0.739014	-0.075195	0.523193	0.114566	-0.015463	-0.033766	-0.074861	-0.680679	0.417924	-0.597002	-124.798495	-61.081172	-97.383514
31259		12.311248	-0.446525	-4.792255	-4.019188	-2.725481	2.481575	0.306349	-0.371763	-0.875521	-0.741211	-0.079590	0.525391	0.123180	-0.004931	-0.047701	-0.075660	-0.683727	0.414160	-0.596041	-125.466770	-61.369607	-96.421086
31260		11.266909	-0.927514	-3.605934	-2.479618	-2.581672	1.500681	0.110281	-0.328114	-0.582759	-0.738770	-0.086182	0.527832	0.112700	-0.009584	-0.035880	-0.077255	-0.692588	0.405612	-0.591466	-127.725594	-61.879202	-93.491760
31261		10.786358	-1.446760	-3.429142	-1.933219	-2.104312	1.234120	0.081489	-0.296777	-0.431232	-0.734375	-0.085938	0.536621	0.107883	-0.014686	-0.034137	-0.077652	-0.694372	0.403986	-0.590434	-128.216353	-61.970179	-92.882899
31262		11.673994	-0.430390	-2.457378	-1.634304	-3.708069	1.416072	-0.008956	-0.247845	-0.469304	-0.736328	-0.094727	0.536865	0.116760	-0.004579	-0.024429	-0.079990	-0.701980	0.396664	-0.586074	-130.410466	-62.409838	-90.204283
31263		10.919749	-1.474542	-3.063410	-1.360626	-2.283943	1.310788	-0.253939	-0.128796	-0.420118	-0.735840	-0.105713	0.541748	0.109186	-0.015014	-0.030545	-0.081864	-0.703090	0.395979	-0.584948	-130.965877	-62.545128	-89.742348
31264		11.015997	-1.903377	-3.234837	-1.004639	-1.859397	1.631629	-0.375595	-0.054995	-0.287118	-0.733887	-0.101318	0.541504	0.110141	-0.019253	-0.032282	-0.085999	-0.708805	0.390917	-0.580847	-133.059736	-62.955247	-87.529306
31265		11.853904	-1.595042	-3.636946	-1.453624	-2.192239	2.408909	-0.583269	-0.029874	-0.235714	-0.731201	-0.116455	0.544189	0.118525	-0.016196	-0.036305	-0.088700	-0.709101	0.391781	-0.579496	-133.601828	-63.042667	-87.296284
31266		12.074266	-1.260633	-3.627418	-1.451329	-2.433311	2.536710	-0.886797	-0.030176	-0.199975	-0.731201	-0.116455	0.544189	0.120735	-0.012888	-0.036199	-0.094866	-0.713705	0.388983	-0.574732	-135.873877	-63.403512	-85.291618
31267		11.466465	-1.539968	-2.806464	-0.627596	-2.424405	1.825857	-1.269044	-0.001933	-0.106529	-0.733154	-0.125488	0.540039	0.114657	-0.015638	-0.027965	-0.099704	-0.713305	0.392237	-0.572194	-136.692554	-63.445857	-85.189575
31268		10.450557	-1.535212	-1.932431	0.148751	-2.412989	0.649652	-1.544835	0.011295	-0.003296	-0.730713	-0.129883	0.537842	0.104504	-0.015503	-0.019211	-0.108232	-0.716370	0.392477	-0.566622	-139.100485	-63.738011	-83.537554
31269		9.784763	-1.355291	-1.424555	0.393414	-2.540104	-0.168995	-1.707242	0.056921	0.043972	-0.737061	-0.136475	0.526855	0.097847	-0.013652	-0.014157	-0.114339	-0.715176	0.397419	-0.563478	-139.999031	-63.747470	-83.626716
31270		9.367069	-0.767710	-1.535691	0.011349	-2.608900	-0.653912	-1.739317	0.071657	0.022634	-0.743408	-0.147949	0.507324	0.093666	-0.007800	-0.015323	-0.124157	-0.717044	0.398806	-0.558020	-142.371877	-64.063481	-82.229763
31271		9.371708	-0.908539	-1.788881	-0.038985	-2.346015	-0.520270	-1.745498	0.073951	-0.045144	-0.767578	-0.163330	0.500977	0.093708	-0.009262	-0.017843	-0.130693	-0.715820	0.403446	-0.554754	-143.364191	-64.113872	-82.238809
31272		9.423250	-1.295996	-1.938376	0.273737	-1.944525	-0.305940	-1.749345	0.033526	-0.107976	-0.770996	-0.189941	0.497070	0.094222	-0.013180	-0.019285	-0.141266	-0.717248	0.404863	-0.549259	-145.835197	-64.461550	-80.817062
31273		9.070224	-2.683520	-1.846366	1.388201	-0.969529	-0.325230	-1.754763	-0.022212	-0.133252	-0.768311	-0.207275	0.499756	0.090686	-0.027056	-0.018217	-0.147884	-0.716315	0.409197	-0.545510	-146.991292	-64.494175	-80.650495
31274		8.447008	-2.266156	-1.995101	1.030152	-0.869212	-0.944163	-1.628292	-0.103050	-0.199894	-0.754639	-0.222412	0.509033	0.084457	-0.022907	-0.019722	-0.173887	-0.705404	0.431191	-0.535016	-149.515993	-64.791369	-82.490308
31275		8.048759	-2.751101	-2.120785	1.390472	-0.339001	-1.163992	-1.502899	-0.152410	-0.346116	-0.753906	-0.242188	0.511963	0.080456	-0.027808	-0.020938	-0.179791	-0.705235	0.434102	-0.530919	-150.838131	-64.815200	-81.981232
31276		7.800601	-4.073994	-3.341094	1.938229	1.359355	-0.702019	-1.178534	-0.065881	-0.559957	-0.744629	-0.250977	0.512207	0.077902	-0.041154	-0.033144	-0.200064	-0.698125	0.447458	-0.521898	-153.420493	-65.195006	-82.493385
31277		7.127887	-4.077894	-4.351977	1.443052	2.417669	-0.955636	-0.744658	-0.062825	-0.771684	-0.730713	-0.270752	0.506104	0.071134	-0.041215	-0.043344	-0.204545	-0.699265	0.446755	-0.519230	-154.748414	-65.356795	-81.501639
31278		7.541215	-3.040896	-4.799130	0.589615	2.111430	-0.628903	-0.554953	-0.111245	-0.970581	-0.732666	-0.281494	0.515137	0.075290	-0.030907	-0.047864	-0.220127	-0.695858	0.453477	-0.511550	-157.459792	-65.724423	-80.853816
31279		7.769440	-2.135572	-4.673693	-0.003821	1.522287	-0.623035	-0.543895	-0.095247	-1.169712	-0.723145	-0.296875	0.508789	0.077589	-0.021937	-0.046641	-0.224802	-0.698146	0.450884	-0.508684	-159.207563	-65.922015	-79.280101
31280		7.937449	-1.591937	-4.454290	-0.134199	1.113525	-0.641071	-0.618079	-0.082264	-1.346711	-0.716309	-0.307861	0.507080	0.079283	-0.016591	-0.044460	-0.239033	-0.697094	0.453842	-0.500950	-162.441900	-66.260428	-77.643048
31281		8.138536	-1.609135	-3.867281	0.309309	0.642354	-0.687403	-0.662806	-0.050329	-1.486430	-0.704346	-0.329834	0.500977	0.081272	-0.016824	-0.038597	-0.244956	-0.699782	0.450357	-0.497473	-164.711582	-66.474332	-75.580669
31282		8.811223	-2.049692	-3.439710	1.177135	0.359138	-0.213027	-0.687459	-0.018172	-1.609799	-0.694824	-0.347412	0.501465	0.087946	-0.021323	-0.034317	-0.253991	-0.704171	0.444385	-0.492092	-168.360363	-66.747376	-72.192215
31283		9.082833	-2.499287	-3.677185	1.647671	0.743329	0.136973	-0.680605	-0.004821	-1.711780	-0.685547	-0.360596	0.497314	0.090610	-0.025894	-0.036683	-0.260589	-0.707097	0.440010	-0.488364	-171.011380	-66.920878	-69.733454
31284		10.072687	-1.997687	-3.518920	1.661474	0.142703	0.913355	-0.718356	-0.002555	-1.811325	-0.666992	-0.386719	0.491455	0.100540	-0.021014	-0.035114	-0.270005	-0.711493	0.433443	-0.482703	-174.960145	-67.064364	-66.040803
31285		11.100685	-1.926102	-2.693892	2.330810	-0.812096	1.505226	-0.798109	0.006239	-1.934513	-0.655273	-0.402100	0.489746	0.110812	-0.020441	-0.026862	-0.277524	-0.714559	0.428445	-0.478352	-178.041284	-67.135979	-63.193107
31286		11.671844	-2.274064	-1.976043	3.343707	-1.268114	1.698782	-0.916500	0.019350	-2.030532	-0.641113	-0.424072	0.481445	0.116477	-0.024014	-0.019664	-0.288125	-0.718561	0.421719	-0.472025	177.648503	-67.127570	-59.256468
31287		11.845774	-2.388504	-1.309998	3.996228	-1.686509	1.541744	-0.993855	0.039646	-2.135243	-0.627197	-0.443848	0.477539	0.118191	-0.025213	-0.013000	-0.296811	-0.721493	0.416296	-0.466957	174.181394	-67.063175	-56.111477
31288		11.974214	-3.078013	-0.864847	5.110797	-1.598225	1.364183	-0.978905	0.093356	-2.257282	-0.611084	-0.463623	0.471436	0.119380	-0.032171	-0.008549	-0.308435	-0.724886	0.409192	-0.460403	169.662056	-66.911034	-52.047272
31289		11.840232	-3.899258	-1.285094	5.865584	-0.673583	1.240809	-0.871887	0.120941	-2.421665	-0.594727	-0.487549	0.465576	0.117910	-0.040478	-0.012748	-0.317404	-0.728161	0.402190	-0.455279	165.958436	-66.685530	-48.562052
31290		11.759672	-4.571928	-2.127271	6.390912	0.550925	1.258015	-0.792516	0.107546	-2.603858	-0.578369	-0.507324	0.455078	0.116976	-0.047329	-0.021150	-0.329208	-0.731654	0.393832	-0.448555	161.365436	-66.302282	-44.351825
31291		12.196069	-4.962169	-2.056050	7.151890	0.729840	1.407843	-0.793381	0.115289	-2.762340	-0.557861	-0.522705	0.450928	0.121247	-0.051381	-0.020429	-0.338511	-0.735457	0.385263	-0.442815	157.515749	-65.807605	-40.637876
31292		12.732477	-5.757666	-2.462841	8.177233	1.510129	1.683810	-0.872237	0.162184	-2.897186	-0.536865	-0.548828	0.447266	0.126452	-0.059520	-0.024474	-0.351072	-0.738580	0.376198	-0.435571	152.966155	-65.169526	-36.514356
31293		14.350144	-5.861193	-2.328027	9.179119	1.262495	2.829682	-1.049274	0.274149	-3.019676	-0.518799	-0.562012	0.441162	0.142562	-0.060891	-0.023161	-0.362006	-0.741730	0.366790	-0.429247	148.979786	-64.466239	-32.774641
31294		16.736622	-6.344041	-1.456310	11.176573	0.449533	4.234971	-1.441275	0.445384	-3.093950	-0.495361	-0.594971	0.426514	0.166325	-0.066123	-0.014464	-0.377209	-0.742858	0.357998	-0.421559	144.310135	-63.688582	-28.846361
31295		18.127506	-7.856907	-1.314211	13.455141	0.990625	4.679018	-2.152946	0.558802	-3.018245	-0.481445	-0.614990	0.407227	0.180024	-0.081431	-0.012780	-0.392513	-0.742895	0.350196	-0.414008	139.968541	-62.878576	-25.367900
31296		18.488564	-7.599003	-0.000295	14.247417	-0.155214	4.206209	-2.873633	0.636866	-2.929272	-0.465088	-0.634766	0.385498	0.183747	-0.078682	0.000528	-0.412710	-0.739451	0.345179	-0.404641	135.074612	-62.048147	-22.118536
31297		17.169192	-7.372763	-2.518727	13.112445	2.410027	3.517777	-3.333762	0.760042	-3.059726	-0.446289	-0.663574	0.362061	0.170439	-0.076755	-0.024574	-0.432439	-0.736124	0.338940	-0.395270	130.374521	-61.054046	-18.946503
31298		15.084438	-7.559306	-6.781876	11.592794	6.829056	2.418172	-2.868991	0.605845	-3.583018	-0.423340	-0.681152	0.342529	0.149242	-0.079243	-0.067153	-0.453322	-0.732627	0.332067	-0.384041	125.699934	-59.744191	-15.939912
31299		20.945171	-6.720502	-5.947026	14.554025	5.232893	6.918523	-2.195195	0.502163	-4.275981	-0.391357	-0.707520	0.325684	0.207793	-0.072311	-0.059218	-0.470286	-0.733576	0.319372	-0.372424	121.795588	-57.864694	-12.847465
31300		23.348531	-8.659971	-7.623506	17.702591	7.505107	7.749601	-1.955178	0.474129	-4.291700	-0.364014	-0.720703	0.310547	0.231365	-0.092323	-0.075901	-0.487634	-0.732988	0.308275	-0.360427	118.241516	-55.999094	-10.344054
31301		21.563846	-9.843985	-6.537336	18.544441	7.403363	4.534708	-1.581256	0.502950	-3.837355	-0.336914	-0.736084	0.295654	0.213526	-0.103066	-0.065109	-0.501023	-0.733983	0.295755	-0.350390	115.540033	-54.166463	-8.155582
31302		14.482081	-8.124779	-5.534368	13.710603	6.655597	-1.206882	-1.070887	0.242141	-3.508109	-0.320557	-0.755615	0.296143	0.143296	-0.084066	-0.055073	-0.512202	-0.734330	0.286678	-0.340917	113.565182	-52.595372	-6.787877
31303		10.586302	-4.496264	-5.874759	8.741408	6.237512	-2.638599	-0.960125	-0.163051	-2.918812	-0.309326	-0.758057	0.282959	0.105237	-0.046783	-0.058440	-0.520418	-0.736248	0.277968	-0.331418	112.294206	-51.016882	-5.871519
31304		11.164505	-3.984103	-5.550326	8.990640	5.742432	-2.229288	-1.198404	-0.385623	-2.372856	-0.293701	-0.762207	0.278809	0.111266	-0.041493	-0.055043	-0.528342	-0.735738	0.274707	-0.322615	111.262164	-49.906885	-5.642516
31305		13.658328	-1.321411	-3.974514	9.129800	3.329519	0.658433	-1.197972	-0.376247	-2.069025	-0.291016	-0.771240	0.259033	0.136510	-0.014863	-0.039403	-0.535540	-0.735970	0.269988	-0.314088	110.318971	-48.720250	-5.304634
31306		14.020531	7.237849	-8.612132	2.486694	5.498900	7.119337	-2.873991	0.022888	-0.888417	-0.284180	-0.780273	0.237305	0.140511	0.070507	-0.087160	-0.547226	-0.728298	0.273642	-0.308618	108.533526	-48.505596	-5.266870
31307		9.464427	-0.010300	-7.222011	5.233273	6.487850	-1.312911	-3.705754	1.098520	0.001315	-0.299316	-0.789551	0.197510	0.094246	-0.001447	-0.072720	-0.562128	-0.716328	0.276295	-0.307485	105.726793	-48.689830	-4.356406
31308		2.206956	-11.954295	-3.304912	9.988899	5.541470	-15.123452	-2.541461	0.488443	0.802513	-0.317139	-0.787842	0.186523	0.022472	-0.119861	-0.031582	-0.569756	-0.706719	0.283643	-0.308988	104.233134	-49.459830	-4.307215
31309		-1.057852	-13.959983	-1.998747	9.701221	4.596874	-19.018313	-0.928139	-0.275758	1.756852	-0.339355	-0.790283	0.177490	-0.009324	-0.139776	-0.019353	-0.569911	-0.701975	0.292044	-0.311678	104.175565	-50.395031	-4.927597
31310		-1.636926	-8.724035	0.573116	5.809179	1.107239	-16.456535	0.080000	-0.454850	2.343370	-0.364258	-0.779297	0.188232	-0.015359	-0.087427	0.005661	-0.564030	-0.699001	0.303402	-0.318142	105.157643	-51.907844	-6.073507
31311		-0.603425	-3.032976	2.016285	2.241193	-1.383748	-12.399249	0.635595	-0.480124	2.484440	-0.389160	-0.766113	0.187744	-0.005705	-0.030466	0.020052	-0.557090	-0.697731	0.312390	-0.324399	106.371002	-53.201305	-7.143638
31312		0.714222	-1.134074	2.252782	1.570369	-2.050750	-10.259441	0.913515	-0.444046	2.685531	-0.418701	-0.746582	0.200439	0.007245	-0.011347	0.022492	-0.547646	-0.696084	0.323594	-0.332922	108.073602	-54.876512	-8.581478
31313		2.176762	-2.095558	1.698637	3.126675	-1.449666	-9.442710	0.970316	-0.362834	3.092620	-0.448242	-0.729004	0.206543	0.022058	-0.020698	0.016925	-0.538471	-0.694251	0.333681	-0.341645	109.757417	-56.483782	-9.947470
31314		3.102417	-3.083778	1.002608	4.345072	-0.680457	-8.920862	0.951570	-0.266937	3.595071	-0.477783	-0.713867	0.217285	0.031559	-0.030321	0.009923	-0.527562	-0.690204	0.347448	-0.352954	111.904549	-58.629721	-11.885029
31315		3.302535	-3.978933	0.434177	5.106881	0.021755	-8.894696	1.110206	-0.249981	4.114367	-0.516602	-0.680908	0.231689	0.033830	-0.039122	0.004165	-0.515926	-0.686272	0.360256	-0.364783	114.347635	-60.740143	-13.978256
31316		3.473906	-4.825334	-0.010906	5.821859	0.586301	-8.760181	1.425945	-0.326049	4.572264	-0.546631	-0.652588	0.237549	0.035830	-0.047440	-0.000391	-0.501123	-0.680891	0.376440	-0.378888	117.939678	-63.284334	-17.193473
31317		4.387150	-4.901530	-0.394327	6.147722	0.841887	-7.595808	1.850676	-0.442295	4.997138	-0.590088	-0.617432	0.258545	0.045086	-0.047860	-0.004291	-0.484356	-0.676720	0.390909	-0.393242	122.471143	-65.631080	-21.039741
31318		5.644638	-4.404693	-0.639639	5.957726	0.728862	-5.858828	2.163294	-0.484764	5.391708	-0.627197	-0.573486	0.277344	0.057621	-0.042432	-0.006722	-0.464438	-0.670623	0.408298	-0.409702	128.924430	-68.243656	-26.790204
31319		7.052571	-3.737135	-1.018143	5.457274	0.631038	-3.935472	2.304818	-0.441634	5.788456	-0.661865	-0.531982	0.293701	0.071588	-0.035190	-0.010438	-0.443737	-0.664740	0.423800	-0.426159	136.729736	-70.506891	-33.716699
31320		8.150092	-3.607330	-1.219615	5.158807	0.456571	-2.459167	2.265273	-0.329689	6.203219	-0.692627	-0.474854	0.305664	0.082585	-0.033383	-0.012449	-0.421194	-0.655247	0.442453	-0.444390	147.611312	-72.763000	-43.903025
31321		9.124236	-4.053900	-1.530336	5.211410	0.518619	-1.177876	2.150559	-0.289948	6.593167	-0.734375	-0.422119	0.323975	0.092531	-0.037336	-0.015583	-0.398618	-0.645446	0.459607	-0.461805	160.592810	-74.271407	-56.151032
31322		11.030927	-4.263866	-1.609195	4.963629	0.001404	1.038751	2.288719	-0.307087	6.855309	-0.760742	-0.365234	0.335693	0.111705	-0.038639	-0.016379	-0.373580	-0.632577	0.479033	-0.480429	177.272006	-74.956866	-72.179559
31323		13.406991	-3.970882	-1.722126	3.993052	-0.805236	3.670658	2.498337	-0.312971	7.014095	-0.787354	-0.297119	0.347168	0.135374	-0.034759	-0.017465	-0.347836	-0.620763	0.495457	-0.498182	-166.708995	-74.404157	-87.298054
31324		16.374677	-3.437271	-2.195882	2.218144	-1.647725	6.830691	2.613326	-0.305985	7.105796	-0.811768	-0.231445	0.354248	0.164857	-0.028240	-0.022103	-0.320250	-0.605761	0.513350	-0.516686	-151.363238	-72.703315	-101.836607
31325		19.635998	-2.370032	-3.602860	-0.723050	-1.995905	10.174222	2.525615	-0.297031	7.112514	-0.825195	-0.161133	0.359131	0.197080	-0.016245	-0.035973	-0.293252	-0.591892	0.528467	-0.533282	-140.132755	-70.260619	-112.148829
31326		22.275332	-1.266093	-5.041622	-4.186485	-2.298256	12.551666	2.480061	-0.366056	7.013888	-0.836182	-0.095215	0.364014	0.223092	-0.004217	-0.050095	-0.265464	-0.575089	0.544746	-0.549594	-130.984648	-67.124476	-120.552563
31327		24.332948	1.050752	-5.550501	-8.457925	-3.714682	13.390744	2.694329	-0.581972	6.747230	-0.844727	-0.029541	0.368896	0.242934	0.019448	-0.054576	-0.237431	-0.561513	0.557145	-0.563843	-124.807010	-63.867395	-125.642242
31328		27.779320	5.505395	-4.141048	-14.453936	-7.968632	13.562944	2.702457	-0.432391	6.398542	-0.840088	0.036377	0.371826	0.275919	0.064449	-0.039984	-0.210117	-0.545399	0.569244	-0.578232	-119.521921	-60.452863	-129.969179
31329		28.160308	9.949606	-4.632198	-19.954635	-9.399883	10.841516	2.332935	-0.143181	6.094710	-0.844238	0.093506	0.363770	0.278419	0.108543	-0.044891	-0.185630	-0.530634	0.578959	-0.590572	-115.627094	-57.320019	-132.955770
31330		25.598032	11.283495	-6.498222	-22.076094	-7.409548	6.988951	1.965391	0.036003	5.758776	-0.834717	0.148438	0.362305	0.252567	0.120772	-0.063867	-0.163779	-0.513262	0.589293	-0.602056	-112.240457	-54.198929	-135.814625
31331		21.610399	8.979550	-7.039876	-19.611588	-5.029383	3.867462	1.733299	-0.083981	5.130867	-0.822754	0.190186	0.359131	0.213725	0.095904	-0.069495	-0.143590	-0.499635	0.597090	-0.610926	-109.912809	-51.439681	-137.489233
31332		18.081731	10.359949	-7.250311	-19.690034	-3.934799	-0.670408	2.069455	-0.645437	3.977061	-0.817383	0.233887	0.355713	0.178930	0.107909	-0.070822	-0.125021	-0.489581	0.601678	-0.618598	-108.109796	-49.126253	-138.400640
31333		14.621870	16.526601	-7.150340	-22.697761	-4.396965	-7.948492	2.107978	-1.006030	2.749299	-0.808838	0.251709	0.359863	0.144273	0.167994	-0.069013	-0.108322	-0.485665	0.602414	-0.624094	-106.986099	-47.451940	-138.288313
31334		12.830055	23.626881	-7.393557	-26.939732	-5.484033	-14.464581	1.567822	-0.979527	1.784649	-0.796143	0.271484	0.361572	0.126536	0.237970	-0.071452	-0.096841	-0.483497	0.602565	-0.627509	-106.296397	-46.344516	-138.086532
31335		15.002820	24.264812	-7.349813	-28.358133	-6.947620	-13.740013	0.692761	-0.439808	0.729553	-0.789551	0.271484	0.363770	0.149301	0.243446	-0.072327	-0.091561	-0.483012	0.602355	-0.628875	-106.030474	-45.874271	-137.905187
31336		15.526218	20.971909	-5.811066	-25.545129	-7.698208	-11.496884	-0.122337	0.085358	-0.207295	-0.796143	0.273682	0.361572	0.155455	0.209522	-0.058305	-0.093887	-0.483590	0.601983	-0.628445	-106.124246	-46.125128	-137.949328
31337		14.440696	16.294034	-4.031780	-20.848228	-7.445679	-9.372623	-0.541857	0.200884	-0.820430	-0.800293	0.260498	0.359619	0.145033	0.162236	-0.040903	-0.098389	-0.485172	0.601596	-0.626905	-106.457530	-46.610024	-137.918241
31338		12.732447	12.758576	-4.496578	-17.696876	-5.306863	-7.872144	-0.308126	0.005275	-1.625173	-0.806641	0.245117	0.362305	0.128354	0.126476	-0.045165	-0.105781	-0.490676	0.598088	-0.624770	-107.016145	-47.701806	-137.489412
31339		13.979837	10.109986	-5.330193	-16.733066	-4.491996	-4.726449	-0.111869	-0.218125	-2.408585	-0.808350	0.234131	0.360352	0.141060	0.099376	-0.053204	-0.112931	-0.498470	0.592596	-0.622579	-107.677323	-48.983282	-136.690758
31340		10.339310	5.967495	-9.490424	-13.826490	1.760060	-3.624089	0.172386	-0.630183	-2.954713	-0.814209	0.205566	0.372070	0.104559	0.058218	-0.094525	-0.121547	-0.510407	0.584240	-0.619173	-108.769679	-50.722139	-135.226428
31341		9.467843	-16.596360	-10.720882	3.088781	9.713308	9.580890	-0.194120	-0.750323	-2.575352	-0.811523	0.186035	0.379150	0.092931	-0.167272	-0.106696	-0.127823	-0.520094	0.578667	-0.615068	-110.000995	-51.972962	-133.792739
31342		15.858971	-25.529994	0.344304	13.111006	0.291801	17.231829	-0.794353	-0.347258	-1.215098	-0.817871	0.181641	0.383789	0.157027	-0.256240	0.004733	-0.133710	-0.525899	0.577129	-0.610306	-111.253495	-52.773924	-132.808816
31343		16.974371	4.697529	0.491389	-10.267524	-9.346060	1.034498	0.147486	-0.216902	-1.396378	-0.822266	0.172852	0.386230	0.170061	0.045785	0.005132	-0.136966	-0.530681	0.573132	-0.609210	-111.714486	-53.474467	-132.127385
31344		21.508470	9.807014	2.129640	-14.969141	-14.143624	1.984088	-0.731001	0.811102	-2.992854	-0.827637	0.137451	0.375977	0.216604	0.094911	0.020069	-0.151750	-0.537462	0.565953	-0.606468	-112.645695	-55.454295	-131.562731
31345		19.010064	0.831940	0.648722	-7.180291	-8.730938	5.505593	-0.771616	0.221118	-4.475178	-0.826660	0.098145	0.387939	0.190231	0.004088	0.006256	-0.167991	-0.548736	0.555947	-0.601324	-114.470041	-57.857157	-129.909076
31346		15.336107	4.290356	-4.845522	-10.710836	-3.500025	2.437749	-0.108215	-1.128946	-3.913972	-0.830078	0.069824	0.404053	0.154431	0.039862	-0.047608	-0.179059	-0.563632	0.545637	-0.593748	-117.356330	-59.849977	-126.749357
31347		14.298406	5.866609	-6.481845	-12.002650	-2.305249	1.653079	-0.475734	-1.664981	-3.426365	-0.815674	0.037109	0.409424	0.144493	0.056047	-0.063755	-0.186008	-0.577398	0.538777	-0.584578	-120.787882	-61.104482	-123.120056
31348		11.593288	1.734401	-4.253308	-6.289549	-1.658365	0.825765	-1.096063	-0.938202	-3.416850	-0.810547	0.006592	0.423584	0.116402	0.015127	-0.042075	-0.198787	-0.589221	0.532000	-0.574698	-124.619171	-62.717584	-119.627612
31349		9.594918	0.214599	-0.004273	-2.212588	-3.861528	-1.310161	-0.639188	-0.537850	-3.308415	-0.807373	-0.017578	0.424072	0.095967	0.000559	0.000212	-0.208730	-0.598851	0.524540	-0.568038	-127.717874	-64.068075	-116.572388
31350		8.339365	-0.852772	-1.458953	-1.429434	-1.665913	-1.592076	0.791369	-0.359943	-2.669127	-0.809082	-0.037109	0.433594	0.083297	-0.009582	-0.014476	-0.215200	-0.608548	0.513739	-0.565182	-130.107125	-65.366672	-113.577193
31351		10.097362	2.271509	-3.314177	-5.124780	-1.896418	-0.419217	0.577609	0.170084	-2.075620	-0.803955	-0.059082	0.436279	0.101175	0.021762	-0.033164	-0.219746	-0.613990	0.505570	-0.564913	-131.344676	-66.333248	-111.858845
31352		10.247857	1.503669	-1.242502	-3.303149	-3.300043	-0.484283	0.040613	0.125948	-1.895192	-0.805908	-0.065674	0.438721	0.102607	0.014067	-0.012487	-0.227471	-0.619308	0.498591	-0.562248	-133.455675	-67.404218	-109.685536
31353		6.627937	-0.663601	-1.929455	-1.143625	-0.487901	-2.990218	0.212606	-0.036796	-1.440219	-0.801270	-0.074463	0.438965	0.066233	-0.007093	-0.019290	-0.230778	-0.623232	0.493553	-0.561006	-134.774153	-67.983676	-108.129329
31354		8.499945	1.199668	-2.302710	-3.041200	-1.555309	-1.607690	0.645651	-0.311186	-1.279830	-0.794434	-0.083008	0.447998	0.085110	0.011526	-0.022857	-0.233759	-0.628780	0.487260	-0.559079	-136.631058	-68.572273	-105.883684
31355		10.656000	0.513056	-3.736908	-3.232896	-0.826864	0.987384	0.749762	-0.449573	-1.247689	-0.793945	-0.093994	0.452637	0.106673	0.004605	-0.037111	-0.233802	-0.633940	0.481744	-0.558014	-138.003023	-68.869240	-103.950924
31356		11.116355	-0.947348	-4.079078	-1.997612	-0.053838	1.896936	0.475829	-0.458601	-1.098088	-0.787109	-0.104736	0.464111	0.111203	-0.009987	-0.040559	-0.236358	-0.639196	0.476625	-0.555330	-140.073618	-69.266617	-101.590231
31357		11.951725	-0.355051	-2.721858	-1.801608	-1.723352	2.194037	0.292477	-0.379376	-0.978199	-0.786865	-0.109131	0.466309	0.119549	-0.004096	-0.026998	-0.237246	-0.642923	0.473118	-0.553646	-141.427837	-69.454533	-99.964678
31358		11.343124	-1.755765	-2.120370	-0.092058	-1.359772	1.779847	0.346431	-0.384153	-0.889756	-0.780029	-0.115479	0.479736	0.113392	-0.018026	-0.021017	-0.239720	-0.647253	0.468934	-0.551089	-143.358382	-69.753681	-97.838511
31359		11.442417	0.775660	-3.462895	-2.860888	-1.408417	1.735174	0.312937	-0.393005	-0.809609	-0.781982	-0.124268	0.477783	0.114522	0.007347	-0.034392	-0.240029	-0.650608	0.465907	-0.549569	-144.563517	-69.846115	-96.363979
31360		11.353984	0.452888	-3.081588	-2.251218	-1.517904	1.643384	-0.037761	-0.224253	-0.732480	-0.772949	-0.128418	0.493408	0.113590	0.004107	-0.030689	-0.243647	-0.653572	0.463127	-0.546802	-146.430824	-70.123693	-94.547881
31361		10.071878	-0.890029	-2.734384	-0.797463	-0.745863	0.604559	-0.163529	-0.156111	-0.665928	-0.777100	-0.141602	0.493652	0.100710	-0.009258	-0.027258	-0.245655	-0.655344	0.461574	-0.545093	-147.553501	-70.258099	-93.454842
31362		9.402462	-1.456778	-3.039217	-0.332463	0.026476	0.169989	-0.072198	-0.136006	-0.565415	-0.767822	-0.148193	0.498291	0.094004	-0.014845	-0.030323	-0.249080	-0.657569	0.459348	-0.542735	-149.189669	-70.492952	-91.909135
31363		9.873561	-2.119854	-3.379001	0.128820	0.466434	0.825183	0.011100	-0.108151	-0.489278	-0.767822	-0.150391	0.498535	0.098702	-0.021438	-0.033738	-0.250138	-0.659004	0.457831	-0.541788	-149.962099	-70.583009	-91.083835
31364		11.630605	-0.682715	-2.830083	-0.773994	-1.183485	2.093044	-0.088206	-0.069435	-0.492786	-0.765625	-0.152344	0.502930	0.116299	-0.007126	-0.028257	-0.253443	-0.660829	0.455812	-0.539729	-151.470144	-70.800908	-89.676599
31365		11.883594	-1.287570	-2.229267	0.103057	-1.462855	2.257788	-0.345615	0.015212	-0.465254	-0.760742	-0.167725	0.500977	0.118804	-0.013191	-0.022279	-0.255891	-0.661414	0.455174	-0.538394	-152.340638	-70.935627	-88.965525
31366		11.118021	-1.702729	-2.508643	0.426504	-0.746359	1.679213	-0.503070	0.002536	-0.372619	-0.758545	-0.167725	0.510010	0.111148	-0.017297	-0.025045	-0.260388	-0.662136	0.454633	-0.535801	-153.871593	-71.139454	-87.792378
31367		10.661938	-1.363572	-2.528199	0.161565	-0.718909	1.204795	-0.598297	-0.018431	-0.289879	-0.755859	-0.180908	0.494873	0.106602	-0.013866	-0.025231	-0.263119	-0.662069	0.455285	-0.533993	-154.673551	-71.203487	-87.307994
31368		10.554635	-1.688849	-2.314752	0.631622	-0.686866	1.084087	-0.665910	-0.043434	-0.261283	-0.760254	-0.178955	0.490234	0.105529	-0.017103	-0.023068	-0.267701	-0.662348	0.455647	-0.531053	-156.158249	-71.340763	-86.283847
31369		11.000441	-0.658799	-2.234599	-0.189607	-1.342566	1.349683	-0.682173	-0.081409	-0.293155	-0.761963	-0.194336	0.481934	0.110004	-0.006825	-0.022278	-0.270569	-0.662321	0.456581	-0.528827	-157.068218	-71.366018	-85.736736
31370		10.914294	-2.005014	-2.030124	1.188719	-0.874464	1.371468	-0.764748	-0.083615	-0.286725	-0.770508	-0.209961	0.471191	0.109122	-0.020284	-0.020178	-0.275421	-0.662517	0.457215	-0.525517	-158.663002	-71.474403	-84.659556
31371		10.541177	-1.756448	-2.361488	0.861117	-0.584340	1.082033	-0.782360	-0.134029	-0.254836	-0.770020	-0.223145	0.475830	0.105405	-0.017791	-0.023475	-0.278392	-0.662376	0.458594	-0.522922	-159.607606	-71.455977	-84.136842
31372		10.123443	-1.800865	-2.254115	1.020206	-0.509939	0.651879	-0.875648	-0.106903	-0.249129	-0.762939	-0.240479	0.487549	0.101224	-0.018233	-0.022408	-0.283412	-0.662270	0.459720	-0.519359	-161.193123	-71.530396	-83.138853
31373		9.638029	-1.627527	-2.463663	0.810093	-0.251867	0.231721	-0.916526	-0.102357	-0.287904	-0.755615	-0.257813	0.494629	0.096369	-0.016527	-0.024512	-0.286974	-0.661898	0.461273	-0.516492	-162.250487	-71.527691	-82.578521
31374		9.815876	-1.030644	-2.253720	0.452874	-0.709410	0.276129	-0.947809	-0.078537	-0.400775	-0.755371	-0.264404	0.496826	0.098147	-0.010610	-0.022449	-0.292621	-0.661853	0.462068	-0.512657	-164.086758	-71.627672	-81.359352
31375		9.347316	-2.605609	-2.144135	1.980097	-0.016796	-0.074244	-1.001416	-0.039450	-0.508282	-0.741455	-0.279541	0.497314	0.093411	-0.026400	-0.021291	-0.297161	-0.661660	0.462989	-0.509452	-165.534722	-71.683297	-80.439187
31376		8.693607	-2.993867	-2.717326	2.180003	0.854811	-0.515260	-0.979218	-0.031523	-0.606572	-0.729980	-0.294922	0.491211	0.086849	-0.030335	-0.027012	-0.303469	-0.661804	0.463130	-0.505404	-167.705055	-71.813824	-78.887224
31377		8.107858	-3.298974	-2.825532	2.472517	1.257652	-1.042944	-0.999207	0.008008	-0.751002	-0.725098	-0.308105	0.493652	0.080952	-0.033435	-0.028092	-0.308705	-0.662001	0.463135	-0.501958	-169.571635	-71.904072	-77.526319
31378		8.471121	-2.562510	-3.245979	1.784793	1.270602	-0.644172	-0.929745	0.056272	-0.973579	-0.711182	-0.323486	0.496338	0.084576	-0.026188	-0.032363	-0.315820	-0.662757	0.461786	-0.497760	-172.326270	-72.076764	-75.321986
31379		8.583973	-2.904133	-3.202684	2.245740	1.366825	-0.568093	-0.931072	0.102503	-1.232061	-0.706299	-0.336670	0.489990	0.085642	-0.029718	-0.031933	-0.322218	-0.663864	0.459830	-0.493980	-175.027795	-72.213649	-73.045130
31380		8.560288	-3.452426	-3.132009	2.939038	1.573487	-0.653472	-0.830767	0.096444	-1.478174	-0.696777	-0.360596	0.490723	0.085329	-0.035285	-0.031216	-0.330166	-0.665745	0.456449	-0.489314	-178.661807	-72.349696	-69.849281
31381		9.499073	-2.557567	-2.870891	2.450552	0.810766	0.104475	-0.739238	0.116874	-1.673603	-0.680908	-0.367188	0.479736	0.094755	-0.026475	-0.028668	-0.336994	-0.668038	0.452459	-0.485223	177.883256	-72.410568	-66.669656
31382		10.337228	-2.712696	-2.651294	2.973065	0.529722	0.776113	-0.772280	0.162481	-1.846101	-0.666748	-0.391357	0.476074	0.103094	-0.028182	-0.026489	-0.345608	-0.670538	0.447544	-0.480247	173.601638	-72.439375	-62.752976
31383		11.162325	-2.188011	-2.435278	2.876120	0.022193	1.458414	-0.779158	0.183611	-2.018569	-0.657227	-0.408936	0.472168	0.111372	-0.023100	-0.024367	-0.353477	-0.673236	0.442288	-0.475592	169.487325	-72.373305	-58.906156
31384		11.567221	-2.908432	-1.819185	4.061495	-0.259420	1.545123	-0.843967	0.216913	-2.142070	-0.638672	-0.432861	0.470703	0.115332	-0.030398	-0.018191	-0.363004	-0.675903	0.436412	-0.470031	164.724747	-72.218495	-54.524808
31385		11.688192	-3.561156	-1.197709	5.125321	-0.504610	1.331814	-0.847041	0.233209	-2.235993	-0.622559	-0.448242	0.464355	0.116460	-0.036966	-0.011958	-0.371623	-0.678655	0.430375	-0.464868	160.322813	-71.960522	-50.409844
31386		11.779275	-3.416300	-0.911612	5.357806	-0.714171	1.234035	-0.820305	0.227309	-2.344747	-0.610840	-0.470215	0.460449	0.117371	-0.035578	-0.009106	-0.381426	-0.681448	0.423738	-0.458899	155.540241	-71.564748	-45.989711
31387		12.167492	-3.425723	-0.724438	5.765195	-0.843288	1.427906	-0.804489	0.278489	-2.507214	-0.596680	-0.492188	0.452393	0.121222	-0.035808	-0.007271	-0.390496	-0.684534	0.416457	-0.453311	151.062137	-71.060497	-41.750188
31388		12.385368	-3.802083	-1.254947	6.301207	-0.129858	1.575692	-0.775226	0.312315	-2.698216	-0.578125	-0.513916	0.452881	0.123306	-0.039736	-0.012591	-0.400981	-0.687565	0.408363	-0.446888	146.251821	-70.393604	-37.261641
31389		12.647608	-4.678220	-1.495906	7.403206	0.495921	1.545960	-0.796336	0.347039	-2.855783	-0.560059	-0.524902	0.442139	0.125764	-0.048641	-0.014986	-0.410783	-0.690953	0.399566	-0.440668	141.827672	-69.591659	-33.040237
31390		13.186783	-5.241164	-1.297515	8.452918	0.569348	1.643880	-0.921743	0.420393	-2.962619	-0.541504	-0.544678	0.442871	0.131044	-0.054417	-0.013003	-0.422345	-0.693547	0.390648	-0.433603	137.245622	-68.657908	-28.850048
31391		13.798363	-6.029555	-1.008788	9.763524	0.642776	1.676864	-1.118239	0.580150	-3.057521	-0.520752	-0.568848	0.430176	0.137010	-0.062452	-0.010141	-0.433945	-0.695811	0.381173	-0.426902	132.916481	-67.653763	-24.877710
31392		13.832629	-8.026160	-2.766442	11.450072	3.117212	1.258365	-1.299857	0.782225	-3.143650	-0.509033	-0.588623	0.426270	0.136932	-0.082601	-0.027670	-0.447611	-0.696650	0.371655	-0.419757	128.387385	-66.572047	-20.932974
31393		13.713204	-9.783943	-4.572456	12.850572	5.578444	0.598634	-1.518931	0.782515	-3.267873	-0.483643	-0.612793	0.402588	0.135327	-0.100407	-0.045500	-0.461157	-0.697567	0.361628	-0.412262	124.216789	-65.325609	-17.320411
31394		14.981747	-10.261330	-4.199279	14.238755	5.355410	0.953842	-1.839969	0.684636	-3.386088	-0.460693	-0.632568	0.392090	0.147905	-0.105512	-0.041539	-0.476515	-0.697307	0.352505	-0.403034	120.153664	-63.899717	-14.143983
31395		17.259062	-8.345296	-4.379490	13.925754	4.877392	3.184674	-2.144289	0.735027	-3.602534	-0.450928	-0.656738	0.370605	0.170884	-0.087009	-0.043505	-0.492456	-0.696912	0.342417	-0.393130	116.266264	-62.276711	-11.163897
31396		18.396788	-6.862549	-6.448989	13.282089	6.543447	4.603317	-2.091391	0.733822	-4.073294	-0.421387	-0.678711	0.355957	0.182274	-0.073023	-0.064412	-0.509482	-0.696482	0.331149	-0.381683	112.525509	-60.354165	-8.411646
31397		19.537660	-8.928839	-8.003083	15.920999	8.736422	4.172627	-1.794524	0.477003	-4.441650	-0.391602	-0.700684	0.336670	0.193129	-0.094310	-0.079662	-0.524866	-0.698155	0.317777	-0.368934	109.532182	-58.073575	-6.125975
31398		22.236317	-7.902168	-7.635043	17.229185	8.184262	6.038201	-1.556119	0.388269	-4.443711	-0.368652	-0.720459	0.328369	0.220378	-0.084526	-0.076136	-0.539296	-0.699669	0.304843	-0.355940	107.054340	-55.779788	-4.350854
31399		21.938803	-5.378722	-6.186385	15.933165	6.464012	6.086304	-1.298278	0.518296	-4.112913	-0.336914	-0.735840	0.313232	0.218054	-0.058683	-0.062060	-0.551836	-0.701352	0.291277	-0.344586	104.986318	-53.593558	-2.729704
31400		16.037029	-6.522363	-5.970200	13.860734	6.854413	-0.003159	-1.189219	0.390347	-3.620907	-0.323242	-0.749023	0.304932	0.159034	-0.068466	-0.059613	-0.562826	-0.702031	0.280474	-0.334236	103.348845	-51.721068	-1.625251
31401		11.291365	-5.830286	-6.776982	10.547059	7.656502	-3.686020	-1.032165	-0.065118	-2.933030	-0.302734	-0.755615	0.287354	0.112061	-0.060299	-0.067425	-0.571206	-0.703265	0.272034	-0.324251	102.340125	-50.071281	-1.088742
31402		11.189044	-3.624346	-5.660632	9.190973	6.119387	-2.852679	-1.097782	-0.270699	-2.519529	-0.293701	-0.762207	0.276611	0.111496	-0.037959	-0.056250	-0.578629	-0.703518	0.266714	-0.314826	101.557261	-48.731586	-0.950403
31403		13.780307	1.814661	-5.361093	7.169456	4.796907	2.332673	-1.329906	-0.281463	-1.963808	-0.288818	-0.777832	0.268066	0.138045	0.016436	-0.053530	-0.585997	-0.702683	0.262675	-0.306344	100.726998	-47.593441	-0.859996
31404		15.317805	4.637236	-8.618515	6.005783	7.619640	5.558555	-2.728122	0.273712	-0.948273	-0.292725	-0.784912	0.230713	0.153273	0.044463	-0.087010	-0.597080	-0.695121	0.263697	-0.301275	98.929283	-47.200942	-0.576141
31405		10.171912	-4.583476	-5.415909	9.727363	5.949500	-4.935509	-2.823767	0.723640	-0.246632	-0.303467	-0.796143	0.202148	0.101467	-0.046722	-0.053871	-0.608170	-0.685853	0.264885	-0.299283	96.845750	-47.114848	0.057687
31406		2.719534	-11.241932	-3.674319	9.763851	4.906696	-15.091483	-1.656442	0.018992	0.578891	-0.317139	-0.789795	0.190918	0.027518	-0.112639	-0.035813	-0.612550	-0.679790	0.270227	-0.299407	95.978957	-47.571812	-0.050270
31407		-0.266742	-10.210291	-1.572940	7.256025	2.604342	-16.694587	-0.356370	-0.404849	1.522279	-0.335205	-0.781250	0.188477	-0.001858	-0.102147	-0.015552	-0.610930	-0.677227	0.277147	-0.302187	96.131268	-48.411701	-0.531195
31408		-1.578081	-5.468498	0.800975	3.138054	-0.217632	-14.623148	0.572568	-0.526451	1.937556	-0.362061	-0.779053	0.203857	-0.015271	-0.054857	0.007812	-0.604780	-0.676839	0.285433	-0.307666	97.018359	-49.616819	-1.259643
31409		-0.873906	-2.236403	1.794410	1.283192	-1.518355	-12.056082	1.154404	-0.627149	2.084452	-0.385010	-0.761475	0.209961	-0.008561	-0.022557	0.017787	-0.596741	-0.678270	0.292568	-0.313456	98.295996	-50.749724	-2.062916
31410		0.407314	-2.199191	1.914414	2.118284	-1.640150	-11.033300	1.364683	-0.642515	2.357240	-0.403076	-0.750488	0.218262	0.004272	-0.022072	0.019007	-0.586941	-0.679548	0.301338	-0.320794	99.872554	-52.159937	-3.081145
31411		1.665918	-3.858104	2.167305	4.252937	-1.681795	-11.012938	1.554953	-0.643152	2.793146	-0.430176	-0.737305	0.235596	0.017128	-0.038511	0.021428	-0.576146	-0.680847	0.310164	-0.329092	101.635264	-53.660709	-4.174875
31412		2.891430	-4.996667	2.281878	5.940317	-1.637902	-10.561906	1.897724	-0.649503	3.309020	-0.459961	-0.713135	0.252686	0.029665	-0.049694	0.022442	-0.562716	-0.681717	0.321217	-0.339753	103.898342	-55.562020	-5.641209
31413		3.265819	-4.875726	1.935682	6.043787	-1.277747	-9.959480	2.196028	-0.691445	3.796793	-0.496582	-0.684814	0.269531	0.033513	-0.048336	0.018939	-0.547548	-0.682807	0.332277	-0.351508	106.599352	-57.554196	-7.370703
31414		3.609767	-3.967660	1.504055	5.406317	-1.005009	-8.922149	2.366824	-0.818013	4.258560	-0.528809	-0.658203	0.295166	0.036873	-0.039072	0.014726	-0.530119	-0.682867	0.346005	-0.364619	110.040281	-59.862173	-9.858947
31415		4.750333	-3.296653	1.009705	5.261405	-0.744670	-7.320502	2.510833	-0.791850	4.678193	-0.563232	-0.621094	0.311768	0.048220	-0.031969	0.009881	-0.511474	-0.682630	0.359357	-0.378514	114.051939	-62.174573	-12.800166
31416		5.586611	-3.582504	0.700237	5.698286	-0.498657	-6.376593	2.516981	-0.629787	5.148361	-0.595947	-0.574951	0.334961	0.056743	-0.034458	0.006741	-0.491507	-0.680000	0.374894	-0.394303	118.910758	-64.793528	-16.681538
31417		6.630166	-3.882687	0.662832	6.174689	-0.558823	-5.227979	2.552054	-0.466598	5.678751	-0.637451	-0.531006	0.346924	0.067355	-0.037006	0.006305	-0.470539	-0.676220	0.390117	-0.411251	124.757001	-67.416878	-21.475212
31418		8.009350	-4.192894	0.995483	6.686209	-1.072470	-3.743001	2.592521	-0.297263	6.174118	-0.674805	-0.482666	0.369873	0.081325	-0.039556	0.009552	-0.447990	-0.669619	0.407444	-0.430006	132.515235	-70.210270	-28.276203
31419		9.774309	-4.203801	1.359534	6.860411	-1.797683	-1.767604	2.647890	-0.152071	6.524613	-0.703369	-0.423584	0.370605	0.099038	-0.038997	0.013141	-0.424530	-0.662177	0.423666	-0.449226	142.417693	-72.678908	-37.117713
31420		12.240645	-3.173241	1.617216	5.885765	-2.941772	1.103701	2.753424	-0.045980	6.702247	-0.734375	-0.362061	0.391113	0.123379	-0.027827	0.015799	-0.399824	-0.652385	0.440842	-0.469246	155.772614	-74.747891	-49.475974
31421		15.040814	-1.947631	1.323149	4.298849	-3.808595	4.283480	2.803546	0.038771	6.796704	-0.765137	-0.305176	0.391602	0.150961	-0.014535	0.012975	-0.374570	-0.642485	0.456043	-0.488810	171.644348	-75.870481	-64.217685
31422		17.868875	-1.777414	0.016183	2.942083	-3.579214	7.532675	2.599343	0.184550	6.888750	-0.787109	-0.237305	0.403320	0.179159	-0.011607	-0.000181	-0.349547	-0.629401	0.472547	-0.508301	-170.405650	-75.978690	-81.297517
31423		20.100466	-1.573003	-1.988062	0.914507	-2.689385	10.242485	2.206808	0.324116	6.985948	-0.809326	-0.173828	0.397217	0.201353	-0.008477	-0.020327	-0.325401	-0.615514	0.488024	-0.526392	-154.187770	-74.930399	-96.739786
31424		21.448482	-1.264286	-3.587903	-1.476520	-2.072747	11.816524	2.006591	0.316006	7.038201	-0.820557	-0.099365	0.393066	0.214687	-0.004726	-0.036292	-0.301379	-0.598827	0.504884	-0.543754	-140.351662	-72.853195	-110.065813
31425		22.956460	1.490903	-4.582844	-6.072421	-2.886352	12.654725	2.107910	0.164946	6.869455	-0.831299	-0.037842	0.395752	0.228823	0.023261	-0.045802	-0.276635	-0.583837	0.519134	-0.559560	-130.553586	-70.153443	-119.119864
31426		26.429066	7.669151	-4.551733	-13.887578	-6.297386	13.537152	2.130127	0.167175	6.451600	-0.830811	0.019287	0.389893	0.261586	0.085640	-0.044856	-0.252842	-0.567676	0.532628	-0.574563	-123.104570	-67.171793	-125.924816
31427		28.205080	13.927401	-6.033114	-21.882019	-7.875999	12.203144	1.623125	0.351395	6.161011	-0.834717	0.078369	0.384033	0.277468	0.148355	-0.059642	-0.231363	-0.552031	0.544726	-0.587372	-117.825509	-64.231078	-130.694943
31428		25.749604	15.805340	-7.860013	-24.813437	-6.165454	8.093255	0.769286	0.585008	5.907424	-0.832031	0.128662	0.371582	0.252443	0.165863	-0.078716	-0.213757	-0.533452	0.558738	-0.597954	-113.733778	-61.262009	-134.914789
31429		21.113062	12.009828	-7.891254	-20.912952	-3.554364	4.405027	0.307154	0.379852	5.200547	-0.828613	0.163818	0.364258	0.207761	0.125652	-0.079119	-0.198397	-0.517942	0.571085	-0.605175	-111.242620	-58.593715	-137.589882
31430		17.648965	10.556939	-6.666379	-18.471738	-3.117497	0.975467	1.072692	-0.207603	4.040550	-0.818604	0.201172	0.358887	0.174373	0.109461	-0.065902	-0.183193	-0.506915	0.578965	-0.611782	-109.425762	-56.342642	-139.106743
31431		14.248959	15.032962	-6.116702	-20.708309	-3.801288	-5.005464	1.848283	-0.531576	2.743045	-0.810303	0.220947	0.364990	0.140564	0.152821	-0.059387	-0.168571	-0.502229	0.580663	-0.618208	-108.051927	-54.758696	-139.489160
31432		11.930334	21.993508	-7.941797	-25.988108	-3.504196	-11.003500	1.914267	-0.698059	1.706784	-0.802246	0.247314	0.366699	0.117688	0.221688	-0.076889	-0.156914	-0.500275	0.579927	-0.623529	-107.006919	-53.694239	-139.496212
31433		13.785321	23.398683	-9.494472	-28.533712	-3.615545	-10.458324	1.251439	-0.488191	0.784090	-0.797852	0.249512	0.362061	0.137162	0.235112	-0.093141	-0.149937	-0.500496	0.578346	-0.626529	-106.477244	-53.185673	-139.263714
31434		14.145071	22.376728	-8.547183	-27.454124	-4.485441	-9.891067	0.360461	-0.179659	-0.060576	-0.802246	0.249512	0.362061	0.141595	0.223878	-0.084941	-0.149164	-0.501265	0.577284	-0.627078	-106.397654	-53.214619	-139.150689
31435		12.633440	19.175341	-6.818714	-23.521000	-4.520968	-9.475809	-0.292716	-0.047459	-0.623654	-0.795410	0.242920	0.362305	0.126948	0.191258	-0.068437	-0.151732	-0.503000	0.576664	-0.625642	-106.738211	-53.551584	-138.936100
31436		13.693318	12.045450	-7.089443	-18.589785	-2.612643	-4.294686	-0.538429	-0.333635	-1.185662	-0.801758	0.238525	0.366943	0.137762	0.119448	-0.070988	-0.156319	-0.507198	0.575465	-0.622218	-107.595432	-54.202288	-138.285459
31437		8.500121	10.134090	-8.405943	-15.368463	1.082124	-6.941472	-0.164818	-0.578199	-1.856646	-0.803467	0.216797	0.378418	0.086179	0.100475	-0.083894	-0.160859	-0.514193	0.571686	-0.618793	-108.600703	-55.112826	-137.169644
31438		7.399468	-0.536772	-18.560716	-11.040352	13.413798	0.072330	0.234528	-1.387771	-2.510068	-0.802979	0.201416	0.385498	0.075207	-0.006089	-0.185095	-0.164460	-0.526258	0.565242	-0.613602	-110.331552	-56.278414	-134.920614
31439		13.514175	-32.846875	-3.360318	19.615124	7.706954	18.973600	-0.634193	-0.664739	-1.828538	-0.807129	0.190674	0.390137	0.132239	-0.329790	-0.032116	-0.169869	-0.532922	0.562885	-0.608521	-111.810438	-57.121456	-133.586773
31440		25.839799	-7.212089	4.971624	-1.355277	-12.162080	14.572956	0.194973	-0.102599	-1.484868	-0.813477	0.181641	0.385986	0.257827	-0.074085	0.049777	-0.173633	-0.538215	0.557987	-0.607311	-112.374001	-57.940550	-132.756759
31441		23.755475	12.745722	1.865768	-17.844747	-14.807620	4.061485	-0.745716	0.225381	-3.238029	-0.816406	0.133545	0.393799	0.239598	0.123657	0.017923	-0.186094	-0.545849	0.551256	-0.602938	-113.808731	-59.700218	-131.580136
31442		19.131641	12.611179	-5.163651	-18.825124	-6.845505	2.449676	-0.482235	-1.114342	-4.808184	-0.813477	0.105225	0.414307	0.194557	0.121337	-0.050855	-0.199244	-0.562267	0.540108	-0.593667	-117.340344	-61.985121	-127.866838
31443		19.402075	4.250087	-2.931497	-10.132111	-6.129958	6.398341	-0.778839	-1.756373	-3.955568	-0.803711	0.079102	0.421631	0.195057	0.038540	-0.027760	-0.208401	-0.577256	0.532910	-0.582539	-121.653076	-63.465561	-123.518318
31444		15.746365	3.582959	-1.344632	-7.240713	-5.950660	3.405354	-0.825259	-1.568160	-3.905366	-0.802490	0.035400	0.440430	0.158222	0.032692	-0.012347	-0.218535	-0.591712	0.525122	-0.571284	-126.408198	-64.902438	-118.784099
31445		9.356307	5.983719	-0.620062	-7.262978	-5.057530	-3.075735	-1.089689	-1.168564	-3.563228	-0.794922	0.004883	0.450195	0.094644	0.058124	-0.005970	-0.228845	-0.603108	0.518860	-0.560959	-130.982569	-66.080314	-114.444341
31446		6.120778	-0.336966	-3.759784	-2.264297	1.090719	-3.075277	-0.642488	-1.186435	-2.940546	-0.789551	-0.019287	0.461914	0.061370	-0.004391	-0.037221	-0.236647	-0.613674	0.512649	-0.551900	-135.350903	-66.927073	-110.119416
31447		10.247963	1.869249	-2.747583	-4.112037	-2.083068	-0.075677	-0.605061	-0.667780	-2.462876	-0.784424	-0.041016	0.462402	0.102790	0.017345	-0.027187	-0.243586	-0.621067	0.507497	-0.545334	-138.790410	-67.610453	-106.767109
31448		11.911624	0.445383	-2.058871	-2.435790	-2.721895	1.718821	-0.589801	-0.631309	-2.174728	-0.777344	-0.060547	0.478516	0.119219	0.003098	-0.020223	-0.250426	-0.627982	0.502618	-0.538796	-142.314086	-68.193792	-103.362696
31449		8.461153	1.055109	-2.660530	-2.736249	-1.158318	-1.389383	-0.607037	-0.383478	-1.568218	-0.774658	-0.073730	0.480957	0.084741	0.009806	-0.026473	-0.255603	-0.632179	0.499778	-0.534078	-144.819565	-68.552724	-101.042472
31450		6.621254	0.871413	-3.764120	-2.780837	0.537353	-2.689023	-0.210176	-0.262123	-1.069803	-0.767822	-0.080078	0.487793	0.066307	0.008320	-0.037563	-0.259184	-0.635682	0.496822	-0.530943	-146.729838	-68.837195	-99.158928
31451		9.347104	-1.407004	-4.347233	-1.028291	0.932149	0.498439	-0.034736	-0.136681	-1.040000	-0.769775	-0.091064	0.490234	0.093426	-0.014563	-0.043406	-0.261732	-0.638581	0.493766	-0.529062	-148.171165	-69.093749	-97.636839
31452		11.225296	-1.292641	-3.414784	-0.706249	-0.532277	1.958280	0.088227	-0.115620	-1.069356	-0.762695	-0.099854	0.501465	0.112201	-0.013511	-0.034089	-0.264650	-0.642072	0.489766	-0.527098	-149.887284	-69.407229	-95.777641
31453		11.968091	0.520183	-2.611899	-1.926076	-2.138678	2.105483	0.024599	-0.205950	-1.032139	-0.764648	-0.106445	0.495117	0.119732	0.004587	-0.025995	-0.266803	-0.645173	0.486640	-0.525118	-151.413067	-69.596130	-94.134510
31454		11.653768	-0.075725	-3.543757	-1.628574	-0.980501	2.218921	-0.053908	-0.305104	-0.876015	-0.764404	-0.121582	0.510986	0.116587	-0.001277	-0.035259	-0.269201	-0.648437	0.483877	-0.522421	-153.161566	-69.724050	-92.335392
31455		12.409028	0.185259	-4.698329	-2.255007	-0.348286	3.259628	-0.280183	-0.221716	-0.642282	-0.757568	-0.123779	0.515381	0.124147	0.001388	-0.046848	-0.271269	-0.650195	0.482807	-0.520150	-154.375932	-69.774563	-91.212978
31456		13.196896	-0.428925	-3.415331	-1.051879	-1.462187	3.706240	-0.606518	-0.197455	-0.497732	-0.754883	-0.138916	0.520264	0.131991	-0.004721	-0.034009	-0.274714	-0.651489	0.482542	-0.516959	-155.862218	-69.835874	-90.031279
31457		12.149781	-1.607150	-2.870493	0.333591	-1.113170	2.720822	-0.774136	-0.190763	-0.432729	-0.754395	-0.152100	0.516113	0.121490	-0.016445	-0.028526	-0.277911	-0.651964	0.483377	-0.513864	-157.050994	-69.836448	-89.238266
31458		11.354190	-1.245343	-2.343220	0.307264	-1.422383	1.756289	-0.819905	-0.183696	-0.379130	-0.752197	-0.154297	0.529541	0.113539	-0.012764	-0.023276	-0.281783	-0.652570	0.484035	-0.510354	-158.479492	-69.862442	-88.252527
31459		10.811146	-0.785208	-2.313743	-0.045176	-1.431747	1.178154	-0.806991	-0.121352	-0.342443	-0.754150	-0.167480	0.527588	0.108112	-0.008130	-0.023039	-0.285014	-0.652573	0.485128	-0.507510	-159.517248	-69.869516	-87.640589
31460		10.340961	-1.716688	-2.725766	0.722552	-0.559115	0.979781	-0.817450	-0.017064	-0.264881	-0.751709	-0.171875	0.530029	0.103389	-0.017415	-0.027178	-0.288999	-0.652402	0.485929	-0.504703	-160.680900	-69.951611	-86.940529
31461		10.435134	-1.673592	-3.124209	0.584203	-0.252059	1.189521	-0.829117	0.053681	-0.214104	-0.749023	-0.189453	0.526123	0.104325	-0.016977	-0.031200	-0.292392	-0.651590	0.487225	-0.502542	-161.455359	-70.022110	-86.622796
31462		10.358243	-1.253178	-3.129518	0.253044	-0.344899	1.071906	-0.858891	0.141870	-0.189506	-0.744385	-0.189209	0.530518	0.103548	-0.012764	-0.031314	-0.296689	-0.650716	0.488146	-0.500258	-162.451775	-70.170604	-86.127357
31463		10.049534	-0.881633	-3.255769	-0.105767	-0.232730	0.784713	-0.872226	0.207121	-0.171103	-0.741943	-0.196045	0.521729	0.100454	-0.009044	-0.032623	-0.300478	-0.649323	0.489443	-0.498536	-163.123158	-70.314526	-85.945929
31464		9.521941	-1.024677	-2.924616	0.184936	-0.258301	0.195789	-0.848692	0.275536	-0.202587	-0.746338	-0.198242	0.515137	0.095169	-0.010468	-0.029333	-0.305074	-0.648113	0.490083	-0.496687	-164.082773	-70.534491	-85.483485
31465		8.844809	-2.166066	-3.210185	1.173804	0.630451	-0.249616	-0.637886	0.291491	-0.210448	-0.748291	-0.207275	0.500000	0.088378	-0.021856	-0.032161	-0.308398	-0.646936	0.490521	-0.495736	-164.659797	-70.729317	-85.260216
31466		8.814567	-2.354065	-3.045373	1.449745	0.593079	-0.322752	-0.499447	0.334902	-0.222365	-0.752686	-0.211670	0.493408	0.088068	-0.023715	-0.030542	-0.312023	-0.646126	0.490132	-0.494908	-165.439459	-70.980962	-84.775563
31467		8.507130	-1.498796	-3.069345	0.653845	0.469114	-0.680831	-0.518355	0.316727	-0.231203	-0.765381	-0.229492	0.493896	0.085005	-0.015166	-0.030789	-0.315067	-0.645105	0.490155	-0.494288	-165.990178	-71.190971	-84.508341
31468		8.193150	-0.751016	-3.063492	-0.018320	0.363195	-1.040897	-0.606061	0.282763	-0.242081	-0.767090	-0.247070	0.491943	0.081879	-0.007702	-0.030728	-0.318917	-0.644277	0.490044	-0.493007	-166.900097	-71.411577	-83.949132
31469		8.073412	-0.973446	-3.052602	0.223058	0.494720	-1.143704	-0.629661	0.306079	-0.265610	-0.755371	-0.264404	0.488037	0.080674	-0.009938	-0.030618	-0.322370	-0.643174	0.490232	-0.492013	-167.599400	-71.617614	-83.593184
31470		7.973848	-1.575995	-3.237416	0.778960	0.918708	-1.146900	-0.616183	0.336634	-0.310886	-0.752930	-0.273193	0.499268	0.079659	-0.015984	-0.032459	-0.326515	-0.642344	0.489822	-0.490771	-168.636274	-71.870622	-82.904390
31471		8.151331	-1.407892	-3.451808	0.598901	1.039422	-0.930006	-0.584513	0.290908	-0.354568	-0.745850	-0.283936	0.504150	0.081438	-0.014324	-0.034595	-0.329996	-0.641549	0.489622	-0.489681	-169.497870	-72.074131	-82.351526
31472		8.303822	-1.255917	-3.523283	0.496046	1.048973	-0.779547	-0.623515	0.228125	-0.396164	-0.745850	-0.288330	0.499756	0.082973	-0.012834	-0.035288	-0.334056	-0.641164	0.489116	-0.487936	-170.753455	-72.265368	-81.434498
31473		8.656877	-1.383734	-3.142801	0.801117	0.665535	-0.558046	-0.689548	0.179345	-0.475729	-0.734131	-0.301514	0.495605	0.086507	-0.014152	-0.031457	-0.337886	-0.640741	0.488952	-0.486015	-171.957872	-72.409138	-80.586164
31474		8.681256	-1.383891	-3.014571	0.914480	0.576395	-0.582410	-0.788482	0.196033	-0.561898	-0.722656	-0.314697	0.496094	0.086743	-0.014202	-0.030175	-0.342750	-0.640535	0.488348	-0.483482	-173.646765	-72.579972	-79.311651
31475		8.680469	-1.731847	-2.975500	1.332953	0.673435	-0.594634	-0.887805	0.215422	-0.691686	-0.722168	-0.327881	0.489746	0.086712	-0.017751	-0.029770	-0.347809	-0.640180	0.487883	-0.480800	-175.393442	-72.741725	-78.015778
31476		8.436545	-2.175292	-3.145473	1.796065	1.062748	-0.787999	-0.914613	0.204950	-0.854180	-0.710693	-0.343262	0.488037	0.084239	-0.022257	-0.031440	-0.353752	-0.640390	0.486608	-0.477465	-177.739106	-72.902339	-76.129700
31477		8.537127	-2.019383	-3.138121	1.760107	1.020149	-0.720475	-0.919731	0.193354	-1.052935	-0.703369	-0.356445	0.479492	0.085233	-0.020787	-0.031369	-0.359696	-0.640857	0.485059	-0.473961	179.758862	-73.024523	-74.065087
31478		8.558575	-3.127517	-2.802589	3.046745	1.048834	-0.840471	-0.850721	0.191040	-1.298977	-0.691895	-0.374023	0.479980	0.085353	-0.031949	-0.027973	-0.366385	-0.642213	0.482191	-0.469911	176.560964	-73.117238	-71.249920
31479		8.683887	-4.012576	-2.929337	4.017392	1.410440	-0.759482	-0.694693	0.158677	-1.544885	-0.682373	-0.389404	0.473877	0.086502	-0.040896	-0.029221	-0.372639	-0.644278	0.478536	-0.465886	173.216407	-73.129311	-68.171941
31480		10.373826	-3.107713	-2.170293	3.686825	0.074352	0.598014	-0.565143	0.165943	-1.752336	-0.659424	-0.411133	0.474365	0.103442	-0.032046	-0.021699	-0.379319	-0.647180	0.473545	-0.461552	169.344334	-73.070535	-64.481095
31481		11.603409	-2.953584	-1.928323	3.949416	-0.437882	1.645350	-0.529747	0.201557	-1.942718	-0.650146	-0.419922	0.472412	0.115720	-0.030712	-0.019320	-0.385998	-0.650285	0.468055	-0.457229	165.390116	-72.939590	-60.664937
31482		12.267102	-3.021887	-1.741051	4.397379	-0.668421	2.139496	-0.535561	0.192698	-2.117014	-0.633789	-0.443848	0.468750	0.122325	-0.031562	-0.017445	-0.393400	-0.653841	0.461720	-0.452264	161.015755	-72.688161	-56.430386
31483		13.145738	-3.339010	-0.673791	5.349325	-1.695641	2.553192	-0.528865	0.214148	-2.251202	-0.619873	-0.463623	0.467041	0.131063	-0.034885	-0.006787	-0.400711	-0.657478	0.455084	-0.447271	156.739337	-72.336875	-52.265770
31484		13.164668	-3.644338	-0.390222	5.994494	-1.768275	2.339360	-0.500049	0.230603	-2.381556	-0.605957	-0.481201	0.463135	0.131196	-0.038017	-0.003960	-0.408588	-0.661355	0.447688	-0.441860	152.283241	-71.859051	-47.917946
31485		12.927550	-4.918503	-1.217951	7.264232	-0.477771	2.010532	-0.477635	0.273425	-2.549799	-0.587646	-0.498535	0.459229	0.128618	-0.050857	-0.012236	-0.416402	-0.665434	0.439695	-0.436435	147.962552	-71.265454	-43.653354
31486		13.130935	-5.684218	-1.683229	8.242238	0.257581	2.000478	-0.442526	0.306804	-2.731868	-0.566895	-0.516113	0.453125	0.130490	-0.058666	-0.016904	-0.424901	-0.669709	0.430811	-0.430524	143.541093	-70.519582	-39.289504
31487		13.923668	-6.986463	-1.479991	10.033806	0.407365	2.187667	-0.505545	0.390833	-2.909769	-0.550781	-0.538086	0.451416	0.138171	-0.071918	-0.014891	-0.433676	-0.673994	0.421256	-0.424500	139.257433	-69.652026	-35.043022
31488		15.026676	-8.755139	-1.210051	12.402331	0.588832	2.423699	-0.654515	0.510390	-3.026101	-0.530029	-0.555420	0.445313	0.148888	-0.089851	-0.012190	-0.443751	-0.677615	0.411333	-0.418005	134.911518	-68.678005	-30.852524
31489		15.693016	-10.324793	-1.738627	14.314285	1.584451	2.371521	-0.859932	0.624835	-3.136167	-0.511719	-0.568604	0.443359	0.155230	-0.105766	-0.017422	-0.454467	-0.680765	0.401040	-0.411323	130.710435	-67.600106	-26.858455
31490		16.323225	-9.365096	-2.533955	13.875940	2.166181	2.966371	-1.280400	0.679929	-3.260953	-0.497803	-0.592773	0.433105	0.161589	-0.096457	-0.025279	-0.467235	-0.682607	0.391178	-0.403384	126.438605	-66.383827	-23.087231
31491		16.044118	-10.379709	-3.564559	14.922600	3.606140	2.109021	-1.954301	0.637927	-3.341546	-0.479004	-0.619141	0.416016	0.158561	-0.106802	-0.035119	-0.481824	-0.683165	0.382127	-0.393840	122.250840	-65.005895	-19.722567
31492		16.287498	-7.727213	-4.292706	12.968685	3.721175	2.889284	-2.343129	0.517753	-3.514203	-0.458252	-0.638916	0.401123	0.161368	-0.080615	-0.042415	-0.497992	-0.682700	0.373772	-0.382385	118.228322	-63.428947	-16.828421
31493		17.633018	-6.644406	-7.091465	12.725107	6.130375	4.532481	-2.207869	0.388339	-3.895235	-0.430664	-0.667480	0.377686	0.174844	-0.070639	-0.070491	-0.513597	-0.683572	0.363613	-0.369774	114.666977	-61.526223	-14.240941
31494		19.497136	-8.267933	-8.833847	15.450913	8.058546	5.112749	-1.807351	0.139038	-4.267885	-0.412354	-0.680664	0.369141	0.193076	-0.087608	-0.087696	-0.528055	-0.685875	0.352386	-0.355749	111.774953	-59.334279	-12.187799
31495		24.135826	-6.661289	-7.370850	17.326138	5.978653	8.766291	-1.703030	0.224327	-4.335450	-0.384766	-0.707031	0.350098	0.239747	-0.072448	-0.073378	-0.541878	-0.688436	0.339837	-0.341959	109.198410	-57.048688	-10.306026
31496		22.479815	-5.562121	-6.445685	16.385073	5.227035	6.978340	-1.735206	0.527248	-4.105515	-0.362061	-0.718018	0.341553	0.223416	-0.060777	-0.064535	-0.555796	-0.689263	0.327754	-0.329521	106.695418	-54.943112	-8.563012
31497		15.075855	-7.306055	-6.521904	14.129556	6.374715	-0.709162	-1.251807	0.238771	-3.617358	-0.339355	-0.733643	0.322021	0.149322	-0.076177	-0.064928	-0.566379	-0.691195	0.316603	-0.318162	105.015169	-52.983145	-7.373749
31498		10.369074	-5.311150	-6.880920	9.984222	6.794192	-3.712421	-1.216433	-0.137876	-2.839180	-0.330078	-0.742188	0.320068	0.102966	-0.054994	-0.068407	-0.574900	-0.692007	0.309798	-0.307638	103.896543	-51.442307	-6.914961
31499		11.684754	-6.690713	-5.052398	12.208170	5.059274	-4.140214	-1.353047	-0.286062	-2.403203	-0.322998	-0.753418	0.304932	0.116101	-0.068644	-0.049897	-0.582798	-0.692217	0.304332	-0.297597	102.922412	-50.061367	-6.659603
31500		12.915300	-2.057082	-3.975973	9.685728	3.226554	-0.723499	-1.448724	-0.183948	-1.844407	-0.316162	-0.760010	0.289795	0.128991	-0.022048	-0.039485	-0.590238	-0.690685	0.301392	-0.289373	101.960372	-49.070586	-6.550514
31501		11.852340	3.811849	-7.977511	4.599281	6.641184	2.571935	-3.001661	0.328440	-0.797286	-0.315430	-0.773926	0.241455	0.118539	0.036441	-0.080525	-0.602198	-0.682471	0.301952	-0.283579	99.926944	-48.654276	-6.135553
31502		6.900966	-2.428820	-5.055007	6.295440	4.751244	-5.705885	-3.336749	0.950384	-0.134174	-0.330811	-0.778564	0.219238	0.068753	-0.025177	-0.050462	-0.615049	-0.670870	0.304098	-0.281377	97.411294	-48.729579	-5.384663
31503		1.554896	-11.286860	-2.748167	9.557785	3.184393	-15.801568	-2.154990	0.481382	0.526781	-0.346436	-0.776855	0.201416	0.015782	-0.113115	-0.026302	-0.622246	-0.662724	0.307373	-0.281299	95.900221	-49.057755	-5.019300
31504		-1.405955	-13.263076	-1.672586	9.229720	2.183265	-19.337695	-0.604723	-0.071987	1.346393	-0.366699	-0.774658	0.205811	-0.013160	-0.132771	-0.016329	-0.622110	-0.658554	0.313713	-0.284377	95.721317	-49.896584	-5.287761
31505		-1.978774	-10.139525	-0.160875	6.588933	0.594072	-17.748731	0.485022	-0.164080	1.961048	-0.387207	-0.761719	0.198730	-0.018791	-0.101578	-0.001871	-0.617453	-0.657188	0.319952	-0.290665	96.251865	-51.000744	-5.616737
31506		-1.461129	-5.713890	0.449182	3.595859	-0.137925	-14.506719	1.329160	-0.230139	2.284052	-0.414063	-0.755127	0.218506	-0.013962	-0.057329	0.004095	-0.609218	-0.657563	0.327083	-0.299134	97.409525	-52.366124	-6.174915
31507		0.019177	-3.238895	0.688300	2.611113	-0.516503	-11.782204	1.960395	-0.310294	2.540618	-0.441406	-0.735352	0.237793	0.000593	-0.032449	0.006566	-0.598404	-0.659761	0.333385	-0.309003	99.041266	-53.778010	-6.812175
31508		1.583228	-2.895861	0.184286	3.282634	-0.094882	-10.187975	2.267653	-0.338981	2.942928	-0.471191	-0.715576	0.252686	0.016253	-0.028740	0.001543	-0.585597	-0.661651	0.341434	-0.320494	101.062550	-55.486839	-7.755466
31509		2.536820	-3.452715	-0.655436	4.253805	0.764740	-9.490007	2.333503	-0.256697	3.385347	-0.500732	-0.695801	0.267578	0.025956	-0.034012	-0.006920	-0.571909	-0.662978	0.349552	-0.333456	103.227629	-57.348985	-8.750332
31510		3.099939	-3.685299	-1.338315	4.681593	1.467429	-8.860183	2.442983	-0.185534	3.826491	-0.532959	-0.665039	0.284424	0.031707	-0.036084	-0.013798	-0.556858	-0.662967	0.359497	-0.348060	105.735606	-59.528610	-10.111475
31511		3.453054	-4.141494	-1.966779	5.137147	2.168747	-8.455048	2.588076	-0.157395	4.272465	-0.569824	-0.627930	0.296631	0.035417	-0.040406	-0.020167	-0.540407	-0.662564	0.369461	-0.363962	108.656936	-61.837678	-11.761715
31512		4.200117	-4.103312	-2.462436	5.280652	2.622688	-7.411025	2.741154	-0.162317	4.694847	-0.606689	-0.590332	0.324219	0.042964	-0.039690	-0.025140	-0.522170	-0.660855	0.381214	-0.381163	112.329400	-64.409452	-14.177097
31513		5.203566	-3.537466	-2.902435	4.938242	2.880632	-5.898976	2.803241	-0.179418	5.079920	-0.639160	-0.548828	0.336426	0.052931	-0.033627	-0.029457	-0.502686	-0.658559	0.392944	-0.399001	116.820439	-67.011893	-17.341859
31514		6.408002	-3.225086	-3.279228	4.741146	3.030292	-4.286721	2.787783	-0.160219	5.472104	-0.672119	-0.496094	0.352539	0.064948	-0.030021	-0.033169	-0.481898	-0.654290	0.406479	-0.417678	122.670712	-69.772427	-21.970156
31515		7.746356	-3.318917	-3.582496	4.794151	3.123049	-2.665040	2.629299	-0.050173	5.922696	-0.702637	-0.445801	0.362305	0.078401	-0.030402	-0.036217	-0.460596	-0.648355	0.420251	-0.436894	130.133368	-72.488524	-28.262677
31516		9.222329	-3.423688	-4.182474	4.616987	3.422815	-0.802141	2.409274	0.089497	6.363234	-0.733398	-0.388672	0.376221	0.093220	-0.030774	-0.042251	-0.438632	-0.639387	0.435986	-0.456840	140.585149	-75.165544	-37.753964
31517		11.135111	-3.380358	-4.756079	4.131709	3.533256	1.519411	2.326048	0.094644	6.729581	-0.764160	-0.333984	0.379150	0.112369	-0.029477	-0.047973	-0.415778	-0.629204	0.451683	-0.476669	155.134673	-77.276342	-51.356869
31518		13.161596	-3.448702	-5.161845	3.457835	3.385341	3.907788	2.393173	-0.010217	7.033145	-0.792969	-0.263916	0.386230	0.132708	-0.029212	-0.051982	-0.390956	-0.617275	0.468579	-0.496546	175.082003	-78.349909	-70.396672
31519		15.689537	-3.528758	-6.009851	2.366874	3.449880	6.833131	2.444638	-0.151819	7.289248	-0.819580	-0.196045	0.384277	0.158070	-0.028803	-0.060357	-0.364696	-0.604906	0.484939	-0.515674	-163.748655	-77.844402	-90.590922
31520		18.693071	-2.931994	-7.612925	-0.065334	3.755682	10.228824	2.478731	-0.412265	7.429935	-0.824219	-0.123535	0.393555	0.187981	-0.021405	-0.076040	-0.336490	-0.591375	0.502088	-0.533814	-145.863447	-75.757730	-107.529248
31521		21.604537	-1.084200	-9.349946	-4.161131	3.625155	13.091816	2.401673	-0.779640	7.390418	-0.830811	-0.055420	0.398438	0.216584	-0.001727	-0.092713	-0.307478	-0.578502	0.518442	-0.549554	-134.023324	-72.679841	-118.397062
31522		24.158640	2.024290	-9.836941	-9.336411	1.824099	14.552890	2.189063	-1.019193	7.202164	-0.835205	0.014893	0.403320	0.241119	0.029999	-0.096847	-0.278146	-0.564993	0.535020	-0.563179	-126.188008	-69.069219	-125.378765
31523		27.618702	6.973239	-8.164993	-15.689669	-2.864087	15.154212	1.827667	-1.019564	6.820783	-0.830322	0.074219	0.399658	0.273988	0.079836	-0.079550	-0.250899	-0.551810	0.550205	-0.574308	-121.128860	-65.492903	-129.726178
31524		30.065778	11.207563	-5.435437	-20.726797	-7.958677	13.973399	1.163036	-0.594657	6.486235	-0.823242	0.133545	0.402588	0.296965	0.122058	-0.052777	-0.226923	-0.536360	0.565617	-0.583868	-117.294079	-62.009964	-133.263250
31525		27.674054	12.851001	-5.135381	-22.585894	-8.284583	9.637646	0.714817	-0.304847	6.116373	-0.817871	0.179688	0.401367	0.272713	0.137073	-0.050456	-0.206204	-0.520519	0.579998	-0.591728	-114.469051	-58.782639	-136.040852
31526		21.085386	11.100002	-5.422858	-19.681211	-5.500672	3.583626	0.688695	-0.478481	5.342016	-0.801514	0.221436	0.400391	0.207914	0.116765	-0.053333	-0.186876	-0.506618	0.592411	-0.597884	-112.521951	-55.813426	-137.888249
31527		16.492529	11.785305	-6.456230	-19.221825	-3.256498	-1.302330	1.260924	-1.023381	4.085864	-0.791260	0.252197	0.399658	0.162791	0.121594	-0.062967	-0.168414	-0.498639	0.599795	-0.602695	-111.335134	-53.425446	-138.458438
31528		14.242232	16.677089	-7.436733	-22.713460	-2.901175	-6.361898	1.350001	-1.332584	2.755756	-0.782959	0.272217	0.414795	0.140588	0.169209	-0.072290	-0.152497	-0.495283	0.603773	-0.605720	-110.733570	-51.642493	-138.236111
31529		14.574273	23.625303	-7.143196	-28.180846	-5.141697	-10.794255	0.772522	-1.181740	1.819883	-0.774414	0.285400	0.416504	0.143998	0.237840	-0.069661	-0.141516	-0.493932	0.606793	-0.606470	-110.619819	-50.430478	-137.814085
31530		16.243051	24.340742	-5.926763	-28.963838	-7.206710	-10.581450	-0.194490	-0.546886	0.785467	-0.772217	0.287842	0.418701	0.161635	0.243986	-0.059062	-0.137750	-0.493148	0.609684	-0.605074	-110.896573	-49.884785	-137.580695
31531		15.102094	20.574998	-3.353439	-24.448755	-8.056333	-9.825705	-0.911606	-0.062555	-0.172365	-0.760986	0.279053	0.421143	0.151209	0.205464	-0.034424	-0.140347	-0.493237	0.612046	-0.602013	-111.501907	-49.966497	-137.473139
31532		13.314613	14.916267	-2.329652	-18.820945	-6.868960	-7.867234	-1.016464	-0.056615	-1.026054	-0.765137	0.268066	0.423828	0.133915	0.148356	-0.024014	-0.145652	-0.496118	0.612445	-0.597966	-112.409967	-50.509549	-137.026641
31533		15.306051	9.240847	-2.847015	-15.461183	-6.054271	-2.597221	-0.733083	-0.331870	-1.668396	-0.775635	0.252686	0.426270	0.153871	0.091023	-0.028551	-0.151456	-0.501672	0.610706	-0.593654	-113.505582	-51.318208	-136.157232
31534		11.531116	7.933069	-5.202666	-13.538277	-2.130508	-3.885468	-0.232200	-0.594340	-2.488011	-0.773193	0.239746	0.437744	0.116440	0.077827	-0.051773	-0.157567	-0.511211	0.605318	-0.589428	-114.817989	-52.504527	-134.635870
31535		10.138932	-10.232282	-13.944088	-1.687415	10.031532	7.462949	0.181506	-1.389923	-2.953617	-0.779053	0.215576	0.442627	0.100831	-0.103689	-0.138833	-0.161600	-0.524329	0.598239	-0.584016	-116.649219	-53.686065	-132.216896
31536		21.055872	-31.023824	6.318573	19.877375	-7.426312	21.738225	-0.696827	0.283945	-1.691844	-0.785400	0.206787	0.442871	0.208016	-0.311783	0.063974	-0.169101	-0.528502	0.595261	-0.581166	-117.515091	-54.648152	-131.604666
31537		24.487779	3.962504	9.224152	-8.695787	-19.465110	5.868620	0.454427	0.559061	-2.042178	-0.795898	0.186768	0.432373	0.245521	0.036912	0.091642	-0.175509	-0.533317	0.588027	-0.582231	-117.627415	-55.836260	-131.151949
31538		25.830800	12.381343	7.118258	-16.627726	-20.061240	4.049377	-0.842247	0.651998	-3.932189	-0.797119	0.151611	0.439941	0.260908	0.118997	0.069827	-0.191213	-0.542379	0.579106	-0.577840	-119.290879	-58.025230	-129.737823
31539		18.729866	9.973723	-5.959629	-16.913148	-4.926748	3.430496	-1.155975	-0.507058	-4.567705	-0.795898	0.110107	0.447510	0.189657	0.095079	-0.059676	-0.206042	-0.555819	0.570371	-0.568585	-122.618660	-60.123487	-126.632368
31540		19.393706	4.800629	-4.597505	-11.387102	-4.979693	6.489808	-1.429929	-1.053254	-3.956889	-0.792480	0.070801	0.466309	0.195071	0.043829	-0.045273	-0.218517	-0.568738	0.564149	-0.557247	-126.707068	-61.691489	-122.898836
31541		11.231511	-1.190231	-3.713382	-3.043529	-0.931993	1.641616	-0.696567	-1.794858	-3.698338	-0.784912	0.040283	0.471436	0.112395	-0.014107	-0.036079	-0.225712	-0.583292	0.557400	-0.546012	-131.152126	-62.697014	-118.326366
31542		9.381637	1.475146	-2.731148	-4.245029	-1.797361	-1.072653	-0.768174	-0.638022	-3.605143	-0.781738	0.014160	0.483154	0.094147	0.012952	-0.027064	-0.236310	-0.594377	0.549323	-0.537696	-135.023795	-64.002075	-114.495777
31543		5.071251	-1.249202	-4.516266	-1.420441	2.272895	-3.449615	-0.195642	-0.851726	-3.021712	-0.774414	-0.012207	0.494873	0.050707	-0.013302	-0.044934	-0.242667	-0.604669	0.541796	-0.530986	-138.473069	-64.835813	-110.797143
31544		8.571058	3.086585	-4.527987	-5.722508	-0.389869	-1.410969	-0.001942	-0.519236	-2.473197	-0.771729	-0.029541	0.504150	0.086201	0.029801	-0.045057	-0.248129	-0.612980	0.534600	-0.526204	-141.345077	-65.561209	-107.640568
31545		11.913625	2.012875	-1.358406	-3.721409	-4.110952	1.007455	-0.394872	-0.274864	-2.357693	-0.766357	-0.053711	0.504883	0.119381	0.018696	-0.013458	-0.254810	-0.619478	0.528703	-0.521337	-144.194871	-66.255669	-104.767738
31546		7.438984	-1.552556	-2.303598	-0.128304	-0.396004	-1.882953	-0.101986	-0.215666	-1.735449	-0.766113	-0.066650	0.511719	0.074276	-0.016182	-0.022948	-0.259404	-0.624763	0.523515	-0.517989	-146.427988	-66.757760	-102.403380
31547		7.501887	2.283246	-4.104583	-4.243549	-0.061827	-2.045651	0.313958	-0.181672	-1.295597	-0.763672	-0.073242	0.507568	0.075202	0.022410	-0.040942	-0.261318	-0.629025	0.518864	-0.516546	-147.849182	-67.075415	-100.663881
31548		9.436343	0.421491	-5.428794	-3.067456	0.968314	0.596260	0.097146	0.071342	-1.165191	-0.761230	-0.079834	0.514404	0.094367	0.003692	-0.054320	-0.264527	-0.632279	0.514499	-0.515306	-149.247178	-67.492764	-99.093258
31549		11.584594	-0.667325	-2.228692	-0.872729	-2.200026	1.763667	-0.015796	0.143453	-1.127856	-0.760742	-0.095215	0.512451	0.115790	-0.007328	-0.022369	-0.267869	-0.634787	0.510762	-0.514212	-150.524209	-67.890325	-97.723634
31550		12.711941	0.886910	-1.596013	-1.985129	-3.631150	2.344593	-0.139990	-0.032800	-1.150340	-0.758057	-0.105957	0.523926	0.127170	0.008127	-0.015945	-0.271504	-0.637911	0.507148	-0.512012	-152.217718	-68.220945	-95.988827
31551		10.964873	-1.071173	-2.477518	-0.311694	-1.533958	1.370453	-0.044435	-0.301410	-1.007442	-0.755615	-0.114746	0.526367	0.109630	-0.011269	-0.024607	-0.273479	-0.641175	0.504436	-0.509557	-153.737440	-68.331505	-94.381281
31552		10.771900	-0.773264	-5.039868	-1.432396	0.658673	2.000259	-0.067960	-0.326938	-0.769610	-0.748779	-0.123291	0.535400	0.107770	-0.008164	-0.050220	-0.275181	-0.644121	0.502242	-0.507086	-155.143209	-68.382673	-92.920005
31553		11.778455	0.271683	-3.913844	-1.903482	-1.040981	2.410914	-0.379670	-0.173138	-0.615544	-0.743896	-0.132080	0.531250	0.117826	0.002280	-0.039041	-0.277551	-0.645586	0.501441	-0.504718	-156.283446	-68.439378	-91.928656
31554		10.896688	-1.043589	-3.308345	-0.346399	-0.775623	1.591251	-0.621483	-0.168899	-0.581016	-0.741455	-0.140869	0.535889	0.108964	-0.010855	-0.032958	-0.280941	-0.646875	0.501012	-0.501609	-157.677597	-68.507686	-90.820909
31555		10.466880	-2.115501	-3.156748	0.788434	-0.375933	1.288330	-0.637258	-0.054852	-0.471005	-0.745605	-0.154053	0.538330	0.104627	-0.021502	-0.031471	-0.284067	-0.647300	0.501144	-0.499163	-158.717612	-68.580731	-90.096751
31556		10.044982	-2.517863	-2.711209	1.397218	-0.456741	0.790656	-0.556170	0.051190	-0.355076	-0.740967	-0.158447	0.542969	0.100398	-0.025432	-0.027067	-0.287226	-0.647526	0.500965	-0.497238	-159.660754	-68.705973	-89.435552
31557		10.406475	-2.096235	-3.161763	0.890289	-0.312567	1.223395	-0.410882	0.219497	-0.347560	-0.738525	-0.165039	0.538818	0.103993	-0.021208	-0.031688	-0.289993	-0.647266	0.500527	-0.496410	-160.275568	-68.894289	-89.029624
31558		11.104792	-1.323461	-3.643553	0.053836	-0.346446	1.944015	-0.455727	0.416273	-0.370924	-0.738281	-0.171631	0.532227	0.110947	-0.013524	-0.036636	-0.293773	-0.646732	0.499525	-0.495893	-161.016988	-69.214212	-88.525784
31559		11.535128	-1.754526	-3.307730	0.619308	-0.583541	2.284997	-0.553383	0.530166	-0.377824	-0.733643	-0.182617	0.536865	0.115230	-0.017855	-0.033334	-0.297845	-0.645551	0.498875	-0.495658	-161.629433	-69.573217	-88.211243
31560		10.109340	-1.776408	-3.368394	0.649154	0.052888	0.970435	-0.594981	0.637203	-0.311891	-0.737793	-0.184814	0.528076	0.100958	-0.018022	-0.033952	-0.302469	-0.644078	0.498071	-0.495583	-162.290187	-69.999414	-87.881044
31561		8.873003	-1.471419	-3.578616	0.308237	0.622816	-0.157711	-0.743242	0.426996	-0.221301	-0.737793	-0.187256	0.514893	0.088637	-0.014946	-0.035920	-0.306495	-0.642449	0.498532	-0.494759	-162.857399	-70.272693	-87.731780
31562		8.718889	-1.279309	-3.543390	0.178904	0.630666	-0.337389	-0.724248	0.401404	-0.205936	-0.744873	-0.176514	0.505859	0.087104	-0.013011	-0.035562	-0.310661	-0.641068	0.498727	-0.493753	-163.569744	-70.549493	-87.425470
31563		9.006508	-0.523521	-3.226866	-0.396558	0.062948	-0.239681	-0.683251	0.372759	-0.251511	-0.757813	-0.187744	0.481689	0.089998	-0.005459	-0.032418	-0.314424	-0.639717	0.499007	-0.492841	-164.196806	-70.796523	-87.176875
31564		8.873147	-1.397815	-2.945583	0.563215	0.165164	-0.377733	-0.686893	0.317631	-0.284618	-0.772705	-0.205566	0.470947	0.088664	-0.014206	-0.029548	-0.318432	-0.638774	0.498968	-0.491528	-165.074142	-71.036408	-86.672491
31565		8.752828	-1.252607	-3.037797	0.433067	0.276434	-0.477536	-0.649292	0.258513	-0.302566	-0.776367	-0.234131	0.473877	0.087470	-0.012757	-0.030450	-0.321917	-0.637864	0.499164	-0.490239	-165.838803	-71.225100	-86.258629
31566		8.565303	-1.704513	-3.109503	0.887842	0.566024	-0.602371	-0.671594	0.221905	-0.329369	-0.771240	-0.253662	0.483398	0.085590	-0.017291	-0.031132	-0.325730	-0.637262	0.499087	-0.488579	-166.846027	-71.412909	-85.608715
31567		8.423980	-1.574900	-3.825792	0.596293	1.244230	-0.529558	-0.649488	0.156798	-0.367993	-0.759521	-0.273438	0.483887	0.084180	-0.016028	-0.038272	-0.329112	-0.636744	0.499224	-0.486845	-167.784430	-71.548562	-85.012616
31568		8.520670	-1.540273	-3.645518	0.680964	1.067058	-0.503476	-0.623506	0.137772	-0.443029	-0.748291	-0.281982	0.497314	0.085147	-0.015705	-0.036465	-0.332813	-0.636686	0.498793	-0.484842	-169.009930	-71.694264	-84.103412
31569		8.355499	-2.133333	-3.519611	1.339633	1.192498	-0.672879	-0.591686	0.111800	-0.519128	-0.739014	-0.290771	0.493164	0.083479	-0.021654	-0.035179	-0.336257	-0.636729	0.498366	-0.482845	-170.212982	-71.812501	-83.194744
31570		8.324127	-1.697828	-3.348405	1.040683	0.949817	-0.790496	-0.566789	0.088465	-0.612342	-0.731934	-0.301514	0.493408	0.083174	-0.017328	-0.033472	-0.340033	-0.637283	0.497326	-0.480535	-171.737309	-71.931955	-81.936526
31571		7.943913	-1.812490	-3.338168	1.208390	1.110462	-1.161653	-0.585229	0.077135	-0.719720	-0.727051	-0.312500	0.491699	0.079360	-0.018508	-0.033359	-0.343841	-0.637895	0.496283	-0.478086	-173.324240	-72.030815	-80.621499
31572		8.008184	-1.639309	-3.409901	1.113274	1.135907	-1.099742	-0.608159	0.064016	-0.863948	-0.720215	-0.321289	0.487305	0.079999	-0.016842	-0.034074	-0.348258	-0.639026	0.494564	-0.475151	-175.347564	-72.127102	-78.863933
31573		8.259430	-1.924611	-2.675528	1.689029	0.491261	-1.095709	-0.611924	0.063407	-1.031695	-0.706055	-0.343262	0.474854	0.082485	-0.019754	-0.026722	-0.352841	-0.640359	0.492582	-0.472025	-177.537773	-72.201237	-76.932625
31574		8.518931	-2.728180	-2.385580	2.667816	0.394851	-0.956516	-0.534786	0.055820	-1.208208	-0.697021	-0.347656	0.483643	0.085016	-0.027859	-0.023806	-0.357778	-0.642430	0.489574	-0.468612	179.839362	-72.254033	-74.502301
31575		9.079949	-2.649104	-2.082989	2.833417	-0.031014	-0.551413	-0.433122	0.082770	-1.382498	-0.689453	-0.376221	0.475586	0.090605	-0.027163	-0.020809	-0.362628	-0.644837	0.485966	-0.465320	177.097253	-72.281125	-71.885169
31576		10.199306	-1.990748	-2.236348	2.415314	-0.332242	0.533502	-0.370246	0.147336	-1.549307	-0.680176	-0.391357	0.478271	0.101818	-0.020738	-0.022401	-0.368010	-0.647723	0.481281	-0.461944	173.941917	-72.298957	-68.799679
31577		11.312823	-2.233965	-2.387648	2.907801	-0.375937	1.592188	-0.382914	0.152384	-1.719351	-0.659668	-0.406738	0.469971	0.112912	-0.023357	-0.023919	-0.373600	-0.650788	0.476276	-0.458322	170.617069	-72.253536	-65.540753
31578		12.472634	-2.226365	-2.228383	3.300430	-0.762661	2.597367	-0.415709	0.146629	-1.864983	-0.647949	-0.419922	0.474609	0.124495	-0.023472	-0.022327	-0.379797	-0.654210	0.470622	-0.454179	166.923319	-72.126879	-61.918263
31579		12.981702	-2.391829	-1.596758	3.915893	-1.350430	2.821840	-0.490618	0.167726	-1.951555	-0.634033	-0.441895	0.459717	0.129562	-0.025223	-0.016015	-0.386235	-0.657465	0.464988	-0.449832	163.220372	-71.931496	-58.322248
31580		12.479406	-2.652226	-1.451061	4.365097	-1.184529	2.204477	-0.535947	0.198881	-2.041041	-0.617920	-0.457031	0.466797	0.124500	-0.027833	-0.014561	-0.393275	-0.660768	0.458871	-0.445148	159.305494	-71.659835	-54.536407
31581		11.640242	-3.271828	-1.538731	5.021347	-0.622053	1.276078	-0.492396	0.250094	-2.184047	-0.606201	-0.476807	0.460693	0.116016	-0.034025	-0.015450	-0.400338	-0.664221	0.452208	-0.440509	155.395871	-71.309334	-50.712285
31582		11.607508	-3.978872	-2.482889	5.723688	0.569944	1.306541	-0.358461	0.287370	-2.388881	-0.590332	-0.485352	0.458740	0.115553	-0.041216	-0.024922	-0.407663	-0.668251	0.444301	-0.435716	151.295293	-70.836422	-46.612164
31583		12.262994	-4.998269	-3.258926	6.928320	1.547910	1.831023	-0.248008	0.291122	-2.612351	-0.564941	-0.507324	0.450684	0.121915	-0.051619	-0.032704	-0.414820	-0.672864	0.435457	-0.430761	147.260034	-70.213504	-42.484255
31584		13.340256	-5.595130	-3.327937	8.042212	1.689181	2.548464	-0.261898	0.292028	-2.796202	-0.553467	-0.522705	0.450928	0.132554	-0.057852	-0.033398	-0.422556	-0.677703	0.425859	-0.425217	143.180421	-69.429394	-38.318669
31585		14.313074	-6.063657	-2.713481	9.210139	1.210643	2.942078	-0.397375	0.348234	-2.951532	-0.534912	-0.542236	0.445068	0.142167	-0.062793	-0.027260	-0.430898	-0.682338	0.415896	-0.419253	139.186849	-68.522463	-34.285823
31586		15.217050	-6.868564	-2.621005	10.613739	1.365704	3.266485	-0.586515	0.474299	-3.099258	-0.516602	-0.562012	0.447754	0.151019	-0.071109	-0.026363	-0.440547	-0.686381	0.405439	-0.412818	135.103517	-67.507621	-30.270059
31587		15.593983	-7.908810	-2.720692	12.054348	1.899688	3.000514	-0.866458	0.599234	-3.237349	-0.493652	-0.579346	0.441650	0.154550	-0.081716	-0.027321	-0.451379	-0.689705	0.394714	-0.405913	131.031009	-66.384020	-26.385358
31588		16.275612	-9.220687	-2.541672	13.927708	2.180419	2.741425	-1.427230	0.633028	-3.284765	-0.477295	-0.605957	0.422363	0.161131	-0.095043	-0.025257	-0.464345	-0.691453	0.384843	-0.397709	126.913160	-65.147643	-22.798205
31589		16.926646	-9.964045	-2.107590	15.342952	2.015598	2.464431	-2.258310	0.743355	-3.197571	-0.463135	-0.623535	0.409668	0.167565	-0.102563	-0.020554	-0.479873	-0.690752	0.376452	-0.388416	122.683310	-63.882956	-19.547623
31590		17.383599	-9.221637	-1.112701	15.451628	0.883934	2.389616	-3.065518	0.852381	-3.086303	-0.437744	-0.652344	0.381592	0.172338	-0.095047	-0.010421	-0.498123	-0.687198	0.369782	-0.378012	118.284855	-62.614599	-16.629303
31591		17.220924	-6.560298	-3.972505	13.048163	3.147765	3.422452	-3.370994	1.045870	-3.294012	-0.432373	-0.676758	0.353516	0.170883	-0.069092	-0.039476	-0.517742	-0.682721	0.362097	-0.367044	113.786991	-61.178152	-13.721778
31592		17.016908	-5.469442	-6.689511	12.212454	5.757431	3.673617	-2.813425	0.932201	-3.909292	-0.400635	-0.694336	0.329834	0.168733	-0.058943	-0.066875	-0.536212	-0.680360	0.351688	-0.354828	109.833573	-59.314266	-11.074159
31593		19.647600	-9.178218	-7.911323	17.206412	7.536289	3.599911	-2.275246	0.829333	-4.238401	-0.377686	-0.714111	0.310547	0.194132	-0.096811	-0.078839	-0.552791	-0.680043	0.338953	-0.342163	106.570484	-57.151803	-8.771563
31594		21.797755	-9.497624	-7.643605	19.256667	7.311182	4.308240	-1.544153	0.707166	-4.025737	-0.357178	-0.731689	0.302002	0.215729	-0.099924	-0.076443	-0.566091	-0.680983	0.326257	-0.330695	104.187609	-55.062586	-7.015295
31595		17.116210	-8.721456	-6.608026	16.506555	6.661927	-0.024966	-0.755131	0.425849	-3.625098	-0.332275	-0.740234	0.302490	0.169400	-0.090545	-0.066105	-0.575274	-0.683939	0.313875	-0.320578	102.755361	-53.095680	-5.782681
31596		11.174402	-6.453758	-6.421242	11.424185	6.585117	-3.993845	-0.445666	-0.056236	-3.193768	-0.320801	-0.749268	0.289307	0.110711	-0.066454	-0.064035	-0.581792	-0.687418	0.304295	-0.310450	102.037681	-51.342146	-5.246567
31597		9.335641	-4.082540	-7.430879	8.548407	7.360717	-4.175742	-0.939167	-0.438180	-2.530021	-0.311768	-0.758057	0.285156	0.092989	-0.042351	-0.073908	-0.588247	-0.689153	0.298276	-0.300109	101.436328	-49.868029	-5.166265
31598		13.148676	-5.169227	-4.707621	12.196360	4.527927	-2.566643	-1.010897	-0.439881	-2.274834	-0.300293	-0.762451	0.274414	0.130988	-0.053420	-0.046521	-0.594415	-0.689954	0.293769	-0.290402	100.864186	-48.587810	-5.216138
31599		12.129657	1.392237	-5.788832	6.754196	4.844779	0.840057	-1.656577	-0.309355	-1.299646	-0.299805	-0.773682	0.245850	0.121471	0.012654	-0.057809	-0.601548	-0.687351	0.292567	-0.283006	99.956356	-47.819674	-5.273107
31600		10.137472	3.015529	-8.603220	4.318482	7.676410	0.593608	-3.123422	0.454727	-0.384495	-0.310791	-0.778564	0.223877	0.101234	0.028610	-0.086717	-0.613348	-0.677574	0.294855	-0.278853	97.864058	-47.695954	-4.901129
31601		4.467803	-5.416098	-4.425682	6.978867	4.491357	-9.759313	-2.924478	0.791706	0.396495	-0.323975	-0.787598	0.195313	0.044613	-0.054714	-0.043636	-0.623817	-0.666839	0.297787	-0.278389	95.717931	-47.971415	-4.267841
31602		-0.062807	-13.984659	-2.765798	10.458610	3.254346	-18.936468	-1.712067	0.184724	1.301785	-0.348633	-0.781250	0.186035	0.000258	-0.140077	-0.026459	-0.627834	-0.659076	0.304510	-0.280566	94.719454	-48.780580	-4.272697
31603		-1.365159	-12.952971	-1.278603	8.986953	1.660918	-19.180024	-0.264222	-0.261533	2.181069	-0.371094	-0.770508	0.185791	-0.012221	-0.129685	-0.012631	-0.625227	-0.655254	0.312845	-0.286114	94.861244	-50.009657	-4.660279
31604		-1.540479	-7.693028	0.172896	5.004731	0.106985	-15.856110	0.797814	-0.436160	2.630343	-0.395996	-0.763916	0.194336	-0.014395	-0.077130	0.001389	-0.617969	-0.653970	0.322307	-0.294202	95.825764	-51.549941	-5.346652
31605		-0.134159	-3.885948	0.674013	2.996497	-0.530702	-12.324872	1.347336	-0.525606	2.798383	-0.425537	-0.742188	0.200439	-0.000815	-0.038918	0.006475	-0.608543	-0.654318	0.331035	-0.303248	97.218152	-53.105173	-6.131692
31606		1.614807	-2.954155	0.686690	3.339766	-0.657672	-10.280368	1.562145	-0.560266	3.092648	-0.455322	-0.722412	0.219727	0.016584	-0.029340	0.006683	-0.597587	-0.654439	0.341107	-0.313442	98.928522	-54.878995	-7.174456
31607		3.215059	-3.121670	0.509925	4.386040	-0.564683	-8.927659	1.539586	-0.524658	3.517478	-0.487061	-0.704834	0.228027	0.032680	-0.030683	0.004947	-0.586050	-0.653742	0.351684	-0.324786	100.751469	-56.810045	-8.312353
31608		3.940959	-3.744181	0.314237	5.257907	-0.377605	-8.450045	1.501152	-0.542492	3.973732	-0.528076	-0.678711	0.244873	0.040135	-0.036672	0.002973	-0.573472	-0.651576	0.364426	-0.337302	102.884816	-59.040534	-9.853630
31609		4.068611	-4.804300	-0.119636	6.172770	0.139712	-8.579868	1.645449	-0.564454	4.406680	-0.553223	-0.652344	0.248535	0.041735	-0.047120	-0.001470	-0.559512	-0.649037	0.377500	-0.350987	105.451827	-61.406559	-11.725479
31610		4.466399	-5.635184	-0.341196	7.016696	0.411985	-8.261626	1.875888	-0.606244	4.829173	-0.594727	-0.612793	0.278320	0.046018	-0.055217	-0.003795	-0.543488	-0.645644	0.392148	-0.366037	108.811411	-64.015966	-14.338762
31611		5.572531	-5.561225	-0.871828	7.270343	0.832019	-6.783793	2.192548	-0.646861	5.244372	-0.629395	-0.573242	0.294922	0.057185	-0.054027	-0.009133	-0.525345	-0.642244	0.406640	-0.382335	113.162539	-66.687001	-17.743574
31612		7.046984	-4.672891	-1.185911	6.739209	0.851257	-4.641730	2.458487	-0.596910	5.665855	-0.666748	-0.522949	0.311279	0.071789	-0.044559	-0.012203	-0.505025	-0.637575	0.422226	-0.400217	118.989036	-69.521858	-22.549589
31613		8.685597	-3.765730	-1.320891	6.012444	0.605871	-2.408809	2.433839	-0.420055	6.090674	-0.699463	-0.474609	0.323242	0.087974	-0.034826	-0.013460	-0.483944	-0.631364	0.437582	-0.419165	126.418307	-72.330326	-28.932865
31614		9.973872	-3.000461	-1.382543	5.059799	0.278928	-0.611009	2.364659	-0.287539	6.497865	-0.732422	-0.417480	0.348145	0.100660	-0.026579	-0.014009	-0.461814	-0.622582	0.454291	-0.439020	136.860931	-75.071568	-38.445752
31615		11.761963	-2.570868	-1.521880	4.282193	-0.057163	1.539296	2.349013	-0.247139	6.821024	-0.760986	-0.358398	0.353271	0.118420	-0.021499	-0.015342	-0.438693	-0.612657	0.470622	-0.459037	151.427138	-77.260174	-52.055315
31616		14.251633	-2.934603	-1.835331	4.006982	-0.292145	4.288848	2.250563	-0.172260	7.043805	-0.787842	-0.286133	0.357910	0.143443	-0.024096	-0.018521	-0.414804	-0.600411	0.487788	-0.479069	171.125212	-78.507103	-70.925657
31617		17.456726	-3.522686	-2.241191	3.579376	-0.607301	7.761222	2.210702	-0.144742	7.163969	-0.816162	-0.235840	0.358887	0.175690	-0.028697	-0.022626	-0.390391	-0.587457	0.503937	-0.498535	-167.537826	-78.293626	-91.405972
31618		20.653721	-3.354031	-3.475222	1.714417	-0.392174	11.320215	2.285557	-0.263680	7.209907	-0.829834	-0.156738	0.370117	0.207603	-0.025670	-0.034802	-0.364650	-0.573333	0.520237	-0.517372	-148.834898	-76.571651	-109.269773
31619		22.880948	-2.064927	-5.129536	-1.695509	0.066039	13.660131	2.395258	-0.498185	7.163963	-0.840820	-0.086426	0.372559	0.229466	-0.011825	-0.050901	-0.337723	-0.559952	0.535095	-0.534854	-135.809924	-73.824801	-121.316255
31620		24.240886	0.824383	-6.227841	-6.669398	-0.301134	14.316700	2.714392	-0.820449	6.908530	-0.849609	-0.016113	0.377441	0.242164	0.017448	-0.061089	-0.309111	-0.547165	0.548793	-0.551260	-127.012084	-70.481835	-128.969792
31621		27.127102	6.176302	-5.705347	-13.824834	-3.302345	14.767938	3.030499	-0.917483	6.503875	-0.844971	0.049805	0.382568	0.269308	0.071385	-0.054782	-0.280203	-0.536181	0.559278	-0.566748	-121.025435	-67.099549	-133.526802
31622		28.211029	10.708822	-6.132986	-19.942558	-4.873913	13.129237	2.766634	-0.567604	6.248408	-0.840576	0.115723	0.389648	0.278734	0.116659	-0.058966	-0.253237	-0.523229	0.569146	-0.581529	-116.207844	-63.740983	-137.120251
31623		27.355774	11.810838	-7.117113	-22.265679	-4.537489	10.725891	2.242076	-0.293282	5.846538	-0.828369	0.159424	0.375244	0.270038	0.126822	-0.069384	-0.229440	-0.510033	0.578002	-0.594253	-112.590332	-60.623093	-139.757364
31624		24.920483	10.015683	-6.889890	-20.796006	-4.009508	8.077939	1.813341	-0.346484	5.134890	-0.821045	0.208008	0.383057	0.246632	0.107128	-0.067520	-0.208419	-0.497587	0.586236	-0.604397	-110.010005	-57.762600	-141.581712
31625		20.443185	11.504622	-6.771938	-20.813860	-3.384543	2.490264	2.027477	-0.727751	4.062043	-0.813232	0.247314	0.373291	0.202272	0.119843	-0.065782	-0.188935	-0.489867	0.590810	-0.612599	-108.288057	-55.430004	-142.253431
31626		15.129444	17.408250	-7.329823	-23.704436	-2.808089	-5.835117	2.054920	-0.925247	2.949106	-0.791748	0.271729	0.379395	0.149030	0.177027	-0.070796	-0.172076	-0.485462	0.592739	-0.619174	-107.064052	-53.626107	-142.330929
31627		12.957488	22.024967	-9.062564	-27.030456	-1.960633	-10.584304	1.471526	-1.006533	2.022762	-0.790039	0.289307	0.374512	0.127783	0.222204	-0.088349	-0.159267	-0.483811	0.593897	-0.622774	-106.509465	-52.352692	-141.970493
31628		16.150961	22.480698	-8.965560	-28.851850	-3.625061	-8.794766	0.546357	-0.556475	1.006854	-0.788086	0.298096	0.383057	0.160622	0.225860	-0.088592	-0.153135	-0.482794	0.595170	-0.623885	-106.363143	-51.692874	-141.767743
31629		15.797772	22.339181	-6.670124	-27.611558	-5.534551	-9.550371	-0.419298	0.010801	0.213769	-0.783447	0.293701	0.376465	0.157735	0.223420	-0.067178	-0.153535	-0.481807	0.596976	-0.622823	-106.552198	-51.579837	-141.833950
31630		14.178781	17.876195	-4.815335	-22.653959	-5.351402	-8.420144	-1.028009	0.174684	-0.441029	-0.787598	0.282715	0.383545	0.142139	0.178198	-0.049194	-0.157915	-0.481803	0.598958	-0.619821	-107.114315	-51.853360	-141.867883
