// General information: 
//  MT Manager version: 2019.2.0 
//  XDA version: 2019.2.0 build 3853 rev 94535 built on 2019-09-09
// Device information: 
//  DeviceId: 00B40A23
//  ProductCode: MTW2-3A7G6
//  Firmware Version: 4.3.5
//  Hardware Version: 1.1.0
// Device settings: 
//  Filter Profile: human(46.1)
//  Option Flags: Orientation Smoother Disabled, AHS Disabled, ICC Disabled
// Coordinate system: ENU
PacketCounter	SampleTimeFine	Acc_X	Acc_Y	Acc_Z	FreeAcc_E	FreeAcc_N	FreeAcc_U	Gyr_X	Gyr_Y	Gyr_Z	Mag_X	Mag_Y	Mag_Z	VelInc_X	VelInc_Y	VelInc_Z	Quat_q0	Quat_q1	Quat_q2	Quat_q3	Roll	Pitch	Yaw
43109		5.368016	0.469879	8.885582	0.000000	0.000000	0.579103	-0.041700	-0.850305	-0.220465	-0.819580	0.218750	-0.405518	0.053307	0.004658	0.089082	0.199097	-0.255613	-0.077749	-0.942856	2.993494	-30.861945	-156.979201
43110		4.859577	0.208625	8.859526	0.000000	-0.000000	0.294204	-0.069283	-1.069789	-0.183479	-0.830811	0.218506	-0.398682	0.048123	0.002073	0.088853	0.173081	-0.239771	-0.054264	-0.953734	1.336325	-28.433547	-159.766749
43111		4.748154	0.321527	9.137157	0.388785	0.173310	0.480671	-0.073531	-1.335263	-0.138554	-0.837158	0.211670	-0.387451	0.046872	0.003216	0.091685	0.181464	-0.252650	-0.065531	-0.948127	2.159416	-30.190159	-158.912698
43112		5.464659	0.657048	8.837876	-0.058866	-0.368189	0.592165	-0.064821	-1.594261	-0.091235	-0.848633	0.215820	-0.369873	0.053943	0.006575	0.088808	0.180421	-0.260229	-0.066783	-0.946187	2.173685	-31.100975	-159.013551
43113		5.216172	0.637403	8.963663	0.362226	-0.149720	0.570245	-0.121974	-1.853088	-0.020319	-0.853027	0.215576	-0.347656	0.051329	0.006424	0.090111	0.177869	-0.269670	-0.069112	-0.943856	2.340201	-32.252029	-159.332338
43114		5.018171	1.012182	9.245754	0.989527	-0.310883	0.704478	-0.142091	-2.059948	0.072156	-0.866455	0.217529	-0.334229	0.049222	0.010206	0.092961	0.177297	-0.279528	-0.070173	-0.941013	2.262715	-33.433000	-159.339584
43115		5.236570	-0.117496	9.366301	0.667596	0.782045	0.869105	-0.125381	-2.302045	0.100760	-0.873047	0.210693	-0.313965	0.051284	-0.001090	0.094258	0.176511	-0.290085	-0.072079	-0.937816	2.286122	-34.718080	-159.396318
43116		5.502136	-0.317345	8.739747	0.307869	0.825402	0.481741	-0.058435	-2.612361	0.063343	-0.886475	0.212646	-0.282959	0.053875	-0.003131	0.088107	0.175766	-0.302384	-0.074013	-0.933912	2.269183	-36.215112	-159.424828
43117		4.992459	-0.754951	9.852142	1.398948	1.744388	1.029369	0.016813	-3.004606	0.003584	-0.901855	0.203369	-0.251709	0.048437	-0.007557	0.099256	0.172571	-0.315817	-0.075968	-0.929896	2.343137	-37.848402	-159.776602
43118		4.889300	-0.633517	10.712892	2.336876	2.011719	1.569352	0.073652	-3.454867	-0.066975	-0.917236	0.200684	-0.224854	0.047031	-0.006391	0.107950	0.171038	-0.331743	-0.079386	-0.924332	2.483319	-39.824525	-159.932819
43119		4.231916	-1.788734	10.826474	2.837429	3.327701	1.104201	0.086308	-3.993485	-0.191441	-0.930420	0.193604	-0.169189	0.040129	-0.017973	0.109073	0.162772	-0.347909	-0.077862	-0.920001	2.304070	-41.720787	-160.811597
43120		4.857541	-1.164988	10.749427	3.010878	2.765191	1.312318	0.250366	-4.669536	-0.336589	-0.943848	0.190918	-0.120117	0.046029	-0.011864	0.108574	0.159797	-0.368957	-0.083378	-0.911803	2.737529	-44.385178	-161.236257
43121		4.955838	-1.681415	10.829813	3.337953	3.149976	1.303596	0.276296	-5.473079	-0.505833	-0.949951	0.181885	-0.066650	0.046528	-0.017085	0.109576	0.145007	-0.389133	-0.074952	-0.906604	1.924595	-46.661871	-162.655673
43122		5.634728	-1.651465	11.784241	4.185437	3.496377	2.168383	0.333675	-6.259451	-0.667808	-0.958740	0.174805	0.006836	0.052568	-0.016893	0.119499	0.140212	-0.416817	-0.082264	-0.894336	2.710972	-50.229936	-163.450562
43123		7.077264	-0.834001	11.743892	4.241177	2.184054	3.066117	0.412536	-7.125390	-0.739391	-0.958252	0.170166	0.082275	0.066499	-0.008837	0.119841	0.121809	-0.441708	-0.067229	-0.886305	1.102695	-53.068473	-164.899886
43124		10.029304	-0.280053	15.861296	6.885815	2.522027	7.458694	0.149519	-7.592580	-0.765837	-0.955566	0.158936	0.155762	0.094166	-0.003289	0.162264	0.116105	-0.474676	-0.074157	-0.869312	1.989914	-57.405415	-165.874826
43125		10.318431	-1.120626	14.548268	6.484303	2.586483	6.633395	-0.043569	-7.912575	-0.805239	-0.939209	0.145752	0.236084	0.097278	-0.011574	0.149412	0.101451	-0.499868	-0.056887	-0.858256	-0.438212	-60.408880	-166.262129
43126		14.584614	1.251344	15.186161	6.903212	0.285786	10.110583	-0.526452	-7.832118	-0.717162	-0.916016	0.134766	0.309326	0.139799	0.012414	0.157383	0.094752	-0.533144	-0.060348	-0.838533	0.023515	-64.897923	-167.121048
43127		17.141732	0.080826	16.113374	7.428888	0.856466	12.487225	-0.634361	-7.770590	-0.843601	-0.888672	0.124023	0.380615	0.164990	0.000628	0.167626	0.081094	-0.553837	-0.043273	-0.827536	-2.723015	-67.466902	-166.987926
43128		15.504258	-1.820345	16.796060	9.898611	3.360220	10.590391	-0.419085	-7.382381	-1.160987	-0.863770	0.124268	0.437988	0.148596	-0.018719	0.173565	0.073477	-0.583907	-0.047716	-0.807080	-1.605190	-71.719119	-168.435916
43129		13.295991	-3.360238	13.259139	7.784730	4.131748	7.100633	0.134657	-6.728190	-1.656287	-0.829346	0.104736	0.496094	0.128117	-0.034768	0.136933	0.060390	-0.595268	-0.036192	-0.800437	-2.768091	-73.200148	-169.314827
43130		8.623845	9.444079	24.726192	22.677565	-6.477162	4.972367	-0.245426	-5.434263	-2.387835	-0.812256	0.076172	0.530029	0.080603	0.093761	0.249388	0.049095	-0.616393	-0.043941	-0.784677	2.044628	-76.325385	-174.446539
43131		28.462592	8.654677	36.634976	27.872710	-5.365891	27.888799	-1.951516	-2.491528	-3.129873	-0.804443	0.047363	0.537109	0.281385	0.085718	0.369030	0.025505	-0.603879	-0.036650	-0.795824	5.865852	-74.372399	179.219368
43132		3.305769	-9.262365	24.169249	21.654760	11.198796	-0.511757	-2.083420	0.025937	-3.146494	-0.803223	0.011963	0.526855	0.031653	-0.090605	0.242639	0.006695	-0.603358	-0.037851	-0.796544	10.983949	-74.093117	172.661227
43133		-1.226827	-12.208650	17.054499	16.143863	12.742918	-5.523435	-0.912161	0.710390	-2.784374	-0.806885	-0.012451	0.511963	-0.013352	-0.121126	0.171145	-0.013965	-0.565470	-0.028387	-0.824162	9.892194	-68.636025	171.297011
43134		-2.767080	-11.899455	13.579568	13.591742	12.108205	-8.291773	-0.127358	0.954345	-1.823698	-0.808594	-0.028076	0.503418	-0.028105	-0.118653	0.136005	-0.021704	-0.561240	-0.033083	-0.826707	12.130607	-67.899535	168.808877
43135		-0.199561	-9.444414	13.009286	12.181146	8.946611	-4.330428	0.196823	1.196228	-0.550783	-0.824463	-0.026123	0.483398	-0.001478	-0.094568	0.130010	-0.033214	-0.518140	0.000114	-0.854650	4.226995	-62.333507	172.991498
43136		2.221441	-8.212744	13.040428	10.905466	7.879513	-1.975976	0.150024	1.702844	0.705134	-0.831543	-0.012939	0.463135	0.023613	-0.082144	0.130146	-0.029812	-0.510866	0.001017	-0.859143	3.437308	-61.386982	173.984481
43137		3.299989	-7.998644	12.490805	9.214844	6.689566	0.247610	0.258422	2.309184	1.593216	-0.848145	0.004639	0.429443	0.035075	-0.079874	0.124408	-0.032942	-0.460957	0.042739	-0.885780	-4.537519	-55.027688	178.104699
43138		3.462473	-6.502338	11.703248	7.981698	5.297370	0.159526	0.582230	2.919164	2.058145	-0.847168	0.038086	0.404297	0.036995	-0.064990	0.116315	-0.023104	-0.447609	0.044416	-0.892827	-5.624295	-53.257060	179.857001
43139		3.157875	-3.369922	10.994769	6.231571	1.427112	0.253370	0.824093	3.453373	2.244175	-0.868164	0.055664	0.366455	0.033848	-0.033779	0.109237	-0.022304	-0.392197	0.080249	-0.916103	-10.793457	-46.233511	-178.170663
43140		3.109962	-0.519774	10.363918	5.124530	-1.251938	-0.351770	0.776950	3.898051	2.271896	-0.878174	0.082031	0.325928	0.033170	-0.005230	0.102986	-0.011933	-0.373415	0.080690	-0.924071	-11.200511	-43.792654	-176.965915
43141		3.779282	0.957813	9.944333	3.019058	-3.128360	-0.057022	0.528885	4.282067	2.190188	-0.885498	0.093262	0.283447	0.039804	0.009745	0.098631	-0.010337	-0.316521	0.104410	-0.942765	-13.749492	-36.796103	-176.663445
43142		4.786607	1.328189	9.476069	1.460443	-3.471940	0.200583	0.278490	4.658358	2.015789	-0.902100	0.119629	0.240723	0.049920	0.013647	0.093633	-0.002824	-0.293425	0.106013	-0.950082	-13.932669	-33.928186	-176.071360
43143		5.510449	1.249151	8.859961	-0.638198	-3.517731	0.067645	0.127620	5.000189	1.783071	-0.905029	0.133057	0.185059	0.057182	0.012939	0.087195	-0.001349	-0.238306	0.118441	-0.963940	-14.856567	-27.370708	-176.523595
43144		6.176560	1.516300	8.341570	-1.995512	-3.734924	-0.217105	0.051518	5.270752	1.549062	-0.912354	0.146484	0.131592	0.063815	0.015631	0.081756	0.003057	-0.211899	0.119958	-0.969897	-14.867298	-24.224113	-176.431127
43145		6.828012	2.035387	8.129901	-3.698142	-4.264472	-0.594722	-0.030285	5.477435	1.351395	-0.910400	0.153320	0.080322	0.070332	0.020837	0.079388	0.005159	-0.161091	0.124050	-0.979099	-14.928869	-18.310657	-176.976885
43146		7.276184	2.343865	8.252943	-4.625052	-4.635352	-0.667239	-0.141706	5.621302	1.191568	-0.910889	0.162354	0.017822	0.074901	0.023938	0.080427	0.007389	-0.132774	0.125797	-0.983103	-14.958894	-15.022698	-177.155291
43147		8.125680	2.423099	8.716340	-6.197678	-4.826597	-0.532215	-0.235671	5.736117	1.037669	-0.904541	0.171631	-0.037842	0.083583	0.024762	0.084759	0.009893	-0.087492	0.125463	-0.988183	-14.678795	-9.813071	-177.585807
43148		9.089957	2.102284	9.105944	-7.653369	-4.648958	-0.340039	-0.283328	5.857920	0.861720	-0.902588	0.174072	-0.102295	0.093421	0.021548	0.088317	0.010348	-0.057987	0.127474	-0.990091	-14.787452	-6.441439	-177.965662
43149		9.487010	1.568556	9.462896	-8.770558	-4.152782	-0.443130	-0.268338	5.960866	0.694736	-0.887207	0.176758	-0.157959	0.097577	0.016146	0.091726	0.013563	-0.018509	0.123734	-0.992050	-14.249233	-1.912132	-178.194396
43150		9.998800	1.026722	10.121096	-9.864335	-3.763300	-0.224222	-0.213674	5.983602	0.594297	-0.855957	0.179688	-0.213623	0.102924	0.010676	0.098149	0.012783	0.011529	0.125199	-0.991982	-14.369805	1.494110	-178.711747
43151		10.884925	0.666462	11.114686	-11.440380	-3.586649	0.119236	-0.144644	5.988616	0.636838	-0.819824	0.178223	-0.262451	0.112089	0.007097	0.107818	0.017162	0.044812	0.119824	-0.991635	-13.717367	5.335440	-178.659250
43152		12.070830	0.493060	12.444542	-13.376616	-3.708463	0.581415	-0.098483	6.002305	0.774343	-0.784180	0.181396	-0.318359	0.124349	0.005467	0.120747	0.017419	0.075003	0.120599	-0.989711	-13.821822	8.781362	-179.049812
43153		13.584757	0.590657	14.082953	-15.681465	-4.179210	1.129539	-0.049349	6.050111	0.966319	-0.741699	0.182373	-0.351807	0.139993	0.006610	0.136634	0.024091	0.102670	0.114719	-0.987784	-13.100738	12.026234	-178.591790
43154		15.851292	1.076834	16.223025	-18.990130	-5.170020	1.505109	0.015666	6.153880	1.139881	-0.701172	0.183105	-0.380859	0.163338	0.011678	0.157254	0.026170	0.133665	0.114742	-0.984014	-13.132125	15.608447	-178.760741
43155		20.307119	1.850351	18.098000	-24.149817	-6.540438	1.008511	0.085788	6.385683	1.201103	-0.658447	0.177490	-0.407471	0.208594	0.019670	0.174386	0.034511	0.156515	0.108171	-0.981127	-12.253101	18.335974	-177.955792
43156		25.331891	3.496683	18.063369	-29.355348	-8.256368	-2.745506	0.077381	6.774102	1.150307	-0.626465	0.166992	-0.427490	0.259035	0.036378	0.171937	0.036409	0.190283	0.107996	-0.975092	-12.275525	22.268746	-178.148153
43157		29.326295	5.397574	16.411299	-32.352878	-10.193758	-7.095299	-0.197987	7.206982	0.912690	-0.597168	0.160889	-0.456299	0.298668	0.055486	0.153359	0.044691	0.208476	0.102821	-0.971580	-11.481329	24.474812	-177.230822
43158		29.531202	4.565628	12.336222	-31.060731	-8.321030	-13.071985	-0.613180	7.473391	0.483993	-0.570313	0.161621	-0.498535	0.299529	0.046733	0.112078	0.043808	0.244738	0.106891	-0.962683	-12.135822	28.722982	-177.907102
43159		28.312475	0.097754	5.618316	-27.470718	-2.739303	-18.218337	-0.754230	7.319477	-0.218171	-0.538330	0.148926	-0.525146	0.284928	0.000853	0.045773	0.048859	0.254774	0.105352	-0.960002	-11.814705	29.964387	-177.345124
43160		27.735002	-1.792816	-1.625031	-23.000228	1.375281	-25.429721	-0.492053	6.653478	-1.170975	-0.515625	0.138428	-0.553955	0.276495	-0.019604	-0.025412	0.040334	0.285822	0.110769	-0.951004	-13.009769	33.543576	-179.079102
43161		28.793001	4.005897	-8.719296	-19.477212	-2.430087	-32.955081	-0.867881	5.661926	-1.700100	-0.495117	0.129883	-0.582764	0.285630	0.037222	-0.095467	0.036141	0.283860	0.113411	-0.951449	-13.505214	33.254228	-179.699492
43162		30.416162	7.302670	-16.392789	-15.111929	-2.776424	-41.606230	-2.124230	4.566646	-1.514318	-0.470703	0.139404	-0.600830	0.300834	0.068945	-0.171570	0.029350	0.304242	0.126450	-0.943708	-15.750407	35.566988	178.482116
43163		31.585908	3.756220	-23.303297	-13.584239	2.945213	-46.709601	-3.192724	3.202026	-0.845497	-0.453369	0.155273	-0.607910	0.312213	0.032458	-0.238597	0.032174	0.290510	0.138849	-0.946197	-17.114069	33.965561	178.632867
43164		32.233365	-2.203608	-26.598683	-12.421016	10.680502	-48.321090	-2.998570	1.560983	-0.011465	-0.451660	0.168701	-0.608154	0.320245	-0.026064	-0.268121	0.035387	0.297363	0.153283	-0.941715	-19.026301	34.813731	178.289122
43165		23.622344	-12.761468	-25.916220	-9.006943	20.575999	-39.612247	-1.403372	-0.184867	0.511804	-0.449463	0.170898	-0.599365	0.236791	-0.128822	-0.258042	0.038585	0.270444	0.157426	-0.948993	-19.065578	31.698339	179.197581
43166		22.039545	-7.621248	-30.835057	-5.006965	16.940723	-44.199094	2.022165	-3.145598	0.218820	-0.485107	0.161133	-0.587891	0.225297	-0.072869	-0.305581	0.039358	0.256033	0.146901	-0.954630	-17.497828	30.026279	179.994836
43167		5.632688	13.922368	4.668377	-5.253969	-14.663331	-11.983679	1.242169	-4.748933	0.385164	-0.498291	0.154297	-0.558838	0.054916	0.139031	0.048863	0.034101	0.210848	0.142347	-0.966497	-16.675587	24.662796	-179.628699
43168		5.721916	-0.087340	28.229361	-15.984557	-8.068341	12.746771	0.714928	-3.973127	0.560139	-0.522949	0.156006	-0.538818	0.051601	-0.001735	0.283351	0.038874	0.192126	0.137595	-0.970899	-15.852407	22.567193	-178.596694
43169		1.030649	13.007154	9.020618	-2.229077	-15.003718	-5.173292	1.252600	-4.125079	-0.077478	-0.547607	0.153076	-0.507568	0.008482	0.129499	0.091206	0.036672	0.149552	0.130871	-0.979368	-14.918062	17.609704	-178.034771
43170		9.266233	14.778768	9.870981	-9.836701	-17.213449	-6.877527	-0.034118	-4.896901	-0.324520	-0.570068	0.154785	-0.485107	0.090449	0.147657	0.100917	0.038301	0.125310	0.130344	-0.982772	-14.780580	14.849885	-177.473126
43171		18.333986	4.172916	16.492329	-20.380056	-9.285167	1.317590	-0.052941	-4.527780	-0.782195	-0.585449	0.150146	-0.453857	0.179706	0.041066	0.169008	0.039282	0.081100	0.126749	-0.987833	-14.338763	9.798545	-176.681026
43172		16.151007	-2.731968	14.508483	-18.089003	-2.032131	2.328420	-0.116558	-4.028591	-0.686431	-0.596924	0.156494	-0.434082	0.158449	-0.027781	0.148313	0.038484	0.060727	0.126785	-0.989321	-14.376486	7.464731	-176.487485
43173		21.608543	-16.047842	14.977805	-23.613422	10.337949	7.047155	0.805451	-3.737220	-0.459317	-0.607666	0.145020	-0.411621	0.212875	-0.161582	0.153127	0.040322	0.019668	0.118099	-0.991988	-13.473440	2.782536	-175.673397
43174		20.650223	-5.452927	12.760277	-21.244853	0.799734	3.109152	1.665947	-2.681249	-0.192395	-0.612305	0.149414	-0.405029	0.204718	-0.055802	0.129894	0.040782	0.006588	0.109300	-0.993150	-12.510445	1.260645	-175.435304
43175		12.398243	6.513273	11.831314	-11.236433	-9.810815	0.845189	1.444057	-2.181475	-0.207241	-0.616699	0.144775	-0.398193	0.122746	0.064142	0.120122	0.040460	-0.027367	0.099490	-0.993839	-11.547684	-2.656332	-175.068764
43176		10.961450	6.954727	10.664761	-9.633809	-9.780355	-0.128451	0.825801	-1.752330	-0.265709	-0.616943	0.153809	-0.402832	0.108765	0.068959	0.107889	0.040123	-0.036040	0.094990	-0.994016	-11.077134	-3.670952	-175.021037
43177		9.018190	0.136248	8.784066	-7.774840	-2.495471	-0.229987	0.509811	-1.273193	-0.202124	-0.614990	0.162598	-0.405273	0.089621	0.001047	0.088415	0.041161	-0.064471	0.088390	-0.993145	-10.498435	-6.937251	-174.615285
43178		9.202392	-2.163851	10.046405	-7.839739	-0.410223	1.530381	0.591955	-0.882185	-0.157267	-0.614990	0.158203	-0.409668	0.091563	-0.022009	0.100804	0.040960	-0.068801	0.085216	-0.993140	-10.159489	-7.450975	-174.613301
43179		6.610669	-1.243685	9.814238	-4.740842	-0.911400	1.062062	0.514953	-0.471140	-0.191510	-0.619629	0.164795	-0.423096	0.065863	-0.012753	0.098265	0.041516	-0.091462	0.079017	-0.991800	-9.607807	-10.070681	-174.357558
43180		5.975260	0.196585	9.952428	-3.957815	-2.232533	0.871152	0.387477	-0.263504	-0.159219	-0.622070	0.169189	-0.431885	0.059623	0.001725	0.099606	0.041007	-0.092754	0.076967	-0.991863	-9.374109	-10.234988	-174.423693
43181		5.393303	-0.089938	9.591853	-3.072543	-1.743669	0.609330	0.233317	-0.144489	-0.161508	-0.626709	0.173584	-0.443115	0.053863	-0.001055	0.095956	0.041399	-0.111742	0.072439	-0.990228	-8.996982	-12.433294	-174.229980
43182		5.941620	0.034800	8.929366	-3.734325	-1.804728	0.078487	0.181835	-0.147414	-0.111985	-0.633789	0.177979	-0.449951	0.059351	0.000234	0.089338	0.040999	-0.112478	0.071445	-0.990234	-8.881632	-12.527104	-174.281478
43183		5.694061	0.869301	8.680103	-3.162709	-2.503797	-0.207978	0.093832	-0.123078	-0.056591	-0.640625	0.180176	-0.463135	0.056890	0.008636	0.086840	0.041761	-0.129422	0.067819	-0.988386	-8.605564	-14.487800	-174.065342
43184		6.030461	-0.332274	8.595831	-3.573101	-1.331810	-0.023694	0.037824	-0.166566	-0.052789	-0.647461	0.182129	-0.472168	0.060232	-0.003355	0.086008	0.041580	-0.130259	0.067563	-0.988301	-8.579785	-14.587137	-174.081534
43185		6.042885	0.029687	8.333787	-3.327501	-1.603577	-0.204067	0.056578	-0.193043	-0.055654	-0.656738	0.190918	-0.483398	0.060348	0.000256	0.083396	0.042255	-0.145904	0.064230	-0.986307	-8.333148	-16.402560	-173.890673
43186		5.965718	0.339946	8.188413	-3.258019	-1.879572	-0.399508	0.020778	-0.197071	-0.032149	-0.674805	0.195068	-0.492188	0.059577	0.003381	0.081943	0.042174	-0.146886	0.064061	-0.986175	-8.320632	-16.517451	-173.892658
43187		5.389154	0.509993	8.324396	-2.382261	-1.953715	-0.373067	-0.005218	-0.204116	-0.008225	-0.677246	0.195068	-0.498779	0.053807	0.005100	0.083299	0.042907	-0.161150	0.061206	-0.984095	-8.125725	-18.175024	-173.705097
43188		5.238485	-0.173934	8.573464	-2.184265	-1.289426	-0.089386	-0.035389	-0.198031	0.010890	-0.693115	0.199219	-0.496582	0.052300	-0.001721	0.085787	0.042992	-0.162133	0.061345	-0.983921	-8.153261	-18.287009	-173.681717
43189		4.346555	-0.367546	9.023366	-0.950419	-1.001037	0.114213	-0.032975	-0.203658	0.013355	-0.702148	0.203369	-0.507813	0.043374	-0.003658	0.090278	0.043659	-0.175024	0.058788	-0.981837	-7.985829	-19.788975	-173.512705
43190		4.490383	-0.244174	9.135762	-1.015972	-1.152062	0.253385	-0.033103	-0.221711	0.013274	-0.715576	0.200928	-0.503174	0.044803	-0.002424	0.091408	0.043760	-0.176121	0.058913	-0.981629	-8.013823	-19.914306	-173.485943
43191		5.684654	-0.180274	8.294981	-2.190948	-1.214527	-0.072096	-0.032837	-0.237662	-0.003366	-0.722412	0.205322	-0.505615	0.056748	-0.001790	0.083018	0.044184	-0.187837	0.056528	-0.979576	-7.855038	-21.284880	-173.356578
43192		5.528334	-0.239654	8.213088	-2.058056	-1.132576	-0.192066	-0.041243	-0.221074	-0.025557	-0.733643	0.202881	-0.496582	0.055192	-0.002387	0.082192	0.044081	-0.188941	0.056656	-0.979361	-7.879692	-21.412997	-173.353583
43193		5.284791	-0.368637	8.448499	-1.541303	-0.955624	-0.006915	-0.032011	-0.233219	-0.036357	-0.738281	0.207275	-0.505615	0.052749	-0.003682	0.084547	0.044182	-0.199618	0.054396	-0.977365	-7.720780	-22.668094	-173.273602
43194		5.334442	-0.432446	8.220640	-1.657525	-0.876426	-0.184258	-0.022047	-0.241277	-0.053017	-0.754150	0.211426	-0.498779	0.053244	-0.004330	0.082271	0.043966	-0.200822	0.054396	-0.977128	-7.728491	-22.809847	-173.286144
43195		4.651245	-0.383218	8.564560	-0.701398	-0.836018	-0.120334	-0.029783	-0.214774	-0.060407	-0.754150	0.211426	-0.500977	0.046419	-0.003833	0.085696	0.043795	-0.210463	0.052271	-0.975221	-7.569363	-23.948564	-173.249827
43196		4.963531	-0.255524	8.696997	-0.900470	-1.005394	0.112935	-0.019186	-0.212581	-0.051574	-0.768066	0.219971	-0.492432	0.049542	-0.002560	0.087023	0.043578	-0.211523	0.052263	-0.975001	-7.574353	-24.073921	-173.264381
43197		5.037162	-0.097372	8.475630	-0.876759	-1.108856	-0.054589	-0.031653	-0.198892	-0.029929	-0.772217	0.210938	-0.494385	0.050287	-0.000968	0.084806	0.043404	-0.220166	0.050326	-0.973196	-7.427530	-25.097579	-173.237166
43198		5.445074	0.083094	8.187743	-1.336635	-1.309673	-0.159036	-0.049853	-0.212271	-0.016816	-0.774658	0.215332	-0.485596	0.054364	0.000847	0.081935	0.043320	-0.221221	0.050503	-0.972951	-7.458893	-25.220192	-173.230378
43199		5.284519	-0.076148	8.459712	-0.924544	-1.118365	0.056107	-0.054346	-0.201194	-0.004980	-0.781250	0.212891	-0.485352	0.052760	-0.000740	0.084650	0.043091	-0.229113	0.048807	-0.971220	-7.331990	-26.156961	-173.213679
43200		4.374085	-0.206789	8.705902	0.008440	-0.913343	-0.110429	-0.041003	-0.175870	-0.012011	-0.783691	0.221924	-0.476807	0.043664	-0.002053	0.087098	0.043027	-0.229985	0.048953	-0.971009	-7.358340	-26.258587	-173.206997
43201		5.071308	-0.287187	8.124374	-0.746277	-0.829123	-0.296297	-0.049780	-0.199678	-0.037124	-0.792480	0.217285	-0.472168	0.050631	-0.002861	0.081295	0.042509	-0.236903	0.047380	-0.969446	-7.227013	-27.084324	-173.235698
43202		5.428358	-0.074560	8.228126	-0.981518	-1.084696	-0.064113	-0.036669	-0.200310	-0.066279	-0.786133	0.226074	-0.465820	0.054201	-0.000748	0.082336	0.042191	-0.237904	0.047435	-0.969212	-7.235980	-27.203805	-173.261874
43203		5.687031	-0.188935	7.735820	-1.333345	-0.929187	-0.348032	-0.028089	-0.210442	-0.095892	-0.795166	0.223877	-0.465576	0.056788	-0.001906	0.077418	0.041326	-0.243754	0.045951	-0.967866	-7.091429	-27.907442	-173.346044
43204		4.940049	-0.070169	8.426054	-0.322653	-1.014124	-0.103165	-0.040460	-0.200807	-0.122093	-0.794922	0.221436	-0.458984	0.049315	-0.000715	0.084310	0.040731	-0.244769	0.045955	-0.967635	-7.085141	-28.031126	-173.408651
43205		4.938331	-0.342016	8.595901	-0.160302	-0.724365	0.078883	-0.031285	-0.206203	-0.136068	-0.797363	0.223633	-0.452393	0.049292	-0.003440	0.086010	0.039614	-0.249524	0.044711	-0.966524	-6.947763	-28.607079	-173.532559
43206		4.844050	-0.283204	8.195713	-0.248632	-0.740605	-0.320355	-0.017092	-0.213917	-0.154217	-0.801758	0.225830	-0.447998	0.048351	-0.002862	0.082009	0.038894	-0.250603	0.044557	-0.966281	-6.917522	-28.740319	-173.615759
43207		4.345670	-0.654668	8.658925	0.467911	-0.324827	-0.119085	-0.006065	-0.218459	-0.188980	-0.799316	0.221436	-0.443359	0.043356	-0.006585	0.086637	0.037539	-0.254474	0.043378	-0.965377	-6.767867	-29.213817	-173.780618
43208		5.283284	-0.539813	8.309747	-0.486679	-0.493890	0.024768	0.005586	-0.297122	-0.216123	-0.806152	0.223389	-0.441162	0.052703	-0.005457	0.083176	0.036566	-0.255961	0.043018	-0.965037	-6.706686	-29.398334	-173.898833
43209		4.787696	-0.514772	8.288164	0.004946	-0.440018	-0.237359	0.035207	-0.358123	-0.264435	-0.806152	0.221191	-0.434570	0.047722	-0.005225	0.082966	0.034954	-0.259770	0.041740	-0.964135	-6.531814	-29.867001	-174.103526
43210		4.581797	-0.440489	9.129282	0.652301	-0.530012	0.376721	0.027275	-0.490071	-0.294446	-0.812744	0.221191	-0.425537	0.045588	-0.004485	0.091404	0.033671	-0.262196	0.041139	-0.963549	-6.437491	-30.165993	-174.260596
43211		4.581992	-0.232265	9.174653	0.798275	-0.678405	0.391478	0.033713	-0.644984	-0.294576	-0.814941	0.216553	-0.418701	0.045520	-0.002405	0.091893	0.049746	-0.267514	0.035012	-0.961632	-6.275080	-30.731505	-172.351349
43212		4.650357	-0.117583	9.266567	0.870406	-0.782308	0.489676	0.002570	-0.808877	-0.291679	-0.823975	0.216309	-0.409912	0.046127	-0.001244	0.092853	0.048487	-0.271459	0.034406	-0.960612	-6.203949	-31.211335	-172.486467
43213		5.070833	0.093192	9.044982	0.559829	-0.981899	0.495329	-0.039206	-1.054501	-0.263232	-0.828369	0.214111	-0.396484	0.050232	0.000883	0.090715	0.061481	-0.278080	0.029311	-0.958140	-6.113663	-31.956503	-170.905023
43214		5.667388	0.506645	8.677774	0.026499	-1.442979	0.463269	-0.080595	-1.328949	-0.227938	-0.836914	0.207275	-0.387451	0.056101	0.005037	0.087150	0.060469	-0.284506	0.028969	-0.956327	-6.128838	-32.728490	-170.962735
43215		4.972092	0.174113	9.105426	0.994201	-0.979022	0.468927	-0.122292	-1.601399	-0.168753	-0.843750	0.209229	-0.369629	0.048991	0.001755	0.091447	0.070841	-0.293278	0.024883	-0.953074	-6.143169	-33.745567	-169.633285
43216		5.292889	0.308609	9.107787	0.930887	-1.140369	0.622415	-0.104605	-1.904414	-0.088235	-0.863770	0.206543	-0.349609	0.052060	0.003111	0.091575	0.070500	-0.302396	0.024574	-0.950254	-6.248944	-34.836778	-169.551694
43217		5.018352	0.467905	9.279839	1.583406	-1.257363	0.551945	-0.156108	-2.194914	-0.008584	-0.863770	0.206543	-0.327393	0.049161	0.004750	0.093338	0.094722	-0.314790	0.021286	-0.944183	-7.105178	-36.185895	-166.218268
43218		4.565208	-0.010343	9.806144	2.419914	-0.660199	0.708897	-0.157319	-2.502122	0.017128	-0.881836	0.206055	-0.302734	0.044421	-0.000022	0.098622	0.094813	-0.326658	0.020867	-0.940143	-7.337766	-37.607882	-165.980823
43219		5.195481	-1.256979	9.753355	1.993699	0.493633	1.117713	-0.083862	-2.934001	-0.029289	-0.888184	0.201416	-0.276123	0.050515	-0.012536	0.098287	0.101376	-0.341095	0.018308	-0.934367	-7.679210	-39.323930	-164.868154
43220		4.598424	-1.573540	10.402386	3.142536	1.017439	1.183100	-0.014601	-3.467105	-0.161435	-0.903809	0.196533	-0.235840	0.044159	-0.015764	0.104801	0.100899	-0.357271	0.016338	-0.928391	-7.837212	-41.305724	-164.636720
43221		3.289089	-1.318691	12.031393	5.625643	1.216107	1.330173	0.177594	-4.028744	-0.284427	-0.921631	0.193848	-0.193604	0.030440	-0.013339	0.120932	0.100781	-0.376044	0.012597	-0.921019	-7.862894	-43.641818	-164.358300
43222		4.022776	-2.904775	11.676807	5.062979	2.750964	1.489363	0.146776	-4.800858	-0.406571	-0.930420	0.191406	-0.149170	0.037351	-0.029212	0.117666	0.099457	-0.398000	0.008732	-0.911936	-7.925815	-46.399423	-164.150323
43223		5.270998	-1.715480	11.107958	4.597189	1.495777	1.619721	0.366805	-5.648786	-0.664508	-0.945313	0.175293	-0.093262	0.049488	-0.017528	0.112476	0.096638	-0.423457	0.003017	-0.900742	-7.749581	-49.664537	-164.162232
43224		5.524855	-2.720527	13.277397	6.624987	2.839092	2.922631	0.274817	-6.457626	-0.848516	-0.954102	0.170654	-0.021973	0.050809	-0.027611	0.134425	0.093444	-0.452198	-0.003141	-0.887004	-7.607718	-53.397252	-164.142092
43225		6.498687	-2.071719	12.363889	6.269129	2.218418	2.640436	0.479059	-7.166326	-0.994743	-0.955811	0.159180	0.060303	0.060399	-0.021325	0.125808	0.087307	-0.483350	-0.009841	-0.871007	-7.197925	-57.535094	-164.596493
43226		11.619909	-0.617100	15.867561	7.884981	0.759217	8.194121	0.142371	-7.585303	-0.994536	-0.950439	0.143555	0.134033	0.110040	-0.006843	0.162923	0.082883	-0.515918	-0.016169	-0.852465	-7.072226	-61.919260	-164.647357
43227		12.093453	-0.390933	14.847013	8.113415	0.699503	7.517598	-0.118436	-7.682465	-1.207745	-0.943115	0.130127	0.211914	0.115089	-0.004526	0.152969	0.073753	-0.548080	-0.020427	-0.832918	-6.702436	-66.351516	-165.494855
43228		14.707655	0.397171	15.309183	8.979205	0.061961	9.422858	-0.520364	-7.443203	-1.333067	-0.926758	0.116943	0.278809	0.141270	0.003425	0.158413	0.065963	-0.578739	-0.024645	-0.812467	-6.298758	-70.676278	-166.248571
43229		16.883471	-0.193294	15.785775	10.064713	0.836820	10.973067	-0.538416	-7.193062	-1.489364	-0.903564	0.103760	0.347656	0.162996	-0.002726	0.163797	0.054424	-0.607377	-0.027262	-0.792078	-5.025533	-74.828644	-168.293378
43230		14.064819	-2.649240	14.238350	10.315386	3.616135	7.155363	-0.365365	-6.854806	-1.818539	-0.878418	0.090820	0.403320	0.135412	-0.027474	0.147135	0.045145	-0.633994	-0.033186	-0.771306	-1.786983	-78.813968	-171.832287
43231		6.630264	5.007008	17.671613	16.768137	-3.172979	-0.326314	-0.244569	-5.989516	-2.385885	-0.856934	0.062256	0.446045	0.061566	0.049534	0.178547	0.033675	-0.656131	-0.040849	-0.752788	7.272671	-82.140353	178.783003
43232		22.006592	12.517672	32.006859	30.173758	-8.901384	16.180450	-1.881354	-3.862905	-3.422173	-0.839600	0.022461	0.468994	0.215979	0.124488	0.323094	0.013822	-0.670045	-0.045632	-0.740787	26.624236	-83.711920	158.201924
43233		10.604206	-5.287474	27.528757	25.971302	7.837336	2.925638	-2.478967	-1.401222	-3.826909	-0.831299	-0.021729	0.472168	0.103113	-0.051443	0.276660	-0.010427	-0.673926	-0.048313	-0.737143	44.435633	-83.003316	138.640272
43234		2.525834	-13.238870	18.837211	17.973117	14.343064	-7.037319	-1.470723	-0.239908	-3.601179	-0.836670	-0.059570	0.466309	0.022659	-0.131422	0.189369	-0.028712	-0.673742	-0.055007	-0.736357	54.274577	-81.521262	127.862025
43235		1.236363	-13.923506	15.769329	15.220025	14.552658	-9.020985	-0.447210	0.405749	-2.709439	-0.827393	-0.068359	0.459961	0.010799	-0.139035	0.157981	-0.041010	-0.670836	-0.061619	-0.737903	57.673905	-80.053489	124.002413
43236		0.342335	-12.610663	13.543942	13.165590	13.006817	-10.085081	-0.003729	0.851643	-1.229401	-0.835938	-0.077393	0.444580	0.003225	-0.126124	0.135428	-0.045295	-0.667301	-0.065903	-0.740482	57.489426	-79.197625	124.187914
43237		0.770034	-11.514334	12.439666	11.979423	12.012879	-9.497978	0.081733	1.261107	0.348387	-0.845215	-0.070801	0.424561	0.008685	-0.115180	0.124297	-0.041701	-0.661991	-0.066288	-0.745410	53.315566	-78.925931	128.686066
43238		1.067774	-10.491524	11.633536	11.106116	11.059289	-8.871082	0.211267	1.679099	1.591569	-0.852783	-0.051025	0.406494	0.012488	-0.104943	0.116125	-0.034512	-0.656265	-0.062154	-0.751173	46.650995	-79.006302	135.599310
43239		1.438829	-8.207063	11.169787	10.497429	8.950001	-7.843901	0.466019	2.095106	2.350430	-0.867188	-0.026611	0.385986	0.016521	-0.082145	0.111341	-0.020849	-0.648291	-0.058109	-0.758885	37.041461	-78.972213	145.992014
43240		1.827754	-4.935820	10.928270	10.200354	5.791400	-6.725934	0.669320	2.523475	2.695605	-0.875244	0.004395	0.358643	0.020319	-0.049458	0.108869	-0.007716	-0.639461	-0.052166	-0.767013	26.958904	-78.563433	156.661377
43241		1.836263	-2.039521	10.506807	9.769216	3.004656	-6.145624	0.672122	2.954903	2.753838	-0.876221	0.028809	0.322510	0.020193	-0.020478	0.104710	0.009340	-0.627865	-0.048083	-0.776779	16.924470	-77.507319	167.757465
43242		2.182912	-0.290794	9.917564	9.108090	1.247619	-5.490207	0.540385	3.341142	2.628682	-0.892822	0.050781	0.284424	0.023520	-0.002873	0.098784	0.022045	-0.615358	-0.041764	-0.786832	9.165818	-75.979230	176.045292
43243		3.000835	0.281982	9.325905	8.205348	0.654531	-4.493836	0.387592	3.708057	2.391789	-0.900391	0.075195	0.248535	0.031695	0.003012	0.092688	0.035853	-0.600254	-0.036857	-0.798155	3.267212	-73.911431	-177.314361
43244		4.152570	0.241334	8.948086	7.296993	0.575796	-3.196088	0.326501	4.054657	2.127473	-0.910400	0.095215	0.205811	0.043300	0.002723	0.088619	0.046059	-0.584256	-0.031041	-0.809667	-0.645865	-71.616043	-173.022313
43245		5.168982	0.278818	8.627528	6.371910	0.393961	-2.037238	0.330781	4.392713	1.896809	-0.915527	0.110840	0.156738	0.053539	0.003149	0.085118	0.057658	-0.565714	-0.026973	-0.822141	-3.334163	-68.955795	-169.686685
43246		5.963334	0.417411	8.414900	5.551875	0.058920	-1.112122	0.352214	4.701376	1.736185	-0.913818	0.124268	0.112061	0.061551	0.004556	0.082725	0.066406	-0.546350	-0.022149	-0.834627	-5.058997	-66.196918	-167.602941
43247		6.982552	0.741606	8.572958	4.890477	-0.471136	0.118974	0.346439	4.992462	1.644154	-0.921143	0.137695	0.060791	0.071873	0.007855	0.083966	0.076391	-0.524614	-0.018105	-0.847713	-6.287055	-63.152212	-165.834799
43248		7.538772	1.057188	8.707370	4.310626	-1.006061	0.871200	0.303382	5.266663	1.594576	-0.915039	0.148926	0.009277	0.077559	0.011054	0.085067	0.084392	-0.502128	-0.013192	-0.860564	-7.139048	-60.049172	-164.668920
43249		7.746305	1.314003	8.858127	3.810212	-1.472452	1.299408	0.231781	5.488919	1.568632	-0.902100	0.165039	-0.055420	0.079749	0.013659	0.086429	0.092733	-0.477561	-0.008017	-0.873654	-7.808304	-56.713194	-163.663222
43250		7.808099	1.088330	8.769965	3.076534	-1.485946	1.472442	0.181818	5.639227	1.514225	-0.895996	0.174072	-0.111084	0.080427	0.011408	0.085464	0.099967	-0.452710	-0.002580	-0.886033	-8.286166	-53.393231	-162.953307
43251		7.903571	0.673209	9.003223	2.498600	-1.305622	1.848857	0.211756	5.681186	1.431315	-0.871582	0.179199	-0.169189	0.081500	0.007216	0.087748	0.106643	-0.426527	0.002864	-0.898161	-8.592114	-49.957671	-162.448838
43252		8.622836	0.295385	9.839931	1.963875	-1.235205	3.065068	0.295840	5.646798	1.355326	-0.851563	0.184082	-0.215820	0.088938	0.003407	0.095918	0.113233	-0.400820	0.007433	-0.909102	-8.737121	-46.642958	-162.027606
43253		9.799056	0.204320	11.088450	1.322796	-1.556591	4.842895	0.406189	5.629773	1.351139	-0.815918	0.191650	-0.271729	0.101044	0.002498	0.108073	0.119758	-0.374070	0.011714	-0.919561	-8.776489	-43.247833	-161.675021
43254		11.120885	0.499589	12.703682	0.738563	-2.316594	6.900164	0.468094	5.660007	1.372090	-0.782471	0.197021	-0.309814	0.114707	0.005483	0.123836	0.126558	-0.347536	0.015510	-0.928957	-8.759008	-39.923657	-161.297213
43255		12.426887	0.783163	14.492520	0.018446	-3.136947	9.032311	0.461433	5.746808	1.372745	-0.735840	0.206787	-0.354492	0.128308	0.008374	0.141296	0.133067	-0.319616	0.019548	-0.937953	-8.706428	-36.467585	-160.977534
43256		13.815342	1.775942	16.197840	-0.860864	-4.749926	10.995002	0.371090	5.823953	1.340107	-0.697510	0.200928	-0.379150	0.142670	0.018410	0.157901	0.139315	-0.291792	0.023813	-0.945982	-8.670633	-33.053694	-160.667288
43257		15.684473	2.842629	17.139363	-2.760541	-6.702259	12.439295	0.108068	5.833977	1.285691	-0.663574	0.199463	-0.401367	0.161568	0.029364	0.166742	0.144651	-0.263216	0.029311	-0.953380	-8.731411	-29.565037	-160.437049
43258		19.861735	3.555450	16.704524	-7.454120	-9.127316	13.577727	-0.275712	5.750154	1.214056	-0.629883	0.193604	-0.419189	0.203087	0.037003	0.161198	0.149169	-0.235723	0.036366	-0.959615	-8.984604	-26.203289	-160.233470
43259		27.340099	2.762341	15.857734	-15.710059	-11.216847	15.360086	-0.589054	5.760228	0.966712	-0.609375	0.187256	-0.436768	0.277675	0.029410	0.150535	0.151910	-0.207739	0.044567	-0.965288	-9.311246	-22.799998	-160.231639
43260		34.541162	1.666519	13.305375	-24.722876	-12.862880	14.596428	-0.707478	6.029262	0.422266	-0.586670	0.181152	-0.458984	0.349174	0.017846	0.122502	0.151799	-0.178996	0.052976	-0.970624	-9.589975	-19.353292	-160.583719
43261		37.551873	0.509033	6.995341	-31.373462	-12.557286	7.987546	-0.650934	6.458693	-0.346631	-0.563965	0.172852	-0.492188	0.377524	0.004638	0.057766	0.147763	-0.147936	0.060511	-0.976022	-9.678862	-15.717529	-161.443286
43262		34.347968	0.995469	-2.794647	-32.234783	-10.937199	-4.387156	-0.532671	6.570643	-1.197721	-0.541016	0.157715	-0.518799	0.342365	0.007807	-0.039231	0.139454	-0.116555	0.067042	-0.981057	-9.659587	-12.122048	-162.791488
43263		29.696646	3.943798	-12.731434	-29.828313	-10.612297	-17.352613	-0.779879	5.883801	-1.761790	-0.518311	0.151611	-0.549805	0.293377	0.036323	-0.136127	0.128472	-0.088989	0.073619	-0.984965	-9.786729	-8.997151	-164.365505
43264		27.183736	4.486162	-19.757044	-28.431176	-8.561406	-26.169639	-1.426323	4.529311	-1.731489	-0.500244	0.149902	-0.565430	0.267633	0.041093	-0.203966	0.117603	-0.068215	0.082757	-0.987253	-10.407690	-6.616715	-165.810468
43265		30.316584	2.107364	-22.975514	-32.119008	-5.526798	-29.537558	-1.870601	3.020069	-1.147981	-0.487061	0.152344	-0.581055	0.299755	0.017168	-0.234472	0.110281	-0.055453	0.092991	-0.987986	-11.347550	-5.109683	-166.753812
43266		33.969864	-2.061508	-24.672647	-36.454543	-1.213856	-30.704681	-1.678277	1.668060	-0.237565	-0.478271	0.163574	-0.583496	0.337600	-0.023102	-0.249361	0.107858	-0.048250	0.102127	-0.987729	-12.282264	-4.202757	-167.083804
43267		22.018936	-11.187801	-25.799995	-26.762569	10.679702	-30.915981	-0.534682	0.171967	0.595538	-0.482910	0.163574	-0.574463	0.220301	-0.111912	-0.257890	0.110884	-0.048374	0.104651	-0.987124	-12.586051	-4.145751	-166.724257
43268		16.693761	0.805234	-34.136796	-20.476025	1.558590	-41.793815	1.890713	-3.049858	0.740941	-0.507568	0.165283	-0.556641	0.172077	0.011894	-0.338670	0.116575	-0.061988	0.093789	-0.986799	-11.570264	-5.766395	-165.940581
43269		3.547510	10.784223	11.616728	0.979608	-13.069304	-0.219704	0.279101	-4.841991	1.012366	-0.525391	0.164795	-0.525635	0.032101	0.107847	0.117122	0.124171	-0.086434	0.089654	-0.984415	-11.547544	-8.505810	-164.760102
43270		4.420889	-1.580527	27.906736	1.290179	-3.731196	18.207652	0.873776	-3.865413	0.334230	-0.545654	0.162109	-0.509766	0.038834	-0.016959	0.279780	0.127901	-0.104756	0.083079	-0.982734	-11.151916	-10.640313	-164.127726
43271		1.308415	14.081133	7.313315	3.867165	-14.707887	-5.102181	1.147123	-4.169462	-0.516322	-0.565674	0.157227	-0.478516	0.011907	0.140356	0.074196	0.127977	-0.125846	0.074145	-0.980962	-10.514259	-13.174842	-163.916662
43272		12.074145	7.181864	10.987433	-6.399334	-11.295075	2.414597	0.077814	-4.923855	-0.612357	-0.587891	0.154541	-0.449463	0.118207	0.071411	0.112833	0.126808	-0.150140	0.070202	-0.977982	-10.513769	-16.013477	-163.741197
43273		24.004791	-0.255678	18.643636	-15.842421	-7.862479	14.904392	0.371982	-4.252231	-0.858551	-0.598877	0.147461	-0.429443	0.235998	-0.003929	0.191476	0.124697	-0.172088	0.064490	-0.975027	-10.253708	-18.632512	-163.737396
43274		20.904881	-11.625167	13.528113	-16.500517	4.725675	11.646632	1.262652	-3.493234	-0.902404	-0.607666	0.140625	-0.415771	0.206122	-0.118052	0.138157	0.122487	-0.188596	0.055367	-0.972812	-9.470505	-20.693822	-163.914317
43275		18.153437	-5.760322	13.981007	-11.966296	0.223901	10.556721	1.880914	-2.873122	-0.622883	-0.607178	0.131592	-0.406738	0.179323	-0.059492	0.141843	0.122378	-0.202832	0.043328	-0.970570	-8.325579	-22.527066	-163.966173
43276		15.415478	6.383651	13.483310	-6.656202	-10.392875	7.732714	1.694305	-2.168454	-0.476688	-0.620850	0.133545	-0.400146	0.152827	0.062317	0.137027	0.122240	-0.212409	0.033289	-0.968933	-7.311147	-23.796011	-164.076710
43277		13.792051	9.669827	10.965836	-5.239843	-12.847502	4.728663	0.878716	-1.488770	-0.624913	-0.614014	0.133789	-0.402344	0.137397	0.095782	0.111105	0.120790	-0.220511	0.026866	-0.967503	-6.660962	-24.847165	-164.298220
43278		8.436233	-0.735492	8.739209	-3.703608	-1.292514	1.706673	0.536777	-0.935670	-0.530640	-0.616455	0.138184	-0.406982	0.083932	-0.007813	0.087765	0.118938	-0.224788	0.023116	-0.966845	-6.239738	-25.415011	-164.565491
43279		10.768693	-0.307710	9.924278	-5.014568	-2.131798	3.783593	0.619252	-0.514418	-0.417686	-0.611816	0.135986	-0.417969	0.107424	-0.003609	0.099509	0.118098	-0.228293	0.018667	-0.966223	-5.741592	-25.897006	-164.741789
43280		6.071538	0.762841	9.843547	-0.718168	-1.969367	1.586714	0.427633	-0.097492	-0.408775	-0.614502	0.145020	-0.433594	0.060683	0.007294	0.098481	0.116619	-0.228557	0.016074	-0.966387	-5.385601	-25.976356	-164.995110
43281		4.630064	-0.922049	9.596925	0.076368	0.069481	0.882069	0.294475	0.011673	-0.355385	-0.623291	0.140381	-0.446777	0.046290	-0.009444	0.095953	0.115664	-0.229682	0.013567	-0.966273	-5.071528	-26.150675	-165.169567
43282		5.408306	-0.335713	9.342141	-0.595794	-0.646181	0.951393	0.230131	0.038250	-0.313694	-0.630615	0.151367	-0.458252	0.054095	-0.003549	0.093407	0.114409	-0.229394	0.012114	-0.966510	-4.850574	-26.145496	-165.371305
43283		5.839178	0.237024	8.918396	-1.019160	-1.269330	0.724865	0.135043	0.039493	-0.260454	-0.635010	0.153564	-0.471436	0.058412	0.002234	0.089174	0.113716	-0.230419	0.010519	-0.966367	-4.653458	-26.291982	-165.489883
43284		5.835114	0.859601	8.422015	-1.112875	-1.870075	0.236298	0.083262	0.031338	-0.168559	-0.644287	0.157959	-0.480469	0.058372	0.008512	0.084215	0.112994	-0.230238	0.009937	-0.966501	-4.557202	-26.283015	-165.599032
43285		5.479066	0.063161	8.697365	-0.829370	-0.979028	0.386428	0.052449	-0.016259	-0.132338	-0.648926	0.160156	-0.496094	0.054784	0.000573	0.086978	0.112823	-0.231542	0.008855	-0.966220	-4.443122	-26.451654	-165.635022
43286		5.479937	-0.289045	8.528002	-0.980090	-0.629832	0.261180	0.059888	-0.058455	-0.112498	-0.660400	0.166504	-0.500488	0.054773	-0.002947	0.085295	0.112350	-0.231806	0.008399	-0.966216	-4.377778	-26.491243	-165.704128
43287		4.788313	0.479347	8.690509	-0.114318	-1.195735	0.048337	0.052885	-0.074811	-0.085686	-0.673828	0.164063	-0.507080	0.047853	0.004750	0.086924	0.112397	-0.233360	0.007345	-0.965845	-4.277879	-26.687723	-165.709319
43288		5.641118	0.516593	8.512371	-0.917882	-1.418642	0.271680	0.022337	-0.104937	-0.043658	-0.682861	0.166016	-0.513672	0.056368	0.005144	0.085154	0.112214	-0.233866	0.007124	-0.965745	-4.254439	-26.750845	-165.732446
43289		5.612756	0.598879	8.378328	-0.901867	-1.479320	0.140016	0.030553	-0.118391	-0.016281	-0.698486	0.163574	-0.515869	0.056078	0.005971	0.083817	0.112564	-0.235611	0.006234	-0.965287	-4.187231	-26.965907	-165.692961
43290		5.100250	-0.156223	8.556781	-0.528949	-0.618099	0.116744	0.013944	-0.109402	-0.014470	-0.705566	0.170166	-0.520508	0.050956	-0.001572	0.085596	0.112512	-0.236142	0.006084	-0.965164	-4.176996	-27.030393	-165.697334
43291		5.301112	-0.315914	8.544140	-0.710728	-0.489421	0.210249	0.036275	-0.078519	-0.028287	-0.709961	0.169922	-0.518066	0.052977	-0.003182	0.085462	0.112801	-0.237667	0.005178	-0.964761	-4.101872	-27.220447	-165.668881
43292		4.893624	-0.024066	8.558921	-0.284606	-0.675894	0.019170	0.063479	-0.055888	-0.048745	-0.725830	0.174072	-0.527100	0.048912	-0.000280	0.085603	0.112640	-0.237913	0.004778	-0.964721	-4.051945	-27.255803	-165.697894
43293		5.235334	0.070415	8.404876	-0.604264	-0.827528	0.036458	0.085502	-0.040413	-0.067003	-0.727783	0.167480	-0.524658	0.052337	0.000651	0.084060	0.112791	-0.239201	0.003619	-0.964390	-3.936692	-27.422585	-165.697598
43294		5.619001	-0.073184	8.213220	-1.052807	-0.769417	0.053168	0.079507	-0.024186	-0.077187	-0.730225	0.167480	-0.522461	0.056180	-0.000786	0.082139	0.112512	-0.239286	0.003125	-0.964403	-3.868310	-27.440913	-165.746508
43295		5.243276	0.327023	8.413532	-0.528911	-1.044602	0.036956	0.083887	-0.011574	-0.071770	-0.743896	0.173828	-0.524658	0.052429	0.003216	0.084140	0.112632	-0.240417	0.001989	-0.964111	-3.751776	-27.589186	-165.751777
43296		5.031027	0.315087	8.575359	-0.275373	-0.968301	0.083466	0.076591	-0.003589	-0.060947	-0.752930	0.175781	-0.524658	0.050310	0.003103	0.085756	0.112428	-0.240404	0.001540	-0.964139	-3.689310	-27.595057	-165.791225
43297		4.673479	0.224633	8.762253	0.123246	-0.770155	0.089868	0.073011	0.013927	-0.051798	-0.754883	0.171387	-0.522461	0.046741	0.002202	0.087620	0.115708	-0.241396	-0.000276	-0.963504	-3.583692	-27.725441	-165.419554
43298		4.604810	0.067435	8.692041	0.111589	-0.597854	0.005180	0.061744	0.009597	-0.053520	-0.766357	0.173340	-0.522461	0.046052	0.000635	0.086918	0.115522	-0.241327	-0.000638	-0.963543	-3.531582	-27.723471	-165.454815
43299		4.732010	0.271058	8.483082	-0.028008	-0.815904	-0.129631	0.063293	0.007596	-0.070519	-0.761963	0.177979	-0.518066	0.047324	0.002667	0.084830	0.117394	-0.242318	-0.002110	-0.963066	-3.425635	-27.854765	-165.250611
43300		4.613302	0.046019	8.647517	0.097463	-0.551471	-0.027464	0.059197	-0.012740	-0.086982	-0.770752	0.175537	-0.513428	0.046128	0.000415	0.086478	0.117044	-0.242357	-0.002513	-0.963098	-3.365151	-27.866681	-165.306716
43301		4.570448	-0.069366	8.519145	0.069860	-0.414208	-0.153848	0.064198	-0.034287	-0.123716	-0.764160	0.175537	-0.509033	0.045689	-0.000749	0.085199	0.119176	-0.243515	-0.004211	-0.962538	-3.242713	-28.020602	-165.074494
43302		4.486619	0.087504	8.492201	0.167303	-0.538134	-0.224293	0.037353	-0.059089	-0.140935	-0.770752	0.175537	-0.506836	0.044842	0.000828	0.084935	0.118539	-0.243788	-0.004604	-0.962546	-3.178854	-28.060665	-165.164034
43303		4.488762	0.382487	8.774136	0.392810	-0.782159	0.011501	0.008700	-0.071649	-0.145161	-0.770996	0.177734	-0.504639	0.044859	0.003788	0.087758	0.120267	-0.245126	-0.006028	-0.961984	-3.081676	-28.233339	-164.972569
43304		4.934026	0.560258	8.244905	-0.186221	-1.085258	-0.251072	-0.003280	-0.115512	-0.126591	-0.777588	0.177490	-0.502441	0.049296	0.005573	0.082477	0.119648	-0.245694	-0.006243	-0.961915	-3.045955	-28.305102	-165.051152
43305		4.759237	0.823232	8.497919	0.177806	-1.262893	-0.121653	-0.034892	-0.117072	-0.116383	-0.784668	0.184082	-0.498047	0.047547	0.008219	0.085006	0.121634	-0.247245	-0.007508	-0.961259	-2.981659	-28.500072	-164.819312
43306		4.119664	-0.090297	8.974209	0.742071	-0.189774	0.032591	-0.050663	-0.168705	-0.078334	-0.780029	0.181885	-0.493652	0.041121	-0.000896	0.089777	0.121185	-0.248099	-0.007470	-0.961096	-2.988454	-28.600796	-164.864991
43307		3.856649	-0.105429	9.027177	1.024441	-0.087870	-0.049617	-0.054593	-0.228507	-0.092255	-0.784424	0.181885	-0.487061	0.038463	-0.001047	0.090316	0.123713	-0.250161	-0.008811	-0.960228	-2.943430	-28.855516	-164.559856
43308		3.820886	0.335919	8.891260	1.120501	-0.512317	-0.208081	-0.055849	-0.279099	-0.139250	-0.789063	0.181641	-0.478027	0.038087	0.003357	0.088965	0.122959	-0.251544	-0.008897	-0.959962	-2.935293	-29.021225	-164.641936
43309		4.421992	-0.162148	8.851096	0.523094	-0.146511	0.067950	-0.043732	-0.375840	-0.171501	-0.788818	0.179443	-0.473633	0.044052	-0.001640	0.088594	0.124407	-0.254263	-0.010310	-0.959045	-2.860002	-29.357992	-164.468426
43310		4.525386	0.225649	8.648736	0.472956	-0.548270	-0.075840	-0.045310	-0.489468	-0.200501	-0.793457	0.179443	-0.469238	0.045044	0.002231	0.086597	0.123359	-0.256643	-0.010659	-0.958542	-2.828268	-29.645765	-164.584693
43311		4.402309	0.434019	9.038703	0.887922	-0.657393	0.189609	-0.055837	-0.649919	-0.206765	-0.800049	0.179199	-0.468994	0.043734	0.004320	0.090528	0.122550	-0.260667	-0.011691	-0.957548	-2.750443	-30.136837	-164.672876
43312		4.630473	0.623458	8.996883	0.793597	-0.874995	0.255972	-0.066065	-0.840455	-0.204768	-0.806641	0.176758	-0.451172	0.045932	0.006217	0.090160	0.121430	-0.264733	-0.012164	-0.956569	-2.732409	-30.625473	-164.782470
43313		4.688296	0.282899	9.188149	0.868573	-0.501548	0.457432	-0.072782	-1.023351	-0.183837	-0.809082	0.181152	-0.444580	0.046415	0.002820	0.092119	0.120665	-0.270509	-0.013318	-0.955033	-2.673387	-31.325819	-164.848353
43314		5.020126	0.699364	8.914518	0.665032	-0.975094	0.373824	-0.084245	-1.239736	-0.183397	-0.820068	0.172119	-0.426758	0.049654	0.006986	0.089451	0.119587	-0.276479	-0.013919	-0.953449	-2.676603	-32.042352	-164.933219
43315		5.260211	0.098858	8.858994	0.448995	-0.403380	0.472989	-0.100915	-1.475917	-0.146718	-0.824463	0.171875	-0.415527	0.051947	0.000995	0.088974	0.118900	-0.284376	-0.015166	-0.951190	-2.649720	-32.997241	-164.964897
43316		4.846247	0.697147	9.161610	1.246518	-0.828660	0.466621	-0.084658	-1.693821	-0.085073	-0.840088	0.167236	-0.397705	0.047687	0.006990	0.092019	0.118239	-0.292483	-0.015899	-0.948800	-2.695176	-33.971086	-164.969524
43317		4.715618	0.258150	9.228974	1.483357	-0.314426	0.442805	-0.111059	-1.926892	-0.046091	-0.846680	0.169189	-0.377686	0.046265	0.002622	0.092737	0.117936	-0.302456	-0.017224	-0.945682	-2.718375	-35.177917	-164.920768
43318		4.810132	0.671925	9.019338	1.588861	-0.716052	0.281676	-0.075870	-2.127418	0.000225	-0.862549	0.171143	-0.355469	0.047138	0.006754	0.090696	0.117629	-0.312560	-0.018126	-0.942412	-2.803439	-36.397611	-164.848762
43319		5.174341	0.245194	9.531340	1.748367	-0.258494	0.890184	-0.038791	-2.323853	0.036967	-0.869141	0.166504	-0.339844	0.050631	0.002480	0.095906	0.117736	-0.324253	-0.019898	-0.938404	-2.830620	-37.824586	-164.727610
43320		5.538122	-0.283091	9.003053	1.280434	0.178509	0.681523	0.007952	-2.550896	0.004924	-0.880127	0.161621	-0.308594	0.054227	-0.002833	0.090727	0.117505	-0.336208	-0.021436	-0.934182	-2.885505	-39.286431	-164.631383
43321		6.021065	-0.970893	9.367376	1.283127	0.884878	1.255532	0.166296	-2.898602	-0.041471	-0.893555	0.161377	-0.277344	0.058843	-0.009800	0.094525	0.117452	-0.350299	-0.024622	-0.928918	-2.777009	-41.039773	-164.548026
43322		4.502426	-0.571575	10.438213	3.494323	1.045195	0.968789	0.231189	-3.309528	-0.119369	-0.908936	0.156494	-0.246094	0.043286	-0.005863	0.105101	0.116875	-0.365489	-0.027854	-0.923029	-2.663066	-42.939397	-164.519493
43323		4.712950	-1.521988	11.286827	4.070793	2.193806	1.611799	0.330476	-3.751240	-0.194383	-0.926514	0.145020	-0.203613	0.044987	-0.015452	0.113700	0.116188	-0.383139	-0.032534	-0.915776	-2.394027	-45.177929	-164.542435
43324		5.176485	-1.406644	10.427814	3.609070	2.031323	1.157306	0.418182	-4.318792	-0.342042	-0.937744	0.148926	-0.156982	0.049473	-0.014372	0.105333	0.114690	-0.402541	-0.037614	-0.907410	-2.048268	-47.660488	-164.688094
43325		5.600824	-1.681988	10.686263	3.947496	2.474498	1.441576	0.521455	-4.909870	-0.519784	-0.950684	0.137451	-0.101074	0.053319	-0.017242	0.108149	0.111316	-0.424867	-0.044172	-0.897299	-1.381789	-50.560808	-165.203778
43326		5.230670	-0.822746	11.810572	5.775046	2.133030	1.570701	0.605731	-5.535445	-0.678865	-0.961426	0.128174	-0.043213	0.048983	-0.008758	0.119466	0.108288	-0.449062	-0.051403	-0.885424	-0.603386	-53.741048	-165.748947
43327		6.799331	-1.214371	11.708868	5.368950	2.548252	2.411159	0.507819	-6.257703	-0.773376	-0.958496	0.114746	0.025879	0.064239	-0.012698	0.119106	0.102967	-0.476540	-0.058887	-0.871114	0.474107	-57.391078	-166.777136
43328		9.428407	-0.628447	14.279230	7.083056	2.508867	5.569334	0.494357	-6.812375	-0.818586	-0.967529	0.114502	0.096924	0.089322	-0.007015	0.145875	0.098510	-0.505446	-0.066472	-0.854635	1.674107	-61.287346	-167.841393
43329		7.678465	-0.834193	12.461386	7.230085	2.839235	2.617764	0.216967	-6.996881	-1.001205	-0.948730	0.101318	0.172607	0.072321	-0.008849	0.127187	0.090845	-0.534959	-0.073239	-0.836781	3.482725	-65.311702	-169.840399
43330		16.158727	-0.784613	14.918831	7.025382	3.125948	10.801767	0.248841	-7.088307	-1.209327	-0.939209	0.085693	0.237305	0.156115	-0.008992	0.154776	0.083794	-0.563724	-0.080695	-0.817730	6.091315	-69.304413	-172.510850
43331		12.381462	-1.289611	13.716118	8.376314	4.009871	6.209402	0.254269	-7.017855	-1.461150	-0.916016	0.072510	0.310791	0.118803	-0.013954	0.141372	0.074094	-0.591626	-0.088444	-0.797914	10.650760	-73.184083	-177.307330
43332		15.462422	1.316346	14.793877	10.191490	2.149565	8.922650	0.265618	-6.763025	-1.523017	-0.893066	0.061768	0.368652	0.149599	0.011810	0.153071	0.065766	-0.617490	-0.096469	-0.777866	17.469756	-76.739424	175.794079
43333		12.710971	-1.087984	14.053392	10.634361	4.726499	5.176993	0.310751	-6.368681	-1.848406	-0.867676	0.048828	0.419678	0.122442	-0.012248	0.144465	0.054954	-0.641081	-0.104976	-0.758271	29.634770	-79.661338	163.405193
43334		11.205218	11.134305	26.788735	26.553894	-4.000975	5.869339	-0.399725	-4.997315	-2.229817	-0.855713	0.026611	0.451416	0.106553	0.110673	0.270374	0.042573	-0.658738	-0.111951	-0.742778	45.832867	-81.161025	146.750595
43335		19.640168	5.231511	31.717529	29.534328	3.611169	13.290207	-1.964651	-2.499513	-3.095056	-0.844971	-0.015381	0.465576	0.193232	0.052437	0.319089	0.022402	-0.666421	-0.115232	-0.736276	58.642188	-80.575725	132.565796
43336		1.264605	-10.941555	21.190661	18.666022	14.839984	-8.517096	-1.798979	-0.905907	-3.104272	-0.839355	-0.046387	0.459473	0.010003	-0.107672	0.212930	0.004451	-0.668070	-0.119045	-0.734501	64.930368	-79.251499	125.133426
43337		2.222522	-13.160456	18.052113	15.367222	16.321072	-8.599485	-0.731456	-0.344104	-2.625265	-0.834229	-0.061768	0.457520	0.020190	-0.131217	0.181037	-0.008247	-0.667305	-0.125003	-0.734173	68.113898	-77.897214	121.410663
43338		1.545741	-11.496752	16.102145	13.881820	14.174268	-9.335527	-0.240003	0.329271	-1.501034	-0.840820	-0.070801	0.444580	0.014860	-0.114887	0.161135	-0.014356	-0.665143	-0.129150	-0.735322	68.625652	-77.028296	120.746289
43339		0.691279	-10.277944	14.617324	12.737332	12.549994	-10.004869	-0.224707	0.888188	-0.141060	-0.845459	-0.064209	0.428711	0.007490	-0.102620	0.146256	-0.015282	-0.661198	-0.128483	-0.738970	66.210235	-76.725987	123.034175
43340		0.209721	-10.137774	13.049637	11.275923	12.067503	-10.390461	-0.192113	1.337767	1.029111	-0.852539	-0.057617	0.415283	0.003492	-0.101237	0.130573	-0.011259	-0.656892	-0.124478	-0.743553	62.065708	-76.922627	127.178339
43341		0.488351	-8.500144	12.176260	10.590999	10.416122	-9.536687	0.039706	1.739253	1.822581	-0.862305	-0.035400	0.385986	0.006716	-0.084970	0.121693	-0.003428	-0.650817	-0.118134	-0.749980	55.475842	-77.262254	133.886794
43342		1.101920	-5.350524	11.845697	10.561642	7.449286	-8.048925	0.246214	2.140097	2.288135	-0.878906	-0.018066	0.367920	0.012898	-0.053511	0.118260	0.007214	-0.644082	-0.111643	-0.756731	47.681330	-77.528813	142.018413
43343		1.607871	-2.674009	11.470715	10.419391	4.863608	-6.798826	0.275327	2.573766	2.496666	-0.879883	0.010986	0.334229	0.017886	-0.026682	0.114448	0.018772	-0.634807	-0.103756	-0.765443	38.046473	-77.346355	151.955292
43344		1.901442	-0.970121	10.833981	9.901720	3.121632	-6.053346	0.201492	2.991203	2.501065	-0.896729	0.037354	0.302490	0.020752	-0.009558	0.108028	0.030527	-0.624531	-0.096298	-0.774439	28.869068	-76.705786	161.491050
43345		2.273286	-0.198702	10.078222	9.079741	2.215130	-5.405997	0.140483	3.361370	2.350994	-0.904053	0.052979	0.264404	0.024444	-0.001777	0.100380	0.041439	-0.611533	-0.088139	-0.785202	20.351001	-75.388387	170.249581
43346		3.080752	0.230936	9.574902	8.304975	1.684107	-4.390248	0.118471	3.693888	2.127361	-0.902832	0.072998	0.228516	0.032542	0.002593	0.095160	0.051768	-0.597819	-0.081324	-0.795813	13.945483	-73.724418	176.964924
43347		4.047264	0.633818	9.148732	7.471422	1.122154	-3.225805	0.108323	3.998363	1.915959	-0.914795	0.093018	0.179199	0.042228	0.006688	0.090658	0.061050	-0.581416	-0.074146	-0.807918	8.867017	-71.536459	-177.751046
43348		5.050493	0.744371	9.023460	6.781333	0.864213	-2.019419	0.092695	4.283206	1.762542	-0.917480	0.104248	0.143555	0.052354	0.007858	0.089130	0.070007	-0.564598	-0.068080	-0.819569	5.263969	-69.225848	-173.869807
43349		6.107445	0.886834	8.905256	5.958817	0.493342	-0.778298	0.060395	4.545683	1.679405	-0.927246	0.124023	0.092041	0.063000	0.009365	0.087638	0.078272	-0.545137	-0.061176	-0.832440	2.374920	-66.515009	-170.814527
43350		6.688160	0.823875	8.850383	5.263387	0.326892	-0.019532	0.036240	4.791098	1.639641	-0.928223	0.142090	0.040771	0.068905	0.008782	0.086871	0.086631	-0.525523	-0.054974	-0.844570	0.234137	-63.793348	-168.432531
43351		7.073567	0.842563	9.136758	4.863315	0.100963	0.700925	0.034009	4.974665	1.613836	-0.917480	0.155762	-0.008545	0.072908	0.008993	0.089573	0.094525	-0.503444	-0.047950	-0.857502	-1.517582	-60.747389	-166.529529
43352		7.672245	0.833292	9.330621	4.233862	-0.151789	1.529168	0.057474	5.118064	1.577430	-0.906738	0.164795	-0.057617	0.079007	0.008924	0.091306	0.102622	-0.481686	-0.041800	-0.869310	-2.815807	-57.784454	-164.980675
43353		8.132889	0.595484	9.658598	3.618791	-0.195208	2.295856	0.109941	5.216101	1.523237	-0.898438	0.178467	-0.117920	0.083762	0.006534	0.094426	0.110182	-0.457690	-0.035224	-0.881555	-3.832217	-54.559643	-163.774768
43354		8.890699	0.265496	10.391834	3.088470	-0.141771	3.510326	0.208442	5.266302	1.463705	-0.887695	0.189941	-0.166992	0.091580	0.003212	0.101533	0.117992	-0.434464	-0.029888	-0.892427	-4.530323	-51.490773	-162.751027
43355		10.032866	0.125514	11.372089	2.381449	-0.374251	5.158352	0.333620	5.328933	1.445974	-0.865723	0.199463	-0.225098	0.103299	0.001808	0.110997	0.125516	-0.409064	-0.024453	-0.903501	-5.034008	-48.186413	-161.929760
43356		11.019550	0.276331	12.517853	1.840087	-0.873926	6.739813	0.433800	5.424276	1.450549	-0.836670	0.204590	-0.280762	0.113513	0.003312	0.122136	0.133564	-0.384317	-0.020041	-0.913268	-5.361916	-45.017565	-161.135805
43357		12.375094	0.610918	13.902599	1.025096	-1.695713	8.701719	0.471211	5.562883	1.447347	-0.799072	0.216553	-0.321289	0.127506	0.006701	0.135529	0.141154	-0.357069	-0.015138	-0.923227	-5.588503	-41.573819	-160.491650
43358		13.931721	0.941623	15.221762	-0.144340	-2.645029	10.670193	0.454413	5.749774	1.397887	-0.758789	0.221924	-0.359131	0.143547	0.010070	0.148153	0.148786	-0.330170	-0.010684	-0.932060	-5.722082	-38.218004	-159.876711
43359		15.133924	1.854446	16.389338	-1.277219	-4.195866	12.135098	0.357359	5.942063	1.293739	-0.713623	0.216309	-0.396973	0.155996	0.019256	0.159338	0.155222	-0.300602	-0.005344	-0.941019	-5.803467	-34.569339	-159.459434
43360		17.104053	2.640641	17.191734	-3.367992	-5.957895	13.597976	0.139376	6.088914	1.119180	-0.671143	0.214844	-0.423828	0.176017	0.027265	0.166627	0.160781	-0.271745	0.000402	-0.948843	-5.904535	-31.034799	-159.124532
43361		22.079679	3.317511	17.047958	-8.687790	-8.746963	15.424381	-0.214503	6.251253	0.860729	-0.635010	0.208984	-0.446045	0.225833	0.034318	0.163436	0.164083	-0.240646	0.007910	-0.956610	-6.076178	-27.246096	-159.060187
43362		26.803708	2.974712	15.984990	-14.726642	-10.630349	15.732836	-0.661127	6.547377	0.442268	-0.598633	0.198730	-0.470459	0.273007	0.030856	0.150865	0.165050	-0.209739	0.016963	-0.963577	-6.380740	-23.490639	-159.232374
43363		29.392704	2.333159	12.495513	-20.182832	-11.519256	12.211359	-1.132965	6.891217	-0.123665	-0.569092	0.190430	-0.490479	0.298010	0.023817	0.114598	0.162300	-0.176092	0.028067	-0.970496	-6.798678	-19.431663	-159.846728
43364		29.219304	2.928281	6.258563	-23.344192	-12.262131	4.533715	-1.611299	6.986618	-0.688477	-0.548828	0.184326	-0.525879	0.294235	0.028720	0.052096	0.156452	-0.143495	0.040921	-0.976349	-7.442066	-15.509514	-160.777611
43365		26.673940	2.924710	-2.682522	-24.435138	-10.907693	-6.508643	-2.100563	6.485841	-1.045906	-0.521973	0.187012	-0.543945	0.265823	0.027511	-0.035752	0.148314	-0.112724	0.055387	-0.980933	-8.347279	-11.813089	-161.939257
43366		27.044088	3.412773	-8.673078	-26.321658	-10.403137	-13.929469	-2.510210	5.534985	-1.196852	-0.499512	0.187500	-0.570557	0.268089	0.031364	-0.094578	0.139422	-0.087728	0.071092	-0.983774	-9.572323	-8.788357	-163.130042
43367		28.157100	0.661599	-13.397827	-28.944452	-6.686298	-19.303480	-2.554590	4.439521	-1.126052	-0.481689	0.192383	-0.586426	0.278529	0.003277	-0.140240	0.131203	-0.067597	0.086007	-0.985302	-10.858278	-6.352083	-164.225889
43368		30.754693	-0.992105	-17.648224	-32.274620	-4.234780	-23.904092	-2.064288	3.294293	-0.831703	-0.466064	0.195068	-0.597656	0.304536	-0.013047	-0.181391	0.124961	-0.053075	0.098033	-0.985879	-11.959948	-4.597256	-165.070621
43369		32.650036	-1.427715	-22.131877	-34.500907	-2.757581	-28.783655	-1.278786	2.105467	-0.338550	-0.463867	0.197266	-0.595459	0.324121	-0.016256	-0.224640	0.122073	-0.043710	0.105288	-0.985952	-12.632146	-3.467764	-165.500007
43370		25.299276	-7.372549	-28.335090	-29.285966	6.227101	-34.324705	0.274313	0.262627	0.006838	-0.459229	0.192871	-0.593018	0.252623	-0.073328	-0.283784	0.122024	-0.042253	0.104091	-0.986149	-12.472633	-3.321152	-165.529365
43371		21.894608	-1.061565	-33.784275	-25.406311	1.540787	-41.019649	2.560965	-2.588392	-0.045382	-0.487793	0.172363	-0.579102	0.223293	-0.006363	-0.335071	0.123836	-0.054000	0.089674	-0.986766	-11.012915	-4.839255	-165.227118
43372		9.985943	16.782964	-3.606999	-6.126500	-18.064493	-15.334443	1.665607	-4.645324	0.441168	-0.510254	0.176270	-0.559082	0.100269	0.168330	-0.032344	0.128502	-0.075680	0.078666	-0.985683	-10.136848	-7.410386	-164.486496
43373		7.751293	2.407614	29.487808	-1.182668	-8.084996	19.657649	0.923636	-4.168130	0.754605	-0.523438	0.171387	-0.527832	0.071256	0.022986	0.296514	0.134446	-0.096097	0.071396	-0.983663	-9.715161	-9.779506	-163.601062
43374		0.795784	14.727854	12.030867	5.672230	-15.511226	-0.352940	1.416556	-4.052758	-0.130147	-0.547852	0.162109	-0.514404	0.005599	0.146417	0.121477	0.135898	-0.115110	0.061619	-0.982082	-8.961273	-12.084075	-163.292781
43375		8.971954	16.863502	9.875551	-1.481157	-19.448850	-0.761780	0.113267	-4.822709	-0.542553	-0.568115	0.161621	-0.476563	0.087759	0.168338	0.100983	0.135105	-0.139611	0.056922	-0.979293	-8.884423	-14.954953	-163.121470
43376		17.745159	4.112704	17.816809	-9.775648	-10.080250	11.446743	-0.084911	-4.552323	-0.880845	-0.586182	0.165527	-0.456543	0.173515	0.040434	0.182130	0.131988	-0.162179	0.053625	-0.976423	-8.904430	-17.611165	-163.221318
43377		18.222813	-6.804445	14.350701	-13.095753	0.772746	10.488542	0.010128	-3.991542	-0.767077	-0.597168	0.165283	-0.432129	0.179053	-0.068743	0.147098	0.129760	-0.182701	0.049498	-0.973310	-8.803225	-20.047738	-163.253455
43378		21.875324	-15.711559	12.726387	-18.342064	8.765492	11.959197	1.279504	-3.675682	-0.595263	-0.606201	0.165039	-0.418701	0.215907	-0.158588	0.130238	0.128912	-0.199879	0.040325	-0.970466	-8.058093	-22.182308	-163.284699
43379		17.140568	-3.713707	12.182195	-10.977749	-1.126923	8.468058	1.945965	-2.790404	-0.206992	-0.617188	0.158203	-0.414063	0.169648	-0.038512	0.123827	0.130826	-0.213227	0.028176	-0.967794	-6.931854	-23.912888	-163.133298
43380		14.176917	9.584782	12.202328	-4.786606	-12.850467	6.114584	1.440456	-2.212585	-0.247636	-0.619629	0.160400	-0.405273	0.140520	0.094784	0.124268	0.131459	-0.223018	0.019484	-0.965713	-6.106863	-25.189907	-163.130693
43381		11.165389	6.684839	11.139701	-3.032863	-9.058704	4.406358	0.589777	-1.515546	-0.293990	-0.626465	0.162354	-0.411865	0.110902	0.066354	0.112435	0.131324	-0.231118	0.014502	-0.963913	-5.671574	-26.215349	-163.161828
43382		7.373160	-2.223890	10.163985	-2.255628	0.609212	2.723460	0.480598	-1.073798	-0.190243	-0.624512	0.171387	-0.412109	0.073163	-0.022553	0.101980	0.131034	-0.235999	0.011251	-0.962813	-5.370524	-26.839714	-163.217648
43383		9.127913	-1.526125	10.320604	-3.394920	-0.403204	3.621364	0.547448	-0.603508	-0.138471	-0.626709	0.169189	-0.423096	0.090957	-0.015607	0.103438	0.131552	-0.239716	0.007188	-0.961862	-4.966214	-27.339121	-163.215588
43384		6.171092	0.325650	9.349401	-0.828093	-1.413343	1.274072	0.340173	-0.274978	-0.153566	-0.635986	0.177979	-0.432129	0.061585	0.003050	0.093584	0.131226	-0.240832	0.005177	-0.961641	-4.731586	-27.505133	-163.300122
43385		6.718485	0.669045	9.254736	-1.208801	-1.832960	1.430745	0.203302	-0.162455	-0.129545	-0.638428	0.180176	-0.445557	0.067114	0.006553	0.092609	0.131356	-0.242649	0.003075	-0.961175	-4.514602	-27.752224	-163.320338
43386		5.640360	-0.784792	9.076198	-0.733418	-0.139454	0.876070	0.122163	-0.120482	-0.130989	-0.649658	0.182129	-0.454346	0.056344	-0.007940	0.090791	0.130871	-0.243163	0.002240	-0.961114	-4.406796	-27.828574	-163.399657
43387		6.664946	0.830267	8.510660	-1.427295	-1.956554	0.755041	0.113591	-0.126473	-0.072248	-0.661133	0.190918	-0.461182	0.066599	0.008230	0.085153	0.131162	-0.244850	0.000666	-0.960648	-4.256898	-28.050866	-163.386604
43388		5.629171	0.210071	8.546912	-0.680054	-1.081193	0.343588	0.035259	-0.122567	-0.037377	-0.666016	0.199707	-0.468018	0.056240	0.002075	0.085504	0.131020	-0.245430	0.000359	-0.960520	-4.226805	-28.124277	-163.405768
43389		6.340860	-0.568287	8.252816	-1.580234	-0.503123	0.477509	0.029541	-0.165614	-0.061409	-0.679443	0.199463	-0.476807	0.063338	-0.005715	0.082580	0.131257	-0.247349	-0.000829	-0.959994	-4.127997	-28.367493	-163.385056
43390		6.278720	0.336189	8.297755	-1.263478	-1.347359	0.433108	0.036887	-0.155042	-0.052069	-0.695313	0.198975	-0.476563	0.062724	0.003330	0.083027	0.131047	-0.248083	-0.001184	-0.959833	-4.092883	-28.460133	-163.412527
43391		4.683001	0.063521	8.611764	0.197737	-0.638099	-0.032569	0.002315	-0.156173	-0.019569	-0.695557	0.203613	-0.483398	0.046763	0.000630	0.086154	0.131443	-0.249968	-0.002177	-0.959288	-4.022688	-28.695560	-163.366304
43392		4.887115	0.176857	8.830099	0.175458	-0.779505	0.249488	-0.019694	-0.168482	0.003714	-0.715820	0.209717	-0.492432	0.048797	0.001778	0.088342	0.131429	-0.250804	-0.002201	-0.959072	-4.037474	-28.793709	-163.357056
43393		4.554861	-0.351474	8.973173	0.428122	-0.156562	0.246154	-0.025512	-0.178243	0.018917	-0.720947	0.220947	-0.490479	0.045469	-0.003499	0.089773	0.131962	-0.252784	-0.003019	-0.958476	-3.996100	-29.036853	-163.286530
43394		5.248149	-0.656509	8.326818	-0.524479	-0.080334	0.037613	-0.009775	-0.184961	-0.000359	-0.729980	0.227295	-0.492676	0.052404	-0.006561	0.083317	0.131939	-0.253693	-0.003107	-0.958239	-4.004257	-29.144692	-163.279247
43395		5.289484	-0.437466	8.232595	-0.510712	-0.288415	-0.035081	0.005936	-0.197230	-0.029512	-0.745605	0.220459	-0.490234	0.052813	-0.004385	0.082378	0.132263	-0.255714	-0.004129	-0.957653	-3.931459	-29.397373	-163.241446
43396		5.535161	-0.503786	8.306279	-0.679673	-0.271304	0.154785	0.038749	-0.172412	-0.065728	-0.748047	0.229248	-0.490479	0.055278	-0.005072	0.083109	0.131988	-0.256530	-0.004526	-0.957471	-3.890346	-29.500707	-163.277833
43397		4.815091	-0.560309	8.528486	0.048633	0.008317	-0.002914	0.054500	-0.157662	-0.096470	-0.754639	0.226807	-0.488037	0.048081	-0.005650	0.085321	0.132041	-0.258308	-0.005824	-0.956979	-3.768158	-29.731017	-163.287710
43398		4.640809	-0.680149	8.637634	0.228357	0.190754	0.011765	0.074534	-0.131806	-0.128880	-0.763916	0.231201	-0.485840	0.046347	-0.006864	0.086404	0.131510	-0.258903	-0.006447	-0.956887	-3.684545	-29.813486	-163.367963
43399		5.160701	-0.437042	8.461053	-0.199862	-0.155722	0.104421	0.083803	-0.133059	-0.139955	-0.766113	0.228760	-0.481445	0.051548	-0.004442	0.084643	0.131378	-0.260512	-0.007904	-0.956457	-3.531641	-30.027375	-163.410201
43400		5.090973	-0.183902	8.492133	-0.053148	-0.362975	0.083450	0.083277	-0.114285	-0.138383	-0.777344	0.230957	-0.483643	0.050860	-0.001910	0.084950	0.130814	-0.261016	-0.008571	-0.956392	-3.438797	-30.099961	-163.498101
43401		5.859982	0.197401	8.046230	-0.786796	-0.927435	0.068657	0.080850	-0.140401	-0.118158	-0.781738	0.226318	-0.483643	0.058544	0.001907	0.080504	0.130770	-0.262636	-0.009975	-0.955940	-3.295089	-30.313961	-163.528040
43402		4.433060	0.461210	8.857512	0.877662	-0.747547	0.035720	0.046585	-0.135016	-0.088493	-0.779541	0.230713	-0.472656	0.044273	0.004572	0.088606	0.130395	-0.263266	-0.010417	-0.955814	-3.239649	-30.396586	-163.582692
43403		4.138248	0.150844	8.945338	1.116840	-0.342637	-0.024829	0.013040	-0.146544	-0.069672	-0.784180	0.235107	-0.466064	0.041317	0.001488	0.089484	0.130485	-0.264935	-0.011431	-0.955328	-3.150352	-30.609477	-163.582324
43404		5.214930	0.177500	8.296821	-0.076320	-0.680517	-0.035403	0.008506	-0.193111	-0.073827	-0.786377	0.232910	-0.468018	0.052070	0.001752	0.083019	0.130125	-0.265868	-0.011711	-0.955115	-3.122277	-30.724868	-163.625527
43405		5.611149	0.202086	8.110044	-0.456115	-0.794890	0.008653	-0.019170	-0.175863	-0.093747	-0.793213	0.232666	-0.459229	0.056041	0.002002	0.081150	0.130042	-0.267664	-0.012613	-0.954613	-3.043513	-30.951458	-163.642402
43406		5.784491	0.124364	8.100392	-0.606088	-0.754498	0.094659	-0.036043	-0.200156	-0.096112	-0.788818	0.235107	-0.463623	0.057764	0.001230	0.081062	0.129516	-0.268657	-0.012716	-0.954404	-3.032955	-31.071587	-163.700645
43407		5.746684	0.051225	8.181733	-0.515081	-0.645666	0.151525	-0.042688	-0.201524	-0.104738	-0.792969	0.230469	-0.454590	0.057385	0.000500	0.081875	0.129338	-0.270573	-0.013532	-0.953876	-2.963883	-31.311239	-163.725714
43408		4.445542	0.052999	8.743431	0.859203	-0.275802	-0.045450	-0.066530	-0.189567	-0.117827	-0.795410	0.232666	-0.445801	0.044373	0.000533	0.087476	0.128666	-0.271533	-0.013512	-0.953694	-2.962455	-31.425982	-163.799310
43409		4.980318	-0.047231	8.610893	0.364369	-0.299924	0.123636	-0.082217	-0.212605	-0.121559	-0.791016	0.234863	-0.448242	0.049711	-0.000467	0.086162	0.128340	-0.273499	-0.014160	-0.953167	-2.910059	-31.669263	-163.837463
43410		5.209663	0.098112	8.058696	-0.051363	-0.543199	-0.231714	-0.083122	-0.220563	-0.127624	-0.797607	0.232666	-0.441406	0.052008	0.000981	0.080644	0.127595	-0.274616	-0.014096	-0.952946	-2.914561	-31.802064	-163.917027
43411		4.930220	-0.144304	7.991221	0.119414	-0.230037	-0.425447	-0.073774	-0.268987	-0.131289	-0.795410	0.232666	-0.441406	0.049194	-0.001446	0.079979	0.127216	-0.276818	-0.014823	-0.952349	-2.854503	-32.074745	-163.962076
43412		4.846374	-0.372082	8.315620	0.328340	0.051070	-0.186431	-0.060125	-0.327998	-0.155903	-0.803955	0.223633	-0.438965	0.048324	-0.003734	0.083237	0.126359	-0.278428	-0.014978	-0.951991	-2.836708	-32.269843	-164.057738
43413		4.056508	-0.564755	8.892076	1.275427	0.505336	-0.119339	-0.029227	-0.407321	-0.176550	-0.804199	0.230225	-0.432373	0.040379	-0.005670	0.089004	0.125800	-0.281226	-0.016052	-0.951225	-2.736867	-32.619515	-164.131706
43414		3.202472	-0.337699	9.659231	2.475775	0.574728	0.046855	-0.058622	-0.526698	-0.190122	-0.817383	0.223145	-0.423340	0.031767	-0.003379	0.096677	0.124763	-0.283775	-0.016390	-0.950598	-2.707569	-32.929177	-164.245397
43415		4.588263	-0.062975	9.137334	1.221088	-0.028968	0.338896	-0.084530	-0.722986	-0.190380	-0.819580	0.218750	-0.416504	0.045551	-0.000635	0.091539	0.124008	-0.288051	-0.017395	-0.949393	-2.638765	-33.453558	-164.323383
43416		5.071123	0.226050	8.765829	0.783504	-0.434624	0.277092	-0.094278	-0.925253	-0.175316	-0.819580	0.220947	-0.403320	0.050307	0.002258	0.087891	0.122950	-0.292507	-0.017791	-0.948160	-2.639962	-33.990888	-164.416049
43417		5.492453	0.287452	8.946134	0.682409	-0.530422	0.653194	-0.159965	-1.178856	-0.165476	-0.825928	0.214111	-0.389893	0.054398	0.002901	0.089781	0.122136	-0.298941	-0.018676	-0.946239	-2.629072	-34.771255	-164.467120
43418		5.132348	0.016089	8.942209	1.033209	-0.162118	0.444442	-0.189538	-1.444457	-0.139362	-0.841797	0.213867	-0.380859	0.050676	0.000210	0.089789	0.121047	-0.305894	-0.018887	-0.944150	-2.706361	-35.604907	-164.519008
43419		4.938128	-0.110237	9.291042	1.530347	0.085542	0.597343	-0.178967	-1.708992	-0.119106	-0.846191	0.211426	-0.367432	0.048584	-0.001048	0.093329	0.120335	-0.314780	-0.019928	-0.941295	-2.733224	-36.683749	-164.523382
43420		5.151277	0.010861	9.059532	1.445916	-0.067354	0.507788	-0.158393	-1.956256	-0.066024	-0.864014	0.208740	-0.343018	0.050623	0.000164	0.091093	0.119566	-0.324085	-0.020482	-0.938218	-2.834302	-37.808416	-164.503948
43421		5.656211	0.149761	9.024998	1.304052	-0.259758	0.755803	-0.206185	-2.231358	0.000643	-0.870605	0.206299	-0.320557	0.055551	0.001591	0.090872	0.119262	-0.335344	-0.021504	-0.934269	-2.943443	-39.178098	-164.403115
43422		5.123284	0.707206	9.324534	2.265059	-0.611587	0.588504	-0.182038	-2.478011	0.051084	-0.886230	0.206055	-0.300537	0.050071	0.007170	0.093864	0.118912	-0.347033	-0.022064	-0.930022	-3.132604	-40.597730	-164.268507
43423		4.897170	-1.220951	9.864431	2.607873	1.439750	0.859612	-0.146870	-2.832208	0.059698	-0.901855	0.203369	-0.264893	0.047572	-0.012122	0.099334	0.118844	-0.360904	-0.023614	-0.924698	-3.264212	-42.304267	-164.089463
43424		4.712258	-1.434968	9.779421	2.944782	1.744809	0.588037	-0.032898	-3.252249	-0.034486	-0.912842	0.200928	-0.235840	0.045522	-0.014341	0.098546	0.118219	-0.375933	-0.025473	-0.918722	-3.363171	-44.169156	-163.970338
43425		4.355163	-1.695752	11.228645	4.489637	2.384663	1.235637	0.126112	-3.684847	-0.145444	-0.926025	0.191650	-0.197998	0.041461	-0.017059	0.113052	0.117493	-0.393280	-0.029118	-0.911416	-3.267857	-46.362950	-163.909113
43426		4.276819	-1.397511	10.248310	4.317981	2.098589	0.296891	0.170287	-4.327894	-0.233458	-0.937012	0.191162	-0.146729	0.040521	-0.014111	0.103364	0.116099	-0.412800	-0.032909	-0.902792	-3.173721	-48.849774	-163.902366
43427		5.780278	-2.913703	9.829961	3.166021	3.413582	0.995860	0.386270	-5.044568	-0.451282	-0.952148	0.179688	-0.091064	0.055234	-0.029455	0.099658	0.114711	-0.435598	-0.039224	-0.891940	-2.778521	-51.818227	-163.993040
43428		5.939368	-1.788370	11.387015	5.108962	2.779087	1.774618	0.308442	-5.822071	-0.646924	-0.954102	0.172852	-0.026367	0.055988	-0.018246	0.115505	0.111301	-0.461093	-0.045351	-0.879175	-2.297671	-55.170745	-164.369231
43429		5.649903	-3.384888	12.442615	6.405776	4.845397	1.746620	0.438699	-6.430679	-0.830240	-0.959961	0.154785	0.049316	0.052321	-0.034347	0.126078	0.107381	-0.489070	-0.053312	-0.863966	-1.433854	-58.929128	-165.020169
43430		8.343996	-1.101573	12.789364	6.688456	2.662928	3.695734	0.501307	-7.060743	-0.918954	-0.964111	0.147705	0.118408	0.078805	-0.011710	0.130702	0.102682	-0.518764	-0.061501	-0.846498	-0.304506	-62.985855	-165.980843
43431		10.350592	-1.598572	14.454144	8.114224	3.670187	5.652102	0.211635	-7.234697	-1.028113	-0.947998	0.136719	0.189697	0.098105	-0.016655	0.148139	0.096244	-0.548921	-0.069014	-0.827442	1.262646	-67.173604	-167.569336
43432		15.310542	0.167995	15.062090	8.400757	2.128439	9.834113	0.035441	-7.303120	-1.225555	-0.929443	0.125732	0.262939	0.147478	0.000737	0.156076	0.088682	-0.578335	-0.076011	-0.807395	3.611565	-71.328803	-170.056033
43433		14.034386	0.268550	14.294959	9.396906	2.392102	7.714109	-0.447073	-7.104593	-1.387456	-0.908203	0.105957	0.334473	0.135166	0.002063	0.147808	0.078650	-0.606506	-0.081503	-0.786970	7.462123	-75.335432	-174.349536
43434		16.782694	0.965859	15.956380	11.658221	2.407568	10.069089	-0.662295	-6.764176	-1.416263	-0.889648	0.092773	0.390137	0.162371	0.009036	0.165087	0.068263	-0.632457	-0.085824	-0.766794	13.731785	-79.005355	178.836491
43435		13.340268	-1.604638	14.447074	11.444432	4.931098	5.478613	-0.580588	-6.437127	-1.721876	-0.857422	0.075439	0.443604	0.128519	-0.016739	0.148708	0.056710	-0.656319	-0.091351	-0.746783	26.976586	-82.144651	165.071027
43436		8.654369	8.762085	21.174610	21.433681	-3.743952	1.435820	-0.696380	-5.391697	-2.300487	-0.840576	0.044678	0.486328	0.081806	0.087403	0.213690	0.043347	-0.675330	-0.097809	-0.729715	50.777747	-83.760399	140.696031
43437		23.074521	9.162726	33.045397	32.395513	-0.664208	15.846940	-2.287952	-3.048168	-3.431857	-0.825439	0.004883	0.498291	0.227255	0.091507	0.332888	0.021370	-0.684963	-0.101873	-0.721104	70.832186	-82.845049	119.186265
43438		3.688158	-9.287653	24.229160	22.195377	13.543968	-6.527631	-2.233306	-1.071360	-3.798282	-0.815186	-0.032715	0.501221	0.033841	-0.090824	0.243500	-0.000526	-0.686974	-0.106938	-0.718770	77.846880	-80.909677	110.810942
43439		2.574734	-13.762779	19.189951	16.890842	16.683203	-9.013297	-0.958420	-0.445004	-3.461726	-0.816406	-0.059326	0.490723	0.022943	-0.137119	0.192611	-0.016680	-0.686290	-0.115459	-0.717912	80.565825	-78.973658	107.481847
43440		3.663138	-12.986852	18.190711	16.050908	15.900010	-8.221559	-0.241926	0.361003	-2.397617	-0.818115	-0.072754	0.482178	0.035401	-0.130078	0.182000	-0.025910	-0.683560	-0.122858	-0.719013	80.549965	-77.583653	107.358213
43441		1.082551	-12.643130	15.858555	13.964083	14.713107	-10.834000	0.014540	1.030097	-0.909532	-0.824951	-0.072754	0.466553	0.011067	-0.126493	0.158520	-0.028616	-0.678850	-0.125991	-0.722821	78.097735	-76.947405	109.850220
43442		0.037580	-12.066773	13.890055	12.140299	13.700665	-11.667632	0.176991	1.490089	0.518971	-0.836426	-0.068604	0.444336	0.001723	-0.120787	0.138784	-0.025204	-0.673816	-0.125097	-0.727796	74.321155	-77.032044	113.832048
43443		0.311100	-9.899434	13.038405	11.498348	11.626889	-10.640257	0.392482	1.898256	1.614087	-0.846191	-0.044189	0.419434	0.005147	-0.099214	0.130147	-0.016892	-0.667384	-0.120952	-0.734632	68.238829	-77.547941	120.250761
43444		0.945769	-6.927517	12.554626	11.252631	8.904849	-9.059062	0.575174	2.336950	2.303291	-0.855957	-0.024170	0.392578	0.011722	-0.069509	0.125218	-0.005101	-0.660170	-0.115579	-0.742153	60.314428	-78.157424	128.694723
43445		1.294193	-4.089233	12.052055	11.002258	6.212679	-7.816450	0.667760	2.765765	2.642883	-0.873291	0.013184	0.360596	0.015148	-0.041104	0.120184	0.008344	-0.650709	-0.108823	-0.751443	49.703927	-78.451791	139.849425
43446		1.651070	-1.764300	11.413842	10.549656	3.959775	-6.791928	0.662182	3.184816	2.706609	-0.880859	0.037598	0.329102	0.018565	-0.017778	0.113795	0.022394	-0.640063	-0.102368	-0.761143	38.533235	-78.221476	151.643081
43447		2.272517	-0.349078	10.708308	9.834936	2.535774	-5.715796	0.599454	3.580943	2.585091	-0.895508	0.066406	0.286377	0.024683	-0.003500	0.106642	0.035787	-0.626802	-0.095343	-0.772495	27.587108	-77.220063	163.120128
43448		3.138971	0.342765	10.082015	8.990027	1.792199	-4.561862	0.537357	3.945277	2.365141	-0.898682	0.086426	0.248291	0.033329	0.003544	0.100185	0.048473	-0.612449	-0.089295	-0.783954	19.023179	-75.677694	172.245878
43449		4.191041	0.607345	9.622211	8.097682	1.416736	-3.260968	0.516630	4.284970	2.120501	-0.908691	0.108643	0.207764	0.043893	0.006285	0.095312	0.060046	-0.595460	-0.083162	-0.796810	12.421783	-73.520972	179.323742
43450		5.085642	0.705058	9.189129	7.159517	1.152701	-2.184123	0.518204	4.600065	1.906012	-0.913818	0.124268	0.158691	0.052883	0.007312	0.090709	0.071072	-0.577605	-0.078166	-0.809451	7.893658	-71.119739	-175.611662
43451		5.869771	0.606167	8.836986	6.182254	1.028300	-1.232785	0.544882	4.870642	1.726589	-0.916748	0.144287	0.107178	0.060773	0.006342	0.086924	0.081263	-0.557248	-0.073053	-0.823125	4.610076	-68.316947	-171.852582
43452		6.417200	0.712247	8.676765	5.441964	0.725669	-0.495601	0.583575	5.090861	1.590990	-0.917236	0.153320	0.053711	0.066295	0.007394	0.085119	0.091261	-0.536461	-0.068948	-0.836138	2.399247	-65.463349	-169.084413
43453		6.894829	1.052622	8.842126	4.979380	0.220727	0.284807	0.587654	5.253306	1.489373	-0.911133	0.166992	-0.004395	0.071159	0.010794	0.086603	0.100560	-0.513535	-0.064448	-0.849715	0.770330	-62.335119	-166.967339
43454		7.327024	1.157954	9.142872	4.551743	-0.039631	1.043962	0.546712	5.368067	1.392628	-0.909424	0.176025	-0.055664	0.075607	0.011854	0.089452	0.109565	-0.490724	-0.060492	-0.862279	-0.359917	-59.264841	-165.312393
43455		7.623425	0.898778	9.345235	3.923672	0.005401	1.625323	0.523291	5.419838	1.289590	-0.900635	0.180664	-0.115723	0.078670	0.009249	0.091366	0.117698	-0.466198	-0.056101	-0.875020	-1.184933	-56.003372	-164.048281
43456		8.370102	0.478619	10.060453	3.378913	0.230702	2.835990	0.541260	5.400389	1.212138	-0.880859	0.190186	-0.171387	0.086346	0.005036	0.098310	0.125725	-0.442433	-0.052465	-0.886393	-1.732733	-52.895096	-162.992149
43457		9.716895	0.014297	11.182829	2.615263	0.406446	4.761790	0.590027	5.410686	1.197374	-0.860840	0.195068	-0.224854	0.100144	0.000412	0.109147	0.133377	-0.417105	-0.048567	-0.897705	-2.129237	-49.625841	-162.113624
43458		10.994401	-0.190413	12.621963	2.029261	0.345935	6.798127	0.680492	5.465592	1.230561	-0.829590	0.198242	-0.273926	0.113348	-0.001636	0.123147	0.141586	-0.392273	-0.045412	-0.907752	-2.382986	-46.471473	-161.246250
43459		12.393070	0.525558	14.459037	1.642941	-0.648730	9.153478	0.736648	5.569663	1.270992	-0.789551	0.205811	-0.332031	0.127858	0.005536	0.141086	0.149653	-0.365446	-0.041904	-0.917767	-2.548503	-43.104516	-160.470779
43460		13.343607	1.642520	16.118315	1.387477	-2.030014	11.029351	0.659373	5.672446	1.301474	-0.749268	0.206543	-0.363281	0.137827	0.016790	0.157370	0.157946	-0.339059	-0.038310	-0.926620	-2.694907	-39.826128	-159.676942
43461		15.094521	2.539625	17.070516	-0.182010	-3.669490	12.816115	0.435127	5.716087	1.268765	-0.701904	0.203125	-0.392334	0.155578	0.026008	0.166359	0.165228	-0.311161	-0.033318	-0.935291	-2.883329	-36.374563	-159.015547
43462		19.948434	2.410010	18.075530	-4.556785	-5.372575	16.276461	0.148460	5.792885	1.093659	-0.663574	0.197266	-0.410156	0.204472	0.025078	0.174899	0.171458	-0.284015	-0.027531	-0.942963	-3.109087	-33.029552	-158.467045
43463		29.223348	1.843820	18.515778	-13.370882	-8.390513	21.020257	-0.179539	6.196322	0.704475	-0.625000	0.184814	-0.430176	0.297713	0.019641	0.175972	0.174960	-0.253778	-0.020134	-0.951094	-3.320860	-29.326075	-158.284096
43464		35.733356	1.399867	16.345430	-21.704092	-11.165484	21.003464	-0.567917	6.997448	0.152843	-0.593506	0.183105	-0.454590	0.362746	0.014715	0.150783	0.175554	-0.220880	-0.011126	-0.959307	-3.564920	-25.320998	-158.458087
43465		34.784871	0.092997	9.901457	-25.976048	-10.862895	12.872792	-0.922014	7.695575	-0.446040	-0.570557	0.166016	-0.489990	0.351315	0.000564	0.085536	0.172451	-0.183664	-0.000342	-0.967744	-3.845524	-20.830085	-159.084985
43466		29.937063	1.094638	0.817043	-25.941722	-10.907142	0.468862	-1.179069	7.614156	-0.955132	-0.543213	0.159912	-0.527588	0.299439	0.009519	-0.003289	0.166622	-0.147722	0.011030	-0.974830	-4.230962	-16.518884	-159.986597
43467		25.957249	2.943691	-7.495367	-24.725479	-11.230355	-10.738926	-1.619819	6.659516	-1.205407	-0.516357	0.156006	-0.552002	0.257049	0.027228	-0.083768	0.158964	-0.115973	0.023555	-0.980166	-4.883533	-12.700664	-161.032057
43468		26.781771	1.903333	-13.164538	-27.152702	-9.776352	-17.629490	-2.107562	5.278845	-1.145004	-0.500732	0.160889	-0.570068	0.264314	0.016075	-0.138833	0.151433	-0.091882	0.037387	-0.983477	-5.903460	-9.753193	-161.988867
43469		29.718705	-1.160846	-16.817368	-31.285905	-6.764999	-21.755073	-2.107315	3.968806	-0.820906	-0.478516	0.165771	-0.585693	0.293718	-0.014631	-0.173882	0.145651	-0.073782	0.050253	-0.985300	-6.982431	-7.513324	-162.723339
43470		33.165141	-2.077280	-20.229772	-35.067774	-5.895573	-25.588236	-1.786578	2.845507	-0.166881	-0.471924	0.170410	-0.599121	0.328712	-0.022882	-0.206790	0.143425	-0.061112	0.061041	-0.985885	-7.968308	-5.911332	-163.033491
43471		32.475249	-2.063572	-23.977869	-34.644289	-4.871743	-30.057286	-1.364016	1.629157	0.644538	-0.460693	0.172852	-0.601563	0.322854	-0.021240	-0.242270	0.145763	-0.053925	0.068978	-0.985438	-8.756425	-4.943351	-162.793222
43472		24.981033	-2.394973	-23.503339	-27.415524	-2.304715	-30.434803	-0.915923	0.011098	1.145483	-0.461670	0.195068	-0.590820	0.249933	-0.023595	-0.234939	0.151143	-0.054157	0.073789	-0.984265	-9.334905	-4.835971	-162.144790
43473		19.112572	-11.079516	-27.208603	-25.160717	7.747765	-32.946628	0.835542	-2.593034	1.061158	-0.479248	0.185791	-0.579590	0.195216	-0.108636	-0.270030	0.157660	-0.066291	0.067849	-0.982927	-8.928827	-6.253301	-161.286177
43474		-0.294466	7.454499	-7.295370	1.308847	-6.204165	-18.099154	1.581180	-4.754318	0.914711	-0.506104	0.187500	-0.552734	-0.001562	0.075110	-0.072409	0.164231	-0.088091	0.056595	-0.980849	-8.143475	-8.871510	-160.356657
43475		10.618693	5.118535	28.463465	-2.155722	-10.416078	19.097785	0.733335	-4.447114	1.065157	-0.528564	0.189209	-0.530518	0.099550	0.050678	0.287084	0.171118	-0.109484	0.049679	-0.977887	-7.893121	-11.368837	-159.362006
43476		0.604788	11.760138	12.324214	6.347593	-11.793736	0.729562	1.287093	-4.281116	0.171389	-0.546387	0.182129	-0.503662	0.003297	0.116808	0.124086	0.173671	-0.129259	0.039788	-0.975473	-7.247556	-13.789578	-158.932361
43477		7.496826	18.132926	9.449231	1.920989	-19.813009	-0.979778	0.244069	-4.988584	-0.444324	-0.572998	0.177002	-0.476807	0.072979	0.181049	0.096550	0.172794	-0.153925	0.033701	-0.972272	-7.121162	-16.718350	-158.797290
43478		17.405449	3.379970	16.471407	-8.878643	-9.189898	10.736979	0.065286	-4.771862	-0.994051	-0.586670	0.181152	-0.450195	0.170224	0.032893	0.168817	0.168756	-0.177201	0.028468	-0.969180	-7.006847	-19.503932	-159.039413
43479		20.670197	-5.125435	15.617541	-13.852846	-1.822320	12.594974	0.269065	-4.231454	-1.006154	-0.601807	0.169678	-0.425537	0.203076	-0.052496	0.160428	0.164953	-0.198130	0.022246	-0.965940	-6.712739	-22.050530	-159.308938
43480		25.592758	-14.840125	13.337843	-21.246268	6.247657	13.906326	1.518773	-3.631302	-0.876766	-0.610596	0.162842	-0.407471	0.252807	-0.150545	0.136850	0.162584	-0.214487	0.011024	-0.963037	-5.723314	-24.175532	-159.608186
43481		20.967815	-3.051134	13.946196	-12.831143	-2.843578	11.882692	1.942441	-2.533105	-0.483790	-0.610596	0.160400	-0.403076	0.207815	-0.032385	0.141794	0.162725	-0.225800	-0.001309	-0.960486	-4.518799	-25.733177	-159.735880
43482		13.011279	9.397448	12.611678	-2.457353	-11.858668	6.618254	1.197594	-1.881247	-0.407276	-0.617188	0.160400	-0.396240	0.129105	0.092949	0.127893	0.162090	-0.233859	-0.009070	-0.958621	-3.753759	-26.827377	-159.910190
43483		9.188867	5.241529	10.833390	-1.126143	-6.684056	3.726961	0.660606	-1.351456	-0.338601	-0.614990	0.160400	-0.400635	0.091241	0.051901	0.109124	0.161484	-0.240540	-0.014207	-0.957007	-3.269606	-27.709297	-160.037827
43484		9.226965	-1.377317	9.507638	-3.735933	-0.436704	2.965404	0.503975	-0.902016	-0.225422	-0.617432	0.164795	-0.409668	0.091824	-0.014117	0.095456	0.160936	-0.244447	-0.017639	-0.956051	-2.924766	-28.234718	-160.153776
43485		9.052461	-0.714561	9.397770	-3.350968	-0.924209	2.784610	0.545044	-0.492459	-0.150611	-0.619873	0.169189	-0.420898	0.090287	-0.007470	0.094180	0.161161	-0.247118	-0.021336	-0.955251	-2.539155	-28.619839	-160.199697
43486		6.701415	0.067973	9.211996	-1.221736	-0.922131	1.475858	0.360717	-0.239573	-0.179691	-0.624512	0.171387	-0.429688	0.066904	0.000453	0.092201	0.160714	-0.247969	-0.023495	-0.955055	-2.276840	-28.763772	-160.311991
43487		5.965884	-0.206867	9.578821	-0.509609	-0.340446	1.457301	0.289044	-0.104769	-0.216268	-0.622559	0.178223	-0.438721	0.059606	-0.002272	0.095816	0.160350	-0.248985	-0.025736	-0.954794	-2.010396	-28.928152	-160.414585
43488		4.857205	-0.577373	9.426874	0.211217	0.354268	0.799642	0.221192	-0.026242	-0.256909	-0.624756	0.180420	-0.454346	0.048552	-0.005940	0.094269	0.159386	-0.248918	-0.027155	-0.954934	-1.800033	-28.950625	-160.583781
43489		5.817953	-0.328289	8.996072	-0.695005	-0.174856	0.881795	0.209590	-0.033656	-0.233819	-0.636475	0.186768	-0.469971	0.058160	-0.003445	0.089967	0.158840	-0.249635	-0.028970	-0.954784	-1.572478	-29.071368	-160.701568
43490		5.780009	0.441436	8.512108	-0.650760	-0.930573	0.423028	0.142269	-0.030498	-0.194525	-0.647705	0.188965	-0.479004	0.057791	0.004298	0.085133	0.158075	-0.249658	-0.029938	-0.954875	-1.426629	-29.094394	-160.830244
43491		6.485952	-0.459360	7.931205	-1.780065	-0.324122	0.282304	0.162044	-0.043683	-0.217357	-0.650146	0.193359	-0.485596	0.064837	-0.004728	0.079322	0.157542	-0.250451	-0.031509	-0.954705	-1.231014	-29.218488	-160.938550
43492		5.909040	-0.183999	8.151655	-1.118934	-0.362087	0.188157	0.186262	-0.018815	-0.229511	-0.663574	0.195313	-0.496826	0.059081	-0.001984	0.081520	0.156666	-0.250377	-0.032722	-0.954828	-1.048179	-29.234612	-161.090713
43493		5.631685	0.131268	8.291506	-0.717416	-0.525652	0.171856	0.185209	-0.024824	-0.234168	-0.674805	0.192871	-0.500977	0.056308	0.001170	0.082923	0.156081	-0.251053	-0.034402	-0.954687	-0.833719	-29.346653	-161.211553
43494		4.928961	0.080990	8.700811	0.032798	-0.195503	0.185611	0.163515	-0.025790	-0.196107	-0.686279	0.197021	-0.503418	0.049279	0.000690	0.087015	0.155335	-0.251034	-0.035471	-0.954775	-0.674215	-29.365725	-161.342039
43495		5.237765	-0.193604	8.655681	-0.319792	0.005380	0.301171	0.151928	-0.038519	-0.179339	-0.695313	0.199219	-0.514404	0.052359	-0.002049	0.086565	0.154961	-0.251795	-0.036927	-0.954580	-0.496138	-29.482728	-161.428235
43496		4.993445	-0.394204	8.514007	-0.249723	0.264626	0.058776	0.137632	-0.048639	-0.162854	-0.708496	0.192383	-0.514160	0.049910	-0.004041	0.085149	0.154337	-0.251911	-0.037849	-0.954614	-0.361822	-29.514201	-161.537051
43497		4.534764	0.083332	8.708281	0.380706	-0.003094	-0.001459	0.140713	-0.028540	-0.176660	-0.718018	0.200928	-0.523193	0.045336	0.000732	0.087090	0.153955	-0.252617	-0.039228	-0.954434	-0.191320	-29.622995	-161.623106
43498		4.123310	-0.467189	8.775175	0.576067	0.663095	-0.145626	0.137004	-0.034193	-0.182944	-0.724609	0.203125	-0.520996	0.041214	-0.004770	0.087756	0.153237	-0.252660	-0.040162	-0.954499	-0.050372	-29.645801	-161.745550
43499		4.524292	-0.393578	8.958182	0.364905	0.541608	0.209619	0.114508	-0.041033	-0.195872	-0.730957	0.191895	-0.518555	0.045221	-0.004031	0.089589	0.152717	-0.253419	-0.041436	-0.954327	0.111131	-29.758421	-161.846080
43500		4.740650	-0.060535	8.405042	0.029148	0.100567	-0.163275	0.117946	-0.057120	-0.197606	-0.740234	0.196045	-0.518555	0.047382	-0.000702	0.084064	0.151901	-0.253582	-0.042316	-0.954375	0.246447	-29.793874	-161.978585
43501		4.643627	0.170077	8.570565	0.271613	-0.038510	-0.067355	0.097294	-0.063836	-0.174428	-0.739990	0.193848	-0.520752	0.046410	0.001619	0.085721	0.151446	-0.254447	-0.043485	-0.954164	0.390860	-29.916657	-162.066778
43502		5.414247	0.780412	8.266076	-0.315876	-0.855002	0.057485	0.084969	-0.085743	-0.157912	-0.751465	0.200439	-0.516357	0.054113	0.007726	0.082687	0.150771	-0.254780	-0.044180	-0.954150	0.494831	-29.968246	-162.173619
43503		4.566649	0.622327	8.812346	0.608161	-0.367277	0.106700	0.068451	-0.077790	-0.120988	-0.758301	0.197998	-0.516357	0.045636	0.006165	0.088143	0.150525	-0.255729	-0.045149	-0.953890	0.605713	-30.097118	-162.228007
43504		4.440678	0.181206	8.776572	0.563748	0.092943	0.008423	0.052563	-0.109905	-0.113429	-0.769775	0.204346	-0.514160	0.044360	0.001764	0.087791	0.150016	-0.256212	-0.045652	-0.953817	0.676963	-30.162605	-162.305995
43505		4.494335	0.265277	8.600530	0.482244	-0.007865	-0.117023	0.047160	-0.141160	-0.137028	-0.762939	0.204590	-0.511963	0.044884	0.002602	0.086038	0.149643	-0.257454	-0.046580	-0.953496	0.781611	-30.324960	-162.373194
43506		5.516402	0.152691	8.383545	-0.486055	-0.189294	0.210572	0.028496	-0.152501	-0.139374	-0.771973	0.206543	-0.505371	0.055101	0.001477	0.083878	0.148968	-0.258152	-0.047034	-0.953391	0.848519	-30.414521	-162.469259
43507		5.276896	0.283353	8.339900	-0.245236	-0.236077	0.054630	0.013538	-0.178525	-0.152883	-0.776855	0.213135	-0.500977	0.052697	0.002788	0.083446	0.148459	-0.259578	-0.047842	-0.953043	0.939804	-30.596078	-162.549053
43508		4.732289	0.390239	8.589404	0.369506	-0.142055	-0.006161	-0.018216	-0.186081	-0.156009	-0.781250	0.213135	-0.496582	0.047246	0.003873	0.085938	0.147636	-0.260466	-0.048122	-0.952914	0.986509	-30.704588	-162.657144
43509		4.385995	0.461615	9.041458	0.922499	-0.025648	0.204612	-0.036390	-0.219035	-0.147627	-0.783203	0.206299	-0.491943	0.043764	0.004600	0.090462	0.147068	-0.262107	-0.048709	-0.952522	1.048309	-30.907389	-162.735641
43510		4.334948	0.205476	8.628010	0.707496	0.172045	-0.182197	-0.030754	-0.274957	-0.144668	-0.783447	0.212891	-0.487549	0.043232	0.002037	0.086339	0.146260	-0.263429	-0.048980	-0.952268	1.085396	-31.066849	-162.837894
43511		5.203100	0.316466	8.514120	0.013962	-0.151865	0.169261	-0.053181	-0.339308	-0.151721	-0.790039	0.206055	-0.476318	0.051889	0.003148	0.085228	0.145610	-0.265631	-0.049573	-0.951725	1.140603	-31.335709	-162.922800
43512		4.761113	0.714819	8.457879	0.502098	-0.416572	-0.102429	-0.063287	-0.406819	-0.132806	-0.792236	0.206055	-0.474121	0.047444	0.007143	0.084673	0.144781	-0.267606	-0.049770	-0.951288	1.156973	-31.570799	-163.019661
43513		4.956135	0.591543	8.631705	0.443651	-0.296747	0.143942	-0.080758	-0.474830	-0.110449	-0.789795	0.206055	-0.465332	0.049360	0.005923	0.086432	0.144246	-0.270464	-0.050271	-0.950534	1.184182	-31.915811	-163.080724
43514		4.889989	0.614297	8.673649	0.574791	-0.281694	0.142791	-0.096104	-0.558575	-0.083313	-0.796631	0.206055	-0.460693	0.048660	0.006164	0.086870	0.143567	-0.273193	-0.050356	-0.949852	1.166449	-32.238456	-163.147041
43515		4.383490	0.284285	8.919242	1.077495	0.220988	0.068533	-0.108898	-0.632314	-0.075138	-0.803467	0.210205	-0.458740	0.043554	0.002875	0.089329	0.143110	-0.276805	-0.050785	-0.948852	1.167239	-32.672041	-163.188274
43516		5.244782	0.142602	8.458419	0.172785	0.081398	0.138995	-0.111692	-0.748082	-0.097540	-0.803223	0.205811	-0.438477	0.052132	0.001448	0.084779	0.142289	-0.280435	-0.050952	-0.947900	1.148355	-33.103175	-163.267417
43517		5.137592	0.089936	8.473556	0.340277	0.188337	0.089442	-0.121039	-0.900423	-0.116746	-0.807861	0.205566	-0.438477	0.050994	0.000921	0.084965	0.141531	-0.285288	-0.051563	-0.946531	1.160888	-33.687598	-163.343011
43518		4.745506	0.140809	8.834257	0.951720	0.322585	0.165940	-0.131133	-1.049165	-0.142038	-0.816650	0.200928	-0.425049	0.046992	0.001433	0.088589	0.140388	-0.290334	-0.051914	-0.945147	1.152265	-34.290768	-163.458120
43519		4.499224	-0.118945	9.326474	1.455537	0.754097	0.412362	-0.142454	-1.246567	-0.141993	-0.823242	0.200928	-0.414063	0.044409	-0.001155	0.093544	0.139367	-0.296795	-0.052694	-0.943246	1.167805	-35.070880	-163.559442
43520		5.006825	0.072882	8.729365	0.920660	0.379324	0.201410	-0.134447	-1.449613	-0.135273	-0.832520	0.205078	-0.391846	0.049434	0.000754	0.087653	0.138132	-0.303711	-0.053297	-0.941190	1.161640	-35.903582	-163.677757
43521		4.889280	0.504578	9.212871	1.569941	0.130594	0.509735	-0.142750	-1.655889	-0.117204	-0.836670	0.200439	-0.385010	0.048131	0.005083	0.092526	0.137086	-0.312048	-0.054308	-0.938554	1.174422	-36.915562	-163.772229
43522		6.064627	0.608703	8.388768	0.405796	-0.340439	0.542884	-0.157442	-1.906339	-0.060853	-0.850098	0.197998	-0.360596	0.059845	0.006135	0.084456	0.136019	-0.321100	-0.054996	-0.935612	1.131493	-38.010845	-163.846334
43523		5.909282	1.159977	8.880749	1.184922	-0.684002	0.829533	-0.165180	-2.085824	0.021704	-0.867920	0.195313	-0.344727	0.058161	0.011680	0.089408	0.135429	-0.331424	-0.055964	-0.932033	1.076969	-39.268392	-163.849271
43524		4.777362	0.485786	9.049016	2.152588	0.287095	0.198471	-0.137532	-2.269844	0.091051	-0.874512	0.195068	-0.318115	0.046740	0.004942	0.091021	0.134970	-0.342128	-0.056734	-0.928177	0.977930	-40.573670	-163.814268
43525		5.336206	-0.093048	9.218508	1.930409	0.819687	0.630505	-0.094054	-2.515564	0.117463	-0.885742	0.194824	-0.289307	0.052198	-0.000856	0.092847	0.134769	-0.354310	-0.058147	-0.923537	0.918772	-42.075476	-163.748592
43526		5.323118	-0.319311	9.211168	2.138990	1.107931	0.554224	0.007281	-2.824050	0.131156	-0.901611	0.196777	-0.271484	0.051926	-0.003162	0.092851	0.134542	-0.367377	-0.059874	-0.918340	0.880864	-43.698616	-163.683462
43527		5.077865	-0.378352	10.111781	3.200138	1.501309	0.942315	0.053695	-3.225775	0.060090	-0.910400	0.191895	-0.233643	0.049140	-0.003796	0.101918	0.134053	-0.382527	-0.062517	-0.912027	0.939847	-45.603236	-163.671752
43528		5.381684	-1.721866	10.255762	3.060730	2.874867	1.117068	0.110887	-3.726095	-0.047707	-0.921143	0.185059	-0.186768	0.051890	-0.017288	0.103527	0.132850	-0.399392	-0.065629	-0.904727	1.076620	-47.741477	-163.769283
43529		5.422708	-1.254825	10.315246	3.633176	2.593892	1.024048	0.269263	-4.349373	-0.193716	-0.938965	0.182373	-0.142090	0.051955	-0.012739	0.104282	0.131148	-0.419089	-0.070426	-0.895659	1.455404	-50.281513	-164.022187
43530		4.851622	-1.620067	11.175699	4.977147	3.436571	0.885230	0.327952	-5.008212	-0.387882	-0.947510	0.173096	-0.086426	0.045667	-0.016476	0.112898	0.128284	-0.441059	-0.075999	-0.885005	2.040694	-53.147101	-164.525329
43531		5.205770	-2.300919	11.995328	5.739238	4.474302	1.290313	0.399188	-5.667819	-0.566256	-0.958252	0.166016	-0.026367	0.048566	-0.023391	0.121316	0.125052	-0.465733	-0.083077	-0.872097	2.945258	-56.419121	-165.259814
43532		6.578425	-1.026141	11.078717	5.287680	3.103550	1.563422	0.525324	-6.462998	-0.702091	-0.953613	0.161377	0.044922	0.062123	-0.010778	0.112806	0.120455	-0.493070	-0.091028	-0.856789	4.278625	-60.093785	-166.470317
43533		8.995706	-0.647137	13.693222	7.200482	3.538049	4.482948	0.351641	-7.146841	-0.759860	-0.955078	0.145752	0.122803	0.084964	-0.007045	0.140016	0.114943	-0.523021	-0.098966	-0.838715	6.030060	-64.168839	-168.175291
43534		8.122916	-1.460100	11.922602	6.734821	4.250287	2.300730	0.143928	-7.667140	-0.914095	-0.952637	0.145508	0.198242	0.076513	-0.015045	0.122209	0.107601	-0.554268	-0.106321	-0.818477	8.579782	-68.464699	-170.864899
43535		14.973681	0.959590	14.404298	8.293611	2.695357	9.064547	-0.170743	-7.780219	-0.912949	-0.927246	0.127930	0.278564	0.144028	0.009056	0.149713	0.099163	-0.585452	-0.112445	-0.796724	12.301521	-72.782464	-174.892960
43536		12.505163	-0.824175	14.430825	9.814832	4.896632	5.833714	-0.501455	-7.842849	-0.981640	-0.901855	0.117188	0.347412	0.119226	-0.008467	0.149082	0.089294	-0.615950	-0.117150	-0.773892	18.451132	-76.976701	178.446504
43537		14.917875	1.224551	15.669263	12.244822	3.634325	7.686028	-0.871304	-7.566626	-0.825480	-0.867920	0.111084	0.416260	0.143163	0.012345	0.162132	0.078846	-0.644780	-0.119731	-0.750804	29.185895	-80.782417	167.010521
43538		13.423434	-3.286353	17.177734	13.871621	8.604194	4.999012	-0.648043	-7.290902	-1.228783	-0.837891	0.098145	0.485107	0.127651	-0.033094	0.176619	0.067723	-0.671244	-0.124080	-0.727633	52.790818	-83.536667	142.823657
43539		11.527423	-3.497813	14.032792	11.893492	8.116442	1.787486	-0.091407	-6.741034	-1.892847	-0.812256	0.076172	0.532227	0.110121	-0.035971	0.144114	0.056267	-0.694222	-0.132380	-0.705242	89.439053	-83.765278	105.915291
43540		11.868723	7.047497	26.377912	27.207011	1.584292	2.164033	-0.372733	-5.283779	-2.706794	-0.788818	0.052002	0.559082	0.112611	0.069419	0.266678	0.041905	-0.710880	-0.141916	-0.687571	110.607782	-81.671734	84.369031
43541		35.685355	7.851656	40.248946	41.587410	8.093915	24.246009	-1.911355	-1.815789	-3.229197	-0.783203	0.020996	0.559814	0.354432	0.076643	0.404976	0.022654	-0.714982	-0.147184	-0.683099	111.287214	-79.569715	82.565419
43542		2.421998	-10.290392	25.333075	22.303160	15.970385	-10.820521	-2.189163	0.983659	-2.935857	-0.793213	-0.012451	0.547363	0.023982	-0.100477	0.254321	0.005519	-0.709605	-0.150091	-0.688406	104.693072	-78.139105	88.009634
43543		-4.776559	-14.318839	16.000808	12.553449	15.999961	-18.195487	-0.990087	1.345088	-2.440175	-0.803955	-0.030273	0.527832	-0.048421	-0.141805	0.161037	-0.005428	-0.702826	-0.155175	-0.694209	99.189147	-76.939574	93.047110
43544		-4.884759	-13.654563	12.778716	9.710439	14.513365	-18.099551	-0.031523	1.072456	-1.437149	-0.812500	-0.039307	0.505859	-0.049141	-0.136173	0.128072	-0.009698	-0.697983	-0.160165	-0.697906	96.178129	-76.202903	96.126514
43545		0.629446	-9.932237	14.003442	11.562828	12.544976	-11.828657	0.366557	1.146993	-0.067821	-0.817383	-0.030518	0.492432	0.007063	-0.099581	0.139813	-0.007816	-0.693627	-0.161433	-0.701968	93.459891	-76.236260	99.102910
43546		4.277993	-7.856686	15.154842	12.910163	11.743895	-7.555680	0.229279	1.786407	1.327152	-0.824951	-0.012695	0.465332	0.044652	-0.078448	0.151065	-0.000925	-0.688417	-0.157721	-0.707958	89.384889	-77.020310	103.428695
43547		3.953310	-7.863530	14.121396	11.800419	11.480429	-7.403929	0.266815	2.527799	2.269851	-0.837158	0.011475	0.438232	0.042203	-0.078354	0.140587	0.009937	-0.680790	-0.150423	-0.716798	82.169375	-78.227949	110.921715
43548		3.357017	-6.142684	12.779371	10.751679	9.462134	-7.137703	0.648078	3.124017	2.695778	-0.851563	0.038086	0.404297	0.036386	-0.061362	0.127041	0.024147	-0.671464	-0.143409	-0.726627	72.011800	-79.337401	121.656404
43549		3.831034	-2.669766	11.988982	10.526435	6.057619	-5.568214	0.967673	3.641478	2.781239	-0.864014	0.064453	0.364014	0.040854	-0.026719	0.119032	0.040008	-0.659477	-0.136607	-0.738125	58.050642	-79.893446	136.353944
43550		4.637783	0.728263	11.534284	10.569093	2.791401	-3.849395	0.948878	4.164787	2.686181	-0.878662	0.095459	0.325684	0.048668	0.007382	0.114380	0.055877	-0.645566	-0.130403	-0.750412	43.006356	-79.562511	152.194991
43551		4.917698	2.145874	10.705516	9.825762	1.174212	-3.070906	0.699669	4.664365	2.479518	-0.890869	0.119873	0.274170	0.051389	0.021715	0.105949	0.070339	-0.628718	-0.123162	-0.764590	29.151282	-78.166697	166.661901
43552		4.967421	2.295010	9.571252	8.496245	0.624461	-2.815962	0.460923	5.064776	2.194786	-0.900635	0.137451	0.227051	0.051823	0.023292	0.094472	0.083264	-0.610329	-0.116225	-0.779139	19.218549	-76.028672	177.121976
43553		5.372247	2.296839	8.728674	7.275134	0.242559	-2.241826	0.313353	5.343803	1.887406	-0.901611	0.157715	0.173340	0.055810	0.023353	0.085850	0.094496	-0.589608	-0.108927	-0.794712	12.384302	-73.280404	-175.664950
43554		6.370098	2.403217	8.431185	6.357471	-0.140218	-1.039141	0.203444	5.568172	1.609886	-0.910889	0.166504	0.119873	0.065819	0.024472	0.082524	0.104479	-0.568041	-0.102342	-0.809901	8.029757	-70.304926	-170.957635
43555		7.002171	2.493790	8.425645	5.691973	-0.487249	-0.139328	0.111152	5.767842	1.386983	-0.913818	0.179932	0.055420	0.072237	0.025388	0.082208	0.113143	-0.544394	-0.095340	-0.825678	5.030941	-67.008465	-167.726370
43556		7.485629	2.392317	8.564074	5.078013	-0.630229	0.621962	0.052614	5.914954	1.199661	-0.907227	0.184814	0.004150	0.077200	0.024359	0.083387	0.121000	-0.520295	-0.088932	-0.840680	3.053078	-63.679190	-165.515455
43557		8.042346	1.959683	8.647741	4.182120	-0.527687	1.389704	0.029384	6.023590	1.008460	-0.898682	0.191650	-0.067139	0.082878	0.019998	0.084009	0.127739	-0.494415	-0.082330	-0.855838	1.682040	-60.147660	-163.995962
43558		8.751649	1.426205	9.046632	3.366021	-0.285230	2.394167	0.058752	6.091563	0.824495	-0.885498	0.196533	-0.122803	0.090157	0.014604	0.087751	0.133852	-0.468442	-0.076643	-0.869926	0.828431	-56.671910	-162.952242
43559		9.538300	0.740837	9.842183	2.629590	0.139624	3.655940	0.117501	6.126952	0.713087	-0.860840	0.195068	-0.187256	0.098311	0.007699	0.095444	0.139293	-0.440972	-0.070966	-0.883802	0.246998	-53.056914	-162.210293
43560		10.559371	0.203793	10.856733	1.837663	0.391868	5.214197	0.193014	6.164072	0.745273	-0.833984	0.195801	-0.240723	0.108864	0.002337	0.105248	0.145123	-0.413676	-0.065877	-0.896366	-0.173768	-49.528678	-161.526878
43561		11.365129	-0.024607	12.054631	1.202780	0.347635	6.704741	0.263569	6.185367	0.889616	-0.793701	0.198975	-0.289795	0.117306	0.000115	0.116956	0.151381	-0.385031	-0.060346	-0.908401	-0.570785	-45.872861	-160.836132
43562		12.329955	-0.005881	13.689097	0.689401	0.055968	8.594680	0.307421	6.206167	1.070629	-0.751221	0.197510	-0.332031	0.127466	0.000410	0.132979	0.158623	-0.356768	-0.054982	-0.918984	-0.939739	-42.312321	-160.049963
43563		13.930837	0.847552	15.859923	0.088663	-1.207925	11.275564	0.336366	6.213776	1.241807	-0.708252	0.189697	-0.363281	0.144090	0.009099	0.154186	0.166301	-0.327270	-0.049039	-0.928888	-1.301831	-38.631248	-159.243169
43564		17.380832	1.757429	18.072333	-2.100011	-3.197220	15.025872	0.278591	6.292302	1.298229	-0.670166	0.192627	-0.387939	0.179260	0.018480	0.175165	0.174232	-0.297990	-0.042979	-0.937549	-1.626641	-35.011177	-158.431638
43565		23.550658	2.380593	18.756838	-7.775483	-6.326793	18.670768	0.046475	6.567626	1.205841	-0.634033	0.186768	-0.401123	0.241346	0.025207	0.179712	0.181008	-0.266416	-0.035391	-0.946048	-1.973737	-31.124356	-157.787206
43566		29.133668	-0.022434	17.120025	-15.605611	-7.103388	19.297304	-0.267452	7.062362	0.835708	-0.608887	0.174072	-0.436523	0.297134	0.001229	0.160774	0.185728	-0.233258	-0.026627	-0.954142	-2.306261	-27.065779	-157.414528
43567		31.770594	-0.719364	13.592842	-21.400369	-8.735763	15.873983	-0.557338	7.489631	0.275179	-0.581543	0.165771	-0.469727	0.322507	-0.006395	0.123928	0.187025	-0.197172	-0.016485	-0.962223	-2.610747	-22.681865	-157.477725
43568		31.381414	-1.819443	7.379934	-25.314133	-8.828234	8.168800	-0.923830	7.576490	-0.231178	-0.556885	0.164063	-0.509766	0.316289	-0.018255	0.061931	0.185479	-0.161450	-0.005199	-0.969280	-3.008397	-18.355392	-157.847833
43569		29.108262	-0.863277	-0.147890	-26.281452	-9.593865	-1.753653	-1.332772	7.086818	-0.575494	-0.536621	0.160156	-0.536621	0.290762	-0.009525	-0.011726	0.181498	-0.127665	0.007494	-0.975040	-3.605824	-14.254944	-158.459746
43570		28.357855	2.845804	-7.055724	-26.413169	-12.776919	-10.737149	-2.097643	6.116380	-0.521512	-0.507813	0.167480	-0.567871	0.281310	0.026920	-0.079472	0.177281	-0.099727	0.022907	-0.978827	-4.683174	-10.784081	-159.025976
43571		29.258366	2.231183	-13.178713	-28.668742	-11.911691	-18.220020	-2.904071	4.942381	-0.143450	-0.485596	0.176758	-0.585938	0.289218	0.020117	-0.139265	0.174388	-0.077749	0.041472	-0.980726	-6.287150	-7.934269	-159.398230
43572		32.432578	-1.147123	-17.608457	-33.254413	-8.916687	-23.143647	-2.924743	3.745590	0.245939	-0.466064	0.195068	-0.610840	0.320971	-0.013707	-0.181927	0.173618	-0.061881	0.059139	-0.981086	-7.945676	-5.790147	-159.526600
43573		36.611944	-2.827112	-21.367792	-37.940571	-7.800491	-27.264529	-2.071524	2.740505	0.448404	-0.448486	0.204346	-0.615723	0.363214	-0.029700	-0.218366	0.174303	-0.050009	0.071809	-0.980796	-9.132525	-4.190009	-159.510913
43574		33.344646	-0.071366	-24.784677	-34.097315	-8.367940	-32.026796	-0.905292	1.537127	0.364340	-0.444092	0.208740	-0.615723	0.331530	-0.001238	-0.250395	0.175292	-0.043147	0.077654	-0.980500	-9.653129	-3.289873	-159.449876
43575		18.710992	-5.337344	-26.567286	-22.307874	1.979272	-33.954950	0.266452	-0.424454	-0.083539	-0.459473	0.199707	-0.608887	0.187651	-0.053098	-0.265346	0.175113	-0.045229	0.075931	-0.980573	-9.501384	-3.560770	-159.453430
43576		12.101494	1.523695	-26.996020	-14.225235	-2.551222	-35.669161	2.664399	-3.538957	-0.700212	-0.483643	0.183594	-0.592773	0.125824	0.018377	-0.267531	0.173570	-0.060520	0.059571	-0.981153	-7.965316	-5.628631	-159.543718
43577		12.780628	16.136684	23.764669	-2.703590	-21.514025	12.951209	0.978654	-4.389576	0.026450	-0.512695	0.178467	-0.565918	0.122517	0.160209	0.241160	0.175279	-0.081514	0.050942	-0.979815	-7.453161	-8.156583	-159.183194
43578		-3.032462	0.824243	21.097287	7.114387	-0.957837	10.271849	1.179573	-3.452756	0.021673	-0.528320	0.177979	-0.548096	-0.033962	0.006997	0.210451	0.176703	-0.097396	0.042115	-0.978528	-6.816460	-10.120850	-158.923285
43579		-1.095739	18.932242	6.448744	8.841152	-17.542874	-5.902063	0.639623	-4.789801	-0.357486	-0.554932	0.170898	-0.516602	-0.012169	0.189137	0.064811	0.176290	-0.120638	0.034462	-0.976310	-6.469421	-12.909364	-158.796412
43580		19.359648	7.909041	16.715698	-10.308465	-14.486615	10.199947	-0.464926	-5.138798	-0.602374	-0.586182	0.165771	-0.485352	0.189458	0.078912	0.171877	0.173883	-0.146214	0.031803	-0.973332	-6.732287	-15.876721	-158.802426
43581		19.412432	0.078957	16.118334	-12.202148	-6.783851	11.202463	0.036103	-4.259793	-1.052339	-0.597412	0.165283	-0.451904	0.190634	-0.000249	0.165269	0.169544	-0.167393	0.026905	-0.970830	-6.596975	-18.414973	-159.117237
43582		15.293287	-10.315748	13.223355	-12.088774	4.752183	8.798403	0.064910	-4.019217	-0.680294	-0.617432	0.164795	-0.434082	0.149883	-0.103714	0.135233	0.166790	-0.186924	0.022584	-0.967848	-6.512922	-20.750201	-159.250744
43583		21.052096	-13.358551	14.391949	-16.962896	6.145815	12.619324	1.322753	-3.580128	-0.523023	-0.623779	0.155762	-0.411621	0.207559	-0.135095	0.146763	0.165990	-0.203596	0.012462	-0.964801	-5.708037	-22.875003	-159.320333
43584		14.969915	0.523030	11.270949	-8.080320	-4.698705	6.435646	1.699236	-2.813456	-0.319987	-0.627930	0.146729	-0.398193	0.148101	0.004023	0.114838	0.166318	-0.215770	0.001578	-0.962174	-4.715735	-24.499943	-159.361468
43585		12.282360	6.056749	11.162099	-3.721150	-8.734348	5.086198	1.418608	-2.378534	-0.460542	-0.630127	0.146729	-0.391602	0.121619	0.059486	0.113497	0.165761	-0.226517	-0.007946	-0.959766	-3.815660	-25.940690	-159.523112
43586		13.220903	3.281661	10.161568	-5.582587	-6.223738	4.982838	0.975354	-1.870444	-0.493685	-0.627930	0.148926	-0.387207	0.131330	0.031992	0.103004	0.164401	-0.234672	-0.014761	-0.957958	-3.145602	-27.030580	-159.767669
43587		8.304705	-0.934168	9.752260	-2.829121	-0.562915	2.702229	0.754260	-1.353516	-0.417966	-0.627930	0.148926	-0.380371	0.082364	-0.009883	0.098045	0.163327	-0.241027	-0.020259	-0.956462	-2.592361	-27.884076	-159.975418
43588		6.601709	-1.442226	10.816089	-0.988148	0.709313	2.882524	0.731753	-1.016391	-0.455125	-0.623535	0.151367	-0.385010	0.065433	-0.014968	0.108440	0.161915	-0.245260	-0.025163	-0.955509	-2.043049	-28.479559	-160.246213
43589		6.509671	-0.960028	10.194187	-0.964691	0.341626	2.277398	0.710405	-0.678429	-0.427159	-0.623779	0.153564	-0.395996	0.064729	-0.010101	0.102127	0.160804	-0.248399	-0.029907	-0.954749	-1.491687	-28.942814	-160.494329
43590		7.430049	0.607198	10.340250	-1.115615	-1.279175	2.821128	0.575489	-0.446796	-0.367130	-0.621582	0.157959	-0.400635	0.074080	0.005638	0.103585	0.159687	-0.250035	-0.033495	-0.954390	-1.045025	-29.206525	-160.730478
43591		6.779923	0.086577	8.960614	-1.365780	-0.707397	1.318409	0.415756	-0.209008	-0.375867	-0.624023	0.160156	-0.409668	0.067707	0.000552	0.089678	0.158523	-0.251163	-0.036392	-0.954182	-0.669509	-29.396352	-160.959036
43592		6.666831	0.626992	8.737804	-1.207206	-1.161129	1.067717	0.342173	-0.066155	-0.311489	-0.624023	0.162598	-0.422852	0.066649	0.006017	0.087411	0.157442	-0.251173	-0.038495	-0.954276	-0.369806	-29.439060	-161.165604
43593		5.506167	0.654128	9.035029	-0.100651	-0.766907	0.759878	0.224927	-0.038814	-0.243229	-0.631104	0.171387	-0.434082	0.055052	0.006373	0.090368	0.156703	-0.251660	-0.040183	-0.954200	-0.143993	-29.528832	-161.309806
43594		5.777510	0.207710	8.589623	-0.679339	-0.456794	0.508851	0.178543	-0.078118	-0.229349	-0.633789	0.180176	-0.443359	0.057744	0.001934	0.085921	0.155806	-0.251870	-0.041411	-0.954239	0.036051	-29.576975	-161.462951
43595		5.796993	-0.394166	8.504031	-0.916362	0.128318	0.445129	0.137485	-0.095751	-0.193152	-0.640625	0.180176	-0.456543	0.057925	-0.004056	0.085065	0.155181	-0.252699	-0.042664	-0.954066	0.196582	-29.697786	-161.575299
43596		5.821243	0.666136	8.208314	-0.734028	-0.907468	0.204532	0.112941	-0.119030	-0.150015	-0.649658	0.182129	-0.463135	0.058169	0.006571	0.082121	0.154571	-0.253172	-0.043512	-0.954001	0.313867	-29.768940	-161.676808
43597		5.622148	0.714909	8.621007	-0.343756	-0.808370	0.466892	0.083224	-0.120839	-0.092396	-0.652100	0.188721	-0.474365	0.056173	0.007087	0.086247	0.154351	-0.254180	-0.044396	-0.953728	0.410979	-29.903602	-161.723767
43598		4.443734	0.323428	8.908589	0.645813	-0.055433	0.126838	0.069820	-0.113851	-0.055249	-0.672363	0.190674	-0.478760	0.044387	0.003191	0.089112	0.154138	-0.254681	-0.044915	-0.953604	0.472855	-29.972007	-161.763087
43599		4.876065	-0.181501	8.714973	0.056534	0.292506	0.170846	0.073510	-0.116009	-0.043375	-0.679443	0.197266	-0.483398	0.048710	-0.001858	0.087177	0.154137	-0.255675	-0.045685	-0.953302	0.548741	-30.102882	-161.778558
43600		4.613792	-0.310982	8.634678	0.202012	0.485109	-0.031824	0.057925	-0.122593	-0.061850	-0.695313	0.199219	-0.492188	0.046084	-0.003149	0.086374	0.153876	-0.256226	-0.046162	-0.953173	0.606309	-30.176263	-161.822595
43601		5.501206	0.105871	8.145590	-0.608013	-0.212063	-0.003995	0.087138	-0.140239	-0.083818	-0.700195	0.208008	-0.494629	0.054955	0.001000	0.081495	0.153687	-0.257304	-0.047060	-0.952869	0.703327	-30.319379	-161.866018
43602		5.723953	-0.063904	8.234199	-0.793485	-0.080458	0.183994	0.078420	-0.117851	-0.078929	-0.708984	0.205566	-0.494629	0.057191	-0.000694	0.082375	0.153372	-0.257813	-0.047654	-0.952753	0.778689	-30.389891	-161.921711
43603		4.973135	-0.131091	8.554914	-0.029035	0.258767	0.080138	0.075117	-0.120528	-0.087556	-0.720703	0.214111	-0.499023	0.049679	-0.001365	0.085579	0.153152	-0.258801	-0.048481	-0.952479	0.870165	-30.521040	-161.968306
43604		4.646567	-0.212104	8.831501	0.352902	0.485133	0.150799	0.084845	-0.111000	-0.089680	-0.734131	0.216064	-0.503418	0.046416	-0.002179	0.088340	0.152795	-0.259270	-0.049114	-0.952376	0.953184	-30.587471	-162.031455
43605		4.386681	0.117832	8.798903	0.669530	0.255309	-0.006358	0.080058	-0.089352	-0.082427	-0.733887	0.209473	-0.499023	0.043828	0.001125	0.088009	0.152608	-0.260096	-0.049927	-0.952139	1.045491	-30.699357	-162.075301
43606		4.606508	0.261433	8.642207	0.465363	0.045922	-0.027120	0.055582	-0.083862	-0.075313	-0.747803	0.220459	-0.499023	0.046030	0.002573	0.086442	0.152288	-0.260461	-0.050382	-0.952066	1.107037	-30.750322	-162.128888
43607		5.376149	0.398469	8.207175	-0.314983	-0.347950	-0.004570	0.041917	-0.094708	-0.060267	-0.759033	0.222412	-0.499023	0.053724	0.003951	0.082098	0.152150	-0.261335	-0.050983	-0.951817	1.170076	-30.863892	-162.158963
43608		5.066962	0.289531	8.385454	-0.002490	-0.122748	-0.011735	0.025056	-0.114760	-0.041263	-0.761230	0.217773	-0.496826	0.050622	0.002874	0.083884	0.151944	-0.261880	-0.051272	-0.951684	1.202952	-30.932951	-162.190474
43609		5.338752	0.189728	8.358661	-0.250297	-0.091140	0.103689	0.017587	-0.120464	-0.044168	-0.765869	0.222168	-0.499023	0.053338	0.001878	0.083619	0.151841	-0.262892	-0.051754	-0.951396	1.246895	-31.060602	-162.210841
43610		4.782167	0.076567	8.493539	0.244306	0.193954	-0.070107	0.005444	-0.131639	-0.061377	-0.768066	0.224365	-0.494629	0.047766	0.000749	0.084967	0.151510	-0.263526	-0.051989	-0.951260	1.275822	-31.139120	-162.256246
43611		5.047082	0.026320	8.596809	0.082635	0.205050	0.153754	0.018807	-0.139755	-0.079654	-0.768066	0.224365	-0.492432	0.050411	0.000235	0.086003	0.151230	-0.264611	-0.052533	-0.950974	1.332922	-31.276323	-162.301402
43612		5.736933	0.312589	8.124209	-0.605909	-0.319465	0.114229	0.008411	-0.172841	-0.101958	-0.779785	0.235352	-0.490479	0.057301	0.003093	0.081292	0.150698	-0.265429	-0.052868	-0.950812	1.378353	-31.377906	-162.374951
43613		4.715830	0.426186	8.308474	0.372760	-0.114371	-0.257617	0.001985	-0.164200	-0.089029	-0.779785	0.232910	-0.479248	0.047092	0.004240	0.083123	0.150340	-0.266634	-0.053360	-0.950503	1.429561	-31.528138	-162.427628
43614		4.141910	0.200156	9.020784	1.133748	0.386059	0.043050	-0.020006	-0.197137	-0.077310	-0.783936	0.226318	-0.476807	0.041331	0.001995	0.090248	0.149881	-0.267595	-0.053546	-0.950296	1.450752	-31.643976	-162.485411
43615		4.712554	0.150221	8.881590	0.615699	0.274865	0.220193	-0.041957	-0.252601	-0.067832	-0.781982	0.232910	-0.470459	0.047014	0.001505	0.088875	0.149536	-0.269245	-0.053862	-0.949866	1.470465	-31.843538	-162.526339
43616		4.554062	0.450163	8.737201	0.793389	0.011426	0.018444	-0.066105	-0.298622	-0.052448	-0.784180	0.232910	-0.465820	0.045411	0.004519	0.087438	0.149105	-0.270728	-0.053872	-0.949511	1.457760	-32.017922	-162.569384
43617		4.908320	0.564718	8.641342	0.535798	-0.193480	0.125052	-0.085736	-0.375565	-0.038570	-0.790527	0.226074	-0.458984	0.048922	0.005675	0.086503	0.148800	-0.272989	-0.054028	-0.948903	1.443316	-32.286862	-162.593507
43618		5.498664	0.492672	8.364183	-0.059270	-0.318222	0.203930	-0.113495	-0.476445	-0.012687	-0.795410	0.232666	-0.454834	0.054788	0.004971	0.083770	0.148443	-0.275360	-0.053892	-0.948281	1.390965	-32.563766	-162.612637
43619		4.794185	0.562675	8.563183	0.689185	-0.160425	-0.008201	-0.154565	-0.547944	0.010488	-0.792969	0.226074	-0.445801	0.047707	0.005695	0.085758	0.148223	-0.278491	-0.053781	-0.947407	1.320853	-32.931167	-162.606533
43620		4.709011	0.374445	8.818559	0.892290	0.091150	0.151101	-0.191465	-0.676936	0.025284	-0.802002	0.228027	-0.438965	0.046791	0.003835	0.088341	0.147881	-0.281876	-0.053371	-0.946482	1.211118	-33.323509	-162.602018
43621		4.985349	0.284953	8.703267	0.668371	0.096344	0.198566	-0.201223	-0.807406	0.033562	-0.799561	0.228027	-0.432373	0.049501	0.002946	0.087230	0.147625	-0.286255	-0.053195	-0.945217	1.106913	-33.838385	-162.583125
43622		4.556804	-0.026019	8.744636	1.022045	0.514779	-0.018634	-0.217445	-0.935116	0.025409	-0.804199	0.230225	-0.421387	0.045159	-0.000159	0.087658	0.147170	-0.290870	-0.052852	-0.943897	0.982976	-34.378683	-162.579918
43623		5.029811	-0.051539	8.939006	0.856738	0.476433	0.397375	-0.213025	-1.111678	-0.000339	-0.815674	0.234375	-0.410400	0.049800	-0.000420	0.089668	0.146642	-0.296659	-0.052887	-0.942174	0.885788	-35.065992	-162.586569
43624		4.703107	-0.092445	9.102101	1.310918	0.646018	0.328253	-0.216701	-1.292901	-0.015858	-0.819824	0.229736	-0.399170	0.046441	-0.000829	0.091323	0.145888	-0.302930	-0.052868	-0.940295	0.779732	-35.810975	-162.613544
43625		4.096142	-0.300641	9.342269	1.996039	1.065332	0.138479	-0.232798	-1.479448	-0.023014	-0.829102	0.236328	-0.385742	0.040269	-0.002902	0.093726	0.145103	-0.310415	-0.053104	-0.937959	0.681354	-36.707114	-162.638060
43626		5.061423	-0.174621	9.096472	1.317191	0.699309	0.491080	-0.206430	-1.704502	-0.020650	-0.831055	0.227295	-0.370117	0.049836	-0.001657	0.091393	0.144216	-0.318575	-0.053434	-0.935338	0.584333	-37.688019	-162.669119
43627		5.413428	0.271782	8.570847	1.070397	0.134400	0.270541	-0.202811	-1.926214	0.003110	-0.846924	0.233643	-0.347900	0.053305	0.002806	0.086222	0.143448	-0.328070	-0.054076	-0.932131	0.492164	-38.838136	-162.676007
43628		5.797643	0.755807	8.756559	1.249039	-0.335770	0.636430	-0.241967	-2.169190	0.062460	-0.855469	0.226563	-0.327881	0.057020	0.007682	0.088178	0.142735	-0.338383	-0.054431	-0.928526	0.335689	-40.085774	-162.644028
43629		5.790999	0.225911	8.698054	1.300248	0.212523	0.555612	-0.215770	-2.428641	0.113752	-0.866943	0.230713	-0.305664	0.056847	0.002386	0.087673	0.142281	-0.350157	-0.055175	-0.924176	0.179163	-41.522541	-162.563471
43630		5.279515	-0.054875	9.218187	2.173053	0.759660	0.557697	-0.162735	-2.751604	0.107176	-0.880371	0.228271	-0.281006	0.051521	-0.000446	0.092897	0.141707	-0.363017	-0.056220	-0.919226	0.037143	-43.103836	-162.487301
43631		4.767156	-1.259668	9.998481	2.980054	2.262752	0.688329	-0.122069	-3.133669	0.069607	-0.889160	0.225830	-0.245605	0.046102	-0.012519	0.100723	0.140953	-0.377799	-0.057951	-0.913259	-0.053102	-44.942217	-162.430381
43632		4.472942	-0.650357	10.241213	3.860008	1.892631	0.522591	-0.040700	-3.521487	-0.020365	-0.909180	0.223145	-0.211914	0.042916	-0.006487	0.103180	0.139730	-0.393876	-0.060309	-0.906477	-0.061757	-46.964583	-162.447276
43633		5.424258	-1.481120	10.082768	3.271809	2.581652	0.952545	-0.004213	-4.117818	-0.086276	-0.917725	0.216064	-0.165283	0.052145	-0.014832	0.101916	0.138093	-0.412717	-0.063513	-0.898087	0.008258	-49.363202	-162.520711
43634		4.392292	-2.212852	10.815495	4.662640	3.807641	0.429358	0.230490	-4.760114	-0.207877	-0.935547	0.211182	-0.114014	0.041310	-0.022298	0.109133	0.136074	-0.433780	-0.068278	-0.888064	0.300155	-52.094955	-162.723812
43635		5.419052	-1.199109	11.063870	5.064992	2.924230	1.094556	0.225222	-5.585533	-0.402303	-0.937500	0.204346	-0.062744	0.051049	-0.012222	0.112080	0.133458	-0.458292	-0.074277	-0.875580	0.780070	-55.322592	-163.076020
43636		5.819804	-3.033052	12.102268	5.731770	5.122767	1.605514	0.282219	-6.380150	-0.548946	-0.954834	0.190430	0.010986	0.054216	-0.030655	0.122752	0.129255	-0.485623	-0.081022	-0.860755	1.550038	-58.975789	-163.796609
43637		5.766220	-1.159604	12.441568	7.308319	3.746581	1.226097	0.523413	-7.224843	-0.672408	-0.954590	0.187988	0.088623	0.053080	-0.012109	0.126357	0.124928	-0.515939	-0.089773	-0.842699	2.839390	-63.124661	-164.879373
43638		10.306026	-1.112088	13.897134	7.489231	3.955773	5.309922	0.205941	-7.739757	-0.655678	-0.936035	0.181396	0.164063	0.097545	-0.011593	0.142806	0.119122	-0.547760	-0.097130	-0.822396	4.390792	-67.531755	-166.452715
43639		13.079660	-0.802882	14.389429	8.177802	4.029431	7.376337	0.089998	-7.973221	-0.785546	-0.924316	0.168213	0.242188	0.124892	-0.008593	0.148949	0.112323	-0.579784	-0.104507	-0.800195	6.898553	-72.055951	-169.039288
43640		13.600737	0.359073	13.820047	9.126745	3.162592	6.998384	-0.612165	-7.827676	-0.716482	-0.905762	0.161621	0.324219	0.130475	0.003550	0.143369	0.103501	-0.610642	-0.108481	-0.777584	10.390732	-76.435269	-173.026704
43641		18.383325	-0.020680	16.351272	11.655127	4.551633	11.364228	-0.732411	-7.582211	-0.761952	-0.885254	0.155273	0.388672	0.177460	-0.000276	0.170323	0.094168	-0.639711	-0.111927	-0.754569	17.197315	-80.572071	179.619225
43642		14.118717	-1.687718	16.484633	13.337327	6.562339	6.086169	-0.654439	-7.171280	-1.072116	-0.850830	0.142334	0.457520	0.135065	-0.017062	0.169819	0.083953	-0.666073	-0.116220	-0.731978	34.234832	-84.051414	162.061640
43643		13.161068	-2.965104	14.669085	12.331854	7.594466	3.872391	-0.159174	-6.669008	-1.625693	-0.820801	0.122803	0.502197	0.126377	-0.030574	0.150988	0.073593	-0.689220	-0.123865	-0.710082	75.494811	-85.588606	120.569385
43644		9.733302	6.288057	22.501134	23.201456	0.970393	0.247444	-0.300621	-5.505313	-2.492470	-0.797363	0.094238	0.540527	0.091870	0.062054	0.227497	0.060264	-0.707040	-0.133386	-0.691860	109.609722	-83.945883	86.153053
43645		32.120861	10.582632	38.380624	40.248980	3.821160	21.526907	-1.883986	-2.363950	-3.387092	-0.793701	0.061035	0.543457	0.318422	0.104051	0.386595	0.040303	-0.713286	-0.139551	-0.685656	112.882409	-81.644848	81.769573
43646		4.563879	-7.227112	26.051052	23.581311	13.838987	-7.788329	-2.435846	0.309297	-3.414142	-0.799316	0.025391	0.533203	0.044836	-0.069862	0.261301	0.020117	-0.710202	-0.143313	-0.688963	106.443944	-79.857134	86.880583
43647		-1.919533	-13.523564	16.607739	13.137910	16.236793	-14.924788	-1.314933	0.831525	-3.169257	-0.800293	-0.008057	0.522949	-0.020630	-0.133820	0.167044	0.005171	-0.704886	-0.149921	-0.693277	100.914928	-78.212749	91.744429
43648		-1.044365	-13.097121	14.397038	11.231011	15.343419	-14.095284	-0.366533	0.972010	-2.371001	-0.804199	-0.023682	0.507568	-0.011293	-0.130576	0.144263	-0.003614	-0.699716	-0.156997	-0.696948	97.254350	-76.955901	95.279986
43649		0.667729	-10.866918	13.741244	11.061211	13.432598	-11.950965	0.077842	1.228010	-1.111567	-0.810791	-0.025879	0.487793	0.006916	-0.108761	0.137328	-0.006144	-0.694287	-0.161075	-0.701415	93.893438	-76.406344	98.775063
