// General information: 
//  MT Manager version: 2019.2.0 
//  XDA version: 2019.2.0 build 3853 rev 94535 built on 2019-09-09
// Device information: 
//  DeviceId: 00B40AC7
//  ProductCode: MTW2-3A7G6
//  Firmware Version: 4.6.0
//  Hardware Version: 1.1.0
// Device settings: 
//  Filter Profile: human(46.1)
//  Option Flags: Orientation Smoother Disabled, AHS Disabled, ICC Disabled
// Coordinate system: ENU
PacketCounter	SampleTimeFine	Acc_X	Acc_Y	Acc_Z	FreeAcc_E	FreeAcc_N	FreeAcc_U	Gyr_X	Gyr_Y	Gyr_Z	Mag_X	Mag_Y	Mag_Z	VelInc_X	VelInc_Y	VelInc_Z	Quat_q0	Quat_q1	Quat_q2	Quat_q3	Roll	Pitch	Yaw
37109		9.165866	1.359468	0.675284	3.106080	2.349713	-1.378279	0.261893	-1.999456	2.945817	-0.541504	-0.708740	-0.229980	0.091372	0.014932	0.007686	0.687466	0.504572	-0.292357	0.432810	54.025904	-57.007216	33.437754
37110		9.489004	1.354147	0.785078	2.994810	2.175473	-0.936922	0.252217	-2.040392	3.069044	-0.564209	-0.691162	-0.221680	0.094581	0.014984	0.008835	0.677068	0.505313	-0.306524	0.438499	54.038916	-59.118816	33.596366
37111		9.842726	1.400568	1.139001	2.822282	1.762271	-0.375771	0.269634	-2.075549	3.162029	-0.600586	-0.673828	-0.211182	0.098064	0.015542	0.012429	0.666100	0.505875	-0.320961	0.444281	54.027159	-61.292732	33.790158
37112		10.606569	1.819309	1.906010	2.436216	1.067637	0.786956	0.289328	-2.105236	3.228625	-0.636963	-0.651855	-0.196289	0.105545	0.019871	0.020201	0.654671	0.506270	-0.335441	0.450084	53.988555	-63.500111	34.024278
37113		11.267258	2.130197	2.588951	2.039747	0.370397	1.757815	0.274002	-2.111232	3.282253	-0.664307	-0.632080	-0.177002	0.112021	0.023107	0.027105	0.642874	0.506347	-0.350049	0.455841	53.885358	-65.741776	34.313397
37114		11.582196	2.516693	3.183416	1.397204	-0.352869	2.374158	0.242083	-2.133335	3.340956	-0.691895	-0.605713	-0.168945	0.115032	0.027053	0.033096	0.630763	0.506071	-0.364748	0.461507	53.694840	-68.010174	34.674712
37115		11.581495	2.423589	3.345558	1.075737	-0.776052	2.410986	0.245375	-2.156694	3.411811	-0.725830	-0.585938	-0.147461	0.115010	0.026160	0.034730	0.618150	0.505526	-0.379610	0.467151	53.409885	-70.326404	35.131510
37116		11.455812	2.437873	3.308704	0.612992	-1.026151	2.298360	0.342068	-2.183055	3.483725	-0.751465	-0.552979	-0.130615	0.113741	0.026307	0.034375	0.604850	0.504993	-0.394286	0.472945	53.039753	-72.675888	35.731661
37117		11.992482	2.934971	3.361237	-0.166029	-1.239892	2.920891	0.440326	-2.184527	3.512665	-0.785889	-0.526611	-0.111572	0.119009	0.031369	0.034983	0.590931	0.504488	-0.408698	0.478809	52.548821	-75.045633	36.507389
37118		12.920814	3.329732	3.319634	-0.812238	-1.336561	3.846824	0.390852	-2.129797	3.521793	-0.804688	-0.495850	-0.092529	0.128232	0.035494	0.034633	0.577012	0.503467	-0.422853	0.484535	51.659441	-77.389496	37.656710
37119		13.548058	3.222686	3.081900	-1.081480	-1.320840	4.346811	0.250171	-2.060324	3.541168	-0.830078	-0.465088	-0.071289	0.134555	0.034575	0.032251	0.563260	0.501616	-0.437076	0.489983	50.015976	-79.718336	39.481439
37120		13.804255	2.759492	2.760852	-1.085205	-1.277342	4.433600	0.231504	-2.028701	3.575277	-0.846924	-0.427734	-0.056885	0.137231	0.030020	0.029037	0.549343	0.499348	-0.451098	0.495363	47.158563	-82.026342	42.512380
37121		14.080468	2.655759	2.465986	-1.461537	-1.257580	4.597255	0.349075	-1.998574	3.616306	-0.870361	-0.396729	-0.037598	0.140038	0.029050	0.026111	0.534822	0.497021	-0.464710	0.500979	41.725370	-84.307549	48.186740
37122		14.498507	3.308381	2.397338	-2.599158	-1.460796	4.951399	0.470511	-1.964454	3.598257	-0.889160	-0.361572	-0.012207	0.144114	0.035623	0.025474	0.519936	0.494763	-0.477628	0.506703	29.351742	-86.437334	60.871948
37123		14.828785	4.317043	2.253821	-4.112367	-1.620326	5.155270	0.480965	-1.940516	3.503516	-0.903564	-0.333008	0.000488	0.147273	0.045700	0.024078	0.505062	0.492489	-0.490075	0.512048	-7.270526	-88.003268	97.809215
37124		15.022525	4.734594	2.121056	-5.029315	-1.807141	5.153943	0.460892	-1.926520	3.353011	-0.913818	-0.295410	0.028076	0.149190	0.049802	0.022764	0.490500	0.490304	-0.501923	0.516803	-67.898388	-87.661739	158.739906
37125		15.169062	5.486831	2.293954	-6.252253	-2.312595	5.053354	0.459244	-1.883311	3.141486	-0.930420	-0.264648	0.040527	0.150579	0.057184	0.024491	0.476382	0.488354	-0.513017	0.520946	-92.772802	-86.026036	-176.086242
37126		14.898123	6.161405	3.145529	-7.312555	-3.481257	4.476900	0.370059	-1.740895	2.939233	-0.933350	-0.235840	0.059814	0.147773	0.063732	0.032862	0.463260	0.486187	-0.523299	0.524567	-101.717075	-84.223574	-166.894827
37127		14.522785	6.638920	3.552848	-8.112604	-4.158774	3.769586	0.242883	-1.555477	2.669792	-0.938965	-0.204834	0.076660	0.144042	0.068273	0.036734	0.451482	0.483807	-0.532733	0.527532	-105.934136	-82.518300	-162.508412
37128		14.028181	7.714610	3.644207	-9.427837	-4.482925	2.859638	0.120161	-1.418791	2.329965	-0.941895	-0.180664	0.089355	0.139107	0.078749	0.037479	0.441198	0.481597	-0.541203	0.529631	-108.515913	-81.001235	-159.827235
37129		13.102321	8.723024	3.466084	-10.546685	-4.455628	1.530990	-0.134950	-1.226409	1.979316	-0.937988	-0.167236	0.102295	0.129936	0.088543	0.035400	0.432878	0.479182	-0.549027	0.530633	-110.304925	-79.692702	-158.089441
37130		12.170887	9.100165	3.425791	-10.961928	-4.471417	0.312288	-0.425310	-1.011589	1.604681	-0.942627	-0.156250	0.102051	0.120798	0.092047	0.034675	0.426814	0.476545	-0.556161	0.530491	-111.667907	-78.625607	-156.946697
37131		11.500862	8.923193	3.325130	-10.819862	-4.375689	-0.499807	-0.545953	-0.856886	1.218295	-0.952148	-0.143066	0.117188	0.114319	0.090021	0.033497	0.422442	0.474274	-0.562346	0.529504	-112.910345	-77.789369	-155.995416
37132		10.794678	8.945879	3.135523	-10.817285	-4.160154	-1.323698	-0.495328	-0.718214	0.855992	-0.945801	-0.132080	0.119141	0.107449	0.089997	0.031519	0.419295	0.472741	-0.567191	0.528207	-114.025068	-77.174429	-155.141092
37133		10.221788	8.634116	3.154970	-10.462812	-4.147451	-1.918748	-0.390453	-0.565361	0.489291	-0.947998	-0.129883	0.118896	0.101917	0.086652	0.031669	0.417279	0.472053	-0.570573	0.526774	-115.038350	-76.781831	-154.328620
37134		10.306858	7.809432	3.184237	-9.704929	-4.203419	-1.719270	-0.262058	-0.392522	0.131460	-0.943604	-0.131836	0.123535	0.102955	0.078204	0.031942	0.416402	0.472190	-0.572388	0.525375	-115.919695	-76.615811	-153.574075
37135		11.158054	6.672053	3.720255	-8.758261	-4.843999	-0.719435	-0.101174	-0.189222	-0.191302	-0.943359	-0.136230	0.125732	0.111609	0.066633	0.037274	0.416569	0.473055	-0.572602	0.524229	-116.608098	-76.664215	-152.923938
37136		10.515627	6.912161	5.505845	-8.790433	-6.562061	-1.546019	0.173213	0.121190	-0.554511	-0.947754	-0.140625	0.121582	0.105381	0.068782	0.055054	0.417930	0.474710	-0.570579	0.523856	-116.863890	-76.977861	-152.556107
37137		10.863420	8.770651	7.196759	-10.557570	-8.287504	-1.652807	0.539282	0.446413	-0.971331	-0.936279	-0.149414	0.126221	0.109218	0.086983	0.071959	0.420433	0.477467	-0.565915	0.524406	-116.670443	-77.589111	-152.434778
37138		12.001481	8.382008	9.491476	-10.173977	-10.681672	-0.497883	0.825930	0.817236	-1.389267	-0.944580	-0.167236	0.115479	0.120979	0.082590	0.094764	0.424370	0.480998	-0.558689	0.525754	-115.889563	-78.508833	-152.746053
37139		14.072729	0.920450	7.954041	-3.003847	-9.138469	3.210734	0.896134	1.223806	-1.721150	-0.939697	-0.180420	0.102539	0.141281	0.007636	0.078714	0.430104	0.484504	-0.549544	0.527511	-114.266736	-79.699888	-153.871171
37140		14.450393	-11.722877	0.675393	9.375502	-1.339817	6.218124	1.309112	1.120249	-1.368438	-0.937256	-0.191406	0.098389	0.143729	-0.118251	0.005176	0.433566	0.488123	-0.540331	0.530847	-111.894331	-80.671751	-155.514367
37141		13.115280	-10.021449	1.258888	8.106043	-1.590274	4.532303	1.677092	0.807876	-1.057407	-0.932373	-0.200195	0.096436	0.130667	-0.101004	0.011216	0.434412	0.492486	-0.531496	0.535029	-109.566258	-81.403178	-156.893431
37142		12.988109	1.642096	4.845960	-2.978373	-5.638471	2.605114	1.432143	0.824298	-1.355831	-0.934082	-0.215576	0.094727	0.130185	0.015194	0.048035	0.436650	0.496993	-0.522503	0.537889	-107.354392	-82.288745	-158.295748
37143		12.407007	7.144802	3.882062	-8.194945	-4.975424	1.506892	0.992226	0.905050	-1.728351	-0.927002	-0.230957	0.092773	0.124855	0.070179	0.038607	0.441141	0.501256	-0.513508	0.538931	-105.042434	-83.385454	-160.046941
37144		11.289130	3.029895	1.257980	-4.014085	-1.913233	1.069848	0.699613	0.684717	-1.794618	-0.922119	-0.244141	0.086670	0.113199	0.029241	0.012296	0.445931	0.505563	-0.505585	0.538456	-103.473684	-84.478027	-161.218230
37145		10.020960	1.430900	-1.256073	-2.367336	0.835572	0.073658	0.603948	0.456898	-1.766737	-0.926025	-0.266113	0.084961	0.100302	0.013462	-0.012748	0.450263	0.510174	-0.498419	0.537182	-102.884324	-85.525045	-161.455515
37146		9.160063	0.605166	-2.089156	-1.414720	1.815465	-0.683704	0.708559	0.399640	-1.756421	-0.916504	-0.283691	0.076416	0.091608	0.005322	-0.021055	0.454121	0.515077	-0.491110	0.535986	-102.486608	-86.556532	-161.444110
37147		8.554745	1.545860	-2.035193	-2.179091	1.715491	-1.326068	0.780213	0.415489	-1.598996	-0.911865	-0.288086	0.076660	0.085625	0.014854	-0.020471	0.457369	0.519689	-0.483907	0.535323	-101.235567	-87.504079	-162.242737
37148		9.185458	3.336321	-0.285910	-3.663788	-0.194916	-0.750543	0.557615	0.506427	-1.419590	-0.906738	-0.307861	0.079346	0.092081	0.032718	-0.003000	0.460903	0.523055	-0.477550	0.534723	-96.551674	-88.352767	-166.606753
37149		9.934706	3.978468	1.218221	-4.017914	-1.711944	0.032826	0.076452	0.628689	-1.349248	-0.897461	-0.323242	0.071045	0.099650	0.039109	0.011884	0.465770	0.524809	-0.472323	0.533427	-78.804442	-89.122742	175.692553
37150		9.494341	2.182883	0.731039	-2.166976	-0.935607	-0.332761	-0.355193	0.632068	-1.330139	-0.899170	-0.334229	0.064697	0.095108	0.021209	0.006972	0.471702	0.525451	-0.468292	0.531132	-10.687027	-89.463144	107.370914
37151		9.493820	0.819902	0.884988	-0.683455	-0.855978	-0.305485	-0.404880	0.531856	-1.245998	-0.892090	-0.349609	0.060547	0.095010	0.007625	0.008581	0.477280	0.526042	-0.464793	0.528632	36.509812	-88.966667	59.945359
37152		10.277610	1.926227	1.859810	-1.556996	-1.868227	0.525713	-0.374924	0.493669	-1.201770	-0.887207	-0.360840	0.047607	0.102935	0.018679	0.018309	0.482552	0.526651	-0.461433	0.526176	49.409296	-88.288263	46.830665
37153		10.465004	0.793239	1.254879	-0.379259	-1.072835	0.695593	-0.345129	0.464072	-1.205233	-0.879883	-0.378174	0.048096	0.104724	0.007323	0.012293	0.487665	0.527419	-0.458001	0.523685	55.198194	-87.577213	40.847086
37154		10.168683	-0.454933	0.733937	0.907865	-0.376399	0.345103	-0.267083	0.381134	-1.107209	-0.881836	-0.393799	0.043945	0.101673	-0.005103	0.007152	0.492106	0.528325	-0.454842	0.521366	58.523162	-86.927995	37.368259
37155		10.390630	0.520946	1.886062	0.173253	-1.566362	0.642416	-0.143927	0.341452	-1.083652	-0.874756	-0.404785	0.039795	0.103965	0.004660	0.018680	0.496053	0.529589	-0.451470	0.519270	60.938305	-86.291393	34.873394
37156		10.333473	0.206737	1.315182	0.531593	-0.924769	0.551394	-0.042841	0.305014	-1.092063	-0.874512	-0.409180	0.035645	0.103364	0.001506	0.012994	0.499656	0.531177	-0.447925	0.517261	62.948940	-85.658326	32.836332
37157		9.919291	0.181362	1.206335	0.624246	-0.789964	0.130440	-0.031294	0.297924	-1.043372	-0.865234	-0.424316	0.035889	0.099218	0.001298	0.011915	0.503071	0.532708	-0.444447	0.515373	64.358109	-85.044884	31.411580
37158		9.973513	1.142582	1.162125	-0.230176	-0.797081	0.258940	-0.011638	0.334412	-1.028309	-0.862549	-0.435547	0.027344	0.099811	0.010913	0.011454	0.506461	0.534123	-0.440890	0.513640	65.229077	-84.431450	30.533368
37159		10.107610	1.235607	0.408385	-0.289426	-0.005338	0.374193	-0.003732	0.360943	-0.990865	-0.860107	-0.444336	0.025391	0.101143	0.011855	0.003901	0.509779	0.535414	-0.437295	0.512084	65.723275	-83.827003	30.041382
37160		9.955892	1.692762	0.514779	-0.652453	-0.117961	0.277396	0.008406	0.369749	-0.923272	-0.848389	-0.457520	0.021484	0.099645	0.016468	0.004964	0.512897	0.536529	-0.433854	0.510729	65.962595	-83.258838	29.808516
37161		9.780324	1.973715	0.246027	-0.890105	0.156395	0.126797	0.017132	0.364497	-0.860946	-0.845947	-0.466309	0.014893	0.097891	0.019316	0.002284	0.515812	0.537552	-0.430524	0.509534	66.079261	-82.721019	29.707495
37162		9.850782	1.756039	-0.140004	-0.628343	0.607035	0.156127	-0.003618	0.323204	-0.798292	-0.839111	-0.472900	0.015137	0.098574	0.017167	-0.001560	0.518520	0.538462	-0.427550	0.508328	66.220946	-82.229000	29.565629
37163		10.190916	2.144791	-0.133541	-0.895106	0.626784	0.544824	-0.184599	0.297786	-0.767293	-0.836670	-0.481445	0.015381	0.101988	0.021055	-0.001507	0.521579	0.538908	-0.425142	0.506743	66.288012	-81.755518	29.397264
37164		10.502201	1.955304	-0.224372	-0.603845	0.802303	0.825019	-0.433542	0.318668	-0.723409	-0.825195	-0.488281	0.000244	0.105088	0.019168	-0.002453	0.525226	0.538531	-0.423456	0.504784	66.065534	-81.303789	29.374201
37165		10.384703	2.081660	0.333784	-0.618118	0.277144	0.762157	-0.502091	0.310299	-0.686585	-0.824951	-0.499268	-0.003906	0.103923	0.020468	0.003125	0.528944	0.537923	-0.422020	0.502748	65.788762	-80.869716	29.369164
37166		10.009357	1.738948	0.395297	-0.263279	0.261628	0.347490	-0.465056	0.297430	-0.637322	-0.820068	-0.505859	-0.010498	0.100154	0.017079	0.003764	0.532394	0.537315	-0.420686	0.500873	65.514984	-80.467991	29.379737
37167		9.729785	1.382370	0.719599	0.132808	-0.015135	0.040195	-0.353975	0.280082	-0.571923	-0.808838	-0.510254	-0.014648	0.097347	0.013558	0.007036	0.535349	0.536912	-0.419255	0.499352	65.276723	-80.100721	29.420824
37168		9.844725	1.457982	1.052266	0.153641	-0.306817	0.188990	-0.246269	0.265821	-0.520803	-0.808350	-0.523682	-0.025391	0.098499	0.014336	0.010374	0.537839	0.536707	-0.417759	0.498148	65.082462	-79.767192	29.477977
37169		9.994585	1.030012	0.699955	0.614519	0.120287	0.239687	-0.176105	0.267943	-0.481084	-0.806152	-0.525635	-0.020996	0.099979	0.010066	0.006857	0.540059	0.536605	-0.416156	0.497198	64.876006	-79.449868	29.589563
37170		9.840278	0.817222	0.844075	0.854317	0.008366	0.060572	-0.092176	0.256735	-0.443495	-0.796875	-0.534424	-0.029541	0.098431	0.007958	0.008311	0.541915	0.536668	-0.414501	0.496491	64.710388	-79.158572	29.707531
37171		9.804687	1.427989	0.527970	0.262825	0.306145	0.101282	-0.038566	0.261957	-0.428578	-0.794678	-0.538818	-0.031738	0.098084	0.014071	0.005149	0.543615	0.536836	-0.412708	0.495946	64.548119	-78.869879	29.854551
37172		9.583768	1.906040	0.555530	-0.203008	0.253830	-0.030848	-0.027845	0.267992	-0.397095	-0.792236	-0.543213	-0.033691	0.095883	0.018871	0.005424	0.545200	0.536943	-0.410982	0.495523	64.347396	-78.599659	30.046124
37173		9.626631	2.220018	0.572461	-0.465581	0.248938	0.069079	-0.055824	0.252464	-0.388451	-0.787598	-0.547607	-0.035889	0.096316	0.022015	0.005597	0.546823	0.536996	-0.409362	0.495018	64.165975	-78.333826	30.202319
37174		9.560152	2.190393	0.626732	-0.408051	0.219265	0.004255	-0.108315	0.259611	-0.384414	-0.776123	-0.554199	-0.040039	0.095651	0.021723	0.006131	0.548570	0.536872	-0.407889	0.494436	63.942192	-78.071990	30.370712
37175		9.437474	1.960775	0.908330	-0.146809	-0.028560	-0.132135	-0.131742	0.247666	-0.372947	-0.771973	-0.549805	-0.044678	0.094422	0.019438	0.008954	0.550344	0.536690	-0.406508	0.493798	63.726394	-77.815080	30.517568
37176		9.534470	1.703431	0.788804	0.146496	0.144735	-0.097367	-0.141291	0.239167	-0.377685	-0.767090	-0.558594	-0.044434	0.095386	0.016860	0.007762	0.552115	0.536506	-0.405186	0.493108	63.539872	-77.561655	30.628808
37177		9.617177	1.265573	0.667030	0.615100	0.328956	-0.114750	-0.116342	0.234778	-0.377185	-0.758057	-0.567383	-0.048584	0.096203	0.012478	0.006550	0.553828	0.536400	-0.403788	0.492448	63.380630	-77.305667	30.726756
37178		9.817744	0.831480	0.629564	1.109624	0.440826	-0.012174	-0.078813	0.235691	-0.385541	-0.757813	-0.569580	-0.048340	0.098201	0.008128	0.006177	0.555437	0.536408	-0.402296	0.491848	63.257181	-77.048988	30.810244
37179		9.826027	1.006686	0.625643	0.976900	0.462518	0.025362	-0.014863	0.260206	-0.406194	-0.744385	-0.573975	-0.050537	0.098288	0.009868	0.006128	0.556995	0.536572	-0.400497	0.491375	63.141293	-76.771624	30.923379
37180		9.684314	1.241381	0.684564	0.763241	0.401286	-0.063235	0.039991	0.262606	-0.419275	-0.739502	-0.587158	-0.056885	0.096878	0.012209	0.006721	0.558416	0.536906	-0.398543	0.490985	63.072271	-76.490665	31.021076
37181		9.781004	2.013702	0.909205	0.089183	0.174039	0.212841	0.053381	0.284207	-0.452694	-0.730469	-0.589355	-0.054443	0.097868	0.019913	0.008958	0.559948	0.537285	-0.396383	0.490575	63.002459	-76.183333	31.126752
37182		9.528744	2.083616	0.952663	0.017840	0.126538	-0.013228	0.045613	0.306937	-0.482271	-0.728271	-0.593750	-0.056641	0.095352	0.020604	0.009385	0.561589	0.537643	-0.394116	0.490133	62.918876	-75.858621	31.243027
37183		9.476188	1.761646	0.866798	0.359996	0.255470	-0.145333	0.053383	0.300979	-0.499862	-0.716797	-0.598145	-0.060791	0.094818	0.017377	0.008530	0.563259	0.538066	-0.391777	0.489628	62.871832	-75.522843	31.325501
37184		9.580512	1.882376	0.823979	0.309199	0.337138	-0.024995	0.015996	0.326380	-0.527035	-0.709961	-0.604492	-0.060791	0.095868	0.018571	0.008085	0.565118	0.538371	-0.389400	0.489045	62.786433	-75.170162	31.426463
37185		9.729898	1.194620	0.603384	1.041875	0.650203	-0.068278	0.046970	0.328026	-0.542817	-0.703125	-0.606689	-0.060547	0.097341	0.011681	0.005877	0.566955	0.538782	-0.386880	0.488467	62.733062	-74.805394	31.511476
37186		9.993719	1.719739	0.457592	0.631080	0.836451	0.283996	0.074272	0.353582	-0.565304	-0.694092	-0.615723	-0.073730	0.099993	0.016913	0.004405	0.568792	0.539249	-0.384173	0.487953	62.674913	-74.426027	31.619152
37187		9.875027	1.552665	0.773632	0.850852	0.556287	0.161861	0.105525	0.380189	-0.599166	-0.689453	-0.617676	-0.064697	0.098811	0.015227	0.007557	0.570680	0.539808	-0.381191	0.487468	62.622724	-74.019318	31.741065
37188		9.931542	1.780325	0.895763	0.714194	0.471205	0.280623	0.133586	0.390505	-0.619421	-0.680176	-0.628662	-0.064453	0.099387	0.017490	0.008775	0.572545	0.540444	-0.378079	0.487001	62.590643	-73.602639	31.857412
37189		10.061125	2.452458	1.105573	0.179101	0.285986	0.596381	0.148046	0.397459	-0.643620	-0.664551	-0.632813	-0.064209	0.100711	0.024192	0.010874	0.574443	0.541151	-0.374815	0.486503	62.580403	-73.168851	31.961417
37190		9.655475	2.216536	1.407830	0.402348	-0.018655	0.185335	0.158287	0.402295	-0.677047	-0.657471	-0.641602	-0.070557	0.096657	0.021827	0.013901	0.576386	0.541921	-0.371442	0.485934	62.598878	-72.719742	32.040214
37191		10.125494	2.615433	1.349668	0.201420	0.133012	0.729079	0.135670	0.421583	-0.707408	-0.650879	-0.643799	-0.068359	0.101375	0.025787	0.013301	0.578499	0.542635	-0.367954	0.485279	62.600999	-72.247203	32.124296
37192		10.313880	1.727973	1.002805	1.140675	0.608086	0.613052	0.084440	0.473507	-0.729030	-0.636963	-0.654785	-0.076904	0.103224	0.016899	0.009791	0.580880	0.543096	-0.364400	0.484600	62.512954	-71.752845	32.271016
37193		10.232388	1.896202	0.943465	1.025307	0.696462	0.562786	0.091456	0.476914	-0.740215	-0.627930	-0.661377	-0.074463	0.102415	0.018579	0.009199	0.583272	0.543587	-0.360758	0.483901	62.439216	-71.249035	32.408787
37194		10.361251	2.547948	1.446986	0.564951	0.239141	0.937392	0.098419	0.482246	-0.740371	-0.618896	-0.665527	-0.072021	0.103740	0.025089	0.014232	0.585636	0.544067	-0.357100	0.483219	62.366777	-70.746478	32.548334
37195		10.397372	2.053727	1.562571	1.137287	0.217119	0.837356	0.089753	0.488410	-0.763991	-0.612061	-0.669922	-0.074219	0.104089	0.020133	0.015381	0.588087	0.544546	-0.353350	0.482460	62.304191	-70.227561	32.674011
37196		10.470206	2.827919	1.502580	0.493876	0.301684	1.120945	0.068936	0.502188	-0.772446	-0.600586	-0.680908	-0.080566	0.104848	0.027869	0.014772	0.590620	0.544926	-0.349603	0.481666	62.221294	-69.703311	32.807604
37197		10.855973	2.979217	1.253827	0.518470	0.671289	1.482425	0.042756	0.521286	-0.798713	-0.591553	-0.682861	-0.073730	0.108710	0.029356	0.012261	0.593314	0.545224	-0.345760	0.480790	62.122564	-69.157998	32.943917
37198		11.169918	2.771616	1.084554	0.877133	0.977464	1.672054	-0.026902	0.553874	-0.831616	-0.582520	-0.687256	-0.078125	0.111843	0.027253	0.010532	0.596313	0.545274	-0.341913	0.479774	61.970367	-68.589750	33.093894
37199		11.897701	2.528597	1.905394	1.518421	0.411270	2.398105	-0.074163	0.615409	-0.870467	-0.564453	-0.698486	-0.091064	0.119143	0.024775	0.018678	0.599630	0.545093	-0.337859	0.478715	61.748804	-67.982635	33.291279
37200		11.844000	2.231999	1.222938	1.801953	1.168396	2.109728	-0.138012	0.628421	-0.933713	-0.559814	-0.700439	-0.088623	0.118580	0.021775	0.011842	0.603269	0.544774	-0.333759	0.477381	61.527307	-67.342251	33.448620
37201		12.395063	1.772806	1.917749	2.600289	0.720778	2.563713	-0.173751	0.663030	-0.997153	-0.543945	-0.709229	-0.086182	0.124100	0.017126	0.018751	0.607200	0.544358	-0.329435	0.475873	61.296464	-66.658019	33.595807
37202		13.041234	1.709728	1.967762	2.997823	0.917507	3.111627	-0.208635	0.720017	-1.066690	-0.528076	-0.715820	-0.097168	0.130571	0.016421	0.019190	0.611456	0.543787	-0.324839	0.474234	61.034874	-65.925110	33.754349
37203		13.885558	1.331724	1.719303	3.739989	1.480759	3.654124	-0.215115	0.791207	-1.123640	-0.519043	-0.722168	-0.094727	0.138994	0.012555	0.016630	0.615957	0.543100	-0.319854	0.472582	60.739396	-65.141670	33.948006
37204		14.673799	1.612779	1.643953	3.892372	1.858591	4.400515	-0.217252	0.856778	-1.203257	-0.512207	-0.726563	-0.101074	0.146900	0.015262	0.015794	0.620720	0.542346	-0.314456	0.470835	60.435538	-64.301510	34.149821
37205		15.070533	1.589846	1.668177	4.224517	2.077555	4.687787	-0.232266	0.919747	-1.301526	-0.489502	-0.735352	-0.109619	0.150879	0.014936	0.015970	0.625820	0.541522	-0.308600	0.468902	60.132378	-63.392737	34.343531
37206		15.534475	0.600947	1.409045	5.453569	2.625480	4.575719	-0.296033	0.969813	-1.376842	-0.484863	-0.741943	-0.111816	0.155447	0.004960	0.013329	0.631301	0.540458	-0.302524	0.466738	59.802846	-62.433177	34.526638
37207		16.031269	0.608216	1.102344	5.790176	3.213906	4.840794	-0.309326	1.019109	-1.471363	-0.469238	-0.746338	-0.111572	0.160405	0.004919	0.010198	0.637065	0.539338	-0.296039	0.464353	59.488254	-61.411409	34.686264
37208		15.488622	-0.075041	0.788654	6.362794	3.540002	3.880416	-0.322414	1.046103	-1.595034	-0.442139	-0.757080	-0.120117	0.154912	-0.001974	0.007079	0.643134	0.538249	-0.289145	0.461586	59.222301	-60.321177	34.782807
37209		14.894750	-1.038178	0.459078	7.157399	3.843546	2.722605	-0.395578	1.044282	-1.729860	-0.439697	-0.763916	-0.128662	0.148872	-0.011662	0.003836	0.649644	0.537070	-0.282035	0.458230	58.995777	-59.165078	34.786212
37210		14.819548	-0.579729	0.284984	6.905955	4.130134	2.648370	-0.468924	1.047947	-1.848134	-0.421875	-0.763916	-0.135254	0.148146	-0.007161	0.002089	0.656555	0.535752	-0.274731	0.454344	58.788805	-57.949795	34.717535
37211		14.832190	-1.845923	-0.175972	8.204789	4.686168	1.769389	-0.524446	1.033653	-1.971444	-0.405762	-0.779053	-0.139404	0.148119	-0.019926	-0.002475	0.663791	0.534385	-0.267246	0.449882	58.621540	-56.679558	34.562351
37212		14.770294	-1.675576	-0.026063	8.274708	4.643963	1.629480	-0.572007	1.012412	-2.057398	-0.390137	-0.779297	-0.154785	0.147516	-0.018276	-0.000957	0.671232	0.532952	-0.259663	0.444955	58.479450	-55.372846	34.342245
37213		14.412852	-0.828444	0.001045	7.606777	4.647485	1.542702	-0.590251	1.024340	-2.129652	-0.380859	-0.787842	-0.150146	0.144027	-0.009820	-0.000700	0.678797	0.531446	-0.251871	0.439728	58.344918	-54.029755	34.095297
37214		13.545971	-0.477202	-0.116096	7.100703	4.600816	0.776858	-0.501650	1.017812	-2.141416	-0.363037	-0.785645	-0.158936	0.135390	-0.006226	-0.001836	0.686049	0.530195	-0.243818	0.434492	58.263961	-52.680998	33.841853
37215		12.400440	-0.799652	-0.457240	6.966105	4.612472	-0.603391	-0.069655	0.977690	-2.073284	-0.344727	-0.801025	-0.162842	0.123888	-0.009283	-0.005175	0.691857	0.530353	-0.235141	0.429847	58.418762	-51.380636	33.597035
37216		11.055931	0.585482	0.466271	5.402186	3.462743	-0.778588	0.809625	0.925109	-1.909292	-0.335693	-0.811768	-0.151611	0.110628	0.004781	0.004172	0.694836	0.533407	-0.225130	0.426610	59.030013	-50.172055	33.410857
37217		9.085484	5.816351	2.581096	0.491955	1.209444	1.202246	1.033232	0.869115	-1.824166	-0.320068	-0.811523	-0.144775	0.091491	0.057198	0.025711	0.696876	0.537190	-0.215075	0.423714	59.750389	-49.024581	33.244147
37218		8.250720	6.574893	1.479435	-0.542123	2.032576	0.630644	0.901648	0.856831	-1.869620	-0.306396	-0.817871	-0.135742	0.083180	0.064907	0.014733	0.699272	0.540525	-0.205152	0.420433	60.396241	-47.852780	33.075612
37219		7.598598	8.806989	1.664776	-2.469434	1.807011	1.532153	0.838139	0.851110	-1.812438	-0.306152	-0.824463	-0.140137	0.076850	0.087306	0.016689	0.701620	0.543523	-0.195553	0.417217	60.973308	-46.714199	32.945820
37220		7.306983	8.991240	1.113712	-2.668256	2.279407	1.284850	0.488804	0.869011	-1.817200	-0.279297	-0.833008	-0.133057	0.073931	0.089216	0.011036	0.704875	0.545204	-0.186544	0.413649	61.328456	-45.563441	32.846023
37221		7.121051	6.338184	1.219660	-0.491205	2.022465	-0.429975	0.125595	0.871476	-1.671529	-0.272705	-0.830811	-0.135254	0.071789	0.062776	0.011924	0.708743	0.545412	-0.178698	0.410214	61.427900	-44.489053	32.809548
37222		5.861827	5.786390	-0.715442	-1.063721	3.367921	-2.337460	-0.419264	0.887900	-1.527875	-0.265625	-0.843994	-0.139404	0.059025	0.057398	-0.007537	0.713765	0.543479	-0.172245	0.406819	61.168672	-43.478326	32.841392
37223		3.275876	0.221431	-5.151327	0.836738	6.025070	-9.251901	-0.789187	0.396799	-0.959241	-0.260986	-0.844238	-0.154785	0.032666	0.001854	-0.051586	0.718160	0.540706	-0.169876	0.403764	60.787409	-42.893040	32.740407
37224		5.648572	-2.949640	-5.771647	4.658698	7.224513	-9.955730	-1.412342	0.175473	-0.500660	-0.261230	-0.835693	-0.172852	0.056360	-0.030044	-0.057555	0.723099	0.535721	-0.170748	0.401218	60.034070	-42.595433	32.662671
37225		4.989901	-5.194535	-3.630394	6.426153	4.703279	-11.095098	-1.806302	0.064153	-0.235850	-0.270264	-0.829346	-0.186279	0.049826	-0.052329	-0.035848	0.728406	0.529280	-0.173562	0.398952	59.040810	-42.466724	32.603550
37226		4.789764	-4.725032	-1.926020	6.285621	3.039455	-10.291454	-1.915021	0.013686	0.053931	-0.274902	-0.827393	-0.206299	0.047909	-0.047419	-0.018810	0.733326	0.522239	-0.177476	0.397494	57.928370	-42.490545	32.630688
37227		4.582073	-3.038749	-0.768185	5.069501	2.071086	-8.901679	-1.859956	-0.113473	0.283231	-0.277100	-0.823242	-0.228516	0.045868	-0.030392	-0.007373	0.737457	0.515410	-0.182390	0.396540	56.840517	-42.669669	32.665514
37228		4.842623	-2.265505	-0.740222	4.648090	2.221847	-8.203392	-1.753865	-0.279984	0.523144	-0.286377	-0.810303	-0.244385	0.048495	-0.022592	-0.007136	0.740634	0.509030	-0.188249	0.396121	55.810978	-43.009740	32.706338
37229		5.067134	-2.525116	-1.250201	4.931316	2.685343	-8.368493	-1.487590	-0.492261	0.789182	-0.304199	-0.808350	-0.257568	0.050801	-0.025142	-0.012190	0.742334	0.503773	-0.195095	0.396347	54.943076	-43.550184	32.730633
37230		5.432709	-2.652078	-1.310197	5.248048	2.819782	-8.148168	-1.083392	-0.712433	1.080430	-0.313232	-0.802002	-0.264404	0.054515	-0.026296	-0.012765	0.742181	0.500123	-0.202611	0.397482	54.303428	-44.293012	32.762369
37231		5.719731	-2.312279	-0.950957	5.170418	2.632762	-7.510367	-0.652855	-0.918087	1.352315	-0.338135	-0.791260	-0.267090	0.057395	-0.022765	-0.009172	0.740134	0.498174	-0.210770	0.399500	53.909370	-45.237939	32.791760
37232		5.840428	-2.017423	-0.556563	5.002786	2.343897	-6.990032	-0.236988	-1.104047	1.622112	-0.358398	-0.789063	-0.267090	0.058595	-0.019706	-0.005219	0.736266	0.497800	-0.219369	0.402474	53.740416	-46.363349	32.842360
37233		5.905001	-1.431800	-0.405343	4.520094	2.301912	-6.443445	0.095124	-1.276198	1.862833	-0.374268	-0.778320	-0.265381	0.059204	-0.013765	-0.003683	0.730777	0.498694	-0.228570	0.406232	53.759860	-47.666615	32.895981
37234		6.117999	-0.638249	-0.059423	3.934095	2.155885	-5.603902	0.316889	-1.436757	2.078115	-0.403320	-0.771729	-0.261230	0.061244	-0.005746	-0.000164	0.724045	0.500386	-0.238348	0.410563	53.904652	-49.115451	32.949332
37235		6.533944	-0.032676	0.076144	3.562214	2.213728	-4.802036	0.449448	-1.589531	2.255785	-0.432861	-0.758789	-0.250488	0.065329	0.000408	0.001281	0.716270	0.502585	-0.248880	0.415241	54.145442	-50.706983	32.975201
37236		7.007102	0.518579	0.226000	3.226228	2.235655	-3.980953	0.547436	-1.721513	2.415164	-0.457520	-0.754395	-0.244141	0.069979	0.006024	0.002878	0.707636	0.505088	-0.259957	0.420190	54.457507	-52.408091	32.981235
37237		7.677172	1.048484	0.283539	2.956951	2.366892	-3.047487	0.607990	-1.808242	2.563876	-0.482666	-0.736816	-0.235840	0.076599	0.011457	0.003562	0.698210	0.507689	-0.271599	0.425428	54.809485	-54.216877	32.981321
37238		8.353105	1.463187	0.388547	2.739799	2.401231	-2.145405	0.568103	-1.868715	2.708969	-0.518555	-0.723877	-0.218506	0.083281	0.015748	0.004708	0.688349	0.509929	-0.283760	0.430846	55.121433	-56.104167	33.001656
37239		8.696720	1.529638	0.462773	2.623471	2.291680	-1.685890	0.496524	-1.899583	2.823881	-0.539063	-0.715088	-0.209961	0.086690	0.016509	0.005492	0.678140	0.511691	-0.296471	0.436353	55.374373	-58.065428	33.042315
37240		8.921083	1.369357	0.720357	2.637413	1.936305	-1.370765	0.425959	-1.938801	2.936282	-0.568604	-0.695313	-0.197266	0.088922	0.014984	0.008098	0.667642	0.512963	-0.309587	0.441904	55.561788	-60.082806	33.111988
37241		9.398265	1.428481	1.210057	2.538755	1.427879	-0.683721	0.375259	-1.990913	3.036111	-0.607178	-0.677979	-0.186768	0.093625	0.015684	0.013062	0.656715	0.513866	-0.323228	0.447426	55.716857	-62.174373	33.182175
37242		10.119740	1.584562	1.883241	2.405833	0.780818	0.289615	0.274437	-2.036260	3.116972	-0.634521	-0.660400	-0.176270	0.100736	0.017391	0.019883	0.645610	0.514226	-0.337258	0.452788	55.802591	-64.308912	33.265747
37243		10.873238	1.536859	2.412384	2.407295	0.228067	1.166700	0.156789	-2.058555	3.176256	-0.664307	-0.634033	-0.170410	0.108214	0.017070	0.025252	0.634366	0.513974	-0.351746	0.457914	55.803397	-66.488972	33.364156
37244		11.329463	1.621538	2.840891	2.126805	-0.316665	1.781112	0.087489	-2.095130	3.259737	-0.698242	-0.614502	-0.155518	0.112705	0.018043	0.029599	0.622851	0.513250	-0.366506	0.462930	55.721580	-68.710116	33.510213
37245		11.383403	1.971071	3.091386	1.425025	-0.781011	2.034868	0.077491	-2.118848	3.359509	-0.723633	-0.588135	-0.136475	0.113146	0.021603	0.032123	0.610830	0.512141	-0.381579	0.467970	55.548715	-70.995528	33.736850
37246		11.437138	2.472712	3.235705	0.553491	-1.148153	2.259921	0.125309	-2.149346	3.433708	-0.751465	-0.559326	-0.117188	0.113568	0.026661	0.033597	0.598225	0.510927	-0.396568	0.473091	55.314619	-73.316026	34.061414
37247		12.235891	2.650495	3.096401	0.140519	-1.147323	3.031416	0.171956	-2.154157	3.472607	-0.781250	-0.532959	-0.091553	0.121531	0.028593	0.032300	0.585111	0.509562	-0.411483	0.478198	54.984573	-75.666141	34.505259
37248		13.246508	2.650122	2.999140	-0.114896	-1.195746	3.972030	0.144533	-2.121886	3.512189	-0.806641	-0.504395	-0.079102	0.131645	0.028796	0.031411	0.571832	0.507755	-0.426209	0.483259	54.346222	-78.012725	35.248921
37249		13.760691	2.516310	2.812426	-0.389733	-1.250707	4.394824	0.138847	-2.099268	3.560586	-0.830078	-0.469238	-0.064453	0.136825	0.027584	0.029582	0.558191	0.505564	-0.440900	0.488298	53.223983	-80.382332	36.475354
37250		14.273752	2.303279	2.572927	-0.621288	-1.271180	4.803475	0.301257	-2.097361	3.615860	-0.851074	-0.438477	-0.043213	0.142010	0.025564	0.027258	0.543831	0.503473	-0.455062	0.493641	51.269063	-82.758406	38.628817
37251		14.692363	2.629154	2.319685	-1.433637	-1.309650	5.165796	0.608656	-2.100906	3.666319	-0.874512	-0.403320	-0.019775	0.146155	0.028902	0.024820	0.528269	0.501877	-0.468476	0.499582	47.333036	-85.150090	42.937315
37252		14.959011	3.685355	2.238649	-3.003927	-1.560770	5.381728	0.861831	-2.067797	3.652427	-0.888916	-0.370117	-0.000732	0.148642	0.039473	0.024093	0.511992	0.500677	-0.480843	0.505942	35.801154	-87.439956	54.988790
37253		15.136686	5.218346	2.296695	-5.053414	-1.998019	5.420796	1.018992	-1.998593	3.557829	-0.908203	-0.330322	0.029053	0.150167	0.054739	0.024746	0.495443	0.499697	-0.492252	0.512374	-30.173816	-88.940772	121.570520
37254		15.221765	6.586438	3.203351	-6.889939	-3.307215	5.250474	1.004357	-1.876360	3.421085	-0.922607	-0.299561	0.048096	0.150752	0.068285	0.033791	0.479425	0.498499	-0.502774	0.518527	-93.380536	-87.507215	-174.623446
37255		15.503057	6.661511	3.198062	-7.434477	-3.652577	5.230692	0.727273	-1.658852	3.183740	-0.930420	-0.264160	0.062744	0.153672	0.068949	0.033507	0.465025	0.496480	-0.512777	0.523755	-104.048824	-85.542915	-163.517919
37256		15.216432	7.488323	2.597172	-8.676711	-3.375975	4.597440	0.439562	-1.479956	2.857992	-0.939941	-0.244385	0.071045	0.150876	0.076986	0.027259	0.452567	0.494012	-0.522092	0.527783	-107.739770	-83.733948	-159.555160
37257		14.066238	9.098149	2.199962	-10.525095	-3.248367	2.998506	0.171921	-1.335550	2.498126	-0.945313	-0.213379	0.094482	0.139360	0.092708	0.023012	0.441955	0.491367	-0.530834	0.530519	-109.816157	-82.124340	-157.363847
37258		13.469608	10.500288	2.141889	-12.114315	-3.397225	1.933076	-0.182382	-1.185254	2.084517	-0.952637	-0.193604	0.100586	0.133462	0.106418	0.022116	0.433668	0.488567	-0.539017	0.531690	-111.371388	-80.766327	-155.893759
37259		12.769938	10.782989	3.497479	-12.434686	-4.821015	0.850541	-0.471424	-0.998849	1.638856	-0.950928	-0.180420	0.113525	0.126634	0.108954	0.035353	0.427693	0.485778	-0.546457	0.531492	-112.707086	-79.674445	-154.812054
37260		12.025739	11.423390	4.654452	-13.046845	-5.988950	-0.289881	-0.563190	-0.799242	1.141023	-0.951416	-0.165039	0.115479	0.119416	0.115048	0.046700	0.423804	0.483593	-0.552416	0.530438	-113.898399	-78.891680	-153.924870
37261		11.312524	11.956650	5.392643	-13.521162	-6.690618	-1.302268	-0.529021	-0.573603	0.645586	-0.955811	-0.167236	0.119873	0.112584	0.120073	0.053933	0.421734	0.482226	-0.556620	0.528935	-114.955151	-78.413934	-153.155388
37262		11.052379	11.954425	6.350139	-13.490521	-7.607946	-1.718716	-0.444019	-0.300263	0.106363	-0.951416	-0.167236	0.117676	0.110365	0.119744	0.063401	0.421658	0.481813	-0.558679	0.527199	-115.847775	-78.283814	-152.500571
37263		11.474227	11.043414	8.370658	-12.605804	-9.614923	-1.308020	-0.264455	0.059766	-0.423233	-0.948975	-0.169189	0.122070	0.115001	0.110301	0.083526	0.423540	0.482306	-0.558246	0.525696	-116.390958	-78.513494	-152.099362
37264		12.386884	10.250313	11.806924	-11.809927	-13.070382	-0.453518	0.109004	0.539791	-0.967989	-0.950684	-0.189209	0.109375	0.124681	0.101837	0.117789	0.427293	0.483839	-0.554471	0.525245	-116.179880	-79.146408	-152.247687
37265		13.511836	9.766289	12.914189	-11.305365	-14.215667	0.902488	0.722559	1.038150	-1.557189	-0.947998	-0.200195	0.103027	0.136540	0.096138	0.128785	0.432462	0.486984	-0.546559	0.526399	-114.954336	-80.206881	-153.069513
37266		13.540323	-1.110314	2.732778	-0.709680	-3.645414	3.537937	1.232280	1.161646	-1.878960	-0.945313	-0.213379	0.096680	0.135445	-0.012540	0.026467	0.437519	0.491714	-0.536183	0.528491	-113.221159	-81.460185	-154.106695
37267		13.998260	-11.354531	-2.268158	9.327482	2.008074	5.646077	1.854839	0.882483	-1.339409	-0.936035	-0.228760	0.094971	0.139114	-0.114258	-0.024354	0.438804	0.497033	-0.526004	0.532663	-110.911655	-82.361640	-155.361613
37268		13.134218	-4.832742	2.404580	3.457183	-2.729628	3.686792	1.617291	0.769860	-1.224011	-0.942139	-0.244385	0.088623	0.131133	-0.049320	0.023145	0.440016	0.501748	-0.516932	0.536112	-108.603420	-83.169848	-156.751113
37269		12.293667	4.371427	5.678209	-5.080476	-6.531180	1.763608	1.093103	0.957920	-1.637919	-0.930908	-0.250732	0.088867	0.123558	0.042395	0.056425	0.444083	0.505825	-0.507743	0.537707	-105.765685	-84.228596	-158.971425
37270		10.789491	3.868946	2.808719	-4.483110	-3.496975	0.528422	0.898252	0.827717	-1.825347	-0.930176	-0.275146	0.080566	0.108357	0.037577	0.027810	0.448766	0.510225	-0.498840	0.537994	-103.103005	-85.359160	-161.125099
37271		9.577188	0.372688	-1.264527	-1.155484	0.997467	-0.266578	1.039730	0.446673	-1.766239	-0.925293	-0.288086	0.081055	0.095772	0.002948	-0.012842	0.451924	0.515775	-0.490487	0.537739	-102.149591	-86.403332	-161.478245
37272		9.055017	1.123292	-2.744854	-1.897912	2.437785	-0.799190	1.098114	0.306486	-1.711413	-0.915771	-0.303467	0.083740	0.090601	0.010609	-0.027528	0.454394	0.521630	-0.482401	0.537325	-102.230080	-87.398327	-160.764444
37273		8.510878	3.212009	-2.249341	-3.764976	1.726683	-1.407113	0.764269	0.407005	-1.645061	-0.913086	-0.323242	0.079834	0.085324	0.031505	-0.022546	0.457751	0.526260	-0.475092	0.536472	-100.782645	-88.369304	-161.769345
37274		8.724896	3.558883	-1.080859	-3.840741	0.560015	-1.158728	0.236470	0.521309	-1.549723	-0.905762	-0.336426	0.071289	0.087493	0.034924	-0.010995	0.462482	0.529094	-0.469169	0.534837	-90.549073	-89.285743	-171.866101
37275		9.846665	4.206591	0.370727	-4.175050	-0.897883	0.013298	-0.128465	0.616072	-1.465132	-0.903320	-0.349609	0.071533	0.098782	0.041345	0.003377	0.468143	0.530611	-0.464179	0.532759	20.317551	-89.634634	77.196353
37276		10.275157	3.520127	0.141830	-3.390431	-0.477237	0.495786	-0.633953	0.766053	-1.436621	-0.900391	-0.367432	0.056641	0.103005	0.034465	0.000914	0.475385	0.530429	-0.460243	0.529934	50.449196	-88.772376	46.702592
37277		9.458258	0.300131	-0.300095	-0.136600	0.448849	-0.356636	-0.657823	0.684528	-1.328701	-0.882080	-0.384766	0.050537	0.094589	0.002362	-0.003333	0.482184	0.530136	-0.456800	0.527057	55.304564	-87.927932	41.473332
37278		9.643707	0.616085	1.436396	-0.127867	-1.232119	-0.122070	-0.513550	0.567780	-1.238432	-0.886230	-0.393799	0.039551	0.096513	0.005600	0.014075	0.488067	0.530244	-0.453488	0.524386	57.857821	-87.157947	38.626383
37279		10.520743	0.181961	2.331076	0.547298	-1.973122	0.768372	-0.404542	0.566754	-1.212001	-0.883545	-0.406982	0.033203	0.105282	0.001228	0.023010	0.493566	0.530548	-0.449922	0.521997	59.212117	-86.395748	37.042583
37280		10.067254	-0.573913	1.678733	1.312385	-1.195387	0.254317	-0.141804	0.469748	-1.139871	-0.876221	-0.428955	0.024902	0.100677	-0.006301	0.016555	0.497938	0.531555	-0.446100	0.520098	60.548886	-85.697230	35.624325
37281		10.100423	-0.116850	1.432215	0.942224	-0.942427	0.301969	0.004616	0.403347	-1.125167	-0.860596	-0.431152	0.029541	0.101024	-0.001737	0.014118	0.501721	0.533056	-0.442066	0.518367	61.920860	-85.020303	34.254993
37282		10.094183	0.957077	1.691269	0.013781	-1.261834	0.389043	0.069647	0.396505	-1.098320	-0.864746	-0.437744	0.020752	0.101026	0.009010	0.016716	0.505224	0.534650	-0.437956	0.516810	62.960888	-84.358663	33.253697
37283		10.249978	1.247255	1.916365	-0.125572	-1.455018	0.587121	0.047853	0.407987	-1.119535	-0.848633	-0.455322	0.016846	0.102606	0.011894	0.018957	0.508850	0.536198	-0.433781	0.515167	63.772145	-83.679913	32.470468
37284		10.435586	0.545054	1.458217	0.648603	-0.860897	0.683110	0.025900	0.404443	-1.132198	-0.839111	-0.470459	0.017334	0.104414	0.004858	0.014372	0.512538	0.537697	-0.429642	0.513414	64.455365	-82.996416	31.800685
37285		10.269799	1.019649	1.236849	0.250017	-0.647544	0.558194	0.058221	0.412065	-1.106835	-0.841064	-0.483643	0.017578	0.102778	0.009624	0.012160	0.516078	0.539194	-0.425434	0.511800	64.960799	-82.321470	31.329335
37286		9.883121	1.290987	0.335935	-0.057341	0.241604	0.156910	0.091408	0.381465	-1.067888	-0.825195	-0.492432	0.013428	0.098904	0.012380	0.003176	0.519341	0.540746	-0.421330	0.510255	65.451358	-81.675593	30.889987
37287		9.946746	2.378209	0.099717	-1.046761	0.411996	0.352800	0.040323	0.336201	-1.023505	-0.820313	-0.499023	0.007080	0.099589	0.023272	0.000835	0.522520	0.542179	-0.417561	0.508583	65.931227	-81.061243	30.432959
37288		10.247979	3.149645	-0.136609	-1.692048	0.637705	0.755623	-0.217486	0.336616	-1.010394	-0.806641	-0.510010	-0.003662	0.102635	0.030977	-0.001573	0.526348	0.542886	-0.414490	0.506390	66.188580	-80.455063	30.049126
37289		9.955121	2.865248	-0.086775	-1.350589	0.650655	0.437830	-0.481169	0.367107	-0.971789	-0.799561	-0.521240	-0.010010	0.099687	0.028166	-0.001119	0.530849	0.542729	-0.412081	0.503819	66.121071	-79.859941	29.841816
37290		9.778397	2.300491	0.314305	-0.689904	0.351976	0.207660	-0.567573	0.370892	-0.912520	-0.794678	-0.538818	-0.016113	0.097893	0.022567	0.002897	0.535418	0.542189	-0.410045	0.501221	65.915068	-79.297065	29.723783
37291		10.352464	1.636877	0.721291	0.179160	0.119526	0.690927	-0.486304	0.404351	-0.849779	-0.790039	-0.538818	-0.020508	0.103607	0.015946	0.006964	0.539673	0.541639	-0.407859	0.499030	65.595466	-78.757083	29.768690
37292		10.207703	1.706116	0.844567	0.176044	0.033526	0.569437	-0.330483	0.411595	-0.775431	-0.781250	-0.541016	-0.024902	0.102159	0.016679	0.008208	0.543311	0.541325	-0.405469	0.497368	65.277422	-78.256194	29.903184
37293		9.841746	2.234457	0.968706	-0.324478	-0.116656	0.320017	-0.187096	0.406620	-0.700193	-0.767334	-0.556396	-0.028809	0.098514	0.022009	0.009466	0.546363	0.541252	-0.402919	0.496176	64.985436	-77.793480	30.095420
37294		9.479149	1.976401	0.656405	-0.106717	0.222204	-0.110622	-0.101496	0.392124	-0.648836	-0.767090	-0.562988	-0.033203	0.094868	0.019460	0.006368	0.549008	0.541335	-0.400342	0.495251	64.737512	-77.362750	30.292922
37295		9.448296	1.852046	0.694497	0.068412	0.233363	-0.162652	-0.072244	0.366203	-0.580740	-0.760254	-0.564941	-0.031006	0.094549	0.018248	0.006765	0.551357	0.541419	-0.397930	0.494492	64.505240	-76.971478	30.491717
37296		9.791523	2.326269	0.638412	-0.282313	0.332696	0.262147	-0.042436	0.350464	-0.526771	-0.750977	-0.578369	-0.041504	0.097987	0.023006	0.006208	0.553444	0.541510	-0.395643	0.493896	64.280934	-76.613800	30.700334
37297		9.495734	2.449142	0.813603	-0.397241	0.153010	0.018270	-0.032887	0.323771	-0.473012	-0.748535	-0.582764	-0.041504	0.095028	0.024268	0.007978	0.555325	0.541583	-0.393536	0.493387	64.073809	-76.288422	30.896990
37298		9.569723	2.740811	1.078980	-0.598555	-0.086945	0.181800	-0.071834	0.301367	-0.439762	-0.737549	-0.582520	-0.039307	0.095773	0.027201	0.010636	0.557171	0.541533	-0.391686	0.492834	63.867085	-75.987543	31.070723
37299		9.619557	2.685387	1.155852	-0.486676	-0.116749	0.228848	-0.132051	0.308352	-0.433413	-0.734863	-0.593506	-0.047852	0.096271	0.026653	0.011392	0.559184	0.541282	-0.389968	0.492191	63.613306	-75.686097	31.257343
37300		9.526855	1.696103	1.204798	0.498039	-0.072238	-0.074319	-0.141406	0.292936	-0.408008	-0.730469	-0.595703	-0.049805	0.095320	0.016775	0.011896	0.561115	0.540989	-0.388393	0.491560	63.368964	-75.403318	31.429214
37301		9.868782	2.189896	1.251924	0.133497	-0.073177	0.372224	-0.140840	0.293884	-0.421073	-0.716797	-0.597900	-0.054199	0.098752	0.021700	0.012359	0.563089	0.540715	-0.386767	0.490886	63.142849	-75.111535	31.581979
37302		9.762816	1.470820	1.044948	0.826268	0.198975	0.078991	-0.111216	0.285254	-0.402114	-0.705566	-0.606689	-0.060547	0.097672	0.014518	0.010302	0.564901	0.540507	-0.385151	0.490303	62.939611	-74.833433	31.729652
37303		9.742491	1.477936	0.802638	0.827694	0.466727	0.028123	-0.083649	0.273745	-0.384409	-0.700928	-0.608887	-0.056152	0.097464	0.014595	0.007887	0.566587	0.540363	-0.383539	0.489780	62.761431	-74.565370	31.866366
37304		9.894285	1.983668	0.855492	0.412018	0.434213	0.296971	-0.046220	0.274126	-0.379693	-0.700684	-0.615479	-0.064697	0.098992	0.019651	0.008415	0.568141	0.540317	-0.381851	0.489349	62.606016	-74.301374	32.003434
37305		9.862980	1.733849	0.920200	0.688587	0.412068	0.211645	-0.047923	0.269138	-0.375390	-0.689453	-0.617676	-0.058105	0.098674	0.017155	0.009065	0.569693	0.540262	-0.380186	0.488902	62.458206	-74.039057	32.130181
37306		9.737833	2.544746	1.101136	-0.072563	0.195169	0.310063	-0.019636	0.274446	-0.381137	-0.682617	-0.624268	-0.064453	0.097442	0.025263	0.010875	0.571173	0.540288	-0.378424	0.488514	62.327978	-73.774059	32.257246
37307		9.668257	2.648810	1.244345	-0.138691	0.068350	0.287593	-0.019849	0.289897	-0.399371	-0.680176	-0.630859	-0.066650	0.096753	0.026296	0.012301	0.572728	0.540312	-0.376555	0.488111	62.192281	-73.494246	32.390761
37308		9.566858	2.390930	1.183646	0.118219	0.161129	0.117175	-0.025469	0.309904	-0.409923	-0.668945	-0.632813	-0.066406	0.095735	0.023715	0.011685	0.574354	0.540282	-0.374623	0.487719	62.033111	-73.204999	32.544908
37309		9.378059	2.324514	1.166469	0.172798	0.186745	-0.084016	-0.020675	0.326063	-0.415893	-0.664307	-0.637207	-0.066406	0.093848	0.023051	0.011509	0.576012	0.540239	-0.372603	0.487359	61.861170	-72.906935	32.716192
37310		9.351008	1.919187	1.273191	0.605034	0.135493	-0.202224	0.004163	0.335562	-0.417122	-0.662109	-0.641602	-0.063965	0.093571	0.018996	0.012575	0.577616	0.540238	-0.370501	0.487064	61.694360	-72.606848	32.896603
37311		9.262125	2.436130	1.309946	0.126635	0.089222	-0.147625	0.011633	0.334491	-0.416791	-0.650635	-0.648193	-0.068115	0.092693	0.024167	0.012946	0.579196	0.540261	-0.368371	0.486777	61.539594	-72.305833	33.069805
37312		9.386784	2.227715	1.153527	0.382638	0.310536	-0.108978	0.030536	0.342891	-0.439540	-0.641602	-0.650391	-0.072510	0.093936	0.022069	0.011378	0.580788	0.540352	-0.366118	0.486479	61.406686	-71.992176	33.231081
37313		9.383230	1.912854	0.912704	0.700370	0.600171	-0.237402	0.026606	0.347454	-0.440475	-0.639160	-0.659180	-0.067871	0.093890	0.018921	0.008966	0.582401	0.540422	-0.363845	0.486179	61.270949	-71.675510	33.393855
37314		9.676724	2.724914	0.765036	0.024868	0.785155	0.238784	0.061245	0.338102	-0.455025	-0.623535	-0.659180	-0.078857	0.096842	0.027027	0.007495	0.583930	0.540634	-0.361483	0.485871	61.185245	-71.355188	33.524499
37315		9.944408	2.645691	0.980848	0.241044	0.662052	0.500229	0.057110	0.364346	-0.501741	-0.618896	-0.669922	-0.069824	0.099528	0.026205	0.009635	0.585629	0.540854	-0.358916	0.485485	61.100856	-71.003036	33.652041
37316		10.281723	2.671658	1.100563	0.371300	0.645294	0.841333	0.015435	0.379404	-0.526351	-0.614258	-0.669922	-0.080811	0.102908	0.026445	0.010813	0.587518	0.540949	-0.356346	0.484988	60.993984	-70.635370	33.777849
37317		9.934761	2.464371	1.116253	0.529752	0.621643	0.451381	-0.006230	0.396337	-0.573810	-0.605225	-0.676514	-0.071777	0.099440	0.024359	0.010965	0.589608	0.541023	-0.353637	0.484353	60.893119	-70.238171	33.884876
37318		10.058025	1.882239	1.571277	1.225447	0.276486	0.463350	-0.037822	0.411515	-0.612195	-0.593750	-0.683105	-0.084961	0.100669	0.018517	0.015502	0.591892	0.541023	-0.350860	0.483585	60.786223	-69.818442	33.978862
37319		10.651203	1.838327	1.758128	1.518357	0.261609	1.029090	-0.032416	0.463281	-0.626226	-0.591553	-0.685059	-0.073730	0.106609	0.018052	0.017331	0.594281	0.540935	-0.347866	0.482917	60.628771	-69.376256	34.130767
37320		10.755016	1.331252	1.608029	2.079737	0.511844	0.931631	0.032028	0.491826	-0.666080	-0.580078	-0.696045	-0.080078	0.107633	0.012952	0.015818	0.596629	0.541027	-0.344526	0.482313	60.505857	-68.906878	34.285265
37321		11.200841	1.953072	2.198587	1.760834	0.053298	1.632963	0.057805	0.502724	-0.705438	-0.562012	-0.700439	-0.088623	0.112131	0.019129	0.021710	0.599012	0.541229	-0.340973	0.481656	60.418534	-68.414016	34.418248
37322		11.416551	2.201322	2.536542	1.711299	-0.178519	1.962543	0.072803	0.546096	-0.756185	-0.557373	-0.707031	-0.084229	0.114316	0.021572	0.025061	0.601537	0.541446	-0.337115	0.480981	60.326395	-67.884206	34.565809
37323		11.409536	2.012796	2.629968	1.986764	-0.189829	1.898894	0.064848	0.587145	-0.814823	-0.552734	-0.713623	-0.083984	0.114253	0.019654	0.025971	0.604281	0.541627	-0.332982	0.480216	60.226679	-67.312918	34.717506
37324		11.379587	2.438268	2.461029	1.651508	0.025516	1.967268	0.076553	0.634699	-0.860309	-0.537109	-0.718018	-0.094727	0.113977	0.023883	0.024258	0.607164	0.541790	-0.328549	0.479449	60.114745	-66.705911	34.890119
37325		11.570169	2.128318	1.858421	2.032139	0.752879	1.898602	0.091851	0.678416	-0.929838	-0.523682	-0.717773	-0.085938	0.115861	0.020736	0.018201	0.610226	0.541992	-0.323744	0.478600	60.014714	-66.051348	35.060369
37326		11.776534	1.886991	1.254707	2.357216	1.486641	1.851509	0.026726	0.698885	-0.980414	-0.525635	-0.728760	-0.085693	0.117899	0.018291	0.012138	0.613597	0.542009	-0.318889	0.477530	59.894633	-65.366109	35.212323
37327		12.413870	2.686786	1.179386	1.933879	1.774377	2.670238	-0.029219	0.732148	-1.044274	-0.505371	-0.735107	-0.083252	0.124319	0.026221	0.011335	0.617302	0.541856	-0.313878	0.476247	59.754345	-64.639334	35.352179
37328		12.846998	2.466175	1.408723	2.446205	1.777011	2.992292	-0.118619	0.779709	-1.119553	-0.496094	-0.741943	-0.096191	0.128659	0.023950	0.013572	0.621475	0.541408	-0.308717	0.474699	59.567793	-63.861589	35.487288
37329		13.580266	2.099998	1.180068	3.155513	2.319474	3.411746	-0.247011	0.826852	-1.184173	-0.489258	-0.748291	-0.093994	0.135971	0.020209	0.011213	0.626191	0.540522	-0.303525	0.472856	59.309120	-63.038076	35.621668
37330		14.286083	2.169427	1.289811	3.517387	2.531789	4.032025	-0.311735	0.871142	-1.263518	-0.462158	-0.759277	-0.102295	0.143048	0.020810	0.012242	0.631301	0.539418	-0.298115	0.470759	59.028050	-62.162178	35.740568
37331		14.718615	1.573900	1.295702	4.393306	2.803655	4.102308	-0.375419	0.921279	-1.354314	-0.453125	-0.763672	-0.111084	0.147346	0.014765	0.012250	0.636829	0.538094	-0.292436	0.468385	58.727072	-61.227062	35.841367
37332		15.211710	1.116323	1.246500	5.175126	3.150777	4.240103	-0.441499	0.975668	-1.443450	-0.444092	-0.768066	-0.113281	0.152251	0.010091	0.011699	0.642776	0.536523	-0.286473	0.465741	58.400847	-60.231439	35.928908
37333		16.045871	-0.191936	1.172150	6.877455	3.637222	4.270811	-0.472592	1.048552	-1.517860	-0.421631	-0.772461	-0.119629	0.160497	-0.003111	0.010887	0.649027	0.534743	-0.280133	0.462968	58.047749	-59.178255	36.027289
37334		16.597152	-1.213326	1.047177	8.211836	4.087134	4.111642	-0.474227	1.106839	-1.604733	-0.412354	-0.781250	-0.130371	0.165922	-0.013441	0.009584	0.655506	0.532893	-0.273339	0.460025	57.704760	-58.063966	36.114404
37335		16.801189	-1.750231	0.534126	8.924292	4.797967	3.713414	-0.419885	1.153046	-1.700729	-0.412354	-0.783447	-0.128174	0.167882	-0.018920	0.004412	0.662051	0.531189	-0.266001	0.456914	57.416922	-56.890433	36.173165
37336		16.548847	-3.071981	-0.647385	10.045922	5.963955	2.320756	-0.341388	1.151038	-1.823649	-0.387451	-0.792236	-0.136719	0.165158	-0.032239	-0.007371	0.668594	0.529855	-0.258117	0.453445	57.241898	-55.656506	36.152153
37337		15.831013	-2.823466	-0.786477	9.698272	5.995461	1.553882	-0.311894	1.105850	-1.931115	-0.376221	-0.796631	-0.145508	0.157981	-0.029774	-0.008693	0.675157	0.528792	-0.250025	0.449477	57.165477	-54.387376	36.029617
37338		15.135865	-2.113148	-1.071781	8.932448	6.172222	0.995324	-0.253734	1.093249	-2.040033	-0.360352	-0.800781	-0.147461	0.151071	-0.022688	-0.011516	0.681712	0.528024	-0.241501	0.445124	57.173309	-53.067259	35.843439
37339		14.083081	-0.979774	-1.094842	7.658107	5.989213	0.481259	-0.075327	1.056113	-2.092613	-0.342529	-0.805176	-0.149414	0.140658	-0.011274	-0.011687	0.687769	0.527936	-0.232568	0.440646	57.318344	-51.736576	35.607824
37340		13.062182	-0.348767	-1.064719	6.818215	5.735392	-0.195753	0.143654	1.050731	-2.072742	-0.328857	-0.811768	-0.149170	0.130518	-0.004833	-0.011336	0.693112	0.528521	-0.223158	0.436420	57.570227	-50.413258	35.393865
37341		11.844545	2.428642	0.490271	4.290227	4.116031	0.726677	0.663641	1.052791	-1.985747	-0.317383	-0.826904	-0.144531	0.118703	0.023094	0.004356	0.696790	0.530732	-0.212847	0.433017	58.069821	-49.134782	35.239221
37342		10.201289	6.607749	1.449180	0.330624	2.968495	2.057509	0.711859	1.048248	-2.001155	-0.306152	-0.824707	-0.142334	0.102742	0.065001	0.014187	0.700280	0.533066	-0.202336	0.429544	58.586662	-47.845207	35.097878
37343		9.581520	6.825962	0.886007	-0.046497	3.346051	1.500182	0.890685	0.980036	-1.977915	-0.292725	-0.828857	-0.139893	0.096527	0.067268	0.008689	0.703068	0.536074	-0.191757	0.426086	59.216503	-46.590737	34.936804
37344		8.528340	9.511701	1.262471	-2.486574	2.816179	2.462459	0.944889	0.892119	-1.923451	-0.281250	-0.839600	-0.128418	0.086249	0.094231	0.012688	0.705422	0.539334	-0.181447	0.422582	59.885936	-45.383172	34.763110
37345		8.022253	8.947099	1.156055	-2.114692	2.747650	1.750929	0.445432	0.890112	-1.900733	-0.272217	-0.846191	-0.125977	0.081119	0.088677	0.011399	0.708976	0.540751	-0.172283	0.418640	60.248596	-44.190796	34.612657
37346		6.815221	6.450010	0.758877	-0.776039	2.548412	-0.783483	0.004361	0.866873	-1.727220	-0.254395	-0.841797	-0.137207	0.068738	0.063908	0.007293	0.713274	0.540446	-0.164531	0.414834	60.313443	-43.086602	34.526819
37347		5.290841	6.116746	-0.640207	-1.608926	3.264669	-2.562257	-0.708505	0.844201	-1.586528	-0.258789	-0.842041	-0.152588	0.053363	0.060722	-0.006842	0.719114	0.537484	-0.158749	0.410835	59.944942	-42.063280	34.473875
37348		3.806340	0.920364	-4.889961	0.618679	6.100707	-8.530232	-1.264309	0.388244	-1.052199	-0.252197	-0.839844	-0.166016	0.038015	0.008694	-0.049029	0.724937	0.532988	-0.157125	0.407065	59.326873	-41.432191	34.318847
37349		5.546172	-3.592321	-5.627127	5.041853	7.014919	-10.648377	-1.672213	0.091361	-0.551617	-0.243408	-0.837891	-0.179199	0.055336	-0.036545	-0.055993	0.730533	0.527192	-0.158778	0.403955	58.479929	-41.140537	34.153044
37350		4.630604	-5.567021	-3.183340	6.519780	4.105828	-11.601835	-1.937774	0.003015	-0.303315	-0.252197	-0.833740	-0.206055	0.046221	-0.056045	-0.031292	0.736203	0.520354	-0.161882	0.401286	57.454262	-40.993902	34.029001
37351		4.428246	-5.282652	-1.456583	6.540986	2.404232	-10.847840	-2.003850	-0.035766	-0.030868	-0.256836	-0.831787	-0.223633	0.044277	-0.052976	-0.014028	0.741385	0.513089	-0.166008	0.399411	56.336769	-40.996978	33.984778
37352		4.103595	-4.057194	-0.420216	5.602065	1.446754	-9.823914	-1.812643	-0.163682	0.245521	-0.259277	-0.818848	-0.241699	0.041089	-0.040557	-0.003801	0.745360	0.506503	-0.170867	0.398370	55.302440	-41.167748	33.983052
37353		4.219548	-3.106347	-0.542355	4.940906	1.708017	-9.166255	-1.588723	-0.349569	0.498670	-0.270508	-0.821289	-0.252930	0.042282	-0.031000	-0.005103	0.748036	0.500872	-0.176657	0.397945	54.398631	-41.523881	33.975391
37354		4.458337	-2.832236	-1.059718	4.817823	2.274054	-9.013834	-1.318793	-0.570511	0.774039	-0.288574	-0.810547	-0.266357	0.044722	-0.028218	-0.010283	0.749252	0.496406	-0.183358	0.398223	53.652117	-42.076598	33.966391
37355		4.752756	-2.680294	-1.109367	4.879471	2.430777	-8.679176	-1.021242	-0.800989	1.055216	-0.304443	-0.799805	-0.273438	0.047712	-0.026607	-0.010767	0.748896	0.493228	-0.191073	0.399213	53.080928	-42.843218	33.947487
37356		4.942352	-2.509007	-0.936847	4.871610	2.354279	-8.288355	-0.674297	-1.036878	1.327401	-0.317871	-0.793457	-0.282471	0.049636	-0.024792	-0.009028	0.746870	0.491516	-0.199577	0.400956	52.714362	-43.810022	33.923176
37357		5.282522	-2.391716	-0.624371	4.989033	2.202631	-7.745817	-0.314672	-1.243623	1.602418	-0.338135	-0.791504	-0.284668	0.053052	-0.023502	-0.005877	0.743120	0.491246	-0.208852	0.403523	52.550128	-44.980160	33.901525
37358		5.523566	-1.969246	-0.219142	4.782203	1.981200	-7.048708	0.002121	-1.412310	1.872252	-0.358398	-0.782715	-0.276123	0.055430	-0.019174	-0.001801	0.737793	0.492146	-0.218689	0.406976	52.547010	-46.325687	33.911925
37359		5.705481	-1.144514	-0.029487	4.161607	1.989862	-6.265452	0.239544	-1.574240	2.111320	-0.385742	-0.769531	-0.267822	0.057171	-0.010842	0.000142	0.731054	0.493941	-0.229234	0.411137	52.674531	-47.843935	33.934858
37360		6.060978	-0.474581	0.261228	3.733527	1.916430	-5.406501	0.405779	-1.731969	2.322000	-0.414795	-0.763184	-0.268066	0.060634	-0.004048	0.003129	0.723196	0.496302	-0.240449	0.415759	52.896849	-49.505465	33.952563
37361		6.620260	-0.130467	0.337815	3.630610	2.024933	-4.648022	0.553161	-1.882201	2.511530	-0.446533	-0.750000	-0.250732	0.066176	-0.000484	0.003999	0.714168	0.499199	-0.252351	0.420812	53.221203	-51.313736	33.954391
37362		7.317187	0.114673	0.537074	3.646189	2.017046	-3.773257	0.698318	-2.011924	2.683567	-0.475586	-0.741455	-0.251221	0.073089	0.002107	0.006113	0.704116	0.502498	-0.264735	0.426184	53.640505	-53.237237	33.934098
37363		8.067751	0.440649	0.831150	3.569642	1.905616	-2.770449	0.743236	-2.099691	2.853464	-0.507324	-0.728271	-0.233887	0.080511	0.005523	0.009176	0.693197	0.505791	-0.277719	0.431887	54.088326	-55.277130	33.916293
37364		8.750050	0.628406	1.165961	3.526233	1.673445	-1.870745	0.692203	-2.127706	2.992325	-0.534912	-0.706299	-0.216797	0.087263	0.007548	0.012614	0.681888	0.508572	-0.291124	0.437756	54.475419	-57.382591	33.931502
37365		9.138215	0.608213	1.488154	3.484396	1.308243	-1.313917	0.650762	-2.142366	3.124588	-0.568604	-0.695557	-0.208252	0.091106	0.007456	0.015881	0.670081	0.510888	-0.304954	0.443833	54.803110	-59.562874	33.990621
37366		9.600933	0.904201	1.920247	3.152703	0.858245	-0.539346	0.624086	-2.207855	3.246424	-0.602783	-0.673584	-0.191406	0.095626	0.010534	0.020291	0.657763	0.512858	-0.319204	0.449927	55.111077	-61.813852	34.051117
37367		10.822997	1.466559	2.562461	2.816025	0.374860	1.039382	0.425970	-2.251436	3.332571	-0.632324	-0.657959	-0.169678	0.107668	0.016406	0.026873	0.645390	0.513934	-0.334198	0.455691	55.307960	-64.127511	34.106324
37368		11.912960	1.433758	3.078881	2.878705	-0.119337	2.234383	0.133250	-2.261311	3.401504	-0.666504	-0.631836	-0.163818	0.118505	0.016336	0.032142	0.633362	0.513756	-0.349867	0.460978	55.297320	-66.469119	34.205481
37369		11.980206	1.839424	3.519956	2.106642	-0.790397	2.605584	-0.032948	-2.266897	3.522428	-0.700928	-0.603516	-0.149170	0.119044	0.020501	0.036549	0.621155	0.512642	-0.366154	0.466150	55.084567	-68.877622	34.419029
37370		11.363291	2.608709	3.904182	0.755692	-1.537928	2.361603	-0.023233	-2.284165	3.641321	-0.730713	-0.579346	-0.132080	0.112677	0.028149	0.040329	0.608380	0.511139	-0.382554	0.471448	54.726192	-71.338853	34.789201
37371		11.865103	3.056607	3.737985	-0.004791	-1.551973	2.901953	0.017467	-2.286595	3.685839	-0.758301	-0.550537	-0.113037	0.117623	0.032737	0.038731	0.595066	0.509444	-0.398860	0.476733	54.240964	-73.828670	35.310560
37372		13.199466	3.307250	3.564716	-0.438696	-1.463784	4.169631	0.107568	-2.261252	3.707290	-0.795166	-0.515625	-0.094238	0.130937	0.035487	0.037150	0.581282	0.507670	-0.414683	0.482100	53.547062	-76.310140	36.095531
37373		14.571329	4.226657	3.762200	-1.620238	-1.790887	5.629835	0.226795	-2.257702	3.741971	-0.811523	-0.489014	-0.072754	0.144452	0.044933	0.039307	0.566782	0.505938	-0.430147	0.487605	52.544544	-78.811699	37.260589
37374		15.229688	4.953773	3.493956	-2.817929	-1.807206	6.232298	0.298468	-2.244590	3.757688	-0.837402	-0.451660	-0.060547	0.150926	0.052328	0.036715	0.551877	0.504082	-0.445183	0.493097	50.882085	-81.300694	39.124757
37375		15.073718	4.840658	3.070842	-3.311241	-1.782015	5.868425	0.524290	-2.206897	3.802843	-0.858643	-0.412109	-0.035156	0.149430	0.051173	0.032494	0.536050	0.502425	-0.459502	0.499077	47.675191	-83.788438	42.666182
37376		15.181961	5.942155	3.318965	-4.969044	-2.415942	5.879464	0.909242	-2.146071	3.835731	-0.877441	-0.383301	-0.009277	0.150275	0.062157	0.035086	0.519104	0.501307	-0.472505	0.505926	39.786593	-86.204944	51.109117
37377		15.452357	7.350128	4.053610	-6.905248	-3.562046	5.961157	0.969506	-1.982077	3.745533	-0.898682	-0.345947	0.005127	0.152699	0.076170	0.042420	0.502311	0.499913	-0.484514	0.512852	9.724170	-88.217063	81.762245
37378		15.712654	7.767054	4.177540	-7.838365	-4.070852	5.891228	0.715037	-1.787095	3.484483	-0.908936	-0.308594	0.024170	0.155360	0.080234	0.043453	0.487134	0.497779	-0.495782	0.518765	-66.432832	-88.160783	158.359931
37379		15.572865	9.466608	3.974285	-10.009665	-4.266300	5.336404	0.433895	-1.645758	3.095427	-0.920898	-0.281982	0.043213	0.153905	0.096969	0.041223	0.473809	0.495378	-0.506332	0.523195	-93.357055	-86.531710	-174.439834
37380		14.956289	10.974997	3.851598	-11.879037	-4.464361	4.255286	-0.070102	-1.422359	2.607528	-0.928467	-0.253418	0.051270	0.147836	0.111699	0.039533	0.463482	0.492305	-0.516286	0.525614	-101.662215	-84.939559	-166.149663
37381		13.503259	11.377752	3.959741	-12.466876	-4.725064	2.422736	-0.425068	-1.211700	2.141733	-0.935791	-0.235596	0.068604	0.133561	0.115298	0.040166	0.455684	0.488958	-0.525476	0.526447	-105.774770	-83.577276	-162.259898
37382		12.513862	12.322492	4.092926	-13.532521	-4.938702	1.034560	-0.658513	-1.048552	1.661415	-0.936035	-0.222412	0.070557	0.123893	0.124393	0.041173	0.450114	0.485854	-0.533630	0.525911	-108.572016	-82.489331	-159.818953
37383		11.399785	12.691483	4.585035	-13.919566	-5.418909	-0.382580	-0.676658	-0.889467	1.213505	-0.936523	-0.209229	0.079102	0.113020	0.127758	0.045923	0.446133	0.483440	-0.540365	0.524649	-110.759357	-81.658958	-158.000315
37384		10.694796	12.367703	5.325630	-13.603374	-6.114075	-1.253193	-0.643536	-0.685027	0.736410	-0.936768	-0.207031	0.083252	0.106309	0.124241	0.053222	0.443871	0.481830	-0.545350	0.522888	-112.526833	-81.120899	-156.582496
37385		10.635831	11.380977	6.133516	-12.674316	-6.893099	-1.320697	-0.531956	-0.448581	0.235657	-0.941162	-0.207031	0.087891	0.106087	0.114098	0.061270	0.443273	0.481203	-0.548316	0.520867	-114.011932	-80.892335	-155.385635
37386		11.831236	10.451713	6.736567	-11.941527	-7.554033	-0.069266	-0.375190	-0.197060	-0.238746	-0.938721	-0.211426	0.085693	0.118371	0.104502	0.067286	0.444228	0.481565	-0.549152	0.518835	-115.242624	-80.968405	-154.353909
37387		10.755882	9.669858	9.058625	-10.963314	-9.772244	-1.120063	-0.170301	0.227344	-0.711378	-0.938721	-0.215820	0.085693	0.108005	0.096392	0.090381	0.447073	0.482576	-0.547378	0.517324	-115.736298	-81.390436	-153.950620
37388		11.123643	10.876342	10.610771	-12.099575	-11.317372	-0.861127	0.294690	0.626106	-1.204807	-0.938232	-0.231201	0.079590	0.112220	0.107933	0.105917	0.451153	0.484928	-0.542294	0.516936	-115.407557	-82.166684	-154.109035
37389		12.134036	8.271242	10.806981	-9.445047	-11.522859	0.696471	0.727601	1.028535	-1.598935	-0.926514	-0.248779	0.068848	0.122549	0.081344	0.107739	0.456259	0.488256	-0.534184	0.517766	-113.810705	-83.244347	-155.295089
37390		12.703420	-4.706840	2.733239	3.484122	-3.192075	3.174448	1.162282	1.119548	-1.538650	-0.925781	-0.266602	0.056152	0.126816	-0.048200	0.026344	0.460339	0.492116	-0.524830	0.520062	-110.796407	-84.302523	-157.654139
37391		12.530043	-12.613478	-1.683847	11.407112	1.693033	3.823200	1.762353	0.792586	-1.035903	-0.930176	-0.270752	0.069580	0.124574	-0.126623	-0.018447	0.460724	0.496833	-0.515832	0.524221	-107.296697	-85.012040	-160.151137
37392		12.302815	-5.199479	2.680085	4.370136	-2.723165	2.799140	1.749301	0.675483	-0.936780	-0.932129	-0.279785	0.058594	0.122871	-0.052800	0.025926	0.460523	0.501508	-0.507334	0.528223	-103.512204	-85.631738	-162.939485
37393		12.849726	4.530111	5.904564	-4.955551	-6.427693	2.622028	1.322070	0.793797	-1.345846	-0.918213	-0.294922	0.063477	0.129030	0.044045	0.058828	0.462722	0.505878	-0.498603	0.530444	-98.452357	-86.475866	-167.247629
37394		11.587105	5.334651	1.471713	-5.798564	-2.002596	1.467721	0.906585	0.637272	-1.599087	-0.913330	-0.308105	0.059326	0.116339	0.052351	0.014586	0.466209	0.510275	-0.490655	0.530590	-92.864688	-87.424346	-172.319749
37395		11.627482	2.176759	-1.703883	-2.742272	1.465029	1.727278	0.985500	0.389587	-1.649477	-0.915039	-0.325684	0.064209	0.116416	0.020892	-0.017161	0.468974	0.515598	-0.482885	0.530135	-86.048316	-88.369582	-178.570560
37396		10.678685	4.015705	-2.298636	-4.435804	1.915678	0.774817	0.889583	0.398718	-1.713023	-0.903564	-0.341064	0.053711	0.107080	0.039343	-0.023023	0.472134	0.520766	-0.475151	0.529267	-61.594662	-89.269137	157.484375
37397		9.041510	4.207684	0.425922	-4.179108	-0.786480	-0.782225	0.295409	0.523530	-1.560732	-0.900635	-0.358643	0.056396	0.090751	0.041363	0.004083	0.476694	0.523806	-0.469039	0.527630	21.483894	-89.306641	74.575415
37398		9.506647	4.797018	2.709955	-4.393554	-3.047404	-0.213770	-0.257156	0.617342	-1.412852	-0.895996	-0.367432	0.045410	0.095485	0.047331	0.026744	0.482501	0.524890	-0.464530	0.525258	46.783834	-88.543495	49.127450
37399		8.644427	2.461349	0.904868	-2.157538	-0.953342	-1.092716	-0.322405	0.545340	-1.323560	-0.884277	-0.382813	0.041504	0.086629	0.024055	0.008774	0.488049	0.525779	-0.460558	0.522734	54.184937	-87.758703	41.542685
37400		8.346246	1.826598	0.081302	-1.518949	-0.021461	-1.404696	-0.160567	0.435676	-1.130495	-0.881592	-0.398193	0.032959	0.083565	0.017794	0.000617	0.492393	0.526870	-0.456933	0.520738	57.629269	-87.083765	38.005940
37401		9.750908	2.108877	1.402144	-1.517386	-1.264957	0.066069	-0.208853	0.458620	-1.095581	-0.881348	-0.406982	0.031006	0.097654	0.020569	0.013776	0.496810	0.527694	-0.453438	0.518762	59.394686	-86.411311	36.122477
37402		10.714061	0.744535	1.256954	-0.021880	-0.894202	0.963396	-0.218776	0.473208	-1.091753	-0.872070	-0.417969	0.022461	0.107209	0.006874	0.012308	0.501256	0.528417	-0.449940	0.516790	60.462311	-85.735595	34.929827
37403		10.368750	0.192483	1.111890	0.597761	-0.656302	0.579386	-0.091281	0.405302	-1.033060	-0.864746	-0.433350	0.016357	0.103718	0.001394	0.010908	0.505046	0.529494	-0.446408	0.515058	61.500892	-85.105298	33.840059
37404		10.352918	0.287377	1.250868	0.617011	-0.755560	0.573725	0.050701	0.351611	-1.003191	-0.864746	-0.437744	0.014160	0.103564	0.002351	0.012327	0.508246	0.530977	-0.442727	0.513558	62.572443	-84.504533	32.796391
37405		10.351743	0.590309	1.342496	0.426113	-0.830831	0.600598	0.113403	0.317684	-0.985541	-0.850830	-0.457520	0.019287	0.103566	0.005385	0.013264	0.511150	0.532658	-0.438991	0.512140	63.589706	-83.918449	31.843449
37406		10.468036	1.267643	1.309617	-0.135683	-0.811711	0.780870	0.047968	0.321795	-1.011192	-0.843750	-0.468506	0.003906	0.104764	0.012144	0.012931	0.514284	0.534198	-0.435347	0.510507	64.434824	-83.318158	31.023853
37407		10.328253	0.916089	1.188653	0.288920	-0.623029	0.601355	-0.056444	0.345899	-1.004026	-0.839111	-0.470703	0.008545	0.103347	0.008646	0.011705	0.517722	0.535382	-0.431899	0.508718	64.972238	-82.713126	30.454006
37408		10.064352	1.473035	0.763014	-0.235017	-0.223456	0.382269	0.001506	0.334002	-0.964519	-0.834229	-0.483887	0.002197	0.100726	0.014245	0.007462	0.520859	0.536641	-0.428443	0.507108	65.435029	-82.132424	29.991147
37409		10.068789	2.149427	0.520181	-0.834468	-0.000533	0.462232	0.013625	0.331426	-0.901449	-0.827393	-0.490479	0.002441	0.100792	0.021040	0.005036	0.523791	0.537794	-0.425108	0.505672	65.748348	-81.583372	29.686655
37410		10.104485	2.794872	0.432411	-1.389703	0.077167	0.587356	-0.178706	0.361903	-0.843742	-0.818115	-0.497070	-0.004150	0.101169	0.027526	0.004116	0.527142	0.538228	-0.422339	0.504046	65.731530	-81.058649	29.603231
37411		10.173648	3.086717	0.199714	-1.609414	0.342000	0.692684	-0.382644	0.372076	-0.812057	-0.815674	-0.510254	-0.010254	0.101864	0.030457	0.001749	0.530977	0.538023	-0.420119	0.502090	65.519132	-80.546585	29.600316
37412		10.208329	2.188983	0.148095	-0.648765	0.527344	0.595188	-0.573537	0.359368	-0.748487	-0.810791	-0.521240	-0.018799	0.102167	0.021511	0.001235	0.535121	0.537193	-0.418587	0.499854	65.163113	-80.072170	29.631266
37413		10.163637	1.625124	0.324062	-0.016165	0.445079	0.475493	-0.617151	0.343868	-0.677436	-0.806152	-0.525635	-0.020996	0.101696	0.015916	0.003016	0.539167	0.536124	-0.417374	0.497663	64.748277	-79.636786	29.696924
37414		10.224835	1.247175	0.287810	0.423589	0.560484	0.467950	-0.497811	0.338353	-0.614963	-0.799316	-0.532471	-0.033936	0.102291	0.012164	0.002675	0.542707	0.535248	-0.416049	0.495865	64.355291	-79.236598	29.809700
37415		9.938356	1.474236	0.713932	0.241523	0.138051	0.255891	-0.340308	0.312177	-0.534947	-0.790283	-0.534668	-0.040527	0.099433	0.014488	0.006959	0.545573	0.534690	-0.414602	0.494532	64.034270	-78.882553	29.941253
37416		9.759696	2.198797	1.329705	-0.407100	-0.496374	0.259159	-0.235695	0.303350	-0.490067	-0.781006	-0.543457	-0.042480	0.097670	0.021764	0.013123	0.548016	0.534339	-0.413047	0.493510	63.754146	-78.555238	30.092358
37417		9.612265	1.897105	1.048414	-0.113458	-0.179366	0.038634	-0.127851	0.268065	-0.467577	-0.776367	-0.550049	-0.044678	0.096181	0.018753	0.010343	0.550049	0.534317	-0.411371	0.492671	63.603937	-78.246723	30.173393
37418		9.470543	1.869108	0.977556	-0.075571	-0.091532	-0.110828	-0.075266	0.273451	-0.420496	-0.771729	-0.558838	-0.048828	0.094758	0.018496	0.009639	0.551821	0.534329	-0.409681	0.492084	63.422321	-77.962537	30.318096
37419		9.633921	2.201151	0.642339	-0.358981	0.270813	0.080123	-0.084018	0.280079	-0.392835	-0.769287	-0.561035	-0.051025	0.096391	0.021825	0.006279	0.553572	0.534237	-0.408059	0.491566	63.192609	-77.689116	30.506151
37420		9.509276	1.812972	0.484973	0.021175	0.465067	-0.131184	-0.133076	0.271370	-0.353249	-0.762451	-0.563232	-0.059814	0.095131	0.017965	0.004709	0.555323	0.533950	-0.406692	0.491036	62.920134	-77.439588	30.710273
37421		9.657848	2.267453	0.603806	-0.356317	0.370995	0.112795	-0.185675	0.268463	-0.337991	-0.746826	-0.569580	-0.059570	0.096625	0.022517	0.005887	0.557182	0.533484	-0.405495	0.490424	62.613328	-77.196782	30.917532
37422		9.648217	1.806806	0.631630	0.124471	0.397049	0.014739	-0.194998	0.273232	-0.321839	-0.746582	-0.574219	-0.068115	0.096520	0.017919	0.006167	0.559019	0.532952	-0.404355	0.489855	62.284237	-76.962264	31.143729
37423		9.495694	1.612392	0.853903	0.328892	0.198251	-0.150930	-0.180476	0.256154	-0.311900	-0.739746	-0.578369	-0.063721	0.094993	0.015983	0.008403	0.560773	0.532470	-0.403248	0.489286	61.995746	-76.735484	31.335013
37424		9.746382	2.039893	1.252020	0.015642	-0.156923	0.222035	-0.149530	0.260749	-0.329794	-0.730713	-0.584961	-0.063477	0.097513	0.020247	0.012378	0.562477	0.532106	-0.402006	0.488748	61.746080	-76.499820	31.506773
37425		9.650071	1.212451	1.307470	0.839828	-0.157192	-0.036532	-0.098881	0.278883	-0.346561	-0.726074	-0.589600	-0.076660	0.096540	0.011964	0.012934	0.564136	0.531864	-0.400538	0.488303	61.511670	-76.249119	31.691328
37426		9.612270	1.496835	1.340775	0.589404	-0.177803	-0.011935	-0.024449	0.277937	-0.368289	-0.723633	-0.593750	-0.067627	0.096169	0.014793	0.013272	0.565630	0.531882	-0.398836	0.487949	61.354869	-75.989079	31.841615
37427		9.590154	1.221771	0.976293	0.864321	0.220898	-0.136898	0.030043	0.282089	-0.389436	-0.710205	-0.598145	-0.069580	0.095939	0.012029	0.009629	0.567053	0.532075	-0.396929	0.487642	61.246816	-75.715716	31.971876
37428		9.678702	1.038000	0.823324	1.088682	0.419712	-0.113666	0.049545	0.274878	-0.398053	-0.705811	-0.595947	-0.076416	0.096819	0.010185	0.008103	0.568411	0.532363	-0.394971	0.487336	61.179893	-75.441437	32.073492
37429		9.808389	1.538413	0.726416	0.660659	0.540607	0.105476	0.043245	0.282665	-0.412158	-0.707764	-0.604736	-0.069580	0.098125	0.015180	0.007129	0.569848	0.532630	-0.392966	0.486987	61.110283	-75.156555	32.172244
37430		9.873472	1.507933	0.839378	0.753710	0.469654	0.171048	0.027953	0.310730	-0.443623	-0.691895	-0.613525	-0.075928	0.098781	0.014859	0.008242	0.571437	0.532852	-0.390832	0.486599	61.017652	-74.849422	32.287936
37431		9.805852	1.842536	0.914414	0.463279	0.405473	0.187638	0.038348	0.328224	-0.474659	-0.682861	-0.615479	-0.075684	0.098117	0.018191	0.008987	0.573107	0.533121	-0.388528	0.486186	60.934506	-74.520893	32.400690
37432		9.827778	2.059172	0.786416	0.296416	0.562633	0.239134	0.043335	0.372057	-0.514707	-0.675781	-0.624268	-0.080078	0.098345	0.020337	0.007686	0.574938	0.533367	-0.385985	0.485779	60.820417	-74.160985	32.548186
37433		9.858173	1.741291	0.746009	0.661419	0.660674	0.182202	0.036822	0.405582	-0.569695	-0.668945	-0.630859	-0.075439	0.098646	0.017131	0.007263	0.576980	0.533617	-0.383203	0.485287	60.703835	-73.763250	32.695174
37434		10.023073	1.994498	0.841688	0.520100	0.625173	0.409182	0.051493	0.433957	-0.618330	-0.655762	-0.628662	-0.088623	0.100310	0.019633	0.008204	0.579146	0.533923	-0.380176	0.484751	60.600268	-73.334053	32.837161
37435		10.090243	1.652152	0.880449	0.934055	0.658293	0.385912	0.064259	0.448538	-0.666107	-0.653320	-0.635254	-0.081787	0.100976	0.016183	0.008583	0.581414	0.534316	-0.376935	0.484133	60.530320	-72.876057	32.952434
37436		10.348074	1.581635	0.992082	1.141696	0.642011	0.620537	0.041495	0.465119	-0.677565	-0.644043	-0.646240	-0.083740	0.103556	0.015464	0.009683	0.583791	0.534613	-0.373672	0.483474	60.436385	-72.408413	33.079013
37437		10.006113	2.286583	1.173609	0.459284	0.430799	0.499003	0.024266	0.473300	-0.702997	-0.628174	-0.652588	-0.087891	0.100168	0.022512	0.011502	0.586282	0.534880	-0.370346	0.482723	60.348097	-71.925033	33.190011
37438		10.228048	2.386101	1.685051	0.535290	0.015601	0.810793	-0.009274	0.501732	-0.730879	-0.621338	-0.656982	-0.092285	0.102409	0.023488	0.016593	0.588969	0.535020	-0.366942	0.481895	60.227409	-71.420334	33.314821
37439		10.280058	2.347444	1.623359	0.655879	0.145794	0.834997	-0.023978	0.527474	-0.738052	-0.607910	-0.663574	-0.092041	0.102929	0.023097	0.015959	0.591751	0.535058	-0.363465	0.481078	60.073842	-70.903998	33.466203
37440		10.428264	2.776343	1.564113	0.358009	0.277767	1.082128	0.012312	0.552953	-0.769146	-0.594238	-0.670166	-0.096191	0.104431	0.027361	0.015354	0.594542	0.535187	-0.359741	0.480293	59.938270	-70.365453	33.620672
37441		10.418071	2.276338	1.250485	0.886366	0.664900	0.866873	0.016276	0.563350	-0.778319	-0.591797	-0.674561	-0.096191	0.104303	0.022357	0.012213	0.597352	0.535308	-0.355938	0.479504	59.805853	-69.818665	33.775058
37442		10.951957	2.614251	1.501378	0.822760	0.577843	1.501989	0.035164	0.600991	-0.803140	-0.578369	-0.678955	-0.102539	0.109668	0.025700	0.014689	0.600221	0.535424	-0.351908	0.478765	59.661332	-69.249187	33.954132
37443		11.243739	2.046145	2.014358	1.585051	0.225865	1.680849	0.059155	0.643982	-0.824545	-0.569092	-0.689697	-0.097900	0.112585	0.019992	0.019787	0.603139	0.535535	-0.347620	0.478106	59.500577	-68.655991	34.166305
37444		11.496088	1.776947	1.228013	1.936450	1.134590	1.667170	0.043280	0.665023	-0.856007	-0.555420	-0.700684	-0.104248	0.115076	0.017275	0.011901	0.606193	0.535586	-0.343218	0.477367	59.337873	-68.041435	34.371377
37445		12.221892	2.153379	1.661438	1.945924	0.939926	2.520206	0.030907	0.701069	-0.906211	-0.550781	-0.705078	-0.099609	0.122372	0.020977	0.016189	0.609444	0.535584	-0.338587	0.476537	59.170966	-67.391007	34.574464
37446		12.380076	1.977079	1.769500	2.282508	0.969712	2.603195	-0.037845	0.739916	-0.957671	-0.532715	-0.707275	-0.114990	0.123958	0.019181	0.017233	0.613045	0.535348	-0.333855	0.475520	58.966388	-66.703979	34.776451
37447		13.008967	2.182022	2.159788	2.452721	0.833700	3.300119	-0.103117	0.802839	-1.035762	-0.521484	-0.713623	-0.108154	0.130286	0.021157	0.021064	0.617088	0.534871	-0.328862	0.474306	58.719294	-65.959480	34.985248
37448		14.075749	1.942666	1.728863	3.124734	1.631962	4.060270	-0.137294	0.884246	-1.111147	-0.516602	-0.724609	-0.110107	0.140937	0.018656	0.016653	0.621505	0.534195	-0.323483	0.472997	58.429109	-65.153643	35.220998
37449		14.528403	1.232527	1.463669	4.067052	2.151375	4.099982	-0.177659	0.948070	-1.224404	-0.491943	-0.731201	-0.116455	0.145423	0.011448	0.013937	0.626367	0.533395	-0.317681	0.471417	58.138861	-64.272869	35.432877
37450		15.107254	1.255312	1.510223	4.425629	2.404302	4.564843	-0.246979	1.013686	-1.352587	-0.482910	-0.737793	-0.127441	0.151227	0.011549	0.014321	0.631778	0.532392	-0.311474	0.469467	57.840198	-63.309466	35.611490
37451		16.037932	-0.526899	1.080729	6.558237	3.240747	4.510052	-0.329573	1.097269	-1.482147	-0.473877	-0.739990	-0.125000	0.160391	-0.006441	0.009937	0.637792	0.531090	-0.304829	0.467165	57.509758	-62.257585	35.774051
37452		16.856551	-1.058245	0.563770	7.511041	4.137180	4.748900	-0.327015	1.176368	-1.607530	-0.455811	-0.748779	-0.135742	0.168503	-0.011929	0.004665	0.644153	0.529754	-0.297562	0.464633	57.199455	-61.120090	35.917203
37453		17.809038	-1.416939	0.437104	8.433562	4.717490	5.219574	-0.220221	1.251257	-1.744502	-0.435303	-0.757324	-0.135498	0.177981	-0.015718	0.003274	0.650590	0.528732	-0.289418	0.461967	56.977218	-59.893865	36.030666
37454		17.726443	-1.610736	0.551852	8.847354	4.781498	4.883360	-0.187502	1.287148	-1.892224	-0.426270	-0.763916	-0.139648	0.177132	-0.017779	0.004394	0.657254	0.527883	-0.280648	0.458905	56.834096	-58.584562	36.075806
37455		16.622232	-2.098634	0.159815	9.038813	4.992928	3.381469	-0.253073	1.283453	-2.025970	-0.410400	-0.774902	-0.148193	0.166004	-0.022668	0.000560	0.664299	0.526940	-0.271662	0.455237	56.729420	-57.213641	36.031042
37456		16.049894	-2.728836	-0.072477	9.580192	5.176020	2.289633	-0.258630	1.265890	-2.153479	-0.387939	-0.777100	-0.161377	0.160184	-0.029016	-0.001703	0.671527	0.526114	-0.262357	0.451025	56.695630	-55.785823	35.897585
37457		15.555238	-2.064205	0.083829	9.045995	5.041007	1.976225	-0.242010	1.242320	-2.233577	-0.378662	-0.783691	-0.163330	0.155310	-0.022377	-0.000101	0.678750	0.525415	-0.252861	0.446429	56.717654	-54.329086	35.704146
37458		15.004092	-1.478112	-0.731178	8.429886	5.789323	1.289114	-0.415227	1.265205	-2.291013	-0.358398	-0.794434	-0.167480	0.149808	-0.016515	-0.008227	0.686474	0.524064	-0.243460	0.441405	56.642904	-52.835677	35.505250
37459		13.505105	-1.911729	-1.676497	8.177805	6.240237	-0.700829	-0.301890	1.209934	-2.228136	-0.342529	-0.803223	-0.171631	0.134722	-0.020646	-0.017550	0.693573	0.523055	-0.234147	0.436514	56.634506	-51.392498	35.299093
37460		12.370840	-1.088512	-0.670761	7.228074	5.059408	-1.047846	0.314910	1.158946	-2.089457	-0.331055	-0.812012	-0.169189	0.123544	-0.012165	-0.007442	0.698596	0.524058	-0.223967	0.432627	56.943855	-50.028834	35.136556
37461		10.065648	3.931476	1.221879	2.267565	2.922993	0.413575	1.167329	0.980918	-1.950815	-0.319824	-0.813965	-0.160156	0.101092	0.038260	0.011949	0.700776	0.528186	-0.212926	0.429645	57.770314	-48.789339	34.931221
37462		8.476640	6.812679	1.337009	-0.733049	2.472495	0.836187	1.308573	0.849940	-1.940306	-0.301758	-0.824707	-0.153320	0.085478	0.067212	0.013450	0.702319	0.533002	-0.202004	0.426441	58.717566	-47.589353	34.670470
37463		7.773929	8.377762	1.929926	-2.061410	1.787098	1.452187	1.156568	0.797517	-1.877832	-0.301758	-0.828857	-0.142090	0.078598	0.082930	0.019468	0.703972	0.537252	-0.191760	0.423098	59.557866	-46.436231	34.430028
37464		7.210500	9.933158	2.448049	-3.291913	1.233872	2.199275	0.714723	0.835729	-1.877538	-0.285889	-0.833252	-0.139648	0.073135	0.098561	0.024529	0.706764	0.539800	-0.182259	0.419384	60.103911	-45.267071	34.244098
37465		6.588335	7.467271	2.024293	-1.581561	1.288116	0.142226	0.210627	0.860696	-1.758199	-0.270264	-0.833252	-0.146240	0.066623	0.074068	0.020035	0.710607	0.540347	-0.174062	0.415650	60.302860	-44.152483	34.135532
37466		5.806113	6.829778	1.955529	-1.414867	1.094387	-0.813859	-0.432226	0.905571	-1.583200	-0.265625	-0.839844	-0.159424	0.058687	0.067877	0.019144	0.715803	0.538315	-0.167466	0.412066	60.061891	-43.108969	34.130342
37467		2.798767	0.358989	-3.968890	0.622689	4.783501	-9.146289	-0.818421	0.481211	-1.007053	-0.263428	-0.837646	-0.163818	0.027909	0.003287	-0.039770	0.720442	0.535258	-0.164755	0.409046	59.646809	-42.476143	34.054036
37468		4.648562	-4.185403	-5.224739	5.021332	6.242258	-11.310839	-0.988480	0.144527	-0.471442	-0.256592	-0.840088	-0.174805	0.046349	-0.042221	-0.052073	0.724141	0.531813	-0.165001	0.406902	59.146509	-42.203031	33.960567
37469		3.685534	-6.210490	-4.413759	6.182777	4.842613	-12.968068	-1.027692	-0.050768	-0.131532	-0.270020	-0.838135	-0.190430	0.036826	-0.062355	-0.043808	0.727065	0.528331	-0.166968	0.405419	58.622066	-42.158500	33.867618
37470		3.975259	-5.887171	-2.622830	6.487984	3.317846	-11.871384	-1.088338	-0.108089	0.191092	-0.285645	-0.836182	-0.197266	0.039823	-0.058975	-0.025886	0.729433	0.524458	-0.170078	0.404902	57.999785	-42.285787	33.870316
37471		3.811334	-4.169015	-0.949155	5.388146	1.900540	-10.216940	-1.083028	-0.174621	0.429108	-0.281494	-0.822998	-0.208496	0.038211	-0.041659	-0.009233	0.731217	0.520522	-0.174078	0.405062	57.342905	-42.552491	33.926871
37472		3.956882	-2.218433	-0.157346	4.106741	1.468776	-8.555581	-1.045506	-0.331537	0.644457	-0.297363	-0.819092	-0.226318	0.039642	-0.022064	-0.001392	0.732311	0.516831	-0.179091	0.405627	56.711081	-42.967297	33.979739
37473		4.118239	-1.360281	-0.276207	3.509347	1.735826	-7.926496	-1.035970	-0.542015	0.874218	-0.310547	-0.821289	-0.226318	0.041249	-0.013436	-0.002580	0.732684	0.513374	-0.185481	0.406470	56.106647	-43.562122	33.997990
37474		4.299475	-1.308223	-0.659067	3.508144	2.137218	-7.874600	-0.997833	-0.757269	1.114983	-0.326416	-0.810547	-0.237793	0.043091	-0.012874	-0.006363	0.732233	0.510237	-0.193148	0.407661	55.540767	-44.336079	33.994039
37475		4.535319	-1.416108	-0.931666	3.680104	2.432866	-7.817717	-0.836842	-0.958634	1.381819	-0.349121	-0.797607	-0.244873	0.045494	-0.013885	-0.009040	0.730566	0.507803	-0.201933	0.409429	55.068809	-45.305687	33.985491
37476		4.789236	-1.343587	-0.571137	3.784918	2.183498	-7.368499	-0.640964	-1.133473	1.649596	-0.369385	-0.795654	-0.249268	0.048032	-0.013058	-0.005397	0.727613	0.506120	-0.211571	0.411898	54.694569	-46.454138	33.999538
37477		4.973601	-1.106173	-0.108543	3.700079	1.830748	-6.824592	-0.427051	-1.282091	1.896886	-0.383057	-0.782471	-0.245361	0.049843	-0.010591	-0.000743	0.723319	0.505223	-0.221931	0.415097	54.424724	-47.772952	34.044046
37478		5.112678	-0.806885	0.289302	3.502847	1.517795	-6.305678	-0.210542	-1.435998	2.132068	-0.410156	-0.771729	-0.243408	0.051186	-0.007520	0.003269	0.717753	0.505066	-0.232937	0.418903	54.260957	-49.246914	34.105759
37479		5.598585	-0.494159	0.519114	3.434557	1.471103	-5.582395	-0.024153	-1.601636	2.353141	-0.441650	-0.765381	-0.243652	0.055995	-0.004282	0.005640	0.710877	0.505603	-0.244682	0.423260	54.205083	-50.885064	34.171650
37480		6.215576	-0.225078	0.861462	3.438919	1.333718	-4.731532	0.125441	-1.742074	2.555860	-0.464355	-0.750000	-0.237549	0.062100	-0.001463	0.009155	0.702915	0.506580	-0.257048	0.428035	54.224321	-52.658453	34.242602
37481		6.930138	0.132956	1.207183	3.364456	1.202738	-3.752049	0.208446	-1.832683	2.724800	-0.500488	-0.732666	-0.231445	0.069160	0.002259	0.012708	0.694038	0.507721	-0.269943	0.433199	54.272671	-54.546835	34.340210
37482		7.592981	0.631622	1.444367	3.077175	1.133659	-2.785700	0.212624	-1.885521	2.868546	-0.534424	-0.715088	-0.223145	0.075688	0.007387	0.015165	0.684617	0.508627	-0.283274	0.438582	54.281274	-56.513706	34.481302
37483		8.223714	0.783433	1.541193	3.016925	1.116946	-2.049838	0.213696	-1.906189	3.004902	-0.559326	-0.706299	-0.210205	0.081955	0.009050	0.016203	0.674609	0.509256	-0.296963	0.444268	54.227140	-58.557088	34.698534
37484		8.636214	0.877817	1.623165	2.867403	1.017579	-1.522736	0.292807	-1.956870	3.140698	-0.589111	-0.684570	-0.204346	0.086046	0.010107	0.017089	0.663844	0.509870	-0.310865	0.450229	54.157804	-60.674219	34.976959
37485		9.418713	1.161246	1.915847	2.657086	0.804226	-0.538364	0.380868	-2.013042	3.267489	-0.623047	-0.666992	-0.187012	0.093782	0.013109	0.020128	0.652205	0.510538	-0.325002	0.456457	54.084300	-62.874953	35.313756
37486		10.419395	1.321912	2.095415	2.568378	0.704530	0.560102	0.456585	-2.031169	3.375479	-0.657227	-0.647461	-0.176758	0.103731	0.014923	0.022042	0.639885	0.511108	-0.339141	0.462924	53.955762	-65.125525	35.751234
37487		11.427952	1.557341	2.375477	2.336769	0.463305	1.718705	0.490225	-2.046993	3.475169	-0.687012	-0.621094	-0.159668	0.113735	0.017493	0.024962	0.626924	0.511459	-0.353408	0.469551	53.730875	-67.433151	36.308733
37488		12.198091	1.863631	2.638572	1.884826	0.138596	2.662697	0.460013	-2.044445	3.562036	-0.716797	-0.594727	-0.140625	0.121345	0.020739	0.027674	0.613616	0.511328	-0.367773	0.476195	53.311468	-69.772469	37.045486
37489		12.369661	2.360374	2.890873	1.021906	-0.335864	3.061946	0.458507	-2.056976	3.663327	-0.746582	-0.568359	-0.123779	0.122931	0.025792	0.030233	0.599736	0.510826	-0.382316	0.482917	52.653714	-72.166292	38.024316
37490		12.716425	2.670591	2.784717	0.338136	-0.454131	3.463135	0.497746	-2.091352	3.720738	-0.776611	-0.533203	-0.104736	0.126338	0.028990	0.029241	0.585321	0.510168	-0.396802	0.489567	51.745467	-74.587202	39.272805
37491		13.630386	2.602148	2.572271	0.095595	-0.405671	4.293034	0.557668	-2.107424	3.751140	-0.802002	-0.506592	-0.083496	0.135503	0.028494	0.027231	0.570320	0.509447	-0.411113	0.496170	50.464478	-77.027229	40.930045
37492		14.825129	2.627430	2.286294	-0.263782	-0.288682	5.409876	0.588505	-2.120009	3.766361	-0.830078	-0.471680	-0.068848	0.147468	0.028986	0.024512	0.554960	0.508551	-0.425196	0.502597	48.518876	-79.459457	43.264436
37493		15.779077	2.968247	2.291986	-1.040020	-0.552995	6.361832	0.574204	-2.096062	3.771830	-0.853271	-0.440674	-0.043213	0.156942	0.032579	0.024658	0.539352	0.507324	-0.439090	0.508843	45.215824	-81.868187	46.951239
37494		15.868356	3.807600	2.428336	-2.441787	-1.090128	6.466351	0.628352	-2.034731	3.777355	-0.872559	-0.398926	-0.031006	0.157669	0.040980	0.026017	0.523529	0.505813	-0.452457	0.515124	38.825428	-84.189414	53.753602
37495		15.744074	5.365875	2.296836	-4.582172	-1.428719	6.276558	0.752726	-1.981779	3.738258	-0.895752	-0.367920	-0.003174	0.156163	0.056495	0.024729	0.507315	0.504360	-0.465087	0.521485	24.457819	-86.307037	68.606284
37496		15.784715	6.402995	1.863839	-6.189451	-1.450291	6.098761	0.835709	-1.938129	3.627478	-0.905762	-0.339111	0.024902	0.156460	0.066793	0.020434	0.491105	0.503016	-0.476868	0.527625	-13.152943	-87.696186	106.744893
37497		15.623109	7.049932	1.454780	-7.377049	-1.495207	5.653485	0.872167	-1.901288	3.483888	-0.917969	-0.301758	0.037109	0.154823	0.073136	0.016339	0.474998	0.501818	-0.487923	0.533373	-65.203620	-87.236638	159.346486
37498		15.152512	6.917098	1.889668	-7.662656	-2.309270	4.915946	0.729665	-1.793366	3.297083	-0.937256	-0.260010	0.053711	0.150179	0.071581	0.020506	0.459886	0.500226	-0.498418	0.538385	-87.976102	-85.604846	-177.418004
37499		14.730833	5.818399	1.954723	-6.952319	-2.616404	4.310564	0.446012	-1.629605	3.040366	-0.944580	-0.235596	0.072998	0.146235	0.060367	0.020875	0.446391	0.498022	-0.508520	0.542326	-97.055151	-83.813920	-168.041054
37500		14.424827	5.674074	1.965247	-7.143457	-2.886882	3.779595	0.250198	-1.501718	2.717408	-0.949951	-0.209229	0.085693	0.143307	0.058667	0.020803	0.434500	0.495710	-0.517895	0.545221	-101.759604	-82.135339	-163.154004
37501		13.794567	6.951232	2.120721	-8.617346	-3.359659	2.739054	-0.003632	-1.358692	2.373672	-0.944092	-0.182617	0.098145	0.136959	0.071142	0.022139	0.424422	0.493245	-0.526714	0.546944	-104.741729	-80.628317	-160.137097
37502		12.917749	8.496410	2.463152	-10.219895	-3.950575	1.370366	-0.411098	-1.189917	1.987378	-0.948975	-0.167236	0.106689	0.128176	0.086293	0.025220	0.416810	0.490386	-0.535225	0.547106	-106.946144	-79.345803	-158.134761
37503		11.982855	8.859420	2.767673	-10.583378	-4.312967	0.143328	-0.767483	-1.036084	1.583383	-0.949707	-0.147461	0.119385	0.118977	0.089645	0.027952	0.411519	0.487385	-0.543356	0.545776	-108.856273	-78.296196	-156.633567
37504		11.000479	8.708231	2.828957	-10.396464	-4.325203	-0.978128	-0.884453	-0.898114	1.207608	-0.956543	-0.143066	0.117188	0.109348	0.087869	0.028394	0.407895	0.484744	-0.550536	0.543649	-110.544524	-77.470306	-155.422017
37505		10.371724	8.608038	3.109661	-10.260508	-4.553086	-1.729949	-0.869978	-0.747111	0.796167	-0.956787	-0.136230	0.127930	0.103257	0.086627	0.031107	0.405733	0.482824	-0.556354	0.541047	-112.083840	-76.886635	-154.352312
37506		10.123835	8.109446	3.631850	-9.757778	-5.017987	-1.999208	-0.797436	-0.560001	0.380392	-0.963623	-0.132080	0.123535	0.100982	0.081431	0.036277	0.405037	0.481683	-0.560555	0.538242	-113.446953	-76.560362	-153.418029
37507		10.121504	7.665176	4.243544	-9.324912	-5.592567	-2.003940	-0.692679	-0.333762	-0.013432	-0.952393	-0.136230	0.134521	0.101149	0.076792	0.042338	0.405769	0.481238	-0.563067	0.535459	-114.599928	-76.487181	-152.638376
37508		10.049410	7.579756	4.755258	-9.206496	-6.065984	-2.099068	-0.572712	-0.102202	-0.398411	-0.954346	-0.142822	0.128174	0.100621	0.075733	0.047387	0.407896	0.481495	-0.563842	0.532791	-115.565201	-76.667850	-151.980163
37509		9.914549	7.106740	5.126685	-8.675693	-6.372317	-2.117743	-0.440583	0.118622	-0.746445	-0.956299	-0.149414	0.130615	0.099440	0.070809	0.051052	0.411244	0.482410	-0.562974	0.530301	-116.372527	-77.080349	-151.407688
37510		11.389760	5.803574	4.680642	-7.649270	-6.011904	-0.291096	-0.255735	0.274993	-1.017325	-0.956055	-0.160400	0.128662	0.114255	0.057515	0.046576	0.415298	0.484038	-0.560621	0.528147	-117.070988	-77.670496	-150.838906
37511		10.689478	4.571960	6.454217	-6.124752	-7.625668	-0.803883	0.130606	0.572300	-1.267441	-0.951172	-0.171387	0.122314	0.107366	0.044998	0.064265	0.419893	0.486372	-0.556003	0.527250	-117.197122	-78.465125	-150.630256
37512		10.941051	6.363869	7.158948	-7.737831	-8.364525	-0.778865	0.760026	0.789998	-1.617131	-0.950684	-0.191406	0.104980	0.110201	0.062478	0.071394	0.424456	0.490384	-0.548379	0.527864	-116.865596	-79.494809	-150.521197
37513		11.909039	-4.312252	3.613419	2.656773	-4.419264	2.306852	0.778179	0.975418	-1.602130	-0.950195	-0.204590	0.112061	0.118913	-0.044214	0.035383	0.429404	0.493862	-0.540289	0.528961	-115.907923	-80.565113	-151.037279
37514		12.149384	-13.141231	-1.023873	11.242143	0.812907	4.126207	1.201523	0.784907	-1.086934	-0.945557	-0.208984	0.101074	0.120734	-0.132003	-0.011505	0.431387	0.497309	-0.532718	0.531790	-114.339612	-81.318662	-151.925107
37515		10.906035	-9.615786	0.713350	8.154709	-0.797774	2.219482	1.435979	0.604681	-0.889663	-0.942871	-0.222168	0.103516	0.108651	-0.096688	0.006112	0.431746	0.501181	-0.525353	0.535180	-112.761713	-81.923702	-152.684378
37516		11.478163	0.700740	3.914820	-1.718422	-4.650722	1.276940	1.245205	0.627577	-1.121041	-0.940186	-0.235352	0.101807	0.114940	0.006121	0.038828	0.433229	0.505142	-0.517833	0.537581	-111.389604	-82.652971	-153.345894
37517		11.831976	5.406247	2.775746	-6.352031	-3.901108	1.203552	0.952235	0.598357	-1.319258	-0.937744	-0.244141	0.104248	0.118755	0.053148	0.027657	0.435872	0.509026	-0.510615	0.538684	-110.451770	-83.480764	-153.736685
37518		13.621050	4.393196	1.549764	-5.472339	-2.627973	3.240194	0.508189	0.468090	-1.529088	-0.930664	-0.259521	0.097900	0.136577	0.042850	0.015288	0.439849	0.512787	-0.504314	0.537820	-110.723149	-84.394216	-153.167862
37519		13.120671	3.356409	-1.144475	-4.490460	0.242104	3.013079	0.248367	0.429712	-1.640659	-0.927734	-0.277100	0.096191	0.131451	0.032501	-0.011686	0.444659	0.516333	-0.498462	0.535924	-111.861152	-85.359166	-151.877590
37520		11.020272	2.813339	-1.730666	-3.684241	1.015299	1.038554	0.559444	0.333526	-1.630118	-0.922852	-0.296875	0.090088	0.110398	0.027283	-0.017414	0.448370	0.520753	-0.491991	0.534533	-114.173301	-86.292616	-149.234871
37521		10.459772	4.467779	-0.358252	-4.973474	-0.482358	0.411077	0.533781	0.380943	-1.609480	-0.915771	-0.309814	0.092773	0.104946	0.043844	-0.003664	0.452172	0.524908	-0.485487	0.533211	-117.552152	-87.217694	-145.539744
37522		10.242354	3.557757	1.386837	-3.696763	-2.047317	0.268310	0.007556	0.541651	-1.554677	-0.917480	-0.325439	0.079834	0.102733	0.034779	0.013592	0.457569	0.527265	-0.480143	0.531116	-121.860886	-88.144348	-141.220183
37523		9.162379	1.212033	0.574175	-1.302493	-0.862397	-0.685484	-0.528950	0.617387	-1.485731	-0.907959	-0.340820	0.077881	0.091728	0.011454	0.005428	0.464347	0.528001	-0.476186	0.528056	-131.422861	-89.040684	-131.954176
37524		8.403981	-0.758001	-0.844269	0.616196	0.847741	-1.397544	-0.404275	0.511332	-1.325387	-0.896484	-0.354004	0.067383	0.083965	-0.008154	-0.008641	0.470091	0.528882	-0.472553	0.525349	173.064961	-89.651149	-76.668130
37525		8.993071	0.932147	0.126215	-0.849405	-0.256858	-0.814264	-0.063350	0.437117	-1.170496	-0.898193	-0.369385	0.063232	0.089986	0.008795	0.001063	0.474330	0.530377	-0.468573	0.523594	97.855958	-89.279094	-1.488812
37526		9.964374	2.560440	1.493970	-2.198221	-1.742086	0.197713	-0.066375	0.456387	-1.172261	-0.888916	-0.382568	0.059082	0.099825	0.025025	0.014704	0.478608	0.531789	-0.464545	0.521856	83.400908	-88.604851	12.933498
37527		10.109476	1.023927	1.199178	-0.589518	-1.219907	0.328857	-0.187639	0.443247	-1.171561	-0.881592	-0.395752	0.052979	0.101179	0.009658	0.011758	0.483159	0.532929	-0.460835	0.519784	78.608342	-87.900670	17.624951
37528		9.824633	0.715793	1.036638	-0.202732	-0.973344	0.042298	-0.195370	0.389816	-1.139560	-0.881104	-0.411133	0.046631	0.098305	0.006608	0.010168	0.487503	0.534088	-0.457355	0.517607	76.727596	-87.215598	19.398440
37529		10.283732	0.625167	1.025614	0.016657	-0.894244	0.502186	-0.197578	0.370155	-1.160628	-0.874023	-0.426514	0.042725	0.102890	0.005665	0.010060	0.491849	0.535327	-0.453842	0.515303	75.790769	-86.518552	20.227356
37530		10.411871	-0.443880	0.905534	1.186228	-0.611689	0.562355	-0.125508	0.347614	-1.150199	-0.862793	-0.428711	0.044922	0.104106	-0.005032	0.008877	0.495902	0.536751	-0.450223	0.513108	75.341338	-85.831372	20.608822
37531		10.027486	-0.522141	0.942664	1.354116	-0.606566	0.162733	0.064102	0.288553	-1.138196	-0.853271	-0.446289	0.041016	0.100256	-0.005795	0.009280	0.499267	0.538757	-0.446267	0.511195	75.471557	-85.158037	20.519228
37532		10.152460	-0.332368	0.302733	1.218787	0.054166	0.276169	0.172770	0.284006	-1.119210	-0.855225	-0.455078	0.032471	0.101508	-0.003894	0.002880	0.502261	0.540979	-0.442093	0.509539	75.635153	-84.497141	20.457477
37533		10.093765	0.547434	0.605376	0.482534	-0.300091	0.298015	0.281101	0.305052	-1.060960	-0.843750	-0.470459	0.034912	0.100974	0.004930	0.005907	0.504847	0.543276	-0.437722	0.508311	75.643612	-83.864370	20.614771
37534		10.152366	2.123658	1.020956	-0.919329	-0.837858	0.534996	0.265468	0.363942	-1.025398	-0.838867	-0.479248	0.028564	0.101649	0.020702	0.010052	0.507494	0.545285	-0.433336	0.507281	75.342601	-83.244039	21.073886
37535		10.186679	2.737543	0.106788	-1.523723	0.051604	0.625154	0.043923	0.403264	-0.988621	-0.832031	-0.483643	0.031006	0.102002	0.026871	0.000868	0.510728	0.546539	-0.429488	0.505957	74.768583	-82.636633	21.681268
37536		10.141263	2.925763	-0.110940	-1.643927	0.300231	0.609594	-0.193939	0.421675	-0.951747	-0.822510	-0.501221	0.022705	0.101548	0.028773	-0.001351	0.514537	0.547041	-0.426296	0.504251	74.043511	-82.047186	22.303871
37537		10.030887	1.968224	-0.088095	-0.623040	0.433727	0.381584	-0.359561	0.429943	-0.882286	-0.817627	-0.516602	0.011963	0.100392	0.019238	-0.001132	0.518634	0.546937	-0.423666	0.502381	73.210188	-81.492226	22.941374
37538		9.832876	1.586442	-0.374613	-0.225453	0.802200	0.119458	-0.376311	0.394590	-0.806214	-0.811035	-0.514404	0.007568	0.098384	0.015461	-0.003970	0.522492	0.546700	-0.421378	0.500562	72.499775	-80.985006	23.445153
37539		10.342120	1.510551	-0.103145	0.026933	0.624805	0.620914	-0.364143	0.386328	-0.757983	-0.803955	-0.527588	0.003418	0.103475	0.014711	-0.001258	0.526177	0.546400	-0.419196	0.498859	71.832564	-80.503282	23.912581
37540		10.384924	1.295640	-0.042266	0.321498	0.640057	0.628265	-0.277225	0.407144	-0.683919	-0.794434	-0.542969	0.001709	0.103892	0.012600	-0.000652	0.529462	0.546112	-0.416945	0.497582	71.130163	-80.058525	24.467204
37541		9.856666	1.883622	0.907296	-0.180572	-0.343310	0.255784	-0.206141	0.414907	-0.622579	-0.785645	-0.545166	-0.007080	0.098643	0.018538	0.008849	0.532419	0.545856	-0.414650	0.496626	70.431426	-79.643072	25.059881
37542		9.724983	2.441113	0.881988	-0.696544	-0.329820	0.223141	-0.141299	0.380831	-0.588245	-0.783447	-0.542969	-0.011719	0.097338	0.024131	0.008617	0.535025	0.545779	-0.412380	0.495799	69.882487	-79.252952	25.539066
37543		9.813579	2.056948	0.718419	-0.268734	-0.082403	0.235900	-0.066799	0.368705	-0.545752	-0.778564	-0.553955	-0.011230	0.098204	0.020304	0.006996	0.537303	0.545834	-0.410062	0.495196	69.397777	-78.885935	25.996189
37544		9.674589	1.871575	0.730368	-0.061887	-0.048619	0.067971	-0.065424	0.361359	-0.499288	-0.767334	-0.558350	-0.017822	0.096805	0.018476	0.007123	0.539431	0.545814	-0.407889	0.494700	68.919113	-78.545949	26.449228
37545		9.480916	1.831357	0.397387	-0.047133	0.307624	-0.153369	-0.093468	0.346585	-0.456837	-0.767090	-0.567139	-0.019775	0.094857	0.018099	0.003801	0.541506	0.545659	-0.405932	0.494213	68.443567	-78.229632	26.882485
37546		9.563224	1.894990	0.743817	-0.021238	0.001603	-0.035221	-0.073252	0.293122	-0.410124	-0.758057	-0.567139	-0.028564	0.095682	0.018756	0.007291	0.543287	0.545597	-0.404201	0.493747	68.092018	-77.950242	27.202046
37547		9.769833	2.090843	0.795637	-0.131474	-0.013200	0.209120	-0.107558	0.280317	-0.417426	-0.753418	-0.571533	-0.026367	0.097753	0.020709	0.007808	0.545163	0.545478	-0.402562	0.493148	67.771450	-77.667983	27.468896
37548		9.712803	1.851904	0.832123	0.131635	-0.002957	0.109156	-0.145834	0.270853	-0.396590	-0.744385	-0.575928	-0.028320	0.097176	0.018332	0.008176	0.547057	0.545238	-0.401102	0.492506	67.447226	-77.399885	27.718553
37549		9.711983	1.992404	0.941515	0.040619	-0.090687	0.145660	-0.140552	0.264450	-0.392845	-0.739502	-0.589111	-0.030273	0.097171	0.019740	0.009273	0.548924	0.545012	-0.399649	0.491858	67.146378	-77.133571	27.946448
37550		9.466709	1.943792	0.933916	0.074284	-0.073775	-0.104034	-0.108909	0.271242	-0.397389	-0.728271	-0.593506	-0.041016	0.094718	0.019255	0.009200	0.550713	0.544868	-0.398090	0.491283	66.865796	-76.864412	28.173556
37551		9.387536	1.865635	1.134717	0.188979	-0.245912	-0.179533	-0.070555	0.248903	-0.386819	-0.723633	-0.597656	-0.030029	0.093925	0.018479	0.011224	0.552340	0.544852	-0.396523	0.490741	66.653326	-76.604299	28.351666
37552		9.544995	2.070813	0.783052	0.022732	0.132675	-0.015236	-0.041020	0.259833	-0.400889	-0.716797	-0.599854	-0.036377	0.095501	0.020518	0.007702	0.553923	0.544924	-0.394815	0.490254	66.457646	-76.335508	28.531951
37553		9.436559	1.625879	0.746693	0.466753	0.216830	-0.221825	-0.009084	0.234855	-0.405770	-0.709961	-0.606445	-0.034180	0.094407	0.016068	0.007355	0.555392	0.545146	-0.393079	0.489739	66.342418	-76.068522	28.647163
37554		9.735174	1.588096	0.542781	0.583645	0.482217	0.037029	-0.018218	0.244551	-0.397510	-0.705322	-0.610840	-0.042725	0.097390	0.015688	0.005307	0.556869	0.545306	-0.391361	0.489260	66.200913	-75.804821	28.785479
37555		9.751764	1.835256	0.551545	0.385620	0.485737	0.106205	-0.025748	0.266921	-0.411248	-0.696289	-0.615234	-0.036133	0.097562	0.018153	0.005383	0.558444	0.545416	-0.389551	0.488786	66.026683	-75.527677	28.953855
37556		9.526232	1.689081	0.739341	0.534500	0.313039	-0.129463	-0.023260	0.280393	-0.412874	-0.691650	-0.619629	-0.049072	0.095307	0.016695	0.007258	0.560035	0.545498	-0.387700	0.488346	65.835410	-75.247368	29.140958
37557		9.566733	2.158642	0.754692	0.128997	0.299915	0.018125	-0.013885	0.288049	-0.444993	-0.687256	-0.624023	-0.042480	0.095726	0.021374	0.007408	0.561694	0.545648	-0.385706	0.487852	65.669439	-74.947426	29.308218
37558		9.662778	2.172303	0.692598	0.173809	0.405132	0.105642	0.009328	0.310901	-0.467002	-0.668945	-0.632568	-0.044434	0.096689	0.021497	0.006777	0.563379	0.545844	-0.383536	0.487399	65.499134	-74.631371	29.493461
37559		9.760687	2.019731	0.591662	0.378834	0.563649	0.149184	0.034299	0.339268	-0.486570	-0.668945	-0.635010	-0.048828	0.097665	0.019959	0.005754	0.565097	0.546076	-0.381161	0.487013	65.313910	-74.297342	29.709830
37560		9.673500	2.137668	0.537926	0.285589	0.633461	0.084406	0.052412	0.352026	-0.509094	-0.662109	-0.639160	-0.048584	0.096798	0.021129	0.005214	0.566837	0.546364	-0.378649	0.486628	65.143368	-73.949220	29.921583
37561		9.829973	1.783378	0.674464	0.728017	0.583365	0.156918	0.049537	0.362977	-0.529306	-0.659912	-0.641357	-0.044189	0.098358	0.017572	0.006571	0.568651	0.546652	-0.376047	0.486206	64.976456	-73.586972	30.128679
37562		10.299337	2.129883	0.791970	0.572795	0.550411	0.704370	0.043765	0.376349	-0.542768	-0.648438	-0.652344	-0.054932	0.103065	0.021017	0.007730	0.570531	0.546909	-0.373387	0.485765	64.802356	-73.215129	30.339754
37563		9.833250	2.052022	0.961969	0.604418	0.363045	0.253665	0.037443	0.392313	-0.584226	-0.639160	-0.658936	-0.052490	0.098411	0.020231	0.009431	0.572554	0.547182	-0.370573	0.485232	64.639111	-72.816983	30.536536
37564		10.066096	1.965626	0.907051	0.798708	0.503512	0.440155	0.019072	0.421965	-0.621777	-0.627930	-0.665283	-0.052246	0.100740	0.019342	0.008860	0.574763	0.547391	-0.367617	0.484633	64.454546	-72.392679	30.744649
37565		10.402259	2.581078	1.047220	0.373973	0.425658	0.941101	0.015218	0.455974	-0.656707	-0.623291	-0.667725	-0.061035	0.104130	0.025468	0.010237	0.577123	0.547564	-0.364466	0.484012	64.249720	-71.941011	30.972612
37566		10.661654	1.882782	1.100497	1.187542	0.517968	0.992290	0.030723	0.484142	-0.721546	-0.616455	-0.674072	-0.054199	0.106710	0.018441	0.010750	0.579638	0.547820	-0.361018	0.483300	64.069420	-71.449321	31.184331
37567		10.786495	2.528099	1.388452	0.713393	0.272056	1.326601	0.012738	0.507613	-0.759783	-0.611816	-0.682861	-0.053955	0.107995	0.024870	0.013612	0.582326	0.548027	-0.357428	0.482501	63.881953	-70.931221	31.393704
37568		10.903844	1.923274	1.394174	1.405117	0.391050	1.251140	-0.005274	0.535340	-0.802902	-0.593750	-0.689453	-0.060303	0.109151	0.018795	0.013649	0.585203	0.548179	-0.353681	0.481608	63.685486	-70.384327	31.602010
37569		10.941809	1.830950	0.865308	1.528263	0.990005	1.164907	-0.027736	0.537942	-0.838190	-0.582520	-0.693848	-0.062500	0.109516	0.017852	0.008356	0.588219	0.548309	-0.349870	0.480569	63.508130	-69.817902	31.777331
37570		11.492145	2.228319	1.545205	1.480650	0.469437	1.892377	-0.064987	0.572510	-0.858770	-0.573242	-0.700195	-0.062256	0.115059	0.021794	0.015116	0.591430	0.548267	-0.345986	0.479486	63.286493	-69.232397	31.977480
37571		11.982807	1.365224	1.998292	2.594274	0.252010	2.130904	-0.058329	0.648533	-0.897046	-0.557617	-0.706787	-0.062012	0.119952	0.013120	0.019590	0.594831	0.548114	-0.341743	0.478497	63.006053	-68.606919	32.245787
37572		11.874783	2.437173	1.569184	1.601653	0.676773	2.286389	-0.073317	0.652686	-0.955417	-0.546143	-0.715576	-0.077148	0.118913	0.023810	0.015295	0.598399	0.547988	-0.337356	0.477304	62.765250	-67.950587	32.463115
37573		12.202457	2.346524	2.189376	1.977721	0.236231	2.646456	-0.103729	0.697250	-1.033676	-0.539307	-0.719971	-0.074951	0.122219	0.022845	0.021456	0.602291	0.547777	-0.332679	0.475931	62.515490	-67.242052	32.672524
37574		12.520624	2.258304	2.223701	2.291978	0.378311	2.892118	-0.178051	0.740381	-1.111842	-0.523438	-0.724365	-0.081299	0.125410	0.021906	0.021753	0.606619	0.547346	-0.327824	0.474296	62.235110	-66.482323	32.869861
37575		13.112112	2.195508	2.196799	2.680237	0.651863	3.376780	-0.185126	0.807683	-1.166474	-0.509766	-0.735107	-0.081055	0.131334	0.021210	0.021418	0.611177	0.546798	-0.322614	0.472647	61.922207	-65.676298	33.099654
37576		13.487093	1.402580	1.564378	3.613260	1.512224	3.262875	-0.181672	0.850901	-1.216858	-0.505127	-0.741699	-0.083008	0.135018	0.013218	0.015057	0.615882	0.546210	-0.317111	0.470941	61.611209	-64.832821	33.330892
37577		14.069557	1.729349	1.381535	3.646811	1.945733	3.816789	-0.236563	0.885196	-1.264470	-0.487061	-0.750488	-0.082764	0.140860	0.016419	0.013172	0.620867	0.545415	-0.311483	0.469069	61.277613	-63.955457	33.553982
37578		14.878777	1.354849	1.120700	4.422082	2.553189	4.272445	-0.303127	0.936390	-1.351694	-0.468994	-0.757080	-0.098145	0.148925	0.012559	0.010490	0.626277	0.544394	-0.305594	0.466930	60.921581	-63.019605	33.761224
37579		15.631540	0.801177	0.866038	5.362856	3.162261	4.573791	-0.372205	0.993191	-1.411759	-0.470947	-0.761475	-0.095703	0.156407	0.006923	0.007870	0.632056	0.543075	-0.299505	0.464619	60.522859	-62.037498	33.973615
37580		16.424571	0.001926	0.374738	6.534241	4.028843	4.712170	-0.377057	1.060401	-1.509483	-0.455322	-0.765869	-0.097656	0.164256	-0.001214	0.002878	0.638124	0.541688	-0.292923	0.462135	60.131418	-60.986758	34.176699
37581		17.108152	-0.302797	0.339767	7.295893	4.431866	5.020215	-0.351448	1.125498	-1.633739	-0.432617	-0.776855	-0.112793	0.171065	-0.004421	0.002442	0.644443	0.540360	-0.285715	0.459425	59.780176	-59.855785	34.352213
37582		16.576692	-1.368227	-0.079965	8.209951	4.868958	3.808800	-0.370488	1.160754	-1.775177	-0.419189	-0.781006	-0.114990	0.165629	-0.015155	-0.001734	0.651120	0.539035	-0.278019	0.456277	59.475735	-58.643531	34.463056
37583		15.531434	-1.868905	-0.679309	8.359946	5.292777	2.322683	-0.385534	1.159788	-1.933982	-0.407715	-0.787598	-0.119141	0.155081	-0.020204	-0.007655	0.658116	0.537816	-0.269909	0.452533	59.250968	-57.354222	34.470577
37584		15.016169	-3.000914	-1.114979	9.302045	5.670688	1.005747	-0.376150	1.112440	-2.067533	-0.389648	-0.796631	-0.134277	0.149776	-0.031581	-0.011925	0.665239	0.536845	-0.261526	0.448173	59.133054	-56.011879	34.357489
37585		14.762727	-2.617604	-0.990012	9.091337	5.596198	0.760360	-0.376422	1.095617	-2.154475	-0.374023	-0.796387	-0.132080	0.147277	-0.027783	-0.010656	0.672435	0.535943	-0.252947	0.443412	59.062261	-54.633647	34.184040
37586		13.829785	-1.121682	-0.855690	7.593433	5.327906	0.540902	-0.329304	1.083894	-2.195210	-0.362793	-0.800781	-0.138672	0.138115	-0.012748	-0.009286	0.679482	0.535200	-0.244137	0.438477	59.037475	-53.237135	33.985137
37587		13.003406	-0.650520	-0.866055	6.996921	5.191471	-0.099540	-0.309685	1.068845	-2.155358	-0.344727	-0.807373	-0.147217	0.129905	-0.007920	-0.009344	0.686265	0.534424	-0.235429	0.433594	59.011116	-51.867062	33.797380
37588		12.217380	0.206389	-0.351039	6.142336	4.590645	-0.293172	0.313029	1.069462	-2.073207	-0.328857	-0.811523	-0.142578	0.122165	0.000804	-0.004162	0.691114	0.535615	-0.225532	0.429667	59.300273	-50.534593	33.660490
37589		10.520138	4.413549	2.003599	2.292071	2.125989	1.340263	1.052651	1.006834	-1.929835	-0.324219	-0.824463	-0.128906	0.105720	0.043013	0.019733	0.693500	0.539255	-0.214642	0.426838	59.982561	-49.293299	33.559493
37590		8.870774	6.587450	1.396493	-0.262862	2.283257	1.084484	1.013946	0.966187	-1.947158	-0.297363	-0.824463	-0.126709	0.089410	0.064936	0.013865	0.695888	0.542791	-0.203870	0.423739	60.651245	-48.051416	33.446831
37591		8.401472	8.000589	1.450617	-1.431773	2.187434	1.582877	0.977471	0.920065	-1.886128	-0.290527	-0.830811	-0.119873	0.084831	0.079138	0.014505	0.698097	0.546159	-0.193502	0.420628	61.286986	-46.855087	33.346697
37592		8.013287	9.717281	1.546881	-2.768303	2.102685	2.391441	0.637288	0.937591	-1.923995	-0.285889	-0.839600	-0.115234	0.081135	0.096346	0.015398	0.701247	0.548270	-0.183631	0.417053	61.714557	-45.631410	33.264582
37593		7.167410	7.384195	0.566713	-1.416082	2.648692	0.046076	0.228521	0.936923	-1.792993	-0.267822	-0.841553	-0.117432	0.072358	0.073189	0.005413	0.705158	0.548767	-0.174982	0.413508	61.864588	-44.476646	33.240457
37594		6.448144	6.478673	1.432048	-0.813894	1.626122	-0.741121	-0.338562	0.960568	-1.586125	-0.260986	-0.843994	-0.130615	0.065060	0.064296	0.013900	0.710156	0.546981	-0.167944	0.410225	61.623918	-43.417023	33.312193
37595		3.077194	2.161638	-5.267718	-0.873066	6.197577	-8.164070	-0.720223	0.513165	-1.088095	-0.263184	-0.846191	-0.135010	0.030753	0.021259	-0.052833	0.714747	0.544305	-0.164657	0.407133	61.254961	-42.733174	33.251291
37596		5.978236	-2.753791	-5.831971	4.592295	7.497373	-9.629194	-1.265940	0.174481	-0.589524	-0.259033	-0.835449	-0.152832	0.059649	-0.028082	-0.058195	0.719499	0.539928	-0.165011	0.404437	60.605856	-42.390841	33.143182
37597		5.214726	-6.246752	-4.187671	7.174540	5.304514	-11.847042	-1.628581	0.034730	-0.231452	-0.254395	-0.839844	-0.170410	0.052067	-0.062866	-0.041375	0.724343	0.534207	-0.167591	0.402321	59.723936	-42.270566	33.070290
37598		4.898480	-6.333718	-2.450117	7.432149	3.482913	-11.469619	-1.793643	-0.008052	0.061156	-0.270020	-0.835938	-0.188232	0.049005	-0.063539	-0.023930	0.728957	0.527686	-0.171394	0.400991	58.689234	-42.304575	33.085336
37599		4.586040	-4.400544	-0.707069	6.098502	1.923834	-9.757261	-1.774703	-0.061266	0.299015	-0.272705	-0.825195	-0.201904	0.045928	-0.043997	-0.006666	0.732932	0.521098	-0.176004	0.400362	57.623901	-42.473876	33.160127
37600		4.546435	-2.558534	0.014266	4.779775	1.452252	-8.309095	-1.778997	-0.181523	0.482386	-0.279541	-0.818848	-0.221924	0.045526	-0.025473	0.000411	0.736392	0.514527	-0.181489	0.400063	56.552433	-42.764063	33.241764
37601		4.626209	-2.066702	-0.354011	4.391240	1.852152	-8.056377	-1.664982	-0.377393	0.706789	-0.295166	-0.816895	-0.235352	0.046341	-0.020531	-0.003281	0.738862	0.508523	-0.188070	0.400147	55.561556	-43.226385	33.298459
37602		4.827928	-2.065974	-0.821046	4.448506	2.317493	-8.054611	-1.441486	-0.598698	0.980165	-0.304443	-0.803955	-0.253418	0.048404	-0.020480	-0.007918	0.739953	0.503484	-0.195659	0.400863	54.703677	-43.885002	33.349343
37603		5.045620	-1.948238	-0.893758	4.467057	2.453379	-7.793183	-1.087203	-0.816041	1.254405	-0.329102	-0.797607	-0.260254	0.050613	-0.019213	-0.008626	0.739319	0.499883	-0.204059	0.402349	54.049798	-44.747525	33.395911
37604		5.336443	-1.671813	-0.690051	4.412579	2.397707	-7.257699	-0.670201	-1.026887	1.523847	-0.344971	-0.791260	-0.264893	0.053524	-0.016333	-0.006571	0.736827	0.497924	-0.213011	0.404703	53.631090	-45.801406	33.449116
37605		5.462741	-1.599960	-0.444587	4.404789	2.202607	-6.924065	-0.257334	-1.214227	1.792175	-0.369629	-0.780273	-0.262939	0.054793	-0.015515	-0.004093	0.732440	0.497555	-0.222484	0.408010	53.439523	-47.048171	33.521072
37606		5.697054	-1.161073	-0.311982	4.125297	2.207531	-6.347305	0.108600	-1.395431	2.037807	-0.381104	-0.776123	-0.260986	0.057105	-0.011028	-0.002728	0.726385	0.498526	-0.232434	0.412082	53.449245	-48.464084	33.596182
37607		6.096728	-0.604870	-0.081068	3.813083	2.183295	-5.542580	0.377766	-1.565419	2.259689	-0.419189	-0.763184	-0.254883	0.061034	-0.005358	-0.000344	0.718831	0.500510	-0.242982	0.416812	53.619633	-50.046182	33.667811
37608		6.612141	-0.154818	0.120793	3.608925	2.178894	-4.715252	0.555428	-1.723541	2.432666	-0.446289	-0.756592	-0.243896	0.066120	-0.000748	0.001775	0.710174	0.503117	-0.254087	0.421860	53.910647	-51.755960	33.706915
37609		7.126482	0.327880	0.389672	3.335595	2.078601	-3.846527	0.699588	-1.830108	2.593964	-0.471191	-0.743408	-0.233398	0.071175	0.004187	0.004562	0.700448	0.506165	-0.265630	0.427329	54.293877	-53.583026	33.740733
37610		7.816577	0.934676	0.630553	2.990376	2.035051	-2.792676	0.728356	-1.893452	2.732921	-0.502686	-0.732422	-0.224854	0.077964	0.010388	0.007081	0.690129	0.509090	-0.277590	0.433006	54.680929	-55.489560	33.781745
37611		8.361288	1.370384	0.945869	2.673269	1.810084	-1.922582	0.686187	-1.921937	2.869023	-0.534668	-0.712891	-0.212158	0.083309	0.014866	0.010310	0.679333	0.511610	-0.290036	0.438909	55.015592	-57.475524	33.859350
37612		8.894706	1.399750	1.021355	2.652534	1.737494	-1.324180	0.675911	-1.944126	2.991043	-0.557129	-0.704102	-0.197021	0.088620	0.015288	0.011126	0.668088	0.513781	-0.302765	0.444995	55.304717	-59.520177	33.978127
37613		9.313172	1.336087	1.117332	2.628660	1.581780	-0.849052	0.659690	-1.973110	3.117960	-0.595703	-0.684326	-0.179932	0.092792	0.014770	0.012137	0.656296	0.515608	-0.315891	0.451262	55.547060	-61.640396	34.138665
37614		9.908212	1.443809	1.534492	2.495644	1.151749	-0.063580	0.603701	-2.011222	3.212130	-0.625488	-0.664551	-0.169434	0.098672	0.015977	0.016385	0.644173	0.516989	-0.329356	0.457480	55.731751	-63.811766	34.323538
37615		10.576569	1.652161	1.989604	2.244788	0.671778	0.819678	0.517223	-2.018756	3.303014	-0.655029	-0.642578	-0.154785	0.105266	0.018210	0.021006	0.631769	0.517782	-0.343193	0.463669	55.810717	-66.035268	34.569364
37616		11.047376	1.745234	2.406344	1.979098	0.147109	1.453453	0.383192	-2.006911	3.394434	-0.684814	-0.618652	-0.142090	0.109908	0.019273	0.025204	0.619317	0.517749	-0.357368	0.469755	55.698089	-68.291767	34.933126
37617		11.278852	2.138915	2.681239	1.302374	-0.308134	1.899143	0.317028	-2.023400	3.498347	-0.721436	-0.590088	-0.125244	0.112113	0.023310	0.027985	0.606485	0.517159	-0.371921	0.475812	55.420153	-70.608227	35.426474
37618		11.693947	2.413027	2.618174	0.738203	-0.421739	2.380843	0.237481	-2.072499	3.577308	-0.744629	-0.563721	-0.117188	0.116204	0.026181	0.027419	0.593353	0.516077	-0.386814	0.481635	54.975517	-72.970757	36.040951
37619		12.372712	2.069289	2.242563	0.779462	-0.211308	2.904198	0.158116	-2.110177	3.634004	-0.779053	-0.532959	-0.093750	0.123078	0.022915	0.023744	0.579935	0.514509	-0.402036	0.487158	54.309385	-75.376065	36.828459
37620		13.212475	2.078943	2.042189	0.462252	-0.177900	3.707269	0.100630	-2.127948	3.686304	-0.806641	-0.502197	-0.076904	0.131485	0.023206	0.021834	0.566264	0.512488	-0.417354	0.492460	53.274457	-77.802411	37.954615
37621		14.113062	2.478916	2.126418	-0.289482	-0.462527	4.661959	0.013827	-2.135960	3.717948	-0.830078	-0.471436	-0.057861	0.140400	0.027402	0.022768	0.552422	0.509947	-0.432841	0.497426	51.613590	-80.245808	39.657840
37622		14.799421	3.163522	2.299616	-1.418759	-0.903372	5.400914	-0.006983	-2.139932	3.748655	-0.853516	-0.436279	-0.045410	0.147109	0.034399	0.024572	0.538332	0.507048	-0.448227	0.502189	48.738101	-82.683346	42.563955
37623		15.205315	4.274843	2.526128	-3.050657	-1.465615	5.819415	0.047882	-2.153788	3.760733	-0.874756	-0.398926	-0.020020	0.150930	0.045587	0.026901	0.523750	0.504072	-0.463373	0.506835	43.062130	-85.101149	48.301852
37624		15.403816	5.303965	2.365134	-4.643651	-1.678329	5.890218	0.187422	-2.156671	3.726487	-0.889160	-0.363525	-0.000977	0.152747	0.055871	0.025355	0.508691	0.501307	-0.477830	0.511472	27.521256	-87.367005	63.983652
37625		15.393528	6.023198	1.882201	-5.932989	-1.590323	5.647303	0.398820	-2.137820	3.641828	-0.903809	-0.323730	0.024414	0.152591	0.062979	0.020582	0.493076	0.499023	-0.491301	0.516213	-38.220681	-88.599691	129.988913
37626		15.346595	6.701322	1.664826	-7.141116	-1.774829	5.320444	0.558437	-2.109615	3.497216	-0.918457	-0.290771	0.039063	0.152075	0.069631	0.018449	0.477343	0.497176	-0.503681	0.520831	-92.011350	-87.131220	-175.868895
37627		15.406798	7.178258	2.652176	-8.067770	-3.155853	5.048155	0.598819	-2.000095	3.324317	-0.926025	-0.261963	0.067139	0.152571	0.074244	0.028272	0.461998	0.495386	-0.515093	0.525195	-104.442170	-85.064616	-163.063459
37628		15.190247	6.568881	3.446362	-7.843389	-4.255331	4.544001	0.420035	-1.765988	3.075549	-0.933838	-0.229004	0.075195	0.150556	0.067937	0.035938	0.448232	0.493022	-0.525603	0.528922	-108.727519	-83.084594	-158.510695
37629		14.904473	6.907466	3.392925	-8.529612	-4.488604	3.914781	0.265385	-1.565730	2.711988	-0.945801	-0.197998	0.096436	0.147818	0.071039	0.035183	0.436177	0.490601	-0.535057	0.531765	-110.929017	-81.312982	-156.132549
37630		14.094457	8.954571	3.383857	-10.751008	-4.750009	2.521205	-0.006980	-1.363174	2.280833	-0.941895	-0.180420	0.104736	0.139676	0.091145	0.034790	0.426416	0.488093	-0.543594	0.533330	-112.411733	-79.808905	-154.630522
37631		12.820531	10.777168	3.617640	-12.564636	-5.112243	0.655585	-0.393666	-1.141766	1.835863	-0.944824	-0.162842	0.108887	0.127000	0.109013	0.036690	0.419303	0.485305	-0.551547	0.533347	-113.658540	-78.580398	-153.588733
37632		11.656179	11.370717	3.840630	-13.101755	-5.314062	-0.867924	-0.690996	-0.947421	1.381025	-0.960938	-0.147461	0.119385	0.115590	0.114641	0.038560	0.414639	0.482582	-0.558702	0.532017	-114.871441	-77.634716	-152.750690
37633		11.362775	10.596527	3.564727	-12.425822	-4.998486	-1.168752	-0.721933	-0.771678	0.930606	-0.949951	-0.142822	0.130371	0.112995	0.106621	0.035700	0.411704	0.480547	-0.564470	0.530045	-116.054611	-76.959880	-151.960416
37634		11.415649	9.817460	4.344114	-11.720526	-5.766619	-1.155591	-0.488096	-0.548931	0.489438	-0.945557	-0.142822	0.132568	0.113796	0.098560	0.043514	0.409998	0.479638	-0.568061	0.528352	-117.007495	-76.567157	-151.265636
37635		11.025680	9.903279	6.245580	-11.677883	-7.624870	-1.804179	-0.145810	-0.243549	-0.039524	-0.945557	-0.140625	0.134766	0.110200	0.099057	0.062518	0.409724	0.480121	-0.568860	0.527265	-117.667173	-76.520508	-150.671028
37636		11.167520	10.303405	8.303258	-11.981344	-9.707039	-1.936297	0.248378	0.133081	-0.574812	-0.945068	-0.153809	0.124023	0.112026	0.102609	0.083086	0.410991	0.481938	-0.566546	0.527112	-117.897660	-76.846032	-150.284743
37637		12.517389	9.290785	12.731132	-10.946354	-14.241661	-0.733539	0.605787	0.666257	-1.112462	-0.949463	-0.153809	0.124023	0.126110	0.091823	0.127171	0.414312	0.484594	-0.560887	0.528129	-117.376538	-77.586171	-150.460657
37638		14.096647	8.828921	14.291642	-10.460486	-15.915117	1.058400	1.106879	1.232844	-1.737262	-0.942139	-0.178223	0.111328	0.142601	0.086266	0.142522	0.419616	0.488496	-0.551158	0.530584	-115.866416	-78.791238	-151.352287
37639		13.623667	-4.051584	1.661851	1.891800	-2.635211	4.124555	1.604655	1.223758	-1.883614	-0.943848	-0.189209	0.111572	0.135943	-0.041924	0.015453	0.424001	0.493792	-0.539670	0.533993	-113.990781	-80.065136	-152.321244
37640		13.556556	-14.424212	-1.305953	12.123405	1.267172	5.837939	2.069672	0.857664	-1.219913	-0.941406	-0.202393	0.105469	0.134621	-0.144916	-0.015136	0.424400	0.499168	-0.529267	0.539066	-111.739132	-80.898994	-153.398737
37641		12.195815	-4.199976	3.106186	2.787402	-3.526292	2.669938	1.734384	0.759690	-1.235076	-0.938721	-0.211182	0.103271	0.121810	-0.043017	0.030229	0.425354	0.504070	-0.519855	0.542899	-109.739109	-81.714347	-154.412649
37642		11.737183	5.266315	5.838115	-5.989794	-7.009770	0.890459	1.166961	0.951039	-1.596850	-0.936035	-0.228760	0.097168	0.118062	0.051383	0.058123	0.429166	0.508118	-0.510605	0.544899	-107.441678	-82.754440	-156.053317
37643		10.847618	4.850205	3.166258	-5.570376	-4.198215	0.314558	0.735896	0.787694	-1.811919	-0.931152	-0.239746	0.095215	0.109033	0.047400	0.031410	0.434191	0.512182	-0.502265	0.544865	-105.892539	-83.878316	-157.184037
37644		10.707738	1.087223	-0.338144	-2.078456	-0.202612	0.750829	0.706006	0.494110	-1.775821	-0.926025	-0.261719	0.091309	0.107160	0.009933	-0.003610	0.438413	0.516831	-0.494694	0.544020	-105.549472	-84.933677	-157.119172
37645		9.876226	1.798084	-3.652894	-2.983366	3.076787	-0.027608	0.874616	0.412131	-1.741324	-0.921387	-0.272705	0.091797	0.098839	0.017281	-0.036656	0.441857	0.521944	-0.486872	0.543408	-105.588037	-85.958255	-156.573032
37646		9.371415	2.479376	-3.261504	-3.443655	2.646674	-0.552930	0.981316	0.402177	-1.675853	-0.918457	-0.290039	0.094482	0.093853	0.024168	-0.032684	0.444779	0.527101	-0.478917	0.543115	-105.665873	-86.944290	-155.928615
37647		10.073863	4.225823	-1.358672	-4.791795	0.530067	0.083864	0.735406	0.508680	-1.615581	-0.911133	-0.314209	0.088379	0.101041	0.041493	-0.013690	0.448397	0.531239	-0.471496	0.542602	-104.391526	-87.914023	-156.777710
37648		10.042010	4.192363	0.540711	-4.319959	-1.279130	0.107454	0.173623	0.675697	-1.578119	-0.906250	-0.323242	0.079834	0.100764	0.041125	0.005103	0.453766	0.533524	-0.465298	0.541245	-96.730539	-88.875482	-164.338807
37649		9.299305	2.390358	0.809399	-2.349926	-1.169211	-0.541519	-0.444751	0.759240	-1.506216	-0.903564	-0.340820	0.075684	0.093199	0.023220	0.007688	0.460751	0.533981	-0.460729	0.538797	-40.395317	-89.609799	139.072424
37650		9.139975	0.497553	0.517984	-0.402991	-0.503460	-0.667339	-0.646767	0.703886	-1.425825	-0.896484	-0.354004	0.062988	0.091450	0.004340	0.004843	0.467896	0.533888	-0.457023	0.535879	38.779803	-89.104328	59.526830
37651		9.559585	1.326230	1.733070	-0.930204	-1.737019	-0.207275	-0.474767	0.600553	-1.353756	-0.889160	-0.369385	0.061035	0.095734	0.012655	0.017013	0.474122	0.534283	-0.453248	0.533213	51.954003	-88.306293	46.082082
37652		10.219196	1.347976	2.143530	-0.765131	-2.053564	0.484858	-0.294599	0.550179	-1.318009	-0.881836	-0.386963	0.048340	0.102336	0.012837	0.021135	0.479631	0.535119	-0.449194	0.530873	56.876016	-87.509714	40.991110
37653		10.379699	0.216973	1.811576	0.432673	-1.492486	0.610882	-0.180074	0.510824	-1.229931	-0.881592	-0.400146	0.048584	0.103854	0.001547	0.017849	0.484488	0.536119	-0.445131	0.528873	59.313976	-86.756947	38.451429
37654		10.232743	0.371609	2.046852	0.418880	-1.686219	0.483748	-0.092189	0.442928	-1.168570	-0.874512	-0.409180	0.037842	0.102392	0.003127	0.020240	0.488775	0.537343	-0.441159	0.527011	61.099311	-86.051215	36.612792
37655		10.323808	-0.263591	1.734323	1.122762	-1.231298	0.525608	0.022799	0.369219	-1.156677	-0.871826	-0.422363	0.035889	0.103252	-0.003235	0.017152	0.492542	0.539003	-0.437065	0.525216	62.818773	-85.366842	34.906147
37656		10.191111	0.890088	1.372587	0.037037	-0.981864	0.461958	0.056073	0.324915	-1.131525	-0.860352	-0.435303	0.036377	0.101981	0.008320	0.013563	0.496037	0.540780	-0.433060	0.523415	64.292952	-84.704732	33.461806
