// General information: 
//  MT Manager version: 2019.2.0 
//  XDA version: 2019.2.0 build 3853 rev 94535 built on 2019-09-09
// Device information: 
//  DeviceId: 00B40A40
//  ProductCode: MTW2-3A7G6
//  Firmware Version: 4.6.0
//  Hardware Version: 1.1.0
// Device settings: 
//  Filter Profile: human(46.1)
//  Option Flags: Orientation Smoother Disabled, AHS Disabled, ICC Disabled
// Coordinate system: ENU
PacketCounter	SampleTimeFine	Acc_X	Acc_Y	Acc_Z	FreeAcc_E	FreeAcc_N	FreeAcc_U	Gyr_X	Gyr_Y	Gyr_Z	Mag_X	Mag_Y	Mag_Z	VelInc_X	VelInc_Y	VelInc_Z	Quat_q0	Quat_q1	Quat_q2	Quat_q3	Roll	Pitch	Yaw
37109		8.561546	1.334242	0.299302	0.285101	-0.392792	-1.156231	-0.184748	0.242560	-0.043916	-0.900635	0.093506	0.448730	0.085622	0.013326	0.002877	0.075860	-0.685464	-0.144596	-0.709561	79.661283	-84.095459	118.299099
37110		8.408744	1.264916	0.398239	0.344207	-0.314553	-1.312798	-0.156688	0.242836	-0.046861	-0.898193	0.088867	0.444336	0.084095	0.012633	0.003870	0.075354	-0.684690	-0.144086	-0.710465	78.382922	-84.049326	119.494384
37111		8.270281	1.089822	0.469198	0.346829	-0.142901	-1.466151	-0.126185	0.202423	-0.039234	-0.905029	0.093262	0.439697	0.082710	0.010885	0.004601	0.074948	-0.684057	-0.143674	-0.711201	77.353667	-84.009894	120.456745
37112		8.235046	0.991764	0.509477	0.342245	-0.043219	-1.509668	-0.098102	0.165678	-0.045217	-0.909424	0.088623	0.439941	0.082357	0.009901	0.005022	0.074594	-0.683535	-0.143397	-0.711796	76.548547	-83.970226	121.210337
37113		8.371390	1.017075	0.562332	0.378608	-0.040078	-1.369592	-0.089490	0.179594	-0.055870	-0.904785	0.086670	0.440186	0.083722	0.010150	0.005544	0.074237	-0.682956	-0.143180	-0.712432	75.706656	-83.921655	122.005574
37114		8.284006	1.068926	0.611248	0.430377	-0.083781	-1.449153	-0.098585	0.190882	-0.046665	-0.909424	0.088623	0.437744	0.082848	0.010673	0.006028	0.073893	-0.682341	-0.142895	-0.713114	74.795218	-83.875158	122.865777
37115		8.182244	1.080808	0.624462	0.437480	-0.102762	-1.547989	-0.096994	0.182532	-0.032080	-0.909424	0.090820	0.433105	0.081830	0.010798	0.006165	0.073598	-0.681770	-0.142569	-0.713755	73.925784	-83.836696	123.684525
37116		8.118240	1.197709	0.689977	0.525024	-0.202463	-1.596865	-0.073140	0.167046	-0.027606	-0.902588	0.088867	0.437744	0.081190	0.011968	0.006828	0.073394	-0.681243	-0.142321	-0.714329	73.145350	-83.801849	124.428081
37117		8.126774	1.220064	0.810986	0.633833	-0.189434	-1.581462	-0.054514	0.167185	-0.016494	-0.911621	0.088623	0.433350	0.081275	0.012196	0.008039	0.073288	-0.680722	-0.142099	-0.714881	72.372379	-83.772088	125.174386
37118		8.109824	1.175848	0.812259	0.611406	-0.152396	-1.602050	-0.024605	0.151053	-0.002679	-0.909424	0.088623	0.435547	0.081104	0.011758	0.008060	0.073326	-0.680251	-0.141944	-0.715355	71.675138	-83.751561	125.862189
37119		8.151956	1.148298	0.869640	0.645939	-0.108659	-1.560403	0.015985	0.123591	0.000438	-0.911865	0.095215	0.435059	0.081525	0.011482	0.008647	0.073490	-0.679871	-0.141932	-0.715702	71.142019	-83.737064	126.407901
37120		8.239073	1.174084	0.966027	0.732759	-0.098970	-1.467193	0.030378	0.097797	0.000402	-0.913818	0.088623	0.431152	0.082395	0.011740	0.009622	0.073689	-0.679573	-0.141984	-0.715955	70.740623	-83.726782	126.830023
37121		8.327609	1.213042	0.912462	0.682705	-0.146521	-1.376718	0.059527	0.076638	0.005804	-0.914063	0.093018	0.430664	0.083279	0.012130	0.009096	0.073986	-0.679348	-0.142127	-0.716109	70.457524	-83.723283	127.149325
37122		8.542806	1.164306	0.918804	0.657129	-0.081422	-1.167406	0.105713	0.055133	0.016050	-0.918457	0.088379	0.431152	0.085430	0.011645	0.009171	0.074466	-0.679186	-0.142411	-0.716157	70.282328	-83.729146	127.387205
37123		8.790800	1.203118	1.048744	0.774874	-0.059030	-0.912035	0.150205	0.051929	0.031766	-0.909668	0.093018	0.433105	0.087909	0.012037	0.010474	0.075147	-0.679034	-0.142800	-0.716153	70.126281	-83.744197	127.630952
37124		8.892643	1.266087	1.174147	0.906630	-0.074058	-0.799739	0.175664	0.037690	0.048999	-0.914307	0.095215	0.428467	0.088926	0.012672	0.011736	0.075969	-0.678930	-0.143227	-0.716079	70.017009	-83.771058	127.842584
37125		8.930324	1.300568	1.084084	0.832618	-0.134298	-0.762488	0.207267	-0.004623	0.070594	-0.920898	0.095215	0.432861	0.089298	0.013026	0.010856	0.076941	-0.678986	-0.143710	-0.715825	70.101383	-83.818005	127.877354
37126		9.090621	1.392193	0.910990	0.693768	-0.263854	-0.600925	0.246526	-0.048971	0.073385	-0.912109	0.097412	0.426025	0.090899	0.013944	0.009149	0.078029	-0.679181	-0.144342	-0.715395	70.419973	-83.874849	127.699587
37127		9.388357	1.410950	1.128760	0.898497	-0.190877	-0.296261	0.286723	-0.058352	0.094621	-0.919189	0.106201	0.432129	0.093874	0.014138	0.011335	0.079319	-0.679413	-0.145047	-0.714890	70.782672	-83.945039	127.500228
37128		9.594231	1.472258	1.097395	0.888162	-0.244510	-0.087850	0.291950	-0.072645	0.102374	-0.912354	0.102051	0.439209	0.095931	0.014756	0.011030	0.080648	-0.679692	-0.145753	-0.714332	71.208529	-84.021748	127.241006
37129		9.681489	1.485824	1.096799	0.901018	-0.254133	-0.001192	0.284969	-0.066628	0.114008	-0.916992	0.108643	0.429932	0.096803	0.014898	0.011021	0.081995	-0.679965	-0.146388	-0.713789	71.593910	-84.103676	127.017889
37130		9.749137	1.512250	1.173926	0.992585	-0.253830	0.069671	0.274815	-0.061223	0.122400	-0.908203	0.111084	0.436279	0.097478	0.015166	0.011790	0.083344	-0.680222	-0.146958	-0.713271	71.931917	-84.188837	126.836925
37131		9.801852	1.568969	1.257206	1.100563	-0.281507	0.128542	0.262440	-0.060486	0.120851	-0.910400	0.111084	0.436523	0.098005	0.015732	0.012622	0.084642	-0.680484	-0.147487	-0.712759	72.275763	-84.273126	126.642647
37132		9.762964	1.446574	1.118649	0.947141	-0.220387	0.072339	0.253164	-0.068030	0.132398	-0.908203	0.115479	0.438477	0.097616	0.014516	0.011238	0.085947	-0.680779	-0.147948	-0.712225	72.637276	-84.364674	126.425635
37133		10.022729	1.579077	1.134130	1.001628	-0.326713	0.342351	0.229337	-0.007839	0.118836	-0.912842	0.115479	0.442871	0.100217	0.015837	0.011363	0.087165	-0.680863	-0.148342	-0.711915	72.686207	-84.438677	126.508685
37134		9.976614	1.647012	1.323229	1.210073	-0.341132	0.307379	0.191489	0.071469	0.122769	-0.912842	0.115479	0.436035	0.099761	0.016519	0.013212	0.088328	-0.680678	-0.148555	-0.711904	72.248500	-84.500855	127.059076
37135		9.875397	1.851960	1.464561	1.421161	-0.505522	0.228374	0.140514	0.003433	0.140939	-0.910889	0.122070	0.437988	0.098741	0.018579	0.014657	0.089329	-0.680775	-0.148553	-0.711686	72.133118	-84.584871	127.256045
37136		10.210721	1.979315	1.388585	1.379508	-0.634512	0.569944	0.037403	-0.011349	0.084936	-0.910889	0.124268	0.440186	0.102098	0.019834	0.013895	0.089772	-0.680924	-0.148383	-0.711524	72.137675	-84.640616	127.273418
37137		10.443933	1.890717	1.487405	1.434060	-0.509520	0.796119	0.004008	0.038390	0.082276	-0.913086	0.119873	0.440430	0.104434	0.018950	0.014854	0.090126	-0.680914	-0.148079	-0.711552	71.843812	-84.686409	127.571053
37138		10.512877	1.777632	1.599580	1.499069	-0.371866	0.857537	-0.013887	0.053452	0.100872	-0.908447	0.119873	0.437988	0.105124	0.017830	0.015966	0.090498	-0.680867	-0.147643	-0.711640	71.401401	-84.739072	128.007781
37139		10.574291	1.789662	1.640467	1.537372	-0.378184	0.920583	-0.010632	0.072549	0.106190	-0.904297	0.124512	0.435547	0.105739	0.017954	0.016365	0.090912	-0.680759	-0.147190	-0.711784	70.835279	-84.791069	128.570342
37140		10.831683	1.847250	1.531248	1.435816	-0.463825	1.178477	0.013941	0.096153	0.093624	-0.910889	0.124268	0.435547	0.108316	0.018522	0.015262	0.091384	-0.680541	-0.146858	-0.712001	70.150180	-84.830801	129.266633
37141		11.167331	2.042479	1.733329	1.667356	-0.569032	1.535508	0.001680	0.087368	0.079997	-0.915527	0.126465	0.430908	0.111673	0.020469	0.017285	0.091758	-0.680355	-0.146531	-0.712198	69.538342	-84.864629	129.882105
37142		11.556193	1.812703	1.846591	1.672961	-0.300787	1.907044	0.011945	0.067073	0.091917	-0.908691	0.126709	0.430908	0.115560	0.018179	0.018428	0.092197	-0.680239	-0.146212	-0.712317	69.010089	-84.907955	130.419864
37143		11.370490	1.358861	1.867918	1.555753	0.107744	1.684776	0.054404	0.018836	0.121482	-0.904541	0.133301	0.432861	0.113698	0.013653	0.018672	0.092848	-0.680303	-0.145963	-0.712223	68.727515	-84.977164	130.735021
37144		11.015750	1.088133	1.482737	1.134289	0.198519	1.296014	0.060499	-0.086464	0.133178	-0.908936	0.131104	0.432861	0.110144	0.010950	0.014878	0.093487	-0.680741	-0.145749	-0.711765	69.053512	-85.073895	130.443259
37145		11.113746	0.991409	1.005635	0.668171	0.129177	1.369726	0.069792	-0.176914	0.104535	-0.904785	0.135498	0.430420	0.111123	0.009969	0.010158	0.093987	-0.681481	-0.145703	-0.711000	70.049297	-85.173519	129.484177
37146		11.064152	1.129779	0.661248	0.419373	-0.122951	1.320060	0.002717	-0.220776	0.101815	-0.904785	0.135742	0.441650	0.110628	0.011354	0.006735	0.094221	-0.682398	-0.145453	-0.710140	71.331051	-85.277886	128.200259
37147		10.894745	1.089301	0.366539	0.166542	-0.193648	1.139532	-0.115750	-0.268791	0.037191	-0.902588	0.140137	0.436768	0.108940	0.010915	0.003805	0.093782	-0.683501	-0.145021	-0.709225	73.070621	-85.352993	126.388503
37148		10.885359	0.866641	-0.060161	-0.279950	-0.118966	1.103041	-0.201109	-0.279203	-0.025774	-0.904785	0.135742	0.437256	0.108855	0.008652	-0.000458	0.092824	-0.684626	-0.144510	-0.708370	74.995231	-85.389894	124.342847
37149		10.989198	0.604621	-0.363733	-0.631237	0.046966	1.180930	-0.229022	-0.244756	-0.051746	-0.902100	0.126709	0.446533	0.109898	0.006014	-0.003510	0.091699	-0.685627	-0.143969	-0.707658	76.746298	-85.402592	122.454655
37150		11.011767	0.257480	-0.509154	-0.864402	0.338833	1.174693	-0.186830	-0.129936	-0.030484	-0.899902	0.131348	0.446289	0.110121	0.002553	-0.005022	0.090879	-0.686211	-0.143454	-0.707303	77.685974	-85.408676	121.405142
37151		10.742812	0.028147	-0.580407	-0.988881	0.516141	0.887844	-0.087291	0.035874	0.014256	-0.899902	0.131348	0.441895	0.107427	0.000287	-0.005823	0.090675	-0.686200	-0.143059	-0.707419	77.470323	-85.419196	121.571496
37152		9.829013	0.150442	-0.449633	-0.790158	0.377548	-0.011289	-0.084014	0.072379	0.030952	-0.900146	0.133545	0.446289	0.098288	0.001518	-0.004533	0.090571	-0.686065	-0.142606	-0.707655	76.963390	-85.433998	122.032470
37153		9.420458	-0.032393	-0.607308	-0.985057	0.467025	-0.435777	-0.053959	0.064878	0.008529	-0.895508	0.133545	0.439453	0.094203	-0.000322	-0.006104	0.090482	-0.685932	-0.142335	-0.707849	76.570967	-85.437331	122.395313
37154		9.242049	0.061110	-0.815726	-1.149286	0.296962	-0.610755	-0.037953	0.083341	-0.014151	-0.900146	0.135742	0.432617	0.092417	0.000603	-0.008196	0.090385	-0.685705	-0.142195	-0.708110	76.087452	-85.425005	122.859415
37155		9.281865	0.039018	-0.986784	-1.325801	0.264160	-0.576847	-0.018735	0.076719	-0.027205	-0.904297	0.126709	0.435547	0.092815	0.000377	-0.009903	0.090299	-0.685489	-0.142166	-0.708336	75.696378	-85.406385	123.241161
37156		9.420076	0.000971	-1.133779	-1.486387	0.262566	-0.445458	-0.000418	0.013231	-0.032800	-0.904541	0.133301	0.437256	0.094200	-0.000006	-0.011344	0.090215	-0.685480	-0.142255	-0.708338	75.755511	-85.393217	123.182493
37157		9.828354	-0.009228	-1.263829	-1.628622	0.260808	-0.041636	0.036853	-0.040595	-0.043327	-0.895508	0.131348	0.435059	0.098286	-0.000111	-0.012618	0.090179	-0.685643	-0.142531	-0.708129	76.234305	-85.381957	122.723513
37158		10.185245	0.046774	-1.260061	-1.618053	0.238235	0.319159	0.040902	-0.044216	-0.045261	-0.899902	0.128906	0.428467	0.101855	0.000447	-0.012578	0.090152	-0.685809	-0.142834	-0.707910	76.731727	-85.369524	122.248885
37159		10.366401	0.113327	-1.138773	-1.485772	0.232413	0.507700	0.033364	-0.025411	-0.047843	-0.895264	0.129150	0.430664	0.103666	0.001110	-0.011374	0.090098	-0.685917	-0.143107	-0.707758	77.106399	-85.353180	121.892347
37160		10.325362	0.271920	-0.831819	-1.141875	0.184552	0.484935	0.009914	0.017943	-0.049319	-0.897705	0.131348	0.437256	0.103254	0.002694	-0.008327	0.089995	-0.685874	-0.143286	-0.707776	77.161275	-85.330124	121.843824
37161		10.249101	0.616363	-0.456039	-0.676129	-0.018670	0.442772	-0.092565	0.063365	-0.068475	-0.895264	0.126953	0.433105	0.102492	0.006126	-0.004596	0.089500	-0.685709	-0.143144	-0.708027	76.887677	-85.290786	122.065314
37162		10.234626	0.511413	-0.398906	-0.664090	0.103043	0.420425	-0.113416	0.085284	-0.091087	-0.895264	0.124756	0.435547	0.102347	0.005065	-0.004036	0.088873	-0.685454	-0.142999	-0.708382	76.487334	-85.235624	122.402582
37163		10.150927	0.423649	-0.191112	-0.502406	0.254082	0.333264	-0.084554	0.088679	-0.110654	-0.895264	0.124756	0.433350	0.101511	0.004180	-0.001958	0.088274	-0.685165	-0.143018	-0.708733	76.129444	-85.169150	122.713301
37164		10.300372	0.260375	0.087889	-0.307997	0.517527	0.473734	-0.086989	0.073973	-0.127967	-0.897217	0.120117	0.428955	0.103006	0.002538	0.000840	0.087598	-0.684912	-0.143097	-0.709046	75.894983	-85.094734	122.899212
37165		10.063319	0.383984	0.529929	0.154027	0.536464	0.256430	-0.139151	0.017210	-0.124226	-0.892822	0.120361	0.437988	0.100636	0.003781	0.005288	0.086713	-0.684889	-0.143001	-0.709196	76.001144	-85.030497	122.712817
37166		9.905084	0.603134	0.564324	0.265437	0.340207	0.117404	-0.161806	-0.102095	-0.110414	-0.895020	0.117920	0.438232	0.099051	0.005981	0.005689	0.085717	-0.685304	-0.142830	-0.708950	76.818383	-84.989683	121.799938
37167		9.811387	0.735211	0.200023	-0.024379	0.103557	0.027664	-0.095135	-0.129442	-0.083334	-0.897217	0.117920	0.444824	0.098116	0.007312	0.002060	0.085023	-0.685811	-0.142812	-0.708547	77.803474	-84.966396	120.756519
37168		9.596173	0.805189	0.040433	-0.134350	-0.019121	-0.183665	0.022708	-0.097383	-0.079994	-0.892334	0.111328	0.447510	0.095965	0.008013	0.000452	0.084770	-0.686151	-0.143188	-0.708172	78.631025	-84.939622	119.939268
37169		9.425040	0.912323	0.095362	-0.033630	-0.105961	-0.343767	0.106160	-0.066112	-0.084909	-0.899170	0.111328	0.443115	0.094254	0.009083	0.000990	0.084805	-0.686346	-0.143862	-0.707842	79.313112	-84.905871	119.315745
37170		9.313250	0.968617	0.167448	0.063290	-0.133542	-0.448872	0.098281	-0.076864	-0.114288	-0.894775	0.113525	0.454102	0.093137	0.009632	0.001715	0.084702	-0.686556	-0.144613	-0.707498	80.074644	-84.855796	118.607819
37171		9.274393	0.948889	0.125095	0.024286	-0.118389	-0.489824	0.073132	-0.078607	-0.128698	-0.892578	0.113525	0.445068	0.092750	0.009429	0.001291	0.084461	-0.686777	-0.145325	-0.707166	80.840226	-84.797070	117.881365
37172		9.272288	0.884686	0.101386	-0.014314	-0.053296	-0.497902	0.073764	-0.046869	-0.107809	-0.892334	0.111328	0.454346	0.092727	0.008796	0.001039	0.084319	-0.686896	-0.145955	-0.706938	81.367583	-84.746479	117.394505
37173		9.116298	0.822024	0.073732	-0.052141	-0.006660	-0.659258	0.083927	-0.004808	-0.082552	-0.889893	0.106934	0.447754	0.091166	0.008182	0.000743	0.084331	-0.686884	-0.146516	-0.706833	81.618500	-84.706473	117.190999
37174		8.942668	0.846386	0.143491	0.028798	-0.015459	-0.828969	0.074514	0.014101	-0.057036	-0.894531	0.109131	0.447754	0.089429	0.008438	0.001432	0.084415	-0.686823	-0.146947	-0.706792	81.716224	-84.679155	117.135769
37175		8.731813	0.767475	0.139482	0.007868	0.043919	-1.046215	0.077441	0.022762	-0.041980	-0.890137	0.111328	0.447510	0.087320	0.007656	0.001388	0.084568	-0.686746	-0.147333	-0.706768	81.756073	-84.659805	117.140496
37176		8.636752	0.792555	0.190741	0.067552	0.031726	-1.137871	0.074286	0.022764	-0.037322	-0.892334	0.106934	0.452393	0.086369	0.007909	0.001901	0.084728	-0.686669	-0.147693	-0.706748	81.782797	-84.642948	117.156611
37177		8.495596	0.833514	0.242416	0.135522	0.000947	-1.273935	0.060593	0.006457	-0.037741	-0.890137	0.113770	0.447266	0.084958	0.008318	0.002424	0.084826	-0.686660	-0.148013	-0.706679	81.907439	-84.627327	117.066476
37178		8.382137	0.802381	0.328252	0.212683	0.051450	-1.388680	0.068539	-0.010317	-0.025581	-0.894531	0.106934	0.452393	0.083822	0.008012	0.003290	0.084983	-0.686711	-0.148325	-0.706545	82.119831	-84.619774	116.892737
37179		8.267594	0.765154	0.436237	0.310727	0.114635	-1.504909	0.059652	-0.034648	-0.017526	-0.894531	0.109131	0.447754	0.082676	0.007643	0.004379	0.085119	-0.686862	-0.148589	-0.706326	82.473658	-84.618722	116.571860
37180		8.169668	0.702876	0.511634	0.371649	0.193148	-1.607576	0.051403	-0.083470	-0.027829	-0.887695	0.107178	0.454590	0.081696	0.007016	0.005152	0.085154	-0.687177	-0.148879	-0.705955	83.117752	-84.614911	115.954487
37181		8.251482	0.494424	0.485796	0.285062	0.392263	-1.546354	0.067888	-0.114147	-0.015615	-0.892334	0.111328	0.449707	0.082512	0.004936	0.004907	0.085266	-0.687606	-0.149200	-0.705455	83.954892	-84.619425	115.152895
37182		8.261425	0.369094	0.549195	0.313437	0.536004	-1.548097	0.085769	-0.100427	-0.012368	-0.889893	0.106934	0.454590	0.082612	0.003683	0.005535	0.085461	-0.687977	-0.149565	-0.704993	84.711333	-84.623847	114.442490
37183		8.205574	0.352943	0.583699	0.352780	0.561169	-1.605535	0.074444	-0.111364	0.005032	-0.890137	0.109375	0.458984	0.082052	0.003529	0.005884	0.085670	-0.688408	-0.149837	-0.704489	85.527686	-84.637932	113.665566
37184		8.292861	0.308573	0.517766	0.284209	0.591539	-1.523891	0.070149	-0.136284	0.011569	-0.892090	0.102539	0.459229	0.082925	0.003089	0.005235	0.085867	-0.688929	-0.150078	-0.703903	86.488101	-84.655520	112.741131
37185		8.483356	0.339630	0.421702	0.210137	0.549772	-1.332470	0.056029	-0.145699	0.019807	-0.885498	0.109375	0.458740	0.084830	0.003404	0.004280	0.086039	-0.689499	-0.150249	-0.703287	87.509248	-84.676699	111.747972
37186		8.724326	0.430895	0.439886	0.263551	0.493094	-1.084548	0.033871	-0.156656	0.026296	-0.883301	0.107178	0.463379	0.087239	0.004320	0.004468	0.086146	-0.690118	-0.150319	-0.702652	88.584481	-84.700034	110.687169
37187		8.954779	0.502083	0.325583	0.188871	0.410574	-0.849323	0.013485	-0.193547	0.039276	-0.883545	0.116211	0.465088	0.089544	0.005038	0.003343	0.086204	-0.690888	-0.150293	-0.701893	89.893283	-84.729107	109.380724
37188		9.423419	0.584313	0.246765	0.146711	0.349602	-0.375560	0.014578	-0.186897	0.047836	-0.890381	0.113770	0.467529	0.094230	0.005865	0.002556	0.086299	-0.691636	-0.150235	-0.701157	91.168724	-84.760386	108.108146
37189		9.311930	0.634672	0.161213	0.106322	0.264904	-0.482129	-0.006091	-0.198087	0.068396	-0.879150	0.116211	0.465088	0.093115	0.006379	0.001704	0.086388	-0.692451	-0.150041	-0.700383	92.530311	-84.800541	106.737572
37190		9.526599	0.456802	-0.137059	-0.217346	0.352636	-0.283159	0.039855	-0.211547	0.062317	-0.883545	0.114014	0.469727	0.095266	0.004598	-0.001269	0.086604	-0.693283	-0.150034	-0.699534	94.013528	-84.833708	105.271284
37191		10.043099	0.378257	-0.178668	-0.273135	0.460283	0.224860	0.044088	-0.186840	0.015238	-0.883545	0.116211	0.467285	0.100432	0.003791	-0.001692	0.086688	-0.693995	-0.150195	-0.698783	95.340249	-84.837830	103.964705
37192		10.427573	0.334216	0.083828	-0.030472	0.626445	0.601708	-0.002048	-0.138138	-0.001148	-0.879150	0.116211	0.474121	0.104275	0.003342	0.000910	0.086592	-0.694539	-0.150228	-0.698247	96.315615	-84.833154	102.984216
37193		10.410735	0.254588	0.330344	0.188547	0.784007	0.575148	-0.050747	-0.068448	0.008151	-0.885742	0.113770	0.471924	0.104106	0.002551	0.003338	0.086411	-0.694872	-0.150031	-0.697980	96.837938	-84.837110	102.430755
37194		10.166195	0.271792	0.523038	0.385347	0.810582	0.330953	-0.119751	0.010305	-0.018864	-0.876953	0.118408	0.471680	0.101662	0.002711	0.005224	0.085955	-0.694936	-0.149650	-0.698055	96.797206	-84.830945	102.402692
37195		10.111810	0.103351	0.661536	0.460592	1.011040	0.260181	-0.151186	0.036159	-0.048631	-0.879150	0.114014	0.465332	0.101120	0.001014	0.006596	0.085306	-0.694905	-0.149254	-0.698250	96.562043	-84.809470	102.552025
37196		10.181396	-0.075354	0.777221	0.506797	1.226591	0.311996	-0.159083	0.035967	-0.076649	-0.874268	0.109619	0.472168	0.101815	-0.000786	0.007755	0.084532	-0.694851	-0.148928	-0.698467	96.297693	-84.772111	102.726196
37197		10.272177	-0.174722	0.759832	0.452351	1.328907	0.392941	-0.168957	0.033398	-0.108040	-0.878662	0.107422	0.472412	0.102722	-0.001796	0.007583	0.083612	-0.694791	-0.148677	-0.698691	96.033958	-84.716505	102.894015
37198		10.371787	-0.107393	0.828463	0.532133	1.306962	0.496557	-0.185634	0.027760	-0.156888	-0.878418	0.100586	0.472900	0.103718	-0.001148	0.008271	0.082456	-0.694717	-0.148536	-0.698932	95.761507	-84.632785	103.060461
37199		10.605055	0.055493	0.871501	0.614776	1.203454	0.742098	-0.192433	0.016013	-0.193981	-0.880615	0.100586	0.475098	0.106052	0.000460	0.008706	0.081140	-0.694662	-0.148509	-0.699147	95.547983	-84.527061	103.164377
37200		10.800447	0.196196	0.856524	0.635573	1.102675	0.948442	-0.202719	0.001928	-0.218870	-0.873779	0.096191	0.473145	0.108007	0.001852	0.008562	0.079686	-0.694637	-0.148530	-0.699334	95.395304	-84.406467	103.200302
37201		11.182521	0.224149	0.721253	0.500893	1.091123	1.330819	-0.222321	0.015707	-0.242056	-0.875977	0.093994	0.473145	0.111828	0.002114	0.007201	0.078098	-0.694557	-0.148565	-0.699586	95.152381	-84.273236	103.316596
37202		11.802093	0.265311	0.649241	0.420214	1.113612	1.950158	-0.251612	0.055479	-0.260571	-0.877930	0.089600	0.473389	0.118026	0.002507	0.006456	0.076368	-0.694329	-0.148539	-0.700008	94.663750	-84.131462	103.662047
37203		12.255512	0.337100	0.708335	0.472029	1.134298	2.406291	-0.273415	0.084142	-0.261666	-0.873047	0.080566	0.471680	0.122562	0.003220	0.007027	0.074584	-0.694010	-0.148436	-0.700539	94.033712	-83.989832	104.138168
37204		12.491652	0.525430	0.814852	0.608858	1.037171	2.658677	-0.260484	0.068160	-0.237032	-0.879883	0.082764	0.469482	0.124925	0.005117	0.008099	0.072912	-0.693754	-0.148288	-0.700999	93.522117	-83.861328	104.501419
37205		12.542413	0.658067	0.648057	0.476910	0.888829	2.723167	-0.199211	0.024032	-0.225346	-0.877441	0.078369	0.474121	0.125432	0.006446	0.006459	0.071468	-0.693641	-0.148340	-0.701248	93.303883	-83.737636	104.606312
37206		12.630642	0.823084	0.509978	0.385864	0.724922	2.828365	-0.129807	-0.018101	-0.227536	-0.881836	0.071533	0.472412	0.126315	0.008090	0.005106	0.070220	-0.693645	-0.148650	-0.701305	93.338616	-83.611436	104.495592
37207		12.189051	0.796451	0.251100	0.143557	0.649135	2.386834	-0.022178	-0.085079	-0.190946	-0.877197	0.071777	0.472412	0.121897	0.007848	0.002562	0.069429	-0.693875	-0.149241	-0.701031	93.786319	-83.503560	104.032441
37208		11.587864	0.676790	-0.096334	-0.193427	0.613808	1.777466	0.122563	-0.222515	-0.135203	-0.879395	0.069336	0.479248	0.115884	0.006690	-0.000830	0.069225	-0.694574	-0.150183	-0.700157	94.995557	-83.420908	102.884598
37209		11.521974	0.806584	-0.606606	-0.607964	0.351466	1.732057	0.255132	-0.337366	-0.132670	-0.877441	0.073975	0.479004	0.115235	0.007997	-0.005861	0.069412	-0.695632	-0.151631	-0.698775	96.818603	-83.329323	101.196646
37210		11.626049	1.134648	-0.998621	-0.842941	-0.041599	1.880782	0.289308	-0.366286	-0.131543	-0.875000	0.071777	0.479004	0.116286	0.011284	-0.009757	0.069692	-0.696773	-0.153192	-0.697268	98.744249	-83.230030	99.423274
37211		11.789077	1.428833	-1.022901	-0.736933	-0.282540	2.080469	0.266290	-0.334865	-0.116561	-0.872803	0.073975	0.492432	0.117916	0.014233	-0.010013	0.069975	-0.697823	-0.154620	-0.695873	100.474140	-83.135403	97.834911
37212		11.737843	1.619541	-1.093265	-0.708849	-0.470247	2.056239	0.241495	-0.227878	-0.080345	-0.873047	0.076172	0.483154	0.117397	0.016161	-0.010779	0.070372	-0.698532	-0.155787	-0.694861	101.680210	-83.068379	96.758172
37213		11.185097	1.730948	-1.020301	-0.577328	-0.608859	1.520431	0.189155	-0.041104	-0.023914	-0.879639	0.076172	0.487793	0.111855	0.017306	-0.010164	0.070936	-0.698655	-0.156519	-0.694515	102.042375	-83.052970	96.502696
37214		10.359522	1.711189	-1.006565	-0.561215	-0.687979	0.697914	0.095258	0.178809	0.017901	-0.879639	0.073975	0.490234	0.103585	0.017126	-0.010150	0.071484	-0.698077	-0.156693	-0.695001	101.369833	-83.086955	97.234379
37215		9.270541	1.532148	-1.166625	-0.771843	-0.711297	-0.402604	0.038878	0.313356	0.033895	-0.877686	0.080566	0.485352	0.092684	0.015339	-0.011808	0.072001	-0.697066	-0.156575	-0.695988	100.048785	-83.142458	98.587643
37216		8.568827	1.436547	-1.324107	-0.962163	-0.766893	-1.110517	0.040158	0.312311	0.027626	-0.877441	0.076172	0.476563	0.085665	0.014380	-0.013372	0.072494	-0.696049	-0.156475	-0.696976	98.701869	-83.190752	99.966411
37217		8.275194	1.574690	-1.474679	-1.075941	-0.988926	-1.386687	0.016299	0.281143	-0.006797	-0.877441	0.078369	0.476318	0.082732	0.015745	-0.014862	0.072765	-0.695124	-0.156430	-0.697881	97.456359	-83.213073	101.230327
37218		8.265594	1.794711	-1.577713	-1.123687	-1.236464	-1.372389	-0.042444	0.264370	-0.023885	-0.879883	0.078369	0.476318	0.082637	0.017934	-0.015890	0.072754	-0.694261	-0.156239	-0.698783	96.234638	-83.221471	102.435349
37219		8.486688	2.013056	-1.650665	-1.149527	-1.443913	-1.129680	-0.086969	0.238909	-0.039009	-0.884277	0.078125	0.469727	0.084851	0.020107	-0.016617	0.072521	-0.693494	-0.155961	-0.699631	95.107156	-83.216727	103.520776
37220		8.855125	2.184951	-1.504592	-0.987276	-1.519411	-0.748048	-0.096542	0.217902	-0.046021	-0.888672	0.073730	0.472168	0.088540	0.021822	-0.015153	0.072210	-0.692793	-0.155675	-0.700420	94.068540	-83.204729	104.510434
37221		9.128658	2.294095	-1.298973	-0.786864	-1.528708	-0.467825	-0.110193	0.229956	-0.024334	-0.891113	0.080322	0.462891	0.091274	0.022923	-0.013107	0.071940	-0.692075	-0.155268	-0.701248	92.979716	-83.203265	105.543562
37222		9.238428	2.279497	-1.022305	-0.556280	-1.421659	-0.364982	-0.109599	0.283557	0.008424	-0.895508	0.075684	0.465332	0.092369	0.022793	-0.010367	0.071826	-0.691189	-0.154726	-0.702253	91.632810	-83.219266	106.836363
37223		9.204837	2.057165	-0.792786	-0.434985	-1.155281	-0.428367	-0.068582	0.357509	0.038997	-0.891113	0.080322	0.456055	0.092030	0.020587	-0.008099	0.072021	-0.690054	-0.154199	-0.703464	89.953178	-83.249276	108.488384
37224		9.233876	1.793423	-0.591499	-0.358501	-0.855024	-0.433402	-0.002911	0.390300	0.043128	-0.895508	0.075684	0.458740	0.092323	0.017954	-0.006095	0.072481	-0.688777	-0.153874	-0.704738	88.131405	-83.275402	110.321098
37225		9.365248	1.610219	-0.319003	-0.191334	-0.595195	-0.325248	0.047342	0.323555	0.015301	-0.897949	0.082275	0.456055	0.093646	0.016110	-0.003338	0.072966	-0.687698	-0.153848	-0.705747	86.665315	-83.281152	111.824829
37226		9.642427	1.492365	-0.080988	-0.036894	-0.389151	-0.062955	0.035001	0.235326	0.028149	-0.902344	0.082275	0.451660	0.096421	0.014937	-0.000921	0.073384	-0.686939	-0.153764	-0.706461	85.607757	-83.293753	112.909775
37227		9.770579	1.399388	0.027301	0.012751	-0.264495	0.054079	0.004075	0.227815	0.053520	-0.897705	0.080078	0.451660	0.097702	0.014020	0.000162	0.073781	-0.686240	-0.153489	-0.707158	84.559525	-83.318910	113.967734
37228		9.724886	1.327523	0.057604	0.002839	-0.205310	0.000407	0.001954	0.245083	0.068042	-0.895752	0.082275	0.449219	0.097245	0.013308	0.000457	0.074235	-0.685488	-0.153148	-0.707913	83.403893	-83.348885	115.132480
37229		9.561543	1.366875	0.106395	0.052743	-0.257902	-0.156941	0.006043	0.212317	0.076667	-0.900635	0.091064	0.442139	0.095611	0.013705	0.000963	0.074709	-0.684859	-0.152806	-0.708545	82.401427	-83.383589	116.145371
37230		9.442099	1.460333	0.190495	0.155819	-0.344783	-0.263923	-0.002064	0.151579	0.088039	-0.895752	0.082275	0.449219	0.094416	0.014645	0.001833	0.075153	-0.684452	-0.152420	-0.708975	81.667936	-83.427788	116.883252
37231		9.347106	1.475830	0.126808	0.098529	-0.401339	-0.357966	-0.013687	0.097455	0.087691	-0.900146	0.080078	0.453857	0.093465	0.014799	0.001222	0.075510	-0.684246	-0.152013	-0.709223	81.192219	-83.475525	117.354382
37232		9.339391	1.440200	0.152767	0.108915	-0.370281	-0.369554	-0.032644	0.064899	0.072700	-0.902588	0.086670	0.451416	0.093389	0.014436	0.001495	0.075720	-0.684148	-0.151597	-0.709384	80.867942	-83.517199	117.661382
37233		9.343035	1.358400	0.241693	0.165868	-0.273304	-0.373738	-0.044987	0.046165	0.076539	-0.895996	0.089111	0.453369	0.093426	0.013620	0.002392	0.075891	-0.684127	-0.151136	-0.709485	80.628083	-83.562710	117.877016
37234		9.267974	1.276355	0.224287	0.126762	-0.217276	-0.457932	-0.051252	0.045187	0.067016	-0.900391	0.086670	0.451416	0.092676	0.012795	0.002219	0.076007	-0.684100	-0.150685	-0.709594	80.389706	-83.602801	118.087455
37235		9.181138	1.237434	0.266699	0.157500	-0.182661	-0.547835	-0.053173	0.060710	0.043971	-0.902832	0.091064	0.448730	0.091809	0.012395	0.002636	0.076046	-0.684006	-0.150301	-0.709763	80.093875	-83.628294	118.354658
37236		8.966503	1.284913	0.246972	0.160931	-0.260339	-0.756392	-0.070125	0.079780	0.024274	-0.902588	0.086670	0.446777	0.089664	0.012861	0.002429	0.075973	-0.683831	-0.149916	-0.710020	79.702300	-83.640527	118.708453
37237		8.764554	1.292215	0.268870	0.190025	-0.284713	-0.955919	-0.081358	0.067752	0.022679	-0.902588	0.086670	0.448975	0.087645	0.012933	0.002654	0.075845	-0.683705	-0.149502	-0.710242	79.370471	-83.652922	118.995614
37238		8.712073	1.282608	0.369918	0.282618	-0.253022	-1.007107	-0.070328	0.039377	0.024059	-0.907471	0.093262	0.448730	0.087120	0.012838	0.003678	0.075738	-0.683674	-0.149131	-0.710362	79.180818	-83.668862	119.145872
37239		8.769841	1.218175	0.438505	0.323081	-0.168848	-0.955292	-0.077632	0.032679	0.024705	-0.900635	0.093506	0.453125	0.087698	0.012194	0.004366	0.075604	-0.683673	-0.148737	-0.710460	79.025007	-83.685956	119.258067
37240		8.660770	1.195219	0.455551	0.336587	-0.156154	-1.065840	-0.081671	0.036573	0.023575	-0.904785	0.086670	0.446777	0.086607	0.011964	0.004535	0.075460	-0.683654	-0.148333	-0.710577	78.842432	-83.701948	119.395449
37241		8.608693	1.190941	0.429970	0.312944	-0.168860	-1.118646	-0.082664	0.020831	0.026306	-0.906982	0.084229	0.447021	0.086086	0.011923	0.004286	0.075305	-0.683698	-0.147919	-0.710637	78.741092	-83.721193	119.449934
37242		8.675971	1.234939	0.473465	0.364098	-0.194146	-1.046191	-0.064077	0.020570	0.029654	-0.905029	0.088867	0.446777	0.086758	0.012364	0.004722	0.075225	-0.683735	-0.147558	-0.710686	78.641959	-83.742173	119.512605
37243		8.646117	1.298069	0.466072	0.376890	-0.263025	-1.069330	-0.055600	0.053905	0.026111	-0.905273	0.095459	0.446289	0.086461	0.012993	0.004634	0.075186	-0.683650	-0.147229	-0.710839	78.385581	-83.757506	119.738652
37244		8.489656	1.364427	0.503384	0.438212	-0.334301	-1.217019	-0.053672	0.067997	0.048129	-0.905029	0.088867	0.446777	0.084895	0.013666	0.005001	0.075248	-0.683527	-0.146829	-0.711034	78.026905	-83.783338	120.069329
37245		8.503510	1.317938	0.650696	0.560970	-0.249516	-1.204953	-0.038601	0.046055	0.054975	-0.900635	0.091064	0.448730	0.085033	0.013204	0.006485	0.075365	-0.683485	-0.146465	-0.711137	77.785555	-83.815523	120.290035
37246		8.427184	1.232022	0.754841	0.637808	-0.149017	-1.287660	-0.018120	0.018835	0.059686	-0.905029	0.093262	0.455322	0.084269	0.012346	0.007539	0.075550	-0.683532	-0.146167	-0.711134	77.684093	-83.853473	120.381973
37247		8.418820	1.198884	0.772612	0.648088	-0.117922	-1.299353	0.013289	-0.018577	0.057062	-0.903076	0.097900	0.452881	0.084184	0.012012	0.007735	0.075804	-0.683702	-0.146005	-0.710977	77.803737	-83.894619	120.269482
37248		8.458774	1.156562	0.762095	0.629859	-0.080949	-1.264822	0.045426	-0.070490	0.057322	-0.903076	0.095459	0.446289	0.084582	0.011588	0.007653	0.076136	-0.684040	-0.145977	-0.710621	78.212501	-83.942014	119.885309
37249		8.574282	1.109331	0.776322	0.633281	-0.022250	-1.155317	0.085358	-0.105094	0.033383	-0.900635	0.095703	0.452881	0.085737	0.011104	0.007813	0.076489	-0.684472	-0.146184	-0.710125	78.865126	-83.979544	119.278404
37250		8.744565	1.151178	0.787572	0.660686	-0.041860	-0.982363	0.108099	-0.118327	0.035206	-0.898438	0.093506	0.448730	0.087439	0.011523	0.007934	0.076921	-0.684939	-0.146474	-0.709568	79.602140	-84.018668	118.600343
37251		8.817586	1.206653	0.869595	0.765898	-0.060624	-0.903605	0.126006	-0.122929	0.036468	-0.905273	0.097656	0.450684	0.088168	0.012077	0.008758	0.077411	-0.685420	-0.146821	-0.708978	80.388335	-84.058079	117.882644
37252		8.892598	1.273359	0.803193	0.733927	-0.136461	-0.824497	0.134912	-0.115534	0.040631	-0.903076	0.097900	0.455078	0.088919	0.012746	0.008092	0.077955	-0.685870	-0.147185	-0.708408	81.138930	-84.098052	117.206305
37253		8.995247	1.342895	0.789791	0.752112	-0.196482	-0.716682	0.156195	-0.107995	0.052749	-0.903320	0.102295	0.452637	0.089945	0.013446	0.007957	0.078618	-0.686297	-0.147577	-0.707840	81.866742	-84.143450	116.564793
37254		9.106126	1.359024	0.763942	0.742118	-0.209815	-0.606314	0.197662	-0.110827	0.059191	-0.898682	0.102295	0.457031	0.091053	0.013610	0.007703	0.079448	-0.686716	-0.148098	-0.707231	82.633489	-84.191796	115.908748
37255		9.184547	1.429259	0.772077	0.784986	-0.266477	-0.522501	0.236662	-0.128181	0.073212	-0.901123	0.106689	0.454590	0.091835	0.014317	0.007797	0.080443	-0.687196	-0.148713	-0.706523	83.530042	-84.248399	115.144087
37256		9.211431	1.420942	0.731667	0.762050	-0.270139	-0.498658	0.260899	-0.149196	0.099105	-0.896729	0.104736	0.452393	0.092102	0.014245	0.007404	0.081604	-0.687752	-0.149336	-0.705717	84.556010	-84.319675	114.264259
37257		9.463198	1.467410	0.690929	0.749102	-0.305963	-0.245661	0.257656	-0.149850	0.095960	-0.896729	0.109131	0.461182	0.094620	0.014711	0.006999	0.082736	-0.688314	-0.149955	-0.704906	85.616074	-84.387600	113.347556
37258		9.726254	1.541928	0.731080	0.822962	-0.341403	0.021853	0.240137	-0.160699	0.107051	-0.899170	0.113525	0.465332	0.097248	0.015462	0.007407	0.083842	-0.688922	-0.150481	-0.704069	86.742814	-84.460491	112.354530
37259		9.843333	1.564092	0.750608	0.867132	-0.348199	0.138584	0.230570	-0.151979	0.112691	-0.894775	0.113770	0.463135	0.098419	0.015688	0.007599	0.084938	-0.689511	-0.150946	-0.703261	87.845790	-84.534525	111.379350
37260		10.081153	1.558824	0.822516	0.946280	-0.302206	0.373053	0.200515	-0.126546	0.110661	-0.892578	0.115967	0.467529	0.100798	0.015636	0.008305	0.085947	-0.690015	-0.151306	-0.702566	88.798880	-84.605278	110.538373
37261		10.213649	1.549191	0.840749	0.974626	-0.281021	0.502185	0.171594	-0.093603	0.123453	-0.897217	0.120361	0.469482	0.102123	0.015548	0.008469	0.086920	-0.690430	-0.151502	-0.701996	89.562504	-84.681879	109.870330
37262		10.196212	1.622747	0.946669	1.116007	-0.324248	0.489817	0.136171	-0.081242	0.135433	-0.895020	0.120361	0.464844	0.101947	0.016290	0.009519	0.087828	-0.690820	-0.151530	-0.701493	90.243058	-84.764550	109.266198
37263		10.216663	1.727826	1.087581	1.298925	-0.383031	0.517583	0.073673	-0.082812	0.131626	-0.890625	0.120361	0.469482	0.102151	0.017341	0.010924	0.088500	-0.691244	-0.151349	-0.701030	90.924242	-84.844347	108.624773
37264		10.301130	1.804938	1.026212	1.279569	-0.477618	0.606465	0.009923	-0.092351	0.117608	-0.892822	0.122559	0.471436	0.102996	0.018109	0.010311	0.088900	-0.691713	-0.151001	-0.700591	91.640525	-84.915252	107.912179
37265		10.416521	1.813241	1.100964	1.365623	-0.459182	0.719553	-0.022909	-0.111626	0.116811	-0.890869	0.125000	0.466797	0.104148	0.018195	0.011066	0.089164	-0.692269	-0.150545	-0.700107	92.491238	-84.984442	107.045158
37266		10.571565	1.787944	1.144857	1.411122	-0.416150	0.869118	-0.052747	-0.113459	0.108622	-0.893066	0.125000	0.473633	0.105699	0.017940	0.011504	0.089301	-0.692832	-0.150018	-0.699645	93.349264	-85.047735	106.154543
37267		10.829198	1.847308	1.010388	1.315619	-0.502567	1.129045	-0.082494	-0.142475	0.092806	-0.890869	0.127197	0.471191	0.108276	0.018528	0.010173	0.089251	-0.693503	-0.149450	-0.699108	94.406398	-85.099560	105.046232
37268		11.429546	1.834797	1.122171	1.424907	-0.408114	1.722620	-0.138755	-0.199483	0.061318	-0.888428	0.125000	0.478027	0.114279	0.018391	0.011323	0.088860	-0.694368	-0.148826	-0.698433	95.806379	-85.128461	103.562457
37269		11.790672	1.573870	1.290363	1.514635	-0.081259	2.055812	-0.176187	-0.189704	0.087173	-0.886475	0.129395	0.475586	0.117888	0.015802	0.013002	0.088430	-0.695239	-0.147971	-0.697802	97.166241	-85.169638	102.096580
37270		11.416687	1.065220	1.350053	1.432511	0.376299	1.637394	-0.157388	-0.124013	0.139772	-0.884033	0.127441	0.478027	0.114151	0.010743	0.013563	0.088304	-0.695904	-0.146975	-0.697365	98.158594	-85.243193	101.011449
37271		11.006912	0.854063	1.100198	1.154239	0.448340	1.212677	-0.113957	-0.143385	0.120672	-0.877441	0.131836	0.470947	0.110056	0.008613	0.011076	0.088242	-0.696609	-0.146199	-0.696832	99.329051	-85.302461	99.771666
37272		10.989234	1.040898	0.725128	0.883001	0.143290	1.213295	-0.146044	-0.194589	0.057237	-0.884033	0.127441	0.480225	0.109882	0.010446	0.007351	0.087819	-0.697451	-0.145564	-0.696176	100.772191	-85.318604	98.241388
37273		10.914396	1.081499	0.285507	0.505682	-0.043218	1.147129	-0.216133	-0.230247	0.039139	-0.879883	0.134033	0.486572	0.109138	0.010840	0.002969	0.087053	-0.698441	-0.144754	-0.695448	102.411124	-85.316956	96.472902
37274		10.870948	0.835456	0.006590	0.187226	0.098758	1.088262	-0.253191	-0.227948	0.020777	-0.881836	0.125244	0.487061	0.108708	0.008366	0.000179	0.086105	-0.699417	-0.143887	-0.694765	103.970410	-85.301518	94.764474
37275		10.934645	0.540792	-0.327695	-0.203438	0.280505	1.134742	-0.266013	-0.166841	-0.003278	-0.877197	0.125244	0.493652	0.109349	0.005402	-0.003193	0.085062	-0.700174	-0.143024	-0.694309	105.066117	-85.278081	93.512308
37276		10.984912	0.263931	-0.476745	-0.420388	0.503883	1.166139	-0.225854	-0.070257	-0.009236	-0.872803	0.123047	0.484863	0.109851	0.002629	-0.004732	0.084213	-0.700567	-0.142284	-0.694169	105.511153	-85.264700	92.936815
37277		10.801494	0.040889	-0.483764	-0.496214	0.697946	0.965745	-0.158000	0.086462	0.002741	-0.875244	0.127441	0.480225	0.108013	0.000407	-0.004885	0.083749	-0.700400	-0.141668	-0.694518	104.978147	-85.281451	93.380988
37278		10.085391	-0.025264	-0.335941	-0.383462	0.742385	0.243674	-0.167075	0.168340	0.035847	-0.875000	0.123047	0.489502	0.100851	-0.000237	-0.003444	0.083437	-0.699969	-0.140878	-0.695151	103.928374	-85.328002	94.339899
37279		9.579501	-0.250263	-0.616070	-0.729853	0.817769	-0.272900	-0.148077	0.178985	0.049610	-0.879639	0.125244	0.478027	0.095790	-0.002483	-0.006245	0.083236	-0.699509	-0.140093	-0.695797	102.828442	-85.381945	95.358518
37280		9.178520	-0.329776	-0.884162	-1.019244	0.767822	-0.674455	-0.089365	0.184876	0.058116	-0.875000	0.123047	0.478271	0.091778	-0.003275	-0.008925	0.083283	-0.699002	-0.139486	-0.696422	101.698717	-85.439952	96.441949
37281		9.062015	-0.420315	-1.093725	-1.258534	0.769976	-0.795136	-0.035698	0.188614	0.039893	-0.875244	0.127441	0.477783	0.090611	-0.004187	-0.011022	0.083448	-0.698453	-0.139122	-0.697025	100.531084	-85.486197	97.592919
37282		8.958368	-0.418999	-1.158928	-1.329168	0.732254	-0.898197	0.008807	0.113153	0.044887	-0.879395	0.120605	0.471680	0.089578	-0.004169	-0.011640	0.083744	-0.698145	-0.138935	-0.697336	99.906627	-85.526378	98.226040
37283		9.250948	-0.388614	-1.282415	-1.443784	0.682979	-0.602657	0.052386	0.023058	0.004437	-0.879395	0.125244	0.466797	0.092508	-0.003881	-0.012836	0.083978	-0.698112	-0.139070	-0.697314	99.910611	-85.534359	98.252335
37284		9.634320	-0.323813	-1.349360	-1.491147	0.630371	-0.214517	0.075541	-0.005518	-0.037961	-0.877197	0.125244	0.466797	0.096343	-0.003251	-0.013492	0.084134	-0.698131	-0.139453	-0.697200	100.067460	-85.515767	98.139845
37285		9.937520	-0.201461	-1.308755	-1.415863	0.553889	0.096716	0.080480	-0.021990	-0.050845	-0.877197	0.123047	0.469238	0.099376	-0.002035	-0.013077	0.084241	-0.698204	-0.139899	-0.697025	100.339808	-85.488013	97.913095
37286		10.213834	-0.022151	-1.130512	-1.192584	0.465730	0.383478	0.060422	0.006002	-0.059997	-0.875000	0.125244	0.466797	0.102138	-0.000249	-0.011308	0.084277	-0.698173	-0.140302	-0.696970	100.375093	-85.458171	97.914031
37287		10.291040	0.029719	-0.889546	-0.949476	0.503890	0.460689	0.047782	0.013823	-0.080912	-0.872803	0.127441	0.462158	0.102910	0.000258	-0.008903	0.084191	-0.698114	-0.140723	-0.696955	100.332833	-85.417112	97.984075
37288		10.424108	0.303218	-0.543244	-0.538950	0.370558	0.609467	0.037634	0.027313	-0.074637	-0.874756	0.118408	0.465088	0.104241	0.002994	-0.005446	0.084115	-0.698008	-0.141092	-0.696996	100.188008	-85.381261	98.153141
37289		10.324373	0.390039	-0.495524	-0.473496	0.299215	0.515750	-0.129768	0.132290	-0.057778	-0.865723	0.116455	0.451660	0.103242	0.003867	-0.005026	0.083573	-0.697626	-0.140763	-0.697509	99.251625	-85.364667	99.018178
37290		10.249224	0.095309	-0.328367	-0.422594	0.627905	0.414267	-0.043835	0.177609	-0.117581	-0.872314	0.114014	0.460693	0.102490	0.000892	-0.003375	0.083159	-0.697000	-0.140928	-0.698151	97.983945	-85.316880	100.265714
37291		10.272547	0.154446	-0.100979	-0.205207	0.653680	0.438645	0.038686	0.112846	-0.164035	-0.867676	0.114258	0.465088	0.102726	0.001460	-0.001067	0.082820	-0.696540	-0.141566	-0.698521	97.206071	-85.235888	101.068666
37292		10.329307	0.316427	0.095362	0.019368	0.579183	0.505643	0.019839	0.057698	-0.158230	-0.867676	0.114258	0.462891	0.103296	0.003082	0.000924	0.082399	-0.696279	-0.142140	-0.698715	96.809214	-85.153765	101.478639
37293		10.055836	0.142133	0.069900	-0.063487	0.723773	0.218117	0.100981	0.077880	-0.104018	-0.869873	0.109619	0.463135	0.100559	0.001369	0.000661	0.082461	-0.695957	-0.142801	-0.698893	96.387932	-85.103495	101.959702
37294		9.641933	0.214316	0.194415	0.079404	0.667042	-0.189832	0.187010	0.016355	-0.076677	-0.865479	0.112061	0.463135	0.096420	0.002104	0.001938	0.082876	-0.695829	-0.143692	-0.698789	96.441074	-85.064822	102.014108
37295		9.583571	0.517891	0.059667	0.046595	0.341648	-0.221144	0.156313	0.008712	-0.125997	-0.869873	0.109619	0.467773	0.095839	0.005118	0.000597	0.083005	-0.695709	-0.144651	-0.698696	96.498850	-84.997482	102.046199
37296		9.518084	0.721551	0.026522	0.077376	0.144820	-0.268670	0.167641	0.038546	-0.144199	-0.869873	0.109619	0.472168	0.095186	0.007147	0.000253	0.083131	-0.695462	-0.145698	-0.698709	96.350226	-84.921788	102.291829
37297		9.347907	0.843558	0.043842	0.132525	0.033189	-0.427689	0.214144	0.009475	-0.148877	-0.865479	0.109863	0.467773	0.093485	0.008366	0.000443	0.083381	-0.695297	-0.146938	-0.698584	96.422047	-84.841465	102.343094
37298		9.271958	0.929002	0.178909	0.289402	0.002857	-0.497084	0.230699	-0.030571	-0.136248	-0.869873	0.107422	0.472412	0.092726	0.009225	0.001814	0.083703	-0.695269	-0.148206	-0.698305	96.753180	-84.765812	102.143203
37299		9.201086	0.813786	0.142479	0.221286	0.105836	-0.577843	0.196820	-0.027456	-0.114215	-0.867676	0.109863	0.467773	0.092015	0.008084	0.001445	0.083987	-0.695263	-0.149280	-0.698048	97.062415	-84.702704	101.946092
37300		9.030490	0.780584	0.121993	0.195499	0.125129	-0.750675	0.171181	-0.003130	-0.099089	-0.872070	0.107422	0.467773	0.090309	0.007760	0.001228	0.084251	-0.695190	-0.150199	-0.697892	97.207530	-84.649955	101.898714
37301		8.885482	0.823673	0.071776	0.164884	0.062987	-0.890567	0.173306	0.010325	-0.083523	-0.865234	0.107666	0.474609	0.088858	0.008199	0.000720	0.084588	-0.695084	-0.151068	-0.697769	97.290620	-84.606917	101.915178
37302		8.743763	0.867122	0.122151	0.229604	0.032576	-1.028245	0.173147	0.000269	-0.076840	-0.869873	0.112061	0.476563	0.087441	0.008637	0.001229	0.084939	-0.695014	-0.151914	-0.697612	97.430673	-84.567038	101.873927
37303		8.699054	0.899652	0.073081	0.196812	-0.011365	-1.069153	0.156169	-0.027015	-0.072156	-0.869629	0.105225	0.470215	0.086994	0.008965	0.000750	0.085228	-0.695053	-0.152699	-0.697367	97.732745	-84.527643	101.660553
37304		8.626943	0.843136	0.101752	0.210380	0.051402	-1.146750	0.155998	-0.046617	-0.063405	-0.865234	0.107666	0.483643	0.086272	0.008403	0.001044	0.085530	-0.695163	-0.153458	-0.697054	98.146084	-84.491642	101.334913
37305		8.560538	0.798478	0.181384	0.277902	0.120718	-1.218418	0.152434	-0.077617	-0.059014	-0.865479	0.109863	0.474365	0.085607	0.007958	0.001853	0.085813	-0.695389	-0.154206	-0.696628	98.744818	-84.455136	100.821315
37306		8.433668	0.804282	0.241509	0.347452	0.130937	-1.345452	0.138501	-0.114950	-0.052223	-0.867432	0.105225	0.474609	0.084337	0.008019	0.002469	0.086040	-0.695752	-0.154894	-0.696085	99.543557	-84.418587	100.098193
37307		8.456904	0.725685	0.213060	0.305159	0.205429	-1.330005	0.138779	-0.141624	-0.050401	-0.863037	0.107666	0.474609	0.084569	0.007234	0.002196	0.086256	-0.696212	-0.155592	-0.695443	100.494219	-84.379214	99.223053
37308		8.421130	0.690120	0.315152	0.402020	0.277821	-1.371586	0.167356	-0.137683	-0.043616	-0.858643	0.110107	0.483398	0.084211	0.006880	0.003215	0.086595	-0.696646	-0.156359	-0.694793	101.426080	-84.342822	98.382658
37309		8.368372	0.674740	0.470220	0.556409	0.347524	-1.429630	0.161193	-0.156115	-0.036222	-0.865479	0.114258	0.478760	0.083681	0.006728	0.004773	0.086926	-0.697156	-0.157091	-0.694075	102.463008	-84.306832	97.433621
37310		8.343964	0.675914	0.503707	0.603078	0.363296	-1.455858	0.145160	-0.177884	-0.026073	-0.860840	0.110107	0.485596	0.083436	0.006745	0.005116	0.087219	-0.697751	-0.157739	-0.693292	103.605200	-84.272098	96.369184
37311		8.368924	0.600108	0.447581	0.539975	0.425175	-1.438503	0.134716	-0.184532	-0.020524	-0.860840	0.110107	0.485596	0.083686	0.005989	0.004557	0.087490	-0.698382	-0.158336	-0.692487	104.779404	-84.237182	95.266814
37312		8.415991	0.586772	0.429303	0.534387	0.443385	-1.393939	0.115461	-0.197603	-0.014080	-0.865479	0.109863	0.483398	0.084156	0.005859	0.004380	0.087703	-0.699066	-0.158846	-0.691652	106.002079	-84.201741	94.103997
37313		8.521009	0.603635	0.292357	0.430060	0.398229	-1.285444	0.102874	-0.236547	0.006834	-0.863037	0.107666	0.490234	0.085206	0.006038	0.003027	0.087916	-0.699910	-0.159259	-0.690676	107.453179	-84.168410	92.704826
37314		8.780663	0.622895	0.133057	0.308187	0.358259	-1.021648	0.092371	-0.253187	0.019191	-0.856201	0.105713	0.497070	0.087804	0.006237	0.001445	0.088118	-0.700820	-0.159596	-0.689649	108.983842	-84.135392	91.218903
37315		9.137426	0.688826	0.083742	0.308252	0.321481	-0.659784	0.081683	-0.252111	0.041136	-0.854248	0.114746	0.498779	0.091372	0.006907	0.000955	0.088362	-0.701751	-0.159823	-0.688618	110.534969	-84.110093	89.706815
37316		9.289276	0.774983	-0.116436	0.174868	0.191373	-0.494020	0.067848	-0.232199	0.051010	-0.849854	0.114746	0.496582	0.092892	0.007774	-0.001054	0.088604	-0.702623	-0.159953	-0.687667	111.975481	-84.090451	88.297074
37317		9.073309	0.740023	-0.148409	0.155718	0.192381	-0.711407	0.053138	-0.218134	0.074285	-0.852051	0.114746	0.496582	0.090732	0.007434	-0.001383	0.088889	-0.703474	-0.159949	-0.686760	113.383836	-84.082329	86.911978
37318		9.476105	0.716398	-0.239684	0.087736	0.226839	-0.309633	0.085849	-0.235000	0.033627	-0.852051	0.114746	0.500977	0.094763	0.007181	-0.002282	0.089134	-0.704331	-0.160204	-0.685790	114.789781	-84.045837	85.547585
37319		10.010410	0.650024	0.057582	0.372237	0.453105	0.201814	0.018871	-0.243858	-0.000941	-0.852295	0.116943	0.503174	0.100103	0.006500	0.000698	0.089019	-0.705223	-0.160359	-0.684852	116.107054	-83.985576	84.234152
37320		10.255753	0.453127	0.073500	0.345244	0.676378	0.425206	-0.069310	-0.231405	-0.011404	-0.852295	0.116943	0.505371	0.102557	0.004526	0.000852	0.088565	-0.706098	-0.160239	-0.684037	117.255241	-83.920614	83.039246
37321		10.454284	0.263417	0.142349	0.367097	0.906490	0.600054	-0.111177	-0.173393	-0.025448	-0.845215	0.110352	0.508057	0.104542	0.002622	0.001513	0.087963	-0.706784	-0.160003	-0.683460	118.053482	-83.861430	82.172569
37322		10.560228	0.101939	0.246235	0.423702	1.112261	0.683635	-0.126775	-0.096417	-0.054912	-0.847412	0.108154	0.512695	0.105601	0.000992	0.002513	0.087265	-0.707187	-0.159779	-0.683185	118.389099	-83.807737	81.761441
37323		10.450100	-0.014953	0.387349	0.520458	1.266464	0.554571	-0.133541	-0.041170	-0.083489	-0.847412	0.110352	0.508057	0.104500	-0.000191	0.003895	0.086491	-0.707384	-0.159614	-0.683118	118.395385	-83.754140	81.678338
37324		10.463589	-0.149216	0.551060	0.632689	1.460565	0.544874	-0.150109	-0.082327	-0.126263	-0.844971	0.103760	0.515137	0.104633	-0.001554	0.005555	0.085477	-0.707691	-0.159555	-0.682942	118.466686	-83.668203	81.519372
37325		10.634151	-0.240616	0.519347	0.582223	1.571599	0.704148	-0.149980	-0.134913	-0.175046	-0.849609	0.108154	0.505859	0.106336	-0.002495	0.005267	0.084258	-0.708140	-0.159698	-0.682594	118.656987	-83.542826	81.241595
37326		11.106108	-0.125774	0.549705	0.668581	1.553049	1.178426	-0.170226	-0.177093	-0.247378	-0.846924	0.097168	0.517822	0.111054	-0.001390	0.005597	0.082683	-0.708679	-0.160038	-0.682148	118.830456	-83.369893	80.968148
37327		11.392665	0.152742	0.506192	0.740166	1.344832	1.488455	-0.213620	-0.211044	-0.287436	-0.837891	0.097168	0.517822	0.113923	0.001369	0.005181	0.080793	-0.709321	-0.160392	-0.681623	119.023145	-83.166862	80.651062
37328		11.932686	0.459565	0.317193	0.688995	1.096717	2.062630	-0.261924	-0.200524	-0.299459	-0.842041	0.088379	0.524902	0.119330	0.004421	0.003286	0.078695	-0.709930	-0.160611	-0.681183	119.098131	-82.961175	80.423339
37329		12.571200	0.694202	0.090943	0.575431	0.919661	2.731164	-0.317248	-0.136896	-0.304172	-0.842041	0.090576	0.522705	0.125722	0.006752	0.000985	0.076439	-0.710340	-0.160641	-0.681006	118.877740	-82.770306	80.462446
37330		12.791493	0.881352	0.012932	0.568494	0.783221	2.972559	-0.363165	-0.066588	-0.269355	-0.841553	0.074951	0.519043	0.127927	0.008642	0.000156	0.074190	-0.710549	-0.160353	-0.681104	118.433797	-82.616789	80.699192
37331		12.934711	1.000003	-0.122697	0.477938	0.678247	3.134640	-0.372525	-0.049912	-0.237719	-0.839355	0.081543	0.520996	0.129359	0.009844	-0.001213	0.072034	-0.710730	-0.159924	-0.681247	118.004836	-82.482988	80.916733
37332		13.131343	1.135569	-0.301494	0.351016	0.547594	3.355055	-0.319096	-0.028458	-0.211392	-0.841309	0.070313	0.521484	0.131326	0.011212	-0.003014	0.070168	-0.710833	-0.159565	-0.681419	117.582779	-82.368630	81.156958
37333		13.211541	1.289761	-0.397162	0.304033	0.408794	3.457822	-0.265449	-0.003946	-0.198739	-0.843262	0.063721	0.526611	0.132128	0.012761	-0.003986	0.068562	-0.710845	-0.159345	-0.681621	117.139343	-82.266361	81.451127
37334		12.960911	1.367549	-0.506251	0.212201	0.290625	3.225033	-0.202160	0.000235	-0.169935	-0.838867	0.068359	0.526123	0.129621	0.013560	-0.005076	0.067274	-0.710840	-0.159224	-0.681783	116.774441	-82.180178	81.701116
37335		12.398269	1.218905	-0.818130	-0.145543	0.276663	2.668273	-0.084474	-0.036133	-0.143747	-0.843262	0.063721	0.519775	0.123993	0.012096	-0.008164	0.066472	-0.710942	-0.159435	-0.681706	116.671585	-82.097327	81.756273
37336		11.629485	0.966289	-1.108951	-0.511757	0.335963	1.893448	0.092764	-0.099913	-0.118845	-0.845459	0.065918	0.524170	0.116306	0.009599	-0.011027	0.066328	-0.711218	-0.160173	-0.681259	116.944257	-82.011332	81.533486
37337		11.141038	0.900152	-1.490914	-0.890060	0.227648	1.426163	0.240073	-0.173121	-0.120817	-0.843018	0.061523	0.524414	0.111429	0.008952	-0.014802	0.066649	-0.711696	-0.161454	-0.680426	117.559611	-81.904293	81.051123
37338		10.939028	1.029904	-1.886285	-1.205902	-0.029406	1.270001	0.284770	-0.213047	-0.143226	-0.845215	0.054688	0.529297	0.109418	0.010247	-0.018732	0.067014	-0.712271	-0.162969	-0.679427	118.278687	-81.775022	80.488360
37339		10.857684	1.248768	-2.039328	-1.258553	-0.276602	1.230277	0.304093	-0.196970	-0.146435	-0.838623	0.061523	0.524414	0.108606	0.012439	-0.020267	0.067456	-0.712782	-0.164565	-0.678461	118.932928	-81.646990	80.003469
37340		10.584411	1.515253	-1.899327	-1.027100	-0.505598	0.986507	0.274303	-0.119689	-0.117094	-0.841064	0.063721	0.524170	0.105864	0.015117	-0.018909	0.067946	-0.713061	-0.165917	-0.677790	119.344325	-81.555144	79.745010
37341		10.003996	1.785542	-1.815015	-0.866227	-0.807825	0.442041	0.190263	0.048831	-0.067550	-0.843506	0.068115	0.526123	0.100042	0.017839	-0.018158	0.068452	-0.712839	-0.166762	-0.677764	119.235922	-81.534606	79.964999
37342		9.283048	1.935096	-1.811423	-0.840622	-1.053374	-0.253160	0.105131	0.231817	-0.021309	-0.843506	0.068115	0.526123	0.092811	0.019351	-0.018212	0.068960	-0.712062	-0.167082	-0.678452	118.542218	-81.588275	80.726226
37343		8.688321	2.086871	-1.871550	-0.882305	-1.309354	-0.820930	0.057283	0.348244	-0.014090	-0.843506	0.070313	0.512695	0.086852	0.020868	-0.018861	0.069423	-0.710913	-0.167182	-0.679583	117.426448	-81.674557	81.887363
37344		8.441348	2.292423	-1.944569	-0.915571	-1.570848	-1.038464	0.037770	0.386875	-0.029677	-0.852295	0.063477	0.519775	0.084379	0.022915	-0.019605	0.069793	-0.709621	-0.167251	-0.680877	116.107070	-81.759749	83.241762
37345		8.496812	2.465305	-1.926844	-0.869428	-1.727650	-0.967038	0.008279	0.367675	-0.041912	-0.856934	0.070068	0.512695	0.084938	0.024636	-0.019424	0.070003	-0.708396	-0.167275	-0.682125	114.797575	-81.828872	84.569777
37346		8.640422	2.497879	-1.866304	-0.827179	-1.725558	-0.828393	-0.017119	0.320919	-0.033944	-0.847656	0.065674	0.503906	0.086378	0.024963	-0.018804	0.070107	-0.707341	-0.167193	-0.683228	113.632075	-81.887496	85.736392
37347		8.941928	2.332721	-1.599679	-0.652998	-1.448636	-0.569656	-0.052206	0.292093	-0.020899	-0.854980	0.074463	0.505615	0.089398	0.023314	-0.016133	0.070112	-0.706409	-0.166963	-0.684248	112.562824	-81.942857	86.786347
37348		9.132906	1.978941	-1.397816	-0.603657	-1.033853	-0.440027	-0.071607	0.294813	0.009186	-0.856934	0.067871	0.508301	0.091307	0.019789	-0.014120	0.070150	-0.705494	-0.166553	-0.685286	111.497943	-82.012406	87.819824
37349		9.173468	1.715602	-1.176088	-0.505828	-0.721030	-0.447690	-0.058738	0.295477	0.043285	-0.859131	0.067627	0.499512	0.091713	0.017172	-0.011901	0.070354	-0.704603	-0.166072	-0.686298	110.473934	-82.097319	88.819960
37350		9.465673	1.535682	-0.984883	-0.406243	-0.463243	-0.192522	-0.039181	0.259151	0.051629	-0.859131	0.069824	0.497070	0.094640	0.015379	-0.009974	0.070622	-0.703833	-0.165635	-0.687166	109.589139	-82.177600	89.689854
37351		9.610957	1.398661	-0.911884	-0.402558	-0.304902	-0.070860	0.002422	0.257278	0.055737	-0.861328	0.065430	0.497314	0.096094	0.014013	-0.009242	0.071051	-0.703060	-0.165333	-0.687985	108.728303	-82.257618	90.560276
37352		9.498226	1.331387	-0.800234	-0.341069	-0.235280	-0.197205	0.047706	0.312747	0.055236	-0.863770	0.074219	0.489990	0.094966	0.013342	-0.008148	0.071681	-0.702075	-0.165162	-0.688966	107.644963	-82.345561	91.680431
37353		9.173239	1.417349	-0.733778	-0.271349	-0.351791	-0.512248	0.099152	0.304793	0.044810	-0.868652	0.078613	0.498779	0.091718	0.014198	-0.007471	0.072452	-0.701091	-0.165214	-0.689874	106.591289	-82.423363	92.800980
37354		9.020329	1.651690	-0.637599	-0.120115	-0.572526	-0.638882	0.112188	0.234830	0.057416	-0.868408	0.074219	0.492432	0.090191	0.016546	-0.006473	0.073253	-0.700350	-0.165288	-0.690524	105.825899	-82.494827	93.637695
37355		9.106102	1.816339	-0.455825	0.093168	-0.669543	-0.540635	0.110467	0.200709	0.117387	-0.866455	0.081055	0.496338	0.091046	0.018219	-0.004640	0.074228	-0.699779	-0.165162	-0.691029	105.262967	-82.592600	94.269444
37356		9.160067	1.883064	-0.395689	0.161542	-0.723128	-0.482077	0.074230	0.207109	0.150782	-0.871094	0.085205	0.493896	0.091582	0.018901	-0.004045	0.075195	-0.699223	-0.164786	-0.691576	104.668370	-82.709211	94.911497
37357		9.081295	1.763606	-0.376874	0.129191	-0.635277	-0.576782	0.015378	0.218427	0.155223	-0.864502	0.089844	0.495850	0.090795	0.017707	-0.003867	0.075982	-0.698656	-0.164192	-0.692205	103.979704	-82.828732	95.614748
37358		9.040281	1.597785	-0.315868	0.119328	-0.485085	-0.640459	-0.044459	0.212684	0.146909	-0.868896	0.085449	0.493896	0.090388	0.016044	-0.003258	0.076527	-0.698119	-0.163419	-0.692869	103.245249	-82.941972	96.329220
37359		8.917368	1.337739	-0.303187	0.033788	-0.271949	-0.794607	-0.064500	0.203364	0.145937	-0.868896	0.085205	0.484863	0.089161	0.013441	-0.003127	0.076991	-0.697625	-0.162586	-0.693512	102.522463	-83.052120	97.020387
37360		8.889687	1.224507	-0.258273	0.027713	-0.171897	-0.837036	-0.068912	0.173792	0.124158	-0.866699	0.085449	0.487061	0.088887	0.012299	-0.002664	0.077338	-0.697212	-0.161821	-0.694067	101.886011	-83.145662	97.621442
37361		8.938147	1.200631	-0.243654	0.022752	-0.153716	-0.792311	-0.105245	0.158850	0.097636	-0.866943	0.092041	0.482178	0.089374	0.012049	-0.002514	0.077456	-0.696846	-0.161031	-0.694604	101.262620	-83.221626	98.188724
37362		8.911055	1.188259	-0.278890	-0.026257	-0.169594	-0.820070	-0.099588	0.195764	0.064474	-0.864502	0.092041	0.477783	0.089104	0.011910	-0.002882	0.077507	-0.696319	-0.160360	-0.695282	100.417418	-83.282208	98.982252
37363		8.779270	1.163950	-0.219394	0.009007	-0.153064	-0.955208	-0.037562	0.225464	0.033915	-0.871338	0.093994	0.475342	0.087788	0.011654	-0.002295	0.077692	-0.695643	-0.160001	-0.696020	99.430277	-83.326816	99.954685
37364		8.574600	1.396653	-0.034610	0.249761	-0.341800	-1.135339	-0.017662	0.182086	0.019971	-0.871582	0.096436	0.479736	0.085744	0.013975	-0.000425	0.077866	-0.695095	-0.159777	-0.696600	98.637048	-83.358036	100.743386
37365		8.478464	1.493344	0.019672	0.325766	-0.431769	-1.220700	-0.043149	0.096115	0.032060	-0.877930	0.089600	0.480225	0.084782	0.014947	0.000153	0.077922	-0.694869	-0.159455	-0.696893	98.256710	-83.387767	101.101575
37366		8.484916	1.508030	0.054842	0.360439	-0.438217	-1.213326	-0.032456	0.033510	0.036079	-0.873535	0.089600	0.484619	0.084847	0.015096	0.000532	0.077980	-0.694856	-0.159180	-0.696962	98.184144	-83.414628	101.156050
37367		8.504614	1.562030	0.120731	0.440682	-0.469600	-1.188985	-0.031342	0.011024	0.055332	-0.878174	0.091797	0.475586	0.085042	0.015644	0.001200	0.078090	-0.694940	-0.158852	-0.696941	98.241931	-83.450423	101.079987
37368		8.513528	1.586191	0.104485	0.433742	-0.501240	-1.177428	-0.042393	0.029215	0.032432	-0.875977	0.093994	0.470947	0.085133	0.015876	0.001029	0.078096	-0.694943	-0.158556	-0.697004	98.181655	-83.474829	101.116140
37369		8.570210	1.593942	0.213358	0.536686	-0.470264	-1.122147	-0.031908	0.046893	0.026718	-0.878174	0.096191	0.473145	0.085700	0.015951	0.002111	0.078134	-0.694880	-0.158311	-0.697119	98.040740	-83.497308	101.239753
37370		8.512019	1.562959	0.308026	0.615699	-0.419761	-1.185005	-0.039147	0.029243	0.013827	-0.878418	0.096191	0.477539	0.085120	0.015636	0.003065	0.078089	-0.694866	-0.158094	-0.697187	97.967621	-83.511158	101.291213
37371		8.570680	1.582555	0.367448	0.677050	-0.413982	-1.125554	-0.051191	0.000729	0.007444	-0.875977	0.091797	0.477783	0.085706	0.015830	0.003670	0.077956	-0.694956	-0.157867	-0.697164	98.031626	-83.518993	101.197460
37372		8.673472	1.586617	0.323942	0.636188	-0.421441	-1.022405	-0.065115	-0.009771	-0.004708	-0.875732	0.091797	0.468750	0.086735	0.015865	0.003238	0.077724	-0.695074	-0.157638	-0.697124	98.125608	-83.519168	101.065539
37373		8.775732	1.505816	0.311358	0.596768	-0.338133	-0.929702	-0.067668	-0.006648	-0.015244	-0.875977	0.093994	0.475342	0.087758	0.015053	0.003111	0.077449	-0.695177	-0.157435	-0.697097	98.200957	-83.513505	100.950867
37374		8.811366	1.463171	0.229831	0.504678	-0.320223	-0.897721	-0.081208	0.016365	-0.022069	-0.875977	0.091797	0.482422	0.088115	0.014623	0.002285	0.077122	-0.695196	-0.157200	-0.697168	98.142319	-83.505925	100.963370
37375		8.874188	1.506642	0.195336	0.482902	-0.364835	-0.829757	-0.079103	0.030195	-0.023589	-0.878174	0.091797	0.477783	0.088744	0.015057	0.001934	0.076806	-0.695169	-0.156972	-0.697281	98.021540	-83.498514	101.039497
37376		8.930208	1.613520	0.124916	0.447393	-0.481435	-0.760852	-0.054585	0.028038	-0.023640	-0.877930	0.089600	0.473389	0.089304	0.016125	0.001232	0.076574	-0.695136	-0.156830	-0.697371	97.919665	-83.490948	101.110667
37377		9.080732	1.697138	0.027807	0.378159	-0.573831	-0.600280	-0.018013	0.013165	-0.023491	-0.875977	0.096191	0.477539	0.090809	0.016961	0.000271	0.076458	-0.695145	-0.156822	-0.697377	97.918965	-83.482224	101.101166
37378		9.161284	1.802222	-0.069292	0.318644	-0.693839	-0.506830	0.025335	0.012436	-0.020127	-0.871338	0.089600	0.478027	0.091615	0.018013	-0.000696	0.076506	-0.695138	-0.156954	-0.697349	97.942667	-83.475411	101.092323
37379		9.299117	1.922312	-0.087189	0.339885	-0.795241	-0.356021	0.077225	-0.014101	-0.019626	-0.875977	0.091797	0.479980	0.092993	0.019214	-0.000858	0.076712	-0.695208	-0.157274	-0.697184	98.134220	-83.466693	100.944237
37380		9.525243	1.915638	-0.131933	0.295410	-0.775566	-0.131336	0.105302	-0.033820	-0.020079	-0.875732	0.089600	0.480225	0.095255	0.019148	-0.001293	0.077000	-0.695332	-0.157701	-0.696932	98.432459	-83.456042	100.704875
37381		9.612194	1.871594	-0.167932	0.251093	-0.732864	-0.049225	0.125052	-0.026718	-0.026877	-0.875977	0.091797	0.477783	0.096125	0.018704	-0.001655	0.077338	-0.695422	-0.158218	-0.696688	98.707060	-83.441984	100.500772
37382		9.730640	1.840872	-0.072624	0.332188	-0.655623	0.063509	0.124397	0.009349	-0.043009	-0.871338	0.094238	0.477539	0.097310	0.018388	-0.000719	0.077645	-0.695369	-0.158775	-0.696580	98.784587	-83.421861	100.494559
37383		9.834731	1.774459	-0.133455	0.251543	-0.597536	0.160683	0.095329	0.022219	-0.049553	-0.880371	0.089600	0.478027	0.098352	0.017721	-0.001337	0.077839	-0.695282	-0.159248	-0.696537	98.783454	-83.399157	100.550866
37384		10.018110	1.713222	-0.085582	0.269058	-0.499126	0.335389	0.052045	0.073662	-0.076777	-0.878174	0.091797	0.475586	0.100187	0.017094	-0.000888	0.077829	-0.695006	-0.159645	-0.696723	98.480683	-83.365423	100.885879
37385		10.148818	1.727293	0.058039	0.395943	-0.446873	0.464907	0.009941	0.145530	-0.066046	-0.873535	0.091797	0.477783	0.101494	0.017239	0.000507	0.077768	-0.694508	-0.159830	-0.697183	97.821485	-83.343312	101.555453
37386		10.119713	1.804237	0.139168	0.482898	-0.496729	0.444178	-0.018540	0.185887	-0.027659	-0.880127	0.087158	0.480469	0.101201	0.018029	0.001296	0.077773	-0.693907	-0.159768	-0.697795	96.971124	-83.344928	102.401123
37387		10.066261	1.879238	0.249293	0.593993	-0.543166	0.398845	-0.021994	0.238187	0.009195	-0.878174	0.091797	0.473389	0.100665	0.018797	0.002371	0.077937	-0.693158	-0.159544	-0.698572	95.887820	-83.369284	103.479245
37388		10.071041	2.058068	0.389485	0.763552	-0.674398	0.423294	-0.007684	0.263140	0.030809	-0.875732	0.091797	0.471191	0.100712	0.020596	0.003762	0.078244	-0.692328	-0.159285	-0.699419	94.684770	-83.404696	104.685890
37389		10.073606	2.144744	0.587294	0.955348	-0.702291	0.435064	-0.029543	0.283424	0.031305	-0.882813	0.095947	0.461914	0.100741	0.021464	0.005727	0.078495	-0.691440	-0.158940	-0.700348	93.362153	-83.438251	106.000416
37390		10.183717	2.171456	0.680972	1.023036	-0.697039	0.548514	-0.042152	0.302176	0.019325	-0.877930	0.089355	0.466797	0.101845	0.021726	0.006651	0.078677	-0.690474	-0.158587	-0.701360	91.917074	-83.461676	107.431241
37391		10.633145	2.143337	0.685920	0.975230	-0.632347	0.993659	-0.031580	0.299087	0.005237	-0.886963	0.091553	0.464355	0.106341	0.021437	0.006697	0.078842	-0.689508	-0.158318	-0.702352	90.490117	-83.473036	108.849493
37392		11.268242	2.140362	0.685971	0.921372	-0.572368	1.626209	-0.003007	0.302346	-0.006266	-0.887207	0.095947	0.455078	0.112693	0.021400	0.006689	0.079066	-0.688504	-0.158188	-0.703340	89.053655	-83.473549	110.293666
37393		11.479157	1.667518	0.784286	0.818064	-0.086648	1.784291	0.006630	0.338861	0.015195	-0.885010	0.093750	0.459717	0.114803	0.016684	0.007649	0.079428	-0.687388	-0.158003	-0.704432	87.442348	-83.481581	111.919476
37394		10.989580	1.235958	0.816459	0.696539	0.260912	1.251296	0.003335	0.302790	0.063909	-0.885010	0.093750	0.457520	0.109904	0.012395	0.007998	0.079924	-0.686431	-0.157656	-0.705386	85.983084	-83.513485	113.390760
37395		10.938660	1.062266	0.727659	0.537231	0.373227	1.182049	-0.057383	0.176751	0.063866	-0.894043	0.095703	0.450684	0.109390	0.010660	0.007177	0.080110	-0.685948	-0.157142	-0.705949	85.117813	-83.547824	114.228670
37396		11.104928	0.837719	0.458681	0.191122	0.498863	1.320425	-0.058365	0.108225	0.066928	-0.886963	0.091553	0.455322	0.111049	0.008416	0.004524	0.080251	-0.685703	-0.156644	-0.706281	84.582174	-83.586017	114.734529
37397		10.656817	0.778629	0.375715	0.106607	0.467692	0.868373	-0.078406	0.135321	0.100644	-0.891602	0.093506	0.455322	0.106567	0.007841	0.003682	0.080462	-0.685402	-0.155946	-0.706704	83.879171	-83.641525	115.396900
37398		9.849083	0.622575	0.169743	-0.110804	0.448600	0.046689	-0.119833	0.183077	0.117606	-0.889648	0.100342	0.448242	0.098489	0.006285	0.001604	0.080627	-0.684957	-0.155024	-0.707319	82.877189	-83.702135	116.335946
37399		9.397941	0.464362	-0.032266	-0.344008	0.470313	-0.421287	-0.104122	0.199932	0.085808	-0.887207	0.093750	0.444092	0.093977	0.004684	-0.000419	0.080747	-0.684426	-0.154259	-0.707987	81.808542	-83.741830	117.351205
37400		9.336548	0.501766	-0.108606	-0.416074	0.392167	-0.479535	-0.079017	0.213274	0.032108	-0.889404	0.093506	0.441895	0.093363	0.005032	-0.001188	0.080776	-0.683788	-0.153764	-0.708707	80.710484	-83.747566	118.410897
37401		9.176584	0.393477	-0.100297	-0.452005	0.471410	-0.650373	-0.073579	0.229314	0.034169	-0.894287	0.104736	0.441162	0.091764	0.003950	-0.001110	0.080840	-0.683098	-0.153273	-0.709471	79.536537	-83.750893	119.549637
37402		9.002229	0.233174	-0.181191	-0.587696	0.569268	-0.842858	-0.060191	0.215018	0.032904	-0.891602	0.095703	0.437256	0.090020	0.002346	-0.001909	0.080939	-0.682446	-0.152842	-0.710180	78.436899	-83.752337	120.622027
37403		9.021205	0.206018	-0.192617	-0.622326	0.584432	-0.827543	-0.061997	0.171021	0.026146	-0.889404	0.093506	0.435059	0.090210	0.002071	-0.002004	0.080970	-0.681951	-0.152442	-0.710738	77.575749	-83.753526	121.452771
37404		9.235416	0.230164	-0.230794	-0.671161	0.563444	-0.613164	-0.071949	0.072537	0.017331	-0.894043	0.095703	0.437256	0.092353	0.002309	-0.002342	0.080862	-0.681797	-0.152078	-0.710976	77.214521	-83.760801	121.775029
37405		9.635635	0.277316	-0.279582	-0.725408	0.537722	-0.211376	-0.091489	-0.016014	0.015572	-0.894043	0.095703	0.426025	0.096356	0.002779	-0.002789	0.080612	-0.681970	-0.151685	-0.710922	77.303853	-83.778535	121.632618
37406		10.049787	0.376221	-0.246151	-0.680087	0.493296	0.212006	-0.118745	-0.062002	0.018618	-0.889404	0.093506	0.432861	0.100498	0.003770	-0.002433	0.080248	-0.682313	-0.151205	-0.710736	77.603742	-83.803330	121.263162
37407		10.350438	0.448906	-0.080868	-0.509512	0.506491	0.522857	-0.129399	-0.061357	0.013733	-0.896484	0.100098	0.430176	0.103504	0.004496	-0.000780	0.079828	-0.682660	-0.150701	-0.710557	77.910118	-83.825409	120.880600
37408		10.357774	0.564424	0.067791	-0.326212	0.447120	0.545899	-0.119020	-0.037371	-0.004834	-0.894043	0.095703	0.435059	0.103578	0.005642	0.000694	0.079401	-0.682898	-0.150292	-0.710464	78.112435	-83.833778	120.609402
37409		10.311780	0.592028	0.219896	-0.168404	0.466402	0.506507	-0.126008	0.007903	-0.010435	-0.891602	0.095703	0.439453	0.103118	0.005916	0.002191	0.078958	-0.682979	-0.149856	-0.710527	78.090194	-83.833877	120.559339
37410		10.116844	0.468079	0.326366	-0.097457	0.599361	0.302026	-0.117060	0.034264	-0.020958	-0.891602	0.091309	0.437500	0.101169	0.004672	0.003244	0.078533	-0.682949	-0.149479	-0.710683	77.940664	-83.824716	120.642969
37411		10.073094	0.422455	0.463767	0.019975	0.684221	0.256682	-0.085431	-0.007965	-0.045413	-0.893799	0.091309	0.437500	0.100732	0.004204	0.004640	0.078093	-0.683044	-0.149312	-0.710675	78.062046	-83.807112	120.471825
37412		10.270830	0.490171	0.493235	0.061957	0.654104	0.460666	-0.080335	-0.071210	-0.068559	-0.886963	0.091309	0.441895	0.102708	0.004868	0.004967	0.077542	-0.683339	-0.149267	-0.710461	78.528776	-83.783522	119.956297
37413		10.384868	0.622509	0.576284	0.182999	0.574879	0.589289	-0.077261	-0.082212	-0.071367	-0.889160	0.089111	0.439941	0.103849	0.006190	0.005803	0.076982	-0.683674	-0.149246	-0.710203	79.060195	-83.759343	119.377376
37414		10.242460	0.833522	0.654647	0.338110	0.394725	0.471338	-0.071778	-0.073053	-0.051414	-0.889160	0.086914	0.448975	0.102424	0.008311	0.006581	0.076519	-0.683985	-0.149173	-0.709969	79.517694	-83.744681	118.875984
37415		10.025746	0.966274	0.710271	0.449886	0.271479	0.270846	-0.045268	-0.048324	-0.032081	-0.886963	0.089111	0.442139	0.100257	0.009648	0.007125	0.076234	-0.684217	-0.149119	-0.709788	79.850232	-83.738199	118.515544
37416		9.708240	1.098587	0.683609	0.486641	0.111386	-0.031332	-0.015925	-0.029218	-0.033589	-0.891357	0.084717	0.449219	0.097083	0.010970	0.006849	0.076057	-0.684365	-0.149165	-0.709655	80.095465	-83.728571	118.259643
37417		9.398528	1.178613	0.746276	0.591088	0.029649	-0.329643	0.000779	-0.042461	-0.034780	-0.889160	0.086914	0.444580	0.093986	0.011770	0.007483	0.075923	-0.684556	-0.149281	-0.709460	80.425046	-83.719601	117.928707
37418		9.104835	1.223238	0.724162	0.605001	-0.043074	-0.617533	-0.003124	-0.079970	-0.041077	-0.884521	0.084717	0.449219	0.091048	0.012214	0.007278	0.075724	-0.684873	-0.149416	-0.709147	80.942364	-83.710069	117.406231
37419		9.067821	1.102657	0.632354	0.490678	0.044322	-0.669474	-0.013465	-0.108662	-0.047998	-0.889160	0.086914	0.448975	0.090677	0.011005	0.006372	0.075446	-0.685294	-0.149552	-0.708741	81.611501	-83.698726	116.725456
37420		9.008169	0.907922	0.545246	0.359778	0.200697	-0.751838	0.007255	-0.101800	-0.027954	-0.882080	0.082520	0.453613	0.090080	0.009066	0.005499	0.075312	-0.685694	-0.149687	-0.708340	82.234102	-83.697174	116.103069
37421		8.866277	0.860844	0.488020	0.306420	0.217242	-0.899271	0.021667	-0.076004	-0.015070	-0.880127	0.089355	0.448730	0.088662	0.008601	0.004915	0.075295	-0.686011	-0.149822	-0.708006	82.730098	-83.700519	115.616731
37422		8.736027	0.852463	0.469092	0.298528	0.208738	-1.030193	0.030854	-0.044260	-0.006259	-0.882080	0.080322	0.456055	0.087359	0.008521	0.004712	0.075363	-0.686214	-0.149945	-0.707776	83.056261	-83.706086	115.306205
37423		8.562760	0.875183	0.581843	0.425640	0.207234	-1.198674	0.049768	-0.031785	-0.004258	-0.884277	0.078125	0.456299	0.085627	0.008749	0.005834	0.075514	-0.686371	-0.150126	-0.707569	83.334624	-83.711916	115.055027
37424		8.344282	0.998552	0.663842	0.557438	0.096630	-1.401697	0.043025	-0.055841	-0.002712	-0.884521	0.084961	0.460205	0.083441	0.009983	0.006664	0.075620	-0.686615	-0.150278	-0.707289	83.726901	-83.719772	114.683890
37425		8.217266	1.000738	0.697088	0.603494	0.094531	-1.527899	0.006234	-0.103706	0.001419	-0.882080	0.080322	0.453857	0.082169	0.010008	0.007014	0.075587	-0.687047	-0.150312	-0.706866	84.351499	-83.732711	114.059306
37426		8.224863	0.688661	0.663339	0.485283	0.381791	-1.555487	-0.008701	-0.161164	0.006474	-0.886963	0.086914	0.460205	0.082243	0.006890	0.006699	0.075472	-0.687688	-0.150292	-0.706259	85.260633	-83.750410	113.138872
37427		8.251404	0.438998	0.668115	0.425236	0.625233	-1.557204	0.044173	-0.171788	0.003284	-0.882080	0.082764	0.462646	0.082508	0.004390	0.006753	0.075525	-0.688347	-0.150479	-0.705571	86.268356	-83.765234	112.150782
37428		8.263560	0.311893	0.825475	0.549709	0.800362	-1.559062	0.056552	-0.181865	0.007012	-0.877930	0.087158	0.462402	0.082628	0.003119	0.008331	0.075622	-0.689036	-0.150696	-0.704842	87.332912	-83.780439	111.111898
37429		8.239948	0.313243	0.833508	0.575118	0.803537	-1.583887	0.042707	-0.190880	0.008761	-0.875488	0.084961	0.464844	0.082391	0.003134	0.008414	0.075675	-0.689765	-0.150866	-0.704086	88.448285	-83.794806	110.014733
37430		8.288300	0.298066	0.817188	0.570522	0.821588	-1.539114	0.037194	-0.205325	0.019362	-0.880127	0.087158	0.466797	0.082874	0.002987	0.008258	0.075731	-0.690551	-0.150981	-0.703284	89.634447	-83.812927	108.842483
37431		8.319308	0.225181	0.734611	0.487163	0.870946	-1.517789	0.027016	-0.220226	0.026726	-0.873291	0.087402	0.471436	0.083185	0.002262	0.007438	0.075771	-0.691402	-0.151045	-0.702430	90.907450	-83.832564	107.577797
37432		8.530355	0.238792	0.708723	0.480920	0.874936	-1.308016	0.029741	-0.242030	0.036618	-0.875488	0.080566	0.471680	0.085294	0.002402	0.007191	0.075834	-0.692330	-0.151087	-0.701499	92.300643	-83.854330	106.193099
37433		8.723096	0.274895	0.608114	0.415489	0.832055	-1.113677	0.020353	-0.281500	0.053521	-0.871094	0.087402	0.471436	0.087222	0.002772	0.006204	0.075898	-0.693416	-0.151057	-0.700425	93.920623	-83.880628	104.575707
37434		8.991183	0.390237	0.401403	0.277311	0.688121	-0.834698	0.009734	-0.318266	0.075436	-0.873535	0.087402	0.475830	0.089904	0.003936	0.004157	0.075966	-0.694646	-0.150920	-0.699227	95.747658	-83.912433	102.742706
37435		9.455840	0.475049	0.372306	0.298066	0.649076	-0.364567	0.001679	-0.329060	0.084995	-0.866699	0.087646	0.478027	0.094550	0.004791	0.003879	0.076039	-0.695925	-0.150733	-0.697987	97.659475	-83.942582	100.821252
37436		9.404114	0.624125	0.299364	0.311579	0.480329	-0.400534	-0.025160	-0.338583	0.120923	-0.866699	0.089844	0.482422	0.094032	0.006298	0.003152	0.076132	-0.697269	-0.150324	-0.696723	99.648913	-83.985405	98.805383
37437		9.555048	0.435400	0.259417	0.247931	0.659972	-0.270220	0.020346	-0.344902	0.128531	-0.866699	0.087646	0.491455	0.095543	0.004415	0.002759	0.076409	-0.698624	-0.150055	-0.695392	101.740553	-84.024163	96.714147
37438		9.967912	0.441911	0.051076	0.085000	0.630300	0.144849	0.050719	-0.350250	0.108066	-0.864746	0.094238	0.490967	0.099676	0.004473	0.000686	0.076710	-0.699965	-0.149956	-0.694030	103.868643	-84.042858	94.602529
37439		10.217487	0.317461	0.154214	0.178675	0.806189	0.377487	0.053065	-0.314628	0.106183	-0.864746	0.094238	0.490967	0.102171	0.003228	0.001704	0.077047	-0.701181	-0.149866	-0.692783	105.824087	-84.057765	92.667246
37440		10.294807	0.291896	0.300129	0.341943	0.883707	0.446961	0.039108	-0.264491	0.094989	-0.864746	0.092041	0.493408	0.102943	0.002967	0.003138	0.077329	-0.702215	-0.149743	-0.691731	107.489716	-84.068661	91.014576
37441		10.245474	0.130941	0.211873	0.236025	1.002565	0.383924	0.000815	-0.231604	0.064523	-0.857910	0.094482	0.495605	0.102452	0.001342	0.002237	0.077400	-0.703129	-0.149586	-0.690828	108.918958	-84.063977	89.578287
37442		10.297903	-0.021768	0.081898	0.088881	1.114035	0.424743	-0.037412	-0.208645	0.012701	-0.855713	0.094482	0.495605	0.102978	-0.000211	0.000926	0.077168	-0.703935	-0.149462	-0.690059	110.098849	-84.032582	88.369412
37443		10.589746	-0.219455	-0.048810	-0.075486	1.298275	0.699306	-0.046416	-0.197613	-0.055962	-0.853516	0.094482	0.497803	0.105897	-0.002224	-0.000383	0.076682	-0.704658	-0.149552	-0.689356	111.077309	-83.963949	87.359000
37444		11.121556	-0.233992	-0.029944	-0.040648	1.389795	1.224134	-0.069193	-0.194644	-0.130241	-0.855713	0.094482	0.504395	0.111214	-0.002412	-0.000190	0.075858	-0.705319	-0.149817	-0.688713	111.850177	-83.855070	86.541054
37445		11.690292	-0.127580	0.016729	0.056735	1.387238	1.795575	-0.063682	-0.159232	-0.174222	-0.853271	0.087891	0.504883	0.116902	-0.001378	0.000261	0.074932	-0.705826	-0.150249	-0.688201	112.346489	-83.729170	86.005294
37446		11.769095	0.131894	0.109235	0.237332	1.204958	1.893406	-0.109514	-0.113699	-0.196764	-0.852783	0.079102	0.505371	0.117692	0.001204	0.001159	0.073794	-0.706172	-0.150577	-0.687897	112.531262	-83.601304	85.755088
37447		12.109616	0.272782	0.038436	0.220414	1.113576	2.246748	-0.134766	-0.045277	-0.216564	-0.850586	0.081299	0.505371	0.121099	0.002597	0.000410	0.072558	-0.706279	-0.150871	-0.687854	112.344537	-83.477561	85.865478
37448		12.516933	0.464500	0.016179	0.255715	0.996521	2.670546	-0.140786	0.047511	-0.217898	-0.853027	0.081299	0.500732	0.125174	0.004509	0.000129	0.071351	-0.706065	-0.151101	-0.688149	111.727012	-83.373243	86.403613
37449		12.676012	0.681248	0.001861	0.295937	0.825637	2.851280	-0.162549	0.098278	-0.172876	-0.852783	0.079102	0.503174	0.126766	0.006703	-0.000049	0.070274	-0.705720	-0.151093	-0.688616	110.970018	-83.302542	87.072166
37450		12.687184	0.849959	-0.174682	0.163797	0.627606	2.887581	-0.155335	0.094482	-0.137554	-0.852539	0.072266	0.505859	0.126877	0.008411	-0.001813	0.069335	-0.705407	-0.150977	-0.689058	110.301749	-83.249446	87.654155
37451		12.914897	0.968728	-0.331879	0.038555	0.505744	3.132808	-0.105320	0.065339	-0.113149	-0.861572	0.074463	0.501221	0.129153	0.009612	-0.003366	0.068641	-0.705198	-0.150967	-0.689343	109.850115	-83.202704	88.048375
37452		13.201978	1.041995	-0.600315	-0.203678	0.398627	3.436386	-0.065913	0.058623	-0.093790	-0.850342	0.072266	0.501221	0.132023	0.010356	-0.006045	0.068136	-0.705010	-0.151013	-0.689575	109.480869	-83.165105	88.380282
37453		12.903647	1.028784	-0.857903	-0.463966	0.303716	3.148446	-0.002559	0.087270	-0.062357	-0.852539	0.070068	0.505859	0.129036	0.010248	-0.008635	0.067996	-0.704729	-0.151170	-0.689842	109.078772	-83.149340	88.783967
37454		12.064110	1.049878	-0.926300	-0.531024	0.164574	2.319664	0.129073	0.042419	-0.021280	-0.852539	0.074463	0.503418	0.120640	0.010492	-0.009282	0.068415	-0.704586	-0.151638	-0.689844	109.013140	-83.147544	88.922483
37455		11.621101	0.969872	-1.216199	-0.826820	0.099321	1.882452	0.305473	-0.066668	-0.017464	-0.845947	0.074707	0.499023	0.116216	0.009707	-0.012108	0.069399	-0.704763	-0.152752	-0.689319	109.551007	-83.126935	88.557200
37456		11.472592	1.108123	-1.505695	-1.041345	-0.134687	1.763704	0.402861	-0.152816	-0.041725	-0.850586	0.079102	0.505371	0.114740	0.011087	-0.014947	0.070567	-0.705179	-0.154305	-0.688428	110.478854	-83.076181	87.853542
37457		11.236344	1.275615	-1.598827	-1.052849	-0.342343	1.554507	0.412770	-0.189688	-0.070787	-0.850586	0.076904	0.503418	0.112383	0.012749	-0.015855	0.071650	-0.705696	-0.156018	-0.687400	111.517044	-83.000492	87.046076
37458		10.994240	1.406748	-1.526064	-0.919038	-0.462066	1.328360	0.364347	-0.159399	-0.082595	-0.859863	0.083496	0.511963	0.109960	0.014050	-0.015147	0.072536	-0.706110	-0.157584	-0.686523	112.352337	-82.923797	86.413277
37459		10.616852	1.516789	-1.502903	-0.849584	-0.596092	0.966913	0.273457	-0.028465	-0.078279	-0.848389	0.079102	0.505371	0.106177	0.015147	-0.014993	0.073227	-0.706112	-0.158786	-0.686171	112.580597	-82.876960	86.341323
37460		9.700268	1.625519	-1.652673	-0.964616	-0.859435	0.076686	0.171476	0.163252	-0.020773	-0.855469	0.087891	0.500488	0.096991	0.016259	-0.016592	0.073901	-0.705535	-0.159354	-0.686560	112.031720	-82.902698	86.992109
37461		8.837792	1.718931	-1.690540	-0.990026	-1.072977	-0.769030	0.108349	0.272051	-0.008501	-0.857422	0.078857	0.500977	0.088356	0.017195	-0.017016	0.074488	-0.704620	-0.159632	-0.687372	110.998658	-82.956360	88.095820
37462		8.417382	1.933589	-1.809606	-1.054052	-1.372534	-1.159893	0.060091	0.292351	-0.029467	-0.857666	0.087891	0.498291	0.084150	0.019329	-0.018213	0.074844	-0.703630	-0.159802	-0.688307	109.793198	-83.000536	89.344214
37463		8.429323	2.147192	-1.915231	-1.104957	-1.610781	-1.122667	0.019808	0.271467	-0.067488	-0.859619	0.081055	0.494141	0.084274	0.021445	-0.019265	0.074916	-0.702700	-0.159983	-0.689207	108.592044	-83.016617	90.565978
37464		8.711256	2.314406	-1.821241	-0.984030	-1.704528	-0.830172	-0.023317	0.262903	-0.087138	-0.866455	0.083252	0.491699	0.087099	0.023104	-0.018330	0.074758	-0.701795	-0.160081	-0.690123	107.365962	-83.017651	91.787103
37465		9.079766	2.256501	-1.645645	-0.863476	-1.548771	-0.480070	-0.054644	0.282242	-0.094364	-0.871094	0.087402	0.487061	0.090785	0.022518	-0.016591	0.074483	-0.700831	-0.160095	-0.691128	106.031897	-83.014270	93.099776
37466		9.306324	2.143110	-1.383646	-0.682757	-1.332057	-0.279879	-0.059206	0.316573	-0.062545	-0.871094	0.085205	0.484863	0.093048	0.021398	-0.013990	0.074332	-0.699769	-0.159967	-0.692249	104.572438	-83.030106	94.536008
37467		9.322311	1.920355	-1.175914	-0.589764	-1.059987	-0.299300	-0.047963	0.353381	-0.031859	-0.871338	0.089600	0.484619	0.093205	0.019186	-0.011928	0.074353	-0.698603	-0.159758	-0.693472	102.984842	-83.063091	96.107860
37468		9.264325	1.791354	-0.949141	-0.447983	-0.881057	-0.380800	-0.017587	0.360578	-0.024474	-0.875488	0.082764	0.476074	0.092628	0.017901	-0.009660	0.074518	-0.697399	-0.159627	-0.694695	101.367844	-83.096077	97.727263
37469		9.385382	1.762117	-0.819204	-0.364915	-0.804202	-0.269020	-0.042229	0.285504	-0.042489	-0.877930	0.084961	0.478271	0.093846	0.017599	-0.008330	0.074468	-0.696455	-0.159499	-0.695676	100.065298	-83.105632	99.015115
37470		9.745503	1.600949	-0.759866	-0.392435	-0.595514	0.066916	0.007050	0.250046	-0.052084	-0.877686	0.082764	0.476074	0.097450	0.015984	-0.007720	0.074531	-0.695601	-0.159589	-0.696502	98.939775	-83.103340	100.153221
37471		9.863025	1.479949	-0.680076	-0.382782	-0.446755	0.166583	0.045594	0.282125	-0.041653	-0.879883	0.082764	0.476074	0.098624	0.014781	-0.006937	0.074787	-0.694634	-0.159765	-0.697399	97.701004	-83.106613	101.427508
37472		9.637853	1.489936	-0.513950	-0.243071	-0.435097	-0.059544	0.047933	0.311196	-0.027379	-0.873047	0.080566	0.467285	0.096372	0.014887	-0.005286	0.075125	-0.693571	-0.159886	-0.698393	96.326947	-83.116687	102.839264
37473		9.493530	1.513779	-0.515213	-0.257401	-0.483880	-0.201047	0.052051	0.290582	0.012290	-0.877930	0.087158	0.466797	0.094927	0.015145	-0.005286	0.075598	-0.692612	-0.159893	-0.699291	95.072680	-83.144199	104.132816
37474		9.396451	1.521304	-0.520004	-0.277595	-0.514439	-0.297631	0.074545	0.254653	0.027268	-0.877686	0.084961	0.467041	0.093956	0.015228	-0.005314	0.076175	-0.691776	-0.159941	-0.700044	93.991463	-83.175607	105.265158
37475		9.319446	1.595849	-0.511386	-0.260266	-0.601452	-0.366482	0.087862	0.241647	0.043157	-0.886963	0.087158	0.464600	0.093185	0.015981	-0.005219	0.076841	-0.690998	-0.159985	-0.700730	92.981125	-83.213071	106.333542
37476		9.267567	1.583252	-0.396463	-0.169765	-0.569779	-0.421299	0.086207	0.222431	0.064258	-0.889160	0.089111	0.457764	0.092666	0.015864	-0.004061	0.077563	-0.690298	-0.159957	-0.701346	92.048838	-83.260074	107.322507
37477		9.123935	1.515053	-0.376732	-0.182973	-0.527764	-0.573020	0.081897	0.223917	0.056620	-0.891602	0.093506	0.459717	0.091231	0.015178	-0.003863	0.078241	-0.689593	-0.159940	-0.701968	91.099346	-83.300724	108.325992
37478		8.974516	1.431878	-0.286100	-0.133986	-0.448134	-0.732200	0.083383	0.223706	0.056673	-0.889160	0.089111	0.457764	0.089738	0.014345	-0.002955	0.078932	-0.688880	-0.159933	-0.702592	90.132488	-83.339553	109.348827
37479		8.854598	1.365531	-0.190259	-0.075278	-0.378137	-0.859694	0.081681	0.220738	0.043928	-0.889404	0.093750	0.462158	0.088541	0.013676	-0.001995	0.079562	-0.688174	-0.159959	-0.703207	89.176579	-83.368986	110.358497
37480		8.770706	1.339449	-0.083846	0.005443	-0.336732	-0.946290	0.084195	0.214269	0.029341	-0.885010	0.093750	0.457520	0.087704	0.013408	-0.000927	0.080149	-0.687472	-0.160049	-0.703806	88.241743	-83.388264	111.348789
37481		8.612375	1.410986	0.036534	0.134963	-0.388324	-1.095108	0.071062	0.217712	0.015456	-0.894287	0.100342	0.457275	0.086123	0.014116	0.000277	0.080639	-0.686757	-0.160136	-0.704428	87.286447	-83.397592	112.351637
37482		8.405692	1.404298	0.109060	0.196415	-0.386280	-1.300825	0.064478	0.191771	0.006198	-0.898682	0.097900	0.452881	0.084057	0.014045	0.001015	0.081063	-0.686122	-0.160248	-0.704973	86.450502	-83.400758	113.231659
37483		8.233075	1.423982	0.134105	0.225974	-0.419000	-1.469870	0.071789	0.092301	0.012373	-0.898682	0.097900	0.452881	0.082330	0.014244	0.001308	0.081444	-0.685844	-0.160400	-0.705164	86.113202	-83.409995	113.612790
37484		8.486628	1.416028	0.086846	0.162047	-0.403319	-1.219283	0.056007	0.095953	-0.014043	-0.898682	0.097900	0.450684	0.084868	0.014154	0.000832	0.081691	-0.685533	-0.160591	-0.705395	85.750740	-83.403783	114.011406
37485		8.489530	1.530981	0.268154	0.366161	-0.450375	-1.201589	0.043539	0.074255	-0.012165	-0.905518	0.100098	0.448242	0.084897	0.015304	0.002653	0.081875	-0.685310	-0.160734	-0.705557	85.494982	-83.399287	114.294161
37486		8.604193	1.492075	0.298603	0.374492	-0.392439	-1.091831	0.036701	0.018033	0.000002	-0.901123	0.104492	0.450195	0.086042	0.014920	0.002981	0.082044	-0.685292	-0.160842	-0.705531	85.500839	-83.404234	114.311072
37487		8.660866	1.686169	0.298061	0.434559	-0.568513	-1.013224	0.023569	0.073557	-0.022154	-0.903076	0.097900	0.457275	0.086612	0.016852	0.002951	0.082124	-0.685072	-0.160949	-0.705711	85.241355	-83.393924	114.586062
37488		8.830589	1.663017	0.316933	0.429129	-0.523729	-0.846812	0.006630	0.127758	-0.027511	-0.903076	0.095459	0.450684	0.088310	0.016618	0.003113	0.082181	-0.684657	-0.161000	-0.706095	84.702762	-83.377674	115.133689
37489		8.823828	1.837684	0.493107	0.640327	-0.630169	-0.830872	-0.003870	0.214571	-0.041453	-0.907471	0.097656	0.443848	0.088247	0.018359	0.004836	0.082212	-0.683935	-0.161019	-0.706787	83.749640	-83.347602	116.091189
37490		8.503791	1.806131	0.597817	0.729181	-0.601765	-1.150118	-0.040839	0.166427	-0.021593	-0.909912	0.097656	0.443848	0.085045	0.018053	0.005904	0.082147	-0.683409	-0.160857	-0.707339	83.000890	-83.330239	116.821460
37491		8.595903	1.686813	0.568498	0.646140	-0.493534	-1.072149	-0.019467	0.110237	-0.017827	-0.905518	0.100098	0.450439	0.085964	0.016861	0.005636	0.082124	-0.683081	-0.160782	-0.707676	82.543311	-83.318321	117.271113
37492		8.794872	1.686592	0.672248	0.725404	-0.439646	-0.872510	-0.018592	0.095638	-0.013214	-0.909912	0.099854	0.450439	0.087953	0.016861	0.006679	0.082108	-0.682803	-0.160700	-0.707965	82.150219	-83.309579	117.656171
37493		8.736841	1.753813	0.688842	0.760406	-0.504934	-0.921705	-0.036498	0.079308	-0.010987	-0.905273	0.097656	0.450684	0.087372	0.017535	0.006851	0.082026	-0.682596	-0.160554	-0.708207	81.830380	-83.303299	117.957329
37494		8.787287	1.758214	0.725473	0.789756	-0.493222	-0.870258	-0.038607	0.033633	-0.002210	-0.912109	0.097656	0.448486	0.087874	0.017583	0.007237	0.081931	-0.682554	-0.160389	-0.708296	81.718879	-83.305414	118.047329
37495		8.934122	1.739765	0.738346	0.787412	-0.457557	-0.726374	-0.008781	0.004152	0.001715	-0.909912	0.099854	0.448242	0.089341	0.017399	0.007381	0.081928	-0.682612	-0.160329	-0.708254	81.769384	-83.312368	117.991592
37496		9.004560	1.718709	0.739659	0.780766	-0.430437	-0.659093	0.018474	-0.031605	0.009500	-0.905518	0.100098	0.450439	0.090044	0.017191	0.007412	0.082017	-0.682787	-0.160353	-0.708069	81.998177	-83.326402	117.771903
37497		9.051908	1.704153	0.736933	0.776999	-0.412425	-0.614295	0.042839	-0.055708	0.013840	-0.909912	0.099854	0.446045	0.090516	0.017046	0.007398	0.082185	-0.683045	-0.160458	-0.707777	82.361646	-83.344856	117.430854
37498		9.154569	1.711597	0.792110	0.834245	-0.388775	-0.511289	0.060390	-0.074910	0.010743	-0.903320	0.102295	0.445801	0.091542	0.017118	0.007961	0.082386	-0.683357	-0.160644	-0.707410	82.827347	-83.362459	116.996853
37499		9.293656	1.664111	0.812555	0.840346	-0.321730	-0.379138	0.072621	-0.083143	0.027310	-0.905518	0.100098	0.452881	0.092931	0.016651	0.008170	0.082682	-0.683711	-0.160820	-0.706994	83.338806	-83.389841	116.524025
37500		9.253779	1.612412	0.839991	0.861283	-0.268298	-0.425244	0.086445	-0.068614	0.046460	-0.907959	0.104492	0.447998	0.092531	0.016142	0.008439	0.083104	-0.684018	-0.160973	-0.706612	83.774524	-83.426510	116.135284
37501		9.239787	1.557665	0.845055	0.858804	-0.218282	-0.446317	0.090554	-0.070221	0.055737	-0.907715	0.099854	0.448242	0.092391	0.015599	0.008490	0.083572	-0.684340	-0.161110	-0.706213	84.226249	-83.468440	115.732994
37502		9.241431	1.552592	0.836366	0.860463	-0.218529	-0.446475	0.100229	-0.085733	0.071424	-0.907715	0.100098	0.461670	0.092405	0.015555	0.008411	0.084115	-0.684722	-0.161234	-0.705751	84.753627	-83.519541	115.260014
37503		9.339383	1.515440	0.730112	0.755700	-0.213645	-0.355576	0.092268	-0.073493	0.083379	-0.903320	0.104492	0.452393	0.093385	0.015190	0.007342	0.084683	-0.685076	-0.161283	-0.705327	85.223229	-83.576614	114.840801
37504		9.445700	1.521067	0.760352	0.792323	-0.202562	-0.250041	0.077221	-0.058014	0.089247	-0.903320	0.104492	0.461426	0.094448	0.015250	0.007637	0.085233	-0.685383	-0.161253	-0.704970	85.604348	-83.635740	114.501835
37505		9.454234	1.535492	0.758945	0.806660	-0.221644	-0.241039	0.054326	-0.063680	0.100319	-0.898926	0.106934	0.463623	0.094532	0.015400	0.007624	0.085739	-0.685732	-0.161106	-0.704603	86.010583	-83.701403	114.124603
37506		9.586541	1.528621	0.690596	0.744984	-0.232806	-0.111855	0.037499	-0.049621	0.107520	-0.903564	0.111084	0.449951	0.095855	0.015336	0.006933	0.086223	-0.686040	-0.160869	-0.704298	86.332856	-83.770137	113.822027
37507		9.597347	1.562713	0.821246	0.888302	-0.226834	-0.097491	0.013448	-0.033664	0.106939	-0.906006	0.111084	0.463379	0.095964	0.015678	0.008230	0.086636	-0.686306	-0.160543	-0.704063	86.570434	-83.838049	113.590982
37508		9.587211	1.599862	0.851578	0.938553	-0.261347	-0.104435	-0.015237	-0.036738	0.116570	-0.903564	0.111328	0.456543	0.095861	0.016055	0.008532	0.086982	-0.686597	-0.160084	-0.703840	86.803515	-83.911220	113.347799
37509		9.602879	1.642618	0.935925	1.040320	-0.280484	-0.084969	-0.038232	-0.035913	0.111291	-0.894775	0.115967	0.458496	0.096018	0.016481	0.009373	0.087231	-0.686896	-0.159562	-0.703636	87.033000	-83.981486	113.095179
37510		9.625192	1.692090	0.872797	1.004755	-0.356089	-0.059077	-0.044543	-0.026810	0.107433	-0.901611	0.113525	0.458740	0.096242	0.016975	0.008737	0.087451	-0.687158	-0.159026	-0.703475	87.208429	-84.048929	112.893142
37511		9.827422	1.670437	0.888413	1.010157	-0.321111	0.138912	-0.044358	-0.005899	0.100402	-0.897217	0.117920	0.456055	0.098266	0.016756	0.008883	0.087665	-0.687345	-0.158506	-0.703383	87.281225	-84.111984	112.794584
37512		10.038496	1.693304	1.041583	1.156985	-0.279960	0.351297	-0.055301	0.022109	0.086035	-0.904053	0.120117	0.456055	0.100379	0.016979	0.010400	0.087812	-0.687421	-0.157985	-0.703407	87.188935	-84.165770	112.855525
37513		10.109841	1.669918	1.124483	1.225740	-0.234071	0.419846	-0.066067	0.036193	0.099657	-0.901611	0.117920	0.449463	0.101092	0.016753	0.011221	0.087982	-0.687469	-0.157373	-0.703477	87.012939	-84.227204	112.994557
37514		10.499975	1.587388	1.051668	1.114150	-0.157525	0.799057	-0.055882	0.049977	0.087523	-0.899414	0.115723	0.458496	0.104995	0.015923	0.010486	0.088181	-0.687442	-0.156857	-0.703593	86.755934	-84.281129	113.224970
37515		11.036590	1.500785	1.143841	1.149077	-0.007615	1.324934	-0.026962	0.066236	0.084023	-0.904053	0.117920	0.458496	0.110363	0.015056	0.011400	0.088454	-0.687353	-0.156423	-0.703742	86.427156	-84.332471	113.540033
37516		11.256550	1.396072	1.378295	1.323879	0.177335	1.535198	-0.023874	0.060346	0.105224	-0.895020	0.118164	0.458252	0.112562	0.014022	0.013747	0.088807	-0.687296	-0.155930	-0.703863	86.112501	-84.395684	113.842645
37517		11.209861	0.965884	1.217690	1.029955	0.506119	1.446074	-0.013668	0.039564	0.125025	-0.902100	0.124512	0.453613	0.112095	0.009730	0.012154	0.089249	-0.687327	-0.155414	-0.703891	85.918552	-84.471206	114.029825
37518		11.320676	0.779881	0.919565	0.687083	0.573288	1.536795	0.014486	0.001704	0.134224	-0.902100	0.124512	0.458008	0.113202	0.007874	0.009195	0.089794	-0.687479	-0.154986	-0.703768	85.949726	-84.553214	114.007591
37519		11.689731	0.766969	0.653643	0.427854	0.512248	1.901399	0.001207	-0.033935	0.137654	-0.899902	0.126953	0.460205	0.116891	0.007750	0.006556	0.090275	-0.687771	-0.154511	-0.703525	86.198360	-84.638856	113.758721
37520		11.607314	0.717372	0.559227	0.337895	0.503541	1.814407	0.006331	-0.043369	0.174084	-0.897461	0.126953	0.455566	0.116066	0.007275	0.005618	0.090897	-0.688115	-0.153937	-0.703234	86.493640	-84.745296	113.466550
37521		11.319835	0.581093	0.423958	0.191326	0.544219	1.515298	-0.030934	-0.093706	0.175140	-0.895752	0.138184	0.454834	0.113191	0.005911	0.004292	0.091353	-0.688660	-0.153247	-0.702793	87.108053	-84.853991	112.831980
37522		10.856293	0.354148	0.023088	-0.227042	0.568129	1.032159	-0.028509	-0.122762	0.153415	-0.897949	0.133545	0.457520	0.108560	0.003625	0.000297	0.091724	-0.689281	-0.152660	-0.702263	87.934567	-84.950011	111.986928
37523		10.442780	0.215598	-0.358623	-0.597839	0.525773	0.608102	-0.023713	-0.170297	0.112641	-0.895508	0.133789	0.459717	0.104430	0.002214	-0.003498	0.091926	-0.690042	-0.152246	-0.701579	89.124343	-85.022253	110.779123
37524		10.362259	0.186705	-0.514935	-0.729639	0.491999	0.526653	-0.027553	-0.199126	0.041016	-0.895508	0.131592	0.462158	0.103627	0.001888	-0.005046	0.091846	-0.690844	-0.152082	-0.700835	90.524323	-85.050911	109.358881
37525		10.192049	0.122463	-0.712520	-0.911847	0.474958	0.353111	-0.021754	-0.167321	0.012075	-0.895752	0.135986	0.461670	0.101926	0.001230	-0.007040	0.091704	-0.691516	-0.152020	-0.700204	91.736053	-85.060710	108.130294
37526		9.881967	-0.048018	-0.813443	-1.042691	0.578505	0.030858	-0.019731	-0.076389	0.001924	-0.895508	0.129150	0.464355	0.098823	-0.000480	-0.008097	0.091607	-0.691854	-0.151962	-0.699896	92.337195	-85.064727	107.516324
37527		9.432052	-0.089510	-0.816834	-1.042591	0.580577	-0.420416	-0.008726	-0.006306	-0.000943	-0.895508	0.131592	0.462158	0.094321	-0.000896	-0.008165	0.091587	-0.691945	-0.151917	-0.699818	92.489819	-85.068584	107.358295
37528		9.139158	-0.134789	-1.003106	-1.224681	0.536877	-0.715407	-0.036217	0.011797	-0.027714	-0.895752	0.135986	0.455078	0.091391	-0.001362	-0.010036	0.091394	-0.691960	-0.151862	-0.699840	92.489213	-85.057422	107.338589
37529		9.414665	-0.240017	-1.124893	-1.383294	0.620908	-0.450002	-0.025595	0.021507	-0.074511	-0.890869	0.127197	0.459961	0.094145	-0.002437	-0.011259	0.091080	-0.691906	-0.151999	-0.699905	92.427079	-85.019840	107.386416
37530		9.651720	-0.222857	-1.248791	-1.504638	0.589589	-0.213037	-0.023793	0.046779	-0.108961	-0.895508	0.129150	0.455322	0.096513	-0.002283	-0.012510	0.090674	-0.691731	-0.152254	-0.700075	92.184035	-84.963011	107.617474
37531		9.897768	-0.237291	-1.127337	-1.408093	0.674047	0.028854	-0.040548	0.046313	-0.123468	-0.895264	0.126953	0.453369	0.098974	-0.002436	-0.011296	0.090155	-0.691559	-0.152497	-0.700259	91.945761	-84.897882	107.833540
37532		10.315186	-0.102237	-0.859281	-1.128439	0.684436	0.454252	-0.063191	0.038573	-0.134286	-0.893066	0.124756	0.448975	0.103149	-0.001094	-0.008612	0.089518	-0.691411	-0.152705	-0.700442	91.738477	-84.826262	108.006020
37533		10.412888	0.232650	-0.677831	-0.854898	0.451513	0.579958	-0.139389	0.050539	-0.122722	-0.895264	0.122559	0.455811	0.104129	0.002258	-0.006806	0.088663	-0.691269	-0.152597	-0.700714	91.428822	-84.761469	108.236944
37534		10.562295	0.398608	-0.625950	-0.762883	0.336767	0.742755	-0.245688	0.048507	-0.112023	-0.885986	0.120361	0.455811	0.105624	0.003919	-0.006290	0.087480	-0.691183	-0.152083	-0.701060	91.070842	-84.702593	108.455707
37535		10.537667	0.510770	-0.444240	-0.568235	0.299312	0.727149	-0.231225	0.169097	-0.139861	-0.895020	0.117920	0.449463	0.105376	0.005029	-0.004537	0.086338	-0.690650	-0.151660	-0.701817	89.998441	-84.628239	109.399893
37536		10.291784	0.494736	-0.203974	-0.360560	0.380321	0.479663	-0.234810	0.176138	-0.142192	-0.885742	0.113770	0.451904	0.102919	0.004872	-0.002136	0.085183	-0.690086	-0.151232	-0.702605	88.902052	-84.550792	110.366607
37537		10.223954	0.456996	-0.206766	-0.391160	0.418446	0.407523	-0.228395	0.102452	-0.158212	-0.896973	0.113525	0.449707	0.102242	0.004487	-0.002125	0.083935	-0.689770	-0.150910	-0.703135	88.284873	-84.463935	110.855349
37538		10.391181	0.441997	-0.161174	-0.374039	0.475542	0.571526	-0.236265	0.106875	-0.185836	-0.896484	0.102295	0.452637	0.103915	0.004321	-0.001672	0.082568	-0.689414	-0.150655	-0.703700	87.653666	-84.360591	111.354047
37539		10.382841	0.552345	0.223980	0.009280	0.509832	0.574736	-0.248980	0.127005	-0.182216	-0.892334	0.106934	0.449951	0.103835	0.005432	0.002167	0.081183	-0.688998	-0.150333	-0.704337	86.927165	-84.258289	111.940964
37540		10.266750	0.629796	0.441088	0.227835	0.507831	0.467756	-0.242819	0.100179	-0.160290	-0.892090	0.102539	0.457031	0.102675	0.006221	0.004352	0.079877	-0.688685	-0.149968	-0.704871	86.362440	-84.168690	112.368980
37541		10.025170	0.692255	0.438939	0.242848	0.435425	0.233572	-0.160495	0.074061	-0.134387	-0.887451	0.100342	0.459473	0.100258	0.006859	0.004347	0.078925	-0.688453	-0.149813	-0.705237	86.000543	-84.094646	112.640521
37542		9.620415	0.795746	0.353401	0.200696	0.280526	-0.159113	-0.065299	0.080092	-0.119739	-0.885010	0.095947	0.461914	0.096210	0.007901	0.003493	0.078357	-0.688169	-0.149941	-0.705550	85.655276	-84.028477	112.950175
37543		9.238352	0.902936	0.419626	0.305709	0.172342	-0.527465	-0.011273	0.035968	-0.115620	-0.887207	0.093750	0.459717	0.092389	0.008976	0.004179	0.077957	-0.688027	-0.150263	-0.705665	85.590994	-83.966552	113.008496
37544		9.022557	0.959853	0.384327	0.296975	0.096494	-0.736453	-0.000410	-0.029931	-0.123316	-0.893799	0.091309	0.464355	0.090231	0.009543	0.003857	0.077515	-0.688103	-0.150673	-0.705552	85.883496	-83.902964	112.713921
37545		8.995427	0.873570	0.279788	0.173477	0.152915	-0.773571	0.022807	-0.049947	-0.114137	-0.891846	0.095947	0.459717	0.089959	0.008684	0.002821	0.077172	-0.688251	-0.151143	-0.705345	86.292285	-83.845297	112.316107
37546		8.965913	0.786836	0.275474	0.145507	0.240636	-0.812493	0.063461	-0.034218	-0.100052	-0.887207	0.093750	0.459717	0.089663	0.007823	0.002773	0.077029	-0.688334	-0.151700	-0.705159	86.623373	-83.794781	112.019544
37547		8.893817	0.736402	0.377795	0.230939	0.322661	-0.889261	0.071759	-0.017799	-0.091570	-0.894043	0.095703	0.461914	0.088941	0.007322	0.003789	0.076958	-0.688366	-0.152253	-0.705016	86.872312	-83.748493	111.810665
37548		8.790778	0.743622	0.391150	0.250840	0.317414	-0.991119	0.094343	-0.008778	-0.077335	-0.884766	0.089355	0.459961	0.087910	0.007400	0.003919	0.077022	-0.688365	-0.152832	-0.704886	87.073799	-83.709935	111.662412
37549		8.619873	0.775870	0.378723	0.257631	0.272378	-1.157802	0.108203	-0.018195	-0.067160	-0.889404	0.091553	0.471191	0.086201	0.007728	0.003799	0.077163	-0.688402	-0.153429	-0.704704	87.333571	-83.677449	111.463612
37550		8.402016	0.826956	0.440005	0.344195	0.227909	-1.368700	0.113744	-0.052001	-0.050855	-0.891846	0.095947	0.464111	0.084021	0.008246	0.004427	0.077351	-0.688566	-0.154000	-0.704399	87.758418	-83.654937	111.101403
37551		8.262880	0.797894	0.512784	0.416271	0.270132	-1.510368	0.094325	-0.096716	-0.030397	-0.893799	0.091309	0.462158	0.082628	0.007964	0.005172	0.077513	-0.688913	-0.154452	-0.703943	88.402063	-83.644679	110.508342
37552		8.114013	0.813351	0.516540	0.441017	0.246732	-1.657310	0.080324	-0.138043	-0.018653	-0.884766	0.091553	0.466553	0.081137	0.008124	0.005225	0.077636	-0.689416	-0.154829	-0.703354	89.240470	-83.640758	109.711055
37553		8.082623	0.793677	0.519430	0.453245	0.268829	-1.691677	0.072476	-0.202847	-0.012578	-0.887207	0.095947	0.470947	0.080821	0.007930	0.005279	0.077702	-0.690157	-0.155183	-0.702541	90.412864	-83.638900	108.573363
37554		8.171268	0.830237	0.467555	0.430834	0.233017	-1.600648	0.093467	-0.215497	0.003644	-0.884766	0.089355	0.468994	0.081707	0.008302	0.004767	0.077888	-0.690943	-0.155558	-0.701664	91.657059	-83.643546	107.375208
37555		8.237296	0.885425	0.566408	0.560824	0.225678	-1.530637	0.106177	-0.251535	0.030853	-0.882568	0.091553	0.475586	0.082364	0.008864	0.005772	0.078185	-0.691874	-0.155900	-0.700637	93.108858	-83.659772	105.975843
37556		8.215741	0.889389	0.542879	0.564796	0.216327	-1.553251	0.133548	-0.283177	0.055887	-0.880371	0.093994	0.484375	0.082147	0.008913	0.005551	0.078637	-0.692919	-0.156258	-0.699473	94.749698	-83.684895	104.401465
37557		8.311091	0.936017	0.411336	0.480268	0.142907	-1.453954	0.135215	-0.299857	0.077352	-0.876221	0.098389	0.477295	0.083101	0.009389	0.004244	0.079160	-0.694041	-0.156559	-0.698234	96.508369	-83.716134	102.710235
37558		8.427287	0.882586	0.332832	0.415177	0.181872	-1.344902	0.144469	-0.318616	0.094127	-0.871582	0.096436	0.488770	0.084263	0.008863	0.003469	0.079756	-0.695231	-0.156837	-0.696918	98.391284	-83.749671	100.898958
37559		8.665121	0.810245	0.282746	0.371156	0.259983	-1.116979	0.130446	-0.337236	0.111960	-0.871826	0.100830	0.488525	0.086642	0.008149	0.002979	0.080353	-0.696507	-0.157014	-0.695534	100.403618	-83.784714	98.950025
37560		8.931276	0.744873	0.158828	0.262361	0.309507	-0.858190	0.108248	-0.350024	0.116359	-0.874023	0.098633	0.490967	0.089305	0.007500	0.001749	0.080874	-0.697834	-0.157099	-0.694124	102.488035	-83.813302	96.915272
37561		9.362227	0.720479	-0.022100	0.114427	0.319334	-0.428888	0.101012	-0.356628	0.115586	-0.871582	0.096436	0.490967	0.093618	0.007259	-0.000050	0.081365	-0.699186	-0.157168	-0.692688	104.623734	-83.832322	94.825496
37562		9.557862	0.850464	-0.012642	0.202105	0.222600	-0.221772	0.102535	-0.346629	0.107525	-0.862793	0.098877	0.497559	0.095574	0.008556	0.000044	0.081836	-0.700490	-0.157260	-0.691293	106.700522	-83.840307	92.795038
37563		9.600065	0.808176	-0.075015	0.165619	0.246862	-0.182965	0.070472	-0.331527	0.111882	-0.869629	0.103271	0.499512	0.095997	0.008136	-0.000588	0.082227	-0.701760	-0.157225	-0.689965	108.699817	-83.845376	90.824936
37564		9.905928	0.716243	-0.254838	-0.001881	0.308317	0.117581	0.075239	-0.283745	0.052122	-0.865234	0.105469	0.503906	0.099061	0.007189	-0.002405	0.082460	-0.702810	-0.157390	-0.688830	110.348038	-83.820785	89.209776
37565		10.199694	0.585996	-0.115244	0.113340	0.513961	0.390909	0.004830	-0.218397	0.004087	-0.862793	0.101074	0.508545	0.101998	0.005862	-0.001041	0.082337	-0.703629	-0.157460	-0.687992	111.535094	-83.779381	88.018699
37566		10.381015	0.423854	-0.010037	0.179791	0.727297	0.549934	-0.102929	-0.182227	-0.010306	-0.865234	0.103271	0.515137	0.103810	0.004233	-0.000008	0.081809	-0.704352	-0.157189	-0.687377	112.435253	-83.735981	87.053104
37567		10.608208	0.242732	0.122860	0.262277	0.971366	0.751201	-0.179634	-0.123365	-0.004672	-0.862549	0.096680	0.504395	0.106081	0.002426	0.001292	0.081080	-0.704911	-0.156616	-0.687021	113.015283	-83.707001	86.366209
37568		10.647465	0.197928	0.256613	0.383848	1.064461	0.779438	-0.205706	-0.047975	-0.005886	-0.862549	0.096680	0.508789	0.106474	0.001979	0.002590	0.080309	-0.705217	-0.155919	-0.686956	113.207734	-83.694079	86.053051
37569		10.500933	0.215913	0.376734	0.504326	1.072390	0.630194	-0.238167	0.024114	-0.038484	-0.860352	0.096680	0.508789	0.105010	0.002143	0.003752	0.079373	-0.705264	-0.155205	-0.687178	112.977488	-83.679940	86.147587
37570		10.469201	0.113080	0.430050	0.518025	1.185187	0.585816	-0.259808	0.034149	-0.057698	-0.860352	0.096680	0.513428	0.104693	0.001106	0.004281	0.078297	-0.705267	-0.154471	-0.687464	112.643041	-83.658108	86.333305
37571		10.594223	0.027120	0.443102	0.500932	1.289688	0.700181	-0.270249	0.003102	-0.098544	-0.857910	0.092285	0.509033	0.105942	0.000225	0.004429	0.077025	-0.705351	-0.153866	-0.687657	112.378114	-83.607465	86.444253
37572		10.869419	0.105291	0.472291	0.554246	1.266877	0.979265	-0.284890	-0.014490	-0.142567	-0.855469	0.090088	0.511475	0.108695	0.000982	0.004729	0.075531	-0.705462	-0.153364	-0.687821	112.100040	-83.529912	86.558846
37573		11.267884	0.262292	0.474886	0.607025	1.179832	1.389947	-0.332950	-0.005076	-0.175982	-0.866699	0.085449	0.518555	0.112681	0.002532	0.004747	0.073765	-0.705535	-0.152818	-0.688060	111.699664	-83.436226	86.769997
37574		11.579233	0.305620	0.424092	0.568201	1.175267	1.704593	-0.367959	0.031886	-0.182667	-0.855225	0.083496	0.516357	0.115796	0.002958	0.004217	0.071873	-0.705482	-0.152152	-0.688461	111.100996	-83.346811	87.159233
37575		11.798511	0.296368	0.386543	0.519751	1.212687	1.921934	-0.373207	0.083200	-0.163983	-0.852783	0.076904	0.512207	0.117989	0.002874	0.003811	0.070073	-0.705269	-0.151392	-0.689032	110.316895	-83.276963	87.733588
37576		12.132506	0.239337	0.399074	0.500723	1.320476	2.246327	-0.351118	0.109946	-0.129337	-0.861572	0.074463	0.510254	0.121329	0.002322	0.003920	0.068483	-0.704977	-0.150566	-0.689672	109.488295	-83.230385	88.364078
37577		12.341994	0.278261	0.378601	0.480111	1.311013	2.459081	-0.288746	0.080612	-0.115245	-0.861572	0.074463	0.508057	0.123423	0.002717	0.003732	0.067147	-0.704776	-0.149925	-0.690149	108.866077	-83.184662	88.824262
37578		12.527291	0.410901	0.323766	0.460593	1.201572	2.659311	-0.210416	0.009287	-0.118786	-0.859131	0.067871	0.515137	0.125275	0.004038	0.003228	0.066015	-0.704787	-0.149582	-0.690321	108.605524	-83.123855	88.964170
37579		12.821780	0.583065	0.099217	0.299014	1.021885	2.978488	-0.125133	-0.058158	-0.135866	-0.859131	0.065430	0.506348	0.128221	0.005744	0.001026	0.065079	-0.704992	-0.149624	-0.690191	108.678761	-83.041016	88.818351
37580		12.953317	0.704056	0.150763	0.388223	0.956924	3.119459	-0.013935	-0.051796	-0.138751	-0.861328	0.067871	0.515137	0.129538	0.006951	0.001541	0.064523	-0.705134	-0.150047	-0.690007	108.773998	-82.958139	88.712905
37581		12.379175	0.674792	0.050977	0.288104	0.901760	2.548774	0.085257	-0.073753	-0.112769	-0.854492	0.063477	0.506348	0.123795	0.006678	0.000558	0.064397	-0.705341	-0.150738	-0.689655	109.063855	-82.884837	88.470223
37582		11.541834	0.530363	-0.246851	-0.029105	0.859653	1.711907	0.251460	-0.159096	-0.064817	-0.861084	0.063232	0.515381	0.115422	0.005269	-0.002370	0.064952	-0.705821	-0.151851	-0.688868	109.875219	-82.821305	87.796484
37583		11.206341	0.478178	-0.881534	-0.627312	0.688815	1.399795	0.389635	-0.247468	-0.071724	-0.852295	0.067871	0.515137	0.112076	0.004759	-0.008667	0.065910	-0.706556	-0.153502	-0.687657	111.119306	-82.734380	86.767655
37584		11.097110	0.683916	-1.371967	-1.000953	0.345591	1.339642	0.399616	-0.275838	-0.092079	-0.849854	0.063477	0.524414	0.110993	0.006815	-0.013553	0.066804	-0.707362	-0.155257	-0.686347	112.418045	-82.628234	85.687754
37585		10.943295	0.899607	-1.660267	-1.178423	0.046790	1.229529	0.394430	-0.233612	-0.075963	-0.856934	0.070068	0.517090	0.109456	0.008987	-0.016457	0.067775	-0.708036	-0.156933	-0.685174	113.544406	-82.536650	84.779964
37586		10.570203	1.287932	-1.556498	-0.938386	-0.327509	0.902853	0.356630	-0.113365	-0.038403	-0.854980	0.074707	0.521484	0.105713	0.012887	-0.015482	0.068827	-0.708335	-0.158293	-0.684447	114.211067	-82.491318	84.312248
37587		9.962205	1.559745	-1.549872	-0.842765	-0.660784	0.332930	0.273396	0.048033	0.006647	-0.859375	0.074463	0.514648	0.099618	0.015622	-0.015501	0.069873	-0.708146	-0.159165	-0.684334	114.272523	-82.506596	84.408435
37588		9.243900	1.785629	-1.542321	-0.775982	-0.973706	-0.354007	0.199456	0.209682	0.065443	-0.864014	0.076660	0.514648	0.092417	0.017902	-0.015502	0.070984	-0.707472	-0.159511	-0.684836	113.742744	-82.590835	85.057185
37589		8.648909	1.904573	-1.667625	-0.877781	-1.219181	-0.927023	0.145794	0.338408	0.103297	-0.859619	0.078857	0.507813	0.086451	0.019103	-0.016809	0.072140	-0.706408	-0.159501	-0.685816	112.710018	-82.722394	86.182852
37590		8.233779	1.935192	-1.850448	-1.065533	-1.379396	-1.331763	0.130103	0.381771	0.095855	-0.866455	0.081055	0.507568	0.082293	0.019403	-0.018649	0.073247	-0.705189	-0.159440	-0.686966	111.425973	-82.856909	87.551612
37591		8.280697	2.071709	-2.037822	-1.220974	-1.580437	-1.267162	0.118656	0.374995	0.047023	-0.866699	0.085449	0.500488	0.082764	0.020749	-0.020521	0.074143	-0.703959	-0.159521	-0.688112	110.043439	-82.959358	89.013489
37592		8.551085	2.185590	-1.943063	-1.118733	-1.637692	-0.995677	0.070391	0.370277	-0.002017	-0.870850	0.080811	0.500977	0.085475	0.021862	-0.019581	0.074695	-0.702718	-0.159604	-0.689300	108.533695	-83.030250	90.574834
37593		9.003651	2.233502	-1.776205	-0.972704	-1.584794	-0.552485	0.019915	0.342102	-0.005788	-0.875732	0.087402	0.493896	0.090007	0.022334	-0.017914	0.075035	-0.701591	-0.159542	-0.690424	107.093018	-83.088791	92.037816
37594		9.401189	2.091255	-1.401399	-0.694925	-1.293366	-0.191678	-0.034792	0.342170	0.019852	-0.875488	0.085205	0.491699	0.093986	0.020919	-0.014178	0.075271	-0.700500	-0.159197	-0.691586	105.623419	-83.157293	93.497656
37595		9.588142	1.926101	-1.013997	-0.415407	-1.005231	-0.040925	-0.046423	0.396275	0.049196	-0.877930	0.087402	0.489258	0.095856	0.019282	-0.010334	0.075611	-0.699251	-0.158692	-0.692927	103.905772	-83.244728	95.200854
37596		9.544925	1.846651	-0.716881	-0.195713	-0.857933	-0.104180	-0.047386	0.447577	0.062946	-0.875732	0.087402	0.489258	0.095427	0.018495	-0.007387	0.076036	-0.697828	-0.158112	-0.694446	101.906119	-83.340127	97.186815
37597		9.551516	1.770129	-0.490325	-0.042819	-0.730023	-0.113702	-0.036394	0.411953	0.035934	-0.875977	0.093994	0.486572	0.095502	0.017718	-0.005103	0.076377	-0.696505	-0.157680	-0.695834	100.015119	-83.408240	99.069711
37598		9.738532	1.710422	-0.327058	0.056783	-0.614098	0.061070	-0.012752	0.333707	0.013555	-0.880371	0.089600	0.478027	0.097379	0.017111	-0.003434	0.076661	-0.695421	-0.157436	-0.696941	98.465447	-83.450197	100.622288
37599		9.780443	1.587100	-0.269877	0.042622	-0.486537	0.087322	-0.014480	0.298749	0.009526	-0.882568	0.089355	0.468994	0.097799	0.015875	-0.002846	0.076897	-0.694458	-0.157215	-0.697924	97.073553	-83.482344	102.015105
37600		9.750998	1.469881	-0.368857	-0.114544	-0.423579	0.045606	-0.044788	0.306352	0.020549	-0.884766	0.089355	0.478027	0.097503	0.014708	-0.003841	0.077073	-0.693484	-0.156846	-0.698956	95.611784	-83.517490	103.460636
37601		9.624615	1.467037	-0.299612	-0.072312	-0.425201	-0.081856	-0.065168	0.298707	0.043986	-0.878174	0.091797	0.475586	0.096238	0.014691	-0.003145	0.077253	-0.692565	-0.156328	-0.699962	94.177661	-83.561319	104.866523
37602		9.481145	1.491824	-0.226852	-0.015279	-0.454832	-0.223008	-0.107330	0.278993	0.063793	-0.889160	0.089355	0.473633	0.094803	0.014947	-0.002409	0.077341	-0.691742	-0.155599	-0.700928	92.800275	-83.612046	106.190671
37603		9.424933	1.465583	-0.159232	0.019971	-0.429263	-0.282844	-0.139837	0.259361	0.071418	-0.889160	0.084717	0.467041	0.094242	0.014688	-0.001725	0.077328	-0.691008	-0.154739	-0.701843	91.491739	-83.663101	107.426874
37604		9.310547	1.418725	-0.053251	0.088520	-0.377919	-0.402523	-0.149957	0.243418	0.073921	-0.889160	0.089355	0.471191	0.093099	0.014221	-0.000656	0.077274	-0.690331	-0.153837	-0.702713	90.233708	-83.712442	108.605887
37605		9.236070	1.335528	0.046433	0.139912	-0.289507	-0.485987	-0.146852	0.231291	0.067970	-0.889404	0.095947	0.461914	0.092357	0.013387	0.000348	0.077202	-0.689694	-0.152975	-0.703535	89.029486	-83.755565	109.732876
37606		9.106106	1.232017	0.084242	0.128920	-0.206511	-0.626458	-0.147609	0.234415	0.055957	-0.889404	0.093750	0.457520	0.091059	0.012346	0.000727	0.077090	-0.689031	-0.152149	-0.704375	87.788555	-83.789210	110.896315
37607		8.928911	1.143218	0.120262	0.122536	-0.141573	-0.812034	-0.171961	0.246847	0.045810	-0.889404	0.091553	0.464355	0.089288	0.011454	0.001083	0.076865	-0.688328	-0.151268	-0.705276	86.465274	-83.813788	112.128447
37608		8.744906	1.033300	0.149959	0.103325	-0.057777	-1.006467	-0.164165	0.251996	0.020383	-0.891602	0.093506	0.455322	0.087450	0.010343	0.001381	0.076583	-0.687580	-0.150499	-0.706200	85.114420	-83.820560	113.392873
37609		8.607883	1.090607	0.196323	0.152017	-0.118746	-1.135915	-0.162904	0.221004	-0.006648	-0.893799	0.089111	0.453369	0.086081	0.010905	0.001859	0.076185	-0.686923	-0.149840	-0.707022	83.946977	-83.810576	114.473442
37610		8.490366	1.124719	0.209947	0.164879	-0.164324	-1.248741	-0.175376	0.167531	0.000235	-0.900635	0.093506	0.453125	0.084905	0.011249	0.002018	0.075730	-0.686460	-0.149133	-0.707671	83.044984	-83.805892	115.279982
37611		8.463026	1.113424	0.193780	0.135343	-0.167247	-1.277245	-0.162304	0.132573	0.016584	-0.900635	0.093506	0.448730	0.084631	0.011143	0.001873	0.075349	-0.686131	-0.148429	-0.708178	82.330237	-83.811823	115.905559
37612		8.462956	1.111551	0.207139	0.136851	-0.167548	-1.277275	-0.136033	0.143920	0.020642	-0.898193	0.091309	0.453369	0.084630	0.011126	0.002003	0.075087	-0.685749	-0.147802	-0.708706	81.559517	-83.818282	116.603106
37613		8.379301	1.176044	0.252852	0.193553	-0.229299	-1.352803	-0.114021	0.149918	0.034752	-0.898682	0.097900	0.448486	0.083793	0.011776	0.002459	0.074949	-0.685353	-0.147201	-0.709229	80.764041	-83.831172	117.337689
37614		8.392948	1.229178	0.331005	0.274557	-0.261265	-1.332217	-0.101456	0.108513	0.040861	-0.898193	0.091309	0.446533	0.083929	0.012311	0.003258	0.074851	-0.685098	-0.146640	-0.709602	80.176937	-83.850503	117.870528
37615		8.605613	1.261912	0.376705	0.308881	-0.264709	-1.116401	-0.090575	0.137040	0.024791	-0.902832	0.091064	0.448730	0.086057	0.012631	0.003702	0.074748	-0.684730	-0.146160	-0.710067	79.465615	-83.857228	118.533943
37616		8.493893	1.240904	0.476144	0.389697	-0.232238	-1.227413	-0.033834	0.221629	0.030364	-0.903076	0.097656	0.443848	0.084942	0.012423	0.004665	0.074925	-0.684040	-0.145832	-0.710781	78.330788	-83.856550	119.656347
37617		8.320201	1.192070	0.636828	0.524619	-0.161353	-1.401323	0.019616	0.148745	0.066786	-0.905029	0.093262	0.448730	0.083203	0.011948	0.006308	0.075357	-0.683619	-0.145596	-0.711188	77.571345	-83.883085	120.431637
37618		8.349966	1.202994	0.653293	0.536551	-0.171509	-1.370022	0.050048	0.074400	0.055387	-0.900635	0.093262	0.441895	0.083499	0.012051	0.006505	0.075805	-0.683437	-0.145537	-0.711327	77.218447	-83.911690	120.816236
37619		8.455733	1.308090	0.723055	0.628260	-0.245522	-1.252411	0.075357	0.046612	0.062252	-0.905518	0.102051	0.439209	0.084555	0.013104	0.007216	0.076337	-0.683355	-0.145553	-0.711346	77.021616	-83.947533	121.057773
37620		8.479737	1.296067	0.726140	0.627546	-0.236778	-1.229964	0.086970	0.021936	0.072035	-0.907471	0.097656	0.441650	0.084793	0.012988	0.007258	0.076933	-0.683358	-0.145589	-0.711272	76.939742	-83.991887	121.191215
37621		8.515092	1.242343	0.768310	0.653541	-0.174996	-1.199745	0.124837	-0.015535	0.079813	-0.907471	0.097656	0.443848	0.085145	0.012453	0.007697	0.077651	-0.683490	-0.145744	-0.711035	77.076548	-84.045489	121.125753
37622		8.562849	1.223563	0.767287	0.650627	-0.157201	-1.154732	0.161549	-0.025982	0.059929	-0.905518	0.099854	0.443848	0.085624	0.012255	0.007694	0.078422	-0.683624	-0.146104	-0.710747	77.309267	-84.089171	120.985558
37623		8.667720	1.242948	0.856891	0.743698	-0.140427	-1.047087	0.176531	-0.040600	0.060323	-0.903320	0.102295	0.439209	0.086672	0.012448	0.008597	0.079229	-0.683810	-0.146519	-0.710394	77.640389	-84.134930	120.754537
37624		8.799124	1.157705	0.821236	0.685891	-0.061159	-0.926457	0.192175	-0.073491	0.056904	-0.905762	0.106689	0.445557	0.087985	0.011594	0.008256	0.080059	-0.684097	-0.147017	-0.709921	78.161710	-84.182432	120.341983
37625		9.024678	1.212549	0.753513	0.637715	-0.114764	-0.698796	0.222067	-0.056234	0.034006	-0.907959	0.104248	0.443604	0.090243	0.012132	0.007574	0.080917	-0.684299	-0.147690	-0.709489	78.645844	-84.214830	119.983423
37626		9.064316	1.347480	0.783568	0.715435	-0.228509	-0.646039	0.243184	-0.026980	0.037062	-0.903564	0.108887	0.440918	0.090640	0.013482	0.007864	0.081886	-0.684384	-0.148418	-0.709144	78.972069	-84.245339	119.796479
37627		9.183777	1.489302	0.797415	0.778654	-0.346507	-0.513802	0.239620	-0.092640	0.044434	-0.903564	0.111084	0.440918	0.091831	0.014904	0.008035	0.082813	-0.684714	-0.149132	-0.708568	79.668715	-84.286890	119.234488
37628		9.435797	1.634841	0.746632	0.781310	-0.475804	-0.250910	0.217132	-0.142933	0.037378	-0.901367	0.111084	0.443115	0.094350	0.016358	0.007552	0.083609	-0.685218	-0.149816	-0.707843	80.645696	-84.328472	118.378822
37629		9.716704	1.629198	0.738460	0.776404	-0.445840	0.026640	0.210670	-0.122063	0.039650	-0.901367	0.111328	0.447510	0.097159	0.016303	0.007461	0.084399	-0.685658	-0.150455	-0.707187	81.519169	-84.368183	117.622554
37630		9.793744	1.616163	0.683208	0.730106	-0.444063	0.100229	0.197682	-0.049128	0.043146	-0.899414	0.115723	0.447266	0.097932	0.016176	0.006872	0.085216	-0.685841	-0.151008	-0.706793	81.962724	-84.402908	117.291507
37631		9.794092	1.630698	0.804373	0.861071	-0.419540	0.102601	0.204390	-0.065717	0.083459	-0.901611	0.117920	0.451660	0.097931	0.016340	0.008093	0.086181	-0.686116	-0.151451	-0.706315	82.489025	-84.461627	116.880550
37632		9.828136	1.724775	0.770158	0.872122	-0.520516	0.143653	0.180754	-0.073567	0.100198	-0.899414	0.117920	0.449463	0.098270	0.017290	0.007753	0.087124	-0.686434	-0.151760	-0.705824	83.037713	-84.529970	116.434339
37633		9.943757	1.849440	0.829079	0.977112	-0.613497	0.269722	0.123859	-0.049278	0.095933	-0.895264	0.124756	0.451172	0.099427	0.018537	0.008327	0.087869	-0.686693	-0.151868	-0.705456	83.431386	-84.593965	116.110350
37634		10.172909	1.840627	0.873754	1.018244	-0.576639	0.496052	0.087464	-0.056783	0.085756	-0.897461	0.126953	0.448975	0.101719	0.018446	0.008774	0.088453	-0.686981	-0.151890	-0.705098	83.856538	-84.652333	115.734679
37635		10.413146	1.791555	0.961079	1.086204	-0.486769	0.730090	0.063439	-0.061221	0.087339	-0.895264	0.124756	0.453369	0.104121	0.017958	0.009648	0.088951	-0.687301	-0.151820	-0.704738	84.311647	-84.711674	115.314284
37636		10.587516	1.700397	1.085557	1.174505	-0.352155	0.895338	0.012082	0.000993	0.084511	-0.902100	0.129150	0.455566	0.105868	0.017048	0.010856	0.089317	-0.687417	-0.151556	-0.704636	84.352365	-84.765619	115.281514
37637		10.371120	1.658959	1.155671	1.238595	-0.317920	0.676004	-0.012858	0.038069	0.104782	-0.897461	0.122559	0.455811	0.103705	0.016645	0.011536	0.089690	-0.687434	-0.151112	-0.704666	84.142303	-84.829090	115.485225
37638		10.412336	1.610446	1.156691	1.223441	-0.281229	0.712155	-0.020815	0.038566	0.110722	-0.895020	0.120361	0.460449	0.104117	0.016163	0.011545	0.090061	-0.687452	-0.150624	-0.704707	83.906290	-84.895694	115.711029
37639		10.544817	1.682130	1.095820	1.184734	-0.371078	0.849500	-0.005187	0.076833	0.095589	-0.895264	0.126953	0.451172	0.105444	0.016872	0.010917	0.090456	-0.687322	-0.150221	-0.704869	83.446478	-84.951296	116.169845
37640		10.851778	1.837565	1.125597	1.250802	-0.495164	1.168888	-0.003573	0.066030	0.092878	-0.895264	0.124756	0.448975	0.108513	0.018426	0.011220	0.090841	-0.687222	-0.149840	-0.704998	83.040677	-85.005555	116.575497
37641		11.462831	1.991621	1.214466	1.363084	-0.573939	1.791215	-0.051447	0.013481	0.084760	-0.893555	0.135986	0.450439	0.114621	0.019968	0.012132	0.090992	-0.687328	-0.149340	-0.704981	82.959967	-85.058939	116.627099
37642		11.563440	1.523997	1.029741	1.034207	-0.202618	1.848591	-0.079625	-0.004914	0.132707	-0.893311	0.131348	0.450684	0.115624	0.015321	0.010294	0.091206	-0.687540	-0.148589	-0.704905	82.934279	-85.140664	116.608070
37643		11.170884	0.977618	0.996502	0.841450	0.251173	1.410780	-0.048012	0.042768	0.176922	-0.897705	0.129150	0.457764	0.111702	0.009877	0.009939	0.091716	-0.687609	-0.147771	-0.704944	82.573980	-85.244296	116.942212
37644		11.004020	0.819022	0.922550	0.731587	0.344469	1.230702	-0.038303	-0.013361	0.152235	-0.893555	0.135986	0.448242	0.110033	0.008276	0.009231	0.092133	-0.687846	-0.147101	-0.704798	82.607551	-85.337720	116.887136
37645		11.063920	0.857161	0.630044	0.482760	0.202975	1.289911	-0.110619	-0.169053	0.127942	-0.893555	0.135986	0.461670	0.110628	0.008646	0.006389	0.092098	-0.688653	-0.146328	-0.704176	83.740481	-85.428119	115.687109
37646		11.095756	0.705939	0.179389	0.034288	0.190609	1.305260	-0.153701	-0.247808	0.126318	-0.888916	0.135986	0.459473	0.110951	0.007131	0.001926	0.091856	-0.689747	-0.145449	-0.703318	85.458377	-85.519229	113.876434
37647		11.109893	0.518537	-0.208990	-0.364525	0.234755	1.302808	-0.179563	-0.217241	0.111760	-0.888672	0.129395	0.462158	0.111098	0.005246	-0.001974	0.091491	-0.690740	-0.144511	-0.702584	87.022144	-85.596894	112.204942
37648		11.026804	0.378295	-0.440188	-0.605249	0.280041	1.209223	-0.180683	-0.099193	0.088295	-0.889160	0.140625	0.459229	0.110269	0.003828	-0.004351	0.091126	-0.691295	-0.143597	-0.702273	87.744486	-85.655263	111.377114
37649		10.694843	0.283161	-0.526599	-0.700426	0.310178	0.871429	-0.138048	0.027329	0.094116	-0.889160	0.140381	0.454834	0.106946	0.002878	-0.005283	0.091018	-0.691396	-0.142754	-0.702360	87.555925	-85.713865	111.487068
37650		10.299419	0.239309	-0.523941	-0.701964	0.312914	0.474155	-0.064337	0.085556	0.110272	-0.891113	0.135986	0.457275	0.102991	0.002448	-0.005284	0.091272	-0.691262	-0.142093	-0.702592	86.936050	-85.779954	112.073042
37651		9.975333	0.184220	-0.458457	-0.655577	0.348947	0.147223	-0.034544	0.168852	0.116788	-0.886963	0.140625	0.450195	0.099748	0.001900	-0.004669	0.091702	-0.690833	-0.141470	-0.703084	85.667807	-85.846082	113.325011
37652		9.464029	0.010187	-0.511538	-0.760925	0.444524	-0.375900	0.012530	0.239939	0.111742	-0.884766	0.140625	0.450195	0.094634	0.000155	-0.005229	0.092333	-0.690122	-0.141002	-0.703794	83.811973	-85.902920	115.193886
37653		9.051680	-0.201061	-0.737951	-1.045212	0.526477	-0.804457	0.084552	0.201391	0.105614	-0.891113	0.135986	0.446045	0.090510	-0.001960	-0.007471	0.093158	-0.689514	-0.140821	-0.704316	82.276380	-85.955134	116.782106
37654		9.049241	-0.246213	-0.881882	-1.206206	0.507820	-0.811895	0.157480	0.141030	0.072098	-0.891357	0.140381	0.441162	0.090487	-0.002423	-0.008885	0.094078	-0.689054	-0.141044	-0.704600	81.261752	-85.990555	117.890514
37655		9.316844	-0.246733	-1.013592	-1.344910	0.472390	-0.546627	0.171882	0.061560	0.027539	-0.889404	0.145020	0.447754	0.093166	-0.002446	-0.010167	0.094830	-0.688842	-0.141505	-0.704614	80.954701	-86.007113	118.297214
