// General information: 
//  MT Manager version: 2019.2.0 
//  XDA version: 2019.2.0 build 3853 rev 94535 built on 2019-09-09
// Device information: 
//  DeviceId: 00B40A40
//  ProductCode: MTW2-3A7G6
//  Firmware Version: 4.4.0
//  Hardware Version: 1.1.0
// Device settings: 
//  Filter Profile: human(46.1)
//  Option Flags: Orientation Smoother Disabled, AHS Disabled, ICC Disabled
// Coordinate system: ENU
PacketCounter	SampleTimeFine	Acc_X	Acc_Y	Acc_Z	FreeAcc_E	FreeAcc_N	FreeAcc_U	Gyr_X	Gyr_Y	Gyr_Z	Mag_X	Mag_Y	Mag_Z	VelInc_X	VelInc_Y	VelInc_Z	Quat_q0	Quat_q1	Quat_q2	Quat_q3	Roll	Pitch	Yaw
25009		6.053995	-0.477671	3.201343	0.000000	-0.000000	-2.947733	-0.359105	0.096372	-0.423595	-1.107178	0.097656	-0.069092	0.060545	-0.004847	0.031993	0.023873	-0.516006	0.026860	-0.855831	-8.615774	-61.877937	-171.633734
25010		6.161403	-0.360368	3.361701	-0.000000	0.000000	-2.784617	-0.421447	-0.114870	-0.352484	-1.106934	0.093262	-0.064453	0.061588	-0.003641	0.033660	0.031652	-0.510297	0.011351	-0.859341	-6.174249	-61.201458	-172.127374
25011		6.511954	-0.339883	3.231112	-0.221893	-0.114067	-2.539527	-0.370934	-0.262944	-0.278329	-1.111328	0.093262	-0.057617	0.065072	-0.003429	0.032403	0.023499	-0.514462	0.021725	-0.856916	-7.448729	-61.724546	-172.403040
25012		7.133828	-0.045322	3.226341	-0.489490	-0.441613	-2.010883	-0.330322	-0.333093	-0.202011	-1.108887	0.086670	-0.059570	0.071284	-0.000472	0.032383	0.021820	-0.515948	0.022581	-0.856044	-7.469974	-61.928806	-172.593636
25013		8.061381	0.295637	3.337709	-0.784276	-0.835331	-1.158173	-0.193123	-0.369119	-0.098753	-1.111328	0.091064	-0.052979	0.080553	0.002949	0.033523	0.020889	-0.517857	0.023028	-0.854902	-7.513196	-62.186607	-172.665373
25014		8.779043	0.789908	3.968225	-0.514550	-1.381970	-0.259280	-0.032250	-0.447029	-0.004625	-1.104492	0.091309	-0.046387	0.087702	0.007903	0.039877	0.020837	-0.519770	0.023107	-0.853739	-7.590821	-62.440862	-172.598577
25015		9.196854	1.060404	4.546161	-0.122861	-1.642929	0.368654	0.162136	-0.378788	0.036551	-1.109131	0.088867	-0.046143	0.091880	0.010584	0.045644	0.020563	-0.522432	0.020593	-0.852184	-7.115353	-62.819263	-172.887146
25016		9.267080	1.193770	4.977747	0.262967	-1.775478	0.620926	0.400611	-0.167779	0.040658	-1.111328	0.091064	-0.046387	0.092627	0.011857	0.049879	0.021800	-0.523101	0.018975	-0.851781	-6.953906	-62.911816	-172.810640
25017		9.488308	1.257816	5.250661	0.438664	-1.688493	0.963956	0.602503	0.068539	0.080564	-1.113525	0.091064	-0.041748	0.094896	0.012458	0.052512	0.020854	-0.523594	0.010475	-0.851648	-5.022698	-63.049506	-174.112421
25018		9.705968	1.336046	5.353714	0.424385	-1.750784	1.205826	0.732402	0.252598	0.115920	-1.102295	0.091309	-0.046387	0.097120	0.013221	0.053463	0.023252	-0.522431	0.007686	-0.852330	-4.708735	-62.899667	-173.993796
25019		10.634047	1.602298	5.451779	0.068705	-1.768683	2.113720	0.774117	0.210973	0.186832	-1.104736	0.093506	-0.051025	0.106383	0.015911	0.054467	0.021357	-0.520995	-0.005357	-0.853276	-1.643142	-62.789585	-176.129645
25020		11.827766	1.643876	5.842811	-0.121949	-1.812276	3.356880	0.814818	-0.078845	0.214431	-1.106934	0.093262	-0.046387	0.118237	0.016327	0.058541	0.024392	-0.521245	-0.008283	-0.853018	-1.417715	-62.831462	-175.858223
25021		12.308954	1.208142	6.312501	0.069888	-0.952165	4.040325	0.846650	-0.127160	0.152087	-1.102783	0.100098	-0.055908	0.123040	0.011907	0.063254	0.021265	-0.521608	-0.024482	-0.852569	2.463628	-62.930419	-178.650229
25022		12.365010	0.964979	6.113970	-0.137520	-0.685026	3.997344	0.793293	0.080128	0.072744	-1.109375	0.097900	-0.049072	0.123671	0.009452	0.061128	0.023654	-0.521187	-0.027665	-0.852666	2.832615	-62.886484	-178.554151
25023		11.652002	1.074464	5.612343	-0.269575	-0.480756	3.153348	0.579132	0.221398	-0.035653	-1.102539	0.095703	-0.053467	0.116584	0.010562	0.056025	0.020127	-0.520220	-0.040982	-0.852811	6.136428	-62.741408	178.960338
25024		11.434429	0.992228	5.354351	-0.430363	-0.398116	2.838635	0.277944	0.207041	-0.036135	-1.106934	0.095459	-0.055664	0.114401	0.009827	0.053439	0.020738	-0.519301	-0.042241	-0.853295	6.310628	-62.621237	178.943512
25025		11.274091	0.415268	5.198290	-0.540805	0.369293	2.591783	-0.025334	0.198048	0.038702	-1.109619	0.104492	-0.060547	0.112792	0.004181	0.051871	0.017434	-0.519434	-0.049541	-0.852895	8.293797	-62.594642	177.294279
25026		10.320749	-0.462754	4.902281	-0.461216	1.174562	1.552696	-0.248933	0.263419	0.111128	-1.103027	0.106689	-0.065186	0.103274	-0.004509	0.048892	0.017326	-0.518359	-0.048168	-0.853630	7.988863	-62.454252	177.477220
25027		9.504217	-1.173595	4.498664	-0.492901	1.862578	0.590828	-0.373364	0.348270	0.143128	-1.100586	0.102295	-0.062744	0.095129	-0.011584	0.044843	0.015669	-0.518381	-0.049049	-0.853598	8.387284	-62.438544	177.014149
25028		9.180043	-1.637048	4.095324	-0.768526	2.241963	0.092239	-0.375407	0.417542	0.177652	-1.107422	0.106689	-0.067383	0.091900	-0.016212	0.040792	0.015557	-0.516669	-0.046953	-0.854755	7.915367	-62.216159	177.304143
25029		9.525638	-1.894175	4.195396	-0.839574	2.406754	0.455197	-0.378830	0.384121	0.253145	-1.105469	0.113281	-0.079102	0.095361	-0.018742	0.041807	0.017624	-0.517346	-0.041679	-0.854579	6.555198	-62.337246	178.395100
25030		9.918301	-2.108677	4.635810	-0.668853	2.615203	1.005030	-0.479046	0.157091	0.351514	-1.105713	0.115479	-0.076904	0.099256	-0.020801	0.046330	0.017920	-0.516788	-0.038709	-0.855050	5.880740	-62.269584	178.846845
25031		10.404996	-2.407222	4.349251	-1.072137	2.672591	1.353429	-0.369818	0.011028	0.361435	-1.103516	0.120117	-0.070557	0.104096	-0.023804	0.043531	0.019667	-0.519813	-0.027673	-0.853605	3.348036	-62.687727	-179.399828
25032		10.602683	-2.363703	4.361610	-1.156081	2.586361	1.545205	0.036330	0.155326	0.308733	-1.094727	0.124756	-0.077637	0.106097	-0.023481	0.043529	0.021100	-0.519189	-0.027010	-0.853972	3.017861	-62.608689	-179.004659
25033		10.176013	-2.046361	4.404664	-0.868360	2.155096	1.220952	0.531621	0.341904	0.255580	-1.101563	0.126709	-0.079834	0.101861	-0.020450	0.043818	0.021482	-0.519390	-0.021268	-0.854003	1.746292	-62.627265	-178.180531
25034		9.764952	-1.686345	4.359967	-0.746258	1.802297	0.836350	0.908485	0.287083	0.254193	-1.092773	0.133545	-0.082764	0.097733	-0.016937	0.043383	0.024957	-0.518087	-0.024456	-0.854614	1.976334	-62.467597	-177.853189
25035		9.972815	-1.425092	4.402438	-0.714043	1.415923	1.066402	1.181731	0.091595	0.288586	-1.102051	0.135742	-0.089355	0.099769	-0.014367	0.043894	0.024239	-0.520752	-0.017070	-0.853193	0.486799	-62.801958	-177.042448
25036		10.389220	-1.074839	4.943499	-0.417616	1.109814	1.681799	1.309321	-0.130090	0.371113	-1.097168	0.131348	-0.089111	0.103880	-0.010879	0.049432	0.029220	-0.521168	-0.021705	-0.852677	0.824204	-62.878927	-176.578515
25037		10.407907	-0.694221	5.447463	0.139357	0.572394	1.940364	1.256446	-0.252708	0.444773	-1.097656	0.142334	-0.085449	0.104026	-0.007053	0.054562	0.042490	-0.524806	-0.019915	-0.849927	-1.372929	-63.353035	-173.428878
25038		9.961653	-0.458737	5.422456	0.355208	0.376072	1.526640	1.128634	-0.202162	0.525751	-1.097900	0.146973	-0.078857	0.099574	-0.004632	0.054299	0.047665	-0.525468	-0.023374	-0.849156	-1.333323	-63.461724	-172.750010
25039		9.231995	-0.343683	4.988843	0.370224	0.221642	0.677795	1.097543	-0.012714	0.590324	-1.098145	0.153564	-0.086182	0.092327	-0.003438	0.049875	0.058154	-0.527533	-0.026616	-0.847123	-2.107067	-63.749329	-170.835424
25040		8.387777	-0.144737	4.598869	0.405407	0.042692	-0.254490	1.177628	0.182439	0.603820	-1.093994	0.160400	-0.088623	0.083924	-0.001465	0.045904	0.063841	-0.526487	-0.029958	-0.847253	-2.123814	-63.632117	-170.064046
25041		7.654423	0.060436	4.323559	0.505892	-0.207991	-1.038420	1.279450	0.273152	0.593884	-1.100830	0.164551	-0.093506	0.076601	0.000556	0.043135	0.066052	-0.525899	-0.026775	-0.847556	-3.095421	-63.507691	-169.171511
25042		7.191153	0.282851	3.993426	0.424528	-0.417412	-1.603813	1.370870	0.274441	0.539625	-1.103271	0.164551	-0.097900	0.071959	0.002749	0.039855	0.071979	-0.524341	-0.031073	-0.847892	-2.910719	-63.334491	-168.499779
25043		6.892475	0.446979	4.112428	0.736825	-0.557927	-1.827464	1.367057	0.264553	0.466166	-1.092285	0.173584	-0.105225	0.068969	0.004350	0.041063	0.107093	-0.522890	-0.047529	-0.844309	-4.046248	-63.270745	-163.049003
25044		6.599023	0.493853	4.274346	0.994967	-0.513257	-2.014767	1.202387	0.272097	0.390386	-1.099121	0.173584	-0.107422	0.066039	0.004811	0.042683	0.111947	-0.521180	-0.051437	-0.844508	-3.777855	-63.099987	-162.577821
25045		6.411347	0.476140	4.545305	1.264670	-0.413216	-2.052425	0.884031	0.355583	0.351611	-1.090332	0.182617	-0.112549	0.064186	0.004674	0.045360	0.123051	-0.517267	-0.056279	-0.845060	-4.014713	-62.634615	-160.987221
25046		6.083359	0.409331	4.724431	1.514720	-0.258950	-2.254014	0.474050	0.454014	0.370094	-1.088135	0.182617	-0.121582	0.060933	0.004094	0.047116	0.125968	-0.515158	-0.057045	-0.845867	-4.114060	-62.360147	-160.569011
25047		5.861004	0.265797	4.522582	1.314875	-0.143732	-2.523925	0.088717	0.497159	0.429836	-1.090820	0.193604	-0.126709	0.058716	0.002764	0.045081	0.123934	-0.510335	-0.055537	-0.849184	-3.891758	-61.703104	-161.067915
25048		5.502737	0.043059	4.049832	0.987331	-0.011612	-3.051918	-0.076342	0.461920	0.466419	-1.090820	0.193604	-0.126709	0.055119	0.000574	0.040371	0.125848	-0.508548	-0.053736	-0.850090	-4.392525	-61.419870	-160.548188
25049		5.044334	-0.124682	3.713821	0.799802	0.124212	-3.599949	0.019218	0.360736	0.436912	-1.088867	0.198242	-0.131348	0.050513	-0.001140	0.037047	0.138423	-0.503491	-0.058084	-0.850860	-4.766778	-60.795154	-158.722063
25050		4.799679	-0.049146	3.605806	0.829632	0.047726	-3.867053	0.167876	0.244448	0.394139	-1.091064	0.197998	-0.133789	0.048042	-0.000427	0.035999	0.140593	-0.502448	-0.057636	-0.851151	-5.050648	-60.636322	-158.286339
25051		4.891539	0.177051	3.569576	0.806143	-0.203256	-3.811922	0.271515	0.163418	0.366649	-1.091553	0.209229	-0.136475	0.048941	0.001812	0.035658	0.150400	-0.500070	-0.061442	-0.850609	-5.325822	-60.366829	-156.846757
25052		5.111929	0.338307	3.667564	0.834762	-0.382503	-3.579377	0.335615	0.086127	0.350716	-1.087402	0.218262	-0.141602	0.051129	0.003411	0.036659	0.152757	-0.499558	-0.061927	-0.850454	-5.476780	-60.298835	-156.451742
25053		5.432462	0.451458	3.941169	0.904381	-0.476940	-3.164162	0.329388	-0.060084	0.310213	-1.082764	0.216064	-0.136963	0.054306	0.004534	0.039435	0.167266	-0.494374	-0.069365	-0.850179	-5.403149	-59.747975	-154.634057
25054		6.110333	0.343945	4.171083	0.758880	-0.456933	-2.459614	0.266463	-0.241074	0.250249	-1.089600	0.218262	-0.137207	0.061049	0.003460	0.041789	0.168906	-0.495262	-0.070079	-0.849279	-5.518693	-59.871852	-154.323774
25055		7.063706	0.108936	4.314577	0.353149	-0.382543	-1.551196	0.228114	-0.390831	0.185963	-1.092041	0.220459	-0.130615	0.070552	0.001106	0.043285	0.175554	-0.494394	-0.075315	-0.847988	-5.241789	-59.873972	-153.587127
25056		8.043445	-0.128083	4.469724	-0.011254	-0.321289	-0.615498	0.241073	-0.529652	0.134844	-1.087402	0.216064	-0.123535	0.080317	-0.001281	0.044908	0.176523	-0.496477	-0.076468	-0.846465	-5.285620	-60.169090	-153.377090
25057		8.700795	-0.348646	4.695351	-0.158170	-0.183122	0.077352	0.271082	-0.602468	0.064794	-1.087158	0.213867	-0.114502	0.086867	-0.003522	0.047211	0.182485	-0.497998	-0.080590	-0.843921	-5.321075	-60.453448	-152.495276
25058		9.057622	-0.516604	5.031466	-0.057835	0.030075	0.561246	0.258023	-0.563904	-0.031700	-1.085205	0.218506	-0.112549	0.090433	-0.005246	0.050563	0.182767	-0.500128	-0.082271	-0.842437	-5.193995	-60.776883	-152.471477
25059		9.348607	-0.652321	5.400235	0.142533	0.273255	0.998847	0.189592	-0.473998	-0.134221	-1.096436	0.218262	-0.110107	0.093353	-0.006637	0.054217	0.183034	-0.503500	-0.085147	-0.840081	-4.927936	-61.298180	-152.496084
25060		9.713274	-0.864688	5.842400	0.299084	0.568154	1.537052	-0.027682	-0.365785	-0.176849	-1.093994	0.213867	-0.100830	0.097018	-0.008725	0.058603	0.182066	-0.504986	-0.085810	-0.839332	-4.791407	-61.515678	-152.669669
25061		9.905176	-1.191930	5.956036	0.199249	0.854725	1.773392	-0.385619	-0.210727	-0.148713	-1.093994	0.211670	-0.103027	0.098980	-0.011878	0.059688	0.184267	-0.505323	-0.085773	-0.838652	-5.100662	-61.544959	-152.177407
25062		9.944915	-1.441472	6.001055	0.147895	1.079730	1.840812	-0.687136	-0.033512	-0.096582	-1.091553	0.209473	-0.100586	0.099432	-0.014256	0.060076	0.182111	-0.506054	-0.083166	-0.838945	-5.396090	-61.569248	-152.289199
25063		10.481999	-1.566590	6.099252	-0.013615	1.062019	2.369230	-0.803549	0.036759	-0.038402	-1.091797	0.213867	-0.098633	0.104828	-0.015441	0.061036	0.178284	-0.506827	-0.078156	-0.839781	-5.955380	-61.535853	-152.480622
25064		11.815643	-1.531525	6.221727	-0.434957	0.735079	3.601303	-0.749149	-0.042617	0.013623	-1.089355	0.209473	-0.096191	0.118144	-0.015074	0.062299	0.176425	-0.507676	-0.075013	-0.839948	-6.403935	-61.559411	-152.458671
25065		12.888938	-1.331317	6.291290	-0.711587	0.300919	4.570647	-0.599508	-0.185468	0.035443	-1.091797	0.211670	-0.089600	0.128833	-0.013101	0.063072	0.173936	-0.509191	-0.071810	-0.839830	-6.840448	-61.672384	-152.511298
25066		12.492257	-0.826603	6.271727	-0.346891	-0.113864	4.185204	-0.409795	0.006867	0.027566	-1.093750	0.207275	-0.093750	0.124926	-0.008120	0.062730	0.173010	-0.509529	-0.070013	-0.839968	-7.103552	-61.666710	-152.479167
25067		12.549594	-0.542217	6.333828	-0.184780	-0.422366	4.247575	-0.341137	0.093726	0.181215	-1.091553	0.209473	-0.091797	0.125530	-0.005200	0.063288	0.171817	-0.510251	-0.066595	-0.840053	-7.682095	-61.661565	-152.291873
25068		12.051051	-0.476304	5.684915	-0.483562	-0.612303	3.497605	-0.276520	0.057852	0.367241	-1.091797	0.213867	-0.092041	0.120535	-0.004463	0.056821	0.172672	-0.510368	-0.064447	-0.839974	-8.217929	-61.599836	-151.862993
25069		12.032225	-0.383611	4.898804	-1.069640	-0.980252	3.102983	-0.075806	0.111484	0.466901	-1.087646	0.222900	-0.092529	0.120358	-0.003537	0.048922	0.172862	-0.510943	-0.061370	-0.839815	-8.889684	-61.571628	-151.434918
25070		11.959339	-0.119374	4.399341	-1.361882	-1.403996	2.779696	0.187394	0.152572	0.431411	-1.087646	0.225098	-0.094971	0.119629	-0.000977	0.043901	0.175197	-0.510273	-0.060923	-0.839771	-9.206539	-61.446689	-150.952267
25071		11.175557	0.365299	4.528294	-0.757587	-1.660845	2.112058	0.424733	0.236437	0.257626	-1.090088	0.225098	-0.099365	0.111804	0.003701	0.045159	0.176686	-0.509473	-0.061673	-0.839890	-9.174414	-61.353838	-150.790178
25072		9.920902	0.781826	4.864723	0.165544	-1.669084	1.136636	0.455824	0.400655	0.081166	-1.087891	0.229492	-0.104248	0.099303	0.007748	0.048466	0.178308	-0.507413	-0.063028	-0.840694	-8.930804	-61.120133	-150.770176
25073		8.972805	1.137734	4.942103	0.716502	-1.755250	0.318231	0.282049	0.573371	0.026230	-1.092529	0.229492	-0.110840	0.089868	0.011320	0.049180	0.178805	-0.505204	-0.063510	-0.841881	-8.706281	-60.850944	-150.898990
25074		8.547415	1.369846	4.474831	0.536681	-2.019663	-0.294732	0.081434	0.684659	0.010717	-1.090088	0.227051	-0.122070	0.085626	0.013685	0.044461	0.179269	-0.502252	-0.063215	-0.843570	-8.565165	-60.462539	-151.007371
25075		8.729562	1.502936	4.143041	0.176386	-2.303144	-0.310429	-0.065078	0.661329	0.039270	-1.087646	0.224854	-0.124023	0.087429	0.015060	0.041137	0.179584	-0.499627	-0.062509	-0.845113	-8.514246	-60.104183	-151.074517
25076		8.820354	1.714812	4.037443	0.077695	-2.581028	-0.306258	-0.166474	0.498255	0.071035	-1.094727	0.231445	-0.131104	0.088298	0.017213	0.040140	0.179619	-0.497693	-0.061183	-0.846342	-8.605088	-59.816193	-151.079771
25077		8.896883	1.908748	4.231352	0.248204	-2.741996	-0.162718	-0.239633	0.358342	0.055713	-1.092529	0.233643	-0.131348	0.089039	0.019163	0.042131	0.180134	-0.496607	-0.060768	-0.846900	-8.651515	-59.660370	-151.017332
25078		9.054101	2.001064	4.541082	0.436706	-2.803815	0.114559	-0.265562	0.296573	-0.013925	-1.092529	0.233643	-0.135742	0.090610	0.020064	0.045250	0.179501	-0.495588	-0.059414	-0.847728	-8.745599	-59.494031	-151.084676
25079		8.982078	2.027526	4.741453	0.627270	-2.752193	0.152344	-0.204967	0.261379	-0.119680	-1.092285	0.227051	-0.139893	0.089895	0.020270	0.047276	0.180519	-0.494545	-0.060654	-0.848033	-8.547788	-59.392867	-151.084917
25080		8.972370	1.980485	4.855955	0.682707	-2.671920	0.207330	-0.015796	0.112194	-0.246195	-1.090088	0.229248	-0.135498	0.089775	0.019698	0.048508	0.179465	-0.494011	-0.061097	-0.848536	-8.304243	-59.350425	-151.378464
25081		9.037790	1.980531	5.265708	0.983601	-2.515544	0.484703	0.134464	-0.063992	-0.401164	-1.096680	0.224854	-0.133057	0.090400	0.019589	0.052699	0.179337	-0.494133	-0.064830	-0.848215	-7.611635	-59.487053	-151.770155
25082		9.191194	2.020102	5.692262	1.269764	-2.420115	0.840538	0.015593	-0.189341	-0.530126	-1.096191	0.215820	-0.127930	0.091911	0.019953	0.057011	0.177059	-0.494751	-0.066379	-0.848213	-7.112463	-59.634094	-152.338758
25083		9.018648	1.929830	5.821703	1.439057	-2.176693	0.777096	-0.354119	-0.238528	-0.573525	-1.091553	0.211426	-0.132324	0.090172	0.019143	0.058291	0.176520	-0.495924	-0.069637	-0.847379	-6.531282	-59.888991	-152.700493
25084		8.552152	1.621708	5.671389	1.414485	-1.801827	0.320749	-0.697106	-0.255175	-0.627337	-1.098389	0.209229	-0.125244	0.085500	0.016147	0.056767	0.172036	-0.497399	-0.068468	-0.847532	-6.339357	-60.075242	-153.383440
25085		8.223508	1.339483	5.496857	1.324706	-1.465545	-0.028360	-0.981255	-0.305902	-0.681394	-1.095703	0.202637	-0.115967	0.082197	0.013385	0.055029	0.168056	-0.499001	-0.069018	-0.847344	-5.884454	-60.325169	-154.142169
25086		7.889468	0.907459	5.306895	1.181914	-1.041177	-0.392003	-1.218775	-0.347609	-0.698114	-1.099609	0.189209	-0.112793	0.078834	0.009123	0.053151	0.161925	-0.501248	-0.065892	-0.847460	-5.915524	-60.565131	-154.909217
25087		7.634448	0.518936	5.042711	0.969021	-0.665127	-0.724148	-1.359749	-0.357855	-0.687805	-1.102051	0.191406	-0.106201	0.076272	0.005270	0.050528	0.157099	-0.503474	-0.064997	-0.847118	-5.665279	-60.859277	-155.658111
25088		7.426731	0.194007	4.792127	0.774042	-0.390166	-1.014562	-1.357485	-0.333293	-0.679715	-1.097168	0.184814	-0.105957	0.074194	0.002014	0.048031	0.150680	-0.505721	-0.061224	-0.847227	-5.777126	-61.088977	-156.419718
25089		7.124591	-0.059405	4.617961	0.694935	-0.110710	-1.351384	-1.220137	-0.264645	-0.675356	-1.101318	0.171387	-0.096191	0.071183	-0.000552	0.046277	0.145622	-0.506923	-0.060427	-0.847450	-5.395802	-61.256731	-157.303277
25090		6.851826	-0.150031	4.578494	0.775918	0.019187	-1.607190	-1.025942	-0.203171	-0.692891	-1.099121	0.173584	-0.091797	0.068466	-0.001502	0.045862	0.140013	-0.508317	-0.057989	-0.847731	-5.278456	-61.410453	-158.106971
25091		6.721378	-0.100642	4.546836	0.824411	0.022967	-1.739239	-0.832749	-0.098841	-0.713350	-1.103027	0.162354	-0.086670	0.067188	-0.001057	0.045506	0.135435	-0.508743	-0.058459	-0.848187	-4.644874	-61.504255	-159.091021
25092		6.532082	0.120477	4.593056	1.011524	-0.133519	-1.891971	-0.738602	0.024802	-0.709680	-1.097900	0.146973	-0.090088	0.065331	0.001143	0.045918	0.130542	-0.508929	-0.057121	-0.848933	-4.316850	-61.522805	-159.945733
25093		6.338345	0.196491	4.556376	1.073097	-0.151862	-2.079695	-0.751775	0.150862	-0.684330	-1.106934	0.144531	-0.092285	0.063424	0.001919	0.045509	0.125814	-0.508451	-0.057248	-0.849924	-3.678529	-61.485331	-160.970992
25094		6.034750	-0.031677	4.137142	0.772823	0.024327	-2.536888	-0.747369	0.291065	-0.653554	-1.104004	0.133301	-0.091553	0.060406	-0.000360	0.041285	0.121208	-0.507497	-0.055556	-0.851275	-3.399552	-61.343028	-161.776377
25095		5.581226	-0.339769	3.707421	0.504497	0.317145	-3.130221	-0.631428	0.374790	-0.640716	-1.108154	0.124268	-0.095459	0.055871	-0.003460	0.036980	0.116786	-0.505916	-0.055609	-0.852829	-2.770184	-61.152672	-162.767926
25096		5.563825	-0.503090	3.350395	0.143222	0.411333	-3.313101	-0.460417	0.358538	-0.616087	-1.101318	0.122314	-0.097656	0.055683	-0.005125	0.033416	0.113081	-0.504487	-0.055002	-0.854213	-2.376856	-60.964374	-163.518841
25097		5.663423	-0.577112	3.205825	-0.069774	0.468080	-3.296499	-0.343985	0.323239	-0.563394	-1.107910	0.119873	-0.104248	0.056670	-0.005876	0.031977	0.109534	-0.503111	-0.055847	-0.855431	-1.723441	-60.807761	-164.395096
25098		5.807085	-0.589378	3.299763	-0.081189	0.495672	-3.126454	-0.357764	0.277169	-0.518500	-1.107910	0.115479	-0.099365	0.058101	-0.005985	0.032928	0.106480	-0.501981	-0.055478	-0.856504	-1.387675	-60.658220	-165.014974
25099		5.932271	-0.513513	3.464434	-0.005715	0.463279	-2.939322	-0.405533	0.164271	-0.471425	-1.107666	0.110840	-0.103760	0.059339	-0.005205	0.034606	0.103791	-0.500962	-0.056007	-0.857396	-0.926009	-60.536786	-165.655047
25100		6.230215	-0.351492	3.795190	0.166367	0.345899	-2.519180	-0.461315	-0.035866	-0.403684	-1.105225	0.106445	-0.101074	0.062288	-0.003553	0.037971	0.100879	-0.501248	-0.055069	-0.857637	-0.777962	-60.561984	-166.128608
25101		6.705376	-0.233162	4.046408	0.185783	0.242200	-1.983471	-0.477476	-0.289443	-0.301399	-1.112061	0.110840	-0.099121	0.066992	-0.002336	0.040567	0.098577	-0.502305	-0.054921	-0.857296	-0.569548	-60.700738	-166.547670
25102		7.337885	0.025435	4.351050	0.235764	-0.017519	-1.285039	-0.438600	-0.521215	-0.178919	-1.111572	0.099854	-0.087158	0.073265	0.000284	0.043701	0.096550	-0.504712	-0.053756	-0.856186	-0.639215	-61.001757	-166.755661
25103		8.045873	0.369678	4.454021	0.109787	-0.400781	-0.618230	-0.363131	-0.672497	-0.053678	-1.107422	0.106689	-0.078613	0.080309	0.003756	0.044804	0.095910	-0.507296	-0.053678	-0.854734	-0.662913	-61.342667	-166.802022
25104		8.728475	0.700880	4.499024	-0.033017	-0.788646	0.000329	-0.204331	-0.688464	0.055898	-1.107422	0.104492	-0.069580	0.087127	0.007079	0.045283	0.095430	-0.510358	-0.053003	-0.853005	-0.845043	-61.738152	-166.728068
25105		9.076541	0.809235	4.576253	-0.046469	-0.905594	0.343987	0.056926	-0.534140	0.101796	-1.109863	0.108887	-0.063232	0.090639	0.008125	0.046007	0.096568	-0.512342	-0.054227	-0.851610	-0.804852	-62.019102	-166.577384
25106		9.271038	0.956012	4.762124	0.103259	-1.025224	0.602785	0.351242	-0.330375	0.140787	-1.103027	0.106689	-0.062988	0.092625	0.009542	0.047791	0.097962	-0.513627	-0.055531	-0.850592	-0.757295	-62.208988	-166.403590
25107		9.477163	1.151856	4.953822	0.242296	-1.173139	0.876032	0.602164	-0.141900	0.142994	-1.100830	0.109131	-0.063232	0.094728	0.011437	0.049640	0.100623	-0.513726	-0.058775	-0.850004	-0.427102	-62.271948	-166.239513
25108		9.841210	1.396491	5.344222	0.480168	-1.345226	1.381956	0.785774	0.021097	0.112117	-1.107666	0.108887	-0.067627	0.098410	0.013810	0.053486	0.103108	-0.513283	-0.061825	-0.849757	-0.095375	-62.261473	-166.105770
25109		10.784604	1.760291	5.966167	0.666850	-1.616092	2.513903	0.895341	0.069661	0.081104	-1.107666	0.113281	-0.063477	0.107860	0.017379	0.059702	0.105858	-0.512305	-0.066311	-0.849671	0.518749	-62.204782	-166.109545
25110		12.151868	1.903248	6.560691	0.594657	-1.722824	4.007980	0.926438	-0.056314	0.032360	-1.105469	0.111084	-0.061035	0.121497	0.018748	0.065728	0.108332	-0.512073	-0.070203	-0.849186	1.018820	-62.239267	-166.074941
25111		12.221579	1.497106	6.919054	0.755278	-1.173899	4.241948	0.854434	0.064587	-0.071948	-1.112061	0.111084	-0.074463	0.122243	0.014631	0.069214	0.110833	-0.511019	-0.075064	-0.849083	1.743150	-62.181898	-166.177430
25112		12.046034	1.052287	6.952526	0.710064	-0.656293	4.101925	0.632003	0.314106	-0.198013	-1.102783	0.100098	-0.071533	0.120580	0.010184	0.069368	0.111708	-0.509273	-0.078088	-0.849744	2.310879	-62.000189	-166.410286
25113		11.940584	0.956120	6.520859	0.301733	-0.592370	3.809759	0.324058	0.318021	-0.213418	-1.100586	0.104492	-0.071777	0.119519	0.009328	0.065034	0.111789	-0.507353	-0.080823	-0.850626	2.918370	-61.788070	-166.772706
25114		11.654394	1.280719	6.446280	0.418294	-0.869357	3.532305	-0.010659	0.178809	-0.167123	-1.100586	0.102295	-0.080811	0.116612	0.012713	0.064358	0.111106	-0.506546	-0.081112	-0.851168	3.083815	-61.682936	-166.967661
25115		12.077841	1.219707	6.357965	0.116558	-0.856583	3.863507	-0.284990	-0.096183	-0.064778	-1.100830	0.106689	-0.074219	0.120752	0.012249	0.063620	0.110189	-0.506887	-0.081046	-0.851091	3.176308	-61.723879	-167.144534
25116		12.316692	0.556588	5.920424	-0.522861	-0.366083	3.849473	-0.377462	-0.155365	0.035581	-1.107422	0.106689	-0.072021	0.123120	0.005700	0.059289	0.109304	-0.507787	-0.079445	-0.850820	2.934548	-61.816181	-167.115806
25117		11.287768	-0.255444	5.489141	-0.625548	0.410079	2.719276	-0.302071	0.025882	0.054812	-1.105225	0.104492	-0.073975	0.112885	-0.002441	0.054881	0.109249	-0.507559	-0.078996	-0.851004	2.854832	-61.779046	-167.077310
25118		9.663941	-0.853449	5.072414	-0.400438	1.038574	1.078155	-0.142207	0.281820	-0.021569	-1.107422	0.104248	-0.078613	0.096710	-0.008509	0.050594	0.108891	-0.506447	-0.078300	-0.851776	2.784819	-61.619671	-167.090567
25119		8.725609	-0.875982	4.646220	-0.379565	1.057923	0.047710	0.054608	0.534513	-0.079224	-1.109619	0.104248	-0.083008	0.087376	-0.008807	0.046226	0.109121	-0.503869	-0.079268	-0.853185	3.018655	-61.292916	-167.211911
25120		8.394877	-0.774590	4.548640	-0.338305	0.967844	-0.288373	0.170092	0.646572	-0.078292	-1.102783	0.104492	-0.094238	0.084092	-0.007817	0.045208	0.109455	-0.501003	-0.079846	-0.854775	3.164226	-60.923178	-167.267120
25121		8.811286	-0.914121	4.506371	-0.670906	1.052062	0.047568	0.158837	0.446758	-0.015505	-1.100830	0.111084	-0.103760	0.088213	-0.009184	0.044859	0.110210	-0.498735	-0.081039	-0.855891	3.366690	-60.643819	-167.294590
25122		9.366518	-1.291326	4.574694	-1.007857	1.367981	0.552633	0.034791	0.086484	0.045837	-1.104980	0.102051	-0.091797	0.093688	-0.012900	0.045704	0.110513	-0.498384	-0.081034	-0.856057	3.337871	-60.598546	-167.238909
25123		9.733316	-1.458702	4.924758	-0.935335	1.572806	1.039495	-0.239070	-0.159587	0.087915	-1.098633	0.108887	-0.092285	0.097300	-0.014485	0.049343	0.110543	-0.499019	-0.080478	-0.855736	3.208105	-60.674250	-167.156525
25124		9.837037	-1.705474	5.032910	-0.925580	1.801310	1.182967	-0.563913	-0.245692	0.187626	-1.103271	0.113281	-0.090332	0.098324	-0.016820	0.050498	0.109825	-0.500475	-0.077739	-0.855231	2.708953	-60.823110	-166.955025
25125		9.875843	-2.225682	4.576232	-1.426613	2.148125	0.993692	-0.585672	-0.168185	0.290361	-1.103271	0.115479	-0.088135	0.098752	-0.021979	0.045910	0.109885	-0.501535	-0.074981	-0.854849	2.119266	-60.921051	-166.596826
25126		9.829140	-2.389974	4.224981	-1.718123	2.185306	0.791405	-0.169115	0.014025	0.346195	-1.112549	0.117676	-0.086182	0.098335	-0.023694	0.042263	0.110933	-0.501718	-0.073389	-0.854744	1.667611	-60.922457	-166.191219
25127		10.028727	-2.283688	4.335677	-1.691999	2.050075	1.028112	0.354230	0.004337	0.428724	-1.104004	0.128906	-0.089111	0.100337	-0.022699	0.043314	0.113957	-0.501577	-0.074036	-0.854373	1.437454	-60.919954	-165.650778
25128		10.121959	-1.884401	4.555044	-1.444357	1.687576	1.224494	0.817412	-0.162780	0.470671	-1.097168	0.126709	-0.088867	0.101227	-0.018792	0.045556	0.117944	-0.501998	-0.076445	-0.853372	1.426137	-61.022952	-165.102547
25129		9.918885	-1.367672	4.896550	-0.911238	1.299965	1.219571	1.054116	-0.274168	0.453432	-1.097656	0.140137	-0.087402	0.099153	-0.013710	0.049029	0.122695	-0.502720	-0.080048	-0.851946	1.549479	-61.189996	-164.525741
25130		9.378928	-1.141024	4.958710	-0.532379	1.181554	0.778607	1.145690	-0.242008	0.479453	-1.097656	0.140137	-0.085205	0.093757	-0.011470	0.049635	0.127507	-0.503252	-0.083875	-0.850555	1.713850	-61.339500	-163.964937
25131		8.643551	-0.823061	4.814727	-0.214809	0.946724	0.067979	1.205568	-0.110223	0.525992	-1.100342	0.149170	-0.081299	0.086431	-0.008294	0.048145	0.133066	-0.503182	-0.087735	-0.849355	1.811447	-61.415149	-163.268008
25132		8.011454	-0.429063	4.498505	-0.070438	0.580475	-0.633248	1.261764	0.007415	0.577623	-1.100586	0.153564	-0.083740	0.080129	-0.004343	0.044955	0.138684	-0.502576	-0.091637	-0.848403	1.927960	-61.424829	-162.577833
25133		7.627458	-0.129860	4.177804	-0.069096	0.259882	-1.119201	1.327848	0.043792	0.636148	-1.100830	0.160156	-0.086426	0.076288	-0.001333	0.041753	0.145089	-0.501796	-0.095521	-0.847364	1.949020	-61.417138	-161.725328
25134		7.320700	0.201123	3.993815	0.027548	-0.055025	-1.471233	1.410989	0.026844	0.653022	-1.096436	0.166992	-0.091309	0.073206	0.001968	0.039942	0.151397	-0.500980	-0.099841	-0.846244	2.070594	-61.418184	-160.943582
25135		7.103245	0.506671	4.078834	0.304991	-0.270681	-1.616140	1.443038	0.024395	0.616395	-1.094482	0.169189	-0.091553	0.071022	0.004991	0.040816	0.157928	-0.500106	-0.104268	-0.845033	2.187354	-61.419546	-160.127606
25136		6.927354	0.738989	4.292083	0.642152	-0.368273	-1.663559	1.364710	0.083844	0.559076	-1.103760	0.177979	-0.094238	0.069271	0.007291	0.042942	0.163737	-0.498978	-0.108569	-0.844052	2.378552	-61.387716	-159.455292
25137		6.755427	0.809653	4.678914	1.052559	-0.255433	-1.626698	1.146150	0.178918	0.517305	-1.097168	0.182617	-0.101318	0.067575	0.008003	0.046775	0.169100	-0.497591	-0.111870	-0.843382	2.436365	-61.300843	-158.768765
25138		6.503237	0.841145	4.888159	1.332090	-0.157413	-1.744574	0.805315	0.282478	0.490217	-1.088379	0.184814	-0.103760	0.065081	0.008374	0.048823	0.173322	-0.496014	-0.113807	-0.843195	2.373883	-61.154472	-158.171601
25139		6.340020	0.833433	4.863689	1.364733	-0.140839	-1.896657	0.442010	0.398381	0.469216	-1.095459	0.193604	-0.108643	0.063477	0.008376	0.048529	0.176738	-0.494229	-0.114048	-0.843501	2.088198	-60.936122	-157.560719
25140		5.945712	0.731164	4.619250	1.284681	-0.089506	-2.358492	0.125560	0.487577	0.440948	-1.091064	0.196045	-0.113281	0.059553	0.007414	0.046052	0.179182	-0.492338	-0.113057	-0.844225	1.690845	-60.668863	-157.023671
25141		5.579689	0.604864	4.332587	1.150021	-0.045682	-2.816594	-0.049380	0.473793	0.396666	-1.091309	0.202637	-0.122803	0.055887	0.006170	0.043192	0.181101	-0.490580	-0.111345	-0.845066	1.217820	-60.397551	-156.517257
25142		5.344685	0.603386	4.174315	1.113978	-0.089759	-3.096622	-0.103969	0.421312	0.346695	-1.093506	0.200439	-0.120361	0.053524	0.006148	0.041627	0.182543	-0.489114	-0.109673	-0.845824	0.801467	-60.163407	-156.107019
25143		5.209041	0.536009	3.895830	0.913084	-0.131555	-3.351432	-0.048724	0.348304	0.270812	-1.096191	0.211426	-0.129883	0.052151	0.005440	0.038866	0.183795	-0.487769	-0.108434	-0.846489	0.489482	-59.955930	-155.781852
25144		5.257519	0.493486	3.741786	0.739812	-0.176681	-3.385601	0.093807	0.265795	0.182656	-1.091309	0.204834	-0.125000	0.052620	0.004965	0.037350	0.184940	-0.486685	-0.108140	-0.846901	0.359221	-59.808188	-155.569728
25145		5.416130	0.457462	3.866285	0.737438	-0.139286	-3.184817	0.221602	0.165949	0.102525	-1.091553	0.211426	-0.129883	0.054191	0.004560	0.038623	0.186016	-0.485754	-0.108645	-0.847135	0.381393	-59.702521	-155.449665
25146		5.825286	0.421355	4.130482	0.733245	-0.093788	-2.697497	0.263253	0.067420	0.052933	-1.093506	0.202393	-0.134033	0.058266	0.004175	0.041291	0.186916	-0.485282	-0.109568	-0.847088	0.478059	-59.667960	-155.387541
25147		6.418993	0.286749	4.445847	0.643694	0.026691	-2.025763	0.234765	-0.015639	0.007992	-1.096191	0.211426	-0.134521	0.064186	0.002818	0.044467	0.187467	-0.485044	-0.110564	-0.846974	0.616143	-59.665661	-155.392402
25148		7.080702	0.063615	4.724952	0.465110	0.204488	-1.315194	0.163176	-0.133493	-0.032114	-1.091553	0.209229	-0.138916	0.070776	0.000586	0.047297	0.187652	-0.485469	-0.111457	-0.846572	0.740867	-59.745813	-155.429204
25149		7.681777	-0.135847	4.978872	0.312781	0.369743	-0.670330	0.077244	-0.292139	-0.081058	-1.086914	0.207031	-0.129639	0.076744	-0.001409	0.049900	0.187366	-0.486440	-0.112274	-0.845970	0.876728	-59.894069	-155.528415
25150		8.252347	-0.333702	5.245533	0.204756	0.552511	-0.046376	-0.057476	-0.440454	-0.130141	-1.091309	0.204834	-0.125000	0.082405	-0.003376	0.052638	0.186428	-0.488313	-0.112758	-0.845033	0.978227	-60.149071	-155.684242
25151		8.747598	-0.721629	5.561997	0.102741	0.944523	0.534975	-0.236023	-0.496248	-0.171105	-1.095459	0.197998	-0.111328	0.087331	-0.007225	0.055845	0.184763	-0.490446	-0.112598	-0.844184	1.029974	-60.419364	-155.908808
25152		9.069904	-1.227134	5.923131	0.077982	1.492229	0.986360	-0.462560	-0.431658	-0.228325	-1.095459	0.193604	-0.106445	0.090557	-0.012237	0.059455	0.182422	-0.492595	-0.111602	-0.843574	1.002347	-60.668224	-156.182089
25153		9.408304	-1.659366	6.257828	0.060813	1.949368	1.440140	-0.718141	-0.311466	-0.241867	-1.090820	0.193848	-0.104248	0.093965	-0.016482	0.062784	0.179245	-0.494378	-0.109371	-0.843504	0.855901	-60.836019	-156.508611
25154		9.723610	-1.951473	6.557577	0.092070	2.252705	1.861010	-0.925401	-0.197795	-0.210125	-1.095459	0.193604	-0.102051	0.097151	-0.019313	0.065762	0.175961	-0.495952	-0.106162	-0.843682	0.542478	-60.951845	-156.757379
25155		10.662145	-1.966589	6.756275	-0.121516	2.128927	2.782892	-0.997656	-0.148808	-0.153830	-1.093262	0.198242	-0.100098	0.106556	-0.019410	0.067739	0.172614	-0.497289	-0.102311	-0.844062	0.122352	-61.021989	-156.956371
25156		12.482056	-1.863911	7.029827	-0.604623	1.751653	4.514206	-0.946091	-0.312313	-0.046766	-1.094971	0.184814	-0.094727	0.124706	-0.018335	0.070580	0.169902	-0.499424	-0.098701	-0.843781	-0.373864	-61.204977	-157.009386
25157		12.990601	-1.332305	6.840635	-0.702163	1.071806	4.873452	-0.776219	-0.380892	-0.035597	-1.095215	0.191650	-0.086182	0.129773	-0.013080	0.068705	0.167546	-0.501569	-0.095656	-0.843331	-0.806020	-61.405651	-157.047828
25158		12.790758	-0.768727	6.586761	-0.551608	0.482332	4.576295	-0.575234	-0.108542	-0.036726	-1.097900	0.198242	-0.086426	0.127870	-0.007521	0.065959	0.165896	-0.502519	-0.093411	-0.843343	-1.100923	-61.472153	-157.087956
25159		13.403183	-0.693025	6.205818	-1.078266	0.138142	4.933697	-0.499652	-0.031383	0.115453	-1.088623	0.191650	-0.081787	0.134026	-0.006698	0.062096	0.164998	-0.503057	-0.090787	-0.843485	-1.542206	-61.474108	-156.946623
25160		13.183730	-0.691969	5.612477	-1.441252	-0.055558	4.459976	-0.377141	-0.032111	0.253987	-1.091064	0.198242	-0.084229	0.131837	-0.006646	0.056159	0.165106	-0.503648	-0.088582	-0.843346	-2.029231	-61.491930	-156.638920
25161		12.826682	-0.454788	5.053486	-1.640976	-0.435631	3.876198	-0.181903	0.085369	0.278314	-1.095703	0.198242	-0.091064	0.128295	-0.004323	0.050484	0.165753	-0.503540	-0.086816	-0.843467	-2.453527	-61.428234	-156.306717
25162		12.345673	-0.177047	4.840307	-1.504979	-0.711091	3.344243	-0.007303	0.187464	0.265628	-1.095947	0.204834	-0.086914	0.123504	-0.001605	0.048287	0.166936	-0.502901	-0.085959	-0.843703	-2.729608	-61.318013	-155.997603
25163		11.525451	0.238873	4.882179	-0.978495	-0.961390	2.631062	0.094192	0.302955	0.168813	-1.095703	0.202637	-0.091309	0.115326	0.002463	0.048648	0.168109	-0.501571	-0.085594	-0.844298	-2.861479	-61.131391	-155.787990
25164		10.342174	0.463803	4.819568	-0.464343	-0.982609	1.554920	0.064423	0.500242	0.091804	-1.093506	0.202637	-0.100342	0.103540	0.004670	0.047938	0.168871	-0.499473	-0.085214	-0.845428	-2.895540	-60.846410	-155.707477
25165		9.230754	0.557244	4.879912	0.053690	-0.857291	0.608089	-0.042485	0.711987	-0.001047	-1.100342	0.204834	-0.102539	0.092481	0.005582	0.048469	0.169172	-0.496467	-0.084421	-0.847216	-2.896166	-60.434534	-155.728443
25166		8.640669	0.669376	4.890721	0.296666	-0.871814	0.095879	-0.201896	0.861690	-0.044348	-1.093506	0.202637	-0.111572	0.086618	0.006724	0.048528	0.168844	-0.492994	-0.082945	-0.849452	-2.925839	-59.946633	-155.828202
25167		8.467096	0.761720	4.734747	0.207331	-1.012146	-0.136856	-0.346513	0.863827	-0.018638	-1.089111	0.207031	-0.120850	0.084875	0.007691	0.046968	0.168277	-0.489608	-0.080756	-0.851731	-3.069382	-59.452367	-155.894991
25168		8.437575	0.935647	4.471814	0.004934	-1.292847	-0.305150	-0.434027	0.742328	0.012353	-1.089111	0.204834	-0.127441	0.084540	0.009458	0.044384	0.167565	-0.486843	-0.078251	-0.853688	-3.292233	-59.031197	-155.925691
25169		8.524293	1.325157	4.225196	-0.147641	-1.789584	-0.376207	-0.455502	0.562068	-0.007942	-1.093506	0.204590	-0.138672	0.085362	0.013344	0.041982	0.166633	-0.484841	-0.075819	-0.855228	-3.521163	-58.711839	-155.968260
25170		8.543181	1.783010	4.071846	-0.156844	-2.297822	-0.461739	-0.433981	0.378372	-0.058822	-1.093750	0.207031	-0.134277	0.085514	0.017893	0.040518	0.165472	-0.483591	-0.073789	-0.856338	-3.694284	-58.501482	-156.057392
25171		8.527384	1.942576	3.882402	-0.274361	-2.515605	-0.584506	-0.352276	0.210055	-0.149764	-1.093506	0.204590	-0.138672	0.085329	0.019430	0.038700	0.164174	-0.482921	-0.072588	-0.857068	-3.734656	-58.388964	-156.225118
25172		8.599137	1.873078	4.059751	-0.207578	-2.412908	-0.428130	-0.166511	-0.012997	-0.288655	-1.100342	0.204590	-0.134033	0.086016	0.018640	0.040588	0.162529	-0.483038	-0.072581	-0.857316	-3.564407	-58.410794	-156.537657
25173		8.802578	1.764574	4.623062	0.108548	-2.162987	0.050443	0.002093	-0.247431	-0.457287	-1.095459	0.195801	-0.129150	0.088009	0.017444	0.046340	0.160510	-0.483970	-0.074028	-0.857047	-3.130752	-58.576201	-157.028380
25174		8.916210	1.519123	5.187855	0.435489	-1.745053	0.457912	-0.051072	-0.395628	-0.580480	-1.095215	0.189209	-0.126465	0.089103	0.014946	0.052051	0.157751	-0.485519	-0.075530	-0.856552	-2.634193	-58.823225	-157.644402
25175		8.855403	1.319311	5.604947	0.751920	-1.369854	0.633941	-0.315514	-0.412680	-0.654218	-1.097168	0.184570	-0.123779	0.088481	0.012992	0.056211	0.153968	-0.487349	-0.076254	-0.856137	-2.175840	-59.087924	-158.376484
25176		8.666066	1.042731	5.474305	0.663636	-1.069647	0.413324	-0.676335	-0.386907	-0.691527	-1.101318	0.175781	-0.114258	0.086590	0.010313	0.054876	0.149208	-0.489287	-0.075340	-0.855955	-1.913796	-59.327576	-159.133271
25177		8.420905	0.818104	5.356493	0.632610	-0.820059	0.147242	-1.030059	-0.350720	-0.697529	-1.098633	0.166748	-0.104736	0.084143	0.008164	0.053670	0.143554	-0.491324	-0.073101	-0.855949	-1.800430	-59.551444	-159.928551
25178		7.943313	0.440248	5.146102	0.592493	-0.430900	-0.366227	-1.260014	-0.319111	-0.665403	-1.098389	0.160156	-0.106689	0.079366	0.004463	0.051560	0.137489	-0.493369	-0.069569	-0.856063	-1.883144	-59.750450	-160.669914
25179		7.713123	0.208229	4.788015	0.363864	-0.263175	-0.743013	-1.321693	-0.323818	-0.638563	-1.102783	0.157959	-0.099854	0.077060	0.002153	0.047991	0.131349	-0.495459	-0.065956	-0.856106	-1.971815	-59.957906	-161.417213
25180		7.343556	-0.014859	4.612765	0.358463	-0.038381	-1.148070	-1.265109	-0.299073	-0.622802	-1.100342	0.153564	-0.090576	0.073366	-0.000085	0.046238	0.125445	-0.497383	-0.062277	-0.856151	-2.089713	-60.145863	-162.118331
25181		7.155097	-0.288206	4.336309	0.172652	0.193462	-1.445208	-1.050471	-0.374268	-0.606256	-1.106689	0.142334	-0.080811	0.071461	-0.002870	0.043512	0.120051	-0.499483	-0.059687	-0.855886	-2.058901	-60.381235	-162.833048
25182		6.915090	-0.277334	4.278740	0.275694	0.217246	-1.683747	-0.796859	-0.437406	-0.591664	-1.095215	0.135742	-0.082764	0.069049	-0.002807	0.042950	0.115395	-0.501681	-0.058015	-0.855356	-1.933185	-60.647613	-163.502598
25183		6.848104	-0.224351	4.472471	0.518086	0.240273	-1.650360	-0.588348	-0.427115	-0.582386	-1.104248	0.135742	-0.073730	0.068379	-0.002311	0.044878	0.111249	-0.503701	-0.057434	-0.854757	-1.636915	-60.910770	-164.206472
25184		6.807020	-0.132764	4.594026	0.688472	0.205866	-1.630892	-0.459456	-0.267643	-0.590185	-1.099365	0.126953	-0.075439	0.068005	-0.001423	0.046034	0.107489	-0.504959	-0.057104	-0.854518	-1.298818	-61.076906	-164.894691
25185		6.746259	-0.112489	4.656585	0.783367	0.230743	-1.655390	-0.474011	-0.041680	-0.596126	-1.108154	0.120117	-0.066162	0.067449	-0.001216	0.046583	0.103755	-0.505220	-0.056794	-0.854846	-0.917635	-61.110870	-165.617671
25186		6.589582	-0.161050	4.391041	0.609250	0.257871	-1.920157	-0.535949	0.237208	-0.588135	-1.107666	0.111084	-0.067871	0.065943	-0.001687	0.043837	0.099951	-0.504345	-0.055864	-0.855877	-0.613488	-60.983666	-166.316819
25187		6.138831	-0.520967	4.003122	0.382440	0.595048	-2.499603	-0.551716	0.488621	-0.578918	-1.098389	0.104492	-0.080811	0.061471	-0.005277	0.039896	0.096011	-0.502403	-0.054824	-0.857536	-0.286374	-60.713426	-167.055707
25188		5.955001	-0.766871	3.685807	0.109836	0.800870	-2.813994	-0.524404	0.611169	-0.571429	-1.109619	0.104248	-0.087646	0.059640	-0.007743	0.036696	0.092406	-0.499904	-0.053715	-0.859460	-0.006512	-60.368376	-167.722835
25189		5.974392	-1.006112	3.223248	-0.383891	0.955801	-3.027859	-0.450841	0.624073	-0.503565	-1.104980	0.102051	-0.098633	0.059819	-0.010139	0.032069	0.089537	-0.497217	-0.053067	-0.861361	0.272804	-60.005000	-168.288493
25190		5.925357	-1.096516	2.954346	-0.643115	1.009056	-3.209017	-0.328098	0.590999	-0.435977	-1.106934	0.095459	-0.095947	0.059317	-0.011046	0.029386	0.086997	-0.494731	-0.052471	-0.863087	0.509951	-59.668942	-168.780827
25191		5.874964	-0.918498	3.111512	-0.485197	0.876015	-3.176617	-0.271500	0.534949	-0.379530	-1.109131	0.093018	-0.100342	0.058815	-0.009254	0.030970	0.084978	-0.492398	-0.052157	-0.864640	0.731539	-59.356918	-169.190761
25192		5.840518	-0.683509	3.308573	-0.284836	0.688873	-3.106738	-0.286695	0.414814	-0.316442	-1.104492	0.088623	-0.100098	0.058463	-0.006880	0.032974	0.083009	-0.490675	-0.051518	-0.865849	0.865651	-59.120965	-169.538609
25193		5.895451	-0.398527	3.511137	-0.105105	0.443561	-2.954448	-0.267487	0.192140	-0.268400	-1.108887	0.088623	-0.106689	0.058983	-0.004017	0.035060	0.080951	-0.489965	-0.050829	-0.866486	0.974934	-59.017516	-169.877175
25194		6.253628	-0.068373	3.715356	-0.055043	0.126059	-2.539621	-0.225684	-0.090932	-0.202687	-1.106445	0.084229	-0.104248	0.062519	-0.000705	0.037183	0.079493	-0.490431	-0.050383	-0.866383	1.040088	-59.071866	-170.104566
25195		7.026961	0.417843	4.207398	0.077068	-0.332001	-1.618864	-0.159771	-0.381820	-0.109933	-1.113281	0.084229	-0.090820	0.070191	0.004174	0.042205	0.078323	-0.492179	-0.050022	-0.865519	1.065292	-59.296008	-170.264896
25196		8.089778	0.967407	4.751385	0.147723	-0.867514	-0.422194	-0.056070	-0.632886	0.005735	-1.111084	0.084229	-0.090820	0.080747	0.009690	0.047767	0.078048	-0.494972	-0.050011	-0.863950	1.038193	-59.662970	-170.271370
25197		9.104017	1.450163	5.148299	0.139968	-1.354413	0.658056	0.083285	-0.778215	0.126112	-1.108887	0.086426	-0.075195	0.090830	0.014537	0.051843	0.078018	-0.498481	-0.050080	-0.861929	0.983519	-60.126244	-170.225171
25198		9.738865	1.722945	5.288236	0.080556	-1.644173	1.280965	0.288944	-0.675892	0.212674	-1.115723	0.086426	-0.072998	0.097191	0.017256	0.053236	0.079482	-0.501365	-0.051056	-0.860063	0.945940	-60.519985	-169.992027
25199		9.896292	1.788077	5.348569	0.131429	-1.697908	1.449669	0.547185	-0.318106	0.246576	-1.113770	0.093018	-0.075684	0.098856	0.017856	0.053692	0.081197	-0.502739	-0.052636	-0.859005	1.029577	-60.722190	-169.803524
25200		9.911949	1.762716	5.618548	0.375852	-1.610055	1.597325	0.778667	0.038482	0.235322	-1.109131	0.091064	-0.073242	0.099110	0.017525	0.056235	0.084171	-0.502351	-0.055371	-0.858774	1.233773	-60.707441	-169.526795
25201		10.120097	1.758431	5.866818	0.479790	-1.549557	1.904673	0.945388	0.244995	0.170576	-1.108887	0.088623	-0.073242	0.101258	0.017393	0.058627	0.087147	-0.500999	-0.058874	-0.859034	1.612916	-60.576385	-169.356669
25202		11.340379	1.990642	6.346864	0.327764	-1.755913	3.212620	1.005109	0.222980	0.120469	-1.104736	0.097656	-0.078125	0.113463	0.019656	0.063441	0.090244	-0.499667	-0.062789	-0.859212	2.058795	-60.455576	-169.207998
25203		12.889966	1.921386	6.752785	-0.096382	-1.696215	4.766625	0.940520	-0.059677	0.103717	-1.107178	0.097656	-0.084961	0.128870	0.018963	0.067656	0.092613	-0.499646	-0.066505	-0.858693	2.522420	-60.505599	-169.159879
25204		12.763266	1.337538	7.230426	0.248116	-0.956697	4.883973	0.802578	-0.079149	-0.035635	-1.106689	0.091064	-0.082275	0.127606	0.013062	0.072408	0.094434	-0.499635	-0.070074	-0.858217	3.021590	-60.554681	-169.205739
25205		12.854141	1.029225	6.961949	-0.102706	-0.661712	4.826586	0.509409	0.105509	-0.142089	-1.102539	0.097656	-0.087158	0.128585	0.010024	0.069577	0.095172	-0.498899	-0.072725	-0.858343	3.478421	-60.493004	-169.374544
25206		12.406424	0.882589	6.405310	-0.420970	-0.568892	4.159617	0.159476	0.268589	-0.108142	-1.106934	0.093262	-0.086914	0.124155	0.008708	0.063893	0.095200	-0.497666	-0.073550	-0.858985	3.661295	-60.340327	-169.480445
25207		11.961252	1.110543	6.483982	-0.119832	-0.731644	3.818054	-0.123963	0.247166	-0.009475	-1.100342	0.099854	-0.093994	0.119693	0.011140	0.064685	0.094897	-0.496704	-0.072947	-0.859627	3.593268	-60.204550	-169.484450
25208		11.998649	0.691096	6.468502	-0.264149	-0.358596	3.828728	-0.364161	0.045860	0.134066	-1.106934	0.095459	-0.091553	0.119997	0.007109	0.064645	0.094583	-0.496764	-0.071025	-0.859788	3.247292	-60.187674	-169.326878
25209		11.289977	-0.370416	5.886556	-0.649879	0.572560	2.895657	-0.313989	0.031202	0.199594	-1.102783	0.099854	-0.091797	0.112913	-0.003499	0.058854	0.094699	-0.496879	-0.069194	-0.859858	2.868520	-60.180426	-169.092703
25210		9.944588	-1.113129	5.257381	-0.699397	1.257449	1.399072	-0.014579	0.194409	0.138900	-1.104980	0.102051	-0.089600	0.099505	-0.011058	0.052478	0.095325	-0.496134	-0.068691	-0.860259	2.711321	-60.077783	-168.921742
25211		9.072953	-1.166467	5.036288	-0.501675	1.336879	0.531596	0.359511	0.408342	0.076668	-1.112061	0.106445	-0.096680	0.090837	-0.011720	0.050156	0.096509	-0.494321	-0.069769	-0.861084	2.824118	-59.856457	-168.836153
25212		8.719483	-1.153626	5.124661	-0.303727	1.381318	0.268076	0.529899	0.508738	0.068879	-1.098145	0.102295	-0.103271	0.087329	-0.011642	0.050994	0.098291	-0.491932	-0.071632	-0.862097	3.033593	-59.572131	-168.727838
25213		8.895065	-1.493421	5.332142	-0.351458	1.744091	0.512942	0.453314	0.395749	0.100259	-1.102783	0.104248	-0.110107	0.089063	-0.015010	0.053111	0.099727	-0.490144	-0.072956	-0.862839	3.164804	-59.359509	-168.618036
25214		9.418165	-1.853711	5.455439	-0.631962	2.066044	1.014682	0.233355	0.143847	0.165725	-1.100586	0.102051	-0.107666	0.094236	-0.018523	0.054465	0.101065	-0.489504	-0.073481	-0.863002	3.129735	-59.287212	-168.422514
25215		9.793115	-1.945596	5.396628	-0.897167	2.087745	1.307133	0.000677	0.002852	0.236948	-1.103271	0.113281	-0.105957	0.097955	-0.019340	0.053965	0.102008	-0.489649	-0.072827	-0.862864	2.894831	-59.300755	-168.163696
25216		9.926617	-2.148180	5.121963	-1.236495	2.178330	1.282931	-0.122108	0.018590	0.309987	-1.107666	0.110840	-0.105957	0.099304	-0.021297	0.051223	0.103053	-0.489780	-0.071528	-0.862774	2.523695	-59.303296	-167.814157
25217		9.842292	-2.471247	4.684075	-1.630890	2.366765	0.988092	-0.006682	0.102014	0.328283	-1.103271	0.115479	-0.108398	0.098487	-0.024549	0.046791	0.103904	-0.489662	-0.070184	-0.862850	2.171483	-59.271021	-167.502444
25218		9.803077	-2.476951	4.485166	-1.787041	2.301851	0.857843	0.320274	0.075518	0.366829	-1.108154	0.124268	-0.106689	0.098093	-0.024661	0.044775	0.106298	-0.489334	-0.070625	-0.862708	1.997390	-59.240283	-167.087107
25219		9.783179	-2.060031	4.618099	-1.562320	1.911346	0.919836	0.592945	-0.078023	0.400108	-1.099365	0.128906	-0.113770	0.097855	-0.020541	0.046158	0.108815	-0.489719	-0.071711	-0.862086	1.916074	-59.312785	-166.703042
25220		9.727598	-1.521110	4.872719	-1.181630	1.445248	1.013130	0.751984	-0.170846	0.479550	-1.097168	0.131104	-0.109375	0.097271	-0.015161	0.048753	0.112663	-0.490251	-0.073865	-0.861107	1.886548	-59.424669	-166.168761
25221		9.232136	-0.966491	4.901437	-0.755014	0.964720	0.612752	0.833690	-0.106507	0.560677	-1.095459	0.140137	-0.112305	0.092322	-0.009610	0.049023	0.116823	-0.490597	-0.075714	-0.860194	1.765357	-59.508864	-165.541125
25222		8.490834	-0.644691	4.750004	-0.429157	0.699398	-0.096770	0.884920	0.069612	0.639087	-1.093506	0.149170	-0.110596	0.084945	-0.006386	0.047442	0.121770	-0.490053	-0.077906	-0.859622	1.646639	-59.484822	-164.815650
25223		7.808066	-0.526609	4.364391	-0.391324	0.557125	-0.878063	0.978458	0.266139	0.689353	-1.098145	0.153320	-0.117432	0.078157	-0.005210	0.043514	0.126812	-0.488779	-0.079642	-0.859460	1.453966	-59.358186	-164.041967
25224		7.249543	-0.497694	4.032943	-0.410925	0.504095	-1.527453	1.155497	0.390010	0.689699	-1.091797	0.160156	-0.117920	0.072591	-0.004959	0.040159	0.132756	-0.486671	-0.082667	-0.859473	1.439546	-59.149695	-163.255668
25225		6.849886	-0.338333	3.821474	-0.369842	0.340592	-1.977755	1.327818	0.403946	0.645203	-1.091797	0.164551	-0.127197	0.068587	-0.003415	0.038054	0.138339	-0.484552	-0.085866	-0.859476	1.503422	-58.945636	-162.562168
25226		6.470861	-0.119411	3.765042	-0.193453	0.176398	-2.329827	1.455518	0.378896	0.583005	-1.089600	0.166992	-0.136230	0.064783	-0.001279	0.037519	0.144534	-0.482190	-0.090437	-0.859316	1.771641	-58.743145	-161.901924
25227		6.049492	0.220272	3.990282	0.279936	-0.000633	-2.567775	1.460809	0.348394	0.514584	-1.094238	0.168945	-0.136475	0.060559	0.002067	0.039813	0.150090	-0.480037	-0.094743	-0.859105	2.053928	-58.566239	-161.332257
25228		5.668246	0.499778	4.211731	0.715011	-0.111270	-2.770404	1.281479	0.328995	0.440644	-1.087891	0.175781	-0.143555	0.056741	0.004853	0.042055	0.155217	-0.477898	-0.098934	-0.858914	2.361634	-58.392596	-160.832766
25229		5.428143	0.549933	4.457229	1.023512	-0.024014	-2.842334	0.999831	0.340414	0.387466	-1.090332	0.184570	-0.148682	0.054347	0.005382	0.044507	0.158843	-0.476093	-0.101486	-0.858956	2.513694	-58.225397	-160.445735
25230		5.317939	0.513198	4.550291	1.112063	0.067818	-2.883932	0.681046	0.421993	0.383730	-1.087891	0.180176	-0.159668	0.053265	0.005079	0.045408	0.162332	-0.473970	-0.103154	-0.859279	2.530292	-57.998593	-160.006609
25231		5.081149	0.397386	4.413592	1.053302	0.161941	-3.155359	0.465302	0.539805	0.410672	-1.093018	0.191162	-0.162354	0.050922	0.003976	0.044008	0.164932	-0.471691	-0.103153	-0.860038	2.342894	-57.711626	-159.579163
25232		4.743948	0.214907	4.173771	0.934803	0.298001	-3.566984	0.399389	0.621898	0.442663	-1.088379	0.188965	-0.173584	0.047564	0.002171	0.041594	0.168104	-0.468952	-0.103306	-0.860902	2.147607	-57.370605	-159.077446
25233		4.419014	0.149122	3.995773	0.906035	0.341110	-3.932316	0.423198	0.598600	0.435753	-1.093262	0.197754	-0.176270	0.044306	0.001503	0.039828	0.170735	-0.466426	-0.103063	-0.861786	1.934912	-57.046380	-158.639248
25234		4.391211	0.133585	3.961185	0.860257	0.336178	-3.969876	0.431430	0.476110	0.394737	-1.079834	0.200195	-0.180908	0.044004	0.001337	0.039510	0.173695	-0.464247	-0.103587	-0.862308	1.817481	-56.786244	-158.205033
25235		4.491410	0.213648	3.974784	0.834299	0.234455	-3.874146	0.386903	0.291431	0.358823	-1.086670	0.204590	-0.176758	0.044968	0.002140	0.039686	0.175574	-0.463066	-0.103559	-0.862566	1.672317	-56.638080	-157.890557
25236		4.774529	0.312962	4.077961	0.801033	0.114738	-3.578185	0.315950	0.061711	0.325930	-1.084229	0.200195	-0.183105	0.047753	0.003143	0.040770	0.177753	-0.462731	-0.104105	-0.862233	1.564292	-56.613169	-157.545421
25237		5.267806	0.309297	4.223924	0.669136	0.061372	-3.086957	0.245083	-0.192308	0.282310	-1.086670	0.204590	-0.183594	0.052633	0.003115	0.042294	0.178593	-0.463748	-0.104105	-0.861513	1.434838	-56.744670	-157.351643
25238		6.016019	0.290971	4.287654	0.355342	-0.052282	-2.428106	0.232525	-0.429656	0.229438	-1.082275	0.204834	-0.178955	0.060065	0.002929	0.043009	0.179906	-0.465552	-0.104950	-0.860163	1.371582	-56.999255	-157.118044
25239		6.822592	0.144656	4.516672	0.104967	0.005574	-1.629916	0.295943	-0.603111	0.158922	-1.089111	0.208984	-0.174805	0.068088	0.001434	0.045374	0.180659	-0.468062	-0.106158	-0.858493	1.397086	-57.353309	-156.996568
25240		7.910217	-0.003256	5.025565	-0.054541	0.120847	-0.441996	0.398100	-0.728238	0.100647	-1.089355	0.211426	-0.163574	0.078919	-0.000093	0.050543	0.181645	-0.470920	-0.108280	-0.856455	1.546865	-57.777204	-156.904802
25241		9.117739	-0.154941	5.768835	-0.069782	0.317469	0.972962	0.434244	-0.867246	0.066980	-1.089355	0.209229	-0.150146	0.090927	-0.001645	0.058079	0.182043	-0.474407	-0.110425	-0.854169	1.735036	-58.282652	-156.905314
25242		9.932602	-0.391156	6.352943	-0.028262	0.633682	1.967217	0.319006	-0.910207	0.017505	-1.089111	0.204834	-0.140869	0.099036	-0.004005	0.063974	0.182379	-0.478051	-0.112564	-0.851783	1.924012	-58.809574	-156.913611
25243		10.039399	-0.577308	6.824943	0.290644	1.006715	2.295333	0.089721	-0.669371	-0.072107	-1.091064	0.197998	-0.131348	0.100163	-0.005840	0.068582	0.181383	-0.480955	-0.113387	-0.850251	2.052961	-59.204165	-157.081829
25244		9.566678	-0.723334	6.916424	0.570817	1.300843	1.928835	-0.105951	-0.249313	-0.177060	-1.093506	0.202393	-0.138428	0.095574	-0.007281	0.069287	0.180243	-0.482053	-0.113580	-0.849845	2.166968	-59.348634	-157.286111
25245		9.276234	-0.644888	6.551157	0.461885	1.157117	1.493495	-0.345969	0.184388	-0.180619	-1.090820	0.195801	-0.137939	0.092817	-0.006419	0.065437	0.178618	-0.481535	-0.112311	-0.850650	2.135306	-59.244476	-157.497037
25246		9.629740	-0.754706	6.695837	0.344924	1.216307	1.872225	-0.493350	0.333585	-0.104477	-1.091309	0.202637	-0.134033	0.096405	-0.007432	0.066816	0.177181	-0.480540	-0.110158	-0.851794	1.936781	-59.056829	-157.596096
25247		11.357347	-0.725994	6.853386	-0.341661	0.873898	3.438907	-0.574252	-0.016835	-0.021695	-1.091064	0.197998	-0.133789	0.113567	-0.007075	0.068564	0.175555	-0.481163	-0.107651	-0.852100	1.618443	-59.069851	-157.633870
25248		12.804360	-0.602293	7.152453	-0.692371	0.567283	4.838941	-0.515842	-0.503204	-0.024303	-1.088623	0.193604	-0.131104	0.127862	-0.005853	0.071862	0.173948	-0.483787	-0.105944	-0.851157	1.354087	-59.363203	-157.671241
25249		12.734356	-0.352414	7.340800	-0.326343	0.426181	4.880392	-0.384239	-0.573628	-0.087824	-1.093262	0.197998	-0.126953	0.127131	-0.003438	0.073779	0.172366	-0.486532	-0.105020	-0.850028	1.228171	-59.693187	-157.779065
25250		12.904094	-0.109791	6.976724	-0.519026	0.056754	4.847782	-0.272410	-0.445068	0.024402	-1.090820	0.193848	-0.113281	0.128885	-0.000987	0.070056	0.171581	-0.488714	-0.104177	-0.849038	1.051984	-59.953920	-157.756854
25251		13.034091	-0.101821	6.169959	-1.153342	-0.262154	4.559753	-0.217264	-0.299350	0.223176	-1.086670	0.200439	-0.111328	0.130249	-0.000806	0.061896	0.171886	-0.490302	-0.102965	-0.848208	0.704087	-60.129532	-157.496346
25252		13.621360	-0.381758	5.145221	-2.309181	-0.496078	4.560271	-0.013786	-0.048854	0.280826	-1.091309	0.204834	-0.113770	0.136206	-0.003623	0.051486	0.173026	-0.490709	-0.102252	-0.847827	0.411456	-60.164576	-157.169095
25253		13.268397	0.277281	5.071582	-1.937798	-1.085658	4.219933	0.215928	0.105172	0.185550	-1.093506	0.200439	-0.113525	0.132708	0.002841	0.050649	0.174373	-0.490226	-0.102544	-0.847795	0.334242	-60.110134	-156.948532
25254		11.893458	0.835330	5.084188	-1.086901	-1.337257	3.033769	0.122795	0.146298	0.038860	-1.095703	0.202637	-0.115967	0.118970	0.008345	0.050760	0.174922	-0.489563	-0.102833	-0.848031	0.360165	-60.031942	-156.898312
25255		10.668116	1.130608	5.034696	-0.462568	-1.393851	1.946492	-0.131588	0.186506	-0.024044	-1.091309	0.204834	-0.125000	0.106729	0.011326	0.050240	0.174666	-0.488917	-0.102233	-0.848528	0.308877	-59.932203	-156.914818
25256		9.568097	0.905503	4.610367	-0.407035	-1.137123	0.778111	-0.356651	0.360631	-0.051577	-1.097656	0.195801	-0.124512	0.095766	0.009112	0.045915	0.173767	-0.487715	-0.100523	-0.849608	0.149193	-59.730964	-156.967527
25257		8.840908	0.866034	4.398240	-0.293757	-1.061171	0.038378	-0.489808	0.564076	-0.073159	-1.098145	0.206787	-0.127441	0.088536	0.008735	0.043711	0.172863	-0.485673	-0.098351	-0.851215	-0.053320	-59.409534	-157.010750
25258		8.619316	0.925202	4.194536	-0.372992	-1.179710	-0.262211	-0.569845	0.532947	-0.014917	-1.091309	0.207031	-0.132080	0.086305	0.009365	0.041689	0.171685	-0.483930	-0.095493	-0.852770	-0.368173	-59.109666	-157.025338
25259		8.791066	1.085932	4.068275	-0.521063	-1.445025	-0.187035	-0.607082	0.274584	0.056364	-1.091309	0.204834	-0.131836	0.087963	0.011007	0.040529	0.170566	-0.483377	-0.092494	-0.853638	-0.775913	-58.960421	-156.962305
25260		9.112719	1.351627	3.947187	-0.672127	-1.831611	0.017988	-0.649249	-0.022710	0.105219	-1.095947	0.209229	-0.129883	0.091116	0.013692	0.039438	0.169443	-0.484118	-0.089480	-0.853764	-1.253169	-58.977793	-156.840505
25261		9.229247	1.601385	3.967729	-0.596901	-2.110560	0.120863	-0.673113	-0.235419	0.106512	-1.091553	0.209229	-0.132080	0.092237	0.016197	0.039732	0.168153	-0.485823	-0.086569	-0.853350	-1.746175	-59.122621	-156.714902
25262		9.479337	1.671761	3.991379	-0.634366	-2.238979	0.344484	-0.562379	-0.411117	0.032503	-1.089355	0.211670	-0.118896	0.094708	0.016846	0.040061	0.166754	-0.488105	-0.084427	-0.852537	-2.117839	-59.362827	-156.658407
25263		10.142480	1.525979	4.173348	-0.803989	-2.176049	1.014755	-0.229807	-0.534807	-0.101444	-1.093994	0.211426	-0.114258	0.101320	0.015257	0.041987	0.165643	-0.490587	-0.084244	-0.851346	-2.166490	-59.680873	-156.736573
25264		10.577834	1.334831	4.608965	-0.676066	-1.915182	1.623638	0.159187	-0.515555	-0.246971	-1.093750	0.207031	-0.107178	0.105675	0.013181	0.046373	0.164772	-0.492587	-0.085946	-0.850189	-1.854683	-59.986458	-156.992754
25265		10.448067	1.353803	4.989808	-0.263266	-1.728354	1.712768	0.309584	-0.424547	-0.356876	-1.100342	0.204834	-0.100342	0.104398	0.013274	0.050140	0.163834	-0.494083	-0.088551	-0.849234	-1.327312	-60.250151	-157.391059
25266		10.124666	1.467440	5.310858	0.214051	-1.608541	1.599318	0.050871	-0.417568	-0.434829	-1.097656	0.195801	-0.104248	0.101167	0.014441	0.053324	0.161936	-0.495663	-0.090175	-0.848506	-0.872977	-60.499613	-157.881206
25267		9.928463	1.323487	5.483072	0.420157	-1.336706	1.519859	-0.485250	-0.404060	-0.446374	-1.100098	0.200439	-0.093262	0.099203	0.013147	0.054999	0.158698	-0.497655	-0.089671	-0.848006	-0.688319	-60.749272	-158.396880
25268		9.339162	0.888709	5.275598	0.392120	-0.876552	0.907365	-1.054011	-0.319960	-0.442081	-1.099854	0.191406	-0.092773	0.093327	0.008959	0.052858	0.154061	-0.499685	-0.086547	-0.847992	-0.847328	-60.941479	-158.907327
25269		8.654330	0.390537	4.647221	0.039902	-0.487616	0.006029	-1.298418	-0.203209	-0.451331	-1.097412	0.184814	-0.085693	0.086505	0.004012	0.046534	0.148805	-0.501431	-0.082361	-0.848317	-1.124812	-61.075198	-159.438113
25270		8.130208	0.393436	4.186457	-0.085766	-0.547719	-0.676270	-1.199350	-0.119965	-0.442906	-1.099365	0.180420	-0.076416	0.081286	0.004005	0.041889	0.143875	-0.502683	-0.078463	-0.848795	-1.359668	-61.154913	-159.955708
25271		7.566906	0.424610	4.186171	0.190905	-0.490543	-1.170622	-0.989590	-0.131997	-0.439332	-1.097168	0.180420	-0.074219	0.075651	0.004287	0.041890	0.139526	-0.503863	-0.075616	-0.849080	-1.453181	-61.251684	-160.476028
25272		7.209710	0.315333	4.293292	0.420006	-0.302347	-1.431525	-0.816659	-0.191666	-0.456985	-1.101074	0.169189	-0.069092	0.072063	0.003164	0.042989	0.135462	-0.505112	-0.073424	-0.849188	-1.452677	-61.373618	-161.010984
25273		7.053153	0.204282	4.382949	0.545137	-0.142385	-1.525258	-0.695743	-0.142696	-0.486092	-1.103516	0.169189	-0.069092	0.070505	0.002024	0.043873	0.131556	-0.506124	-0.071889	-0.849331	-1.326358	-61.479795	-161.601561
25274		6.765779	0.198540	4.394320	0.686493	-0.085255	-1.772371	-0.652045	0.007561	-0.500639	-1.100830	0.160400	-0.068604	0.067664	0.001959	0.043934	0.127789	-0.506381	-0.070373	-0.849880	-1.176736	-61.487298	-162.198016
25275		6.509921	0.207562	4.305223	0.720616	-0.074379	-2.038869	-0.615268	0.204860	-0.492532	-1.103027	0.162354	-0.075439	0.065148	0.002048	0.042979	0.124275	-0.505801	-0.069035	-0.850855	-0.985880	-61.388404	-162.795170
25276		6.254747	0.230916	4.246654	0.767422	-0.077248	-2.288444	-0.547373	0.474088	-0.462868	-1.098145	0.153564	-0.074951	0.062653	0.002280	0.042312	0.121091	-0.504004	-0.067573	-0.852497	-0.812830	-61.126570	-163.351224
25277		5.648019	0.081987	3.987911	0.747087	0.082120	-2.939173	-0.533626	0.702451	-0.435111	-1.100342	0.151367	-0.090332	0.056622	0.000803	0.039678	0.118268	-0.501210	-0.066115	-0.854652	-0.649783	-60.733966	-163.862047
25278		4.934489	-0.036802	3.231600	0.368950	0.111055	-3.926674	-0.454808	0.743436	-0.448840	-1.104492	0.142334	-0.094238	0.049464	-0.000406	0.032133	0.115462	-0.498192	-0.064846	-0.856894	-0.452530	-60.316098	-164.388941
25279		4.533652	-0.172772	2.378363	-0.231419	0.102429	-4.696409	-0.333977	0.677160	-0.435177	-1.106689	0.139893	-0.094238	0.045413	-0.001787	0.023633	0.113315	-0.495292	-0.064396	-0.858894	-0.186252	-59.928428	-164.861158
25280		4.062112	-0.357894	1.819057	-0.549020	0.222188	-5.386971	-0.318571	0.569704	-0.429482	-1.102051	0.140137	-0.103271	0.040665	-0.003637	0.018081	0.110872	-0.492927	-0.063760	-0.860619	0.050029	-59.607860	-165.346864
25281		3.797990	-0.362381	1.715435	-0.528976	0.243039	-5.670243	-0.417640	0.466867	-0.429566	-1.104004	0.133301	-0.107178	0.038012	-0.003670	0.017073	0.108154	-0.491084	-0.062834	-0.862086	0.237393	-59.350712	-165.833796
25282		3.659986	-0.392442	1.833774	-0.385606	0.318490	-5.730764	-0.544290	0.376691	-0.444774	-1.104248	0.137695	-0.107422	0.036626	-0.003956	0.018280	0.105025	-0.489655	-0.061367	-0.863390	0.347967	-59.139168	-166.326332
25283		3.677196	-0.499955	2.166242	-0.152622	0.492863	-5.546762	-0.652293	0.238754	-0.487536	-1.110596	0.130859	-0.109375	0.036786	-0.005019	0.021635	0.101306	-0.488915	-0.059559	-0.864379	0.434329	-59.012942	-166.876535
25284		4.027886	-0.546624	2.468186	-0.087540	0.562411	-5.091392	-0.655158	-0.067918	-0.514029	-1.108154	0.122070	-0.108887	0.040256	-0.005489	0.024713	0.097470	-0.489427	-0.058008	-0.864636	0.546336	-59.054945	-167.445911
25285		4.984331	-0.445648	3.072623	-0.020560	0.486209	-3.960658	-0.573385	-0.492404	-0.518247	-1.110352	0.122070	-0.097656	0.049756	-0.004497	0.030862	0.093537	-0.491799	-0.056946	-0.863795	0.716497	-59.348097	-168.047675
25286		6.944640	-0.089665	3.943858	-0.135079	0.120336	-1.827904	-0.485029	-1.038489	-0.458720	-1.109863	0.110840	-0.087891	0.069238	-0.000959	0.039801	0.090074	-0.496415	-0.056453	-0.861552	0.897627	-59.945002	-168.580597
25287		10.797432	0.670753	5.176568	-0.673132	-0.735275	2.138608	-0.313702	-1.873759	-0.157418	-1.112305	0.113281	-0.063477	0.107488	0.006705	0.052764	0.087834	-0.504725	-0.056176	-0.856961	0.901195	-61.036431	-168.827081
25288		13.202597	1.672878	6.675434	-0.038681	-1.618430	4.987209	-0.166854	-2.427678	0.143211	-1.112549	0.115723	-0.029785	0.131191	0.016879	0.068336	0.087346	-0.515247	-0.056150	-0.850728	0.684363	-62.434105	-168.690424
25289		12.318466	2.233218	7.161294	1.198622	-1.947901	4.427406	0.105302	-1.656438	0.020710	-1.105469	0.111328	-0.018311	0.122584	0.022307	0.072642	0.086772	-0.522486	-0.056964	-0.846306	0.735429	-63.412567	-168.746162
25290		11.552243	1.279188	6.326814	0.735267	-1.056936	3.357784	0.531648	-0.158935	-0.013359	-1.110107	0.113525	-0.025146	0.115473	0.012616	0.063394	0.088067	-0.522967	-0.059306	-0.845714	1.053421	-63.509335	-168.762094
25291		10.184469	0.523000	5.256087	0.224963	-0.375022	1.651688	0.634757	0.423113	0.052151	-1.101318	0.120361	-0.021240	0.101954	0.005090	0.052362	0.090037	-0.521001	-0.061686	-0.846550	1.353724	-63.279923	-168.692141
25292		9.744899	0.736377	4.811415	0.042126	-0.621270	1.062386	0.485287	0.230963	0.131317	-1.107910	0.115723	-0.032227	0.097500	0.007311	0.048019	0.091936	-0.519888	-0.063283	-0.846912	1.471633	-63.155362	-168.513734
25293		10.182377	1.198092	4.689804	-0.162249	-1.133323	1.403361	0.387418	0.018134	0.187929	-1.105957	0.120361	-0.032471	0.101817	0.011986	0.046912	0.093569	-0.519825	-0.064269	-0.846698	1.466506	-63.163134	-168.289214
25294		11.192391	1.587530	5.401539	0.109008	-1.453407	2.630872	0.493458	-0.097557	0.180346	-1.101318	0.118164	-0.020996	0.111883	0.015843	0.054109	0.095592	-0.520108	-0.065923	-0.846170	1.542922	-63.227638	-168.059043
25295		11.769566	1.553448	6.320039	0.670277	-1.260401	3.560448	0.497143	-0.193448	0.093940	-1.101318	0.118164	-0.025635	0.117627	0.015432	0.063353	0.097045	-0.520865	-0.067782	-0.845392	1.726489	-63.358045	-167.968476
25296		12.285878	0.935000	6.232834	0.235247	-0.694578	3.975980	0.412195	0.004164	-0.090235	-1.099121	0.120361	-0.030273	0.122864	0.009166	0.062345	0.097747	-0.520661	-0.069746	-0.845277	2.060712	-63.359935	-168.079157
25297		12.521451	0.410232	6.093921	-0.139331	-0.201927	4.116793	0.180396	0.300229	-0.256451	-1.103760	0.122559	-0.030273	0.125311	0.003887	0.060755	0.097269	-0.519289	-0.071087	-0.846064	2.448478	-63.193203	-168.389589
25298		12.273585	0.312116	6.123770	-0.100841	-0.054168	3.906821	-0.126984	0.669957	-0.376117	-1.098877	0.113770	-0.038818	0.122946	0.002929	0.060824	0.095595	-0.516425	-0.071189	-0.847997	2.759376	-62.805972	-168.821153
25299		12.497222	0.892467	6.405789	0.081620	-0.588449	4.246376	-0.687827	0.723906	-0.239652	-1.103516	0.115723	-0.045654	0.125214	0.008994	0.063574	0.092946	-0.513708	-0.068431	-0.850166	2.580696	-62.398904	-169.084685
25300		12.961881	0.697493	5.647577	-0.906155	-0.670931	4.298285	-1.316282	0.520277	0.092790	-1.103516	0.115723	-0.052246	0.129762	0.007405	0.056091	0.090144	-0.512173	-0.062342	-0.851860	1.699637	-62.109034	-168.942301
25301		12.066553	-1.162897	4.071309	-2.290816	0.816659	2.741760	-1.263538	0.341453	0.261495	-1.101318	0.120117	-0.052734	0.120750	-0.011214	0.040579	0.088054	-0.511451	-0.056035	-0.852951	0.671995	-61.927464	-168.615196
25302		10.871065	-2.388373	3.860043	-2.192908	2.018054	1.584798	-0.502486	0.364263	0.228435	-1.099121	0.122559	-0.057373	0.108808	-0.023663	0.038462	0.087855	-0.510226	-0.053134	-0.853890	0.131861	-61.725651	-168.330049
25303		9.888207	-2.306018	4.477674	-1.212367	2.104464	1.015295	0.069129	0.293692	0.215613	-1.101563	0.126953	-0.055176	0.098972	-0.022969	0.044623	0.089001	-0.509092	-0.052662	-0.854477	-0.074980	-61.568766	-168.062550
25304		9.406457	-1.668192	4.483761	-0.883715	1.509882	0.594406	0.314367	0.300537	0.198765	-1.106201	0.128906	-0.059814	0.094148	-0.016659	0.044670	0.090741	-0.507766	-0.053352	-0.855040	-0.109271	-61.402338	-167.819521
25305		9.316398	-1.066823	4.170908	-1.014810	0.864341	0.363404	0.444601	0.299472	0.172689	-1.102051	0.135742	-0.064697	0.093235	-0.010680	0.041546	0.092380	-0.506522	-0.054393	-0.855537	-0.061288	-61.252274	-167.637953
25306		9.560598	-0.866821	3.962326	-1.292406	0.603349	0.474297	0.549875	0.144084	0.155183	-1.106689	0.137939	-0.067139	0.095641	-0.008703	0.039530	0.094487	-0.505738	-0.056273	-0.855648	0.086505	-61.175749	-167.448093
25307		9.981460	-1.156357	3.737106	-1.752222	0.801814	0.733377	0.586927	-0.060667	0.146061	-1.102051	0.135742	-0.064697	0.099812	-0.011600	0.037367	0.096199	-0.505960	-0.057996	-0.855212	0.220410	-61.230576	-167.294443
25308		10.299697	-1.569166	4.009408	-1.758142	1.230262	1.142530	0.477577	-0.132217	0.142627	-1.099609	0.133545	-0.064697	0.102982	-0.015714	0.040125	0.097992	-0.506382	-0.059727	-0.854639	0.339983	-61.312783	-167.119749
25309		10.569937	-1.992736	4.375690	-1.650633	1.686345	1.557135	0.253052	-0.189603	0.207505	-1.102295	0.142578	-0.062988	0.105678	-0.019873	0.043832	0.099171	-0.507334	-0.060075	-0.853913	0.236491	-61.444504	-166.891606
25310		10.625925	-2.185275	4.613053	-1.496300	1.898069	1.725261	0.054253	-0.185422	0.331764	-1.102295	0.142578	-0.060791	0.106252	-0.021689	0.046223	0.100682	-0.508245	-0.059544	-0.853232	-0.088191	-61.557086	-166.487777
25311		10.426236	-2.380721	4.497303	-1.519327	2.052165	1.504559	0.107196	-0.144972	0.441032	-1.098389	0.156006	-0.059326	0.104282	-0.023601	0.045036	0.102421	-0.509160	-0.058527	-0.852550	-0.543526	-61.661289	-165.974810
25312		10.106525	-2.340646	3.978592	-1.794952	1.907365	0.984982	0.440808	-0.084219	0.515703	-1.096191	0.160400	-0.057373	0.101109	-0.023233	0.039777	0.105731	-0.509489	-0.059122	-0.851908	-0.846811	-61.712057	-165.344426
25313		9.588362	-1.864192	3.823237	-1.569076	1.442783	0.457919	0.851137	-0.071138	0.554493	-1.098633	0.162598	-0.059570	0.095922	-0.018539	0.038187	0.109700	-0.509770	-0.060697	-0.851126	-1.032483	-61.772274	-164.693857
25314		9.239055	-1.358895	3.979221	-1.152324	1.015264	0.221371	1.141952	-0.162158	0.568406	-1.087646	0.167236	-0.060059	0.092397	-0.013554	0.039790	0.114994	-0.510044	-0.064181	-0.850007	-0.995857	-61.865537	-163.994136
25315		8.997012	-0.945212	4.117579	-0.807000	0.673228	0.071119	1.313955	-0.223149	0.601476	-1.094727	0.173828	-0.055908	0.089953	-0.009452	0.041214	0.120541	-0.510625	-0.067926	-0.848597	-0.954560	-62.007178	-163.257036
25316		8.635066	-0.706541	4.093508	-0.592017	0.490597	-0.261290	1.426599	-0.175101	0.627039	-1.092773	0.182861	-0.058594	0.086337	-0.007087	0.040960	0.126797	-0.510754	-0.072467	-0.847231	-0.824489	-62.108079	-162.480039
25317		8.183425	-0.442851	4.074851	-0.324205	0.300347	-0.670825	1.473244	-0.061515	0.640560	-1.097656	0.193848	-0.059326	0.081836	-0.004467	0.040741	0.132800	-0.510564	-0.076574	-0.846064	-0.740311	-62.162816	-161.712742
25318		7.670798	-0.172640	4.059050	-0.033631	0.119928	-1.133326	1.461960	0.045744	0.663528	-1.091064	0.198486	-0.066406	0.076723	-0.001768	0.040560	0.139369	-0.509687	-0.081017	-0.845122	-0.628971	-62.138296	-160.892325
25319		7.315942	0.106701	3.928556	0.096347	-0.126269	-1.509513	1.421756	0.141694	0.658353	-1.091553	0.207275	-0.071289	0.073184	0.001029	0.039241	0.145325	-0.508611	-0.084608	-0.844415	-0.604299	-62.073490	-160.106353
25320		6.975281	0.238577	3.896837	0.249676	-0.201675	-1.825587	1.365750	0.237689	0.618703	-1.080322	0.209717	-0.080566	0.069792	0.002336	0.038902	0.151524	-0.506913	-0.088611	-0.843936	-0.493844	-61.940186	-159.346282
25321		6.629197	0.300308	3.946042	0.445332	-0.185658	-2.107180	1.301921	0.326580	0.546220	-1.087402	0.218506	-0.078857	0.066348	0.002928	0.039371	0.157094	-0.504924	-0.092060	-0.843740	-0.398509	-61.760084	-158.667668
25322		6.319293	0.517189	4.048032	0.719002	-0.296565	-2.330539	1.125637	0.379609	0.483375	-1.089844	0.220703	-0.090088	0.063257	0.005097	0.040389	0.162165	-0.502701	-0.095274	-0.843752	-0.272348	-61.547234	-158.079250
25323		5.980561	0.597161	4.111836	0.928019	-0.291580	-2.595721	0.807989	0.404846	0.447151	-1.083008	0.220703	-0.087891	0.059875	0.005940	0.041021	0.165963	-0.500747	-0.096821	-0.843999	-0.331686	-61.329948	-157.553991
25324		5.699857	0.479726	4.053435	0.939607	-0.159516	-2.867150	0.462618	0.383854	0.435438	-1.085693	0.227295	-0.097412	0.057066	0.004828	0.040436	0.169162	-0.499001	-0.097350	-0.844337	-0.525739	-61.114437	-157.031239
25325		5.468211	0.330069	4.021450	0.945664	-0.008285	-3.083057	0.177542	0.329118	0.422251	-1.088135	0.236328	-0.102295	0.054741	0.003381	0.040127	0.171342	-0.497849	-0.096539	-0.844671	-0.886916	-60.940926	-156.544396
25326		5.310514	0.219153	4.004068	0.948804	0.093318	-3.226858	-0.009013	0.297328	0.409877	-1.085938	0.234131	-0.099854	0.053160	0.002302	0.039962	0.173212	-0.496849	-0.095211	-0.845029	-1.315317	-60.772361	-156.060880
25327		5.110463	0.074197	3.969229	0.947357	0.225199	-3.415123	-0.106997	0.302378	0.380948	-1.088379	0.242920	-0.109375	0.051163	0.000861	0.039615	0.174501	-0.496008	-0.093337	-0.845467	-1.784255	-60.609037	-155.633427
25328		4.846843	-0.005671	3.794028	0.883863	0.266538	-3.727111	-0.090860	0.336176	0.327201	-1.081543	0.240723	-0.111572	0.048532	0.000040	0.037859	0.175834	-0.494869	-0.091834	-0.846022	-2.164065	-60.416317	-155.257980
25329		4.709858	-0.016983	3.540049	0.724474	0.198047	-3.968814	0.001244	0.376529	0.272710	-1.088867	0.249512	-0.109863	0.047165	-0.000106	0.035312	0.177138	-0.493494	-0.090757	-0.846669	-2.439562	-60.204671	-154.951853
25330		4.692451	0.027659	3.503813	0.704624	0.130531	-4.000375	0.119565	0.393642	0.246117	-1.077637	0.251953	-0.116699	0.046993	0.000313	0.034946	0.178673	-0.491884	-0.090293	-0.847333	-2.606876	-59.979341	-154.680884
25331		4.907170	0.016199	3.598780	0.663502	0.112444	-3.764639	0.215805	0.326844	0.223957	-1.082275	0.254150	-0.123535	0.049130	0.000178	0.035908	0.180150	-0.490549	-0.090207	-0.847803	-2.710749	-59.800540	-154.448241
25332		5.352471	-0.176034	3.874695	0.593248	0.275889	-3.235064	0.275688	0.164426	0.191287	-1.082031	0.251953	-0.125732	0.053558	-0.001762	0.038700	0.181731	-0.489741	-0.090745	-0.847876	-2.741016	-59.707436	-154.231448
25333		6.195830	-0.349227	4.157242	0.364007	0.344463	-2.360052	0.334774	-0.081190	0.146124	-1.075439	0.251953	-0.121338	0.061944	-0.003517	0.041592	0.183128	-0.489930	-0.091832	-0.847349	-2.710001	-59.759253	-154.052444
25334		7.496183	-0.690025	4.714415	0.097424	0.572472	-0.949433	0.426455	-0.409697	0.096801	-1.080078	0.258545	-0.114990	0.074868	-0.006965	0.047283	0.184414	-0.491369	-0.093763	-0.846024	-2.588047	-59.997396	-153.912041
25335		8.633474	-0.974799	5.489822	0.131768	0.884434	0.425731	0.449835	-0.723626	-0.004635	-1.082031	0.251953	-0.110107	0.086135	-0.009874	0.055188	0.185090	-0.494127	-0.096257	-0.843988	-2.373020	-60.424534	-153.879330
25336		9.026673	-1.189281	6.235107	0.523887	1.310351	1.131700	0.312032	-0.773180	-0.164218	-1.082031	0.251953	-0.105469	0.090015	-0.012064	0.062681	0.184813	-0.497070	-0.098681	-0.842038	-2.065909	-60.877117	-154.027644
25337		9.369971	-1.334924	6.627113	0.687156	1.566207	1.614094	0.032332	-0.602563	-0.263086	-1.086670	0.249756	-0.094238	0.093482	-0.013483	0.066551	0.183484	-0.499531	-0.099992	-0.840716	-1.808019	-61.237520	-154.306686
25338		9.695744	-1.664423	6.559131	0.411199	1.808335	1.864665	-0.406094	-0.400961	-0.179216	-1.079834	0.247559	-0.089600	0.096811	-0.016598	0.065819	0.181534	-0.501550	-0.099087	-0.840045	-1.874815	-61.476744	-154.496781
25339		9.823423	-2.080053	6.368802	0.091586	2.088226	1.892803	-0.784045	-0.209041	-0.028164	-1.084229	0.245361	-0.087158	0.098165	-0.020564	0.063872	0.179295	-0.503223	-0.095968	-0.839887	-2.319742	-61.607814	-154.516091
25340		9.995526	-2.318527	6.205298	-0.157290	2.178220	1.978074	-0.828069	-0.076174	0.105067	-1.084473	0.251953	-0.087646	0.099944	-0.022875	0.062186	0.177634	-0.504383	-0.092279	-0.839958	-2.918017	-61.654932	-154.376455
25341		10.544214	-2.292149	6.273132	-0.282518	2.016390	2.501558	-0.596536	-0.048726	0.179423	-1.084473	0.254150	-0.076416	0.105447	-0.022640	0.062825	0.176875	-0.505262	-0.089307	-0.839910	-3.470857	-61.683722	-154.143085
25342		11.727535	-2.090395	6.725950	-0.306694	1.693935	3.758592	-0.264209	-0.053705	0.205532	-1.082031	0.247559	-0.078369	0.117279	-0.020695	0.067318	0.177066	-0.505865	-0.087711	-0.839676	-3.853142	-61.713100	-153.881927
25343		13.116792	-1.638161	7.575855	-0.000872	1.235934	5.372825	-0.001328	-0.086153	0.206388	-1.080078	0.256592	-0.076660	0.131152	-0.016246	0.075815	0.177857	-0.506413	-0.087178	-0.839233	-4.098607	-61.764210	-153.616970
25344		12.990764	-1.203507	8.158344	0.709171	1.036023	5.523240	0.131534	0.025224	0.152335	-1.082031	0.249756	-0.080811	0.129927	-0.011990	0.081559	0.178860	-0.506309	-0.087307	-0.839070	-4.192489	-61.749658	-153.425961
25345		12.360616	-0.765158	8.153184	1.125991	0.749186	4.952659	0.148091	0.254661	0.113345	-1.075439	0.252197	-0.078613	0.123714	-0.007642	0.081369	0.179844	-0.505221	-0.087368	-0.839508	-4.224487	-61.606249	-153.297731
25346		12.537685	-0.604221	7.770991	0.772763	0.411453	4.924351	0.073012	0.248326	0.220511	-1.080078	0.254395	-0.085449	0.125480	-0.005932	0.077552	0.181082	-0.504261	-0.086880	-0.839870	-4.404350	-61.461032	-153.046664
25347		12.649383	-0.479059	6.903706	0.048238	-0.048265	4.605800	0.102509	0.189494	0.258179	-1.078125	0.263184	-0.090576	0.126565	-0.004663	0.068915	0.182535	-0.503545	-0.086460	-0.840029	-4.614013	-61.347994	-152.743092
25348		12.655364	-0.385317	5.915265	-0.736544	-0.488431	4.134210	0.242649	0.153081	0.207069	-1.080078	0.256592	-0.087891	0.126603	-0.003794	0.059051	0.184101	-0.502821	-0.086804	-0.840085	-4.687047	-61.257102	-152.502465
25349		12.276230	0.031966	5.184867	-1.019820	-1.038774	3.433843	0.431351	0.144775	0.102431	-1.082520	0.258789	-0.094727	0.122800	0.000271	0.051760	0.185717	-0.501909	-0.088195	-0.840130	-4.548532	-61.174952	-152.380056
25350		12.025250	0.476904	5.141340	-0.789601	-1.395710	3.175612	0.462560	0.117606	-0.003557	-1.082520	0.260986	-0.099365	0.120283	0.004648	0.051354	0.186933	-0.501034	-0.090024	-0.840188	-4.279328	-61.114090	-152.385964
25351		11.230742	0.662551	5.042822	-0.485700	-1.404813	2.426144	0.342594	0.289940	-0.136957	-1.082520	0.258789	-0.096924	0.112385	0.006462	0.050276	0.187428	-0.499465	-0.091558	-0.840846	-3.928066	-60.958482	-152.555516
25352		9.991111	1.071521	5.301020	0.368033	-1.408574	1.454582	0.095779	0.577229	-0.160461	-1.086670	0.251953	-0.107666	0.100072	0.010610	0.052727	0.187274	-0.496925	-0.091807	-0.842357	-3.678448	-60.640780	-152.779749
25353		8.611652	0.990654	5.001216	0.630412	-1.143855	0.109402	-0.239405	0.684464	-0.175612	-1.080078	0.254150	-0.114746	0.086296	0.009890	0.049705	0.186307	-0.494238	-0.090625	-0.844278	-3.598822	-60.263636	-153.022589
25354		7.881334	0.905917	4.516033	0.467754	-1.093881	-0.762002	-0.461469	0.705394	-0.229395	-1.080078	0.256348	-0.116943	0.078982	0.009072	0.044861	0.184535	-0.491634	-0.088573	-0.846403	-3.599658	-59.874742	-153.327872
25355		7.690325	0.966327	4.186249	0.259658	-1.245289	-1.095972	-0.615201	0.577152	-0.240858	-1.084229	0.249512	-0.123291	0.077035	0.009699	0.041611	0.182292	-0.489704	-0.086018	-0.848269	-3.689897	-59.560276	-153.631291
25356		7.788427	1.060621	3.997648	0.062772	-1.441819	-1.113101	-0.691470	0.340472	-0.223073	-1.079590	0.247314	-0.125488	0.077964	0.010657	0.039807	0.179817	-0.488843	-0.083307	-0.849564	-3.856239	-59.380240	-153.899291
25357		7.758408	1.142643	3.943432	0.043132	-1.548597	-1.172715	-0.669510	0.159275	-0.197187	-1.081787	0.247314	-0.127686	0.077627	0.011482	0.039334	0.177468	-0.488734	-0.080850	-0.850357	-4.040166	-59.304592	-154.122711
25358		7.647289	1.226617	4.016827	0.172868	-1.593947	-1.236561	-0.567252	0.085726	-0.206609	-1.086426	0.245117	-0.120850	0.076503	0.012301	0.040101	0.175256	-0.488839	-0.078853	-0.850943	-4.168636	-59.270258	-154.352484
25359		7.390867	1.348239	4.078678	0.378014	-1.636266	-1.430682	-0.397651	0.017430	-0.265326	-1.085938	0.238281	-0.122559	0.073930	0.013465	0.040754	0.173209	-0.489067	-0.077843	-0.851324	-4.140277	-59.280118	-154.642751
25360		7.570641	1.498240	4.121794	0.383751	-1.789555	-1.257064	-0.183916	-0.199846	-0.388403	-1.088379	0.240723	-0.115967	0.075694	0.014873	0.041280	0.171047	-0.489976	-0.078169	-0.851208	-3.892684	-59.416126	-155.054213
25361		8.318298	1.628834	4.331697	0.272106	-1.963642	-0.502454	0.056667	-0.533620	-0.560747	-1.090088	0.227295	-0.113037	0.083112	0.016043	0.043543	0.168620	-0.492053	-0.080310	-0.850295	-3.342119	-59.753300	-155.646322
25362		9.064527	1.707783	4.672995	0.269207	-2.012613	0.326106	0.164539	-0.733619	-0.684121	-1.088135	0.231689	-0.102051	0.090531	0.016729	0.047076	0.165838	-0.494805	-0.083296	-0.848957	-2.616297	-60.199738	-156.376899
25363		9.238807	1.657195	4.928793	0.420474	-1.832147	0.620938	0.002999	-0.688878	-0.732818	-1.094238	0.218262	-0.094482	0.092277	0.016233	0.049606	0.162457	-0.497501	-0.085739	-0.847791	-1.900357	-60.623082	-157.193517
25364		9.054723	1.534904	4.928014	0.492059	-1.608358	0.473222	-0.319110	-0.552170	-0.724485	-1.086914	0.207275	-0.084961	0.090466	0.015100	0.049506	0.158371	-0.499837	-0.086622	-0.847100	-1.365112	-60.957566	-158.017365
25365		8.552109	1.313822	5.047403	0.763226	-1.224031	0.099935	-0.725538	-0.437339	-0.713890	-1.093750	0.205078	-0.080322	0.085457	0.013017	0.050614	0.153328	-0.502054	-0.085727	-0.846807	-1.044009	-61.231993	-158.855976
25366		8.185321	0.902652	4.899913	0.688289	-0.799007	-0.288445	-1.164123	-0.400758	-0.661460	-1.095459	0.193848	-0.077393	0.081785	0.009042	0.049110	0.147447	-0.504400	-0.082749	-0.846754	-1.032895	-61.474926	-159.629824
25367		7.923624	0.454234	4.466122	0.328768	-0.457717	-0.723205	-1.462322	-0.427512	-0.579436	-1.104248	0.189209	-0.059082	0.079154	0.004640	0.044797	0.141139	-0.507112	-0.078398	-0.846623	-1.258442	-61.738516	-160.318431
25368		7.820077	0.155213	3.996015	-0.073909	-0.294798	-1.034685	-1.496861	-0.444839	-0.527082	-1.099609	0.185059	-0.054199	0.078116	0.001646	0.040122	0.134951	-0.509880	-0.073694	-0.846392	-1.571202	-62.007247	-160.937429
25369		7.604439	0.076080	3.842950	-0.090027	-0.227767	-1.295560	-1.308345	-0.422917	-0.523520	-1.097168	0.178223	-0.047119	0.075965	0.000814	0.038585	0.129154	-0.512500	-0.069809	-0.846043	-1.756601	-62.279495	-161.579570
25370		7.423623	0.166692	3.927097	0.121082	-0.262466	-1.417663	-1.022569	-0.377651	-0.545679	-1.101563	0.178223	-0.044922	0.074166	0.001666	0.039403	0.124109	-0.514610	-0.067108	-0.845736	-1.765850	-62.511900	-162.231448
25371		7.231858	0.313208	4.053620	0.380187	-0.331762	-1.531682	-0.747209	-0.314195	-0.566721	-1.098877	0.169434	-0.044434	0.072264	0.003079	0.040638	0.119650	-0.516318	-0.065642	-0.845453	-1.570305	-62.717052	-162.932762
25372		7.077165	0.456605	4.242956	0.665356	-0.386304	-1.584355	-0.571187	-0.239967	-0.578630	-1.098389	0.158203	-0.041504	0.070734	0.004483	0.042502	0.115668	-0.517532	-0.064847	-0.845326	-1.267791	-62.869292	-163.642057
25373		6.814606	0.488707	4.281094	0.829280	-0.352221	-1.800593	-0.473643	-0.150657	-0.589372	-1.100586	0.156006	-0.032227	0.068128	0.004788	0.042851	0.112014	-0.518268	-0.064620	-0.845385	-0.863471	-62.967451	-164.375682
25374		6.657636	0.532931	4.355432	0.972889	-0.338663	-1.905938	-0.443830	-0.030812	-0.600597	-1.109131	0.144775	-0.036133	0.066585	0.005226	0.043553	0.108332	-0.518501	-0.064300	-0.845746	-0.451468	-62.995676	-165.124767
25375		6.521839	0.470263	4.336450	0.988576	-0.246926	-2.033098	-0.444834	0.155644	-0.599934	-1.104492	0.142578	-0.035889	0.065266	0.004603	0.043303	0.104727	-0.517950	-0.064026	-0.846558	-0.010515	-62.918529	-165.889144
25376		6.248304	0.321341	4.304326	1.018617	-0.067456	-2.287428	-0.489686	0.404194	-0.603931	-1.106445	0.133545	-0.040039	0.062579	0.003130	0.042909	0.101049	-0.516350	-0.063288	-0.848037	0.373196	-62.692540	-166.637139
25377		5.787863	0.066067	4.051141	0.907160	0.183793	-2.808503	-0.508849	0.555557	-0.601571	-1.106201	0.129150	-0.044189	0.057993	0.000589	0.040349	0.097420	-0.514093	-0.062542	-0.849886	0.758994	-62.378122	-167.381226
25378		5.575710	-0.042711	3.662209	0.604454	0.234017	-3.173268	-0.557071	0.544424	-0.554157	-1.105957	0.122314	-0.052734	0.055855	-0.000480	0.036471	0.093820	-0.511924	-0.061316	-0.851688	1.025986	-62.068023	-168.044900
25379		5.517426	-0.031270	3.288865	0.279642	0.156364	-3.397325	-0.616583	0.443051	-0.498763	-1.105957	0.120117	-0.052490	0.055246	-0.000349	0.032767	0.090324	-0.510194	-0.059897	-0.853203	1.218371	-61.813985	-168.643294
25380		5.620716	0.119303	3.122124	0.096252	-0.032508	-3.382759	-0.722637	0.315226	-0.480849	-1.103271	0.111328	-0.056641	0.056259	0.001170	0.031128	0.086539	-0.509079	-0.057880	-0.854400	1.301977	-61.634123	-169.209531
25381		5.931592	0.143323	3.082556	-0.093493	-0.091157	-3.127673	-0.813600	0.146198	-0.425004	-1.109863	0.111084	-0.052002	0.059341	0.001432	0.030776	0.082734	-0.508726	-0.055528	-0.855143	1.298043	-61.552641	-169.720928
25382		6.388134	0.166509	3.060788	-0.323961	-0.157415	-2.736342	-0.782627	-0.085546	-0.375282	-1.112305	0.111084	-0.049805	0.063871	0.001665	0.030629	0.079131	-0.509359	-0.053153	-0.855258	1.241929	-61.603657	-170.168157
25383		7.322949	0.342713	3.399016	-0.419494	-0.344822	-1.750342	-0.663636	-0.357813	-0.302086	-1.105225	0.104492	-0.042725	0.073174	0.003430	0.034110	0.075969	-0.511192	-0.051209	-0.854569	1.195622	-61.821310	-170.555647
25384		8.381074	0.673054	3.833410	-0.435736	-0.674891	-0.606990	-0.503504	-0.613438	-0.187897	-1.107422	0.104492	-0.040527	0.083699	0.006749	0.038574	0.073739	-0.514005	-0.049752	-0.853163	1.115855	-62.177360	-170.793207
25385		9.055605	0.891299	4.343294	-0.205260	-0.849892	0.232104	-0.304053	-0.641087	-0.120049	-1.109375	0.095703	-0.033203	0.090422	0.008925	0.043709	0.072234	-0.516933	-0.049009	-0.851563	1.092693	-62.558681	-170.966874
25386		9.334098	1.039544	4.790636	0.133610	-0.935536	0.687933	-0.106057	-0.361707	-0.114114	-1.109619	0.102295	-0.024658	0.093260	0.010368	0.048070	0.071402	-0.518535	-0.048964	-0.850662	1.159069	-62.771458	-171.111164
25387		9.421754	1.063887	4.714612	0.054393	-0.964295	0.732266	0.031869	-0.075574	-0.089249	-1.109375	0.097900	-0.031006	0.094204	0.010589	0.047183	0.071059	-0.518921	-0.049437	-0.850428	1.297114	-62.827439	-171.239508
25388		10.096127	0.911685	4.543468	-0.424675	-0.881007	1.253004	0.100287	0.053858	-0.006457	-1.107178	0.100098	-0.020020	0.100974	0.009091	0.045412	0.071322	-0.518707	-0.049843	-0.850513	1.353266	-62.803409	-171.239207
25389		12.023427	0.854133	4.863610	-1.011720	-0.904581	3.114228	0.213417	-0.184651	0.141622	-1.105225	0.106934	-0.020264	0.120183	0.008574	0.048756	0.072390	-0.519561	-0.050496	-0.849863	1.335328	-62.926261	-171.079877
25390		12.691225	0.453164	5.243503	-1.013931	-0.489650	3.880337	0.314291	-0.306428	0.069239	-1.111816	0.102295	-0.024658	0.126830	0.004493	0.052636	0.073440	-0.520819	-0.051744	-0.848927	1.438741	-63.109690	-170.995020
25391		13.589770	0.240244	5.703784	-1.021857	-0.245310	4.889975	0.403567	-0.075826	-0.029093	-1.107666	0.109131	-0.027344	0.135876	0.002268	0.057094	0.074288	-0.521105	-0.053535	-0.848566	1.705323	-63.168554	-171.042147
25392		13.463891	0.178527	5.852733	-0.856570	-0.124707	4.843824	0.251062	0.179900	-0.111199	-1.102783	0.098145	-0.024414	0.134692	0.001637	0.058408	0.074534	-0.520271	-0.054805	-0.848975	1.961247	-63.070505	-171.168966
25393		13.667487	0.254825	5.814520	-0.997489	-0.209034	5.007400	-0.065300	0.222330	-0.057838	-1.100830	0.106934	-0.029297	0.136740	0.002528	0.057992	0.074240	-0.519385	-0.054638	-0.849554	1.980682	-62.949195	-171.224239
25394		13.679263	0.259904	5.910715	-0.934653	-0.217417	5.060288	-0.372623	0.065853	0.082534	-1.100586	0.102539	-0.035889	0.136811	0.002766	0.059057	0.073657	-0.519318	-0.052798	-0.849762	1.665337	-62.919997	-171.111027
25395		13.526476	-0.496586	5.409550	-1.431140	0.406997	4.687701	-0.501415	-0.070108	0.242801	-1.105225	0.106934	-0.033936	0.135252	-0.004666	0.054155	0.073507	-0.519866	-0.050111	-0.849603	1.099262	-62.964698	-170.783384
25396		12.797466	-1.293003	4.927314	-1.641753	1.112483	3.817873	-0.348987	-0.102111	0.277913	-1.101318	0.115967	-0.025391	0.127967	-0.012666	0.049361	0.073772	-0.520550	-0.047925	-0.849287	0.581258	-63.032458	-170.427567
25397		11.593621	-1.696611	4.746561	-1.313731	1.533369	2.667024	-0.031666	-0.056301	0.216777	-1.107910	0.113525	-0.022949	0.115941	-0.016833	0.047501	0.074686	-0.520883	-0.047235	-0.849041	0.304045	-63.069766	-170.132427
25398		10.274160	-1.446495	4.859019	-0.582801	1.394610	1.544080	0.313668	0.083530	0.116462	-1.101318	0.115967	-0.025391	0.102770	-0.014481	0.048525	0.076034	-0.520491	-0.048214	-0.849107	0.344530	-63.029160	-169.977358
25399		9.557592	-1.143151	5.035807	-0.074079	1.187480	0.985369	0.481162	0.224945	0.060764	-1.105713	0.115723	-0.029785	0.095636	-0.011523	0.050223	0.077589	-0.519472	-0.049970	-0.849489	0.539546	-62.914250	-169.892758
25400		9.496463	-1.182291	5.068163	-0.058813	1.246009	0.944207	0.466794	0.272997	0.097377	-1.105957	0.120361	-0.030273	0.095039	-0.011895	0.050524	0.079300	-0.518207	-0.051576	-0.850008	0.687620	-62.765352	-169.759707
25401		9.821384	-1.473672	4.982638	-0.365534	1.490970	1.191916	0.370223	0.225805	0.189757	-1.105957	0.120117	-0.039063	0.098284	-0.014736	0.049688	0.081111	-0.517249	-0.052489	-0.850364	0.668583	-62.649751	-169.509650
25402		10.081868	-1.845233	4.904264	-0.639291	1.803184	1.387336	0.157569	0.044043	0.331450	-1.101807	0.129150	-0.032959	0.100860	-0.018324	0.049006	0.082957	-0.517137	-0.052267	-0.850268	0.384013	-62.633181	-169.088711
25403		10.331632	-2.278915	4.269292	-1.386537	2.063105	1.322121	0.107699	-0.045548	0.381258	-1.104004	0.126953	-0.039551	0.103350	-0.022615	0.042704	0.084846	-0.517472	-0.051630	-0.849916	-0.006033	-62.670101	-168.594550
25404		10.182195	-1.982150	4.114927	-1.394637	1.724301	1.124420	0.250875	0.056317	0.409072	-1.099854	0.135986	-0.042236	0.101874	-0.019665	0.041096	0.087266	-0.517284	-0.051596	-0.849788	-0.323051	-62.644041	-168.076947
25405		9.624631	-1.659132	4.077700	-1.119962	1.422387	0.614983	0.472382	0.047176	0.437124	-1.095703	0.145020	-0.042969	0.096292	-0.016477	0.040715	0.090470	-0.516989	-0.052398	-0.849583	-0.561944	-62.614443	-167.501465
25406		9.349209	-1.306011	3.789814	-1.176282	1.030932	0.238660	0.737529	-0.090054	0.464049	-1.095703	0.145020	-0.042969	0.093505	-0.012983	0.037892	0.094342	-0.517208	-0.054354	-0.848906	-0.662100	-62.670008	-166.914005
25407		9.291463	-0.892258	3.668818	-1.158516	0.594328	0.131769	1.025344	-0.207881	0.519828	-1.104980	0.149170	-0.034180	0.092900	-0.008869	0.036739	0.099254	-0.517746	-0.057301	-0.847823	-0.703370	-62.784059	-166.216444
25408		9.173647	-0.476901	3.822534	-0.861852	0.227297	0.096930	1.217940	-0.234365	0.590130	-1.096436	0.162842	-0.039551	0.091706	-0.004731	0.038304	0.104858	-0.518345	-0.061034	-0.846521	-0.676106	-62.921016	-165.463940
25409		8.922137	-0.212056	4.045915	-0.474778	0.038609	-0.025348	1.267527	-0.165813	0.684794	-1.101318	0.169434	-0.031006	0.089195	-0.002072	0.040520	0.110982	-0.518682	-0.064508	-0.845275	-0.767198	-63.021539	-164.569714
25410		8.451259	-0.078061	4.238606	-0.054857	0.001023	-0.357920	1.195988	-0.084594	0.734570	-1.092285	0.174072	-0.040283	0.084497	-0.000724	0.042417	0.117177	-0.518653	-0.067686	-0.844208	-0.919233	-63.070554	-163.631457
25411		7.992513	-0.106000	4.140173	0.062499	0.048877	-0.811231	1.087191	-0.020000	0.737199	-1.090576	0.185303	-0.040771	0.079925	-0.000990	0.041404	0.123060	-0.518477	-0.070118	-0.843280	-1.183476	-63.087624	-162.668390
25412		7.480615	-0.109754	4.023226	0.184132	0.079480	-1.320470	1.025121	0.061930	0.702730	-1.093262	0.194092	-0.048096	0.074822	-0.001041	0.040204	0.128719	-0.517875	-0.072563	-0.842598	-1.395522	-63.049816	-161.772809
25413		6.946620	-0.068140	3.887811	0.305486	0.066449	-1.857972	1.011780	0.134948	0.630446	-1.093506	0.198486	-0.046143	0.069495	-0.000659	0.038828	0.134099	-0.516915	-0.074832	-0.842150	-1.587894	-62.962578	-160.932577
25414		6.557290	0.141405	3.841761	0.486870	-0.092215	-2.227727	0.986531	0.187646	0.533021	-1.091553	0.207520	-0.053467	0.065605	0.001400	0.038363	0.138981	-0.515708	-0.077465	-0.841860	-1.622383	-62.853215	-160.259966
25415		6.226642	0.282545	3.826396	0.649149	-0.182314	-2.529999	0.889731	0.185207	0.444939	-1.091553	0.207520	-0.051270	0.062296	0.002794	0.038219	0.143250	-0.514540	-0.079660	-0.841655	-1.666995	-62.741889	-159.665125
25416		6.134948	0.330793	3.965992	0.812653	-0.171978	-2.547282	0.712480	0.134164	0.385990	-1.084961	0.211914	-0.053711	0.061370	0.003285	0.039630	0.146780	-0.513668	-0.081552	-0.841398	-1.691782	-62.665202	-159.178873
25417		6.097668	0.238602	4.048481	0.863447	-0.060100	-2.540856	0.444135	0.111894	0.369996	-1.089844	0.218506	-0.052002	0.060995	0.002409	0.040456	0.149483	-0.513154	-0.082141	-0.841178	-1.896352	-62.606255	-158.693478
25418		5.996425	0.070850	4.126598	0.913081	0.125168	-2.591778	0.186455	0.126029	0.392351	-1.087646	0.223145	-0.054443	0.059989	0.000788	0.041229	0.151684	-0.512699	-0.081808	-0.841094	-2.226576	-62.532623	-158.202067
25419		5.696538	-0.203630	4.057698	0.890722	0.389862	-2.883655	0.024423	0.184691	0.405900	-1.085693	0.227539	-0.061523	0.057007	-0.001926	0.040524	0.153399	-0.512286	-0.080389	-0.841171	-2.716005	-62.437157	-157.683549
25420		5.377086	-0.403956	3.926285	0.844086	0.570303	-3.220710	-0.006219	0.225401	0.392551	-1.087891	0.225342	-0.059082	0.053823	-0.003933	0.039202	0.155146	-0.511553	-0.079168	-0.841413	-3.145631	-62.303281	-157.203646
25421		5.159127	-0.539046	3.815345	0.791893	0.678206	-3.458404	0.048933	0.256297	0.367370	-1.088379	0.238525	-0.066650	0.051650	-0.005305	0.038086	0.156869	-0.510706	-0.078009	-0.841716	-3.547973	-62.154876	-156.747251
25422		4.953714	-0.459155	3.680478	0.783779	0.581712	-3.701772	0.100194	0.288573	0.314129	-1.088379	0.240967	-0.068848	0.049597	-0.004532	0.036731	0.158582	-0.509589	-0.077386	-0.842130	-3.819083	-61.984865	-156.376418
25423		4.887822	-0.407045	3.402673	0.587235	0.444764	-3.888839	0.132721	0.283248	0.285290	-1.086426	0.243164	-0.071289	0.048932	-0.004023	0.033955	0.160179	-0.508512	-0.076664	-0.842545	-4.094362	-61.817434	-156.019573
25424		5.073498	-0.357568	3.183424	0.329604	0.284901	-3.828325	0.207089	0.252318	0.267683	-1.083984	0.243164	-0.073486	0.050780	-0.003541	0.031767	0.161954	-0.507439	-0.076637	-0.842854	-4.250693	-61.668596	-155.708368
25425		5.525327	-0.363096	3.216757	0.150658	0.199352	-3.413769	0.292388	0.170029	0.241236	-1.081787	0.245361	-0.073730	0.055285	-0.003611	0.032115	0.163712	-0.506703	-0.076854	-0.842938	-4.377742	-61.570303	-155.409184
25426		6.254383	-0.431810	3.386189	-0.054042	0.164953	-2.689492	0.392189	0.002864	0.201609	-1.081787	0.245361	-0.078125	0.062549	-0.004321	0.033853	0.165581	-0.506501	-0.077978	-0.842591	-4.375632	-61.566350	-155.157029
25427		7.201286	-0.562766	3.770967	-0.186573	0.216775	-1.669371	0.471262	-0.168703	0.132912	-1.089111	0.254150	-0.076416	0.071985	-0.005669	0.037757	0.167210	-0.506995	-0.079565	-0.841824	-4.300719	-61.667461	-154.963409
25428		8.245037	-0.783898	4.489642	-0.106682	0.451154	-0.403278	0.543810	-0.345421	0.058066	-1.084229	0.245361	-0.073730	0.082375	-0.007937	0.045017	0.168719	-0.508069	-0.081978	-0.840642	-4.088148	-61.868939	-154.852001
25429		9.169115	-0.889548	5.377325	0.225757	0.672404	0.830443	0.485919	-0.521082	-0.009530	-1.088867	0.247559	-0.064941	0.091550	-0.009031	0.053990	0.169646	-0.509961	-0.084268	-0.839082	-3.883241	-62.176591	-154.797970
25430		9.751138	-1.076759	6.169361	0.609744	1.024455	1.714822	0.263893	-0.547781	-0.090404	-1.082031	0.245361	-0.064697	0.097337	-0.010893	0.061946	0.169733	-0.512050	-0.086054	-0.837610	-3.683463	-62.499757	-154.853775
25431		9.989290	-1.354396	6.476298	0.708059	1.367443	2.069708	-0.057735	-0.373668	-0.145716	-1.082031	0.245605	-0.060303	0.099762	-0.013598	0.064953	0.168749	-0.513733	-0.086333	-0.836749	-3.617248	-62.731345	-154.990440
25432		10.050151	-1.607714	6.558868	0.692850	1.629086	2.165417	-0.419861	-0.160526	-0.143547	-1.083984	0.240967	-0.055420	0.100437	-0.016011	0.065703	0.167026	-0.514751	-0.085063	-0.836599	-3.720428	-62.835006	-155.145884
25433		10.266233	-1.787446	6.587661	0.590622	1.747286	2.376891	-0.674064	-0.003381	-0.121567	-1.088379	0.236572	-0.055176	0.102650	-0.017715	0.065938	0.164751	-0.515363	-0.082400	-0.836940	-4.006599	-62.848919	-155.278961
25434		10.993737	-1.758103	6.875726	0.563684	1.639281	3.157419	-0.713771	0.040523	-0.085582	-1.081543	0.234375	-0.048340	0.109944	-0.017383	0.068797	0.162594	-0.515798	-0.079582	-0.837366	-4.327925	-62.835897	-155.378410
25435		12.243303	-1.731888	7.086397	0.262659	1.409981	4.366795	-0.630373	-0.108091	-0.047677	-1.083496	0.229980	-0.041260	0.122391	-0.017124	0.070984	0.160708	-0.516833	-0.077144	-0.837320	-4.651779	-62.911601	-155.423916
25436		12.837916	-1.353629	7.226954	0.312250	0.963667	4.946949	-0.511777	-0.242770	-0.053841	-1.085938	0.232178	-0.043701	0.128288	-0.013386	0.072460	0.159091	-0.518293	-0.075317	-0.836893	-4.918628	-63.059324	-155.454492
25437		13.019882	-1.015098	7.210362	0.388504	0.594066	5.088087	-0.440537	-0.172972	-0.011658	-1.087891	0.227539	-0.039063	0.130136	-0.010000	0.072238	0.157765	-0.519505	-0.073683	-0.836538	-5.167955	-63.178983	-155.460425
25438		13.894744	-1.099047	6.738977	-0.345034	0.346210	5.661364	-0.484520	-0.281501	0.159512	-1.086182	0.236572	-0.034912	0.138861	-0.010716	0.067611	0.157094	-0.521177	-0.071446	-0.835818	-5.667700	-63.337459	-155.212678
25439		13.811821	-1.267423	6.148355	-0.805437	0.320835	5.334028	-0.348604	-0.266417	0.214982	-1.079346	0.234619	-0.028320	0.138050	-0.012418	0.061689	0.156959	-0.522744	-0.069701	-0.835012	-6.134648	-63.492403	-154.910562
25440		13.495977	-1.257377	5.265929	-1.380855	0.089960	4.662719	-0.116394	-0.102705	0.246887	-1.083984	0.241211	-0.028564	0.134948	-0.012377	0.052736	0.157674	-0.523405	-0.068633	-0.834551	-6.508110	-63.541810	-154.568839
25441		12.972773	-0.902628	4.395466	-1.782873	-0.418478	3.791496	0.106557	0.178371	0.243198	-1.086426	0.243408	-0.033203	0.129778	-0.008892	0.043834	0.158948	-0.522807	-0.068283	-0.834713	-6.705611	-63.443640	-154.289431
25442		11.877102	-0.156854	4.845832	-0.736752	-0.809825	2.969072	0.238191	0.407931	0.144635	-1.086182	0.238770	-0.046387	0.118871	-0.001540	0.048214	0.160338	-0.521019	-0.068557	-0.835542	-6.690220	-63.208355	-154.154970
25443		10.883137	0.197319	4.927677	-0.198271	-0.944369	2.096642	0.171478	0.544862	0.066463	-1.084229	0.245605	-0.049072	0.108964	0.001967	0.048982	0.161370	-0.518610	-0.068825	-0.836819	-6.577304	-62.895637	-154.145370
25444		9.621213	0.266224	4.453894	-0.128311	-0.915588	0.752368	0.120637	0.817870	0.010350	-1.084229	0.245361	-0.062500	0.096393	0.002641	0.044147	0.162030	-0.515145	-0.068625	-0.838846	-6.427966	-62.435888	-154.236727
25445		8.614868	0.334211	4.185097	-0.003232	-0.877677	-0.269549	0.076160	1.058980	-0.088197	-1.079346	0.240967	-0.071289	0.086370	0.003288	0.041395	0.162374	-0.510548	-0.068421	-0.841602	-6.157579	-61.833144	-154.469736
25446		8.195352	0.369357	3.946963	-0.108688	-0.918601	-0.756075	-0.055479	1.108829	-0.115483	-1.086182	0.243164	-0.082520	0.082173	0.003657	0.039013	0.162148	-0.505936	-0.067565	-0.844495	-5.954895	-61.214866	-154.737539
25447		8.035765	0.572355	3.845420	-0.140251	-1.132332	-0.959101	-0.281065	0.873437	-0.101720	-1.083984	0.240967	-0.086914	0.080527	0.005736	0.038095	0.161439	-0.502393	-0.066068	-0.846861	-5.904621	-60.720644	-154.953366
25448		8.297549	0.991672	3.755837	-0.243738	-1.633928	-0.801044	-0.504778	0.469131	-0.068360	-1.081787	0.245361	-0.098389	0.083067	0.009983	0.037338	0.160060	-0.500843	-0.063707	-0.848220	-6.084871	-60.463893	-155.079523
25449		8.387382	1.139472	3.496166	-0.476629	-1.885438	-0.863517	-0.557143	0.161478	-0.060248	-1.088135	0.236328	-0.091064	0.083905	0.011467	0.034862	0.158561	-0.500571	-0.061436	-0.848830	-6.323459	-60.375386	-155.157188
25450		8.335364	1.168940	3.213702	-0.688113	-1.987569	-1.052056	-0.356611	0.038749	-0.157454	-1.088623	0.245117	-0.091553	0.083369	0.011681	0.032100	0.157037	-0.500695	-0.060270	-0.849124	-6.375692	-60.369720	-155.333226
25451		8.400920	1.350323	3.053904	-0.797408	-2.203170	-1.081404	-0.020490	-0.016221	-0.255605	-1.088379	0.238525	-0.089111	0.084024	0.013399	0.030544	0.155919	-0.500761	-0.060935	-0.849243	-6.120900	-60.405029	-155.627980
25452		8.437212	1.637464	3.372290	-0.457162	-2.368076	-0.900716	0.323894	-0.148855	-0.353372	-1.088135	0.236328	-0.088867	0.084376	0.016171	0.033812	0.155207	-0.501087	-0.063294	-0.849009	-5.605005	-60.517030	-156.008727
25453		8.600061	1.850117	4.305530	0.323699	-2.300081	-0.298172	0.445857	-0.320896	-0.469178	-1.092529	0.231689	-0.088623	0.085974	0.018203	0.043234	0.154223	-0.502045	-0.066647	-0.848365	-4.902378	-60.737906	-156.519848
25454		8.963169	1.921555	5.241555	0.985174	-2.120479	0.484749	0.114540	-0.517715	-0.540296	-1.090088	0.225098	-0.081543	0.089547	0.018943	0.052658	0.152068	-0.504025	-0.068871	-0.847402	-4.334850	-61.065105	-157.095330
25455		9.257499	1.801183	5.425454	1.005654	-1.955937	0.843004	-0.437905	-0.616866	-0.561142	-1.094238	0.220703	-0.069824	0.092457	0.017871	0.054501	0.148408	-0.506830	-0.068938	-0.846372	-4.048328	-61.449375	-157.702310
25456		9.016607	1.508465	5.033040	0.727498	-1.706019	0.456990	-0.831183	-0.504581	-0.614542	-1.089111	0.205078	-0.069092	0.090085	0.015017	0.050495	0.143548	-0.509417	-0.067334	-0.845786	-3.921537	-61.768910	-158.388854
25457		8.568404	1.216236	4.667692	0.549283	-1.423778	-0.099025	-1.033801	-0.329750	-0.682508	-1.093506	0.200684	-0.064209	0.085648	0.012112	0.046755	0.137937	-0.511376	-0.065051	-0.845717	-3.790942	-61.994669	-159.195069
25458		8.252786	0.878614	4.337179	0.318300	-1.119109	-0.520872	-1.081061	-0.232765	-0.679841	-1.097900	0.196045	-0.050537	0.082507	0.008740	0.043420	0.132242	-0.512929	-0.062360	-0.845888	-3.703109	-62.159895	-159.996564
25459		7.909303	0.603418	4.185057	0.270455	-0.824994	-0.886204	-1.088102	-0.223498	-0.641444	-1.099854	0.191650	-0.047852	0.079066	0.006008	0.041906	0.126688	-0.514439	-0.059702	-0.846013	-3.620186	-62.321981	-160.777234
25460		7.571655	0.407430	4.168077	0.365090	-0.582013	-1.187331	-1.081584	-0.270563	-0.610673	-1.099609	0.182861	-0.042969	0.075673	0.004069	0.041761	0.121262	-0.516131	-0.056850	-0.845974	-3.599933	-62.505441	-161.500351
25461		7.336299	0.100810	4.141471	0.387760	-0.248760	-1.400141	-1.033495	-0.331605	-0.604984	-1.096924	0.173828	-0.037842	0.073297	0.001001	0.041531	0.115898	-0.518091	-0.054319	-0.845694	-3.531199	-62.733342	-162.239992
25462		7.336754	-0.079741	4.071525	0.308756	-0.078230	-1.427575	-0.964589	-0.337409	-0.626626	-1.098877	0.169434	-0.031006	0.073296	-0.000830	0.040843	0.110678	-0.519952	-0.052039	-0.845395	-3.417830	-62.954828	-162.989626
25463		7.308412	-0.211494	4.052154	0.297636	0.066810	-1.458978	-0.881822	-0.256044	-0.635910	-1.098877	0.167236	-0.028564	0.073025	-0.002168	0.040625	0.105602	-0.521443	-0.050249	-0.845234	-3.195456	-63.137712	-163.793168
25464		7.357221	-0.134585	4.063658	0.319124	0.003199	-1.412791	-0.832405	-0.105378	-0.634299	-1.095703	0.147217	-0.022949	0.073546	-0.001410	0.040681	0.100745	-0.522216	-0.048420	-0.845456	-2.970652	-63.224371	-164.580575
25465		7.259005	-0.069357	4.146117	0.448503	-0.019212	-1.464831	-0.812458	0.100062	-0.598041	-1.102539	0.149414	-0.025146	0.072609	-0.000742	0.041428	0.096094	-0.522141	-0.046653	-0.846143	-2.720194	-63.199051	-165.368006
25466		6.933010	-0.311211	3.821573	0.242871	0.201464	-1.896357	-0.813796	0.256931	-0.555273	-1.097900	0.142822	-0.022461	0.069370	-0.003149	0.038139	0.091701	-0.521364	-0.044517	-0.847224	-2.555086	-63.073524	-166.076869
25467		6.975527	-0.530707	3.340267	-0.257437	0.337194	-2.072080	-0.737711	0.263909	-0.513528	-1.104248	0.135986	-0.033447	0.069786	-0.005363	0.033330	0.087605	-0.520581	-0.042710	-0.848232	-2.363757	-62.952462	-166.759556
25468		7.152296	-0.720013	3.004705	-0.681956	0.459133	-2.065036	-0.598615	0.246155	-0.457370	-1.099854	0.138184	-0.031250	0.071543	-0.007274	0.029981	0.084181	-0.519752	-0.041234	-0.849159	-2.193448	-62.828911	-167.337321
25469		7.197313	-0.718975	3.002496	-0.722117	0.464601	-2.028352	-0.514114	0.295690	-0.386414	-1.104248	0.133545	-0.031006	0.072003	-0.007252	0.029937	0.081349	-0.518636	-0.040070	-0.850173	-2.028166	-62.670276	-167.833695
25470		6.951468	-0.697112	2.937038	-0.683735	0.462451	-2.279183	-0.550742	0.298869	-0.322274	-1.101563	0.126953	-0.035156	0.069547	-0.007002	0.029286	0.078631	-0.517576	-0.038423	-0.851150	-1.985174	-62.512569	-168.238699
25471		6.857747	-0.676654	2.649774	-0.902066	0.412150	-2.496660	-0.535752	0.187651	-0.258178	-1.101563	0.126953	-0.030518	0.068594	-0.006784	0.026452	0.076161	-0.517034	-0.036778	-0.851776	-1.993498	-62.423900	-168.573060
25472		7.111639	-0.521386	2.501991	-1.124033	0.216416	-2.342953	-0.501688	0.016847	-0.199235	-1.099121	0.122559	-0.032471	0.071113	-0.005222	0.025027	0.074040	-0.517170	-0.035130	-0.851950	-2.070647	-62.425287	-168.811439
25473		7.680620	-0.254422	2.794465	-1.073733	-0.056182	-1.706540	-0.423267	-0.114406	-0.129223	-1.101563	0.126953	-0.035156	0.076789	-0.002535	0.027994	0.072272	-0.517970	-0.033689	-0.851674	-2.171417	-62.517655	-168.980912
25474		8.136241	-0.126347	3.179057	-0.909720	-0.173102	-1.125731	-0.299551	-0.137621	-0.077479	-1.105957	0.122559	-0.032471	0.081340	-0.001247	0.031848	0.071165	-0.518706	-0.032644	-0.851360	-2.272374	-62.605199	-169.061689
25475		8.525593	0.135903	3.862410	-0.433480	-0.378814	-0.469722	-0.118834	-0.072041	-0.031538	-1.106201	0.126953	-0.037354	0.085242	0.001369	0.038654	0.070751	-0.519113	-0.032261	-0.851161	-2.312784	-62.655711	-169.088866
25476		8.595932	0.340858	4.465848	0.099773	-0.508070	-0.133744	0.097597	0.029178	-0.018786	-1.103760	0.122559	-0.030273	0.085966	0.003379	0.044648	0.070950	-0.519006	-0.032694	-0.851193	-2.243696	-62.646464	-169.104832
25477		8.555355	0.749852	4.720911	0.396773	-0.866608	-0.058975	0.324249	0.159189	0.001281	-1.101563	0.126953	-0.030518	0.085591	0.007423	0.047153	0.071911	-0.518235	-0.034047	-0.851529	-2.058072	-62.558446	-169.095388
25478		8.558933	0.871158	4.622386	0.301777	-0.985402	-0.100918	0.536102	0.413237	0.023548	-1.103760	0.122559	-0.041504	0.085684	0.008598	0.046070	0.073492	-0.516339	-0.036099	-0.852461	-1.770337	-62.328398	-169.074604
25479		8.688633	0.837831	4.559988	0.135885	-0.956090	-0.011926	0.717349	0.613368	0.077192	-1.108398	0.128906	-0.048584	0.087022	0.008249	0.045363	0.075816	-0.513548	-0.038729	-0.853827	-1.431485	-61.986267	-168.991532
25480		10.417795	1.002455	4.588046	-0.655050	-1.258299	1.526317	0.854758	0.384645	0.254398	-1.101807	0.131348	-0.044434	0.104253	0.009961	0.045723	0.079192	-0.511681	-0.041559	-0.854508	-1.213317	-61.769663	-168.684738
25481		10.492099	0.800002	5.502534	0.056397	-0.909559	2.026716	0.964674	-0.028180	0.222705	-1.104004	0.129150	-0.050781	0.104904	0.007851	0.055078	0.082574	-0.511604	-0.045014	-0.854059	-0.921651	-61.801254	-168.403490
25482		11.586199	0.386709	6.028494	-0.069175	-0.486172	3.244533	0.900836	-0.010063	0.100730	-1.099365	0.129150	-0.051025	0.115857	0.003654	0.060308	0.085327	-0.511348	-0.048588	-0.853746	-0.521645	-61.813449	-168.272846
25483		11.836527	-0.412854	5.367318	-0.935648	0.194035	3.155296	0.572297	0.316562	0.005722	-1.102051	0.135742	-0.058105	0.118450	-0.004278	0.053474	0.086885	-0.509862	-0.050899	-0.854342	-0.196477	-61.647015	-168.268970
25484		11.583202	-0.656384	5.040595	-1.202296	0.411131	2.772785	0.236120	0.476182	-0.032275	-1.101807	0.133545	-0.062500	0.115951	-0.006642	0.050122	0.087491	-0.507772	-0.051764	-0.855473	-0.034194	-61.381442	-168.300809
25485		11.494286	-0.386203	5.137736	-1.066569	0.162041	2.737219	-0.050389	0.270108	0.086110	-1.099609	0.133545	-0.069092	0.115014	-0.003800	0.051223	0.087854	-0.506746	-0.051123	-0.856082	-0.179570	-61.236661	-168.175008
25486		11.388387	-0.692173	5.022702	-1.187140	0.419049	2.589608	-0.332521	0.022924	0.257252	-1.106445	0.133545	-0.060059	0.113898	-0.006692	0.050225	0.088140	-0.506915	-0.049019	-0.856076	-0.646544	-61.229667	-167.860741
25487		10.707769	-1.796122	4.293239	-1.699843	1.395791	1.653626	-0.384896	-0.034702	0.322284	-1.100098	0.144775	-0.062988	0.107099	-0.017706	0.042985	0.088546	-0.507410	-0.046553	-0.855878	-1.212073	-61.259522	-167.469153
25488		10.341289	-2.469107	3.804336	-2.075265	1.969411	1.110971	-0.024619	0.091530	0.289054	-1.095703	0.149170	-0.067871	0.103466	-0.024537	0.037999	0.089763	-0.507153	-0.045654	-0.855952	-1.533879	-61.210275	-167.119239
25489		10.195314	-2.395568	4.187375	-1.679134	1.947250	1.169384	0.309195	0.234374	0.266460	-1.098145	0.151367	-0.065674	0.102034	-0.023884	0.041717	0.091828	-0.506153	-0.046040	-0.856304	-1.671960	-61.080220	-166.771838
25490		10.305990	-2.386940	4.918198	-1.134474	2.036081	1.618271	0.475106	0.214429	0.250454	-1.096191	0.156006	-0.072754	0.103142	-0.023857	0.049015	0.094174	-0.505129	-0.047323	-0.856584	-1.660791	-60.960359	-166.474506
25491		10.670236	-2.213207	5.521945	-0.775937	1.921234	2.226866	0.540858	0.034412	0.255588	-1.098389	0.158203	-0.075195	0.106740	-0.022145	0.055141	0.096699	-0.504899	-0.048775	-0.856357	-1.664838	-60.948125	-166.135366
25492		11.050304	-1.984660	5.586416	-0.858153	1.665623	2.586724	0.595246	-0.107067	0.278987	-1.096191	0.158203	-0.072998	0.110501	-0.019859	0.055864	0.099393	-0.505191	-0.050652	-0.855767	-1.623616	-61.011981	-165.793547
25493		11.324993	-1.972254	5.739696	-0.850784	1.646524	2.901655	0.629837	-0.123101	0.314157	-1.103271	0.164795	-0.071045	0.113246	-0.019725	0.057405	0.102401	-0.505533	-0.052452	-0.855102	-1.638884	-61.081338	-165.375406
25494		11.301747	-2.001601	5.874810	-0.725936	1.700700	2.947795	0.557484	-0.134713	0.357452	-1.094482	0.169434	-0.073486	0.113014	-0.019978	0.058768	0.105326	-0.505971	-0.053982	-0.854392	-1.703521	-61.159616	-164.937842
25495		11.005097	-2.109483	5.802172	-0.665763	1.812166	2.657279	0.527918	-0.132397	0.418083	-1.096680	0.171387	-0.075928	0.110057	-0.021018	0.058039	0.108485	-0.506457	-0.055010	-0.853643	-1.901741	-61.235142	-164.389206
25496		10.506943	-2.028748	5.332746	-0.812294	1.687450	1.995890	0.693603	-0.092518	0.484025	-1.094971	0.180420	-0.072021	0.105094	-0.020218	0.053306	0.112306	-0.506661	-0.056775	-0.852912	-2.022155	-61.285690	-163.799645
25497		10.001526	-1.658290	5.047105	-0.736191	1.318462	1.411099	0.960807	-0.034588	0.541730	-1.094971	0.185059	-0.067871	0.100051	-0.016554	0.050409	0.117176	-0.506435	-0.059297	-0.852219	-2.101767	-61.292520	-163.097070
25498		9.500013	-1.324063	4.944977	-0.522291	1.037499	0.916104	1.219530	0.052619	0.584605	-1.097412	0.187012	-0.070068	0.095052	-0.013264	0.049344	0.122793	-0.505715	-0.062962	-0.851593	-2.021105	-61.257356	-162.393236
25499		8.935007	-1.184349	4.816385	-0.358244	0.951494	0.355932	1.399920	0.157098	0.631250	-1.093262	0.198242	-0.079834	0.089425	-0.011898	0.048010	0.129038	-0.504575	-0.066951	-0.851041	-1.932969	-61.176238	-161.613872
25500		8.293304	-1.017132	4.535151	-0.289768	0.821805	-0.345820	1.525869	0.216965	0.660496	-1.091309	0.200684	-0.082275	0.083016	-0.010242	0.045184	0.135791	-0.502928	-0.071618	-0.850585	-1.746324	-61.046911	-160.829506
25501		7.773370	-0.722759	4.352210	-0.149903	0.577065	-0.894514	1.577538	0.207540	0.660446	-1.091797	0.211670	-0.089600	0.077803	-0.007313	0.043384	0.142683	-0.501307	-0.076233	-0.850013	-1.587026	-60.925476	-160.008894
25502		7.316851	-0.401019	4.245611	0.043738	0.328563	-1.350276	1.573116	0.158246	0.630095	-1.096191	0.213867	-0.094238	0.073215	-0.004113	0.042366	0.149384	-0.499791	-0.081206	-0.849293	-1.338747	-60.832720	-159.262308
25503		7.062747	-0.125194	4.426292	0.381428	0.174578	-1.487178	1.443450	0.125674	0.597069	-1.083008	0.220703	-0.096924	0.070659	-0.001360	0.044209	0.155615	-0.498523	-0.085441	-0.848503	-1.191989	-60.760979	-158.516149
25504		6.752992	0.059354	4.462779	0.600344	0.080967	-1.740772	1.203178	0.147212	0.570623	-1.081055	0.225342	-0.094971	0.067561	0.000518	0.044581	0.161120	-0.497253	-0.088990	-0.847856	-1.091981	-60.677259	-157.841397
25505		6.379231	0.170887	4.492576	0.821946	0.054572	-2.051989	0.893879	0.256776	0.571222	-1.085938	0.234131	-0.106689	0.063845	0.001691	0.044851	0.165840	-0.495911	-0.090785	-0.847542	-1.234494	-60.542706	-157.136866
25506		5.781135	0.028021	4.462686	0.997072	0.281887	-2.583289	0.588984	0.362728	0.582033	-1.081543	0.240723	-0.111572	0.057891	0.000317	0.044523	0.169956	-0.494203	-0.091520	-0.847645	-1.485692	-60.334167	-156.461045
25507		5.309213	-0.071984	3.904817	0.708264	0.263181	-3.265202	0.410509	0.336203	0.591981	-1.081787	0.242920	-0.109619	0.053160	-0.000643	0.038957	0.173641	-0.492844	-0.091099	-0.847735	-1.922192	-60.139375	-155.735493
25508		5.044582	-0.110262	3.566821	0.531195	0.220830	-3.660354	0.394434	0.244626	0.585532	-1.082031	0.249756	-0.112061	0.050492	-0.001025	0.035604	0.177233	-0.491787	-0.091099	-0.847606	-2.279366	-59.994099	-155.063480
25509		4.810613	0.087141	3.428282	0.602364	0.023479	-3.935673	0.436965	0.127907	0.552795	-1.082275	0.258545	-0.119385	0.048126	0.000930	0.034254	0.180594	-0.491403	-0.091120	-0.847116	-2.644073	-59.935569	-154.406219
25510		4.672262	0.256039	3.610913	0.879522	-0.050615	-3.968189	0.485886	0.009184	0.513975	-1.075684	0.260986	-0.110596	0.046718	0.002593	0.036113	0.183995	-0.491216	-0.091890	-0.846409	-2.883375	-59.923214	-153.808934
25511		4.578675	0.461389	3.845944	1.202073	-0.144246	-3.938793	0.509915	-0.088869	0.473012	-1.076172	0.269775	-0.115723	0.045759	0.004624	0.038492	0.187057	-0.491654	-0.092537	-0.845413	-3.148470	-59.987991	-153.229694
25512		4.612645	0.541266	4.010411	1.360993	-0.165805	-3.831629	0.471714	-0.141000	0.414245	-1.078125	0.265381	-0.113037	0.046087	0.005413	0.040149	0.189930	-0.492058	-0.093628	-0.844416	-3.307398	-60.062417	-152.735149
25513		4.795594	0.611820	4.039272	1.348119	-0.259854	-3.664289	0.406931	-0.170703	0.348052	-1.076172	0.271973	-0.117920	0.047911	0.006119	0.040446	0.192139	-0.492879	-0.094254	-0.843368	-3.506968	-60.178149	-152.298999
25514		5.215393	0.609787	3.852059	1.028646	-0.415025	-3.395512	0.328419	-0.214130	0.279602	-1.080811	0.276367	-0.111572	0.052104	0.006107	0.038586	0.194055	-0.493657	-0.095140	-0.842374	-3.622545	-60.297817	-151.950035
25515		5.934139	0.455316	3.645958	0.509008	-0.511199	-2.870507	0.281502	-0.327960	0.225965	-1.076416	0.274414	-0.113770	0.059276	0.004569	0.036563	0.195390	-0.495132	-0.095730	-0.841132	-3.777791	-60.499616	-151.641199
25516		6.740268	0.222069	3.575264	0.032297	-0.502483	-2.196296	0.284630	-0.426207	0.133756	-1.076416	0.276611	-0.109375	0.067325	0.002215	0.035899	0.196482	-0.496770	-0.096996	-0.839765	-3.790334	-60.745437	-151.440600
25517		7.657638	-0.033613	3.895149	-0.182664	-0.352444	-1.230437	0.336067	-0.449695	0.027607	-1.074219	0.276611	-0.107178	0.076489	-0.000391	0.039123	0.197131	-0.498508	-0.098534	-0.838403	-3.705984	-61.015385	-151.352940
25518		8.513162	-0.270553	4.373014	-0.235105	-0.131394	-0.242023	0.388247	-0.484487	-0.067658	-1.078613	0.274414	-0.095703	0.085024	-0.002819	0.043931	0.197605	-0.500182	-0.100791	-0.837025	-3.456218	-61.302113	-151.385063
25519		9.147171	-0.455389	4.890094	-0.132050	0.121773	0.567995	0.354342	-0.515305	-0.140867	-1.078369	0.270020	-0.097656	0.091342	-0.004705	0.049128	0.197528	-0.502123	-0.102882	-0.835626	-3.187090	-61.620423	-151.499765
25520		9.550271	-0.661208	5.496791	0.127897	0.489723	1.214693	0.198355	-0.433404	-0.218771	-1.078369	0.270020	-0.095459	0.095376	-0.006771	0.055168	0.196917	-0.503686	-0.104671	-0.834607	-2.876616	-61.882384	-151.724141
25521		9.763653	-0.871329	6.091838	0.452689	0.890784	1.685142	-0.121198	-0.279865	-0.250474	-1.082764	0.263184	-0.083740	0.097540	-0.008799	0.061060	0.195409	-0.504930	-0.104925	-0.834177	-2.725549	-62.056342	-151.992338
25522		9.927120	-1.242001	6.428158	0.522199	1.328817	1.992946	-0.556970	-0.153516	-0.231559	-1.077881	0.256592	-0.078857	0.099207	-0.012356	0.064392	0.192984	-0.506053	-0.103319	-0.834262	-2.814207	-62.157992	-152.254031
25523		10.047898	-1.797049	6.471617	0.307592	1.808409	2.133289	-0.909918	-0.023442	-0.202851	-1.080322	0.260986	-0.079102	0.100453	-0.017778	0.064809	0.189735	-0.507143	-0.100032	-0.834746	-3.127877	-62.206003	-152.501474
25524		10.409069	-2.042563	6.578253	0.172506	1.959780	2.513039	-0.972211	0.102128	-0.198770	-1.079834	0.252197	-0.078613	0.104104	-0.020209	0.065828	0.186518	-0.507596	-0.096363	-0.835627	-3.475037	-62.161537	-152.739730
25525		11.587867	-1.890854	6.933447	0.063542	1.663477	3.720803	-0.794697	0.011168	-0.177336	-1.077881	0.256592	-0.069824	0.115866	-0.018736	0.069403	0.183731	-0.508351	-0.093468	-0.836114	-3.747146	-62.180731	-152.953120
25526		12.744491	-1.589320	7.393971	0.114796	1.284430	4.950637	-0.535579	-0.175829	-0.155000	-1.077637	0.250000	-0.071777	0.127368	-0.015794	0.074094	0.181668	-0.509566	-0.091766	-0.836014	-3.910602	-62.294554	-153.116161
25527		12.834387	-1.127410	7.479905	0.370236	0.870785	5.054933	-0.353293	-0.121057	-0.138514	-1.080078	0.254395	-0.074219	0.128291	-0.011231	0.074897	0.180042	-0.510544	-0.090704	-0.835884	-3.985121	-62.396178	-153.275482
25528		12.854518	-0.842421	7.297885	0.339082	0.534216	4.979440	-0.275557	0.062994	-0.020136	-1.081787	0.245361	-0.071533	0.128567	-0.008337	0.072950	0.179312	-0.510582	-0.089529	-0.836145	-4.128385	-62.368404	-153.292986
25529		13.200041	-0.816948	6.946024	-0.078060	0.295463	5.122581	-0.224589	0.064792	0.156137	-1.079834	0.250000	-0.069580	0.132029	-0.007988	0.069427	0.179477	-0.510639	-0.088216	-0.836214	-4.417326	-62.334417	-153.100105
25530		13.234928	-0.914847	6.105064	-0.813473	0.063146	4.768336	-0.089300	0.053239	0.228560	-1.082275	0.254395	-0.078857	0.132376	-0.008970	0.061019	0.180257	-0.510660	-0.087193	-0.836141	-4.724977	-62.300938	-152.811484
25531		12.993538	-0.790386	5.371920	-1.272919	-0.269477	4.209483	0.165624	0.168289	0.170390	-1.075439	0.250000	-0.078613	0.129987	-0.007838	0.053603	0.181554	-0.509904	-0.087423	-0.836297	-4.788406	-62.203177	-152.613273
25532		12.376680	-0.271495	4.893751	-1.231744	-0.784401	3.418795	0.396018	0.254269	0.047372	-1.082520	0.258789	-0.072266	0.123830	-0.002782	0.048775	0.182902	-0.508563	-0.088709	-0.836685	-4.602266	-62.063106	-152.568191
25533		11.133189	0.550776	4.818071	-0.489707	-1.288962	2.252288	0.387669	0.327832	-0.079049	-1.080078	0.254395	-0.081055	0.111413	0.005371	0.048009	0.183741	-0.506884	-0.090346	-0.837344	-4.256942	-61.893485	-152.693876
25534		10.091896	0.981532	4.655624	-0.065561	-1.507285	1.242090	0.233894	0.502627	-0.157814	-1.082031	0.249756	-0.096436	0.101043	0.009681	0.046314	0.183928	-0.504554	-0.091245	-0.838612	-3.928519	-61.620115	-152.915608
25535		9.020763	0.951815	4.644292	0.303407	-1.255281	0.295794	-0.003709	0.646446	-0.164975	-1.084229	0.249756	-0.098633	0.090365	0.009445	0.046151	0.183643	-0.501759	-0.091234	-0.840351	-3.690810	-61.260649	-153.159931
25536		8.463970	0.856509	4.355081	0.206765	-1.162783	-0.328810	-0.219191	0.676302	-0.166591	-1.086426	0.245117	-0.105225	0.084793	0.008542	0.043255	0.182728	-0.499102	-0.090092	-0.842253	-3.610622	-60.887476	-153.396092
25537		8.233504	0.902489	3.906723	-0.091682	-1.326747	-0.751857	-0.427538	0.552062	-0.127139	-1.086426	0.247314	-0.107422	0.082448	0.009056	0.038820	0.181490	-0.497098	-0.088339	-0.843891	-3.658290	-60.581774	-153.587822
25538		8.186674	1.141545	3.740317	-0.144798	-1.619393	-0.886814	-0.644654	0.288607	-0.071798	-1.083984	0.245117	-0.105225	0.081925	0.011506	0.037248	0.179739	-0.496493	-0.085518	-0.844911	-3.946612	-60.426935	-153.681993
25539		8.406450	1.447062	3.771091	-0.107227	-1.965593	-0.696307	-0.846116	-0.007792	-0.043939	-1.084229	0.247559	-0.100830	0.084066	0.014612	0.037653	0.177467	-0.497358	-0.082229	-0.845209	-4.364183	-60.450430	-153.740504
25540		8.887093	1.506782	3.750388	-0.306060	-2.157841	-0.296059	-0.819034	-0.142538	-0.076457	-1.084473	0.251953	-0.103271	0.088850	0.015187	0.037505	0.175075	-0.498714	-0.079067	-0.845211	-4.778761	-60.542707	-153.804432
25541		9.241420	1.457730	3.891269	-0.353215	-2.155497	0.081749	-0.580138	-0.163878	-0.188935	-1.093262	0.247314	-0.100830	0.092396	0.014603	0.038946	0.172748	-0.499964	-0.077301	-0.845115	-4.927035	-60.663893	-154.010967
25542		9.289259	1.385879	4.049765	-0.265293	-2.037910	0.206697	-0.166019	-0.143597	-0.363604	-1.090820	0.245117	-0.100586	0.092889	0.013724	0.040553	0.170768	-0.500635	-0.077615	-0.845091	-4.675298	-60.770701	-154.409741
25543		9.100581	1.407305	4.606043	0.276733	-1.803686	0.320749	0.243531	-0.117532	-0.528865	-1.094971	0.238281	-0.095703	0.091015	0.013776	0.046131	0.169163	-0.500741	-0.080236	-0.845106	-3.981055	-60.868492	-155.022158
25544		8.878854	1.527179	5.370777	1.038365	-1.570303	0.505600	0.284969	-0.218943	-0.624281	-1.087646	0.220703	-0.092529	0.088777	0.014918	0.053826	0.167177	-0.501234	-0.083171	-0.844925	-3.200098	-61.023591	-155.729848
25545		8.928573	1.593991	5.500904	1.152325	-1.530802	0.620368	-0.143883	-0.377815	-0.661836	-1.094238	0.218262	-0.078857	0.089234	0.015684	0.055166	0.163901	-0.502744	-0.084801	-0.844508	-2.572422	-61.275428	-156.509584
25546		8.865833	1.512149	5.139257	0.869706	-1.512458	0.397972	-0.779374	-0.391657	-0.633928	-1.094238	0.216064	-0.076416	0.088605	0.015041	0.051507	0.159122	-0.504823	-0.083406	-0.844321	-2.381747	-61.522944	-157.236472
25547		8.585729	1.130244	4.590560	0.428252	-1.254441	-0.101437	-1.321744	-0.341391	-0.589870	-1.100586	0.209473	-0.071533	0.085812	0.011353	0.045977	0.153023	-0.507301	-0.079712	-0.844320	-2.502390	-61.768562	-157.957806
25548		8.219474	0.754323	4.267438	0.215257	-0.940084	-0.570955	-1.656033	-0.316803	-0.570155	-1.098145	0.202881	-0.057617	0.082149	0.007663	0.042741	0.146308	-0.509721	-0.074388	-0.844538	-2.867412	-61.972863	-158.620953
25549		7.891646	0.422867	4.128134	0.164409	-0.623071	-0.919823	-1.764030	-0.311274	-0.575849	-1.100342	0.202637	-0.057617	0.078865	0.004366	0.041366	0.139127	-0.512324	-0.068761	-0.844654	-3.245111	-62.203028	-159.334986
25550		7.503718	0.139749	4.196306	0.335754	-0.288854	-1.225602	-1.589940	-0.330010	-0.595918	-1.097656	0.193848	-0.052490	0.074972	0.001508	0.042075	0.132444	-0.514663	-0.063781	-0.844697	-3.538798	-62.419677	-160.033269
25551		7.224258	0.091429	4.346388	0.604716	-0.166758	-1.404609	-1.255101	-0.360141	-0.618786	-1.097412	0.187256	-0.043213	0.072167	0.000964	0.043588	0.126445	-0.516938	-0.060417	-0.844474	-3.582229	-62.667952	-160.787071
