// General information: 
//  MT Manager version: 2019.2.0 
//  XDA version: 2019.2.0 build 3853 rev 94535 built on 2019-09-09
// Device information: 
//  DeviceId: 00B40A40
//  ProductCode: MTW2-3A7G6
//  Firmware Version: 4.4.0
//  Hardware Version: 1.1.0
// Device settings: 
//  Filter Profile: human(46.1)
//  Option Flags: Orientation Smoother Disabled, AHS Disabled, ICC Disabled
// Coordinate system: ENU
PacketCounter	SampleTimeFine	Acc_X	Acc_Y	Acc_Z	FreeAcc_E	FreeAcc_N	FreeAcc_U	Gyr_X	Gyr_Y	Gyr_Z	Mag_X	Mag_Y	Mag_Z	VelInc_X	VelInc_Y	VelInc_Z	Quat_q0	Quat_q1	Quat_q2	Quat_q3	Roll	Pitch	Yaw	TrigIn1_Polarity	TrigIn1_Timestamp	TrigIn1_FrameNumber	TrigIn2_Polarity	TrigIn2_Timestamp	TrigIn2_FrameNumber
43925		9.080624	0.825180	2.766189	-0.385678	0.143405	-0.293177	-0.909746	-0.347783	-0.213054	-1.093262	0.031738	0.073975	0.090767	0.008281	0.027782	0.074495	-0.569681	-0.121140	-0.809468	19.081668	-70.106422	177.065652						
43926		8.661408	0.852337	2.682721	-0.305248	0.084546	-0.710868	-0.727924	0.115920	-0.220852	-1.097656	0.029541	0.073975	0.086639	0.008525	0.026746	0.071607	-0.569413	-0.118759	-0.810270	18.932561	-70.012068	176.779367						
43927		8.380896	0.976697	2.722866	-0.169857	-0.036046	-0.948318	-0.514940	0.428422	-0.204751	-1.095459	0.031738	0.067139	0.083877	0.009751	0.027024	0.069590	-0.567800	-0.117086	-0.811820	18.720226	-69.751210	176.691469						
43928		8.126252	1.201352	2.987713	0.166977	-0.194896	-1.075437	-0.334270	0.566839	-0.172517	-1.093018	0.027344	0.056152	0.081357	0.011993	0.029627	0.068284	-0.565580	-0.116000	-0.813634	18.499015	-69.421578	176.722011						
43929		7.772499	1.339781	3.164497	0.433603	-0.297870	-1.330717	-0.231917	0.583831	-0.137348	-1.097168	0.018311	0.056885	0.077826	0.013381	0.031402	0.067432	-0.563265	-0.115229	-0.815419	18.280453	-69.088645	176.813814						
43930		7.399324	1.475840	3.282466	0.660797	-0.414035	-1.621567	-0.146532	0.481549	-0.091829	-1.097412	0.022705	0.058838	0.074079	0.014748	0.032636	0.066932	-0.561360	-0.114708	-0.816846	18.099919	-68.819124	176.916048						
43931		7.099940	1.547994	3.301524	0.773180	-0.491442	-1.883871	-0.101626	0.268406	-0.040152	-1.097412	0.022705	0.056396	0.071047	0.015482	0.032912	0.066661	-0.560338	-0.114299	-0.817627	17.971263	-68.675083	176.991798						
43932		7.098512	1.423672	3.381328	0.807997	-0.356111	-1.871062	-0.157856	-0.049595	-0.000943	-1.095459	0.029541	0.051514	0.070977	0.014263	0.033820	0.066199	-0.560661	-0.113652	-0.817533	17.901351	-68.711606	176.968541						
43933		7.299338	1.299546	3.378345	0.721027	-0.236570	-1.700570	-0.258782	-0.399339	-0.008692	-1.094971	0.020508	0.063477	0.072926	0.013036	0.033912	0.065236	-0.562436	-0.112734	-0.816518	17.942746	-68.937083	176.765322						
43934		7.799002	1.408036	3.310672	0.548735	-0.347124	-1.248477	-0.276144	-0.670418	-0.026978	-1.095215	0.025146	0.065430	0.077880	0.014116	0.033348	0.063988	-0.565306	-0.111878	-0.814750	18.130048	-69.306444	176.394572						
43935		8.428239	1.620317	3.336757	0.462626	-0.525507	-0.630967	-0.250332	-0.818201	-0.002295	-1.093018	0.027344	0.076416	0.084145	0.016244	0.033692	0.062838	-0.568776	-0.111109	-0.812527	18.379078	-69.760554	175.975853						
43936		9.136194	1.758225	3.388799	0.371362	-0.622043	0.062535	-0.197099	-0.797284	0.047800	-1.093018	0.025146	0.085449	0.091222	0.017638	0.034234	0.062048	-0.572156	-0.110399	-0.810308	18.587017	-70.211032	175.633548						
43937		9.705128	1.859055	3.412422	0.294355	-0.695273	0.614193	-0.119419	-0.614582	0.079394	-1.093018	0.027344	0.092041	0.096938	0.018650	0.034411	0.061713	-0.574787	-0.109862	-0.808543	18.709270	-70.568549	175.431312						
43938		10.174676	1.990994	3.442044	0.246395	-0.802666	1.079083	0.010134	-0.317983	0.085365	-1.093018	0.022949	0.092285	0.101683	0.019952	0.034583	0.061931	-0.576173	-0.109732	-0.807557	18.744367	-70.765218	175.399436						
43939		10.479116	2.174763	3.659122	0.405773	-0.921743	1.453030	0.141908	0.060800	0.092412	-1.088379	0.020996	0.096924	0.104792	0.021770	0.036575	0.062771	-0.575997	-0.110003	-0.807581	18.645510	-70.758522	175.590434						
43940		10.490270	2.380869	3.924135	0.669043	-1.063886	1.568589	0.202332	0.481119	0.087859	-1.088623	0.027588	0.076416	0.104986	0.023815	0.039013	0.063989	-0.574094	-0.110393	-0.808786	18.371389	-70.521395	176.002832						
43941		10.241606	2.493634	4.258261	1.015892	-1.112415	1.455465	0.181942	0.896130	0.089130	-1.090820	0.025146	0.074219	0.102594	0.024944	0.042146	0.065391	-0.570518	-0.110568	-0.811177	17.889581	-70.058641	176.625533						
43942		9.844540	2.586799	4.549715	1.329351	-1.165145	1.195498	0.059144	1.258963	0.066290	-1.093018	0.025146	0.056396	0.098721	0.025887	0.044884	0.066541	-0.565473	-0.110184	-0.814660	17.230951	-69.390504	177.362984						
43943		9.401168	2.538079	4.731557	1.504496	-1.118252	0.850125	-0.092376	1.408947	0.071224	-1.095459	0.031738	0.042480	0.094333	0.025436	0.046640	0.067370	-0.559854	-0.109118	-0.818607	16.461436	-68.638963	178.130639						
43944		9.087265	2.409021	4.903731	1.612782	-0.999924	0.619281	-0.205346	1.241031	0.103396	-1.093018	0.027100	0.031494	0.091162	0.024187	0.048447	0.067912	-0.554945	-0.107548	-0.822106	15.700120	-67.980152	178.822591						
43945		9.262742	2.308898	5.236831	1.721586	-0.864907	0.903708	-0.266374	0.823658	0.130808	-1.095459	0.031494	0.022217	0.092827	0.023219	0.051955	0.068179	-0.551778	-0.105794	-0.824439	15.059422	-67.554224	179.350046						
43946		10.308829	2.301585	5.655018	1.641090	-0.794306	2.028941	-0.321625	0.271554	0.180442	-1.090820	0.031494	0.020020	0.103144	0.023200	0.056373	0.068196	-0.550919	-0.103858	-0.825258	14.532618	-67.438155	179.720015						
43947		12.322704	2.418132	5.872288	1.107405	-0.896820	3.976767	-0.311538	-0.375768	0.338144	-1.095947	0.044922	0.030518	0.123075	0.024481	0.058916	0.068564	-0.552812	-0.101753	-0.824223	14.022408	-67.703763	-179.920946						
43948		13.869150	2.294384	5.971197	0.701017	-0.802735	5.423261	-0.196132	-1.056410	0.535048	-1.089355	0.047363	0.043701	0.138311	0.023373	0.060420	0.069707	-0.557551	-0.099807	-0.821168	13.523071	-68.372568	-179.504361						
43949		12.917317	1.570068	5.577055	0.711849	-0.234328	4.324546	-0.373434	-1.199425	0.402506	-1.089600	0.051758	0.054688	0.128804	0.016065	0.056514	0.069745	-0.562858	-0.097551	-0.817809	13.133333	-69.103580	-179.315572						
43950		11.465324	0.822198	3.925033	-0.292940	0.077150	2.329917	-0.683752	-0.846068	0.137884	-1.087402	0.052002	0.061523	0.114480	0.008436	0.039706	0.067990	-0.566670	-0.094641	-0.815663	12.819501	-69.601678	-179.399491						
43951		10.333611	0.076426	2.020834	-1.696479	0.354617	0.573293	-0.655017	-0.868167	0.095784	-1.089600	0.052002	0.072754	0.103247	0.000881	0.020654	0.066139	-0.570533	-0.091976	-0.813424	12.589614	-70.108101	-179.554199						
43952		9.402676	-0.483854	0.917481	-2.404981	0.659046	-0.687624	-0.431716	-1.216371	0.112579	-1.087402	0.054199	0.083740	0.093971	-0.004765	0.009757	0.064824	-0.575717	-0.090279	-0.810060	12.585597	-70.810244	-179.813067						
43953		9.406524	-0.654766	0.520555	-2.689305	0.752437	-0.791460	-0.154306	-1.323781	0.098124	-1.087646	0.058838	0.096924	0.094031	-0.006497	0.005833	0.064205	-0.581222	-0.089782	-0.806225	12.818407	-71.571627	179.847776						
43954		9.950148	-0.707240	0.653163	-2.638167	0.846611	-0.207757	0.124489	-1.041010	0.138873	-1.083008	0.056641	0.108154	0.099471	-0.007008	0.007045	0.064680	-0.585487	-0.090192	-0.803049	13.052558	-72.178770	179.675936						
43955		10.311486	-0.805700	0.967539	-2.402180	1.017800	0.242433	0.396410	-0.495714	0.129654	-1.087646	0.058838	0.114990	0.103096	-0.008010	0.009915	0.066163	-0.587466	-0.091547	-0.801327	13.247746	-72.481375	179.709634						
43956		10.344092	-0.929546	1.385117	-2.031529	1.228307	0.392555	0.555695	0.088511	0.125633	-1.087891	0.063232	0.107910	0.103453	-0.009269	0.013780	0.068359	-0.587038	-0.093353	-0.801248	13.299351	-72.456695	179.988785						
43957		10.136201	-1.242203	1.929689	-1.567982	1.642974	0.328863	0.466986	0.576368	0.143335	-1.087891	0.063232	0.101074	0.101426	-0.012394	0.018976	0.070598	-0.584694	-0.094589	-0.802622	13.072365	-72.163029	-179.491944						
43958		9.659150	-1.600272	2.240887	-1.288188	2.037590	-0.062320	0.135148	0.924279	0.165486	-1.085938	0.070068	0.091797	0.096707	-0.015938	0.021951	0.072116	-0.581064	-0.094299	-0.805153	12.499067	-71.675607	-178.807943						
43959		9.120201	-1.914234	2.184357	-1.330236	2.294378	-0.615990	-0.170431	1.073708	0.179770	-1.088135	0.072021	0.082764	0.091335	-0.019042	0.021370	0.072875	-0.576941	-0.092686	-0.808231	11.711423	-71.104768	-178.079715						
43960		8.730430	-2.149911	1.986831	-1.519520	2.436661	-1.063794	-0.235931	0.952071	0.280023	-1.086182	0.076660	0.071045	0.087428	-0.021354	0.019478	0.073791	-0.573358	-0.090555	-0.810935	10.806779	-70.609198	-177.265650						
43961		8.517423	-2.305205	1.930608	-1.589920	2.532807	-1.289514	-0.068720	0.533455	0.376799	-1.086426	0.081055	0.073242	0.085269	-0.022885	0.019087	0.075389	-0.571450	-0.088983	-0.812308	10.004465	-70.356564	-176.456025						
43962		8.657314	-2.254935	2.027343	-1.555888	2.468123	-1.116053	0.177518	0.007635	0.341291	-1.086426	0.085449	0.063965	0.086612	-0.022420	0.020250	0.077312	-0.571560	-0.088703	-0.812080	9.553519	-70.393698	-175.869740						
43963		9.477272	-1.872186	2.155900	-1.608027	2.088122	-0.271956	0.507715	-0.434121	0.290389	-1.079834	0.085693	0.077393	0.094753	-0.018639	0.021717	0.079775	-0.573314	-0.090086	-0.810451	9.488013	-70.675479	-175.491551						
43964		10.177726	-1.353491	2.202574	-1.633774	1.577836	0.439649	0.959717	-0.595252	0.219025	-1.084473	0.092285	0.081543	0.101726	-0.013530	0.022264	0.083170	-0.575490	-0.093561	-0.808171	9.835760	-71.040998	-175.278136						
43965		10.257087	-0.806877	2.208695	-1.484694	1.068754	0.550253	1.494609	-0.404416	0.075380	-1.084717	0.092285	0.083740	0.102529	-0.008196	0.022233	0.087610	-0.576582	-0.099533	-0.806207	10.679967	-71.285688	-175.265129						
43966		9.854849	-0.101445	2.032234	-1.324707	0.389809	0.154828	1.968777	-0.104811	-0.024868	-1.084717	0.096680	0.083496	0.098538	-0.001227	0.020363	0.093154	-0.576161	-0.107559	-0.804855	11.873619	-71.350291	-175.335006						
43967		9.329209	0.583392	1.875957	-1.111994	-0.252223	-0.347310	2.262751	0.001616	-0.040546	-1.084961	0.098877	0.072021	0.093293	0.005602	0.018823	0.099529	-0.575104	-0.116759	-0.803565	13.229135	-71.353441	-175.397156						
43968		9.019441	1.103576	1.985818	-0.751014	-0.654909	-0.565069	2.230812	-0.131740	-0.037457	-1.084961	0.103516	0.080811	0.090183	0.010796	0.020039	0.105737	-0.574523	-0.125866	-0.801811	14.613052	-71.429885	-175.509143						
43969		9.195701	1.481455	2.169829	-0.494013	-0.897174	-0.304041	1.985595	-0.299188	-0.049488	-1.080322	0.099121	0.081055	0.091928	0.014575	0.021981	0.111072	-0.574675	-0.134106	-0.799642	15.961399	-71.596980	-175.731113						
43970		9.495683	1.678504	2.670535	-0.042868	-0.854940	0.156464	1.653219	-0.235026	-0.044234	-1.080566	0.101318	0.083008	0.094929	0.016542	0.026954	0.115509	-0.574706	-0.140948	-0.797812	17.088524	-71.727589	-175.921046						
43971		9.567238	1.724253	3.073651	0.320446	-0.704015	0.353628	1.194188	0.114466	-0.021041	-1.083008	0.105713	0.076172	0.095692	0.017049	0.030784	0.118957	-0.573598	-0.145690	-0.797251	17.742835	-71.670694	-175.889367						
43972		9.265649	1.554120	3.312131	0.538699	-0.428365	0.125314	0.742879	0.539640	0.015009	-1.087402	0.105469	0.069336	0.092744	0.015426	0.032929	0.121564	-0.571068	-0.148266	-0.798199	17.852799	-71.387446	-175.556879						
43973		8.712773	1.166241	3.283672	0.489270	-0.071482	-0.441986	0.401693	0.863136	0.028405	-1.089844	0.107666	0.060303	0.087267	0.011609	0.032484	0.123485	-0.567457	-0.149249	-0.800293	17.591327	-70.930624	-175.037245						
43974		8.119534	0.762819	3.299419	0.470219	0.301914	-1.033052	0.163794	1.017997	-0.000281	-1.085449	0.112061	0.048828	0.081362	0.007601	0.032587	0.124732	-0.563331	-0.149255	-0.803009	17.180881	-70.382175	-174.502994						
43975		7.530115	0.587742	3.165944	0.407418	0.406768	-1.643277	0.090737	0.999107	-0.052357	-1.092041	0.109863	0.044434	0.075460	0.005843	0.031285	0.125543	-0.559281	-0.149130	-0.805732	16.844205	-69.835275	-174.089496						
43976		7.050226	0.704753	3.035299	0.435028	0.247733	-2.120842	0.140502	0.787051	-0.078307	-1.096436	0.107422	0.033447	0.070624	0.006999	0.030080	0.126236	-0.556017	-0.149400	-0.807830	16.681585	-69.399094	-173.830249						
43977		6.778036	0.827225	3.095733	0.584858	0.161479	-2.339975	0.205800	0.381304	-0.058001	-1.087158	0.103027	0.031494	0.067842	0.008221	0.030837	0.126880	-0.554367	-0.150140	-0.808725	16.712690	-69.189553	-173.737265						
43978		6.904062	0.858991	3.286181	0.706387	0.206026	-2.153609	0.191478	-0.137976	-0.027682	-1.087646	0.112061	0.035400	0.069019	0.008549	0.032918	0.127218	-0.554842	-0.151060	-0.808175	16.915609	-69.269165	-173.837342						
43979		7.380372	0.778183	3.557758	0.767763	0.382639	-1.627514	0.083019	-0.553739	0.003011	-1.087402	0.105469	0.046875	0.073705	0.007768	0.035785	0.127064	-0.557091	-0.151728	-0.806526	17.201896	-69.582261	-174.092145						
43980		7.897002	0.699424	3.676215	0.712119	0.501669	-1.117443	-0.046668	-0.710638	0.016816	-1.089600	0.107666	0.049072	0.078838	0.007009	0.037041	0.126486	-0.560058	-0.151924	-0.804522	17.472184	-69.982918	-174.409035						
43981		8.264479	0.460488	3.591658	0.483421	0.693652	-0.829451	-0.121217	-0.644755	0.043013	-1.089600	0.107666	0.051270	0.082527	0.004645	0.036180	0.125851	-0.562822	-0.151711	-0.802731	17.641741	-70.351857	-174.662935						
43982		8.268984	0.077215	3.456483	0.272275	1.004307	-0.910642	-0.180328	-0.452898	0.047140	-1.087402	0.107666	0.062500	0.082611	0.000823	0.034751	0.125212	-0.564847	-0.151120	-0.801519	17.680435	-70.615922	-174.813937						
43983		8.077540	-0.338963	3.131344	-0.068253	1.273804	-1.237165	-0.143200	-0.240903	0.002415	-1.089844	0.112061	0.066895	0.080738	-0.003366	0.031413	0.124657	-0.565967	-0.150678	-0.800898	17.709437	-70.757138	-174.931430						
43984		7.848055	-0.570970	2.918364	-0.248512	1.418146	-1.544561	-0.012283	-0.099886	-0.053607	-1.089844	0.109863	0.066895	0.078464	-0.005729	0.029223	0.124356	-0.566395	-0.150824	-0.800615	17.828819	-70.811222	-175.065720						
43985		7.655655	-0.593200	2.911420	-0.196552	1.449780	-1.732044	0.121638	-0.021456	-0.092580	-1.087402	0.103271	0.067383	0.076551	-0.005985	0.029119	0.124335	-0.566400	-0.151574	-0.800473	18.049601	-70.815886	-175.225516						
43986		7.668104	-0.412593	3.042536	-0.025729	1.343863	-1.662815	0.225690	0.069624	-0.114520	-1.084961	0.103271	0.062744	0.076689	-0.004204	0.030394	0.124590	-0.565954	-0.152738	-0.800527	18.315035	-70.766360	-175.370235						
43987		8.039581	-0.199252	3.425214	0.247968	1.295511	-1.171694	0.292494	0.194646	-0.093548	-1.092041	0.107666	0.060303	0.080428	-0.002080	0.034171	0.125213	-0.564985	-0.154040	-0.800866	18.522668	-70.652934	-175.412485						
43988		8.744278	-0.042465	4.012720	0.555138	1.365612	-0.305167	0.250037	0.338913	-0.047092	-1.087646	0.109863	0.055664	0.087510	-0.000495	0.039978	0.126014	-0.563492	-0.154942	-0.801617	18.556199	-70.468845	-175.296622						
43989		9.400751	0.131850	4.428379	0.720066	1.348238	0.466689	0.186776	0.463082	-0.075644	-1.089355	0.098633	0.054199	0.094110	0.001242	0.044067	0.126617	-0.561522	-0.155600	-0.802776	18.537579	-70.212836	-175.163032						
43990		9.805339	0.288674	4.716569	0.839891	1.302345	0.960996	0.146079	0.489219	-0.119386	-1.089600	0.105469	0.044678	0.098170	0.002794	0.046928	0.126950	-0.559431	-0.156191	-0.804068	18.547186	-69.933919	-175.084808						
43991		9.896706	0.323478	4.891695	0.922788	1.333712	1.111945	0.007317	0.405592	-0.141813	-1.091553	0.096436	0.047607	0.099068	0.003163	0.048716	0.126738	-0.557748	-0.156347	-0.805239	18.555515	-69.697080	-175.089037						
43992		9.774480	0.218413	4.850404	0.853258	1.412336	0.975815	-0.172101	0.272398	-0.131162	-1.093994	0.100830	0.040527	0.097812	0.002162	0.048369	0.125964	-0.556716	-0.155827	-0.806175	18.508334	-69.533779	-175.144614						
43993		9.829035	-0.064217	4.836793	0.697452	1.656118	0.993765	-0.334411	0.137548	-0.099058	-1.089111	0.096436	0.040771	0.098323	-0.000610	0.048301	0.124762	-0.556359	-0.154656	-0.806834	18.389739	-69.450380	-175.222383						
43994		10.128533	-0.304049	4.763008	0.436978	1.826064	1.225446	-0.448984	0.041776	-0.061769	-1.091797	0.103027	0.042725	0.101294	-0.002965	0.047616	0.123318	-0.556480	-0.152969	-0.807294	18.194920	-69.425053	-175.289811						
43995		10.629271	-0.531013	4.642373	0.079645	1.959644	1.631457	-0.428020	0.023345	-0.037885	-1.089111	0.094238	0.041016	0.106297	-0.005231	0.046423	0.122013	-0.556684	-0.151321	-0.807662	17.989182	-69.414909	-175.331824						
43996		11.126488	-0.601805	4.681048	-0.084434	2.012417	2.104366	-0.279083	0.072904	-0.037480	-1.091553	0.096436	0.042969	0.111281	-0.005974	0.046778	0.121163	-0.556590	-0.150231	-0.808058	17.841797	-69.377147	-175.345978						
43997		11.483654	-0.602744	4.858353	-0.072505	2.060097	2.499577	-0.088869	0.264101	-0.063992	-1.093506	0.093994	0.034180	0.114899	-0.006043	0.048435	0.120877	-0.555593	-0.149878	-0.808852	17.756359	-69.231165	-175.308897						
43998		11.695977	-0.469416	5.019672	-0.011677	1.979893	2.768757	0.109283	0.589017	-0.081691	-1.095947	0.096191	0.031738	0.117105	-0.004769	0.049849	0.121312	-0.553140	-0.150167	-0.810413	17.659572	-68.903886	-175.139169						
43999		12.312017	-0.203499	5.190571	-0.074951	1.765608	3.432892	0.347532	0.732074	-0.039789	-1.095703	0.091797	0.020996	0.123309	-0.002149	0.051451	0.122683	-0.549993	-0.151229	-0.812149	17.584239	-68.506514	-174.844424						
44000		13.643145	0.272961	5.684782	-0.051178	1.466563	4.896925	0.647687	0.488014	-0.010095	-1.095703	0.091797	0.020996	0.136570	0.002539	0.056523	0.124813	-0.547661	-0.153563	-0.812962	17.747588	-68.246729	-174.621957						
44001		14.309888	0.983323	6.296401	0.421629	1.056425	5.810698	0.966277	0.264566	-0.072121	-1.100342	0.093750	0.016357	0.143186	0.009478	0.062821	0.127389	-0.545985	-0.157510	-0.812935	18.278166	-68.099104	-174.596937						
44002		13.700076	1.695186	6.162951	0.740353	0.430082	5.280813	1.064362	0.411853	-0.161842	-1.099854	0.084961	0.012451	0.137141	0.016514	0.061436	0.129979	-0.543557	-0.161989	-0.813272	18.912318	-67.854445	-174.624371						
44003		12.469431	2.250109	5.141077	0.493350	-0.383261	3.847089	1.041347	0.339251	-0.208906	-1.102051	0.084717	0.007813	0.124805	0.022103	0.051315	0.132253	-0.541388	-0.166558	-0.813429	19.624798	-67.640803	-174.749343						
44004		10.749056	2.380890	4.055728	0.254818	-0.823750	1.888416	1.006841	0.049142	-0.289116	-1.099854	0.082764	0.010254	0.107535	0.023449	0.040650	0.133857	-0.540335	-0.171378	-0.812865	20.550317	-67.565944	-175.127906						
44005		9.417726	2.238685	2.997105	-0.180363	-1.027613	0.266944	0.961967	-0.189236	-0.343317	-1.097412	0.075928	0.010742	0.094187	0.022080	0.030167	0.134917	-0.540224	-0.176329	-0.811704	21.638251	-67.605695	-175.708356						
44006		8.602665	2.429580	2.137948	-0.481940	-1.471438	-0.752805	0.966727	-0.547040	-0.404788	-1.099365	0.069336	0.017822	0.086016	0.024017	0.021731	0.135413	-0.541488	-0.181690	-0.809594	23.001663	-67.816264	-176.584751						
44007		8.129951	2.871335	1.481602	-0.613104	-2.060671	-1.332564	0.904677	-0.910558	-0.475597	-1.103760	0.069336	0.029053	0.081298	0.028452	0.015315	0.135127	-0.544182	-0.187242	-0.806565	24.657205	-68.192862	-177.811023						
44008		8.407413	3.348154	1.078665	-0.777199	-2.573468	-1.104650	0.755055	-1.192976	-0.549289	-1.101074	0.060547	0.042969	0.084099	0.033208	0.011414	0.133854	-0.548017	-0.192561	-0.802920	26.553271	-68.682161	-179.386143						
44009		9.230142	3.867469	0.901562	-0.916777	-3.009135	-0.269714	0.594133	-1.274513	-0.567230	-1.103271	0.053711	0.054688	0.092350	0.038385	0.009718	0.131993	-0.552240	-0.197338	-0.799167	28.518257	-69.188955	178.873171						
44010		9.856207	4.174514	1.054144	-0.805843	-3.096318	0.455941	0.400750	-0.933349	-0.583588	-1.112061	0.049316	0.061768	0.098632	0.041436	0.011085	0.129850	-0.555184	-0.201143	-0.796524	30.216710	-69.500026	177.301862						
44011		9.720976	4.255737	1.076341	-0.682182	-3.075143	0.377745	0.123611	-0.173652	-0.614128	-1.102783	0.044922	0.057373	0.097330	0.042252	0.010874	0.127590	-0.555241	-0.203441	-0.796267	31.231542	-69.415240	176.293934						
44012		8.976559	4.244079	0.957527	-0.576011	-3.094014	-0.346840	-0.169162	0.626273	-0.649968	-1.106689	0.033691	0.053711	0.089932	0.042157	0.009258	0.125178	-0.552249	-0.204151	-0.798545	31.479597	-68.923560	175.923673						
44013		8.014535	4.176146	0.869202	-0.436431	-3.091808	-1.287576	-0.438001	1.089227	-0.635942	-1.102051	0.027100	0.036133	0.080323	0.041525	0.008164	0.122556	-0.547579	-0.203460	-0.802335	31.195958	-68.210476	175.958960						
44014		7.247093	4.209720	1.005841	-0.143697	-3.091629	-1.959423	-0.661940	1.145264	-0.562351	-1.104004	0.020264	0.029785	0.072644	0.041925	0.009504	0.119659	-0.542863	-0.201620	-0.806431	30.667227	-67.490238	176.119228						
44015		7.163856	4.187562	1.385459	0.085440	-2.922777	-1.924391	-0.908017	0.790399	-0.466358	-1.105957	0.013428	0.023438	0.071790	0.041770	0.013381	0.116126	-0.539804	-0.198736	-0.809710	30.150786	-66.973884	176.115268						
44016		7.707387	4.017685	2.160629	0.368815	-2.436764	-1.202246	-1.189405	0.223468	-0.301456	-1.110596	0.015625	0.025635	0.077158	0.040188	0.021281	0.111923	-0.539343	-0.194584	-0.811616	29.671045	-66.785348	175.894806						
44017		8.287242	3.570607	3.101118	0.712949	-1.648412	-0.441521	-1.535651	-0.226983	-0.104221	-1.112793	0.015625	0.027832	0.082856	0.035900	0.030830	0.107153	-0.541072	-0.188742	-0.812487	29.062318	-66.878868	175.600067						
44018		8.328686	2.839001	3.682000	0.909135	-0.803932	-0.351679	-1.933528	-0.381624	0.055083	-1.110352	0.011230	0.030273	0.083209	0.028768	0.036702	0.101794	-0.543749	-0.180916	-0.813169	28.135327	-67.095184	175.402729						
44019		7.903348	1.887317	3.694025	0.762248	-0.027636	-0.919535	-2.252762	-0.370275	0.119048	-1.110596	0.015625	0.034424	0.078954	0.019336	0.036870	0.095831	-0.546540	-0.171597	-0.814043	26.933838	-67.324297	175.306103						
44020		7.538992	1.053193	3.412518	0.410301	0.536567	-1.498004	-2.336281	-0.415299	0.125206	-1.108154	0.013428	0.039063	0.075312	0.010978	0.034155	0.089607	-0.549481	-0.161914	-0.814754	25.693218	-67.578336	175.199148						
44021		7.703844	0.497046	3.282155	0.110229	0.938955	-1.477565	-2.252234	-0.631644	0.136697	-1.103760	0.013672	0.054932	0.076931	0.005394	0.033005	0.083480	-0.553202	-0.152621	-0.814681	24.604359	-67.948662	174.981552						
44022		8.182128	0.224341	3.275168	-0.074584	1.148838	-1.072100	-2.035537	-0.916661	0.154418	-1.108398	0.020264	0.061279	0.081668	0.002642	0.033101	0.077788	-0.557933	-0.144256	-0.813542	23.772718	-68.473261	174.620173						
44023		8.633984	0.177095	3.357036	-0.075649	1.190470	-0.624508	-1.648749	-1.062247	0.134311	-1.101563	0.013916	0.070557	0.086159	0.002108	0.034012	0.072987	-0.563030	-0.137565	-0.811632	23.269761	-69.071455	174.146491						
44024		8.835253	0.214094	3.368132	-0.023251	1.136524	-0.423393	-1.160422	-0.923075	0.076757	-1.099365	0.018311	0.081543	0.088195	0.002372	0.034075	0.069413	-0.567299	-0.132950	-0.809739	23.045497	-69.584177	173.674669						
44025		8.642870	0.371735	3.247546	0.054215	0.929272	-0.619365	-0.654068	-0.619556	-0.005084	-1.101563	0.016113	0.088379	0.086328	0.003822	0.032731	0.067148	-0.570089	-0.130514	-0.808366	23.052492	-69.919102	173.267954						
44026		8.333861	0.559065	2.996823	0.026020	0.665394	-0.963775	-0.223473	-0.345334	-0.067529	-1.103760	0.013916	0.095215	0.083289	0.005596	0.030106	0.066031	-0.571575	-0.129895	-0.807508	23.232064	-70.094824	172.939702						
44027		8.028245	0.888367	2.766371	0.027400	0.281636	-1.279539	0.107053	-0.198892	-0.089230	-1.101563	0.016113	0.094971	0.080259	0.008833	0.027748	0.065871	-0.572348	-0.130631	-0.806854	23.546402	-70.188549	172.670882						
44028		7.936907	1.151624	2.671058	0.052710	0.014685	-1.359744	0.337177	-0.137683	-0.081197	-1.099121	0.009521	0.099854	0.079355	0.011439	0.026785	0.066437	-0.572799	-0.132244	-0.806225	23.942647	-70.250970	172.454119						
44029		7.822961	1.390565	2.680046	0.171972	-0.197135	-1.431365	0.427477	-0.105595	-0.064949	-1.098877	0.005127	0.097900	0.078220	0.013823	0.026871	0.067352	-0.573102	-0.134172	-0.805615	24.349471	-70.300394	172.282308						
44030		7.742197	1.678191	2.733362	0.330664	-0.441357	-1.450568	0.393346	-0.035483	-0.063370	-1.094727	0.014160	0.097412	0.077422	0.016704	0.027380	0.068215	-0.573129	-0.135924	-0.805229	24.687747	-70.312651	172.161159						
44031		7.758318	1.917435	2.707673	0.368031	-0.661179	-1.408704	0.299864	0.043469	-0.064293	-1.101318	0.007324	0.093262	0.077595	0.019109	0.027089	0.068868	-0.572871	-0.137284	-0.805127	24.922216	-70.284034	172.094780						
44032		7.861754	2.210630	2.729677	0.430818	-0.919307	-1.261987	0.201475	0.056660	-0.022772	-1.101563	0.013916	0.099609	0.078628	0.022070	0.027297	0.069409	-0.572617	-0.138117	-0.805118	25.029224	-70.257873	172.102749						
44033		7.908575	2.404442	2.993335	0.705268	-1.019336	-1.109210	0.022406	0.018245	0.018293	-1.099121	0.007324	0.102295	0.079086	0.024048	0.029929	0.069582	-0.572612	-0.138132	-0.805104	25.001832	-70.262280	172.145668						
44034		7.924779	2.389192	3.250712	0.927016	-0.933495	-1.017989	-0.259373	0.020159	0.030326	-1.101318	0.007324	0.102295	0.079247	0.023946	0.032468	0.068992	-0.572702	-0.136970	-0.805290	24.792801	-70.267961	172.208823						
44035		7.979824	2.280886	3.410948	1.018278	-0.796970	-0.933357	-0.518870	0.056874	-0.005654	-1.101318	0.009521	0.099854	0.079809	0.022895	0.034027	0.067545	-0.572710	-0.134861	-0.805763	24.464257	-70.246433	172.242205						
44036		8.203049	2.170146	3.461714	0.950366	-0.690007	-0.724033	-0.711069	0.034318	-0.036959	-1.092285	0.009766	0.099854	0.082040	0.021809	0.034526	0.065398	-0.572843	-0.132065	-0.806308	24.085030	-70.228556	172.211164						
44037		8.291295	2.087775	3.445093	0.877429	-0.638448	-0.658700	-0.755516	-0.032262	-0.026543	-1.096924	0.009521	0.097656	0.082910	0.020997	0.034385	0.063129	-0.573262	-0.129088	-0.806673	23.709744	-70.248730	172.150145						
44038		8.258616	2.016223	3.411452	0.839154	-0.606449	-0.711265	-0.663566	-0.090738	0.006174	-1.101074	0.004883	0.093506	0.082570	0.020278	0.034085	0.061210	-0.573897	-0.126399	-0.806796	23.374962	-70.306483	172.100962						
44039		8.345480	1.951122	3.477258	0.859877	-0.545437	-0.619848	-0.492872	-0.110477	0.071533	-1.096680	0.005127	0.100098	0.083429	0.019627	0.034770	0.060038	-0.574600	-0.124221	-0.806721	23.054678	-70.390237	172.141373						
44040		8.637683	1.764083	3.673642	0.905289	-0.322178	-0.310382	-0.350806	-0.068918	0.119618	-1.099121	0.007324	0.102295	0.086354	0.017757	0.036735	0.059486	-0.575115	-0.122459	-0.806665	22.715658	-70.461842	172.286856						
44041		8.855412	1.635692	3.758198	0.884714	-0.187724	-0.096728	-0.215916	0.023881	0.119845	-1.096924	0.009521	0.104492	0.088549	0.016451	0.037554	0.059387	-0.575219	-0.121220	-0.806785	22.395733	-70.484959	172.495220						
44042		9.384732	1.734244	3.927313	0.886987	-0.232793	0.466594	-0.036807	0.062716	0.134354	-1.101318	0.009521	0.099854	0.093848	0.017413	0.039240	0.059878	-0.575116	-0.120642	-0.806909	22.131319	-70.489467	172.752377						
44043		10.204733	2.000928	4.460479	1.163741	-0.331657	1.437728	0.070629	0.092698	0.191041	-1.097168	0.016357	0.097412	0.102049	0.020091	0.044565	0.060932	-0.574899	-0.120333	-0.807030	21.826331	-70.490586	173.119052						
44044		10.769930	2.183506	4.975022	1.480134	-0.372354	2.153114	0.032742	0.226198	0.225938	-1.097168	0.018555	0.094971	0.107731	0.021949	0.049632	0.062091	-0.574169	-0.119723	-0.807552	21.367351	-70.426219	173.625101						
44045		10.859412	2.343815	5.265166	1.718046	-0.480877	2.351151	-0.108623	0.523801	0.183560	-1.092773	0.022949	0.083496	0.108710	0.023566	0.052354	0.062858	-0.572259	-0.118578	-0.809017	20.726373	-70.193278	174.239961						
44046		10.420152	2.313426	5.289365	1.807429	-0.504951	1.951077	-0.312809	0.842483	0.094121	-1.099365	0.018311	0.070313	0.104412	0.023266	0.052418	0.062862	-0.569056	-0.116755	-0.811537	19.943241	-69.767732	174.881978						
44047		9.692095	2.326239	4.982958	1.682169	-0.669456	1.182715	-0.486133	1.000761	-0.004126	-1.095215	0.022949	0.072266	0.097169	0.023381	0.049287	0.062070	-0.565200	-0.114461	-0.814613	19.153676	-69.235942	175.427722						
44048		9.205997	2.527558	4.659482	1.506951	-1.002730	0.655002	-0.413335	0.858132	-0.074840	-1.099609	0.020508	0.061035	0.092268	0.025337	0.046147	0.061106	-0.561840	-0.112699	-0.817252	18.603158	-68.765029	175.762967						
44049		9.396792	2.908283	4.890546	1.659500	-1.329300	0.964789	-0.136966	0.510521	-0.102866	-1.108398	0.015869	0.048096	0.094107	0.029068	0.048645	0.060613	-0.559800	-0.112256	-0.818749	18.426138	-68.478267	175.868971						
44050		10.060433	3.332965	5.504916	2.024822	-1.565551	1.852394	0.161909	0.255360	-0.116046	-1.099365	0.018066	0.047852	0.100694	0.033227	0.054948	0.060753	-0.558695	-0.113145	-0.819370	18.556232	-68.326537	175.828063						
44051		10.788239	3.657573	6.146840	2.387030	-1.674526	2.798638	0.332787	0.166640	-0.118969	-1.097168	0.018311	0.047852	0.107955	0.036409	0.061439	0.061315	-0.557907	-0.114773	-0.819639	18.828273	-68.223576	175.740653						
44052		11.345404	3.747434	6.253773	2.283125	-1.689702	3.370761	0.275346	0.124177	-0.106090	-1.099365	0.015869	0.047852	0.113513	0.037328	0.062519	0.061738	-0.557307	-0.116139	-0.819823	19.067541	-68.144566	175.652216						
44053		11.723546	3.459668	5.847983	1.707266	-1.488555	3.546922	0.045384	-0.023750	-0.047071	-1.099121	0.013672	0.048096	0.117237	0.034556	0.058502	0.061683	-0.557427	-0.116447	-0.819701	19.164524	-68.157929	175.575923						
44054		11.641448	2.822401	5.337088	1.142608	-1.013314	3.211957	-0.310488	-0.162877	0.037094	-1.096924	0.013672	0.050293	0.116366	0.028329	0.053422	0.060891	-0.558266	-0.115102	-0.819380	19.008725	-68.261027	175.551402						
44055		11.259648	1.975321	4.591079	0.444064	-0.424275	2.491059	-0.639953	-0.266365	0.098127	-1.092529	0.018311	0.050049	0.112525	0.019956	0.045997	0.059378	-0.559669	-0.112270	-0.818926	18.628165	-68.432950	175.566530						
44056		10.864517	1.182035	3.889435	-0.178087	0.117888	1.785444	-0.866824	-0.454485	0.168770	-1.090332	0.018311	0.056641	0.108546	0.012081	0.039089	0.057405	-0.561929	-0.108362	-0.818045	18.102392	-68.718426	175.597132						
44057		10.450331	0.541423	3.084425	-0.827069	0.493309	1.054151	-1.001465	-0.698739	0.223142	-1.092773	0.020752	0.065674	0.104389	0.005686	0.031181	0.055150	-0.565248	-0.103821	-0.816501	17.526166	-69.147990	175.599911						
44058		10.077621	-0.063349	2.147507	-1.577329	0.822161	0.336659	-0.987391	-0.997948	0.277422	-1.090820	0.025146	0.078857	0.100668	-0.000386	0.021980	0.052991	-0.569778	-0.099258	-0.814060	17.003079	-69.749084	175.553705						
44059		9.617534	-0.588255	1.312666	-2.166518	1.117139	-0.398721	-0.861489	-1.287538	0.300544	-1.090576	0.022949	0.087891	0.096097	-0.005680	0.013770	0.051145	-0.575441	-0.095216	-0.810670	16.638956	-70.514323	175.416209						
44060		9.487787	-1.024472	0.547517	-2.775717	1.369364	-0.769136	-0.705298	-1.449999	0.306030	-1.082031	0.032227	0.107422	0.094850	-0.010079	0.006199	0.049684	-0.581679	-0.091822	-0.806691	16.426514	-71.368692	175.212763						
44061		9.982458	-1.356671	-0.181845	-3.527171	1.552813	-0.503077	-0.397208	-1.478612	0.390898	-1.084473	0.034424	0.118652	0.099861	-0.013374	-0.001054	0.049451	-0.587964	-0.089429	-0.802406	16.264563	-72.253915	175.143850						
44062		10.712483	-1.694586	-0.514169	-3.979355	1.821189	0.124084	0.009591	-1.298790	0.473972	-1.077637	0.032471	0.138916	0.107195	-0.016692	-0.004447	0.050823	-0.593425	-0.088370	-0.798408	16.090958	-73.052517	175.331012						
44063		11.187604	-1.858734	-0.377434	-3.910823	1.996187	0.650574	0.325781	-0.755996	0.379811	-1.084961	0.043457	0.140381	0.111924	-0.018369	-0.003381	0.052997	-0.596583	-0.088716	-0.795870	15.972642	-73.538167	175.649597						
44064		11.506357	-1.862821	-0.036257	-3.647180	2.049566	1.066879	0.439939	0.097370	0.202123	-1.082520	0.039063	0.140625	0.115082	-0.018511	-0.000459	0.055177	-0.596223	-0.089814	-0.795869	15.788559	-73.524614	176.103635						
44065		11.058767	-1.775211	0.277597	-3.264248	1.991746	0.718288	0.447377	0.893654	0.083304	-1.085205	0.050049	0.128906	0.110606	-0.017711	0.002242	0.057268	-0.592635	-0.091080	-0.798254	15.426039	-73.053527	176.749941						
44066		10.151815	-1.567350	0.647034	-2.727992	1.821812	-0.057073	0.536600	1.292673	0.034999	-1.085205	0.052246	0.117432	0.101560	-0.015672	0.005772	0.059607	-0.587379	-0.092721	-0.801771	15.038219	-72.352484	177.477392						
44067		9.431300	-1.434601	1.132351	-2.159514	1.760070	-0.618836	0.697365	1.288560	0.055972	-1.085205	0.054443	0.101563	0.094387	-0.014358	0.010665	0.062501	-0.582077	-0.094948	-0.805149	14.751448	-71.656430	178.199192						
44068		9.370397	-1.172913	1.557945	-1.803450	1.576597	-0.546173	0.938075	0.967697	0.123914	-1.089844	0.056641	0.092529	0.093785	-0.011743	0.015071	0.066215	-0.577991	-0.098035	-0.807422	14.657109	-71.146686	178.865376						
44069		9.786745	-0.623852	2.028072	-1.457472	1.141594	0.028805	1.252163	0.423517	0.214528	-1.089844	0.056396	0.083496	0.097917	-0.006259	0.020034	0.070932	-0.576022	-0.102311	-0.807899	14.842046	-70.952510	179.428567						
44070		10.196532	-0.070371	2.558969	-0.994149	0.741041	0.626902	1.496739	-0.142604	0.254334	-1.087891	0.063232	0.087646	0.101948	-0.000766	0.025657	0.076221	-0.576237	-0.107647	-0.806569	15.343494	-71.077717	179.804614						
44071		10.347750	0.460854	2.818909	-0.642614	0.320255	0.897996	1.557825	-0.464403	0.240863	-1.085938	0.072266	0.096191	0.103406	0.004512	0.028465	0.081453	-0.577688	-0.113393	-0.804228	16.050958	-71.380440	-179.999706						
44072		10.062807	0.785400	2.664310	-0.555995	0.000250	0.611613	1.568993	-0.437127	0.194749	-1.083740	0.074463	0.095947	0.100562	0.007741	0.026924	0.086545	-0.578957	-0.119289	-0.801928	16.832426	-71.661058	-179.876257						
44073		9.335329	0.968590	2.298752	-0.570470	-0.247528	-0.169868	1.544212	-0.165639	0.141311	-1.088379	0.076660	0.095947	0.093327	0.009574	0.023139	0.091504	-0.579083	-0.125125	-0.800396	17.562512	-71.784937	-179.713181						
44074		8.720614	1.339119	1.943380	-0.576220	-0.681389	-0.822543	1.502861	0.084298	0.093004	-1.088623	0.081055	0.093262	0.087208	0.013285	0.019497	0.096307	-0.578156	-0.130804	-0.799594	18.215294	-71.763931	-179.494230						
44075		8.467239	1.899194	1.893604	-0.366589	-1.202766	-1.020321	1.516192	0.227632	0.062322	-1.077393	0.083496	0.086426	0.084688	0.018875	0.018983	0.101108	-0.576603	-0.136557	-0.799161	18.851324	-71.660943	-179.248994						
44076		8.485480	2.378612	2.277361	0.122935	-1.500290	-0.835968	1.498731	0.340371	0.089522	-1.084229	0.083496	0.088623	0.084883	0.023653	0.022807	0.106046	-0.574584	-0.142088	-0.799011	19.363545	-71.501748	-178.883932						
44077		8.395268	2.496608	2.856458	0.694183	-1.383734	-0.731045	1.276603	0.482947	0.111624	-1.086670	0.085449	0.081787	0.084008	0.024831	0.028521	0.110522	-0.572107	-0.146595	-0.799368	19.637487	-71.271609	-178.401008						
44078		8.117196	2.263004	3.159723	0.941814	-1.040102	-0.923090	0.876742	0.629412	0.106095	-1.089111	0.094238	0.070068	0.081259	0.022535	0.031441	0.113938	-0.569234	-0.149425	-0.800414	19.611254	-70.960957	-177.842737						
44079		7.792314	1.787395	3.240626	0.908624	-0.565097	-1.252812	0.516361	0.674633	0.093222	-1.084473	0.087646	0.063721	0.078024	0.017827	0.032189	0.116305	-0.566369	-0.150827	-0.801842	19.388138	-70.623764	-177.293001						
44080		7.533103	1.198675	3.337676	0.824741	0.009403	-1.527515	0.213559	0.588155	0.086480	-1.086914	0.094238	0.056641	0.075424	0.011984	0.033168	0.117728	-0.564003	-0.151076	-0.803254	19.057468	-70.329939	-176.812390						
44081		7.241859	0.664792	3.304964	0.667284	0.481033	-1.867091	-0.068418	0.422450	0.042255	-1.089111	0.094238	0.056641	0.072487	0.006675	0.032894	0.118045	-0.562441	-0.150420	-0.804425	18.732323	-70.118106	-176.508348						
44082		7.019217	0.432252	3.069210	0.435158	0.598636	-2.175374	-0.203758	0.176225	0.000969	-1.089111	0.094238	0.058838	0.070219	0.004354	0.030626	0.117637	-0.561909	-0.149474	-0.805033	18.516999	-70.030917	-176.403544						
44083		6.743123	0.476684	2.956551	0.447506	0.513299	-2.465962	-0.194938	-0.105113	0.030644	-1.093750	0.098633	0.063232	0.067415	0.004806	0.029596	0.117156	-0.562533	-0.148652	-0.804819	18.407585	-70.102921	-176.405789						
44084		6.620717	0.423218	2.993939	0.522989	0.575324	-2.575831	-0.202147	-0.371533	0.100596	-1.089355	0.101074	0.067383	0.066149	0.004296	0.030058	0.116744	-0.564282	-0.147753	-0.803819	18.318185	-70.332334	-176.434045						
44085		6.746775	0.254927	3.068130	0.523968	0.752797	-2.453614	-0.287190	-0.557191	0.160018	-1.089355	0.098877	0.069824	0.067380	0.002647	0.030865	0.116186	-0.566869	-0.146459	-0.802316	18.185516	-70.673546	-176.467688						
44086		6.925481	0.083879	3.008698	0.400795	0.881068	-2.323731	-0.346086	-0.585273	0.174613	-1.089600	0.103271	0.071777	0.069166	0.000952	0.030288	0.115506	-0.569604	-0.144894	-0.800760	18.004511	-71.032539	-176.486066						
44087		7.129871	-0.148911	2.968290	0.264254	1.071907	-2.167492	-0.355483	-0.468831	0.165333	-1.089600	0.101074	0.085449	0.071230	-0.001377	0.029852	0.114838	-0.571867	-0.143257	-0.799536	17.773473	-71.326571	-176.456985						
44088		7.273315	-0.440924	2.822080	0.024060	1.279505	-2.104128	-0.319745	-0.274541	0.131139	-1.092041	0.107666	0.087158	0.072697	-0.004316	0.028328	0.114280	-0.573299	-0.141740	-0.798860	17.509957	-71.508040	-176.372356						
44089		7.307356	-0.583642	2.667003	-0.152259	1.347999	-2.130846	-0.196181	-0.092072	0.079736	-1.093994	0.103271	0.085205	0.073064	-0.005781	0.026709	0.113992	-0.573899	-0.140767	-0.798643	17.308927	-71.581333	-176.278749						
44090		7.320036	-0.494159	2.638875	-0.144530	1.248072	-2.117741	0.011645	0.040948	0.045881	-1.089844	0.107910	0.089600	0.073207	-0.004926	0.026373	0.114267	-0.573820	-0.140637	-0.798683	17.209812	-71.575592	-176.167377						
44091		7.273694	-0.335911	2.778717	0.040989	1.148088	-2.104191	0.234803	0.175307	0.038611	-1.089844	0.112305	0.080322	0.072762	-0.003378	0.027719	0.115240	-0.573076	-0.141350	-0.798952	17.186710	-71.495460	-176.001013						
44092		7.479793	-0.203025	3.209776	0.380065	1.172409	-1.764576	0.349320	0.367286	0.008582	-1.091797	0.105469	0.078369	0.074857	-0.002083	0.031957	0.116567	-0.571471	-0.142487	-0.799706	17.177788	-71.304765	-175.780391						
44093		8.116857	-0.190934	3.743732	0.614486	1.336166	-0.993829	0.325973	0.467817	0.022059	-1.091797	0.105469	0.071777	0.081256	-0.001961	0.037244	0.117942	-0.569488	-0.143441	-0.800748	17.092044	-71.061623	-175.492316						
44094		8.475011	-0.157380	3.931273	0.631693	1.359703	-0.590026	0.254586	0.474537	-0.034024	-1.089844	0.107666	0.073730	0.084843	-0.001638	0.039109	0.118896	-0.567468	-0.144256	-0.801894	17.052231	-70.804416	-175.296195						
44095		8.692553	0.102800	4.019887	0.686030	1.145832	-0.328659	0.345135	0.421072	-0.093809	-1.093994	0.100830	0.067383	0.087010	0.000918	0.040017	0.119825	-0.565569	-0.145643	-0.802846	17.188727	-70.567305	-175.231114						
44096		9.219316	0.423313	4.259062	0.800114	0.932809	0.277120	0.393952	0.207781	-0.081230	-1.087402	0.103271	0.064941	0.092239	0.004112	0.042503	0.120787	-0.564499	-0.147308	-0.803151	17.432206	-70.448677	-175.250559						
44097		10.066493	0.696515	4.560171	0.873741	0.788269	1.197749	0.283722	-0.188172	-0.048096	-1.089355	0.098877	0.067627	0.100624	0.006876	0.045706	0.121277	-0.565111	-0.148685	-0.802393	17.756079	-70.552411	-175.421510						
44098		10.883677	0.809867	4.786688	0.877426	0.773235	2.047102	0.079918	-0.519490	-0.035996	-1.093750	0.098633	0.074219	0.108713	0.008060	0.048153	0.120992	-0.567179	-0.149401	-0.800843	18.112474	-70.837977	-175.751370						
44099		11.435833	0.663552	4.864610	0.771511	0.948180	2.572319	-0.172978	-0.521477	-0.031181	-1.089355	0.101074	0.078613	0.114232	0.006660	0.048938	0.120008	-0.569410	-0.149099	-0.799462	18.328895	-71.125506	-176.084941						
44100		11.932835	0.332101	4.745010	0.437881	1.204853	2.969113	-0.457314	-0.266606	-0.016891	-1.084961	0.098877	0.085449	0.119265	0.003420	0.047601	0.118459	-0.570795	-0.147457	-0.799010	18.227632	-71.276232	-176.255593						
44101		12.539171	-0.084047	4.553384	-0.046478	1.491817	3.444139	-0.604977	-0.013918	-0.005234	-1.087158	0.098877	0.083252	0.125389	-0.000706	0.045545	0.116722	-0.571266	-0.145050	-0.799369	17.891812	-71.292190	-176.266828						
44102		13.063117	-0.472889	4.708259	-0.218809	1.869357	3.952988	-0.550596	0.265468	-0.009082	-1.084961	0.101074	0.080811	0.130693	-0.004606	0.046922	0.115325	-0.570578	-0.142698	-0.800486	17.447721	-71.154505	-176.131893						
44103		13.425466	-0.633910	5.139162	-0.062375	2.125477	4.418745	-0.383347	0.662374	-0.023747	-1.086914	0.094482	0.072266	0.134423	-0.006257	0.050959	0.114630	-0.568191	-0.140835	-0.802611	16.935226	-70.797206	-175.821946						
44104		13.707377	-0.544904	5.531897	0.110563	2.123364	4.825211	-0.123578	1.053896	-0.022128	-1.089111	0.092041	0.059082	0.137362	-0.005430	0.054599	0.114951	-0.564068	-0.139773	-0.805653	16.401317	-70.223646	-175.331640						
44105		14.135253	-0.094106	6.015032	0.387248	1.808072	5.437657	0.221830	1.182944	0.011911	-1.093262	0.087402	0.050293	0.141705	-0.000999	0.059312	0.116472	-0.559237	-0.139938	-0.808768	15.988470	-69.583905	-174.756521						
44106		14.090949	0.346930	6.522382	0.825054	1.537064	5.620095	0.477513	1.134734	0.010228	-1.095703	0.091797	0.036621	0.141276	0.003322	0.064431	0.118653	-0.554425	-0.141155	-0.811547	15.770627	-68.968303	-174.232548						
44107		13.698740	0.720229	6.510795	0.924433	1.178115	5.297579	0.663999	0.999867	-0.002531	-1.093506	0.091797	0.020996	0.137311	0.006986	0.064445	0.121210	-0.550027	-0.143249	-0.813792	15.750409	-68.425792	-173.802326						
44108		12.850703	0.976163	5.891824	0.671234	0.752619	4.321996	0.938295	0.627137	0.010801	-1.095703	0.093994	0.016357	0.128691	0.009493	0.058560	0.124296	-0.546962	-0.146633	-0.814789	16.019973	-68.089804	-173.515157						
44109		11.604956	1.139867	4.970562	0.344210	0.348157	2.853832	1.266256	0.169872	-0.025969	-1.095703	0.093994	0.013916	0.116093	0.011069	0.049678	0.127797	-0.545518	-0.151743	-0.814280	16.708094	-68.001477	-173.474665						
44110		10.285182	1.433714	4.037970	0.143781	-0.157318	1.327318	1.500834	-0.189528	-0.097848	-1.097900	0.091553	0.018555	0.102820	0.013983	0.040583	0.131360	-0.545298	-0.158215	-0.812627	17.774461	-68.096560	-173.698613						
44111		9.176856	1.888572	3.031725	-0.090539	-0.848622	-0.002303	1.479559	-0.505615	-0.149637	-1.097900	0.089355	0.025635	0.091705	0.018591	0.030687	0.134403	-0.546310	-0.164951	-0.810106	19.050897	-68.353661	-174.160081						
44112		8.536523	2.407558	2.046821	-0.415816	-1.622918	-0.865607	1.218596	-0.859959	-0.166251	-1.097900	0.089600	0.034424	0.085296	0.023878	0.020981	0.136354	-0.548883	-0.170894	-0.806802	20.397218	-68.793796	-174.857945						
44113		8.539580	2.732517	1.280345	-0.841012	-2.167097	-1.059089	0.803595	-1.146336	-0.152780	-1.100098	0.087402	0.050293	0.085341	0.027207	0.013402	0.136981	-0.552880	-0.175322	-0.803008	21.685639	-69.384772	-175.744121						
44114		9.011108	2.968472	0.711038	-1.289249	-2.568767	-0.743206	0.432030	-1.214931	-0.131073	-1.093262	0.087402	0.052490	0.090085	0.029609	0.007722	0.136587	-0.557400	-0.178228	-0.799302	22.831142	-70.009567	-176.703216						
44115		9.455816	3.084805	0.535185	-1.458479	-2.700886	-0.336804	0.136552	-0.824804	-0.151800	-1.097900	0.087402	0.063721	0.094558	0.030772	0.005763	0.135644	-0.560528	-0.179748	-0.796932	23.647623	-70.418916	-177.487592						
44116		9.427602	2.948652	0.499551	-1.510688	-2.560504	-0.379481	-0.050966	0.031695	-0.229263	-1.102295	0.087402	0.061523	0.094311	0.029380	0.004973	0.134627	-0.560288	-0.180147	-0.797183	23.932001	-70.357547	-177.821689						
44117		8.662729	2.946605	0.488540	-1.315617	-2.553083	-1.111297	-0.102340	1.001904	-0.310670	-1.104248	0.080566	0.043945	0.086696	0.029334	0.004436	0.134022	-0.556140	-0.179921	-0.800234	23.681529	-69.769923	-177.617451						
44118		7.657827	3.009698	0.618081	-0.943611	-2.563815	-2.026965	-0.093655	1.715045	-0.367949	-1.104248	0.080322	0.028320	0.076683	0.029959	0.005509	0.133841	-0.549043	-0.179395	-0.805267	23.104102	-68.792120	-177.058352						
44119		6.775593	3.298343	0.948057	-0.363485	-2.699641	-2.722934	-0.098750	2.007476	-0.388295	-1.110840	0.075684	0.006104	0.067910	0.032856	0.008783	0.133820	-0.540715	-0.178700	-0.811040	22.444256	-67.654871	-176.408584						
44120		6.431969	3.602036	1.589903	0.291258	-2.724517	-2.786782	-0.253727	1.823770	-0.364741	-1.105957	0.069092	-0.009033	0.064526	0.035922	0.015266	0.133297	-0.533193	-0.177413	-0.816371	21.820132	-66.615744	-175.889641						
44121		6.785124	3.769062	2.369614	0.746584	-2.588772	-2.157712	-0.585818	1.213739	-0.266690	-1.107910	0.064453	-0.024414	0.068043	0.037668	0.023173	0.131740	-0.528446	-0.174909	-0.820241	21.225019	-65.922146	-175.606042						
44122		7.468235	3.790292	3.148462	1.038237	-2.342681	-1.240224	-0.961253	0.428249	-0.126349	-1.103760	0.069092	-0.022461	0.074773	0.038006	0.031142	0.129065	-0.527260	-0.171003	-0.822251	20.627390	-65.674712	-175.555443						
44123		8.162457	3.395136	3.972759	1.250360	-1.717301	-0.356334	-1.389388	-0.215112	0.002285	-1.110107	0.062256	-0.017578	0.081582	0.034228	0.039578	0.125245	-0.529096	-0.165410	-0.822806	19.920507	-65.800144	-175.653079						
44124		8.309600	2.526209	4.226849	1.092021	-0.895303	-0.257443	-1.869109	-0.551011	0.080830	-1.105957	0.069092	-0.004639	0.082969	0.025691	0.042258	0.120182	-0.532637	-0.157830	-0.822766	18.985017	-66.121812	-175.802206						
44125		8.071553	1.571509	3.767719	0.509460	-0.260750	-0.785673	-2.142230	-0.764916	0.084833	-1.110596	0.069092	0.004395	0.080564	0.016154	0.037814	0.114236	-0.537169	-0.149230	-0.822271	17.965786	-66.562202	-176.029309						
44126		8.159303	0.833567	3.276564	-0.116103	0.186465	-0.983432	-2.104308	-1.055980	0.031387	-1.108154	0.066895	0.015625	0.081417	0.008696	0.033106	0.107929	-0.542770	-0.141072	-0.820884	17.144164	-67.154362	-176.447933						
44127		8.595278	0.382912	2.967216	-0.586480	0.461449	-0.742323	-1.943034	-1.350922	-0.001843	-1.101563	0.069336	0.035645	0.085750	0.004120	0.030213	0.101711	-0.549389	-0.133809	-0.818488	16.571544	-67.904081	-177.032837						
44128		9.316972	0.306632	2.819563	-0.874694	0.462450	-0.124069	-1.679802	-1.422529	-0.036110	-1.101563	0.069336	0.046875	0.092967	0.003290	0.028830	0.096000	-0.556080	-0.127734	-0.815625	16.234525	-68.690230	-177.707059						
44129		9.820984	0.329758	2.820455	-0.921870	0.437868	0.359470	-1.318301	-1.129416	-0.121144	-1.101318	0.064941	0.058350	0.098051	0.003426	0.028736	0.091139	-0.561284	-0.123218	-0.813309	16.117245	-69.301632	-178.390344						
44130		9.669328	0.318902	2.848364	-0.762951	0.467569	0.232702	-0.919317	-0.540714	-0.220031	-1.094727	0.065186	0.067383	0.096619	0.003214	0.028730	0.087345	-0.563825	-0.120323	-0.812401	16.138236	-69.573763	-178.976211						
44131		9.092519	0.382038	2.683038	-0.673021	0.372892	-0.356128	-0.525647	0.099688	-0.329111	-1.096436	0.056152	0.059082	0.090945	0.003741	0.026775	0.084610	-0.563512	-0.119057	-0.813093	16.274068	-69.475532	-179.442511						
44132		8.523016	0.486751	2.789328	-0.385010	0.316354	-0.845498	-0.200335	0.574564	-0.373867	-1.098145	0.042725	0.059814	0.085319	0.004736	0.027643	0.082882	-0.561099	-0.119033	-0.814941	16.453038	-69.108478	-179.757424						
44133		8.070193	0.764043	2.950745	-0.069913	0.107252	-1.187040	0.010568	0.807208	-0.352132	-1.096191	0.051758	0.043457	0.080833	0.007497	0.029182	0.081981	-0.557655	-0.119713	-0.817294	16.614020	-68.616946	-179.923349						
44134		7.715516	1.015641	3.207616	0.282444	-0.052643	-1.400404	0.065654	0.828794	-0.297094	-1.100342	0.040527	0.037598	0.077302	0.010031	0.031759	0.081451	-0.554119	-0.120454	-0.819639	16.717615	-68.121771	-179.995517						
44135		7.332369	1.115876	3.480614	0.628170	-0.067453	-1.644210	-0.011302	0.721187	-0.222283	-1.104980	0.044678	0.030518	0.073461	0.011079	0.034541	0.080967	-0.551095	-0.120714	-0.821685	16.714237	-67.698654	-179.998683						
44136		6.931819	1.182777	3.540250	0.798866	-0.117875	-1.981328	-0.113448	0.554957	-0.130077	-1.104980	0.046875	0.025879	0.069424	0.011803	0.035203	0.080464	-0.548840	-0.120365	-0.823293	16.598599	-67.381102	-179.944927						
44137		6.547622	1.149608	3.526597	0.892418	-0.098640	-2.341166	-0.172320	0.331522	-0.034122	-1.107178	0.044678	0.026123	0.065537	0.011515	0.035147	0.080075	-0.547588	-0.119601	-0.824276	16.411163	-67.202682	-179.848591						
44138		6.291675	1.098954	3.539529	0.976409	-0.057953	-2.576363	-0.248777	0.072599	0.035303	-1.102539	0.042480	0.019531	0.062928	0.011045	0.035359	0.079603	-0.547474	-0.118429	-0.824566	16.189362	-67.177728	-179.763349						
44139		6.376386	1.090129	3.399693	0.823385	-0.101207	-2.552084	-0.259393	-0.173785	0.081486	-1.100586	0.044678	0.021484	0.063730	0.010971	0.034038	0.079151	-0.548406	-0.117191	-0.824168	15.994918	-67.295581	-179.713478						
44140		6.857145	1.253772	3.416457	0.719276	-0.263823	-2.087565	-0.197140	-0.413654	0.118252	-1.103027	0.051514	0.032227	0.068493	0.012612	0.034294	0.078872	-0.550315	-0.116199	-0.823062	15.876875	-67.550386	-179.708756						
44141		7.474162	1.429240	3.452201	0.606070	-0.427797	-1.489651	-0.120923	-0.661682	0.141490	-1.107422	0.046875	0.041504	0.074617	0.014366	0.034760	0.078761	-0.553228	-0.115557	-0.821207	15.865507	-67.946452	-179.771155						
44142		7.960637	1.661889	3.334285	0.445152	-0.682793	-1.061331	-0.036716	-0.855359	0.159305	-1.098633	0.051758	0.048096	0.079450	0.016688	0.033680	0.078839	-0.556909	-0.115281	-0.818747	15.955314	-68.452385	-179.891298						
44143		8.385601	1.784012	3.359116	0.425263	-0.786735	-0.648396	0.039673	-0.935236	0.177410	-1.101074	0.056152	0.050049	0.083682	0.017908	0.033986	0.079160	-0.560881	-0.115301	-0.815997	16.102057	-69.004710	179.975803						
44144		9.062169	1.900917	3.430861	0.363254	-0.873085	0.016474	0.015877	-0.811268	0.195819	-1.098633	0.053955	0.068115	0.090463	0.019095	0.034677	0.079559	-0.564352	-0.115116	-0.813588	16.160608	-69.491056	179.922415						
44145		9.654097	1.982513	3.458632	0.274194	-0.943627	0.585782	0.039189	-0.527457	0.206534	-1.100830	0.053955	0.072510	0.096429	0.019918	0.034845	0.080231	-0.566662	-0.114886	-0.811947	16.097582	-69.823487	-179.986243						
44146		9.955340	2.046576	3.589448	0.344863	-0.974424	0.916383	0.148308	-0.103499	0.165007	-1.096680	0.058594	0.072266	0.099518	0.020521	0.035961	0.081276	-0.567181	-0.115043	-0.811458	15.974717	-69.915719	-179.765743						
44147		10.251883	2.133737	3.882706	0.526693	-0.985072	1.299536	0.250354	0.322775	0.107339	-1.098877	0.060547	0.065430	0.102570	0.021344	0.038688	0.082632	-0.565894	-0.115608	-0.812140	15.813628	-69.763929	-179.441161						
44148		10.637184	2.275573	4.448028	0.887406	-0.978215	1.864980	0.213814	0.759978	0.071287	-1.096680	0.058350	0.045410	0.106532	0.022746	0.044100	0.083984	-0.562815	-0.115940	-0.814090	15.509276	-69.364224	-178.986241						
44149		10.874632	2.385222	5.086543	1.298093	-0.934046	2.322410	0.089075	1.229611	0.059954	-1.096680	0.062744	0.038330	0.109049	0.023862	0.050206	0.085215	-0.557861	-0.115601	-0.817414	14.984808	-68.702742	-178.369764						
44150		10.502108	2.502804	5.508243	1.677349	-0.973025	2.151232	-0.077150	1.688245	0.030270	-1.098877	0.060303	0.018311	0.105477	0.025065	0.054184	0.086117	-0.551038	-0.114460	-0.822094	14.280056	-67.777975	-177.658908						
44151		9.585594	2.495967	5.832148	2.110579	-0.927160	1.448266	-0.297312	1.933845	0.003102	-1.096680	0.062500	-0.004150	0.096413	0.025047	0.057354	0.086438	-0.543257	-0.112377	-0.827509	13.466620	-66.711849	-176.961400						
44152		8.589561	2.406791	6.211352	2.620054	-0.791340	0.706809	-0.533205	1.776341	-0.008871	-1.096680	0.064697	-0.022461	0.086443	0.024228	0.061283	0.085969	-0.536156	-0.109406	-0.832572	12.644524	-65.725733	-176.397190						
44153		8.220840	2.264428	6.571228	2.902435	-0.621230	0.535223	-0.636196	1.137392	-0.019945	-1.096924	0.066895	-0.026855	0.082582	0.022844	0.065171	0.084827	-0.531737	-0.106307	-0.835918	11.994942	-65.095709	-176.083519						
44154		8.919857	2.117274	6.473333	2.415074	-0.577721	1.131911	-0.352074	0.279285	0.022137	-1.096924	0.066895	-0.033691	0.089286	0.021296	0.064571	0.084160	-0.530779	-0.104639	-0.836804	11.688638	-64.948687	-175.968255						
44155		10.437108	2.119457	6.294585	1.634780	-0.684964	2.430889	0.060965	-0.456785	0.093680	-1.099121	0.064697	-0.022217	0.104217	0.021224	0.063190	0.084501	-0.532776	-0.104824	-0.835476	11.718981	-65.224910	-175.963016						
44156		11.899377	2.293328	5.990172	0.893961	-0.956726	3.641711	0.282510	-0.906971	0.142300	-1.094727	0.067139	-0.013428	0.118704	0.022933	0.060473	0.085397	-0.536567	-0.105990	-0.832808	11.932616	-65.757669	-176.020129						
44157		12.333594	2.304576	5.655971	0.559310	-1.042446	3.899259	0.200088	-0.979692	0.198142	-1.094727	0.069336	-0.002441	0.123034	0.023111	0.057186	0.086265	-0.540723	-0.106694	-0.829936	12.053952	-66.339400	-176.027272						
44158		12.185759	1.802847	4.872311	-0.076116	-0.759533	3.412242	-0.167535	-0.781715	0.208396	-1.092529	0.069336	0.006592	0.121647	0.018196	0.049184	0.086281	-0.544201	-0.105755	-0.827778	11.896428	-66.810156	-175.960516						
44159		12.057201	1.035744	3.884372	-0.990164	-0.295010	2.854944	-0.462921	-0.760162	0.200880	-1.088135	0.069580	0.015381	0.120413	0.010569	0.039277	0.085476	-0.547712	-0.103606	-0.825816	11.567949	-67.269060	-175.891653						
44160		11.427127	0.326224	2.907494	-1.686857	0.134194	1.860984	-0.555655	-0.914693	0.198930	-1.090576	0.076172	0.024170	0.114133	0.003458	0.029588	0.084318	-0.551877	-0.101141	-0.823464	11.224284	-67.813238	-175.864795						
44161		10.634645	-0.251689	2.211617	-2.045121	0.529493	0.845009	-0.529874	-0.920826	0.107340	-1.088135	0.074219	0.035400	0.106244	-0.002400	0.022612	0.082857	-0.556002	-0.099035	-0.821090	11.016743	-68.351817	-175.968156						
44162		10.008400	-0.621372	1.497255	-2.452953	0.727793	-0.002045	-0.455739	-0.799818	0.042946	-1.092773	0.076172	0.041992	0.100024	-0.006157	0.015387	0.081390	-0.559546	-0.097358	-0.819027	10.909126	-68.814373	-176.133422						
44163		9.677039	-0.873744	0.916958	-2.837968	0.845071	-0.513192	-0.342140	-0.766967	0.056616	-1.083984	0.078613	0.048584	0.096737	-0.008694	0.009555	0.080317	-0.562911	-0.096094	-0.816973	10.839007	-69.261058	-176.268082						
44164		10.063852	-1.122803	0.714941	-3.135798	1.036279	-0.213460	-0.202629	-0.860815	0.133821	-1.088379	0.076416	0.064453	0.100614	-0.011153	0.007594	0.079904	-0.566621	-0.095216	-0.814549	10.760261	-69.767596	-176.308198						
44165		10.831779	-1.372975	0.910550	-3.190764	1.313920	0.586034	-0.037204	-0.889140	0.207764	-1.088623	0.083252	0.068604	0.108290	-0.013615	0.009590	0.080246	-0.570413	-0.094815	-0.811911	10.669909	-70.299294	-176.234573						
44166		11.448200	-1.721399	1.381706	-2.967661	1.752168	1.325358	0.077259	-0.618577	0.197877	-1.091064	0.083252	0.072998	0.114456	-0.017106	0.014164	0.081000	-0.573042	-0.094792	-0.809985	10.575368	-70.676889	-176.087699						
44167		11.452929	-2.091604	1.699239	-2.729970	2.180894	1.422203	0.064411	-0.015292	0.114314	-1.088867	0.085449	0.072754	0.114540	-0.020856	0.016994	0.081666	-0.573194	-0.094716	-0.809820	10.424824	-70.706438	-175.888905						
44168		10.753966	-2.367044	1.664599	-2.627371	2.439670	0.730846	0.020040	0.628196	0.025375	-1.086914	0.092041	0.070313	0.107594	-0.023658	0.016306	0.082149	-0.570704	-0.094448	-0.811559	10.203730	-70.362473	-175.642500						
44169		9.728605	-2.504987	1.504533	-2.544925	2.538588	-0.312039	0.156304	1.046488	-0.019973	-1.088623	0.083008	0.052734	0.097360	-0.025071	0.014516	0.083033	-0.566439	-0.094692	-0.814424	10.025850	-69.779164	-175.357856						
44170		9.076459	-2.380251	1.428639	-2.462756	2.394202	-0.964508	0.560659	1.084010	0.020416	-1.084229	0.087646	0.041260	0.090842	-0.023832	0.013727	0.085246	-0.561846	-0.096444	-0.817167	10.016921	-69.177453	-175.005547						
44171		9.031202	-1.864527	1.713006	-2.155824	1.950727	-0.895290	1.145564	0.675257	0.121355	-1.091309	0.091797	0.038818	0.090380	-0.018687	0.016718	0.089310	-0.558708	-0.100479	-0.818397	10.309588	-68.817879	-174.615796						
44172		9.531753	-1.068169	2.415839	-1.553906	1.351733	-0.138511	1.651431	0.073919	0.188412	-1.086914	0.094238	0.036377	0.095337	-0.010791	0.024034	0.094759	-0.557798	-0.106651	-0.817623	10.951293	-68.804103	-174.289475						
44173		10.018174	-0.222264	2.965172	-1.009142	0.706305	0.564596	1.944038	-0.370229	0.199340	-1.089111	0.096436	0.040771	0.100129	-0.002412	0.029814	0.100819	-0.558533	-0.114198	-0.815374	11.876516	-69.043675	-174.087146						
44174		10.112733	0.423559	3.226511	-0.586313	0.219013	0.792259	2.034984	-0.517081	0.194457	-1.089600	0.103027	0.047119	0.101039	0.004004	0.032568	0.107024	-0.559754	-0.122183	-0.812584	12.913108	-69.365492	-173.949119						
44175		9.765519	0.813264	3.098133	-0.413871	-0.117735	0.455693	1.915479	-0.372439	0.167303	-1.091797	0.105225	0.040283	0.097590	0.007916	0.031240	0.112856	-0.560381	-0.129677	-0.810198	13.887126	-69.604419	-173.817111						
44176		9.226189	1.059559	2.742404	-0.432196	-0.400019	-0.147334	1.688475	-0.095828	0.137875	-1.085205	0.109863	0.044434	0.092241	0.010427	0.027557	0.118115	-0.559943	-0.136157	-0.808687	14.673216	-69.685436	-173.623784						
44177		8.735033	1.339685	2.475049	-0.392744	-0.703723	-0.670921	1.491934	0.133057	0.133220	-1.085449	0.112061	0.044434	0.087358	0.013270	0.024792	0.122940	-0.558662	-0.141721	-0.807897	15.270131	-69.640705	-173.348564						
44178		8.484958	1.581526	2.508117	-0.195639	-0.883836	-0.870266	1.319092	0.250582	0.137780	-1.087891	0.116455	0.035156	0.084870	0.015708	0.025079	0.127394	-0.556983	-0.146483	-0.807517	15.706532	-69.532138	-173.007740						
44179		8.279867	1.764880	2.721381	0.116595	-0.947465	-0.971556	1.125946	0.319003	0.154978	-1.087891	0.120850	0.032471	0.082828	0.017560	0.027181	0.131409	-0.555146	-0.150380	-0.807422	15.985071	-69.389784	-172.616100						
44180		8.069525	1.828825	3.000166	0.438896	-0.878361	-1.066337	0.931839	0.346543	0.181516	-1.085693	0.118652	0.019287	0.080731	0.018222	0.029947	0.135033	-0.553317	-0.153384	-0.807515	16.095313	-69.235730	-172.162775						
44181		7.740980	1.590509	3.212298	0.625393	-0.557494	-1.323318	0.616114	0.359822	0.186828	-1.094971	0.125244	0.016602	0.077453	0.015879	0.032033	0.137788	-0.551652	-0.155099	-0.807860	16.023152	-69.076461	-171.707657						
44182		7.341992	1.193160	3.265128	0.635533	-0.158624	-1.715748	0.332809	0.325598	0.145887	-1.085938	0.125244	0.016602	0.073464	0.011931	0.032552	0.139593	-0.550260	-0.155794	-0.808366	15.857772	-68.926308	-171.325550						
44183		7.093322	0.786136	3.130170	0.432085	0.163817	-2.033379	0.128472	0.222888	0.065485	-1.087891	0.120850	0.016846	0.070965	0.007865	0.031228	0.140406	-0.549385	-0.155967	-0.808787	15.742714	-68.822873	-171.123114						
44184		6.746887	0.654648	2.933683	0.327859	0.218603	-2.437034	0.033269	0.092963	-0.003711	-1.085938	0.125244	0.014404	0.067483	0.006540	0.029307	0.140591	-0.549034	-0.156026	-0.808982	15.719191	-68.778606	-171.077193						
44185		6.503152	0.737365	2.849898	0.376398	0.124420	-2.685314	0.057170	-0.054883	-0.028567	-1.090332	0.125244	0.025635	0.065025	0.007356	0.028519	0.140611	-0.549258	-0.156364	-0.808761	15.809346	-68.813649	-171.138583						
44186		6.632311	0.671846	2.878988	0.338810	0.197003	-2.561904	0.088547	-0.257096	-0.035980	-1.088135	0.125244	0.020996	0.066287	0.006694	0.028878	0.140542	-0.550267	-0.156981	-0.807967	16.005634	-68.958482	-171.294517						
44187		6.757067	0.595255	3.026691	0.412392	0.335679	-2.403889	0.050278	-0.465036	-0.059004	-1.092529	0.123047	0.032471	0.067502	0.005925	0.030425	0.140098	-0.552127	-0.157663	-0.806642	16.308298	-69.214239	-171.587511						
44188		6.867124	0.605094	3.049813	0.435068	0.350718	-2.295215	-0.063430	-0.660597	-0.074688	-1.090332	0.120850	0.039307	0.068572	0.006035	0.030723	0.139131	-0.554836	-0.158055	-0.804872	16.657273	-69.574043	-171.999180						
44189		7.095757	0.430211	2.981121	0.277483	0.493015	-2.124931	-0.197212	-0.758940	-0.072719	-1.085693	0.118896	0.055176	0.070845	0.004306	0.030076	0.137712	-0.558030	-0.157979	-0.802920	16.989215	-69.987483	-172.473157						
44190		7.317920	0.134565	2.869121	0.042570	0.727725	-1.985154	-0.273814	-0.700888	-0.076465	-1.088135	0.121094	0.057373	0.073079	0.001357	0.028946	0.136108	-0.561038	-0.157557	-0.801178	17.269690	-70.368427	-172.938579						
44191		7.567055	-0.057754	2.783711	-0.144890	0.875958	-1.798682	-0.251752	-0.481069	-0.097326	-1.088135	0.121094	0.061768	0.075603	-0.000579	0.028020	0.134653	-0.563122	-0.157137	-0.800044	17.503233	-70.624087	-173.339186						
44192		7.820217	-0.127682	2.857624	-0.167000	0.972179	-1.544371	-0.161190	-0.175345	-0.108544	-1.090088	0.114258	0.062256	0.078176	-0.001296	0.028646	0.133655	-0.563912	-0.156896	-0.799702	17.657642	-70.710806	-173.600915						
44193		8.067791	-0.150075	3.016454	-0.118331	1.052866	-1.263522	-0.034843	0.106162	-0.085966	-1.083496	0.118896	0.055176	0.080693	-0.001530	0.030122	0.133317	-0.563508	-0.156917	-0.800039	17.713904	-70.647183	-173.681515						
44194		8.081986	-0.201218	3.338477	0.115904	1.226218	-1.153166	0.055255	0.320278	-0.046800	-1.088135	0.121094	0.052734	0.080873	-0.002040	0.033255	0.133563	-0.562212	-0.157037	-0.800886	17.651851	-70.472876	-173.582370						
44195		8.055025	-0.311961	3.613085	0.285753	1.429924	-1.100130	0.062265	0.449961	-0.015800	-1.088135	0.121094	0.048340	0.080631	-0.003137	0.035949	0.134048	-0.560418	-0.157018	-0.802065	17.488826	-70.233651	-173.371212						
44196		7.997959	-0.283842	3.870663	0.498875	1.496587	-1.063908	0.000448	0.480922	-0.029533	-1.090088	0.116455	0.046387	0.080072	-0.002850	0.038514	0.134343	-0.558522	-0.156759	-0.803387	17.295510	-69.974233	-173.165210						
44197		8.300096	-0.259670	4.166741	0.623058	1.566125	-0.675965	-0.104152	0.412939	-0.032036	-1.096924	0.116455	0.041748	0.083086	-0.002588	0.041497	0.134268	-0.556972	-0.156141	-0.804596	17.088031	-69.752058	-173.007607						
44198		8.996342	-0.142097	4.518662	0.705922	1.551475	0.110377	-0.246197	0.247343	0.020117	-1.087646	0.114258	0.044189	0.090019	-0.001356	0.045077	0.133882	-0.556217	-0.154909	-0.805420	16.797347	-69.628601	-172.848414						
44199		9.713739	-0.125124	4.657362	0.576927	1.538416	0.834556	-0.311927	0.068842	0.069190	-1.094482	0.114258	0.044189	0.097154	-0.001145	0.046542	0.133368	-0.556266	-0.153403	-0.805760	16.480895	-69.611419	-172.701311						
44200		10.427879	-0.120104	4.934862	0.582949	1.593455	1.599104	-0.322937	-0.122694	0.055244	-1.087646	0.112061	0.041992	0.104249	-0.001092	0.049414	0.132618	-0.557082	-0.152010	-0.805583	16.260290	-69.697070	-172.664114						
44201		11.058274	-0.132663	5.002556	0.456175	1.590284	2.211924	-0.465712	-0.327796	0.056566	-1.090088	0.114258	0.051025	0.110501	-0.001179	0.050210	0.131320	-0.558816	-0.150182	-0.804938	16.045497	-69.895727	-172.719392						
44202		11.454850	-0.342442	4.877496	0.191007	1.706695	2.523082	-0.573173	-0.419674	0.033108	-1.090088	0.116455	0.048584	0.114446	-0.003265	0.049025	0.129554	-0.560966	-0.148038	-0.804125	15.841558	-70.141085	-172.852719						
44203		11.742115	-0.700722	4.630817	-0.197053	1.920881	2.680669	-0.553143	-0.280327	0.007221	-1.083252	0.116699	0.055176	0.117356	-0.006875	0.046492	0.127845	-0.562518	-0.145964	-0.803694	15.629032	-70.306030	-172.963489						
44204		11.901737	-1.044913	4.339918	-0.600541	2.111181	2.707709	-0.410030	0.002817	-0.028892	-1.085693	0.118896	0.061768	0.119016	-0.010377	0.043419	0.126602	-0.562806	-0.144373	-0.803976	15.428219	-70.308610	-173.000332						
44205		12.178368	-1.182447	4.296118	-0.792842	2.199067	2.942816	-0.112362	0.300079	-0.060702	-1.085205	0.107666	0.053467	0.121844	-0.011837	0.042785	0.126281	-0.561690	-0.143890	-0.804893	15.324481	-70.142822	-172.958333						
44206		12.646599	-0.972950	4.754663	-0.533230	2.143962	3.551759	0.196363	0.592882	-0.067021	-1.089844	0.109863	0.046631	0.126603	-0.009818	0.047162	0.127008	-0.559194	-0.144472	-0.806411	15.284461	-69.814216	-172.797027						
44207		12.923694	-0.572231	5.471977	0.030623	2.011230	4.088543	0.393194	0.971456	-0.058113	-1.091797	0.107422	0.028809	0.129499	-0.005867	0.054080	0.128595	-0.555042	-0.145589	-0.808824	15.197895	-69.277643	-172.464020						
44208		13.065455	-0.153146	6.229861	0.619742	1.867810	4.528315	0.454289	1.413076	-0.006880	-1.089600	0.105225	0.015625	0.131090	-0.001676	0.061370	0.130870	-0.549072	-0.146512	-0.812359	14.915940	-68.502810	-171.883908						
44209		13.010101	0.319087	7.199491	1.429322	1.747649	4.887483	0.390931	1.643239	0.039589	-1.093994	0.107178	-0.002441	0.130686	0.003077	0.070929	0.133326	-0.542216	-0.146900	-0.816484	14.486981	-67.607055	-171.179796						
44210		12.147679	0.725880	8.106076	2.468211	1.710117	4.497509	0.266681	1.350235	0.059166	-1.092041	0.114014	-0.018555	0.122018	0.007187	0.080248	0.135293	-0.536612	-0.146905	-0.819855	14.099908	-66.873253	-170.595653						
44211		11.398397	0.656328	7.256361	1.884378	1.460089	3.503678	0.528099	0.675953	0.147722	-1.094238	0.111572	-0.016113	0.114224	0.006457	0.072195	0.137833	-0.533652	-0.148205	-0.821129	13.988266	-66.527235	-170.144474						
44212		11.443700	0.539920	5.948653	0.678001	1.065326	3.034161	1.105313	0.060728	0.216034	-1.096924	0.118164	-0.018799	0.114449	0.005194	0.059481	0.141731	-0.532851	-0.152101	-0.820273	14.317896	-66.531783	-169.814622						
44213		11.800322	1.066995	5.053340	0.019894	0.263619	3.065649	1.576178	-0.507447	0.142136	-1.092285	0.116211	-0.009766	0.117867	0.010353	0.050915	0.146145	-0.533970	-0.158532	-0.817548	15.205083	-66.842868	-169.797131						
44214		11.607476	2.023249	4.326503	-0.037450	-0.784194	2.714366	1.671353	-0.933603	0.020362	-1.092285	0.116211	-0.007568	0.115869	0.019879	0.043973	0.149960	-0.536622	-0.165963	-0.813637	16.474957	-67.369705	-170.137535						
44215		10.645492	2.687409	3.458525	-0.003830	-1.576045	1.590134	1.309378	-0.921985	-0.064688	-1.098877	0.114014	0.008301	0.106302	0.026610	0.035250	0.152461	-0.539386	-0.172140	-0.810054	17.683642	-67.873055	-170.633154						
44216		9.527159	2.879016	2.188108	-0.465939	-2.156839	0.135858	0.724270	-0.689251	-0.117256	-1.096680	0.111816	0.015137	0.095212	0.028654	0.022313	0.153354	-0.541582	-0.175894	-0.807609	18.557075	-68.236435	-171.128985						
44217		8.523672	2.686974	0.995313	-1.111253	-2.415108	-1.222250	0.277362	-0.493728	-0.159682	-1.096436	0.109619	0.019775	0.085233	0.026788	0.010201	0.153045	-0.543286	-0.177815	-0.806101	19.160862	-68.483889	-171.607409						
44218		8.122979	2.397571	0.197304	-1.721789	-2.464381	-1.892320	0.157198	-0.347777	-0.202562	-1.101074	0.109375	0.017578	0.081250	0.023892	0.002133	0.152350	-0.544455	-0.179248	-0.805126	19.695774	-68.642648	-172.087069						
44219		8.321108	2.490019	-0.098084	-1.980195	-2.660334	-1.784488	0.400980	-0.208744	-0.269685	-1.096191	0.104980	0.017822	0.083245	0.024790	-0.000844	0.152188	-0.544812	-0.181745	-0.804355	20.399002	-68.711393	-172.595170						
44220		8.848434	2.965637	0.305686	-1.624650	-2.888250	-1.083332	0.736607	0.073383	-0.350822	-1.098389	0.102783	0.013428	0.088537	0.029490	0.003133	0.152857	-0.543693	-0.185590	-0.804107	21.260402	-68.608986	-173.068136						
44221		8.918410	3.556353	1.030198	-0.821243	-3.045585	-0.685987	0.800715	0.646418	-0.434301	-1.100586	0.098145	0.000244	0.089294	0.035329	0.010155	0.153904	-0.540136	-0.189484	-0.805395	21.956241	-68.182401	-173.322931						
44222		8.383448	4.077238	1.429107	-0.144285	-3.279916	-0.971378	0.550553	1.331134	-0.500221	-1.106934	0.093506	-0.012939	0.084029	0.040524	0.013844	0.154646	-0.533915	-0.192008	-0.808797	22.216323	-67.375202	-173.263929						
44223		7.472953	4.524084	1.647318	0.461764	-3.541551	-1.672133	0.103349	1.707186	-0.479573	-1.102295	0.089111	-0.026123	0.074975	0.045053	0.015857	0.154634	-0.526516	-0.192370	-0.813550	22.007154	-66.374967	-172.971929						
44224		6.644853	4.430454	2.000980	0.900557	-3.287473	-2.318229	-0.481952	1.557384	-0.411686	-1.108887	0.086670	-0.043945	0.066692	0.044215	0.019384	0.153196	-0.520192	-0.190270	-0.818369	21.478711	-65.466148	-172.696244						
44225		6.509494	4.183149	2.395546	1.045778	-2.926222	-2.332488	-1.079832	0.947543	-0.379463	-1.106445	0.080078	-0.045654	0.065286	0.041835	0.023421	0.149751	-0.516834	-0.186099	-0.822085	20.871879	-64.890753	-172.709143						
44226		7.152925	3.825087	2.958334	0.990106	-2.435511	-1.588643	-1.520008	0.119446	-0.339435	-1.108643	0.077637	-0.047852	0.071612	0.038353	0.029249	0.144546	-0.517210	-0.180622	-0.824000	20.334924	-64.766586	-173.078832						
44227		8.200336	3.403990	3.592277	0.858154	-1.877686	-0.459892	-1.815456	-0.595537	-0.232438	-1.106201	0.073486	-0.038574	0.081936	0.034270	0.035856	0.138369	-0.520809	-0.174157	-0.824186	19.809159	-65.050729	-173.646670						
44228		8.719012	2.891057	3.938383	0.751935	-1.340549	0.062897	-2.089886	-0.977576	-0.105992	-1.111084	0.082275	-0.020996	0.087013	0.029277	0.039505	0.131635	-0.526220	-0.166477	-0.823438	19.141571	-65.567253	-174.230670						
44229		8.483446	2.121888	3.645782	0.379574	-0.806365	-0.380407	-2.255872	-1.031563	-0.031904	-1.106201	0.075684	-0.013916	0.084649	0.021618	0.036652	0.124720	-0.531951	-0.157929	-0.822516	18.307356	-66.130461	-174.732766						
44230		8.073638	1.333285	3.048097	-0.172313	-0.348070	-1.089111	-2.183666	-0.925737	-0.057143	-1.106445	0.078125	0.003906	0.080598	0.013644	0.030706	0.117951	-0.537110	-0.149653	-0.821708	17.497298	-66.635200	-175.214923						
44231		8.043971	0.697600	2.695689	-0.611442	0.082158	-1.322824	-1.935509	-0.867227	-0.113761	-1.103760	0.069336	0.013428	0.080326	0.007193	0.027236	0.111652	-0.541764	-0.142498	-0.820804	16.873546	-67.099915	-175.742383						
44232		8.408073	0.428548	2.653166	-0.805371	0.297277	-1.027406	-1.592518	-0.864125	-0.170241	-1.101807	0.075928	0.028564	0.083969	0.004427	0.026860	0.106023	-0.546134	-0.136889	-0.819609	16.524735	-67.556834	-176.354326						
44233		8.948247	0.621637	2.920445	-0.644129	0.195427	-0.403486	-1.247493	-0.799848	-0.229227	-1.101563	0.069336	0.031250	0.089372	0.006297	0.029523	0.101150	-0.549965	-0.132810	-0.818333	16.431277	-67.968293	-177.025374						
44234		9.317479	0.858696	3.186311	-0.415007	0.060614	0.063001	-0.990129	-0.609557	-0.283315	-1.098877	0.060547	0.038574	0.093089	0.008614	0.032104	0.096873	-0.552843	-0.129828	-0.817389	16.495177	-68.268506	-177.706515						
44235		9.114643	0.962928	3.452395	-0.039367	0.058251	-0.018914	-0.833543	-0.276681	-0.325076	-1.098633	0.053711	0.036621	0.091114	0.009625	0.034610	0.093083	-0.554225	-0.127439	-0.817270	16.575510	-68.376723	-178.306716						
44236		8.617920	0.959407	3.433961	0.127158	0.064761	-0.487416	-0.747101	0.104758	-0.365325	-1.105469	0.055908	0.038818	0.086215	0.009565	0.034259	0.089581	-0.553972	-0.125340	-0.818156	16.610464	-68.268363	-178.806261						
44237		7.933998	0.850105	3.365516	0.259307	0.150768	-1.157771	-0.610859	0.427420	-0.349322	-1.107422	0.051514	0.034668	0.079426	0.008465	0.033460	0.086752	-0.552338	-0.123602	-0.819829	16.559446	-67.985784	-179.128256						
44238		7.562842	0.671244	3.421938	0.351009	0.335418	-1.498792	-0.394595	0.609887	-0.314479	-1.107178	0.044678	0.032715	0.075743	0.006661	0.033975	0.084757	-0.549878	-0.122573	-0.821844	16.511000	-67.608791	-179.321075						
44239		7.354781	0.567525	3.666044	0.564719	0.503549	-1.610123	-0.252316	0.611773	-0.285483	-1.102539	0.040283	0.026367	0.073668	0.005616	0.036428	0.083289	-0.547357	-0.122047	-0.823753	16.499527	-67.235497	-179.465040						
44240		7.006409	0.753101	3.772331	0.795621	0.355676	-1.867392	-0.205079	0.533110	-0.235589	-1.104980	0.046875	0.010254	0.070173	0.007487	0.037529	0.082080	-0.545173	-0.121613	-0.825384	16.483855	-66.914262	-179.576915						
44241		6.512902	1.124782	3.753115	1.036435	-0.009089	-2.283110	-0.232909	0.347545	-0.148815	-1.102539	0.038086	0.010742	0.065202	0.011243	0.037405	0.081067	-0.543808	-0.120900	-0.826489	16.405254	-66.708393	-179.636403						
44242		6.177512	1.291552	3.832059	1.266899	-0.157177	-2.540503	-0.393434	0.072923	-0.001272	-1.100342	0.040283	0.017334	0.061789	0.012990	0.038273	0.080051	-0.543722	-0.119231	-0.826887	16.150528	-66.676283	-179.605238						
44243		6.219928	1.137900	3.941414	1.312997	-0.002806	-2.478317	-0.680076	-0.210151	0.102592	-1.106934	0.038086	0.021973	0.062152	0.011545	0.039440	0.078525	-0.544985	-0.116210	-0.826632	15.701574	-66.817431	-179.540520						
44244		6.516677	0.923243	3.935087	1.161866	0.166660	-2.234663	-0.895035	-0.391649	0.136979	-1.107178	0.044678	0.030518	0.065083	0.009453	0.039436	0.076429	-0.547103	-0.112275	-0.825973	15.149910	-67.064803	-179.499494						
44245		6.790275	0.883864	3.830956	0.989722	0.138119	-2.030245	-0.867437	-0.440904	0.165224	-1.098145	0.044922	0.025879	0.067811	0.009061	0.038420	0.074515	-0.549405	-0.108393	-0.825138	14.584265	-67.342447	-179.424862						
44246		7.254151	1.028803	3.847004	0.900150	-0.034017	-1.586574	-0.681466	-0.438998	0.186953	-1.100586	0.044922	0.037109	0.072447	0.010487	0.038594	0.073188	-0.551640	-0.105212	-0.824177	14.089988	-67.622868	-179.313481						
44247		7.790302	1.309854	3.848518	0.805506	-0.334915	-1.068865	-0.400535	-0.454159	0.189804	-1.101074	0.056152	0.041016	0.077803	0.013250	0.038635	0.072652	-0.553819	-0.103189	-0.823018	13.749730	-67.910756	-179.193641						
44248		8.189536	1.476968	3.941129	0.822943	-0.491479	-0.654988	-0.133791	-0.479486	0.175451	-1.098389	0.044922	0.046143	0.081788	0.014868	0.039598	0.072774	-0.556002	-0.102306	-0.821645	13.586346	-68.211695	-179.101021						
44249		8.497995	1.764306	4.019712	0.895639	-0.755792	-0.319891	0.087634	-0.499248	0.144615	-1.103027	0.051514	0.050293	0.084866	0.017687	0.040417	0.073381	-0.558156	-0.102430	-0.820113	13.596996	-68.518345	-179.058286						
44250		8.760714	1.952238	4.152606	1.014707	-0.901057	-0.016580	0.202309	-0.472868	0.139166	-1.105225	0.051514	0.059326	0.087495	0.019541	0.041753	0.074282	-0.560158	-0.103028	-0.818591	13.675101	-68.809882	-179.018857						
44251		9.058533	2.121272	4.193824	1.033204	-1.047697	0.285809	0.229879	-0.404499	0.117969	-1.098877	0.056152	0.059082	0.090488	0.021218	0.042146	0.075226	-0.561850	-0.103773	-0.817249	13.772974	-69.060208	-178.982422						
44252		9.397120	2.247557	4.201314	0.992005	-1.159553	0.612266	0.239187	-0.327241	0.078364	-1.098877	0.056152	0.061279	0.093893	0.022462	0.042194	0.076060	-0.563205	-0.104635	-0.816129	13.909073	-69.262525	-178.982403						
44253		10.073713	2.533211	4.351895	0.996502	-1.388144	1.319057	0.277350	-0.294572	0.063208	-1.098877	0.056152	0.070313	0.100665	0.025303	0.043702	0.076970	-0.564396	-0.105685	-0.815085	14.076889	-69.444208	-178.991747						
44254		11.023107	2.739975	4.872772	1.221177	-1.446512	2.401095	0.257334	-0.221548	0.098739	-1.096680	0.058594	0.070068	0.110163	0.027391	0.048885	0.077995	-0.565317	-0.106522	-0.814240	14.155888	-69.590341	-178.919587						
44255		11.745865	2.908131	5.564891	1.653875	-1.432431	3.325174	0.079577	0.056507	0.107331	-1.096436	0.053955	0.065918	0.117459	0.029122	0.055627	0.078712	-0.565176	-0.106505	-0.814271	14.013857	-69.583065	-178.719216						
44256		11.679839	2.898668	5.893436	1.938836	-1.358496	3.376264	-0.217020	0.524731	0.035448	-1.094482	0.060791	0.054199	0.116947	0.029071	0.058596	0.078533	-0.563203	-0.105298	-0.815811	13.641495	-69.304701	-178.455260						
44257		10.953342	2.728109	5.725921	1.910090	-1.274449	2.634413	-0.520983	0.950446	-0.067707	-1.101318	0.062744	0.047363	0.109813	0.027392	0.056667	0.077314	-0.559550	-0.102974	-0.818732	13.106395	-68.775062	-178.201727						
44258		10.444221	2.533598	5.439816	1.666624	-1.209044	2.055396	-0.675608	1.037051	-0.105153	-1.091797	0.053955	0.029785	0.104735	0.025463	0.053770	0.075547	-0.555555	-0.100082	-0.821970	12.527452	-68.190030	-177.995896						
44259		10.366489	2.505204	5.418278	1.562830	-1.237949	1.982315	-0.593791	0.710034	-0.072647	-1.096680	0.060547	0.029541	0.103865	0.025174	0.053740	0.073979	-0.552883	-0.097559	-0.824215	12.067103	-67.792763	-177.866148						
44260		11.072348	2.604581	5.698129	1.512350	-1.313381	2.750636	-0.370493	0.209773	-0.013259	-1.096436	0.053955	0.034424	0.110785	0.026144	0.056817	0.073022	-0.552199	-0.095975	-0.824944	11.806476	-67.680893	-177.814312						
44261		12.166989	2.562473	6.104600	1.451750	-1.215280	3.908955	-0.270839	-0.188836	0.068569	-1.094238	0.056152	0.036621	0.121603	0.025749	0.061126	0.072492	-0.553172	-0.094722	-0.824484	11.604403	-67.803864	-177.763468						
44262		12.728342	2.119999	5.941619	1.037981	-0.851367	4.329639	-0.310721	-0.416488	0.088573	-1.094238	0.058350	0.034180	0.127150	0.021349	0.059648	0.071813	-0.555104	-0.093331	-0.823402	11.416750	-68.056557	-177.753862						
44263		12.500723	1.525811	5.263837	0.440721	-0.449114	3.822118	-0.533231	-0.428925	0.050020	-1.096680	0.058350	0.034180	0.124890	0.015430	0.052865	0.070365	-0.557145	-0.091135	-0.822394	11.154322	-68.312205	-177.800102						
44264		11.970511	0.776022	4.205634	-0.415757	0.025707	2.891986	-0.727472	-0.569759	0.027566	-1.089844	0.058594	0.049805	0.119584	0.007930	0.042368	0.068210	-0.559802	-0.088250	-0.821085	10.850050	-68.642976	-177.921492						
44265		11.190548	-0.054580	3.144711	-1.177116	0.598633	1.736148	-0.776546	-0.899629	0.036623	-1.091797	0.051758	0.059326	0.111763	-0.000402	0.031952	0.065816	-0.563829	-0.085249	-0.818839	10.592886	-69.162338	-178.122574						
44266		10.567417	-0.792253	2.162102	-1.880357	1.116996	0.779183	-0.693625	-1.183400	0.055673	-1.083252	0.061035	0.074219	0.105546	-0.007817	0.022273	0.063595	-0.568971	-0.082623	-0.815721	10.437519	-69.843053	-178.381816						
44267		10.053598	-1.318214	1.301344	-2.458511	1.468871	0.000690	-0.517114	-1.372601	0.083436	-1.085205	0.052246	0.086182	0.100449	-0.013105	0.013737	0.061922	-0.574815	-0.080694	-0.811937	10.398173	-70.634168	-178.654659						
44268		9.897729	-1.696326	0.312072	-3.250109	1.655141	-0.451310	-0.340252	-1.450245	0.140681	-1.081055	0.061279	0.103516	0.098963	-0.016887	0.003867	0.060943	-0.580908	-0.079337	-0.807798	10.402952	-71.474496	-178.866646						
44269		10.268990	-2.053221	-0.461458	-4.009944	1.857893	-0.307564	-0.122924	-1.473207	0.266026	-1.087646	0.056641	0.117188	0.102747	-0.020398	-0.003845	0.061101	-0.587046	-0.078497	-0.803419	10.329628	-72.341220	-178.863433						
44270		10.750869	-2.483930	-0.726045	-4.346883	2.220495	0.109538	0.085043	-1.281212	0.364682	-1.076904	0.068115	0.129883	0.107597	-0.024640	-0.006582	0.062326	-0.592355	-0.078138	-0.799453	10.129163	-73.109268	-178.603384						
44271		11.071784	-2.836237	-0.625426	-4.316022	2.566355	0.473475	0.282989	-0.646967	0.293615	-1.083740	0.072510	0.129639	0.110779	-0.028191	-0.005936	0.064111	-0.595025	-0.078583	-0.797283	9.944399	-73.512572	-178.241056						
44272		10.949386	-2.781223	-0.207641	-3.864729	2.575433	0.487711	0.528161	0.259477	0.119108	-1.079346	0.074707	0.127441	0.109508	-0.027741	-0.002292	0.066282	-0.593919	-0.080228	-0.797766	9.923529	-73.385865	-177.904081						
44273		10.476990	-2.397739	0.516432	-3.047625	2.332617	0.239820	0.738778	0.947369	0.000077	-1.088135	0.070068	0.112061	0.104793	-0.023995	0.004579	0.068882	-0.589946	-0.082842	-0.800223	10.026990	-72.860243	-177.569689						
44274		9.789424	-2.006352	1.195134	-2.253384	2.084837	-0.228289	0.856213	1.242440	-0.040894	-1.088867	0.083252	0.104492	0.097961	-0.020133	0.011257	0.071778	-0.584695	-0.085937	-0.803489	10.184463	-72.162425	-177.221044						
44275		9.382872	-1.654964	1.651445	-1.762034	1.836102	-0.483863	1.050990	1.199535	-0.035978	-1.084229	0.081055	0.088867	0.093922	-0.016651	0.015864	0.075245	-0.579527	-0.089815	-0.806487	10.464341	-71.491562	-176.881657						
44276		9.488083	-1.133123	1.977155	-1.489973	1.396555	-0.270903	1.386480	0.819973	0.050039	-1.088867	0.085449	0.086426	0.094963	-0.011442	0.019303	0.079865	-0.575755	-0.094923	-0.808157	10.905670	-71.043035	-176.508964						
44277		9.835717	-0.510698	2.453908	-1.082283	0.913949	0.238034	1.765080	0.197402	0.125388	-1.086670	0.090088	0.081543	0.098385	-0.005261	0.024396	0.085569	-0.574352	-0.101596	-0.807760	11.640185	-70.955193	-176.216039						
44278		10.180192	0.041729	2.920898	-0.634244	0.535433	0.745742	1.958044	-0.322947	0.070250	-1.082275	0.092285	0.090332	0.101754	0.000166	0.029376	0.091343	-0.574886	-0.109409	-0.805725	12.748402	-71.153412	-176.201805						
44279		10.216402	0.618586	2.896461	-0.472836	0.040449	0.813746	1.996013	-0.557143	0.003187	-1.082275	0.092285	0.090332	0.102083	0.005896	0.029309	0.096808	-0.576252	-0.117675	-0.802941	14.098760	-71.473463	-176.419860						
44280		9.573405	1.100905	2.476600	-0.456093	-0.458347	0.115901	1.994735	-0.478389	-0.072774	-1.084717	0.092285	0.094971	0.095678	0.010725	0.025103	0.102009	-0.577199	-0.126092	-0.800335	15.562316	-71.737435	-176.758144						
44281		8.568148	1.500673	1.845725	-0.544654	-0.954857	-0.988679	1.935161	-0.218534	-0.102412	-1.077881	0.094727	0.096924	0.085669	0.014783	0.018695	0.107064	-0.577058	-0.134223	-0.798452	16.942946	-71.850462	-177.044164						
44282		7.942986	1.836842	1.475280	-0.547783	-1.337177	-1.654673	1.838131	0.050160	-0.075004	-1.075684	0.096924	0.087891	0.079440	0.018202	0.014901	0.112125	-0.575862	-0.141721	-0.797324	18.085286	-71.819575	-177.138433						
44283		7.932749	2.104791	1.639769	-0.296111	-1.490003	-1.582281	1.745089	0.216608	-0.046319	-1.082520	0.099121	0.085449	0.079350	0.020886	0.016494	0.117136	-0.574029	-0.148671	-0.796660	19.036804	-71.702795	-177.087360						
44284		8.195275	2.327591	2.335705	0.312311	-1.405040	-1.096959	1.560790	0.339250	-0.027167	-1.084961	0.098877	0.078857	0.081996	0.023082	0.023399	0.121791	-0.571778	-0.154739	-0.796425	19.770102	-71.522530	-176.917651						
44285		8.223581	2.388779	2.973804	0.866879	-1.181713	-0.866795	1.220732	0.466542	-0.000102	-1.084961	0.103271	0.078613	0.082305	0.023706	0.029691	0.125660	-0.569229	-0.159300	-0.796751	20.194220	-71.280650	-176.626999						
44286		7.903312	2.245516	3.301967	1.167389	-0.894142	-1.080835	0.762569	0.579797	0.004805	-1.084961	0.101074	0.065186	0.079128	0.022332	0.032876	0.128343	-0.566492	-0.161936	-0.797741	20.277661	-70.978318	-176.253361						
44287		7.527780	1.925816	3.383947	1.195414	-0.560032	-1.441037	0.269142	0.596448	0.017699	-1.093994	0.103027	0.062744	0.075377	0.019219	0.033641	0.129679	-0.564016	-0.162564	-0.799151	20.061867	-70.670390	-175.861454						
44288		7.177186	1.485083	3.325269	1.051022	-0.188857	-1.835568	-0.143166	0.480572	0.034998	-1.083008	0.110107	0.060059	0.071849	0.014887	0.033069	0.129836	-0.562266	-0.161561	-0.800560	19.652510	-70.425996	-175.514187						
44289		6.925536	0.949865	3.190571	0.787531	0.229031	-2.172511	-0.429104	0.269971	0.045973	-1.091797	0.105469	0.058105	0.069296	0.009583	0.031792	0.129052	-0.561564	-0.159527	-0.801587	19.188859	-70.298214	-175.282772						
44290		6.571933	0.564923	3.050715	0.632370	0.512718	-2.590949	-0.569632	0.027338	0.028868	-1.091797	0.100830	0.056152	0.065723	0.005746	0.030482	0.127629	-0.561903	-0.157121	-0.802053	18.793567	-70.297928	-175.209299						
44291		6.267057	0.416642	2.820182	0.491851	0.551711	-2.967494	-0.547755	-0.237643	0.003908	-1.087402	0.107666	0.062500	0.062637	0.004245	0.028265	0.125939	-0.563270	-0.155053	-0.801763	18.591738	-70.436943	-175.328052						
44292		6.228987	0.455620	2.621057	0.376133	0.435505	-3.063869	-0.416458	-0.546089	0.004597	-1.085449	0.110107	0.066895	0.062218	0.004612	0.026371	0.124391	-0.565781	-0.153693	-0.800498	18.620443	-70.743050	-175.611481						
44293		6.611295	0.404480	2.655990	0.310614	0.493488	-2.700248	-0.276101	-0.844264	0.054102	-1.085205	0.107910	0.080566	0.065999	0.004100	0.026833	0.123198	-0.569431	-0.152946	-0.798234	18.823012	-71.220456	-175.992899						
44294		7.121607	0.343988	2.706543	0.238831	0.572113	-2.211630	-0.200955	-1.070908	0.086978	-1.083008	0.105713	0.093994	0.071068	0.003498	0.027443	0.122190	-0.573950	-0.152530	-0.795227	19.152883	-71.826436	-176.461805						
44295		7.726951	0.372056	2.692665	0.132742	0.550940	-1.641224	-0.108717	-1.095431	0.073558	-1.084961	0.101318	0.105469	0.077119	0.003764	0.027347	0.121354	-0.578483	-0.152541	-0.792062	19.608908	-72.441838	-177.006202						
44296		8.143874	0.397906	2.684911	0.092179	0.542618	-1.246107	-0.017200	-0.931344	0.040392	-1.080811	0.110352	0.114014	0.081312	0.003998	0.027228	0.120775	-0.582273	-0.152900	-0.789300	20.104682	-72.961444	-177.536206						
44297		8.168494	0.294655	2.550069	-0.007894	0.609764	-1.272088	-0.004872	-0.635781	-0.021645	-1.083008	0.108154	0.125244	0.081604	0.002938	0.025760	0.120209	-0.584828	-0.153314	-0.787414	20.553406	-73.308088	-178.007843						
44298		8.005719	0.148649	2.316158	-0.184541	0.675369	-1.506787	-0.009885	-0.311544	-0.089334	-1.080811	0.105957	0.118652	0.080022	0.001452	0.023286	0.119620	-0.586059	-0.153700	-0.786512	20.910825	-73.467216	-178.386792						
44299		7.833222	0.101742	2.153108	-0.283577	0.671530	-1.721073	0.001225	-0.085125	-0.125993	-1.089600	0.101318	0.127930	0.078324	0.000968	0.021564	0.119084	-0.586359	-0.154112	-0.786290	21.193784	-73.496182	-178.681030						
44300		7.883479	0.140666	2.222444	-0.223137	0.672131	-1.651393	0.086253	0.040544	-0.124311	-1.078125	0.099365	0.128174	0.078840	0.001348	0.022209	0.118903	-0.586113	-0.154771	-0.786371	21.431348	-73.457821	-178.877566						
44301		8.261074	0.220279	2.590072	0.013785	0.746411	-1.184536	0.148047	0.134405	-0.126313	-1.087158	0.096924	0.125977	0.082629	0.002131	0.025847	0.118965	-0.585462	-0.155630	-0.786677	21.643560	-73.369010	-179.010314						
44302		8.947051	0.239668	3.158728	0.308322	0.950818	-0.374173	0.125596	0.227307	-0.119343	-1.082764	0.099121	0.121338	0.089508	0.002323	0.031487	0.119055	-0.584466	-0.156319	-0.787267	21.762779	-73.232499	-179.060399						
44303		9.781808	0.282778	3.638865	0.479390	1.095682	0.559132	-0.003894	0.296001	-0.144636	-1.082520	0.094727	0.119385	0.097874	0.002758	0.036244	0.118726	-0.583253	-0.156536	-0.788173	21.803299	-73.053655	-179.104900						
44304		10.552395	0.394046	3.999308	0.581134	1.129251	1.407373	-0.102832	0.282551	-0.164946	-1.086914	0.092285	0.112793	0.105584	0.003874	0.039842	0.118016	-0.582134	-0.156424	-0.789128	21.829282	-72.877654	-179.194310						
44305		11.166045	0.485663	4.482566	0.830417	1.224819	2.138044	-0.265586	0.229074	-0.145880	-1.088867	0.087891	0.110840	0.111715	0.004835	0.044691	0.116867	-0.581335	-0.155652	-0.790040	21.766979	-72.734146	-179.288211						
44306		11.385514	0.343409	4.724829	0.900710	1.429549	2.402747	-0.629082	0.281674	-0.098988	-1.088623	0.081299	0.111328	0.113923	0.003526	0.047077	0.114880	-0.580568	-0.153271	-0.791361	21.381212	-72.571699	-179.262481						
44307		11.329892	-0.047292	4.766852	0.785972	1.764481	2.326508	-0.998500	0.414264	-0.055138	-1.088867	0.083496	0.108887	0.113397	-0.000267	0.047435	0.112100	-0.579515	-0.149227	-0.793302	20.629475	-72.348171	-179.073914						
44308		11.446565	-0.603703	4.718554	0.480466	2.197074	2.377245	-1.297794	0.551965	0.003440	-1.086426	0.081299	0.102295	0.114595	-0.005730	0.046907	0.108769	-0.578103	-0.143738	-0.795805	19.539467	-72.060602	-178.711398						
44309		11.748998	-1.132691	4.701911	0.157768	2.598453	2.623236	-1.433115	0.655839	0.071081	-1.086182	0.074463	0.095947	0.117647	-0.010950	0.046713	0.105399	-0.576369	-0.137456	-0.798621	18.223884	-71.727560	-178.191005						
44310		12.198742	-1.544637	4.796503	-0.074948	2.916149	3.059414	-1.350331	0.746066	0.148628	-1.086426	0.081055	0.086670	0.122177	-0.015033	0.047612	0.102615	-0.574247	-0.131220	-0.801556	16.818384	-71.354019	-177.526425						
44311		12.633508	-1.822030	5.048937	-0.134628	3.150678	3.546607	-1.025758	0.882628	0.219265	-1.086426	0.083252	0.077393	0.126576	-0.017824	0.050023	0.101149	-0.571429	-0.126010	-0.804586	15.460373	-70.912394	-176.712234						
44312		12.956047	-1.885388	5.527551	0.073766	3.253342	4.021180	-0.532414	1.085778	0.244938	-1.090820	0.083252	0.070801	0.129881	-0.018549	0.054621	0.101309	-0.567531	-0.122595	-0.807846	14.308071	-70.355287	-175.815406						
44313		13.397627	-1.521327	5.922250	0.246485	2.931760	4.617318	0.110294	1.236491	0.218299	-1.088867	0.085205	0.050537	0.134355	-0.015099	0.058384	0.103284	-0.562667	-0.121778	-0.811116	13.561219	-69.706936	-174.953386						
44314		13.555004	-0.685829	6.357232	0.660670	2.217946	4.994890	0.798247	1.170287	0.171381	-1.093018	0.083008	0.034912	0.135925	-0.006993	0.062750	0.106945	-0.557656	-0.123905	-0.813775	13.343500	-69.085626	-174.233698						
44315		13.260391	0.366863	6.709214	1.242393	1.343530	4.939791	1.288182	0.925991	0.118579	-1.093262	0.087402	0.034668	0.132911	0.003318	0.066499	0.111613	-0.553319	-0.128304	-0.815426	13.585525	-68.594608	-173.701612						
44316		12.792106	1.180093	6.294914	1.194887	0.500220	4.434332	1.554312	0.607436	0.095635	-1.097900	0.087158	0.021240	0.128106	0.011374	0.062650	0.116693	-0.550072	-0.134015	-0.815993	14.126483	-68.277279	-173.327499						
44317		12.055263	1.691015	5.302434	0.718871	-0.218201	3.443994	1.813394	0.203112	0.031267	-1.100098	0.089355	0.025635	0.120604	0.016448	0.053052	0.121962	-0.548247	-0.141191	-0.815239	15.043155	-68.178348	-173.195602						
44318		10.778271	2.136766	4.090485	0.300134	-0.919850	1.871994	2.036580	-0.112203	-0.100283	-1.100342	0.091553	0.023193	0.107770	0.020895	0.041180	0.127050	-0.547422	-0.149812	-0.813476	16.389287	-68.232615	-173.390603						
44319		9.607058	2.542666	2.746658	-0.230767	-1.651995	0.361857	2.103361	-0.364233	-0.205739	-1.093506	0.089600	0.023193	0.096046	0.025036	0.027906	0.131712	-0.547447	-0.159141	-0.810943	18.028450	-68.406361	-173.857493						
44320		8.788018	2.869683	1.377290	-0.892195	-2.364404	-0.814180	2.044445	-0.837516	-0.307260	-1.099854	0.080566	0.032715	0.087864	0.028417	0.014432	0.135391	-0.549277	-0.168797	-0.807138	20.021408	-68.810792	-174.741529						
44321		8.548967	3.436838	0.450639	-1.243043	-3.153017	-1.233044	1.825879	-1.363849	-0.348007	-1.097656	0.085205	0.048340	0.085514	0.034173	0.005402	0.137861	-0.553280	-0.178022	-0.801988	22.292948	-69.476995	-176.052617						
44322		8.982883	3.789363	-0.158694	-1.620007	-3.637206	-0.912132	1.269258	-1.567295	-0.329400	-1.095215	0.078613	0.071045	0.089899	0.037752	-0.000643	0.138641	-0.558429	-0.185082	-0.796668	24.466204	-70.234630	-177.594711						
44323		9.860715	3.833817	-0.322554	-1.912025	-3.662652	-0.067780	0.655822	-1.199316	-0.336142	-1.099365	0.071777	0.073730	0.098688	0.038181	-0.002509	0.138039	-0.562491	-0.189449	-0.792879	26.162679	-70.782936	-178.995515						
44324		10.341674	3.560505	-0.128894	-1.967570	-3.263119	0.440338	0.201776	-0.293111	-0.338372	-1.099365	0.071777	0.080566	0.103478	0.035431	-0.001102	0.136970	-0.563259	-0.191394	-0.792053	26.999493	-70.854964	-179.761223						
44325		9.798763	3.196153	0.223266	-1.683395	-2.755217	-0.022110	-0.165962	0.691602	-0.343604	-1.099365	0.069580	0.064941	0.098049	0.031795	0.001867	0.135821	-0.560365	-0.191218	-0.794342	26.892245	-70.421970	-179.748165						
44326		8.721770	3.065938	0.547510	-1.208571	-2.509322	-0.980351	-0.505078	1.315720	-0.336618	-1.105957	0.064941	0.049561	0.087302	0.030525	0.004824	0.134317	-0.555203	-0.189246	-0.798683	26.154064	-69.668884	-179.272202						
44327		7.712063	3.158160	0.860458	-0.683169	-2.487416	-1.841823	-0.763515	1.466789	-0.289724	-1.103516	0.060547	0.038574	0.077226	0.031501	0.007918	0.132442	-0.549630	-0.185999	-0.803598	25.149911	-68.848883	-178.666092						
44328		7.173640	3.178154	1.273869	-0.252842	-2.366111	-2.228434	-0.961378	1.219920	-0.191304	-1.103516	0.062500	0.024902	0.071842	0.031772	0.012148	0.130159	-0.545220	-0.181840	-0.807916	24.113805	-68.174435	-178.145729						
44329		7.362361	2.970256	1.850417	-0.012409	-1.980307	-1.905193	-1.090297	0.655533	-0.052567	-1.107910	0.060303	0.020508	0.073691	0.029783	0.018100	0.127587	-0.543288	-0.177138	-0.810667	23.182652	-67.827726	-177.815036						
44330		8.014536	2.721683	2.624572	0.252009	-1.483277	-1.079709	-1.193007	-0.013727	0.071848	-1.103271	0.058105	0.025146	0.080134	0.027402	0.026088	0.124628	-0.544215	-0.172101	-0.811590	22.413039	-67.858621	-177.723014						
44331		8.501199	2.457817	3.265110	0.516812	-1.034430	-0.451346	-1.364539	-0.437170	0.177052	-1.105713	0.062500	0.027100	0.084919	0.024876	0.032668	0.121275	-0.547043	-0.166339	-0.811399	21.628404	-68.138260	-177.719809						
44332		8.313233	2.035038	3.342999	0.530584	-0.670726	-0.664190	-1.561565	-0.468761	0.230737	-1.105713	0.060303	0.036377	0.083030	0.020707	0.033464	0.117545	-0.550127	-0.159641	-0.811208	20.668351	-68.444881	-177.650621						
44333		7.908188	1.540797	2.936884	0.189084	-0.426472	-1.249931	-1.618866	-0.386257	0.202853	-1.103516	0.064941	0.044922	0.079009	0.015726	0.029395	0.113623	-0.552852	-0.152727	-0.811245	19.653805	-68.702044	-177.556987						
44334		7.815866	1.241055	2.514661	-0.208401	-0.350556	-1.519019	-1.454483	-0.529965	0.143276	-1.099121	0.067139	0.047119	0.078083	0.012650	0.025262	0.109772	-0.555990	-0.146717	-0.810740	18.880706	-69.025074	-177.622945						
44335		8.081236	1.053154	2.344011	-0.456058	-0.264170	-1.349139	-1.190412	-0.925878	0.099059	-1.097168	0.071777	0.062500	0.080698	0.010712	0.023750	0.106204	-0.560517	-0.142108	-0.808917	18.501996	-69.555092	-177.947076						
44336		8.561037	0.999302	2.432695	-0.471058	-0.188970	-0.871245	-0.945349	-1.285100	0.031428	-1.101318	0.062988	0.078857	0.085450	0.010123	0.024829	0.102776	-0.566291	-0.138858	-0.805897	18.550662	-70.268834	-178.576555						
44337		8.919555	1.021146	2.585757	-0.337976	-0.143361	-0.477193	-0.793275	-1.317339	-0.071407	-1.097168	0.069824	0.091797	0.089027	0.010284	0.026404	0.099347	-0.572004	-0.136522	-0.802685	18.890759	-70.979888	-179.418690						
44338		8.917445	1.033745	2.405542	-0.395168	-0.189868	-0.529193	-0.679480	-1.008013	-0.179700	-1.090332	0.065430	0.107666	0.089061	0.010340	0.024469	0.095997	-0.576328	-0.134792	-0.800288	19.344647	-71.502405	179.689544						
44339		8.625380	1.032322	2.161524	-0.459934	-0.243333	-0.876015	-0.556395	-0.574523	-0.262299	-1.092041	0.056641	0.108398	0.086205	0.010271	0.021834	0.092978	-0.578776	-0.133582	-0.799081	19.780248	-71.771610	178.894850						
44340		8.277526	1.048910	1.924231	-0.536484	-0.315487	-1.272610	-0.411990	-0.174067	-0.304468	-1.098633	0.049805	0.113281	0.082774	0.010403	0.019293	0.090457	-0.579534	-0.132881	-0.798937	20.146662	-71.816571	178.259345						
44341		8.103871	0.988317	2.027805	-0.412811	-0.210471	-1.413477	-0.268089	0.121024	-0.294293	-1.094238	0.056396	0.105957	0.081065	0.009791	0.020216	0.088607	-0.579038	-0.132592	-0.799552	20.396141	-71.702464	177.835105						
44342		7.929755	1.074259	2.242799	-0.163148	-0.215893	-1.506553	-0.178264	0.324443	-0.265685	-1.094238	0.052002	0.097412	0.079348	0.010657	0.022290	0.087249	-0.577711	-0.132489	-0.800678	20.527227	-71.484750	177.588124						
44343		7.707595	1.203143	2.505055	0.145939	-0.256125	-1.624719	-0.176707	0.452923	-0.197957	-1.098389	0.047363	0.099854	0.077144	0.011977	0.024865	0.086269	-0.575905	-0.132140	-0.802141	20.467758	-71.211325	177.544200						
44344		7.401658	1.326819	2.790533	0.495930	-0.295897	-1.812788	-0.276741	0.538320	-0.117462	-1.098633	0.049561	0.095215	0.074099	0.013263	0.027688	0.085370	-0.573846	-0.131117	-0.803879	20.177891	-70.907506	177.682247						
44345		7.202254	1.261317	3.029873	0.714188	-0.181349	-1.932311	-0.454102	0.572882	-0.029890	-1.104980	0.042725	0.091309	0.072111	0.012671	0.030064	0.084345	-0.571777	-0.129117	-0.805783	19.639771	-70.602406	177.976805						
44346		7.066703	1.172195	3.177447	0.826264	-0.082545	-2.020463	-0.598676	0.518928	0.032461	-1.098633	0.049561	0.079590	0.070747	0.011828	0.031556	0.083109	-0.570024	-0.126374	-0.807586	18.968100	-70.337712	178.324542						
44347		6.936972	1.146129	3.277562	0.921449	-0.063002	-2.110453	-0.643939	0.368134	0.066333	-1.100830	0.049561	0.077393	0.069426	0.011589	0.032611	0.081797	-0.568906	-0.123416	-0.808964	18.306758	-70.159311	178.635382						
44348		6.610717	1.258346	3.158154	0.940387	-0.240091	-2.442687	-0.593966	0.097163	0.121780	-1.096191	0.049561	0.077393	0.066115	0.012717	0.031512	0.080681	-0.568890	-0.120606	-0.809511	17.729295	-70.136964	178.886988						
44349		6.395604	1.244817	3.105896	0.970055	-0.271369	-2.665298	-0.524972	-0.226344	0.197592	-1.098877	0.058594	0.085693	0.063908	0.012593	0.031098	0.079874	-0.570198	-0.117995	-0.809056	17.231676	-70.303951	179.096331						
44350		6.931841	1.101056	3.167835	0.842874	-0.135551	-2.159657	-0.500988	-0.634966	0.212660	-1.093994	0.049805	0.097412	0.069206	0.011164	0.031870	0.078955	-0.573155	-0.115592	-0.807402	16.910532	-70.697442	179.132052						
44351		7.796798	1.089505	3.259944	0.701746	-0.109699	-1.321554	-0.467055	-0.881824	0.182982	-1.096680	0.058594	0.105957	0.077813	0.011043	0.032917	0.077869	-0.577061	-0.113513	-0.805017	16.770911	-71.220658	178.996832						
44352		8.453452	1.238498	3.202720	0.555911	-0.273278	-0.709508	-0.319459	-0.878124	0.174649	-1.087646	0.056641	0.112793	0.084382	0.012510	0.032378	0.077167	-0.580888	-0.112044	-0.802534	16.730484	-71.742206	178.845534						
44353		8.851013	1.292110	2.907253	0.253234	-0.403859	-0.419370	-0.059858	-0.776122	0.167630	-1.092041	0.056641	0.114990	0.088386	0.013004	0.029412	0.077254	-0.584177	-0.111599	-0.800197	16.802013	-72.204954	178.734415						
44354		9.215436	1.330333	2.737881	0.068505	-0.476851	-0.119516	0.248422	-0.672340	0.132800	-1.087891	0.061279	0.128174	0.092053	0.013330	0.027705	0.078152	-0.586907	-0.112444	-0.797990	17.063527	-72.605266	178.608649						
44355		9.739850	1.630035	2.714493	0.030175	-0.751585	0.401229	0.521500	-0.497963	0.086823	-1.087646	0.059082	0.130615	0.097323	0.016271	0.027430	0.079773	-0.588797	-0.114447	-0.796151	17.476359	-72.901760	178.489415						
44356		10.702001	2.177916	2.863233	0.075250	-1.205681	1.412941	0.777351	-0.234203	0.054547	-1.092285	0.061035	0.128174	0.106980	0.021697	0.028842	0.082159	-0.589513	-0.117454	-0.794940	17.953331	-73.048966	178.455621						
44357		11.608352	2.770629	3.468670	0.546504	-1.571414	2.503719	0.885814	0.152557	0.095114	-1.088135	0.067871	0.123291	0.116097	0.027608	0.034721	0.085261	-0.588655	-0.120614	-0.794776	18.196916	-72.992082	178.731768						
44358		12.020739	2.967810	4.195235	1.109712	-1.539461	3.121925	0.660572	0.744135	0.129050	-1.087891	0.065674	0.114502	0.120343	0.029618	0.041603	0.088184	-0.585543	-0.122522	-0.796461	17.915444	-72.618051	179.422165						
44359		11.885214	2.819509	4.738600	1.481686	-1.265045	3.143541	0.243266	1.456450	0.082953	-1.088135	0.070068	0.096191	0.119181	0.028188	0.046553	0.090140	-0.579734	-0.122587	-0.800472	17.123961	-71.845842	-179.600198						
44360		11.266203	2.696889	4.958001	1.637383	-1.143338	2.628735	-0.165929	1.969028	-0.001480	-1.094971	0.069824	0.073975	0.113143	0.027009	0.048445	0.090875	-0.571951	-0.121017	-0.806206	16.072800	-70.772089	-178.591219						
44361		10.586545	2.655591	5.021680	1.675797	-1.160246	2.027276	-0.406817	2.031552	-0.028000	-1.096924	0.067383	0.058350	0.106372	0.026642	0.049084	0.090847	-0.563963	-0.118513	-0.812187	15.009963	-69.655543	-177.709292						
44362		10.370289	2.594926	5.367628	1.835625	-1.079696	1.958008	-0.475356	1.633139	0.003140	-1.092285	0.065186	0.042725	0.104136	0.026077	0.052765	0.090504	-0.557579	-0.115812	-0.817008	14.107579	-68.757680	-177.035613						
44363		11.024282	2.513548	6.087622	2.073915	-0.879094	2.829964	-0.456461	0.877392	0.086719	-1.097168	0.073975	0.028809	0.110497	0.025321	0.060334	0.090118	-0.554309	-0.113293	-0.819625	13.413468	-68.290362	-176.570594						
44364		12.497919	2.344434	6.564082	1.862140	-0.673431	4.359829	-0.401146	-0.033360	0.204030	-1.090820	0.083008	0.032715	0.124944	0.023703	0.065614	0.089845	-0.554794	-0.111082	-0.819629	12.901934	-68.343282	-176.267620						
44365		13.563026	1.919754	6.404151	1.282771	-0.375072	5.249410	-0.273341	-0.768963	0.286169	-1.095215	0.080811	0.043945	0.135355	0.019479	0.064536	0.089856	-0.558286	-0.109498	-0.817467	12.578926	-68.818280	-176.088709						
44366		13.240813	1.300230	5.688106	0.729588	0.011793	4.638267	-0.228210	-0.978367	0.229155	-1.091064	0.085205	0.052734	0.132113	0.013219	0.057513	0.089656	-0.562563	-0.108343	-0.814706	12.419485	-69.402443	-176.057694						
44367		12.024802	0.662880	4.196539	-0.217224	0.243982	2.936362	-0.222647	-0.951993	0.074412	-1.093018	0.076416	0.071289	0.120044	0.006721	0.042530	0.088841	-0.566637	-0.107638	-0.812061	12.490234	-69.953344	-176.269001						
44368		10.601258	0.144259	2.731154	-1.070370	0.392091	1.076119	-0.109268	-1.068496	-0.007355	-1.086670	0.085449	0.079590	0.105865	0.001454	0.027877	0.087949	-0.571074	-0.107670	-0.809040	12.804740	-70.558723	-176.669880						
44369		9.617702	-0.240862	1.686027	-1.675332	0.527048	-0.204612	0.005282	-1.265687	-0.030073	-1.084229	0.081299	0.095459	0.096067	-0.002424	0.017468	0.087184	-0.576227	-0.108316	-0.805375	13.322911	-71.270369	-177.214807						
44370		9.376815	-0.503904	0.700707	-2.437403	0.550090	-0.733902	0.100115	-1.519994	0.012211	-1.084229	0.081299	0.109131	0.093712	-0.005037	0.007717	0.086724	-0.582359	-0.109323	-0.800865	13.971795	-72.127998	-177.837919						
44371		9.514912	-0.780447	-0.064296	-3.107064	0.641051	-0.808263	0.161022	-1.770913	0.091089	-1.084473	0.085693	0.126709	0.095153	-0.007761	0.000193	0.086611	-0.589469	-0.110451	-0.795503	14.698314	-73.133173	-178.502285						
44372		10.121051	-1.129873	-0.601096	-3.707511	0.855534	-0.347312	0.163487	-1.778331	0.210737	-1.077637	0.085938	0.146973	0.101271	-0.011188	-0.005120	0.086973	-0.596627	-0.111225	-0.790001	15.283037	-74.158077	-179.014104						
44373		11.104456	-1.507709	-0.990372	-4.280389	1.122461	0.530392	0.273299	-1.397254	0.300016	-1.071045	0.090576	0.151123	0.111133	-0.014898	-0.009148	0.088217	-0.602240	-0.111998	-0.785482	15.604113	-74.984726	-179.184568						
44374		11.822187	-1.834641	-0.636357	-4.121302	1.529305	1.332295	0.358620	-0.584844	0.267314	-1.076172	0.101807	0.159424	0.118264	-0.018177	-0.006050	0.090048	-0.604582	-0.112837	-0.783352	15.581229	-75.357554	-178.948293						
44375		11.652998	-1.947825	0.117897	-3.400679	1.835200	1.352771	0.275084	0.415984	0.062460	-1.075684	0.092773	0.155518	0.116538	-0.019443	0.000910	0.091382	-0.602924	-0.113522	-0.784376	15.358353	-75.146606	-178.554677						
44376		10.812114	-1.843504	0.807253	-2.607857	1.915083	0.698349	0.096708	1.263491	-0.136002	-1.078125	0.094971	0.137451	0.108157	-0.018512	0.007380	0.091892	-0.597890	-0.113708	-0.788133	14.979354	-74.436049	-178.104153						
44377		9.781053	-1.616064	1.361598	-1.904276	1.838382	-0.162490	0.044774	1.702050	-0.182594	-1.082764	0.099121	0.116943	0.097907	-0.016253	0.012779	0.092294	-0.591098	-0.113628	-0.793204	14.486737	-73.475480	-177.564728						
44378		9.271010	-1.407343	1.748746	-1.503383	1.724245	-0.552283	0.251969	1.631151	-0.093979	-1.080322	0.099121	0.105713	0.092842	-0.014138	0.016713	0.093632	-0.584486	-0.114124	-0.797863	14.032715	-72.563686	-176.938511						
44379		9.253007	-1.124137	2.253427	-1.089793	1.573293	-0.416106	0.606684	1.140435	0.013950	-1.084717	0.094482	0.094727	0.092657	-0.011302	0.021972	0.096133	-0.579711	-0.115952	-0.800780	13.856810	-71.940596	-176.388678						
44380		9.535859	-0.738809	2.838658	-0.618331	1.364456	0.050989	0.895965	0.444108	0.053280	-1.087158	0.101074	0.092041	0.095423	-0.007489	0.028141	0.099241	-0.577582	-0.119144	-0.801470	14.078532	-71.709620	-176.081407						
44381		9.638307	-0.252389	3.146671	-0.254246	1.011269	0.275663	1.076774	-0.111878	0.029408	-1.084961	0.099121	0.096680	0.096366	-0.002679	0.031506	0.102424	-0.577568	-0.123413	-0.800433	14.687416	-71.785069	-176.072749						
44382		9.266652	0.140841	3.004294	-0.133756	0.640218	-0.092170	1.238509	-0.345970	-0.009088	-1.082764	0.101318	0.103271	0.092614	0.001217	0.030211	0.105787	-0.578366	-0.128545	-0.798610	15.557400	-71.984882	-176.241380						
44383		8.640618	0.387850	2.680753	-0.130929	0.361665	-0.765645	1.365377	-0.307134	-0.052386	-1.080811	0.110352	0.100586	0.086366	0.003672	0.026966	0.109350	-0.578885	-0.134294	-0.796806	16.573190	-72.154913	-176.486615						
44384		8.220368	0.785640	2.213301	-0.271426	-0.116538	-1.268511	1.498870	-0.199810	-0.061160	-1.078369	0.105957	0.105225	0.082184	0.007665	0.022273	0.113350	-0.578876	-0.140520	-0.795178	17.627476	-72.264941	-176.691687						
44385		8.152663	1.296424	2.149307	-0.116570	-0.569910	-1.302249	1.587280	-0.133416	-0.035571	-1.080811	0.108154	0.100586	0.081515	0.012778	0.021649	0.117727	-0.578527	-0.146991	-0.793625	18.667043	-72.340536	-176.828104						
44386		8.238412	1.584011	2.386513	0.185209	-0.705856	-1.121125	1.555374	-0.048383	0.001294	-1.074219	0.112549	0.091309	0.082378	0.015654	0.024007	0.122232	-0.577856	-0.153158	-0.792266	19.572449	-72.377535	-176.842846						
44387		8.317374	1.726358	2.672024	0.472930	-0.687829	-0.946919	1.357554	0.083376	0.030901	-1.078613	0.112549	0.093750	0.083182	0.017095	0.026802	0.126358	-0.576770	-0.158379	-0.791383	20.242446	-72.348000	-176.729535						
44388		8.208119	1.669785	2.785967	0.578276	-0.558174	-1.021955	1.056889	0.243695	0.011594	-1.087891	0.114502	0.086914	0.082114	0.016555	0.027847	0.129690	-0.575193	-0.162345	-0.791188	20.661485	-72.228208	-176.532995						
44389		7.845080	1.583460	2.694149	0.556081	-0.491869	-1.400801	0.730760	0.370680	-0.008364	-1.085693	0.116943	0.095703	0.078501	0.015733	0.026854	0.132078	-0.573305	-0.165006	-0.791612	20.856749	-72.037286	-176.298074						
44390		7.362061	1.406060	2.552276	0.483924	-0.374467	-1.918603	0.432689	0.451481	-0.009199	-1.083496	0.121338	0.077393	0.073679	0.014002	0.025387	0.133694	-0.571284	-0.166423	-0.792505	20.826490	-71.803331	-176.004995						
44391		6.824510	1.132405	2.414975	0.391863	-0.175876	-2.498058	0.191213	0.496771	-0.017077	-1.087891	0.114502	0.071045	0.068306	0.011295	0.023991	0.134605	-0.569236	-0.166885	-0.793726	20.655644	-71.543055	-175.709441						
44392		6.441813	0.980373	2.355968	0.368310	-0.064093	-2.893959	-0.005003	0.516890	-0.035069	-1.090088	0.116699	0.073242	0.064480	0.009793	0.023393	0.134925	-0.567210	-0.166595	-0.795182	20.388262	-71.267050	-175.429628						
44393		6.358673	0.965568	2.333059	0.338731	-0.070726	-2.979798	-0.123345	0.463174	-0.049578	-1.090088	0.118896	0.066406	0.063643	0.009654	0.023177	0.134783	-0.565473	-0.165920	-0.796583	20.122787	-71.017608	-175.223606						
44394		6.470959	1.006569	2.567831	0.495869	-0.025421	-2.796017	-0.176300	0.305746	-0.036744	-1.094482	0.112061	0.064453	0.064751	0.010076	0.025570	0.134426	-0.564406	-0.165096	-0.797571	19.896430	-70.855327	-175.090611						
44395		6.799695	0.919883	2.834919	0.571326	0.145657	-2.411933	-0.229462	0.063376	-0.017848	-1.090088	0.116699	0.064209	0.068007	0.009225	0.028317	0.133780	-0.564356	-0.164177	-0.797904	19.753236	-70.827049	-175.078031						
44396		7.103829	0.734849	3.088342	0.621489	0.405669	-2.067275	-0.301932	-0.192728	-0.038204	-1.090088	0.116699	0.066406	0.071010	0.007382	0.030941	0.132644	-0.565358	-0.163192	-0.797586	19.740300	-70.932903	-175.247317						
44397		7.379076	0.539935	3.244113	0.611962	0.642195	-1.782770	-0.365958	-0.401167	-0.077964	-1.087646	0.110107	0.073730	0.073728	0.005430	0.032579	0.130992	-0.567199	-0.162207	-0.796753	19.875620	-71.143369	-175.611941						
44398		7.597646	0.504069	3.194771	0.521068	0.657293	-1.597994	-0.407451	-0.513953	-0.094122	-1.083252	0.114502	0.084473	0.075896	0.005070	0.032133	0.129069	-0.569498	-0.161170	-0.795637	20.082107	-71.411201	-176.076421						
44399		8.002653	0.482587	3.154343	0.391600	0.661447	-1.231650	-0.392504	-0.529566	-0.057192	-1.085449	0.110107	0.084717	0.079944	0.004865	0.031746	0.127317	-0.571872	-0.160100	-0.794431	20.259107	-71.694072	-176.499909						
44400		8.552917	0.318331	3.198792	0.238805	0.825092	-0.716093	-0.381286	-0.455465	0.017362	-1.085205	0.107910	0.096191	0.085456	0.003252	0.032176	0.125955	-0.574003	-0.158808	-0.793370	20.281381	-71.952226	-176.753320						
44401		9.008838	0.113668	3.378327	0.214437	1.075757	-0.253302	-0.348669	-0.293511	0.035438	-1.087646	0.110107	0.093750	0.090038	0.001212	0.033913	0.124882	-0.575477	-0.157495	-0.792733	20.198259	-72.126395	-176.875778						
44402		9.310587	-0.105032	3.508737	0.176066	1.317977	0.048409	-0.317122	-0.080595	-0.007506	-1.085205	0.105713	0.098633	0.093092	-0.000998	0.035126	0.123897	-0.576053	-0.156293	-0.792707	20.073139	-72.177953	-176.935475						
44403		9.409154	-0.186888	3.673735	0.260965	1.447691	0.182287	-0.283750	0.151832	-0.056298	-1.092041	0.107666	0.093994	0.094119	-0.001843	0.036669	0.122996	-0.575646	-0.155224	-0.793353	19.908135	-72.094528	-176.932756						
44404		9.358724	-0.338239	3.791167	0.301373	1.620545	0.155059	-0.243134	0.380127	-0.077852	-1.085205	0.105713	0.089600	0.093658	-0.003373	0.037738	0.122302	-0.574290	-0.154232	-0.794635	19.665882	-71.883919	-176.824882						
44405		9.222456	-0.474553	4.067721	0.494664	1.837060	0.097182	-0.213511	0.550065	-0.080186	-1.091797	0.103271	0.089844	0.092334	-0.004739	0.040428	0.121815	-0.572235	-0.153264	-0.796379	19.351554	-71.580847	-176.622529						
44406		9.241943	-0.438703	4.217669	0.580364	1.839972	0.170903	-0.176099	0.623437	-0.093276	-1.089355	0.101074	0.078613	0.092548	-0.004393	0.041892	0.121436	-0.569850	-0.152432	-0.798304	19.045933	-71.235343	-176.407001						
44407		9.641980	-0.231221	4.545067	0.757282	1.746058	0.678089	-0.072609	0.572854	-0.087199	-1.093994	0.100830	0.072021	0.096548	-0.002338	0.045175	0.121338	-0.567602	-0.152029	-0.799995	18.827041	-70.917999	-176.219413						
44408		10.303763	-0.125341	4.959085	0.889659	1.775908	1.449205	-0.043556	0.437769	-0.056847	-1.087402	0.103271	0.071777	0.103145	-0.001272	0.049365	0.121339	-0.565896	-0.151732	-0.801259	18.653559	-70.679096	-176.062691						
44409		10.779140	-0.149451	5.327554	1.005690	1.911805	2.016450	-0.127616	0.316529	-0.025198	-1.089355	0.101074	0.065186	0.107875	-0.001474	0.053106	0.121138	-0.564749	-0.151088	-0.802220	18.450985	-70.511886	-175.925269						
44410		10.881416	-0.362239	5.358595	0.894113	2.099055	2.105594	-0.247023	0.254604	-0.025062	-1.084717	0.096680	0.061035	0.108882	-0.003570	0.053452	0.120554	-0.563922	-0.149994	-0.803095	18.212184	-70.378175	-175.822591						
44411		10.821675	-0.519407	5.162046	0.668107	2.150054	1.975272	-0.318471	0.209462	-0.000800	-1.089355	0.098877	0.067627	0.108271	-0.005112	0.051515	0.119831	-0.563335	-0.148579	-0.803877	17.922184	-70.273239	-175.708226						
44412		10.883275	-0.686301	5.004585	0.438007	2.221542	1.970156	-0.270397	0.177030	0.024737	-1.089111	0.094238	0.061035	0.108878	-0.006782	0.049959	0.119318	-0.562867	-0.147296	-0.804517	17.637366	-70.190145	-175.571033						
44413		11.083640	-0.741448	4.965824	0.300634	2.231809	2.144938	-0.118109	0.250376	0.045522	-1.091553	0.096436	0.058838	0.110900	-0.007360	0.049524	0.119375	-0.562027	-0.146531	-0.805235	17.376607	-70.070465	-175.365553						
44414		11.205603	-0.765404	5.057226	0.292886	2.260330	2.292342	0.065257	0.490803	0.088150	-1.091553	0.100830	0.053955	0.112183	-0.007621	0.050295	0.120289	-0.560138	-0.146232	-0.806469	17.047610	-69.825783	-174.976566						
44415		11.286619	-0.739615	5.346883	0.451440	2.305657	2.475646	0.182429	0.848845	0.143382	-1.093750	0.096436	0.038574	0.113097	-0.007364	0.052982	0.122020	-0.556769	-0.146042	-0.808573	16.557303	-69.393197	-174.341805						
44416		11.424725	-0.592335	5.523834	0.494420	2.178817	2.693089	0.273408	1.150178	0.191348	-1.091553	0.100830	0.027100	0.114568	-0.005889	0.054572	0.124411	-0.552144	-0.145889	-0.811403	15.948386	-68.799940	-173.523314						
44417		11.711075	-0.313287	5.874166	0.648964	1.978550	3.126206	0.389110	1.302720	0.217647	-1.093994	0.102783	0.011230	0.117493	-0.003118	0.057971	0.127337	-0.546827	-0.146041	-0.814516	15.351713	-68.124050	-172.642014						
44418		11.960682	0.192919	6.217652	0.877186	1.567061	3.548701	0.549428	1.290861	0.242746	-1.096191	0.102783	0.004639	0.120003	0.001905	0.061408	0.130786	-0.541444	-0.146769	-0.817431	14.858411	-67.454562	-171.770224						
44419		12.027259	0.775972	6.618449	1.263386	1.133104	3.832067	0.744671	1.036415	0.256912	-1.096436	0.111572	-0.011719	0.120604	0.007670	0.065589	0.134633	-0.536963	-0.148425	-0.819460	14.582534	-66.926811	-171.007915						
44420		11.812169	1.245381	6.587812	1.393007	0.687779	3.680402	0.927881	0.654739	0.223047	-1.096436	0.107178	-0.020508	0.118323	0.012281	0.065548	0.138538	-0.533874	-0.151165	-0.820326	14.599104	-66.604518	-170.448640						
44421		11.575866	1.640798	5.728920	0.867658	0.020361	3.178078	1.154058	0.256153	0.190375	-1.094238	0.111572	-0.018555	0.115817	0.016188	0.057235	0.142613	-0.532224	-0.155200	-0.819947	14.925892	-66.499578	-170.083924						
44422		11.321348	2.062367	4.734773	0.311791	-0.699456	2.607356	1.314210	-0.204648	0.109032	-1.096924	0.118164	-0.014404	0.113154	0.020373	0.047598	0.146409	-0.532259	-0.160421	-0.818248	15.605062	-66.637499	-170.004834						
44423		10.827992	2.405096	3.728729	-0.131146	-1.317561	1.813962	1.299114	-0.684020	-0.017645	-1.096680	0.113770	-0.007324	0.108153	0.023797	0.037812	0.149263	-0.534144	-0.166270	-0.815331	16.621635	-67.020447	-170.300778						
44424		10.087807	2.647281	2.690280	-0.508994	-1.838989	0.787641	1.150803	-0.996338	-0.134412	-1.098633	0.107178	0.004150	0.100760	0.026248	0.027556	0.150971	-0.537285	-0.172040	-0.811748	17.854930	-67.552011	-170.924260						
44425		9.419904	2.887611	1.549155	-0.991973	-2.422008	-0.188703	1.004301	-1.085914	-0.236975	-1.096436	0.107178	0.013184	0.094147	0.028685	0.016147	0.151789	-0.540781	-0.177558	-0.808077	19.227952	-68.108051	-171.785343						
44426		9.239241	3.194938	0.392112	-1.642333	-3.115862	-0.684850	0.865684	-1.194386	-0.315048	-1.098389	0.102783	0.024658	0.092416	0.031785	0.004611	0.151798	-0.544722	-0.182793	-0.804253	20.740469	-68.698731	-172.880154						
44427		9.462690	3.474542	-0.451205	-2.189935	-3.669817	-0.671939	0.709512	-1.291097	-0.325430	-1.096191	0.100830	0.036133	0.094709	0.034606	-0.003778	0.151257	-0.549127	-0.187498	-0.800266	22.303830	-69.327915	-174.118985						
44428		9.887804	3.561644	-0.778690	-2.475531	-3.827804	-0.311181	0.588466	-1.044872	-0.327585	-1.098389	0.098389	0.045166	0.098975	0.035476	-0.007165	0.150585	-0.552611	-0.191523	-0.797035	23.731801	-69.814636	-175.284306						
44429		10.228591	3.594753	-0.541814	-2.330902	-3.687222	0.127678	0.489050	-0.289160	-0.371841	-1.100586	0.096191	0.054199	0.102360	0.035770	-0.005183	0.150195	-0.553101	-0.194706	-0.795996	24.725038	-69.887724	-176.043647						
44430		10.096776	3.686496	-0.060954	-1.880715	-3.504572	0.173259	0.310260	0.798523	-0.481477	-1.097900	0.091797	0.036621	0.101053	0.036623	-0.000956	0.149920	-0.549282	-0.196656	-0.798210	25.057340	-69.365960	-176.209586						
44431		9.307597	3.775035	0.552696	-1.182350	-3.278464	-0.376631	0.005184	1.648134	-0.592387	-1.097656	0.084961	0.014648	0.093229	0.037474	0.004760	0.149203	-0.542163	-0.197051	-0.803100	24.824889	-68.376027	-175.957035						
44432		8.415489	4.136432	1.289588	-0.262546	-3.257276	-0.929457	-0.508865	1.872397	-0.588503	-1.101807	0.078125	-0.002930	0.084391	0.041148	0.012002	0.147310	-0.534476	-0.195183	-0.809036	24.192397	-67.268421	-175.589476						
44433		7.870373	4.463254	2.020274	0.510309	-3.242602	-1.142781	-1.212295	1.521556	-0.489978	-1.106201	0.075684	-0.016357	0.078962	0.044558	0.019332	0.143584	-0.528776	-0.190449	-0.814561	23.276814	-66.366803	-175.348925						
44434		7.974923	4.186896	2.701097	0.753975	-2.765862	-0.856962	-1.895478	0.829176	-0.346111	-1.105957	0.071289	-0.022705	0.079932	0.041982	0.026282	0.137958	-0.526461	-0.183028	-0.818723	22.187422	-65.860435	-175.345706						
44435		8.618550	3.361942	3.514518	0.722455	-1.782085	-0.105214	-2.450092	0.085333	-0.188676	-1.105957	0.069092	-0.020264	0.086232	0.033965	0.034694	0.130824	-0.527656	-0.173413	-0.821214	20.965096	-65.784605	-175.544453						
44436		8.975367	2.331237	3.863156	0.438945	-0.817656	0.189992	-2.867025	-0.372153	-0.072431	-1.101563	0.071289	-0.013672	0.089691	0.023832	0.038459	0.122638	-0.531006	-0.162047	-0.822638	19.572610	-65.979194	-175.819070						
44437		8.815669	1.205811	3.826604	0.090031	0.098782	-0.127963	-3.026453	-0.477958	-0.000291	-1.097168	0.071533	-0.004883	0.088065	0.012637	0.038288	0.114221	-0.534831	-0.149863	-0.823681	18.034790	-66.247687	-176.033487						
44438		8.181057	0.150768	3.348823	-0.369230	0.825371	-1.017884	-2.937262	-0.344507	0.030215	-1.099121	0.067139	0.002197	0.081752	0.002013	0.033602	0.106237	-0.537962	-0.137852	-0.824808	16.444260	-66.451147	-176.134826						
44439		7.588488	-0.574228	2.976201	-0.633394	1.319437	-1.773409	-2.607576	-0.119324	0.002980	-1.099365	0.069336	0.002197	0.075867	-0.005352	0.029879	0.099168	-0.539860	-0.127130	-0.826169	14.984344	-66.526642	-176.171856						
44440		7.432265	-0.903661	2.935735	-0.668704	1.564459	-1.952743	-2.047227	0.111304	-0.034427	-1.103760	0.069092	-0.002441	0.074337	-0.008749	0.029407	0.093573	-0.540438	-0.118693	-0.827697	13.816811	-66.470045	-176.178544						
44441		7.531023	-0.889078	3.300590	-0.372529	1.609408	-1.708890	-1.423688	0.296624	-0.083023	-1.101318	0.066895	0.000000	0.075355	-0.008687	0.032956	0.089581	-0.539878	-0.112870	-0.829317	13.011266	-66.302826	-176.189468						
44442		7.546662	-0.704777	3.664067	-0.022300	1.501443	-1.529013	-0.817208	0.434858	-0.149112	-1.099121	0.066895	-0.004639	0.075541	-0.006955	0.036505	0.087014	-0.538417	-0.109675	-0.830968	12.602813	-66.050086	-176.255458						
44443		7.301809	-0.317197	3.928036	0.378185	1.192782	-1.610213	-0.267439	0.509848	-0.224382	-1.103516	0.062500	-0.013184	0.073114	-0.003202	0.039098	0.085667	-0.536354	-0.108931	-0.832538	12.582034	-65.746058	-176.400385						
44444		6.874795	0.165394	4.064523	0.757696	0.780308	-1.898942	0.098835	0.468431	-0.258486	-1.101074	0.062500	-0.022217	0.068845	0.001545	0.040485	0.085125	-0.534286	-0.109821	-0.833806	12.823144	-65.460895	-176.603653						
44445		6.519419	0.545758	4.097386	1.000136	0.449068	-2.171535	0.268643	0.253933	-0.255013	-1.103271	0.057861	-0.015137	0.065253	0.005319	0.040898	0.084944	-0.533036	-0.111500	-0.834401	13.210816	-65.295344	-176.860607						
44446		6.321663	0.724674	3.926684	0.969067	0.257584	-2.403104	0.264629	-0.066600	-0.209698	-1.109863	0.053223	-0.014893	0.063211	0.007128	0.039297	0.084754	-0.533149	-0.113175	-0.834123	13.631466	-65.313540	-177.157365						
44447		6.288307	0.842711	3.701124	0.833464	0.108158	-2.515785	0.279705	-0.475522	-0.149280	-1.103027	0.053467	-0.010498	0.062801	0.008328	0.037172	0.084633	-0.534991	-0.114927	-0.832714	14.111281	-65.566694	-177.508531						
44448		6.429213	1.069025	3.566796	0.762887	-0.119556	-2.423305	0.284806	-0.841797	-0.080611	-1.101074	0.058105	0.002686	0.064145	0.010613	0.035953	0.084583	-0.538396	-0.116670	-0.830279	14.638430	-66.032335	-177.908466						
44449		6.622500	1.366530	3.532896	0.801615	-0.387669	-2.235561	0.188776	-1.038746	-0.013403	-1.098633	0.055908	0.016357	0.066041	0.013627	0.035685	0.084454	-0.542678	-0.117914	-0.827324	15.106971	-66.614778	-178.301788						
44450		6.722548	1.567627	3.358803	0.741875	-0.609059	-2.196272	-0.025793	-1.085889	0.053463	-1.103516	0.060303	0.027344	0.067038	0.015699	0.033950	0.083982	-0.547286	-0.118100	-0.824304	15.402523	-67.234655	-178.639854						
44451		6.899990	1.584478	3.287627	0.693300	-0.639249	-2.064193	-0.380698	-1.004963	0.104263	-1.098877	0.058350	0.034180	0.068825	0.015944	0.033192	0.082800	-0.551706	-0.116651	-0.821679	15.409902	-67.814849	-178.883719						
44452		7.255654	1.575119	3.214347	0.559925	-0.662580	-1.768764	-0.704645	-0.786932	0.116871	-1.101074	0.056152	0.045410	0.072420	0.015907	0.032373	0.080899	-0.555369	-0.113738	-0.819808	15.134794	-68.278522	-179.022996						
44453		7.680984	1.540739	3.250851	0.475725	-0.645936	-1.369010	-0.862978	-0.478426	0.132094	-1.098877	0.056152	0.047852	0.076722	0.015599	0.032625	0.078796	-0.557811	-0.110011	-0.818862	14.627905	-68.572074	-179.009450						
44454		8.005021	1.453987	3.300271	0.406763	-0.585169	-1.061790	-0.808241	-0.162518	0.157500	-1.103271	0.058350	0.054443	0.080012	0.014736	0.033008	0.077107	-0.558950	-0.106310	-0.818735	13.997261	-68.694853	-178.830385						
