// General information: 
//  MT Manager version: 2019.2.0 
//  XDA version: 2019.2.0 build 3853 rev 94535 built on 2019-09-09
// Device information: 
//  DeviceId: 00B40AC7
//  ProductCode: MTW2-3A7G6
//  Firmware Version: 4.3.5
//  Hardware Version: 1.1.0
// Device settings: 
//  Filter Profile: human(46.1)
//  Option Flags: Orientation Smoother Disabled, AHS Disabled, ICC Disabled
// Coordinate system: ENU
PacketCounter	SampleTimeFine	Acc_X	Acc_Y	Acc_Z	FreeAcc_E	FreeAcc_N	FreeAcc_U	Gyr_X	Gyr_Y	Gyr_Z	Mag_X	Mag_Y	Mag_Z	VelInc_X	VelInc_Y	VelInc_Z	Quat_q0	Quat_q1	Quat_q2	Quat_q3	Roll	Pitch	Yaw
61587		11.151273	1.150011	-1.385062	0.320304	-0.126912	1.477645	-0.153995	0.081385	-1.177223	-0.708496	-0.470459	0.307617	0.111572	0.010833	-0.013905	0.382639	0.665522	-0.359602	0.530429	138.497487	-78.878140	-22.147305
61588		12.039625	1.430349	-1.184689	0.440099	-0.422677	2.353977	-0.202327	0.088997	-1.215770	-0.703857	-0.474854	0.307617	0.120475	0.013559	-0.011914	0.386683	0.667096	-0.355891	0.528016	135.661892	-78.438022	-19.370788
61589		11.897615	1.016880	-1.041050	0.968205	-0.280146	2.131070	-0.250204	0.075378	-1.213592	-0.694336	-0.490234	0.301514	0.119031	0.009434	-0.010467	0.390829	0.668581	-0.352339	0.525462	133.049342	-77.969148	-16.845339
61590		11.936599	0.811515	-1.122380	1.251154	-0.043243	2.138528	-0.285438	0.063182	-1.224672	-0.687500	-0.494629	0.299316	0.119409	0.007368	-0.011272	0.395101	0.670022	-0.348843	0.522756	130.609847	-77.467416	-14.513993
61591		12.140166	1.079034	-1.192140	1.161664	-0.034776	2.378145	-0.323138	0.056495	-1.256696	-0.685059	-0.507813	0.299805	0.121463	0.010008	-0.011972	0.399539	0.671435	-0.345347	0.519884	128.307525	-76.930258	-12.339859
61592		12.155636	0.778148	-0.958909	1.667507	-0.030280	2.291061	-0.397155	0.083908	-1.326908	-0.666748	-0.518799	0.291260	0.121600	0.006956	-0.009654	0.404454	0.672719	-0.341728	0.516806	125.984529	-76.350299	-10.184188
61593		12.456888	0.314598	-0.262606	2.581904	-0.372679	2.374770	-0.453441	0.171632	-1.436707	-0.661865	-0.536377	0.291748	0.124585	0.002245	-0.002739	0.409954	0.673814	-0.337699	0.513684	123.519168	-75.728262	-7.908505
61594		12.540649	-0.491100	-0.416756	3.399662	0.221606	2.273359	-0.496544	0.271011	-1.579713	-0.656982	-0.547363	0.283203	0.125357	-0.005912	-0.004324	0.416129	0.674761	-0.333068	0.510490	120.880391	-75.042191	-5.474300
61595		12.774731	-0.253282	-1.437747	2.999778	1.159372	2.636321	-0.492785	0.352027	-1.705524	-0.636230	-0.569092	0.281494	0.127694	-0.003658	-0.014594	0.422694	0.675671	-0.327815	0.507283	118.207886	-74.289811	-2.992934
61596		13.335658	-0.129891	-1.578756	3.174229	1.373238	3.163517	-0.524342	0.408836	-1.859800	-0.633545	-0.582520	0.275391	0.133304	-0.002581	-0.016054	0.429835	0.676555	-0.321968	0.503837	115.520693	-73.442263	-0.507579
61597		13.766125	-0.247964	-1.078655	3.810714	1.135438	3.412795	-0.603845	0.461954	-2.014613	-0.617432	-0.597656	0.271240	0.137601	-0.003899	-0.011094	0.437652	0.677319	-0.315652	0.500064	112.849676	-72.496108	1.927061
61598		13.864843	-0.987752	0.252320	5.238450	0.417594	3.057796	-0.694163	0.539425	-2.203500	-0.596924	-0.615234	0.258545	0.138535	-0.011396	0.002187	0.446334	0.677895	-0.308711	0.495925	110.149275	-71.432046	4.349456
61599		13.575188	-2.672915	1.210324	7.205542	0.420427	2.052783	-0.672389	0.666891	-2.397625	-0.583008	-0.628418	0.247803	0.135458	-0.028314	0.011745	0.455531	0.678407	-0.300727	0.491750	107.455167	-70.253227	6.796611
61600		13.948136	-3.792315	-0.384330	7.896839	2.555896	2.026831	-0.436969	0.783718	-2.637321	-0.564697	-0.648193	0.248291	0.138949	-0.039767	-0.004303	0.464635	0.679395	-0.291034	0.487683	104.915620	-68.924798	9.239238
61601		15.210870	-2.659762	-2.069989	6.994209	3.970797	3.529918	-0.242859	0.781186	-2.907885	-0.548340	-0.665771	0.242188	0.151618	-0.028830	-0.021259	0.473615	0.681102	-0.279891	0.483167	102.705266	-67.412285	11.473404
61602		17.095107	-2.299119	-2.645422	7.508556	4.795079	5.191621	-0.300446	0.762380	-3.122404	-0.518799	-0.683105	0.238281	0.170462	-0.025695	-0.027067	0.483183	0.682842	-0.268135	0.477874	100.710664	-65.747247	13.460294
61603		18.116443	-3.013599	-3.062088	8.729256	5.875157	5.546786	-0.566231	0.741601	-3.244600	-0.496094	-0.698486	0.229980	0.180528	-0.033156	-0.031200	0.493775	0.683977	-0.256572	0.471734	98.827503	-63.986055	15.185048
61604		18.098179	-3.773767	-3.456540	9.595439	6.837414	4.845923	-0.954966	0.686302	-3.296788	-0.475342	-0.718262	0.215088	0.180206	-0.040879	-0.034994	0.505615	0.684138	-0.245813	0.464633	97.004873	-62.168032	16.616496
61605		18.135582	-4.339953	-3.015472	10.655462	6.924447	4.162419	-1.341112	0.635921	-3.332753	-0.452637	-0.729004	0.206543	0.180500	-0.046616	-0.030424	0.518624	0.683274	-0.235872	0.456650	95.212115	-60.307108	17.788148
61606		19.807362	-5.721127	-1.603130	13.511233	6.605217	4.379068	-1.748428	0.670344	-3.403326	-0.431885	-0.755615	0.183105	0.197006	-0.060711	-0.016172	0.533052	0.681107	-0.226458	0.447956	93.323042	-58.390581	18.820253
61607		20.153016	-8.923884	-0.634587	16.977312	7.012195	2.382954	-2.002117	0.808868	-3.407962	-0.404541	-0.770996	0.167969	0.199945	-0.092718	-0.006240	0.548292	0.677702	-0.217128	0.439262	91.332534	-56.457540	19.824305
61608		20.437393	-8.086239	-3.833190	15.742432	9.968193	2.455967	-1.965349	0.905669	-3.440537	-0.379639	-0.784180	0.150635	0.202764	-0.084737	-0.038433	0.563371	0.673929	-0.207273	0.430662	89.436313	-54.490040	20.758780
61609		20.797766	-9.053800	-5.827395	16.391141	12.375953	1.437970	-1.446853	0.931453	-3.472669	-0.354736	-0.797363	0.140137	0.206087	-0.094550	-0.058562	0.576566	0.671343	-0.196018	0.422430	87.953024	-52.487968	21.576289
61610		20.127312	-6.511348	-7.934960	13.736558	13.768003	1.683751	-0.103973	0.713843	-3.510833	-0.332031	-0.805908	0.140381	0.199804	-0.068671	-0.080029	0.584927	0.672878	-0.182386	0.414524	87.484412	-50.462953	22.099048
61611		18.152303	-3.401707	-7.774987	10.636989	12.588231	1.584433	1.091733	0.390047	-3.299856	-0.307617	-0.807861	0.151611	0.180781	-0.036578	-0.078298	0.588342	0.678192	-0.167847	0.407108	87.941840	-48.564191	22.323988
61612		16.217065	-2.303842	-4.747088	9.974476	9.164548	0.547944	1.946337	0.142290	-3.011516	-0.293701	-0.820557	0.171875	0.161770	-0.025012	-0.047823	0.587878	0.686060	-0.153253	0.400293	89.022487	-46.839340	22.372452
61613		14.510857	0.862394	-2.971709	7.624201	6.369747	1.206668	1.909113	0.172859	-2.940686	-0.266846	-0.824707	0.180908	0.145192	0.006773	-0.029772	0.587239	0.693495	-0.138808	0.393633	90.033041	-45.152981	22.492450
61614		10.353954	4.886092	-3.063705	2.499067	4.342587	0.927627	0.759491	0.262392	-2.707781	-0.251221	-0.831299	0.178955	0.104149	0.047570	-0.030591	0.590031	0.697038	-0.127164	0.387080	90.321723	-43.604778	22.705344
61615		2.632728	6.408755	-1.488264	-2.826198	0.412960	-3.327444	-0.415242	0.459062	-2.223020	-0.233154	-0.840088	0.174805	0.027003	0.063759	-0.015077	0.596015	0.696314	-0.118852	0.381821	89.841709	-42.330701	23.064842
61616		5.581458	5.103162	-3.918563	-0.839695	3.944388	-2.310387	-0.849123	0.145645	-1.773146	-0.219727	-0.839844	0.170410	0.056234	0.050367	-0.039441	0.602404	0.694537	-0.113898	0.376504	89.291088	-41.316364	23.160432
61617		8.646970	-1.110879	-8.014646	3.577307	10.228307	-5.035344	0.544552	-0.138891	-1.183574	-0.217529	-0.835449	0.172363	0.086458	-0.011402	-0.080117	0.602632	0.697119	-0.109173	0.372747	89.682001	-40.638233	23.044619
61618		2.764710	-3.345997	-5.570661	1.755702	6.799903	-10.554336	1.272053	-0.225897	-0.516949	-0.221924	-0.837646	0.187988	0.027624	-0.033176	-0.055887	0.599003	0.701657	-0.105711	0.371078	90.525782	-40.344429	22.869852
61619		2.410509	-4.771353	-1.974812	3.735892	3.779881	-11.869820	0.612238	-0.184610	-0.038518	-0.224121	-0.837646	0.179199	0.024114	-0.047657	-0.019872	0.596808	0.703872	-0.104987	0.370625	90.970578	-40.320207	22.729169
61620		2.109095	-6.967657	0.738428	5.899943	1.791596	-13.752550	-0.223871	0.121159	0.503311	-0.230957	-0.835693	0.172363	0.021271	-0.069615	0.007449	0.596700	0.702732	-0.106844	0.372426	90.792147	-40.612410	22.809281
61621		1.442735	-7.077383	1.012715	5.642478	1.369093	-14.226753	-0.336012	0.192854	0.970691	-0.242188	-0.833496	0.167969	0.014780	-0.070686	0.010232	0.596151	0.700864	-0.110298	0.375803	90.513923	-41.169028	22.944715
61622		1.155302	-6.036328	0.697113	4.741990	1.303609	-13.563871	-0.167551	0.079113	1.478048	-0.260010	-0.829346	0.167725	0.012001	-0.060270	0.007017	0.593985	0.699389	-0.115602	0.380361	90.386866	-42.018564	22.989128
61623		1.110859	-5.047361	0.509644	4.085464	1.215316	-12.779286	-0.030120	-0.073594	1.998088	-0.276123	-0.818359	0.165283	0.011610	-0.050359	0.005108	0.590200	0.698271	-0.122854	0.385989	90.420368	-43.162296	22.918495
61624		1.305906	-4.415452	0.171494	3.741036	1.427433	-12.092395	-0.072774	-0.131025	2.421093	-0.298340	-0.816406	0.165039	0.013591	-0.043992	0.001740	0.585651	0.696778	-0.131870	0.392585	90.464688	-44.551446	22.792637
61625		1.673219	-3.802745	0.180208	3.637363	1.364298	-11.295989	-0.033099	-0.135884	2.777234	-0.320801	-0.807861	0.160400	0.017257	-0.037790	0.001820	0.580151	0.695072	-0.141990	0.400173	90.543445	-46.141172	22.659432
61626		2.133250	-3.433208	0.955925	4.021659	0.677466	-10.598484	0.106713	-0.167515	3.115189	-0.345947	-0.792725	0.157715	0.021856	-0.033999	0.009559	0.573367	0.693417	-0.153126	0.408627	90.730984	-47.927056	22.481387
61627		2.817877	-2.857314	1.172223	4.145515	0.486902	-9.578370	0.281231	-0.208362	3.449713	-0.375488	-0.773193	0.156982	0.028654	-0.028098	0.011712	0.565081	0.691925	-0.165080	0.417937	91.069651	-49.900701	22.249823
61628		3.483643	-2.704901	1.376333	4.495443	0.407324	-8.828055	0.487569	-0.240915	3.790585	-0.407227	-0.760010	0.167725	0.035325	-0.026416	0.013741	0.555194	0.690536	-0.177886	0.428108	91.581724	-52.070745	21.942295
61629		3.951053	-2.840699	1.111346	4.711996	0.788544	-8.367816	0.776091	-0.273932	4.149300	-0.434570	-0.736084	0.166992	0.040074	-0.027622	0.011060	0.543248	0.689454	-0.191264	0.439264	92.351173	-54.440529	21.540840
61630		4.738042	-2.690686	0.715676	4.793172	1.244581	-7.430918	1.047116	-0.268106	4.494309	-0.468994	-0.703125	0.177246	0.047960	-0.025871	0.007084	0.529382	0.688392	-0.205188	0.451408	93.365870	-57.007014	21.032796
61631		5.623125	-2.314721	0.361920	4.686883	1.559394	-6.248571	1.229268	-0.248684	4.814822	-0.500977	-0.681396	0.183105	0.056763	-0.021807	0.003553	0.513848	0.687076	-0.219571	0.464408	94.618958	-59.748238	20.392157
61632		6.806833	-1.806753	0.086684	4.540428	1.738993	-4.718136	1.306689	-0.224827	5.126183	-0.535400	-0.650635	0.199951	0.068501	-0.016321	0.000833	0.497044	0.685072	-0.234697	0.478060	96.101660	-62.662983	19.549302
61633		8.056983	-1.315656	0.006816	4.377126	1.670590	-3.128412	1.273660	-0.188461	5.423554	-0.565430	-0.617920	0.201172	0.080887	-0.010966	0.000070	0.479287	0.682079	-0.250597	0.492193	97.840044	-65.733530	18.432872
61634		9.149609	-0.996669	0.032262	4.189733	1.465845	-1.751403	1.189848	-0.156313	5.696034	-0.606689	-0.580811	0.211182	0.091730	-0.007358	0.000345	0.460826	0.677872	-0.267408	0.506578	99.944268	-68.946898	16.887026
61635		10.478573	-1.004337	0.468515	4.392194	0.975380	-0.286217	1.058280	-0.097561	5.964680	-0.637207	-0.532715	0.205322	0.105021	-0.006938	0.004694	0.441774	0.672294	-0.285033	0.521165	102.614774	-72.286950	14.703128
61636		11.723204	-1.066033	0.415034	4.237593	0.850364	1.142581	1.035413	-0.100310	6.207758	-0.667480	-0.486816	0.217529	0.117486	-0.007037	0.004167	0.421781	0.665635	-0.303327	0.535745	106.522760	-75.718941	11.249976
61637		13.543996	-0.551091	0.524634	3.621172	0.232888	3.255913	1.117189	-0.142723	6.474885	-0.700195	-0.440918	0.211670	0.135521	-0.001153	0.005328	0.400260	0.658216	-0.322006	0.550323	113.183112	-79.184124	5.088749
61638		15.589597	-0.185206	0.461320	2.841108	-0.316365	5.517666	1.108339	-0.137673	6.732208	-0.712891	-0.390381	0.221436	0.155838	0.003369	0.004730	0.377667	0.649556	-0.341242	0.564800	126.117883	-82.519645	-7.369628
61639		17.336732	1.490188	0.007313	0.430060	-1.327365	7.528443	1.127380	-0.218716	6.927970	-0.743408	-0.337891	0.224609	0.172712	0.020891	0.000369	0.353821	0.640104	-0.360744	0.578740	156.055070	-84.994644	-36.818230
61640		19.958797	3.377434	-0.313058	-2.300525	-2.802227	10.100682	1.037034	-0.299102	7.056358	-0.756592	-0.276611	0.222900	0.198235	0.040800	-0.002634	0.329363	0.629625	-0.380664	0.591766	-156.596731	-84.832074	-83.744405
61641		22.583981	5.760780	-1.565907	-6.219676	-3.955334	12.348370	0.960501	-0.454605	7.093264	-0.769287	-0.228271	0.223877	0.223641	0.065639	-0.014847	0.304262	0.618669	-0.400638	0.603460	-128.943302	-82.087869	-111.007692
61642		24.615070	8.695323	-3.253107	-11.044878	-5.142732	13.497424	0.824366	-0.546309	7.085496	-0.777588	-0.175781	0.224609	0.242949	0.095731	-0.031482	0.279009	0.606983	-0.420653	0.613821	-117.053867	-78.490122	-122.581485
61643		26.808388	12.172539	-4.090690	-16.055807	-7.461084	14.057224	0.587083	-0.539924	7.024380	-0.783691	-0.123047	0.223389	0.263696	0.131158	-0.039815	0.254346	0.594328	-0.440640	0.622831	-111.027228	-74.683640	-128.424643
61644		28.332324	16.161075	-3.254784	-20.596196	-11.293084	13.042055	0.149503	-0.413549	6.862472	-0.789795	-0.070313	0.224121	0.277624	0.171227	-0.031844	0.231437	0.580339	-0.460836	0.630297	-107.476109	-70.888039	-132.047947
61645		27.796150	19.100409	-2.375470	-23.718680	-13.907784	9.852075	-0.687371	-0.236949	6.456171	-0.799805	-0.031006	0.218750	0.271635	0.199759	-0.024107	0.212402	0.565130	-0.481747	0.635165	-105.466142	-67.301593	-134.616805
61646		22.423542	21.832679	-4.384767	-26.470806	-12.174277	2.415939	-1.187045	-0.412649	5.683485	-0.796387	0.004150	0.220215	0.218009	0.224318	-0.044713	0.196595	0.551258	-0.501805	0.636912	-104.770424	-64.093747	-136.123106
61647		19.279515	29.405104	-8.114283	-33.968329	-11.049223	-4.705938	-1.442662	-0.704287	4.527581	-0.794922	0.026123	0.223877	0.186372	0.297726	-0.082618	0.184312	0.540583	-0.519407	0.635622	-105.057713	-61.483423	-136.726197
61648		17.757995	40.136407	-8.893904	-42.671421	-13.380263	-12.116598	-2.564839	-0.492089	2.948435	-0.795410	0.039307	0.219238	0.171876	0.402745	-0.093671	0.180539	0.532036	-0.535869	0.630228	-106.201558	-59.779919	-137.096952
61649		17.736982	38.503817	-5.338807	-40.013591	-14.759545	-12.380478	-3.060805	-0.021151	0.762088	-0.797363	0.032715	0.221680	0.175909	0.384833	-0.059260	0.186182	0.527250	-0.547477	0.622586	-107.758247	-59.358984	-137.322035
61650		31.875198	21.017033	-3.298924	-30.380227	-14.829757	8.234288	-2.150730	0.083015	-1.531683	-0.799316	0.021729	0.221924	0.320333	0.207349	-0.035362	0.196820	0.529162	-0.549989	0.615436	-109.395291	-60.207204	-136.850736
61651		18.212422	10.230884	5.487901	-12.555779	-14.171559	0.577906	-0.543989	0.971785	-2.893293	-0.793945	-0.004639	0.213623	0.183843	0.099805	0.053715	0.209792	0.533547	-0.542970	0.613595	-109.763522	-61.955783	-136.782791
61652		8.009291	-6.745243	2.949030	4.266826	-2.913187	-0.239651	0.646855	0.852647	-2.824905	-0.798096	-0.015625	0.213867	0.079253	-0.068670	0.028930	0.219019	0.539249	-0.532466	0.614590	-109.560524	-63.646781	-136.591164
61653		4.939423	-27.481520	5.461871	24.018746	3.001432	5.138574	0.204118	0.455779	-1.567192	-0.799805	-0.028809	0.209961	0.047362	-0.275247	0.054228	0.224472	0.542245	-0.527080	0.614629	-109.556955	-64.580440	-136.461853
61654		4.096380	-14.291660	4.823533	12.977530	-0.431015	-1.113101	1.605187	-0.260335	-1.994846	-0.795166	-0.035400	0.223389	0.039471	-0.143697	0.047136	0.225537	0.550086	-0.516962	0.615864	-109.770712	-65.608467	-135.208840
61655		10.754971	-2.112125	1.549474	-0.542996	-3.669446	0.616322	2.751309	-0.556128	-2.329977	-0.794678	-0.050537	0.228027	0.107249	-0.022585	0.015489	0.223651	0.560850	-0.502607	0.618719	-109.900991	-66.756327	-133.340107
61656		14.933228	1.490274	-0.920194	-5.584310	-4.043612	3.548631	2.538209	-0.226394	-2.266695	-0.788086	-0.052734	0.230469	0.149499	0.013323	-0.008857	0.222934	0.570029	-0.488554	0.621838	-109.798199	-67.935552	-131.872181
61657		15.801970	0.080839	-3.482089	-5.625004	-1.402045	5.294308	1.882624	-0.073497	-2.114751	-0.789795	-0.070313	0.237549	0.158032	-0.000535	-0.034764	0.223923	0.577483	-0.476690	0.623810	-109.865506	-69.061216	-130.637340
61658		16.665341	0.469314	-3.053103	-5.647262	-2.087999	6.030692	1.033324	-0.551051	-2.313660	-0.780518	-0.083252	0.249023	0.166777	0.002920	-0.030053	0.226814	0.585851	-0.467336	0.622038	-111.329117	-70.193078	-128.441210
61659		15.882406	4.098676	-3.946854	-8.580449	-2.748648	4.450161	0.485116	-0.918446	-2.827140	-0.780029	-0.098633	0.251465	0.159562	0.038829	-0.038641	0.231996	0.595815	-0.458518	0.617206	-114.256369	-71.483108	-125.045178
61660		13.343875	5.259460	-4.933947	-9.206725	-1.775450	2.109137	0.177020	-0.850203	-3.137483	-0.774902	-0.120361	0.265381	0.134450	0.050534	-0.048724	0.239163	0.605786	-0.449522	0.611354	-117.985901	-72.885364	-121.018401
61661		11.899719	5.306441	-1.732295	-6.985224	-4.071864	0.549424	-0.116270	-0.840587	-3.190796	-0.772217	-0.137695	0.272461	0.119895	0.051146	-0.016850	0.247328	0.615324	-0.441141	0.604649	-122.589980	-74.221968	-116.284834
61662		11.098793	2.818245	0.864601	-3.097086	-4.763862	0.166112	-0.064734	-0.672176	-3.048473	-0.771240	-0.166016	0.284180	0.111370	0.026490	0.009011	0.255223	0.623954	-0.432706	0.598589	-127.500142	-75.433568	-111.233077
61663		7.191656	-0.218882	-1.002290	-0.895000	-0.712074	-2.639089	0.320793	-0.812881	-2.910027	-0.757568	-0.179199	0.293457	0.071915	-0.003219	-0.009735	0.261125	0.633038	-0.423639	0.592964	-133.037102	-76.405414	-105.332570
61664		10.296395	2.303525	0.062149	-2.418257	-3.508885	-0.160849	0.599506	-0.492227	-2.794684	-0.756836	-0.198730	0.302734	0.103270	0.021591	0.000942	0.266436	0.641163	-0.413583	0.588958	-138.467856	-77.322920	-99.400428
61665		11.137927	5.997388	-0.685006	-5.711217	-4.887191	0.384395	0.177189	-0.010256	-2.485106	-0.751953	-0.214111	0.298828	0.112113	0.058590	-0.006792	0.273125	0.646537	-0.405061	0.585934	-143.493424	-78.214806	-94.151549
61666		10.275285	3.561249	-2.852789	-4.597688	-1.545073	0.329907	0.302556	0.090765	-2.139755	-0.751709	-0.227295	0.305664	0.103113	0.034554	-0.028522	0.278578	0.651009	-0.397078	0.583876	-148.217734	-78.947200	-89.151986
61667		9.640068	0.983292	-2.532940	-2.094845	-0.228406	-0.021339	0.206604	0.083231	-1.848410	-0.753418	-0.238037	0.310547	0.096476	0.008968	-0.025360	0.283436	0.654714	-0.390310	0.581955	-152.828654	-79.509161	-84.335007
61668		10.646961	0.963890	-1.672977	-1.452872	-1.014006	0.861775	0.097566	0.088988	-1.642363	-0.748779	-0.244629	0.319336	0.106537	0.008772	-0.016773	0.288090	0.657786	-0.384487	0.580078	-157.389779	-79.954348	-79.643938
61669		10.440891	1.290267	-0.578401	-1.005824	-1.965666	0.489446	0.106004	0.078776	-1.499140	-0.750732	-0.260010	0.311035	0.104499	0.012123	-0.005819	0.292214	0.660593	-0.379110	0.578363	-161.870105	-80.294512	-75.031670
61670		11.692199	2.682122	-0.866141	-2.145802	-2.593731	1.733621	-0.111374	0.124105	-1.388570	-0.750244	-0.273193	0.320068	0.117099	0.026004	-0.008749	0.296846	0.662702	-0.374630	0.576508	-166.387578	-80.581790	-70.515191
61671		11.902809	2.991463	-1.237134	-2.473078	-2.385092	2.034219	-0.565132	0.163324	-1.250488	-0.750000	-0.284180	0.320557	0.119202	0.029134	-0.012552	0.302603	0.663738	-0.371849	0.574118	-170.891874	-80.813227	-66.276049
61672		10.880026	1.312673	-0.946911	-0.865392	-1.469867	1.053952	-0.818934	0.134156	-1.113275	-0.749512	-0.295166	0.316406	0.108865	0.012482	-0.009594	0.308778	0.664184	-0.370267	0.571330	-175.280396	-80.966771	-62.306502
61673		10.562895	1.069069	-1.113194	-0.679668	-1.074071	0.786377	-0.973663	0.107962	-0.978324	-0.751465	-0.306152	0.316650	0.105673	0.010119	-0.011239	0.314980	0.664186	-0.369610	0.568360	-179.362071	-81.053060	-58.735911
61674		10.694366	1.351150	-1.421836	-0.985080	-0.906849	0.977258	-0.929035	0.066782	-0.878080	-0.748779	-0.317139	0.312500	0.106997	0.012975	-0.014315	0.320696	0.664159	-0.369194	0.565458	176.872868	-81.080091	-55.463084
61675		10.477443	1.184256	-1.255217	-0.698280	-0.868597	0.747239	-0.839466	0.025132	-0.778781	-0.750732	-0.328125	0.317139	0.104818	0.011382	-0.012614	0.325708	0.664188	-0.368921	0.562731	173.554019	-81.055366	-52.587401
61676		10.446617	1.917703	-2.074387	-1.673065	-0.491478	0.867720	-0.828793	-0.011319	-0.675731	-0.741455	-0.343262	0.319824	0.104531	0.018738	-0.020816	0.330352	0.664124	-0.368996	0.560044	170.630903	-80.994742	-50.108139
61677		9.863896	1.000819	-2.542820	-1.109960	0.493367	0.350387	-0.888082	-0.043142	-0.550632	-0.750244	-0.341309	0.312988	0.098671	0.009624	-0.025450	0.334739	0.663805	-0.369707	0.557342	168.203241	-80.910606	-48.162152
61678		9.119002	-0.667000	-2.385481	0.390266	1.314354	-0.463276	-0.787658	-0.078290	-0.411271	-0.747803	-0.350098	0.313232	0.091185	-0.006951	-0.023792	0.338361	0.663478	-0.370636	0.554921	166.361954	-80.813391	-46.752977
61679		9.562915	1.138222	-2.401189	-1.083256	0.396820	0.045278	-0.695256	-0.172995	-0.338136	-0.745361	-0.356689	0.313477	0.095669	0.011137	-0.023968	0.341264	0.663423	-0.371720	0.552479	164.963999	-80.667472	-45.737185
61680		9.825909	1.677083	-1.979345	-1.275636	-0.249663	0.266458	-0.641493	-0.213611	-0.273201	-0.740967	-0.358643	0.320068	0.098303	0.016573	-0.019742	0.343755	0.663443	-0.372920	0.550097	163.865349	-80.505700	-44.994632
61681		10.292772	1.395855	-1.855074	-0.877920	-0.268773	0.698629	-0.614798	-0.212391	-0.221519	-0.745117	-0.367432	0.318115	0.102963	0.013788	-0.018484	0.345986	0.663399	-0.374226	0.547859	162.999147	-80.350952	-44.470433
61682		10.114839	0.247339	-1.750312	0.190890	0.212928	0.451468	-0.592489	-0.200479	-0.159782	-0.740234	-0.376221	0.320557	0.101168	0.002341	-0.017409	0.348010	0.663246	-0.375634	0.545796	162.333691	-80.211633	-44.137021
61683		10.023687	-0.039510	-1.835871	0.425327	0.429471	0.359866	-0.553546	-0.204339	-0.166467	-0.740234	-0.382813	0.318604	0.100255	-0.000529	-0.018255	0.349895	0.663170	-0.376934	0.543783	161.704514	-80.068908	-43.817326
61684		10.099942	0.249734	-1.562897	0.337707	0.040848	0.404849	-0.485553	-0.184872	-0.174557	-0.738037	-0.382813	0.322998	0.101016	0.002371	-0.015541	0.351634	0.663172	-0.377970	0.541937	161.064287	-79.934495	-43.447908
61685		10.074935	0.115930	-0.943848	0.763195	-0.435030	0.268821	-0.498731	-0.085441	-0.240824	-0.737793	-0.387207	0.322998	0.100755	0.001015	-0.009398	0.353758	0.662999	-0.378659	0.540283	160.142244	-79.840568	-42.798575
61686		9.726168	-0.482470	-1.160895	1.182760	0.087630	-0.077594	-0.488495	0.036733	-0.359721	-0.735352	-0.391602	0.321045	0.097251	-0.005028	-0.011615	0.356413	0.662740	-0.378691	0.538831	158.734807	-79.785381	-41.650134
61687		9.336110	-1.709588	-1.225525	2.230332	0.776273	-0.538512	-0.471804	0.082841	-0.505815	-0.735107	-0.404541	0.330078	0.093312	-0.017361	-0.012253	0.359474	0.662650	-0.378123	0.537305	156.883889	-79.717936	-40.040915
61688		9.225135	-2.461007	-1.771693	2.693862	1.645169	-0.629297	-0.448843	0.167769	-0.677587	-0.730225	-0.413574	0.317139	0.092152	-0.024962	-0.017739	0.363085	0.662697	-0.376749	0.535782	154.457487	-79.642751	-37.832458
61689		9.007659	-2.027573	-2.162282	2.171018	1.863575	-0.771808	-0.374453	0.212182	-0.877064	-0.727783	-0.422119	0.319580	0.089963	-0.020711	-0.021680	0.367051	0.663113	-0.374444	0.534178	151.511134	-79.520836	-35.051877
61690		9.301362	-1.207585	-2.744002	1.310207	2.039124	-0.345509	-0.208475	0.234617	-1.079023	-0.720703	-0.437500	0.322266	0.092914	-0.012606	-0.027536	0.371053	0.664138	-0.370961	0.532568	148.159150	-79.323627	-31.760813
61691		9.408133	-1.285987	-2.714503	1.496625	2.106894	-0.280889	-0.045246	0.215392	-1.225553	-0.722656	-0.444336	0.313477	0.093971	-0.013442	-0.027243	0.374839	0.665761	-0.366592	0.530912	144.718978	-79.036251	-28.281807
61692		9.826226	-0.201699	-2.773460	0.677633	1.707970	0.232696	0.050059	0.214324	-1.314427	-0.711182	-0.457275	0.309570	0.098216	-0.002656	-0.027840	0.378539	0.667706	-0.361649	0.529233	141.313322	-78.678204	-24.778709
61693		10.338883	0.594680	-2.273360	0.390293	0.943871	0.740480	0.001768	0.257178	-1.374367	-0.708496	-0.470459	0.316406	0.103397	0.005236	-0.022867	0.382606	0.669518	-0.356549	0.527477	137.908932	-78.278167	-21.300320
61694		10.258521	0.491995	-1.863680	0.760616	0.721108	0.572504	-0.120579	0.246210	-1.423076	-0.699219	-0.481445	0.312256	0.102594	0.004179	-0.018766	0.387188	0.671179	-0.351600	0.525339	134.593650	-77.813118	-17.979987
61695		10.649327	1.560165	-1.489620	0.189651	-0.026662	1.051117	-0.179880	0.250070	-1.507032	-0.689941	-0.492188	0.314941	0.106588	0.014785	-0.015043	0.392159	0.672824	-0.346509	0.522925	131.357056	-77.277070	-14.767985
61696		11.221585	0.434487	-0.609657	1.818107	-0.228695	1.283431	-0.148904	0.283931	-1.591681	-0.678223	-0.511963	0.313232	0.112237	0.003447	-0.006259	0.397292	0.674550	-0.340952	0.520474	128.208201	-76.677057	-11.620824
61697		11.483824	-0.576544	-0.898703	2.783572	0.590671	1.363974	-0.099858	0.356095	-1.701459	-0.671387	-0.518555	0.306641	0.114767	-0.006747	-0.009188	0.402629	0.676320	-0.334742	0.518101	125.088294	-76.014784	-8.466116
61698		12.057516	-0.600977	-1.456277	2.861401	1.213477	1.943209	-0.040095	0.410741	-1.843395	-0.664063	-0.536133	0.307129	0.120483	-0.007124	-0.014809	0.408201	0.678254	-0.327748	0.515679	122.020839	-75.261447	-5.320826
61699		12.782796	-0.725435	-1.286384	3.406506	1.256206	2.532061	-0.109428	0.439755	-1.994518	-0.650146	-0.553711	0.294434	0.127718	-0.008536	-0.013140	0.414395	0.680150	-0.320341	0.512888	119.023330	-74.403142	-2.277163
61700		13.452944	0.167027	-0.698064	3.281885	0.494535	3.243892	-0.187161	0.413655	-2.150722	-0.638428	-0.568848	0.301514	0.134522	0.000217	-0.007260	0.421179	0.682125	-0.312612	0.509497	116.209558	-73.418052	0.541615
61701		14.028473	-0.474467	0.255218	4.644187	0.122666	3.434790	-0.238066	0.429057	-2.322877	-0.620117	-0.584229	0.290771	0.140222	-0.006371	0.002258	0.428530	0.684135	-0.304359	0.505655	113.540744	-72.312306	3.194572
61702		14.131627	-1.877803	0.483894	6.220900	0.755683	3.000644	-0.227318	0.500939	-2.523545	-0.606201	-0.601807	0.286865	0.141076	-0.020554	0.004508	0.436407	0.686184	-0.295186	0.501563	110.955716	-71.079882	5.782256
61703		14.718130	-1.993493	-0.614893	6.310241	2.044261	3.490028	-0.012360	0.542030	-2.809455	-0.587891	-0.619385	0.285156	0.146865	-0.022000	-0.006546	0.444231	0.688895	-0.284355	0.497217	108.607955	-69.668652	8.270204
61704		16.586613	-3.084491	-1.468691	7.813494	3.664587	4.757262	0.182997	0.532431	-3.109590	-0.564941	-0.638916	0.283691	0.165320	-0.033404	-0.015157	0.452026	0.692331	-0.271957	0.492331	106.571331	-68.059962	10.567907
61705		18.427616	-3.333202	-2.813745	8.488213	5.432837	6.218680	0.260389	0.497282	-3.403957	-0.540039	-0.654053	0.283936	0.183603	-0.036424	-0.028641	0.460094	0.696241	-0.258359	0.486634	104.822832	-66.257980	12.630000
61706		19.699984	-3.753830	-3.507115	9.461292	6.715949	6.915027	0.065737	0.448635	-3.591510	-0.514893	-0.675781	0.284668	0.196204	-0.041055	-0.035525	0.469098	0.699844	-0.244611	0.479929	103.238610	-64.321976	14.417294
61707		20.770038	-4.242308	-3.642502	10.726373	7.548993	7.233203	-0.416723	0.421095	-3.723918	-0.485107	-0.699951	0.276611	0.206784	-0.046356	-0.036767	0.479904	0.702307	-0.231541	0.472066	101.623692	-62.289002	15.960639
61708		21.376888	-6.141747	-2.789915	13.369364	8.052560	6.275485	-0.992949	0.414287	-3.777267	-0.464600	-0.713135	0.268066	0.212499	-0.065578	-0.028022	0.492681	0.703200	-0.219577	0.463207	99.897802	-60.205955	17.282125
61709		22.768194	-7.788005	-2.817685	15.809590	9.301506	6.012765	-1.532543	0.481285	-3.805273	-0.434814	-0.732910	0.253174	0.226075	-0.082407	-0.028102	0.507287	0.702360	-0.208507	0.453736	98.001294	-58.094034	18.471495
61710		24.414020	-8.240296	-2.855743	17.516638	10.104718	6.406869	-2.030140	0.643676	-3.800106	-0.412109	-0.750488	0.233887	0.242421	-0.087310	-0.028470	0.523572	0.699562	-0.198088	0.444126	95.872733	-55.976968	19.623915
61711		24.398350	-10.839582	-1.828801	20.391789	10.401966	4.043973	-2.512512	0.934170	-3.651962	-0.384521	-0.770508	0.203369	0.241863	-0.113053	-0.018020	0.541241	0.694370	-0.188390	0.435222	93.435593	-53.933935	20.845586
61712		22.110947	-9.247620	-4.850959	17.221955	12.358580	2.374748	-2.589729	1.110286	-3.529549	-0.366211	-0.783691	0.179443	0.219155	-0.096984	-0.048493	0.558807	0.688106	-0.178734	0.426966	91.010308	-51.938622	22.026116
61713		17.758123	-6.231599	-7.242353	12.016446	12.820673	0.077808	-1.743935	0.876706	-3.316807	-0.336670	-0.803467	0.168945	0.176190	-0.065879	-0.072634	0.572549	0.684221	-0.168556	0.419068	89.387887	-50.039215	22.831737
61714		14.419605	-3.142327	-7.989684	7.828138	11.944075	-0.999065	0.555508	0.119192	-3.009953	-0.321045	-0.802979	0.188965	0.143656	-0.033366	-0.080073	0.576976	0.688029	-0.156760	0.411268	89.648005	-48.315747	22.908983
61715		13.586945	-0.238479	-2.362116	7.693572	5.812237	0.049293	1.945474	-0.059715	-2.852540	-0.298828	-0.805176	0.193604	0.135826	-0.004093	-0.023615	0.575999	0.695919	-0.143089	0.404286	90.798041	-46.680509	22.865134
61716		12.212991	2.100009	-2.533947	5.439406	5.009398	0.448807	1.024499	0.097319	-2.801808	-0.278320	-0.815918	0.196045	0.122397	0.019416	-0.025297	0.578064	0.700626	-0.130988	0.397250	91.303921	-45.079352	22.984111
61717		8.983919	2.784382	-3.766511	2.618402	5.142525	-1.485409	-0.177278	0.101983	-2.550042	-0.255859	-0.822510	0.189697	0.090165	0.026662	-0.037735	0.583752	0.701545	-0.122095	0.390077	91.119702	-43.619059	23.106550
61718		1.587303	2.937294	-2.043342	-1.583413	1.498642	-6.561711	-0.820588	0.215772	-1.995129	-0.253418	-0.829102	0.176514	0.016142	0.029129	-0.020571	0.590605	0.699920	-0.116094	0.384474	90.522914	-42.480052	23.292587
61719		-4.335440	4.984123	-2.597517	-7.050545	-0.215917	-9.020857	-1.441143	-0.085764	-1.203996	-0.237793	-0.826904	0.167725	-0.043043	0.049912	-0.026353	0.597870	0.696519	-0.114894	0.379754	89.744748	-41.789351	23.226104
61720		9.763281	-0.253752	-7.219562	4.081674	9.565238	-3.539509	-0.593806	-0.746669	-0.595782	-0.237549	-0.833496	0.163574	0.097893	-0.003042	-0.071822	0.600614	0.696509	-0.116207	0.375012	89.790294	-41.451808	22.646633
61721		1.921225	-6.208957	-5.946943	2.864181	7.614773	-13.192026	0.185025	-0.530747	0.152391	-0.237793	-0.829346	0.158936	0.019417	-0.062020	-0.059475	0.599356	0.697990	-0.117979	0.373716	90.169801	-41.538477	22.238305
61722		0.771955	-10.159346	-2.501250	5.850574	5.104743	-16.867894	-0.373808	-0.255180	0.891982	-0.249023	-0.822754	0.154297	0.008204	-0.101604	-0.024812	0.598821	0.696826	-0.122590	0.375257	90.091846	-42.051398	22.034436
61723		1.838966	-12.848922	0.249134	9.406390	3.500843	-18.046669	-0.849303	-0.075668	1.492157	-0.266846	-0.827393	0.138916	0.019346	-0.128335	0.003044	0.598895	0.693507	-0.129600	0.378915	89.647724	-42.905688	21.975876
61724		1.481432	-11.066761	0.953334	8.442868	2.271993	-16.821875	-0.526368	-0.147607	1.892605	-0.284912	-0.816650	0.140869	0.015853	-0.110495	0.009836	0.597009	0.690955	-0.137642	0.383687	89.420909	-43.992816	21.864200
61725		1.514975	-8.002413	1.269575	6.713694	1.236752	-14.432156	0.016197	-0.366046	2.321581	-0.305176	-0.810059	0.140625	0.016054	-0.079842	0.012718	0.592189	0.690083	-0.146709	0.389326	89.631278	-45.323940	21.582329
61726		2.101952	-5.742520	1.209614	5.655651	0.897676	-12.275098	0.272377	-0.592854	2.803878	-0.332275	-0.799316	0.142334	0.021786	-0.057140	0.012082	0.585296	0.689916	-0.157642	0.395720	90.140095	-46.933459	21.089505
61727		3.110582	-4.416401	0.547884	5.197688	1.423721	-10.472335	0.236673	-0.626240	3.218940	-0.357422	-0.781982	0.144043	0.031794	-0.043662	0.005526	0.577520	0.689239	-0.170083	0.403102	90.691906	-48.774377	20.532227
61728		3.687057	-4.023981	0.790097	5.374307	1.216350	-9.600022	0.364160	-0.542575	3.660846	-0.386719	-0.769043	0.145996	0.037578	-0.039571	0.007930	0.568338	0.688142	-0.183556	0.412018	91.313376	-50.868364	19.986027
61729		4.524043	-4.237813	1.339463	6.202036	0.934431	-8.876288	0.644204	-0.483715	4.093661	-0.418457	-0.751465	0.151855	0.046063	-0.041484	0.013371	0.557104	0.687085	-0.197641	0.422478	92.133227	-53.203681	19.418233
61730		5.633262	-4.139140	2.103179	6.971665	0.394498	-7.686037	0.970905	-0.439780	4.483943	-0.443848	-0.725098	0.162354	0.057197	-0.040217	0.020960	0.543737	0.686086	-0.212223	0.434279	93.209809	-55.760409	18.771575
61731		6.507111	-3.544713	2.037049	6.844863	0.386860	-6.341934	1.285647	-0.457507	4.829814	-0.484619	-0.701416	0.163818	0.065857	-0.033994	0.020299	0.528166	0.685255	-0.227168	0.447057	94.650600	-58.502390	17.937128
61732		7.377227	-2.730913	1.395258	6.215525	0.768812	-4.853667	1.435886	-0.452837	5.168091	-0.521484	-0.666260	0.178223	0.074415	-0.025492	0.013933	0.511020	0.683913	-0.242836	0.460599	96.411988	-61.426952	16.844594
61733		8.484129	-2.343466	0.837953	5.929378	1.171206	-3.360808	1.444507	-0.390235	5.487936	-0.553711	-0.635498	0.188477	0.085426	-0.021156	0.008388	0.492746	0.681585	-0.259164	0.474845	98.479664	-64.515029	15.456581
61734		9.729958	-2.110860	0.549424	5.780130	1.312499	-1.795786	1.384435	-0.316420	5.733839	-0.586182	-0.591797	0.196045	0.097843	-0.018347	0.005515	0.473821	0.677988	-0.276135	0.489464	100.924903	-67.725550	13.642741
61735		11.304397	-1.825606	0.579675	5.668812	1.078238	0.093021	1.295992	-0.245313	5.898925	-0.614258	-0.554443	0.208252	0.113510	-0.014950	0.005832	0.454421	0.673227	-0.293403	0.504164	103.974412	-70.995194	11.181990
61736		12.518524	-1.426595	0.736014	5.211030	0.556185	1.666797	1.313560	-0.192200	6.075498	-0.651123	-0.510986	0.207031	0.125535	-0.010504	0.007403	0.434211	0.667425	-0.310884	0.518995	108.147893	-74.314260	7.592883
61737		13.841576	-1.277990	0.828535	4.805161	0.108819	3.254294	1.463966	-0.170405	6.269875	-0.677246	-0.458252	0.214600	0.138720	-0.008495	0.008331	0.412550	0.660976	-0.328203	0.534038	114.603342	-77.626692	1.809563
61738		15.843536	-0.692111	0.731041	3.877036	-0.471227	5.572104	1.621975	-0.120921	6.473787	-0.703125	-0.416748	0.219971	0.158546	-0.001849	0.007378	0.389520	0.653607	-0.345377	0.549351	125.630700	-80.816463	-8.472908
61739		18.056476	0.243243	0.473704	2.323875	-1.237095	8.055439	1.664881	-0.028462	6.665892	-0.727051	-0.362061	0.218506	0.180350	0.008407	0.004816	0.365477	0.645053	-0.362424	0.564785	146.789125	-83.487765	-28.855702
61740		19.720405	2.551079	-0.606027	-1.161023	-2.080662	9.934130	1.691404	-0.044020	6.819358	-0.742432	-0.302734	0.221436	0.196182	0.032262	-0.005763	0.340528	0.635449	-0.379541	0.579822	-175.604599	-84.492474	-65.690302
61741		21.405148	5.168719	-1.880194	-5.224456	-3.103110	11.431299	1.526975	-0.125105	6.894517	-0.761719	-0.252441	0.224365	0.212109	0.059163	-0.018236	0.315225	0.624954	-0.396978	0.593694	-141.228363	-82.903405	-99.377446
61742		23.157292	7.308342	-3.321632	-9.130191	-3.938617	12.583346	1.404041	-0.241045	6.927942	-0.765381	-0.204102	0.227783	0.228891	0.081274	-0.032388	0.289560	0.613740	-0.414605	0.606285	-123.404525	-79.836504	-116.580166
61743		24.851245	9.949469	-4.422687	-13.416232	-5.444966	13.126277	1.278872	-0.296313	6.839714	-0.778320	-0.151611	0.221924	0.244976	0.108192	-0.043189	0.264098	0.601961	-0.431876	0.617558	-114.402009	-76.314121	-125.024399
61744		26.526847	14.012150	-4.899035	-18.614199	-8.251887	12.750183	1.181528	-0.302277	6.626899	-0.788574	-0.107666	0.220703	0.260500	0.149091	-0.047731	0.239242	0.589803	-0.448335	0.627608	-109.208479	-72.717326	-129.705872
61745		27.002670	17.979381	-4.034853	-22.704580	-11.803989	10.521912	0.641163	-0.177013	6.282559	-0.794189	-0.066162	0.213135	0.264236	0.188283	-0.039518	0.217106	0.576768	-0.464820	0.635725	-105.966625	-69.254311	-132.741543
61746		21.431693	21.901792	-4.941289	-25.893747	-11.916919	2.462312	-0.081564	-0.183841	5.655263	-0.800049	-0.022217	0.220703	0.208057	0.224940	-0.049311	0.198819	0.563893	-0.481401	0.640896	-104.206001	-66.094855	-134.691857
61747		17.383137	23.389777	-6.816204	-27.412053	-9.932181	-3.067243	-0.838504	-0.403081	4.710497	-0.801025	0.008545	0.219971	0.168402	0.237619	-0.068810	0.185044	0.552870	-0.497613	0.642242	-103.778612	-63.420390	-135.692067
61748		16.641501	26.706392	-8.196310	-30.808240	-9.733574	-6.157579	-1.648147	-0.446669	3.602550	-0.801514	0.023682	0.210693	0.161763	0.269320	-0.083812	0.176857	0.543716	-0.513171	0.640117	-104.242448	-61.354137	-136.231399
61749		16.535472	32.738667	-5.718522	-34.518811	-13.642802	-10.204083	-2.614075	-0.224861	2.506834	-0.801758	0.030273	0.210693	0.161308	0.328642	-0.061293	0.175317	0.535621	-0.528450	0.634914	-105.310897	-59.932770	-136.720620
61750		15.770341	31.881455	-2.746930	-32.464579	-14.709646	-11.317356	-3.052422	-0.016056	1.121535	-0.801758	0.030273	0.210693	0.155916	0.319224	-0.032327	0.179848	0.529981	-0.541073	0.627706	-106.773211	-59.312753	-137.049905
61751		17.425305	24.648172	-0.208200	-26.443459	-14.223265	-6.710752	-2.495453	0.185982	-0.540536	-0.801270	0.019531	0.215332	0.174914	0.245957	-0.005316	0.188627	0.528590	-0.547244	0.620915	-108.188710	-59.640337	-137.063070
61752		20.552342	19.589391	1.895636	-22.671155	-15.047559	-1.488687	-1.597592	0.270965	-2.023133	-0.802979	-0.000244	0.215820	0.207516	0.193943	0.017122	0.199847	0.531761	-0.546533	0.615299	-109.503931	-60.789214	-136.599357
61753		22.031487	8.954968	3.202982	-13.657863	-12.977258	5.048353	-0.620809	0.587575	-2.852262	-0.795654	-0.020264	0.203125	0.221655	0.086492	0.031108	0.211838	0.537087	-0.540196	0.612251	-110.304110	-62.440544	-136.090860
61754		9.338703	-10.742290	5.733495	8.465896	-4.458257	2.184182	0.341661	1.023560	-2.273916	-0.802002	-0.031250	0.205566	0.092448	-0.108575	0.056675	0.220626	0.540448	-0.531886	0.613463	-109.908337	-63.868522	-136.311675
61755		3.817759	-25.926914	3.463146	22.223656	4.605917	3.739440	0.529044	0.570892	-1.076093	-0.792969	-0.033447	0.203369	0.036879	-0.259560	0.033839	0.223992	0.542149	-0.526698	0.615216	-109.397849	-64.559282	-136.538688
61756		5.824804	-18.867711	2.134889	15.108503	3.017172	2.721215	1.018947	0.042860	-1.147663	-0.790527	-0.041992	0.208008	0.057168	-0.189113	0.020374	0.224860	0.546194	-0.520361	0.616713	-109.230629	-65.190279	-136.074965
61757		12.582700	-2.224175	-0.125654	-1.891943	-2.698405	2.533264	1.701741	-0.028107	-1.654411	-0.792480	-0.048828	0.201660	0.125638	-0.023270	-0.001434	0.225207	0.552478	-0.510574	0.619164	-108.975499	-66.080853	-135.281447
61758		14.794216	4.893897	-1.241635	-8.840576	-4.961089	2.086297	1.267333	0.020345	-1.876974	-0.790039	-0.055176	0.212891	0.148392	0.047625	-0.012127	0.227546	0.558625	-0.501382	0.620303	-109.035088	-67.103513	-134.421637
61759		17.652378	1.629679	-3.451630	-7.649597	-2.457562	6.361700	0.647800	0.093732	-2.012157	-0.789551	-0.070557	0.210938	0.176660	0.014632	-0.034550	0.232181	0.564103	-0.493602	0.619868	-109.467143	-68.209786	-133.550058
61760		17.928825	0.122075	-3.300553	-6.074488	-1.924740	7.267576	0.338494	-0.153733	-2.165810	-0.782715	-0.076904	0.222168	0.179313	-0.000665	-0.032868	0.237539	0.570313	-0.486562	0.617718	-110.584225	-69.348059	-132.140134
61761		16.245036	3.340378	-3.156939	-7.990707	-2.844788	4.784097	0.237506	-0.502670	-2.544005	-0.777588	-0.098877	0.227295	0.162937	0.031370	-0.031122	0.243458	0.578307	-0.479114	0.613790	-112.658717	-70.597280	-129.784310
61762		16.214020	5.751421	-2.132901	-9.170193	-4.660163	4.140500	-0.021052	-0.369714	-2.917936	-0.777100	-0.114014	0.229736	0.162995	0.055138	-0.021034	0.251557	0.586375	-0.471107	0.609050	-115.257336	-72.042106	-127.050684
61763		13.526990	3.566448	0.190072	-5.336603	-4.949955	2.134747	-0.788627	-0.085054	-2.783186	-0.776611	-0.135986	0.228027	0.135748	0.033785	0.001823	0.262099	0.592155	-0.465391	0.603380	-118.160246	-73.444916	-124.481260
61764		9.053959	1.882747	3.056921	-1.571665	-5.561379	-1.972972	-1.069020	-0.188277	-2.566308	-0.773682	-0.157959	0.239746	0.090744	0.017827	0.030558	0.272540	0.597269	-0.461184	0.596910	-121.676437	-74.668754	-121.458164
61765		8.921397	2.723307	1.637237	-2.768468	-4.574601	-1.996503	-0.771095	-0.395022	-2.536097	-0.770996	-0.168701	0.244385	0.089518	0.026163	0.016447	0.281458	0.603211	-0.456394	0.590443	-125.896294	-75.750818	-117.547888
61766		9.487750	1.412936	-1.211601	-2.772720	-1.583045	-0.686716	-0.256822	-0.512335	-2.304553	-0.770508	-0.188477	0.249268	0.095062	0.013019	-0.011890	0.287846	0.609611	-0.450852	0.585023	-130.308145	-76.611990	-113.152745
61767		10.186646	-0.189515	-2.496104	-1.794394	0.127374	0.521465	0.187555	-0.439480	-1.988547	-0.767822	-0.201660	0.254150	0.101896	-0.002885	-0.024740	0.292066	0.615636	-0.444837	0.581214	-134.318456	-77.284813	-108.922914
61768		8.955730	0.638408	-3.985679	-2.949118	1.362877	-0.542217	0.378689	-0.447061	-1.778768	-0.769775	-0.210205	0.267578	0.089699	0.005662	-0.039645	0.295062	0.621450	-0.438856	0.578051	-138.255007	-77.806472	-104.665927
61769		9.400733	0.961592	-4.370849	-3.298686	1.485069	-0.049777	0.415227	-0.353327	-1.562371	-0.765137	-0.218994	0.274414	0.094156	0.008971	-0.043523	0.297483	0.626511	-0.433293	0.575540	-141.868768	-78.225280	-100.725512
61770		10.125704	0.972977	-3.054940	-2.598733	0.215004	0.483337	0.273774	-0.187059	-1.366591	-0.767090	-0.227539	0.283691	0.101349	0.009079	-0.030442	0.300145	0.630435	-0.428454	0.573492	-145.113120	-78.606692	-97.250282
61771		10.011441	0.891509	-1.351704	-1.610273	-1.173741	0.131102	0.254990	-0.201507	-1.220890	-0.762451	-0.234131	0.288086	0.100180	0.008321	-0.013405	0.302385	0.634017	-0.424154	0.571558	-148.229905	-78.893614	-93.920509
61772		11.098047	1.188817	-0.916707	-1.563865	-1.864199	1.118826	0.197938	-0.223899	-1.138908	-0.766602	-0.242676	0.297119	0.111056	0.011265	-0.009031	0.304568	0.637373	-0.420277	0.569528	-151.373292	-79.115108	-90.603407
61773		11.224464	1.152839	-1.342882	-1.614052	-1.471073	1.338570	-0.061235	-0.207271	-1.035872	-0.764160	-0.251465	0.292969	0.112316	0.010943	-0.013316	0.307254	0.640057	-0.417446	0.567152	-154.466225	-79.278378	-87.487410
61774		10.975350	0.987716	-1.520453	-1.442815	-1.160227	1.156213	-0.287828	-0.172013	-0.973761	-0.768311	-0.260254	0.299805	0.109813	0.009321	-0.015124	0.310607	0.642140	-0.415371	0.564488	-157.579965	-79.418446	-84.487186
61775		10.261424	0.066767	-1.303129	-0.441674	-0.760698	0.493861	-0.383323	-0.147294	-0.861413	-0.768066	-0.271240	0.302246	0.102625	0.000201	-0.012956	0.313940	0.643762	-0.413897	0.561873	-160.444930	-79.515062	-81.793524
61776		10.066565	-0.389039	-1.320167	0.036391	-0.473025	0.336412	-0.376117	-0.150375	-0.799822	-0.756836	-0.277588	0.311523	0.100659	-0.004318	-0.013118	0.317116	0.645257	-0.412578	0.559339	-163.193688	-79.579007	-79.217764
61777		9.858684	-0.143371	-1.431600	-0.161484	-0.428303	0.139884	-0.275453	-0.135789	-0.721342	-0.760742	-0.290771	0.309570	0.098590	-0.001809	-0.014247	0.319720	0.646703	-0.411219	0.557183	-165.637411	-79.613599	-76.890664
61778		9.895454	0.650180	-1.382351	-0.772265	-0.816595	0.136685	-0.180428	-0.080768	-0.680611	-0.758545	-0.292969	0.311768	0.098981	0.006153	-0.013789	0.322051	0.648056	-0.409612	0.555449	-167.901721	-79.659072	-74.692764
61779		9.663155	0.527755	-1.794452	-0.801768	-0.336547	-0.008671	-0.119938	-0.039622	-0.604697	-0.765137	-0.297363	0.314209	0.096650	0.004975	-0.017928	0.324017	0.649228	-0.408034	0.554097	-169.864646	-79.702006	-72.764420
61780		9.236338	0.349610	-2.192238	-0.795953	0.189139	-0.348622	-0.162954	-0.000653	-0.512650	-0.760254	-0.306152	0.316650	0.092372	0.003241	-0.021925	0.325983	0.650032	-0.406785	0.552919	-171.585456	-79.749794	-71.109171
61781		9.240537	0.757672	-2.523017	-1.264656	0.315672	-0.292814	-0.243539	0.028913	-0.474121	-0.760010	-0.314941	0.319092	0.092419	0.007327	-0.025253	0.328123	0.650537	-0.405855	0.551741	-173.208146	-79.800500	-69.599087
61782		9.132211	0.645344	-2.509449	-1.124958	0.400215	-0.395406	-0.336994	0.068968	-0.402496	-0.766602	-0.323730	0.316895	0.091326	0.006227	-0.025137	0.330484	0.650633	-0.405324	0.550608	-174.684594	-79.864344	-68.293658
61783		9.366717	1.285859	-2.372152	-1.584284	-0.019593	-0.194713	-0.397976	0.087831	-0.360157	-0.768555	-0.325928	0.319336	0.093680	0.012643	-0.023788	0.332927	0.650481	-0.405088	0.549488	-176.046189	-79.929469	-67.139234
61784		9.767353	1.117459	-1.957786	-1.191712	-0.342074	0.134448	-0.483332	0.091417	-0.281716	-0.761719	-0.332275	0.326172	0.097680	0.010990	-0.019649	0.335476	0.650016	-0.405311	0.548323	-177.245235	-79.991434	-66.201660
61785		9.800378	0.222140	-1.705761	-0.252344	-0.145333	0.133241	-0.579379	0.070569	-0.195837	-0.761719	-0.332520	0.321533	0.098000	0.002076	-0.017098	0.338018	0.649264	-0.406129	0.547046	-178.206490	-80.034542	-65.559685
61786		9.820346	-0.353675	-1.727220	0.280415	0.141631	0.159715	-0.681892	0.036191	-0.160040	-0.763672	-0.341309	0.319580	0.098197	-0.003674	-0.017278	0.340741	0.648368	-0.407371	0.545493	-179.142230	-80.056071	-65.002915
61787		9.290386	-0.809273	-1.874025	0.616735	0.565342	-0.337557	-0.716114	0.020506	-0.215339	-0.765625	-0.347900	0.317627	0.092893	-0.008260	-0.018720	0.343670	0.647546	-0.408575	0.543729	179.742305	-80.066694	-64.284012
61788		8.782307	-2.185223	-1.877988	1.859433	1.251342	-0.845670	-0.599824	0.024088	-0.417340	-0.763184	-0.356689	0.317871	0.087775	-0.022092	-0.018724	0.346799	0.647329	-0.408772	0.541849	178.005093	-80.074749	-62.866654
61789		8.709748	-3.771082	-2.082840	3.259246	2.137743	-0.911794	-0.329933	0.026847	-0.711892	-0.758789	-0.358887	0.320068	0.086960	-0.038055	-0.020777	0.349829	0.648154	-0.407300	0.540022	175.484049	-80.065124	-60.496194
61790		8.907480	-5.116983	-2.148294	4.537794	2.771498	-0.764579	-0.008772	0.013411	-0.976491	-0.756104	-0.374023	0.327148	0.088822	-0.051605	-0.021487	0.352516	0.650116	-0.404093	0.538322	172.283766	-80.011304	-57.248792
61791		9.330964	-3.465364	-2.069523	3.197102	1.990457	-0.369486	0.310522	-0.009982	-1.220491	-0.751221	-0.389404	0.327637	0.093097	-0.035190	-0.020745	0.354745	0.653163	-0.399286	0.536753	168.576124	-79.887455	-53.299725
61792		10.348512	-1.493079	-1.992154	1.658146	0.995057	0.653858	0.412548	0.013395	-1.355570	-0.744141	-0.400391	0.327881	0.103380	-0.015591	-0.019960	0.357047	0.656583	-0.393681	0.535192	164.585299	-79.711912	-49.000910
61793		10.946890	0.292061	-1.840026	0.311028	0.069260	1.286952	0.279987	0.034319	-1.415988	-0.741699	-0.406738	0.332520	0.109483	0.002171	-0.018416	0.359956	0.659781	-0.388199	0.533312	160.498284	-79.485192	-44.679580
61794		11.674979	1.412049	-2.036572	-0.540839	-0.269870	2.107004	0.079985	0.066697	-1.415930	-0.730225	-0.419922	0.330566	0.116839	0.013302	-0.020399	0.363583	0.662511	-0.383149	0.531115	156.439579	-79.219830	-40.499744
61795		11.573427	0.723147	-1.929658	0.248518	0.029246	1.940014	-0.147462	0.089530	-1.349766	-0.729492	-0.435303	0.324219	0.115771	0.006436	-0.019353	0.367799	0.664596	-0.378886	0.528660	152.625994	-78.931519	-36.698879
61796		10.964611	0.709383	-2.354870	0.121924	0.560759	1.409618	-0.306934	0.078989	-1.300259	-0.720459	-0.446289	0.329102	0.109680	0.006345	-0.023602	0.372398	0.666300	-0.375188	0.525926	149.049049	-78.604666	-33.228619
61797		11.549082	1.708519	-1.652559	-0.241314	-0.488092	1.965791	-0.401252	0.117104	-1.347254	-0.717773	-0.459473	0.327148	0.115593	0.016273	-0.016626	0.377468	0.667776	-0.371515	0.523039	145.476379	-78.241600	-29.813481
61798		11.397433	0.346422	-1.073706	1.328480	-0.301011	1.559053	-0.464312	0.187444	-1.428604	-0.708496	-0.472412	0.325439	0.113985	0.002625	-0.010851	0.383089	0.669074	-0.367560	0.520079	141.787938	-77.838896	-26.312054
61799		11.680591	-0.164350	-0.660248	2.152086	-0.375894	1.681816	-0.347263	0.251140	-1.518972	-0.698975	-0.487793	0.321289	0.116780	-0.002542	-0.006745	0.388631	0.670547	-0.362878	0.517351	138.138507	-77.387160	-22.776413
61800		12.318733	-0.541466	-0.913150	2.667806	0.075024	2.260082	-0.295408	0.320773	-1.637934	-0.687500	-0.500977	0.315186	0.123123	-0.006437	-0.009320	0.394423	0.672120	-0.357479	0.514678	134.437978	-76.867447	-19.151050
61801		12.737883	-1.136691	-1.041648	3.402453	0.550404	2.546383	-0.310219	0.409922	-1.753305	-0.675781	-0.514160	0.306641	0.127251	-0.012499	-0.010659	0.400674	0.673580	-0.351551	0.512018	130.694059	-76.284409	-15.481786
61802		13.367196	-0.512296	-1.417096	3.032044	0.731800	3.272333	-0.480600	0.422799	-1.902809	-0.666504	-0.529541	0.309326	0.133585	-0.006429	-0.014439	0.407889	0.674870	-0.345477	0.508747	126.932372	-75.582663	-11.885454
61803		14.305987	-0.185156	-0.704763	3.478294	0.081560	4.082601	-0.702989	0.566025	-2.059123	-0.659180	-0.547119	0.296387	0.143010	-0.003350	-0.007442	0.416431	0.675531	-0.339130	0.505207	122.973699	-74.799452	-8.204522
61804		14.188398	-1.316640	0.113698	5.003253	0.031339	3.529519	-0.855087	0.705666	-2.243565	-0.645020	-0.571289	0.283691	0.141727	-0.014753	0.000698	0.426149	0.675744	-0.332185	0.501418	118.885007	-73.900385	-4.464692
61805		14.118308	-1.663495	-0.057538	5.464888	0.559043	3.298699	-0.861402	0.830235	-2.468320	-0.631104	-0.591309	0.273193	0.140960	-0.018380	-0.001084	0.436567	0.675885	-0.324194	0.497481	114.836295	-72.851650	-0.751659
61806		15.269892	-3.925495	-0.313320	7.948456	1.976583	3.662290	-0.819984	1.059597	-2.760054	-0.612793	-0.606445	0.264893	0.152119	-0.041372	-0.003773	0.447875	0.675871	-0.314530	0.493637	110.705883	-71.624318	3.093255
61807		16.644856	-2.384895	-3.414868	6.170865	4.551522	5.535834	-0.602933	1.126080	-3.080869	-0.593994	-0.630615	0.256836	0.165858	-0.026512	-0.035006	0.459206	0.676514	-0.303032	0.489521	106.959223	-70.159900	6.695451
61808		18.210512	-2.670412	-3.282163	7.381831	4.982810	6.624223	-0.438612	0.995965	-3.270370	-0.571289	-0.648193	0.246094	0.181469	-0.029748	-0.033663	0.470132	0.677943	-0.290689	0.484633	103.928536	-68.502161	9.667828
61809		19.182083	-3.452840	-3.265100	8.842796	5.722113	6.907213	-0.683184	0.924528	-3.441263	-0.546143	-0.670166	0.235840	0.191034	-0.037933	-0.033410	0.482034	0.679008	-0.278449	0.478599	101.246947	-66.691778	12.147722
61810		19.731005	-3.983533	-2.155491	10.398895	5.334373	6.715700	-0.948041	0.878034	-3.554571	-0.522949	-0.692139	0.225342	0.196463	-0.043436	-0.022218	0.494890	0.679467	-0.266468	0.471597	98.820721	-64.771262	14.214936
61811		20.176273	-6.364991	-1.564974	13.261265	6.068415	5.592020	-1.275339	0.888120	-3.610660	-0.498047	-0.709717	0.208252	0.200498	-0.067379	-0.016120	0.508805	0.678918	-0.254951	0.463883	96.511713	-62.787692	15.977169
61812		21.389185	-7.157315	-1.709607	14.876491	6.960393	5.738165	-1.644708	0.959833	-3.633941	-0.470459	-0.731445	0.195557	0.212459	-0.075585	-0.017507	0.523926	0.677012	-0.243926	0.455693	94.190676	-60.764341	17.543270
61813		22.782019	-8.130213	-2.242277	16.621494	8.300362	5.836836	-1.933293	1.092546	-3.592446	-0.449951	-0.744873	0.169434	0.226184	-0.085594	-0.022848	0.539852	0.673711	-0.233247	0.447514	91.831197	-58.740783	18.995353
61814		22.724974	-11.831450	-3.187227	19.680200	10.594705	3.107374	-1.859365	1.308098	-3.532620	-0.424805	-0.764648	0.154541	0.224899	-0.122599	-0.032222	0.555415	0.669749	-0.221928	0.440111	89.543778	-56.725580	20.441661
61815		20.157731	-10.281566	-6.496835	16.387522	13.017834	0.965477	-1.162206	1.242680	-3.541747	-0.402344	-0.771240	0.139160	0.199304	-0.106739	-0.065599	0.568354	0.667611	-0.209125	0.433055	87.905863	-54.680170	21.621539
61816		18.533879	-4.331066	-8.155059	10.684333	12.903136	2.356182	0.138537	0.822053	-3.528401	-0.379395	-0.786377	0.146240	0.184200	-0.046510	-0.082341	0.576282	0.669816	-0.194691	0.425842	87.460662	-52.642528	22.274090
61817		16.081975	-0.146706	-8.334357	6.391381	11.623199	2.522248	1.792145	0.249929	-3.442123	-0.345703	-0.797119	0.159912	0.160667	-0.003485	-0.083570	0.577725	0.677694	-0.178585	0.418416	88.401904	-50.665792	22.387090
61818		15.009433	-0.185886	-5.474316	7.094569	8.830924	1.454738	2.512313	-0.026187	-3.526687	-0.321289	-0.798828	0.184570	0.150046	-0.003817	-0.054763	0.576403	0.688015	-0.161433	0.410286	89.900335	-48.648225	22.313453
61819		13.234823	0.018408	-2.760287	7.161092	5.931678	0.000644	2.085679	0.113475	-3.364581	-0.300781	-0.811768	0.196045	0.132314	-0.001754	-0.027690	0.576091	0.696396	-0.145217	0.402573	91.012076	-46.720310	22.430188
61820		8.205004	3.944485	-2.412822	1.734950	3.240666	-1.141718	0.995212	0.200624	-2.964319	-0.282715	-0.818115	0.200684	0.082600	0.038343	-0.024018	0.578628	0.700950	-0.132318	0.395412	91.433213	-45.028162	22.643230
61821		1.757130	2.506169	-2.311377	-1.364272	1.876050	-6.758244	-0.427165	0.312433	-2.244886	-0.269531	-0.818115	0.191650	0.017815	0.024813	-0.023195	0.584714	0.700557	-0.124377	0.389692	90.991308	-43.745222	22.929274
61822		5.911213	-1.618890	-4.226068	3.291113	6.006380	-6.894885	-0.366876	-0.057427	-1.797797	-0.255859	-0.822266	0.191895	0.058975	-0.016797	-0.042213	0.589409	0.700707	-0.118984	0.383991	90.802882	-42.718057	22.901696
61823		5.367108	-6.544846	-4.569321	5.849920	7.546886	-10.971076	0.390393	0.068942	-1.051947	-0.251465	-0.824707	0.185303	0.053310	-0.065640	-0.045840	0.590076	0.702362	-0.114339	0.381347	90.986443	-42.115248	22.965551
61824		2.368207	-9.163301	-3.158776	5.934726	6.128435	-14.987007	0.214110	0.113373	-0.219849	-0.251465	-0.822266	0.194092	0.023563	-0.091625	-0.031699	0.589773	0.702925	-0.112857	0.381218	91.054789	-41.994205	23.050934
61825		1.857951	-9.988562	-1.605800	6.713700	4.795096	-15.955578	-0.141663	0.129964	0.397783	-0.253662	-0.824707	0.183105	0.018768	-0.099860	-0.015999	0.589567	0.702056	-0.114136	0.382755	90.914416	-42.222583	23.143635
61826		0.959787	-8.818151	-0.440164	5.894015	3.148875	-15.662422	-0.039948	-0.004283	0.869134	-0.267090	-0.818115	0.187256	0.009981	-0.088140	-0.004384	0.588001	0.701466	-0.117314	0.385275	90.907428	-42.724721	23.123931
61827		0.954119	-6.876515	-0.302378	4.795482	2.499024	-14.176831	0.141104	-0.208431	1.321180	-0.280518	-0.816162	0.178467	0.009998	-0.068698	-0.003062	0.584809	0.701513	-0.122281	0.388491	91.117138	-43.478693	22.939666
61828		1.350642	-5.572522	-0.501407	4.214302	2.450038	-12.872857	0.239528	-0.357400	1.846630	-0.296631	-0.805176	0.184814	0.014029	-0.055591	-0.005056	0.580105	0.701766	-0.129376	0.392764	91.481420	-44.536313	22.615480
61829		1.685682	-5.035866	-0.661475	4.078853	2.557694	-12.149096	0.194610	-0.378325	2.363478	-0.312256	-0.798828	0.182373	0.017463	-0.050148	-0.006631	0.574477	0.701516	-0.138369	0.398378	91.855644	-45.882804	22.249483
61830		2.091739	-4.802863	-0.543529	4.285388	2.506911	-11.569752	0.164029	-0.351663	2.811813	-0.337158	-0.785645	0.181885	0.021599	-0.047724	-0.005437	0.567974	0.700685	-0.148950	0.405290	92.229774	-47.490179	21.865309
61831		2.761918	-4.154493	-0.594805	4.286066	2.533049	-10.485657	0.260393	-0.355922	3.210942	-0.364258	-0.774902	0.186035	0.028292	-0.041087	-0.005952	0.560198	0.699684	-0.160657	0.413292	92.702617	-49.318618	21.436558
61832		3.360335	-3.028315	-0.495777	3.914911	2.219312	-9.138760	0.447563	-0.372931	3.590784	-0.393799	-0.759766	0.187744	0.034149	-0.029662	-0.004961	0.550808	0.698710	-0.173369	0.422326	93.351824	-51.366168	20.924183
61833		3.941434	-2.138242	-0.763019	3.474760	2.271815	-7.954924	0.671117	-0.400256	3.949098	-0.423340	-0.742188	0.191650	0.039841	-0.020573	-0.007621	0.539648	0.697860	-0.186807	0.432289	94.234722	-53.607864	20.299792
61834		4.693582	-1.945526	-0.741378	3.676406	2.291163	-7.056828	0.841407	-0.393846	4.321307	-0.455322	-0.718262	0.201904	0.047356	-0.018404	-0.007400	0.526869	0.696768	-0.201144	0.443244	95.332636	-56.060676	19.542676
61835		5.549453	-2.331841	-0.725162	4.296007	2.508957	-6.348257	0.988810	-0.357977	4.670180	-0.491943	-0.689941	0.203369	0.056031	-0.021978	-0.007263	0.512546	0.695291	-0.216099	0.455157	96.660505	-58.699554	18.642651
61836		6.505965	-2.243292	-0.927298	4.439385	2.724484	-5.221557	1.111517	-0.325702	4.974579	-0.521729	-0.659180	0.211182	0.065605	-0.020754	-0.009285	0.496834	0.693270	-0.231686	0.467819	98.267844	-61.506136	17.520044
61837		7.816459	-1.874352	-1.051349	4.444499	2.743742	-3.614452	1.146862	-0.277834	5.252262	-0.556152	-0.630859	0.214844	0.078634	-0.016622	-0.010504	0.480055	0.690455	-0.247805	0.481053	100.185767	-64.450165	16.108683
61838		9.184778	-1.442349	-0.989576	4.351986	2.484330	-1.920576	1.085526	-0.229359	5.493647	-0.590820	-0.589355	0.218018	0.092208	-0.011840	-0.009859	0.462631	0.686510	-0.264675	0.494595	102.488094	-67.515334	14.263628
61839		10.234021	-0.790631	-1.120307	3.721175	2.176764	-0.431846	1.039774	-0.209636	5.705178	-0.616699	-0.550049	0.228027	0.102521	-0.004925	-0.011126	0.444465	0.681616	-0.282048	0.508231	105.462709	-70.657963	11.721334
61840		11.151579	-0.394784	-1.127839	3.173367	1.773099	0.795507	1.088994	-0.222582	5.911695	-0.648926	-0.515137	0.227051	0.111579	-0.000589	-0.011164	0.425231	0.675924	-0.299856	0.521911	109.664603	-73.854975	7.959767
61841		12.499757	-0.330723	-0.939854	2.977841	1.276722	2.298829	1.145426	-0.240175	6.119163	-0.681641	-0.462402	0.234375	0.125031	0.000572	-0.009253	0.404810	0.669506	-0.317898	0.535566	116.068924	-77.034761	2.027013
61842		14.007340	-0.109905	-0.912189	2.436966	0.740170	3.989340	1.223683	-0.258520	6.323187	-0.700928	-0.418701	0.237793	0.140025	0.003384	-0.008929	0.383194	0.662228	-0.336206	0.549164	126.728186	-80.066529	-8.137185
61843		15.839740	0.351849	-0.761793	1.599095	-0.158817	5.964778	1.214536	-0.255736	6.522954	-0.722656	-0.368164	0.240723	0.158179	0.008726	-0.007373	0.360607	0.653949	-0.354759	0.562548	145.881337	-82.573555	-26.796938
61844		18.137225	1.783048	-1.065980	-0.492374	-1.325265	8.384826	1.164539	-0.285716	6.676889	-0.746582	-0.313477	0.243896	0.180656	0.023931	-0.010274	0.337351	0.644572	-0.373682	0.575399	177.474246	-83.665727	-57.943857
61845		20.690093	3.879441	-1.473462	-3.476820	-2.956791	10.785788	0.951145	-0.362850	6.764101	-0.757080	-0.263184	0.235840	0.205456	0.045828	-0.014154	0.313936	0.634227	-0.393121	0.587074	-150.840977	-82.527044	-89.295290
61846		22.813282	6.279770	-1.957220	-7.025993	-4.805896	12.346491	0.682411	-0.453236	6.820792	-0.771729	-0.219238	0.239014	0.225857	0.070592	-0.018827	0.290625	0.622840	-0.413262	0.597346	-131.722759	-79.837130	-108.235828
61847		24.631825	8.650966	-2.628361	-10.808445	-6.537709	13.179538	0.366420	-0.489731	6.823206	-0.782471	-0.164551	0.242188	0.243239	0.094891	-0.025517	0.267908	0.610393	-0.433867	0.606140	-121.447078	-76.517125	-118.511184
61848		26.576497	12.190165	-2.710391	-15.429156	-9.379523	13.336790	0.134024	-0.432213	6.733432	-0.790527	-0.118408	0.236572	0.261519	0.130773	-0.026450	0.245955	0.596920	-0.454369	0.613793	-115.418354	-72.994943	-124.675260
61849		27.735187	14.887876	-1.557985	-18.645943	-12.568503	12.262977	-0.446021	-0.194394	6.472309	-0.793945	-0.079102	0.233398	0.272358	0.157713	-0.015659	0.226837	0.581971	-0.475036	0.619835	-111.611615	-69.547757	-128.959509
61850		23.432107	17.719191	-3.016542	-21.928109	-11.784525	6.067274	-0.944967	-0.136390	5.876770	-0.801758	-0.037354	0.229980	0.229005	0.183829	-0.030866	0.210908	0.567102	-0.495024	0.623590	-109.417798	-66.360627	-131.907504
61851		18.000050	20.192528	-6.532531	-24.966133	-8.232622	-0.691898	-1.081459	-0.390712	5.024265	-0.807129	-0.009033	0.224854	0.174988	0.206007	-0.066087	0.197255	0.554576	-0.512871	0.624899	-108.489873	-63.565161	-133.611915
61852		17.275814	24.584668	-8.731059	-29.781705	-7.636086	-4.005151	-1.552321	-0.623258	3.999045	-0.805664	0.008789	0.235352	0.168081	0.248554	-0.088704	0.187387	0.544611	-0.529310	0.622989	-108.631704	-61.276138	-134.453170
61853		15.314712	31.328956	-6.808044	-33.927589	-10.544103	-9.978401	-2.470825	-0.472235	2.804494	-0.801514	0.021729	0.226318	0.148909	0.314527	-0.071606	0.184079	0.536267	-0.544974	0.617686	-109.570937	-59.669363	-134.997395
61854		15.103340	31.519960	-3.347976	-32.690649	-12.720098	-11.321645	-2.750876	-0.192915	1.229344	-0.803711	0.023926	0.230713	0.149129	0.315621	-0.037675	0.187091	0.530938	-0.556877	0.610729	-110.913846	-58.969377	-135.266705
61855		17.146301	23.435508	1.534766	-24.938220	-14.600503	-6.578737	-2.298873	0.060322	-0.462110	-0.798828	0.010986	0.233154	0.172008	0.234113	0.012604	0.194741	0.529872	-0.562559	0.604019	-112.340638	-59.228283	-135.135497
61856		18.120378	17.135713	4.148184	-19.077061	-15.090804	-2.920777	-1.549584	0.195412	-1.889604	-0.798340	-0.008789	0.229248	0.182853	0.169948	0.039983	0.205081	0.533079	-0.561982	0.598285	-113.783441	-60.269743	-134.491058
61857		20.063097	11.710836	5.954226	-14.320667	-15.643920	1.380083	-0.767527	0.414335	-2.692629	-0.804199	-0.033203	0.223145	0.202307	0.114618	0.058681	0.216307	0.538583	-0.556605	0.594417	-114.983428	-61.772889	-133.618764
61858		13.372370	5.064000	4.041281	-6.976173	-9.574939	-0.844125	-0.163749	0.729843	-2.809810	-0.797119	-0.050537	0.225830	0.134564	0.048786	0.039882	0.227108	0.544038	-0.548647	0.592817	-115.682125	-63.410124	-132.934742
61859		4.307391	-18.150904	1.897045	15.220729	2.356215	0.881953	0.533733	0.632065	-1.788166	-0.794678	-0.050781	0.212646	0.041507	-0.181934	0.018352	0.232660	0.547668	-0.541441	0.593945	-115.616719	-64.490377	-132.663875
61860		4.051891	-30.451005	3.748221	26.772564	4.900827	4.915540	1.402919	0.283882	-0.842838	-0.792480	-0.054932	0.223877	0.039286	-0.304930	0.035288	0.232082	0.550756	-0.534586	0.597514	-114.943259	-64.999625	-132.516606
61861		8.385470	-10.015244	0.320389	6.432153	0.469805	1.550505	2.682385	-0.153449	-1.396408	-0.787842	-0.057129	0.230469	0.083151	-0.100766	0.001919	0.228412	0.558015	-0.522828	0.602576	-114.308042	-65.690250	-131.521229
61862		15.871441	4.271680	0.348392	-7.711431	-6.697049	3.069328	2.495750	0.008554	-1.761169	-0.787598	-0.063721	0.235107	0.159082	0.041269	0.003998	0.226743	0.565407	-0.510297	0.607041	-113.801946	-66.615724	-130.507768
61863		21.022462	2.980877	-1.440249	-8.463538	-6.125498	8.727480	1.480926	0.344165	-1.949053	-0.782959	-0.074707	0.228760	0.210478	0.027866	-0.014553	0.229314	0.570990	-0.499848	0.609539	-113.592153	-67.717525	-129.811546
61864		19.572212	-0.779545	-0.911435	-4.348282	-4.520027	8.765780	0.878535	-0.041880	-1.997358	-0.780273	-0.089844	0.240234	0.195633	-0.009709	-0.009113	0.232771	0.577115	-0.491453	0.609286	-114.312233	-68.756499	-128.490714
61865		17.225426	4.891614	-1.159632	-8.393973	-5.856193	4.925529	0.366392	-0.581637	-2.606382	-0.775146	-0.109619	0.245117	0.172905	0.046686	-0.011007	0.238185	0.585684	-0.483432	0.605422	-116.607801	-69.961790	-125.810397
61866		17.636410	9.450537	-0.884553	-11.811854	-8.048922	4.215842	-0.244167	-0.492599	-3.126322	-0.770020	-0.129150	0.259033	0.177834	0.091723	-0.008522	0.247142	0.594401	-0.475505	0.599586	-119.883439	-71.409926	-122.484416
61867		16.069303	7.298941	1.548759	-8.120859	-8.687955	3.319143	-1.032003	-0.359880	-2.992302	-0.765137	-0.146729	0.252686	0.161734	0.070654	0.015409	0.258274	0.601262	-0.470074	0.592291	-123.818618	-72.757726	-118.967407
61868		12.803209	1.244393	3.842603	-0.981624	-7.125782	1.522567	-1.371047	-0.242574	-2.808831	-0.760010	-0.168701	0.255615	0.128146	0.010908	0.038503	0.270115	0.606776	-0.465902	0.584634	-128.158681	-73.982483	-115.254345
61869		7.584337	-1.904124	1.741780	1.682793	-2.595518	-2.422856	-0.738095	-0.694145	-2.609351	-0.752686	-0.192627	0.265137	0.075526	-0.019963	0.017753	0.278319	0.613846	-0.461020	0.577228	-133.162451	-74.857605	-110.496034
61870		9.783083	0.269528	-1.690879	-1.772790	-1.014317	-0.093462	-0.133276	-0.806192	-2.461623	-0.745605	-0.203369	0.278564	0.097921	0.001479	-0.016515	0.283955	0.621645	-0.454886	0.570969	-138.292513	-75.515330	-105.265043
61871		9.653748	1.315425	-4.347703	-3.671257	0.920665	0.162194	0.058200	-0.490924	-2.090678	-0.758789	-0.209961	0.285400	0.096774	0.012156	-0.043236	0.288590	0.627868	-0.448878	0.566574	-142.618558	-76.060603	-100.765159
61872		8.845420	2.586522	-5.856462	-5.274488	1.906855	-0.444077	0.102658	-0.335791	-1.846876	-0.742676	-0.227295	0.290283	0.088786	0.025076	-0.058403	0.292738	0.633120	-0.443207	0.563055	-146.570849	-76.519604	-96.632854
61873		9.422634	2.265052	-5.521152	-4.711813	1.655411	0.160091	0.047569	-0.082823	-1.502004	-0.751221	-0.236084	0.297119	0.094416	0.021955	-0.055167	0.296604	0.636753	-0.438413	0.560683	-149.752968	-76.932320	-93.332418
61874		9.232993	1.125123	-2.635878	-2.265022	-0.263718	-0.417965	-0.103127	-0.055102	-1.278767	-0.748779	-0.244873	0.299561	0.092407	0.010647	-0.026339	0.300395	0.639582	-0.434658	0.558364	-152.703558	-77.259047	-90.362588
61875		10.140659	1.408121	-2.136275	-2.177763	-0.984749	0.368949	-0.019444	-0.208945	-1.209438	-0.755371	-0.251465	0.304199	0.101512	0.013465	-0.021258	0.303355	0.642771	-0.431136	0.555826	-155.731992	-77.451446	-87.267309
61876		12.115719	1.813392	-2.530269	-2.569483	-1.207566	2.370047	-0.259362	-0.108710	-1.145875	-0.743896	-0.257813	0.306641	0.121272	0.017407	-0.025260	0.307192	0.645143	-0.428295	0.553161	-158.758288	-77.653779	-84.322645
61877		11.193637	0.125663	-2.054038	-0.743863	-0.622239	1.527088	-0.498989	-0.010879	-1.046985	-0.743652	-0.270996	0.306885	0.111942	0.000619	-0.020536	0.311649	0.646657	-0.426293	0.550439	-161.657270	-77.849673	-81.645704
61878		10.676055	-0.624365	-0.677069	0.630377	-1.324548	0.802093	-0.621744	0.152528	-1.000798	-0.745361	-0.286377	0.309570	0.106722	-0.006799	-0.006832	0.316784	0.647399	-0.424485	0.548028	-164.498546	-78.104687	-79.106479
61879		10.744715	-1.442663	-0.090863	1.710990	-1.421436	0.798128	-0.891608	0.465547	-0.968328	-0.744873	-0.297363	0.303223	0.107373	-0.014951	-0.001093	0.323284	0.646770	-0.423033	0.546095	-167.296913	-78.497108	-76.767455
61880		9.756537	-0.816062	-1.445037	0.591185	-0.220926	0.063782	-1.040568	0.608716	-0.921026	-0.746826	-0.308350	0.305664	0.097482	-0.008686	-0.014703	0.330490	0.645363	-0.421862	0.544349	-170.177812	-78.946107	-74.439253
61881		9.711604	0.467307	-2.209562	-0.825107	0.014146	0.123790	-0.922209	0.573539	-0.863036	-0.750977	-0.317383	0.292480	0.097071	0.004151	-0.022394	0.336997	0.644103	-0.420616	0.542814	-173.008905	-79.341915	-72.091611
61882		9.446323	1.397594	-2.783373	-1.855614	0.278639	-0.044809	-0.847392	0.486629	-0.782786	-0.752930	-0.323975	0.290527	0.094448	0.013488	-0.028121	0.342906	0.643000	-0.419529	0.541259	-175.789726	-79.665651	-69.757710
61883		8.872162	0.914504	-3.258150	-1.581728	1.083573	-0.512669	-0.784314	0.406854	-0.698398	-0.750244	-0.341553	0.284180	0.088686	0.008707	-0.032797	0.348146	0.642029	-0.418689	0.539715	-178.394456	-79.917069	-67.564705
61884		8.320662	-0.353831	-3.562070	-0.519322	2.027280	-0.999809	-0.707663	0.289833	-0.636402	-0.754639	-0.345947	0.286621	0.083143	-0.003929	-0.035728	0.352779	0.641350	-0.418009	0.538038	179.101620	-80.087425	-65.434777
61885		8.538842	-0.027944	-3.170798	-0.587553	1.559073	-0.857791	-0.557370	0.227058	-0.635497	-0.756592	-0.354736	0.286865	0.085351	-0.000639	-0.031803	0.356727	0.641099	-0.417054	0.536474	176.658939	-80.202179	-63.276657
61886		9.366413	0.584655	-2.294828	-0.688992	0.447038	-0.186538	-0.546401	0.254638	-0.588709	-0.749512	-0.361328	0.282471	0.093651	0.005508	-0.023083	0.360615	0.640680	-0.416138	0.535084	174.285583	-80.321479	-61.185986
61887		9.712401	0.808459	-1.993520	-0.699433	0.086086	0.110084	-0.571823	0.245201	-0.568999	-0.753662	-0.374512	0.282959	0.097122	0.007751	-0.020077	0.364456	0.640192	-0.415387	0.533647	171.950743	-80.420055	-59.147106
61888		9.772507	-0.044038	-1.384889	0.372176	-0.096653	0.050048	-0.606496	0.215864	-0.534314	-0.749023	-0.378906	0.276367	0.097708	-0.000744	-0.013952	0.368295	0.639633	-0.414862	0.532088	169.654839	-80.493017	-57.170921
61889		9.797565	-0.464645	-1.216787	0.873908	-0.051831	0.032212	-0.593796	0.187297	-0.532998	-0.746582	-0.383301	0.276611	0.097951	-0.004944	-0.012245	0.371978	0.639162	-0.414377	0.530468	167.396241	-80.535550	-55.222963
61890		9.764508	-0.090305	-1.052200	0.635301	-0.302599	-0.016494	-0.486162	0.160409	-0.555054	-0.750977	-0.392090	0.276611	0.097634	-0.001200	-0.010598	0.375356	0.638997	-0.413556	0.528925	165.100709	-80.548469	-53.177480
61891		9.699609	-0.151252	-0.842577	0.813081	-0.428542	-0.118867	-0.354631	0.120191	-0.604832	-0.748291	-0.400879	0.279053	0.096986	-0.001821	-0.008481	0.378316	0.639281	-0.412321	0.527436	162.787671	-80.516882	-51.035512
61892		9.689062	-0.230143	-0.893959	0.923542	-0.317290	-0.128883	-0.168526	0.079109	-0.682825	-0.748291	-0.405273	0.277100	0.096878	-0.002640	-0.008976	0.380830	0.640181	-0.410395	0.526035	160.366237	-80.434593	-48.676486
61893		9.867246	-0.559778	-1.070295	1.249274	-0.021646	0.049349	-0.036759	0.051392	-0.775804	-0.736816	-0.411865	0.279541	0.098647	-0.005982	-0.010727	0.383071	0.641584	-0.407896	0.524641	157.838728	-80.301588	-46.131219
61894		10.018879	-1.102129	-1.020114	1.860542	0.151894	0.144619	0.105536	0.023078	-0.865836	-0.734375	-0.420654	0.277588	0.100139	-0.011449	-0.010219	0.385055	0.643511	-0.404757	0.523256	155.209674	-80.113757	-43.399659
61895		10.105242	-0.050941	-1.539408	0.794433	0.259365	0.375008	0.248347	-0.010341	-0.969785	-0.731934	-0.429443	0.280029	0.101049	-0.000980	-0.015390	0.386748	0.645992	-0.400991	0.521850	152.544205	-79.861783	-40.545502
61896		10.586706	0.412987	-1.450585	0.558322	-0.015416	0.866271	0.316227	0.006468	-1.069688	-0.724854	-0.440186	0.280273	0.105887	0.003587	-0.014503	0.388533	0.648745	-0.396657	0.520418	149.737910	-79.566601	-37.507230
61897		10.680751	-0.146655	-1.345008	1.228361	0.140220	0.882136	0.179333	0.101379	-1.146343	-0.726807	-0.448975	0.280518	0.106790	-0.002067	-0.013506	0.391109	0.651113	-0.392257	0.518864	146.692735	-79.267996	-34.301870
61898		10.621096	-0.079341	-2.201165	0.949032	0.965828	0.949482	0.054200	0.158083	-1.188240	-0.717773	-0.455566	0.280518	0.106186	-0.001418	-0.022096	0.394330	0.653149	-0.387900	0.517141	143.534284	-78.950084	-31.052379
61899		10.864711	0.456115	-2.509664	0.496628	1.082896	1.283600	-0.011082	0.172771	-1.222185	-0.710693	-0.468750	0.278809	0.108651	0.003896	-0.025191	0.397834	0.655059	-0.383578	0.515261	140.446436	-78.594869	-27.907792
61900		10.976157	0.321219	-2.403324	0.796419	1.099378	1.345744	-0.084396	0.193020	-1.256605	-0.705811	-0.481689	0.283447	0.109756	0.002512	-0.024140	0.401719	0.656812	-0.379257	0.513210	137.387227	-78.201865	-24.832538
61901		11.162234	0.282611	-1.849975	1.194706	0.669678	1.422078	-0.142102	0.234763	-1.339625	-0.700928	-0.490723	0.272705	0.111616	0.002065	-0.018632	0.406040	0.658469	-0.374731	0.511006	134.285119	-77.761639	-21.741194
61902		11.078308	-0.334988	-1.404286	2.033900	0.596404	1.156291	-0.189562	0.304703	-1.416457	-0.696289	-0.501465	0.277344	0.110734	-0.004148	-0.014208	0.410851	0.659963	-0.369894	0.508752	131.100173	-77.280019	-18.588912
61903		11.568316	-0.365557	-1.313324	2.334100	0.590771	1.584005	-0.203727	0.371750	-1.506519	-0.684570	-0.519043	0.269043	0.115627	-0.004540	-0.013344	0.416011	0.661386	-0.364655	0.506488	127.896440	-76.747526	-15.417929
61904		12.199910	-0.292432	-1.559490	2.468901	0.869269	2.208153	-0.212058	0.454178	-1.625840	-0.675293	-0.530029	0.264893	0.121934	-0.003932	-0.015868	0.421648	0.662755	-0.358830	0.504192	124.612486	-76.146588	-12.163357
61905		12.669778	0.171236	-2.152261	2.116249	1.350623	2.791966	-0.268017	0.498370	-1.789775	-0.667969	-0.547607	0.263184	0.126652	0.000550	-0.021840	0.427905	0.664137	-0.352498	0.501563	121.315384	-75.439702	-8.917718
61906		13.217965	0.118688	-1.879763	2.596570	1.254462	3.223423	-0.343049	0.503404	-1.944993	-0.656494	-0.560791	0.250244	0.132135	-0.000131	-0.019131	0.434793	0.665552	-0.345779	0.498430	118.112890	-74.611123	-5.804946
61907		13.687997	-0.915838	-0.389350	4.404977	0.431153	3.177863	-0.408859	0.544471	-2.112320	-0.640381	-0.576172	0.248535	0.136762	-0.010612	-0.004245	0.442313	0.666938	-0.338554	0.494908	114.999104	-73.666226	-2.808539
61908		13.643992	-1.388342	0.227375	5.270591	0.224223	2.848258	-0.410796	0.608879	-2.304998	-0.626465	-0.589355	0.249023	0.136274	-0.015450	0.001889	0.450394	0.668390	-0.330492	0.491096	111.970653	-72.590421	0.110754
61909		13.869810	-2.153702	0.046697	6.202562	0.878917	2.747441	-0.287467	0.650340	-2.536903	-0.605957	-0.608887	0.238525	0.138411	-0.023294	0.000049	0.458600	0.670301	-0.321216	0.487034	109.171263	-71.358813	2.884305
61910		14.878574	-2.719216	-1.072707	6.904697	2.373039	3.476192	-0.135699	0.692296	-2.832130	-0.598389	-0.633057	0.234619	0.148342	-0.029302	-0.011222	0.467014	0.672799	-0.310413	0.482580	106.600765	-69.933174	5.527887
61911		16.559900	-2.767419	-1.803947	7.597938	3.393861	4.879891	-0.028113	0.670689	-3.133406	-0.568848	-0.652832	0.221924	0.165077	-0.030266	-0.018590	0.475631	0.675913	-0.298325	0.477409	104.364240	-68.304059	7.907265
61912		18.728202	-4.187901	-2.349143	9.818195	4.852777	6.119005	-0.036456	0.695619	-3.398312	-0.541504	-0.667969	0.226807	0.186451	-0.045056	-0.024133	0.484834	0.679145	-0.285215	0.471540	102.332557	-66.498927	10.085793
61913		19.633825	-4.351468	-3.441377	10.370140	6.340558	6.572591	-0.220490	0.677687	-3.563572	-0.518555	-0.689941	0.216553	0.195403	-0.047040	-0.035026	0.494852	0.682004	-0.271936	0.464805	100.488021	-64.572987	11.976401
61914		20.432769	-4.100683	-3.520482	10.968521	6.750101	6.943871	-0.614975	0.619118	-3.668761	-0.493652	-0.702881	0.210205	0.203418	-0.044853	-0.035702	0.506225	0.683922	-0.259268	0.456910	98.729010	-62.557966	13.548110
61915		21.081324	-6.094150	-2.941136	13.626651	7.318416	6.027276	-1.143351	0.620093	-3.747802	-0.468506	-0.725098	0.193115	0.209528	-0.065045	-0.029698	0.519382	0.684357	-0.247436	0.447965	96.893027	-60.477735	14.894642
61916		22.356408	-7.366128	-2.853301	15.832620	8.126242	5.853451	-1.737807	0.720355	-3.788557	-0.438721	-0.744629	0.178223	0.222009	-0.078126	-0.028669	0.534582	0.682775	-0.236442	0.438333	94.830404	-58.359968	16.134315
61917		23.844166	-8.045393	-1.876989	18.013793	7.928248	5.978419	-2.170365	0.957437	-3.779110	-0.416016	-0.762451	0.156738	0.236772	-0.085144	-0.018999	0.551253	0.679196	-0.225673	0.428818	92.523342	-56.233395	17.401288
61918		22.694708	-9.865551	-3.117188	18.925985	9.677956	3.231778	-2.555424	1.216439	-3.649271	-0.379639	-0.777832	0.135010	0.224902	-0.103171	-0.031245	0.568974	0.673487	-0.215363	0.419885	89.993346	-54.159056	18.698650
61919		20.920375	-9.777020	-6.576509	17.208860	12.786170	0.994449	-1.943238	1.123860	-3.533610	-0.363770	-0.791016	0.115479	0.207055	-0.102082	-0.065955	0.584002	0.669280	-0.204294	0.411424	88.071884	-52.123105	19.711950
61920		17.410276	-5.669846	-9.122831	11.614500	13.690526	-0.008021	0.184915	0.562536	-3.336790	-0.334473	-0.799561	0.124756	0.172868	-0.059505	-0.091770	0.590731	0.671978	-0.191107	0.403684	87.864800	-50.203212	20.112587
61921		15.440216	-0.773648	-6.490817	7.898283	9.776691	1.284788	2.393902	0.033392	-3.119606	-0.316406	-0.805664	0.146973	0.154254	-0.009365	-0.065040	0.588884	0.681854	-0.175654	0.396782	89.271260	-48.415225	20.070663
61922		14.485086	0.867331	-2.363428	7.774461	5.371272	1.450045	2.313711	0.197065	-3.184966	-0.285156	-0.812012	0.160645	0.144944	0.006639	-0.023692	0.587352	0.690952	-0.159627	0.390028	90.482946	-46.593493	20.226553
61923		12.188632	1.570410	-3.964349	5.516657	6.254273	0.045650	1.164414	0.286704	-3.019771	-0.267090	-0.816162	0.163086	0.122050	0.014093	-0.039733	0.589351	0.696154	-0.146056	0.383018	90.964007	-44.864736	20.490614
61924		5.416668	5.236107	-2.640663	-0.706216	2.471873	-2.255002	-0.000297	0.339236	-2.463541	-0.253662	-0.822754	0.160889	0.054761	0.051689	-0.026499	0.594262	0.697254	-0.136519	0.376898	90.757877	-43.459643	20.784647
61925		-3.175490	3.275522	-0.653594	-4.485340	-1.033104	-9.580432	-1.273668	0.322878	-1.603257	-0.239990	-0.831543	0.143555	-0.031502	0.032966	-0.006694	0.601894	0.693940	-0.132358	0.372359	89.855606	-42.541292	21.041891
61926		6.963262	-1.677912	-4.625827	4.230053	6.563090	-6.387445	-0.532424	-0.280710	-1.069171	-0.233154	-0.833740	0.145752	0.069606	-0.017274	-0.046115	0.605527	0.693561	-0.130529	0.367794	89.701939	-41.932385	20.815021
61927		3.513070	-6.078316	-5.112646	4.443200	7.130309	-12.013453	0.270849	-0.179757	-0.449757	-0.237793	-0.827148	0.143555	0.035040	-0.060793	-0.051177	0.605277	0.695025	-0.129010	0.365973	89.954453	-41.674257	20.673434
61928		0.843760	-8.020524	-3.207628	4.463948	5.097717	-15.236338	-0.183177	0.025942	0.338215	-0.242188	-0.829590	0.139160	0.008569	-0.080220	-0.032004	0.605296	0.694214	-0.130491	0.366956	89.840056	-41.871573	20.687113
61929		1.247421	-10.282295	-1.227304	6.911492	3.858127	-16.604812	-0.617559	0.144694	0.965324	-0.250977	-0.831787	0.130127	0.012962	-0.102798	-0.011965	0.605735	0.691460	-0.134530	0.369959	89.412483	-42.423370	20.801391
61930		0.929626	-9.019643	0.184479	6.470835	2.143400	-15.794741	-0.371512	0.026723	1.360838	-0.266846	-0.827637	0.130127	0.009910	-0.090127	0.002011	0.604497	0.689357	-0.139894	0.373898	89.179825	-43.206490	20.827936
61931		0.894419	-6.568170	0.318691	4.989007	1.458850	-13.938561	0.093683	-0.192932	1.770163	-0.284912	-0.816895	0.125244	0.009522	-0.065601	0.003165	0.600689	0.688757	-0.146393	0.378623	89.331244	-44.221342	20.690775
61932		1.224740	-4.899323	-0.014116	4.058785	1.493178	-12.420201	0.351959	-0.374616	2.269309	-0.296143	-0.810303	0.129639	0.012803	-0.048850	-0.000204	0.594861	0.688815	-0.154716	0.384365	89.738882	-45.527120	20.395374
61933		1.656369	-3.964628	-0.333145	3.648889	1.698154	-11.353303	0.424058	-0.411360	2.746966	-0.327881	-0.797119	0.135742	0.017113	-0.039407	-0.003380	0.587727	0.688697	-0.164564	0.391398	90.233044	-47.100327	20.052139
61934		2.225548	-3.567674	-0.369603	3.755371	1.783465	-10.542663	0.470299	-0.352990	3.183357	-0.354980	-0.788574	0.139893	0.022826	-0.035308	-0.003739	0.579515	0.688051	-0.175684	0.399855	90.746204	-48.926206	19.718869
61935		2.872966	-3.254177	-0.249099	3.982248	1.741728	-9.704520	0.603447	-0.310825	3.561648	-0.382324	-0.769043	0.139160	0.029307	-0.032016	-0.002543	0.569932	0.687201	-0.187596	0.409560	91.353318	-50.962496	19.381360
61936		3.500987	-3.058730	0.346468	4.400822	1.262255	-8.935452	0.791361	-0.293833	3.928677	-0.411865	-0.751465	0.149902	0.035597	-0.029905	0.003397	0.558798	0.686210	-0.200341	0.420386	92.109273	-53.210974	18.989513
61937		4.228816	-2.644950	0.212706	4.401000	1.396217	-7.914825	1.029168	-0.308045	4.308097	-0.445801	-0.731934	0.157959	0.042842	-0.025541	0.002060	0.545748	0.685271	-0.213762	0.432283	93.108271	-55.667919	18.490200
61938		4.830168	-2.566686	0.174877	4.550988	1.486394	-7.162645	1.258544	-0.293131	4.680942	-0.482422	-0.701172	0.170410	0.048882	-0.024538	0.001663	0.530867	0.684105	-0.227882	0.445253	94.355062	-58.337001	17.855306
61939		5.886313	-2.506343	-0.226083	4.733394	1.959959	-5.975192	1.423248	-0.244745	4.996610	-0.516846	-0.672852	0.176270	0.059467	-0.023566	-0.002360	0.514400	0.682526	-0.242368	0.459140	95.853100	-61.175151	17.069041
61940		7.299802	-2.273059	-0.478013	4.873547	2.224439	-4.338323	1.484641	-0.179336	5.290136	-0.551270	-0.642090	0.188477	0.073569	-0.020754	-0.004873	0.496789	0.680061	-0.257441	0.473752	97.588076	-64.177638	16.067870
61941		8.747028	-1.984332	-0.544828	4.894250	2.218150	-2.612001	1.449602	-0.131280	5.525649	-0.581543	-0.600586	0.191895	0.087977	-0.017377	-0.005523	0.478384	0.676605	-0.273006	0.488694	99.642951	-67.295773	14.728903
61942		9.875360	-1.455544	-0.574514	4.445369	1.959736	-1.075330	1.406397	-0.109685	5.737753	-0.616211	-0.563477	0.199707	0.099119	-0.011674	-0.005780	0.459269	0.672076	-0.289179	0.503748	102.223732	-70.516127	12.820266
61943		11.214037	-1.165573	-0.368826	4.209755	1.509308	0.541595	1.391064	-0.088293	5.944138	-0.648682	-0.521973	0.205078	0.112422	-0.008291	-0.003704	0.439265	0.666607	-0.305705	0.518869	105.739452	-73.808547	9.968853
61944		12.907555	-1.150992	-0.237927	4.099590	1.161635	2.425657	1.371376	-0.074032	6.143881	-0.681152	-0.478027	0.210449	0.129348	-0.007522	-0.002392	0.418457	0.660045	-0.322689	0.533954	110.953681	-77.143243	5.388402
61945		14.646050	-0.851642	-0.561512	3.339062	0.976035	4.448161	1.434945	-0.094319	6.351820	-0.702637	-0.429932	0.213623	0.146634	-0.003821	-0.005585	0.396375	0.652723	-0.339832	0.548957	119.919889	-80.413550	-2.907170
61946		16.925381	-0.810737	-0.777480	2.688083	0.661985	6.919353	1.397540	-0.055993	6.563724	-0.729004	-0.375244	0.216553	0.169399	-0.002495	-0.007758	0.373528	0.644068	-0.357385	0.563852	137.443452	-83.366165	-19.799732
61947		19.641834	0.519215	-1.385864	0.453782	-0.110945	9.875462	1.411909	-0.103862	6.736172	-0.748291	-0.324707	0.219727	0.196100	0.011898	-0.013689	0.349570	0.634602	-0.375063	0.578281	173.497591	-84.989046	-55.209683
61948		22.414503	3.050186	-1.928847	-3.148119	-1.760668	12.597505	1.266340	-0.224195	6.847276	-0.763428	-0.267822	0.222656	0.222945	0.038270	-0.018812	0.325181	0.624170	-0.393332	0.591573	-146.144926	-83.875737	-95.021903
61949		24.291004	6.235082	-2.747884	-7.710467	-3.626496	13.927999	1.079686	-0.380845	6.869777	-0.778564	-0.215332	0.218994	0.240626	0.070789	-0.026652	0.300532	0.613185	-0.411941	0.603315	-125.419216	-80.927870	-115.293636
61950		25.327250	9.821060	-3.590054	-12.672210	-5.681952	13.801892	0.954993	-0.499612	6.766112	-0.784424	-0.164795	0.217773	0.249842	0.106871	-0.034777	0.275945	0.601824	-0.430340	0.613571	-115.810399	-77.428242	-124.512669
61951		27.406690	14.132034	-3.408187	-17.841841	-9.190576	13.836943	0.930252	-0.481406	6.560020	-0.794922	-0.118652	0.220947	0.269313	0.150361	-0.032744	0.251819	0.590159	-0.447634	0.622835	-110.495276	-73.860668	-129.443108
61952		27.786377	17.836727	-2.752718	-21.921772	-12.379991	11.719210	0.438730	-0.192643	6.244209	-0.796387	-0.068359	0.217529	0.272141	0.186984	-0.026859	0.230485	0.577041	-0.464733	0.630812	-106.995928	-70.430630	-132.851904
61953		21.058839	22.585112	-4.777961	-26.248679	-11.660823	2.482877	-0.026938	-0.289358	5.551685	-0.804199	-0.035400	0.214355	0.204282	0.231574	-0.047512	0.212275	0.564820	-0.480971	0.636069	-105.145694	-67.327942	-134.848011
61954		17.071367	24.162655	-7.016909	-28.070940	-9.474481	-2.985309	-0.703226	-0.559044	4.669628	-0.800537	-0.006836	0.213623	0.165212	0.245279	-0.070560	0.197973	0.554465	-0.496856	0.637580	-104.696890	-64.656887	-135.777966
61955		16.522615	25.706543	-8.647877	-30.265614	-8.366062	-5.067669	-1.683262	-0.527039	3.680450	-0.807861	0.012695	0.213135	0.160699	0.259313	-0.088228	0.189539	0.545239	-0.512826	0.635451	-105.155890	-62.541787	-136.338991
61956		14.884129	30.297495	-6.142309	-32.410450	-11.254046	-9.685182	-2.556308	-0.250538	2.530975	-0.799316	0.021729	0.217529	0.145078	0.304010	-0.065121	0.187770	0.537048	-0.527997	0.630508	-106.150022	-61.105518	-136.870530
61957		14.846562	29.897213	-3.212714	-30.980177	-12.824182	-10.346650	-2.884202	-0.042144	1.026437	-0.808105	0.019531	0.219727	0.146938	0.299224	-0.036410	0.192128	0.531719	-0.539806	0.623675	-107.539254	-60.535870	-137.168729
61958		18.812845	20.517363	0.297710	-23.441395	-13.371317	-2.982016	-2.351469	0.202335	-0.596142	-0.805664	0.010742	0.215576	0.188740	0.204626	0.000378	0.200759	0.530425	-0.545304	0.617242	-108.883878	-60.897602	-137.169420
61959		23.693012	15.296809	3.979409	-19.316220	-16.167078	3.478861	-1.613330	0.353249	-1.968445	-0.806885	-0.015869	0.211670	0.238491	0.150938	0.038151	0.212041	0.533057	-0.544647	0.611758	-110.150986	-62.028360	-136.775981
61960		16.743682	6.143654	8.673186	-7.146104	-14.955330	1.076305	-0.433669	0.987322	-2.555259	-0.795410	-0.026855	0.203125	0.168630	0.059474	0.085771	0.223679	0.536520	-0.538036	0.610435	-110.357232	-63.600601	-136.820541
61961		6.980047	-2.517163	6.180498	2.508941	-6.793979	-3.425268	0.527596	0.822171	-2.356548	-0.803955	-0.037842	0.198975	0.069749	-0.026156	0.061450	0.231632	0.540915	-0.529125	0.611379	-110.107843	-65.030491	-136.758555
61962		4.790056	-20.906716	3.546383	17.942335	2.471721	2.211024	0.278064	0.490405	-1.240251	-0.792480	-0.050781	0.208252	0.046689	-0.209408	0.035057	0.235962	0.543044	-0.524305	0.611988	-109.906597	-65.797893	-136.801012
61963		8.375798	-18.591613	1.262693	14.015338	2.978500	4.750435	1.316115	-0.003488	-1.256188	-0.790283	-0.046387	0.205811	0.082588	-0.186515	0.011402	0.236196	0.547897	-0.516834	0.613925	-109.709499	-66.474482	-136.188739
61964		14.068756	-1.384468	0.647634	-2.477434	-3.916322	3.558364	2.159632	-0.077651	-1.760945	-0.794434	-0.057373	0.210693	0.140555	-0.015152	0.006372	0.235454	0.555213	-0.505392	0.617154	-109.366033	-67.412961	-135.213468
61965		19.048180	4.002635	0.149109	-8.374298	-6.747873	6.410770	1.465172	0.167993	-2.035295	-0.789551	-0.074951	0.206543	0.190877	0.038074	0.001615	0.238055	0.561537	-0.494967	0.618881	-109.257280	-68.545452	-134.422063
61966		18.616854	2.622764	-2.452164	-7.966855	-3.683149	6.992993	0.726999	0.031012	-2.109443	-0.787109	-0.083496	0.218018	0.186428	0.024351	-0.024460	0.242599	0.567524	-0.486692	0.618218	-109.861013	-69.693321	-133.326204
61967		17.108346	3.976721	-3.755336	-9.024130	-2.622629	5.493610	0.280085	-0.517027	-2.501986	-0.777588	-0.103271	0.222900	0.171660	0.037674	-0.037056	0.248241	0.575522	-0.479298	0.614349	-111.904630	-70.927408	-130.982269
61968		18.054117	5.063068	-1.277800	-8.562217	-5.386763	6.025903	-0.186561	-0.506507	-3.086753	-0.781250	-0.125244	0.229980	0.181325	0.047824	-0.012365	0.257013	0.584207	-0.471521	0.608535	-114.946427	-72.438699	-127.887248
61969		14.164052	1.986247	-0.018411	-4.163561	-4.119585	3.235064	-0.741006	-0.208344	-3.046210	-0.778564	-0.142578	0.232666	0.141921	0.017702	-0.000105	0.267905	0.591017	-0.465072	0.602191	-118.318346	-73.945760	-124.805647
61970		9.055146	0.179601	0.622906	-1.181385	-2.636167	-1.206554	-0.902100	-0.296331	-2.847914	-0.771240	-0.162354	0.235352	0.090556	0.000535	0.006359	0.278426	0.597292	-0.459675	0.595331	-122.372720	-75.272255	-121.133063
61971		7.664223	2.411115	0.323770	-2.894776	-2.943721	-2.912707	-0.675717	-0.454571	-2.634693	-0.768555	-0.181885	0.240479	0.076944	0.023110	0.003333	0.287196	0.603723	-0.454393	0.588697	-127.013430	-76.365589	-116.743124
61972		9.039162	2.198898	-1.786221	-3.608536	-1.228153	-1.141024	-0.377192	-0.429729	-2.399936	-0.770264	-0.195068	0.249512	0.090685	0.020868	-0.017708	0.294401	0.609888	-0.448799	0.583048	-131.784467	-77.275667	-112.061426
61973		8.904939	1.705159	-2.741234	-3.394479	-0.104261	-0.970541	0.158815	-0.383373	-2.058003	-0.762939	-0.214600	0.259033	0.089271	0.016155	-0.027228	0.299021	0.615843	-0.442585	0.579174	-136.151172	-77.971689	-107.494842
61974		9.367757	2.064409	-3.315180	-3.835184	0.186956	-0.417956	0.264466	-0.323987	-1.825002	-0.765137	-0.218994	0.265625	0.093915	0.019832	-0.032973	0.302763	0.621224	-0.436622	0.576001	-140.365603	-78.532180	-103.031882
61975		8.714468	1.797960	-4.186449	-3.823183	1.216092	-0.834715	0.445078	-0.308538	-1.555439	-0.760254	-0.234375	0.266113	0.087346	0.017394	-0.041691	0.305157	0.626180	-0.430947	0.573640	-144.199095	-78.936871	-98.860140
61976		9.930736	1.189671	-3.120184	-2.714472	0.342961	0.300825	0.385461	-0.145417	-1.339142	-0.757568	-0.245117	0.281738	0.099407	0.011291	-0.031107	0.307471	0.630092	-0.425818	0.571949	-147.549310	-79.300197	-95.220173
61977		10.232000	1.614383	-1.583046	-2.276452	-1.217093	0.343164	0.360363	-0.172058	-1.194243	-0.757568	-0.245117	0.279541	0.102428	0.015561	-0.015714	0.309360	0.633687	-0.421267	0.570326	-150.768884	-79.565321	-91.732062
61978		11.150826	1.157889	-0.961867	-1.475513	-1.685734	1.213953	0.270378	-0.131844	-1.077438	-0.757324	-0.260254	0.288818	0.111575	0.010991	-0.009530	0.311331	0.636755	-0.417241	0.568794	-153.834567	-79.789920	-88.458699
61979		10.965826	0.882873	-0.901013	-1.096587	-1.547173	1.061291	0.094938	-0.163899	-0.978141	-0.759277	-0.264648	0.291260	0.109707	0.008297	-0.008916	0.313446	0.639421	-0.414093	0.566939	-156.853603	-79.937122	-85.333565
61980		11.282193	1.044440	-1.268318	-1.303015	-1.324629	1.436042	-0.096847	-0.154087	-0.922966	-0.754639	-0.273438	0.295898	0.112878	0.009917	-0.012601	0.316085	0.641625	-0.411614	0.564784	-159.910370	-80.053568	-82.285954
61981		10.515120	-0.350658	-1.111803	0.078364	-0.655727	0.746199	-0.233822	-0.109836	-0.786973	-0.763184	-0.284424	0.296143	0.105142	-0.003933	-0.011056	0.318810	0.643199	-0.409906	0.562700	-162.610210	-80.137414	-79.678284
61982		10.075020	-0.448108	-1.003692	0.280257	-0.603398	0.300229	-0.305175	-0.117002	-0.743425	-0.765381	-0.286621	0.298340	0.100738	-0.004871	-0.009971	0.321674	0.644576	-0.408518	0.560500	-165.285094	-80.193720	-77.140823
61983		10.505507	0.606576	-1.211797	-0.661038	-0.952784	0.716168	-0.292637	-0.109176	-0.689407	-0.760498	-0.297607	0.302979	0.105082	0.005686	-0.012069	0.324305	0.645835	-0.407276	0.558436	-167.766920	-80.223378	-74.789476
61984		10.407014	0.686920	-1.013354	-0.576899	-1.120614	0.589989	-0.302496	-0.076150	-0.636681	-0.762451	-0.306152	0.312012	0.104095	0.006523	-0.010104	0.326930	0.646867	-0.406147	0.556529	-170.101643	-80.252626	-72.595699
61985		10.046132	0.807359	-1.616745	-0.914067	-0.564457	0.337977	-0.346617	-0.072958	-0.586984	-0.766602	-0.317383	0.307861	0.100490	0.007751	-0.016144	0.329516	0.647711	-0.405316	0.554625	-172.276142	-80.261194	-70.587894
61986		9.849683	0.786904	-2.063582	-1.051019	-0.105864	0.226122	-0.489300	-0.030943	-0.509401	-0.766602	-0.319580	0.308105	0.098520	0.007568	-0.020639	0.332469	0.648041	-0.405033	0.552680	-174.289905	-80.278768	-68.827949
61987		9.559125	0.446221	-2.279213	-0.809173	0.309940	-0.013723	-0.648252	-0.004021	-0.440061	-0.764160	-0.325928	0.310303	0.095601	0.004178	-0.022804	0.335756	0.647880	-0.405389	0.550617	-176.132729	-80.295814	-67.332159
61988		9.328512	0.354145	-2.335311	-0.718976	0.465724	-0.228004	-0.731560	0.060574	-0.383150	-0.763916	-0.336914	0.315186	0.093284	0.003277	-0.023394	0.339320	0.647278	-0.406019	0.548673	-177.856655	-80.342510	-66.007143
61989		9.313460	1.058735	-2.029648	-1.178761	-0.079684	-0.295079	-0.760217	0.083475	-0.368608	-0.759033	-0.347900	0.304443	0.093145	0.010338	-0.020375	0.342938	0.646522	-0.406753	0.546768	-179.531656	-80.393382	-64.747003
61990		9.503976	0.137794	-1.357410	-0.010126	-0.273039	-0.215173	-0.740048	0.110522	-0.367826	-0.767822	-0.352295	0.306641	0.095034	0.001153	-0.013631	0.346574	0.645716	-0.407357	0.544974	178.763067	-80.455289	-63.446091
61991		10.057955	-0.836436	-1.075924	1.062639	-0.153335	0.280219	-0.796697	0.320365	-0.356854	-0.763184	-0.359131	0.302490	0.100547	-0.008587	-0.010886	0.350748	0.644203	-0.407803	0.543760	177.038471	-80.629439	-62.157508
61992		9.594336	-1.114887	-1.826786	0.997830	0.754601	-0.062510	-0.940034	0.536126	-0.344533	-0.760742	-0.363525	0.298096	0.095875	-0.011401	-0.018472	0.355816	0.641811	-0.408266	0.542948	175.128476	-80.922166	-60.766552
61993		9.282445	-0.391678	-2.705617	-0.010808	1.351489	-0.230909	-0.871717	0.502541	-0.366203	-0.762695	-0.372314	0.296143	0.092749	-0.004205	-0.027271	0.360609	0.639655	-0.408545	0.542120	173.115189	-81.185276	-59.231102
61994		9.125104	-0.887858	-2.645794	0.493227	1.579348	-0.414921	-0.692341	0.403090	-0.476165	-0.766846	-0.378906	0.289551	0.091176	-0.009188	-0.026610	0.364936	0.638309	-0.408131	0.541121	170.719727	-81.374131	-57.206091
61995		8.561433	-2.348352	-3.003001	1.694382	2.609003	-0.972291	-0.445142	0.302685	-0.656027	-0.757813	-0.387695	0.281006	0.085491	-0.023831	-0.030107	0.368727	0.638031	-0.406674	0.539975	167.801819	-81.472620	-54.510146
61996		8.026776	-3.827583	-3.178102	2.994217	3.465166	-1.553961	-0.040132	0.165811	-0.882922	-0.755127	-0.396484	0.290039	0.080071	-0.038636	-0.031840	0.371578	0.639324	-0.403622	0.538780	164.332398	-81.441318	-51.022736
61997		7.953313	-3.502664	-3.435969	2.645333	3.625822	-1.616055	0.456240	0.031362	-1.093030	-0.752686	-0.403076	0.288086	0.079335	-0.035382	-0.034453	0.373101	0.642303	-0.398821	0.537759	160.631305	-81.267919	-47.011752
61998		8.521604	-2.464121	-3.220421	1.900505	2.998854	-1.068831	0.806581	-0.043712	-1.279957	-0.750244	-0.416016	0.294922	0.085064	-0.025056	-0.032286	0.373850	0.646489	-0.392581	0.536814	156.760474	-80.975174	-42.623121
61999		9.760032	-0.468666	-2.138944	0.749271	1.117477	0.099003	0.875515	-0.030862	-1.413258	-0.745361	-0.424805	0.297363	0.097568	-0.005283	-0.021397	0.374720	0.650980	-0.385694	0.535770	152.791315	-80.611892	-38.091073
62000		11.326495	2.083390	-0.969943	-0.750863	-1.112650	1.666287	0.655582	0.104973	-1.449268	-0.734131	-0.428955	0.304199	0.113407	0.020044	-0.009692	0.376656	0.654729	-0.378983	0.534632	148.680934	-80.255155	-33.539166
62001		11.657476	1.467643	-0.187626	0.318682	-1.511481	1.836242	0.295004	0.150062	-1.390479	-0.729248	-0.444336	0.300293	0.116672	0.013868	-0.001943	0.379663	0.657522	-0.373338	0.533047	144.779071	-79.887858	-29.403462
62002		11.111423	1.273774	-0.396065	0.456675	-1.114984	1.313387	0.026802	0.158199	-1.312981	-0.724365	-0.455322	0.304932	0.111191	0.012008	-0.004047	0.383355	0.659617	-0.368612	0.531102	141.182519	-79.503704	-25.729232
62003		11.987521	2.855514	-0.509258	-0.727377	-1.686662	2.383121	-0.121774	0.179299	-1.334301	-0.713135	-0.461914	0.296387	0.120058	0.027751	-0.005217	0.387602	0.661372	-0.364171	0.528896	137.693183	-79.082586	-22.246141
62004		11.575890	1.734090	-0.199595	0.465604	-1.357139	1.805719	-0.223436	0.222892	-1.345911	-0.712646	-0.475098	0.296631	0.115870	0.016559	-0.002144	0.392292	0.662812	-0.359840	0.526595	134.292594	-78.635025	-18.907742
62005		11.636208	1.060184	-0.184795	1.216084	-0.989306	1.767452	-0.203902	0.219030	-1.383242	-0.705566	-0.492676	0.297119	0.116430	0.009795	-0.001986	0.396974	0.664328	-0.355343	0.524224	131.118264	-78.135802	-15.783378
62006		11.881645	0.180880	-0.277952	2.147158	-0.442557	1.869553	-0.158895	0.222367	-1.460492	-0.694092	-0.503662	0.292969	0.118822	0.000939	-0.002913	0.401711	0.666032	-0.350428	0.521757	128.089106	-77.568638	-12.775219
62007		12.011023	-0.094212	-1.204793	2.183554	0.608857	2.044100	-0.100980	0.257164	-1.560535	-0.682373	-0.516602	0.293457	0.120082	-0.001885	-0.012202	0.406537	0.667893	-0.344955	0.519281	125.157636	-76.937070	-9.826046
62008		12.868441	-0.083307	-1.768294	2.298346	1.197069	2.915670	-0.061131	0.271884	-1.701237	-0.670898	-0.527588	0.291504	0.128647	-0.001933	-0.017857	0.411609	0.669996	-0.338840	0.516596	122.310702	-76.209362	-6.932542
62009		13.489239	-0.590757	-1.605962	3.148496	1.385856	3.342109	-0.099927	0.278265	-1.850457	-0.663574	-0.547363	0.285400	0.134807	-0.007163	-0.016244	0.417157	0.672198	-0.332300	0.513524	119.566996	-75.380155	-4.158419
62010		13.795216	-0.656128	-0.876894	3.797093	0.899716	3.464111	-0.178285	0.291785	-2.013076	-0.649902	-0.562744	0.283691	0.137864	-0.007957	-0.008963	0.423385	0.674408	-0.325342	0.509972	116.895123	-74.439553	-1.494644
62011		13.995745	-1.348291	0.243035	5.147822	0.347817	3.268929	-0.167951	0.327739	-2.198441	-0.633789	-0.571533	0.274902	0.139802	-0.015018	0.002213	0.430045	0.676772	-0.317632	0.506113	114.330948	-73.383188	1.076823
62012		14.106806	-2.041791	0.435266	6.109229	0.654276	3.055857	-0.091900	0.388273	-2.425720	-0.619873	-0.593262	0.275635	0.140815	-0.022125	0.004089	0.437078	0.679412	-0.308776	0.502016	111.858657	-72.188765	3.611622
62013		15.443097	-1.988526	-1.372961	6.011692	2.510286	4.395441	0.112552	0.451979	-2.745605	-0.599365	-0.608398	0.276123	0.154107	-0.021995	-0.014090	0.444223	0.682717	-0.298138	0.497671	109.544248	-70.807110	6.123072
62014		16.972461	-2.870231	-2.951802	6.941916	4.634637	5.527545	0.227610	0.467968	-3.035364	-0.578613	-0.630371	0.272217	0.169194	-0.031239	-0.029949	0.451640	0.686519	-0.286118	0.492797	107.459024	-69.240096	8.482341
62015		18.230085	-3.077963	-3.907577	7.545071	5.957667	6.454642	0.066330	0.445785	-3.269963	-0.553467	-0.647705	0.272705	0.181678	-0.033740	-0.039492	0.460027	0.690176	-0.273675	0.486965	105.543128	-67.514753	10.587048
62016		19.553403	-3.399865	-3.667750	8.856921	6.310688	7.188358	-0.284317	0.467405	-3.472876	-0.526123	-0.667480	0.269043	0.194817	-0.037438	-0.037082	0.470026	0.693045	-0.261253	0.480115	103.627874	-65.654279	12.498182
62017		19.929877	-4.041623	-3.502384	10.090555	6.824217	6.841536	-0.656976	0.506275	-3.624187	-0.498779	-0.689209	0.254150	0.198432	-0.044133	-0.035386	0.481563	0.694922	-0.249028	0.472404	101.697696	-63.690540	14.220116
62018		20.997279	-5.727264	-2.514646	12.823252	7.100662	6.469073	-1.164224	0.600976	-3.734534	-0.473633	-0.704590	0.250244	0.208777	-0.061326	-0.025426	0.495075	0.695227	-0.237302	0.463948	99.613946	-61.649961	15.815892
62019		22.019600	-6.374226	-2.015706	14.531194	7.395534	6.424271	-1.683758	0.799745	-3.775443	-0.443848	-0.726563	0.226563	0.218857	-0.068054	-0.020473	0.510506	0.693551	-0.226044	0.455275	97.285561	-59.576446	17.383901
62020		22.982725	-7.075743	-2.848192	15.741813	8.924010	6.276558	-2.083438	0.963465	-3.729753	-0.427734	-0.748779	0.207275	0.228313	-0.075324	-0.028815	0.527176	0.690102	-0.215344	0.446623	94.829924	-57.509367	18.864133
62021		23.253379	-10.411129	-2.115016	19.221933	9.770193	3.919308	-2.460681	1.222416	-3.554085	-0.400146	-0.766357	0.181152	0.230502	-0.108481	-0.021246	0.544767	0.684561	-0.205293	0.438703	92.180356	-55.518697	20.353635
62022		19.954261	-8.330222	-5.159591	15.165876	11.507352	1.663382	-2.249972	1.245339	-3.413789	-0.375244	-0.777344	0.161621	0.197753	-0.087271	-0.051864	0.561100	0.679058	-0.195124	0.431248	89.844159	-53.576625	21.638691
62023		17.089025	-3.758724	-7.396067	9.704976	11.846086	1.426082	-1.113735	0.818972	-3.294155	-0.345947	-0.792725	0.157715	0.169932	-0.040805	-0.074437	0.572675	0.677295	-0.184005	0.423622	88.629781	-51.682380	22.367320
62024		15.282581	-0.816802	-6.696983	7.075837	10.152125	1.408842	0.713331	0.296671	-3.335213	-0.330078	-0.796875	0.162354	0.152564	-0.010474	-0.067231	0.577498	0.681689	-0.170353	0.415662	88.885742	-49.770361	22.564989
62025		14.454589	0.487602	-3.925334	6.969150	7.172364	1.347663	1.552555	0.301922	-3.432360	-0.309814	-0.809814	0.171631	0.144545	0.002701	-0.039445	0.579476	0.688368	-0.154519	0.408019	89.612294	-47.800955	22.785672
62026		11.786533	1.768303	-3.492227	4.877463	5.852572	-0.004878	1.223888	0.243897	-3.204758	-0.280762	-0.809570	0.180420	0.118088	0.016006	-0.034965	0.581882	0.693807	-0.140296	0.400452	90.173248	-45.967392	22.979524
62027		6.074612	4.227718	-1.860892	0.447697	2.205178	-2.520836	0.078462	0.284722	-2.652102	-0.267090	-0.818359	0.171875	0.061273	0.041474	-0.018680	0.587051	0.695286	-0.130092	0.393733	90.055559	-44.447421	23.212849
62028		0.108039	0.636972	-1.554621	-0.944302	1.290542	-9.286384	-1.301380	0.238037	-1.876653	-0.246826	-0.822754	0.160889	0.001121	0.006258	-0.015588	0.595368	0.692187	-0.125460	0.388169	89.190072	-43.374186	23.386399
62029		6.059265	-3.397521	-3.684222	4.809679	6.012643	-8.217445	-1.179469	-0.167932	-1.345837	-0.244385	-0.831543	0.147949	0.060392	-0.034598	-0.036589	0.601915	0.689840	-0.123581	0.382814	88.622292	-42.604342	23.232314
62030		3.619058	-8.032924	-4.536227	5.808401	7.190086	-13.385834	-0.583558	-0.069348	-0.595694	-0.244385	-0.831787	0.143555	0.035967	-0.080568	-0.045115	0.605005	0.688592	-0.122893	0.380404	88.336867	-42.267098	23.159877
62031		2.174851	-8.926350	-2.933926	6.020786	5.447794	-15.017387	-0.732348	0.012275	0.150029	-0.250977	-0.833984	0.139160	0.021814	-0.089354	-0.029014	0.607228	0.686278	-0.124759	0.380436	87.912891	-42.352089	23.170751
62032		1.723014	-9.014971	-0.953534	6.557756	3.448624	-15.312674	-0.756602	-0.000181	0.648469	-0.257813	-0.829834	0.127930	0.017522	-0.090128	-0.009194	0.608562	0.683585	-0.128466	0.381917	87.470885	-42.726851	23.184420
62033		1.238543	-8.015148	0.194233	6.070081	1.985764	-14.815139	-0.390872	-0.201879	1.016958	-0.262207	-0.825439	0.114502	0.012791	-0.080083	0.002112	0.607800	0.682140	-0.133296	0.384053	87.334757	-43.313498	23.060014
62034		1.686346	-6.769533	0.278503	5.646943	1.757077	-13.523722	0.036277	-0.400646	1.457527	-0.277832	-0.825684	0.121094	0.017351	-0.067571	0.002807	0.604583	0.682037	-0.139462	0.387113	87.543035	-44.161450	22.787189
62035		2.179043	-5.968728	0.163664	5.452152	1.841285	-12.511417	0.337470	-0.512278	1.974854	-0.300537	-0.814697	0.127441	0.022374	-0.059471	0.001593	0.599203	0.682657	-0.147079	0.391540	87.987998	-45.302864	22.433905
62036		2.506780	-5.741171	-0.036322	5.485417	2.095918	-11.994801	0.539304	-0.525470	2.460383	-0.323242	-0.805908	0.131592	0.025773	-0.057096	-0.000450	0.592100	0.683440	-0.156035	0.397467	88.568576	-46.724600	22.054449
62037		2.967652	-5.161605	0.228196	5.510618	1.862081	-11.102835	0.780420	-0.488492	2.883709	-0.347900	-0.795166	0.135498	0.030411	-0.051190	0.002155	0.583236	0.684416	-0.165761	0.404888	89.292925	-48.381064	21.682865
62038		3.477103	-4.025064	0.226481	5.038080	1.719822	-9.799294	1.070119	-0.487840	3.238755	-0.377197	-0.786377	0.155273	0.035412	-0.039692	0.002137	0.572524	0.685735	-0.176131	0.413475	90.224703	-50.241467	21.258942
62039		4.035825	-2.768353	0.446041	4.523467	1.301012	-8.400653	1.342541	-0.514899	3.573416	-0.406982	-0.760010	0.161133	0.040833	-0.026986	0.004382	0.559957	0.687390	-0.187041	0.423034	91.403163	-52.283713	20.738262
62040		4.836831	-2.105808	0.170740	4.322404	1.510267	-7.187623	1.544356	-0.497793	3.920155	-0.434570	-0.740479	0.173828	0.048765	-0.020118	0.001671	0.545757	0.688945	-0.198651	0.433639	92.786338	-54.521857	20.115361
62041		5.510576	-1.975004	0.008539	4.414088	1.707734	-6.368647	1.711451	-0.449167	4.276797	-0.464355	-0.716309	0.190674	0.055511	-0.018566	0.000047	0.529979	0.690178	-0.210837	0.445336	94.374321	-56.950581	19.384340
62042		6.163816	-1.969349	-0.303169	4.463843	2.044043	-5.587630	1.870445	-0.382105	4.622492	-0.498535	-0.689941	0.198730	0.062077	-0.018233	-0.003088	0.512656	0.690890	-0.223621	0.458093	96.196916	-59.571752	18.498984
62043		7.171946	-1.892872	-0.499741	4.593052	2.262155	-4.423419	1.951485	-0.296861	4.944853	-0.530762	-0.656982	0.215576	0.072165	-0.017099	-0.005063	0.494059	0.690820	-0.236904	0.471752	98.267961	-62.360091	17.413055
62044		8.296694	-1.632078	-0.655050	4.530594	2.318606	-3.029738	1.929463	-0.193225	5.232191	-0.565430	-0.619873	0.227783	0.083361	-0.014080	-0.006613	0.474634	0.689560	-0.250861	0.486106	100.598583	-65.303307	16.044527
62045		9.747413	-1.226572	-0.738983	4.374071	2.201381	-1.265233	1.805669	-0.091138	5.447677	-0.597656	-0.582764	0.235596	0.097762	-0.009538	-0.007440	0.454842	0.686971	-0.265356	0.500775	103.267398	-68.345550	14.270963
62046		10.799680	-0.711622	-0.897807	3.791005	1.963931	0.171508	1.684160	-0.008142	5.645289	-0.634521	-0.545410	0.243408	0.108139	-0.003989	-0.009016	0.434710	0.683017	-0.280479	0.515602	106.523605	-71.474991	11.829207
62047		11.876380	-0.433246	-0.908441	3.340066	1.615951	1.512155	1.682719	0.037162	5.843528	-0.658203	-0.503906	0.250977	0.118820	-0.000784	-0.009123	0.413735	0.678090	-0.295874	0.530543	110.964020	-74.652589	8.200183
62048		13.474449	-0.236561	-0.766317	3.013657	1.098175	3.296810	1.648268	0.080515	6.039999	-0.695313	-0.455811	0.249756	0.134730	0.001767	-0.007714	0.392052	0.671990	-0.311712	0.545490	117.550545	-77.834587	2.389360
62049		14.919491	0.184870	-0.744857	2.215875	0.454739	4.951772	1.624319	0.129161	6.236513	-0.717041	-0.403076	0.259521	0.149034	0.006559	-0.007504	0.369568	0.664775	-0.327806	0.560390	128.546257	-80.880458	-7.844016
62050		16.686742	0.926150	-0.576037	1.073184	-0.610373	6.861093	1.504798	0.185132	6.426465	-0.740967	-0.348389	0.264648	0.166449	0.014659	-0.005818	0.346686	0.656103	-0.344469	0.575047	149.124081	-83.426104	-27.742854
62051		18.816315	2.509518	-0.978365	-1.270723	-1.801484	9.063664	1.294728	0.186378	6.559936	-0.764893	-0.295898	0.254395	0.187195	0.031310	-0.009769	0.323690	0.646168	-0.361734	0.588932	-175.417026	-84.429024	-62.639474
62052		21.010448	5.081714	-1.930622	-4.991717	-3.239285	11.053618	0.990789	0.081536	6.655278	-0.775391	-0.245605	0.257324	0.208249	0.057863	-0.019116	0.300880	0.635088	-0.380012	0.601436	-141.877747	-83.028032	-95.800942
62053		22.921759	7.487046	-3.146012	-8.924955	-4.497008	12.351660	0.559441	-0.037023	6.729444	-0.792480	-0.195068	0.253906	0.226530	0.082611	-0.031194	0.278611	0.622915	-0.399519	0.612158	-123.853263	-80.152194	-113.685587
62054		24.288848	10.315597	-4.529537	-13.416159	-5.822210	12.608738	0.191035	-0.102907	6.728337	-0.796387	-0.142578	0.248047	0.239258	0.111290	-0.045068	0.257118	0.609643	-0.419827	0.621265	-114.723196	-76.752896	-122.894515
62055		25.923651	13.726880	-4.672095	-17.820625	-8.488733	12.376175	-0.251410	-0.008056	6.637356	-0.800049	-0.096680	0.242432	0.254496	0.145709	-0.046890	0.237094	0.595098	-0.440599	0.628902	-109.540848	-73.224479	-128.403205
62056		25.880720	15.923484	-4.530416	-20.786008	-10.197386	10.375322	-0.990984	0.150792	6.251963	-0.810303	-0.052734	0.234863	0.253633	0.166990	-0.046311	0.220627	0.579339	-0.461928	0.634282	-106.526693	-69.843510	-132.181130
62057		20.159492	19.436144	-5.840503	-23.964785	-9.467971	2.602580	-1.398184	-0.025072	5.489729	-0.809082	-0.020020	0.231689	0.196175	0.199382	-0.059762	0.207104	0.564985	-0.482087	0.636782	-105.200326	-66.813676	-134.466614
62058		16.967068	22.218990	-7.147532	-26.566579	-8.546103	-2.484214	-1.803389	-0.384482	4.590500	-0.812256	0.008545	0.233154	0.164662	0.225353	-0.073178	0.196601	0.553085	-0.501049	0.635921	-105.181432	-64.217245	-135.623152
62059		16.350151	24.810148	-7.262505	-28.875784	-8.934466	-5.135380	-2.382434	-0.499758	3.703215	-0.806152	0.028320	0.230469	0.159067	0.250189	-0.075196	0.190097	0.542938	-0.519215	0.632058	-105.966781	-62.096749	-136.269605
62060		15.235689	28.902031	-4.838830	-30.932965	-11.547923	-9.068509	-3.040283	-0.331152	2.690584	-0.808594	0.037109	0.236816	0.148542	0.290258	-0.052546	0.188955	0.533993	-0.536328	0.625699	-107.233626	-60.565938	-136.810843
62061		15.140095	28.772427	-2.322716	-29.990861	-12.764002	-9.905491	-3.419480	-0.117491	1.277109	-0.803955	0.032715	0.234863	0.149577	0.288231	-0.028064	0.193724	0.527635	-0.550440	0.617323	-108.908615	-59.849616	-137.134986
62062		18.771607	20.216804	1.135281	-23.129103	-13.589172	-3.276223	-3.081893	0.097456	-0.373371	-0.801514	0.023926	0.228516	0.188098	0.201959	0.008148	0.203241	0.525339	-0.558791	0.608657	-110.712175	-60.070721	-137.089062
62063		18.343301	14.463590	5.148932	-16.682376	-14.918593	-1.369017	-2.112330	0.351771	-1.800111	-0.803223	0.002197	0.233398	0.184816	0.143507	0.049645	0.215212	0.527119	-0.560063	0.601796	-112.260397	-61.104290	-136.697782
62064		20.000601	10.518712	4.977677	-13.891034	-13.950484	2.346104	-0.847622	0.546129	-2.681678	-0.800293	-0.020020	0.227295	0.201528	0.102700	0.048789	0.227018	0.532053	-0.554875	0.597910	-113.323906	-62.644507	-136.039777
62065		12.599873	-6.592457	7.134666	4.364228	-8.506126	2.903879	-0.162852	1.233575	-2.373970	-0.806396	-0.031006	0.214355	0.125642	-0.067360	0.070625	0.237932	0.534737	-0.547582	0.597996	-113.193914	-64.173241	-136.286178
62066		4.292746	-19.480290	4.741565	17.444777	0.071979	0.960491	0.266154	0.873585	-1.331850	-0.803955	-0.044189	0.218994	0.041834	-0.195147	0.046972	0.243585	0.536107	-0.542135	0.599454	-112.700628	-65.074307	-136.659783
62067		5.813449	-20.099169	3.793862	17.235992	0.874935	2.609708	0.729788	0.414155	-0.914012	-0.801758	-0.041992	0.216797	0.057292	-0.201391	0.037085	0.245468	0.538241	-0.536967	0.601422	-112.242078	-65.648946	-136.700996
62068		11.474396	-5.420581	2.842663	2.467789	-4.097755	2.280214	1.700002	0.115496	-1.475935	-0.803711	-0.046387	0.214844	0.114355	-0.055289	0.027894	0.245618	0.543938	-0.527677	0.604450	-111.846827	-66.459916	-136.063852
62069		14.860778	5.608535	0.504428	-8.840081	-6.384463	1.747463	1.587606	0.123003	-1.766830	-0.801270	-0.059570	0.226074	0.149098	0.054728	0.005391	0.246929	0.550158	-0.517870	0.606764	-111.666551	-67.426298	-135.267976
62070		17.314562	4.267747	-2.139224	-9.176590	-4.173954	5.051454	0.944566	0.108845	-2.016797	-0.791992	-0.068115	0.221924	0.173553	0.041029	-0.021290	0.250710	0.556212	-0.509257	0.606984	-112.048281	-68.524689	-134.268370
62071		18.666848	1.392697	-4.935962	-7.889728	-0.916305	7.841075	0.800026	-0.150867	-2.206364	-0.793701	-0.083496	0.229004	0.186846	0.012063	-0.049168	0.254761	0.563271	-0.500832	0.605797	-113.070536	-69.659063	-132.680283
62072		18.703598	5.873104	-3.505286	-10.816200	-3.802694	6.470181	0.899403	-0.416465	-2.691069	-0.793213	-0.105225	0.240479	0.187877	0.056362	-0.034405	0.259306	0.572392	-0.490972	0.603386	-114.922245	-70.973947	-130.162595
62073		18.670119	4.982043	-0.492759	-8.255746	-6.076539	6.574136	0.611362	-0.326871	-2.934434	-0.785645	-0.127197	0.245605	0.187413	0.047088	-0.004475	0.265559	0.581328	-0.481082	0.600080	-117.319987	-72.401410	-127.265133
62074		13.301651	2.148651	2.089120	-3.250648	-5.843706	2.069631	-0.116115	-0.062751	-2.582897	-0.785400	-0.142334	0.252686	0.133273	0.019779	0.020921	0.273471	0.587562	-0.473926	0.596136	-119.819329	-73.687584	-124.718021
62075		8.473792	1.302895	3.072709	-1.075532	-5.170319	-2.392938	-0.885729	-0.114710	-2.369926	-0.789307	-0.157959	0.250732	0.084868	0.012160	0.030721	0.282825	0.592281	-0.469708	0.590414	-123.040453	-74.811994	-121.895662
62076		7.584926	1.977250	1.039701	-2.292069	-3.369868	-3.037016	-1.216488	-0.215906	-2.276490	-0.781982	-0.179688	0.255859	0.076057	0.018971	0.010362	0.292617	0.596529	-0.466780	0.583647	-126.989959	-75.813013	-118.529408
62077		8.153980	3.324372	-2.447073	-4.894764	-0.843868	-2.141145	-0.810302	-0.298138	-2.123293	-0.783447	-0.206055	0.258545	0.081922	0.032276	-0.024481	0.300496	0.601150	-0.463203	0.577723	-131.129325	-76.649929	-114.742746
62078		10.286210	-0.287785	-4.184978	-2.377756	1.734868	0.898802	-0.402604	-0.263386	-1.804791	-0.783203	-0.214600	0.267822	0.102885	-0.003890	-0.041707	0.306348	0.605461	-0.459276	0.573265	-134.894099	-77.310948	-111.116189
62079		8.918766	-1.346598	-4.422653	-1.243807	2.684836	-0.212655	0.057078	-0.258863	-1.528927	-0.780518	-0.225586	0.270264	0.089138	-0.014135	-0.044115	0.309935	0.609803	-0.454853	0.570254	-138.211885	-77.805131	-107.682180
62080		8.898349	-0.121742	-3.734246	-1.946137	1.620751	-0.500087	0.164372	-0.226195	-1.403265	-0.782471	-0.234375	0.277100	0.089014	-0.001811	-0.037243	0.312950	0.613890	-0.450404	0.567748	-141.419550	-78.230769	-104.306482
62081		10.172508	0.610326	-2.379052	-1.996195	-0.106497	0.459356	0.170924	-0.144006	-1.243524	-0.781982	-0.249756	0.275146	0.101778	0.005491	-0.023712	0.315605	0.617374	-0.446305	0.565733	-144.340767	-78.594119	-101.221555
62082		10.900331	0.474081	-1.722978	-1.513103	-0.745526	1.103550	0.206468	-0.103219	-1.084737	-0.781982	-0.253906	0.288574	0.109036	0.004167	-0.017169	0.317838	0.620415	-0.442490	0.564152	-146.987381	-78.901105	-98.402282
62083		11.002166	-0.291712	-1.101740	-0.456847	-0.975723	1.195716	0.172792	-0.102856	-0.956854	-0.783936	-0.262695	0.286621	0.110012	-0.003434	-0.010964	0.319750	0.623109	-0.439179	0.562687	-149.455821	-79.138674	-95.783981
62084		10.964318	-0.142782	-1.033409	-0.465484	-1.061776	1.139927	0.057885	-0.159815	-0.876893	-0.781250	-0.273682	0.293457	0.109644	-0.001906	-0.010247	0.321708	0.625589	-0.436496	0.560904	-151.981709	-79.308303	-93.177830
62085		10.820563	-0.160780	-1.692751	-0.636581	-0.414883	1.114245	-0.216494	-0.094535	-0.764686	-0.785645	-0.278076	0.293701	0.108206	-0.002040	-0.016874	0.324302	0.627190	-0.434846	0.558901	-154.326585	-79.456616	-90.915324
62086		10.551446	-0.213299	-1.963299	-0.620168	-0.074035	0.903766	-0.458411	-0.041563	-0.706407	-0.774170	-0.288818	0.296143	0.105510	-0.002551	-0.019606	0.327645	0.628111	-0.433937	0.556619	-156.658996	-79.606135	-88.809396
62087		10.429722	-0.289118	-1.755865	-0.391185	-0.177880	0.759001	-0.585087	-0.011501	-0.628861	-0.780762	-0.295410	0.298584	0.104288	-0.003270	-0.017543	0.331185	0.628563	-0.433592	0.554277	-158.842268	-79.735120	-86.927921
62088		10.043712	-0.802745	-1.510405	0.241655	-0.093538	0.372318	-0.628792	0.031020	-0.585448	-0.780273	-0.306396	0.298828	0.100411	-0.008369	-0.015094	0.334864	0.628722	-0.433401	0.552031	-160.943724	-79.869253	-85.156943
62089		9.694328	-0.869265	-1.487364	0.366998	-0.001547	0.026665	-0.537447	0.025976	-0.554574	-0.777832	-0.312988	0.299072	0.096917	-0.009001	-0.014862	0.338119	0.628967	-0.433082	0.550015	-162.930107	-79.980481	-83.449218
62090		9.685345	-0.512302	-1.969989	-0.095626	0.318373	0.078642	-0.467910	0.027261	-0.537299	-0.777832	-0.317627	0.292480	0.096836	-0.005429	-0.019701	0.341136	0.629285	-0.432593	0.548169	-164.880681	-80.082228	-81.738742
62091		9.570182	-0.120396	-2.500203	-0.610295	0.690289	0.036403	-0.508707	0.051612	-0.552697	-0.779785	-0.324219	0.294922	0.095691	-0.001532	-0.025023	0.344342	0.629487	-0.432144	0.546284	-166.900469	-80.186576	-79.981494
62092		9.239086	-0.377416	-2.571960	-0.352780	0.941009	-0.267645	-0.552900	0.069658	-0.546085	-0.770508	-0.332764	0.292969	0.092371	-0.004098	-0.025741	0.347735	0.629542	-0.431776	0.544358	-168.972517	-80.292307	-78.198627
62093		9.209180	-0.355753	-2.433753	-0.262234	0.841927	-0.321600	-0.626974	0.079636	-0.549342	-0.772461	-0.341553	0.292969	0.092072	-0.003887	-0.024362	0.351354	0.629436	-0.431599	0.542295	-171.110164	-80.390071	-76.391653
62094		9.044296	-0.493606	-2.122253	0.036959	0.664243	-0.533466	-0.603968	0.005232	-0.568171	-0.774658	-0.345947	0.293213	0.090428	-0.005257	-0.021209	0.354812	0.629606	-0.431401	0.539998	-173.388262	-80.437377	-74.430005
62095		8.832932	-0.938513	-1.925450	0.577066	0.702108	-0.769320	-0.531592	-0.123992	-0.633281	-0.776611	-0.352783	0.291016	0.088311	-0.009716	-0.019174	0.357905	0.630379	-0.431046	0.537332	-175.874789	-80.398888	-72.214205
62096		9.104170	-1.075688	-2.556042	0.559454	1.298850	-0.401215	-0.377366	-0.156892	-0.757841	-0.767334	-0.365723	0.298096	0.091020	-0.011150	-0.025468	0.360794	0.631779	-0.429914	0.534657	-178.693837	-80.329374	-69.571600
62097		8.852636	-1.653395	-2.665834	1.122304	1.672536	-0.639249	-0.287098	-0.033750	-0.890579	-0.764893	-0.376709	0.291748	0.088456	-0.016966	-0.026619	0.363986	0.633279	-0.427912	0.532319	178.149772	-80.305826	-66.533501
62098		8.383541	-2.765982	-2.791223	2.162227	2.302185	-1.109279	-0.171947	0.041228	-1.018371	-0.762207	-0.385498	0.294189	0.083687	-0.028110	-0.027905	0.367326	0.635053	-0.425032	0.530214	174.614937	-80.291598	-63.044735
62099		8.585855	-2.689889	-2.799417	2.187737	2.292540	-0.938774	0.072230	0.049642	-1.153455	-0.757568	-0.389893	0.292236	0.085695	-0.027383	-0.028025	0.370234	0.637515	-0.421068	0.528397	170.814271	-80.234113	-59.143579
62100		9.148672	-1.506458	-2.439213	1.360099	1.490981	-0.440205	0.280217	0.063740	-1.281488	-0.752930	-0.402832	0.301270	0.091380	-0.015616	-0.024443	0.372853	0.640576	-0.416086	0.526798	166.754116	-80.125466	-54.857610
62101		9.648985	-0.205874	-2.197860	0.398454	0.765435	0.047834	0.420341	0.073088	-1.405620	-0.741211	-0.416016	0.295166	0.096464	-0.002691	-0.022019	0.375331	0.644094	-0.410317	0.525271	162.510831	-79.950367	-50.301923
62102		10.026131	0.314204	-1.519957	0.331490	-0.046615	0.327264	0.475661	0.067558	-1.470192	-0.736572	-0.424561	0.304199	0.100276	0.002441	-0.015227	0.377784	0.647833	-0.404165	0.523681	158.274616	-79.701632	-45.718361
62103		10.630098	0.851486	-1.157309	0.182408	-0.603070	0.895461	0.434025	0.079943	-1.489220	-0.731689	-0.435547	0.302246	0.106356	0.007748	-0.011598	0.380408	0.651454	-0.398030	0.521986	154.191421	-79.397521	-41.310506
62104		11.138403	1.620747	-0.807032	-0.175411	-1.221890	1.404094	0.363959	0.117162	-1.461863	-0.718018	-0.446533	0.306885	0.111494	0.015408	-0.008107	0.383254	0.654759	-0.392055	0.520288	150.327655	-79.064059	-37.162191
62105		11.466319	1.610054	-0.971254	-0.033764	-1.034258	1.760517	0.144164	0.163510	-1.404753	-0.717773	-0.457520	0.300537	0.114765	0.015302	-0.009795	0.386727	0.657368	-0.386747	0.518398	146.669133	-78.721282	-33.346717
62106		11.236781	1.909448	-1.604925	-0.447410	-0.476088	1.678970	-0.049983	0.186516	-1.340984	-0.714844	-0.475098	0.305420	0.112477	0.018337	-0.016159	0.390714	0.659392	-0.382070	0.516301	143.226006	-78.364398	-29.859980
62107		11.816885	1.959916	-1.631435	-0.263585	-0.447884	2.264944	-0.228287	0.183427	-1.357144	-0.696777	-0.483887	0.290283	0.118283	0.018778	-0.016445	0.395292	0.661070	-0.377806	0.513803	139.882651	-77.961206	-26.574671
62108		11.341947	0.216417	-1.293592	1.496399	0.076953	1.505997	-0.342829	0.207687	-1.387336	-0.694336	-0.494873	0.292725	0.113417	0.001355	-0.013056	0.400374	0.662483	-0.373655	0.511076	136.584601	-77.517465	-23.398839
62109		12.122285	-0.688479	-0.329980	2.974877	-0.408742	1.956462	-0.341354	0.359491	-1.473902	-0.682861	-0.505859	0.281982	0.121162	-0.007784	-0.003505	0.405911	0.663635	-0.368903	0.508660	133.106845	-77.061993	-20.031270
62110		12.273370	-0.507282	-0.653293	2.875155	-0.073939	2.147411	-0.475089	0.490772	-1.648055	-0.677734	-0.525635	0.280273	0.122670	-0.006100	-0.006820	0.412573	0.664455	-0.363607	0.506037	129.274536	-76.533465	-16.373118
62111		12.968137	-0.231334	-1.645337	2.587736	0.832558	2.975515	-0.570988	0.614739	-1.826665	-0.663574	-0.545410	0.267578	0.129601	-0.003545	-0.016843	0.420169	0.665030	-0.357686	0.503244	125.226516	-75.911558	-12.539134
62112		13.776333	-0.275844	-2.015280	2.890606	1.328577	3.744467	-0.588608	0.635894	-2.016538	-0.661133	-0.556396	0.263428	0.137661	-0.004207	-0.020580	0.428322	0.665773	-0.351083	0.500028	121.248937	-75.141648	-8.778966
62113		14.187620	-0.881960	-1.399277	3.997844	1.174690	3.849403	-0.599064	0.621261	-2.174272	-0.635986	-0.573975	0.252930	0.141725	-0.010404	-0.014404	0.436794	0.666729	-0.343978	0.496350	117.546778	-74.229087	-5.293523
62114		14.492978	-1.209782	-0.420492	4.984080	0.590373	3.843328	-0.618389	0.610070	-2.348485	-0.622070	-0.591309	0.249023	0.144761	-0.013812	-0.004606	0.445706	0.667864	-0.336305	0.492141	114.109033	-73.166993	-2.080403
62115		14.865350	-1.628218	0.393426	6.034706	0.202072	3.873562	-0.512436	0.621279	-2.551940	-0.601318	-0.611084	0.236328	0.148441	-0.018168	0.003518	0.454682	0.669446	-0.327620	0.487618	110.990980	-71.951369	0.882997
62116		15.622882	-2.609333	-0.282353	7.208865	1.432268	4.220344	-0.364400	0.649945	-2.842683	-0.585205	-0.630859	0.230225	0.155827	-0.028316	-0.003280	0.463854	0.671628	-0.317465	0.482671	108.141192	-70.538435	3.672436
62117		17.608981	-3.845691	-1.748783	8.801312	3.570609	5.604263	-0.167361	0.668420	-3.191083	-0.562256	-0.650635	0.228516	0.175387	-0.041274	-0.018041	0.473097	0.674624	-0.305551	0.477179	105.623364	-68.898458	6.257273
62118		19.110952	-3.924907	-3.295587	9.296155	5.428369	6.787548	-0.080300	0.691057	-3.485412	-0.534912	-0.667969	0.220215	0.190271	-0.042583	-0.033598	0.482668	0.678013	-0.292293	0.471057	103.392805	-67.061872	8.613816
62119		20.339410	-4.686637	-3.915291	10.689392	6.716994	7.262220	-0.299977	0.667496	-3.658668	-0.500732	-0.689941	0.212158	0.202359	-0.050634	-0.039755	0.493175	0.680967	-0.278926	0.463964	101.371665	-65.094975	10.639728
62120		20.833349	-4.774369	-4.310807	11.360638	7.525437	7.206406	-0.644294	0.653307	-3.789380	-0.482178	-0.713867	0.203857	0.207235	-0.051817	-0.043624	0.504978	0.683026	-0.265852	0.455846	99.440853	-63.025491	12.375972
62121		22.109010	-5.879535	-3.337992	13.749075	7.492992	7.195100	-1.106931	0.695093	-3.879075	-0.452881	-0.727051	0.193359	0.219775	-0.063253	-0.033803	0.518398	0.683681	-0.253310	0.446853	97.459808	-60.884428	13.904938
62122		23.364923	-7.561985	-2.652421	16.532925	7.905189	6.747020	-1.733491	0.823599	-3.899960	-0.420898	-0.746826	0.180664	0.232003	-0.080386	-0.026799	0.533958	0.682131	-0.241664	0.437246	95.238159	-58.715114	15.325300
62123		24.551166	-9.363972	-3.156933	18.981435	9.412618	6.043523	-2.226245	1.020314	-3.835903	-0.393555	-0.764404	0.156738	0.243490	-0.098676	-0.031735	0.551012	0.678438	-0.230655	0.427675	92.804440	-56.562741	16.699451
62124		23.878355	-11.947162	-2.754434	21.306737	9.916624	3.152185	-2.271613	1.329316	-3.682424	-0.379639	-0.780029	0.128418	0.236342	-0.124153	-0.027728	0.567981	0.673413	-0.219320	0.419298	90.312910	-54.474930	18.141399
62125		20.924501	-7.173256	-6.614654	15.231565	12.052813	2.665084	-2.136524	1.295526	-3.617404	-0.350342	-0.793213	0.111328	0.207463	-0.076206	-0.066696	0.584023	0.668457	-0.207882	0.410935	88.131199	-52.391635	19.336920
62126		17.042216	-5.212585	-9.481192	11.017025	13.761368	0.021449	-0.724641	0.733171	-3.406282	-0.325439	-0.803955	0.113770	0.169149	-0.055359	-0.095237	0.594119	0.668263	-0.195849	0.402604	87.288815	-50.426370	19.879511
62127		14.820589	-2.448338	-7.144714	8.622503	10.608669	-0.337256	1.229951	0.237966	-3.429062	-0.300537	-0.812500	0.125244	0.147677	-0.026578	-0.071782	0.597028	0.674707	-0.181172	0.394341	87.935127	-48.457023	19.960335
