// General information: 
//  MT Manager version: 2019.2.0 
//  XDA version: 2019.2.0 build 3853 rev 94535 built on 2019-09-09
// Device information: 
//  DeviceId: 00B40A23
//  ProductCode: MTW2-3A7G6
//  Firmware Version: 4.3.5
//  Hardware Version: 1.1.0
// Device settings: 
//  Filter Profile: human(46.1)
//  Option Flags: Orientation Smoother Disabled, AHS Disabled, ICC Disabled
// Coordinate system: ENU
PacketCounter	SampleTimeFine	Acc_X	Acc_Y	Acc_Z	FreeAcc_E	FreeAcc_N	FreeAcc_U	Gyr_X	Gyr_Y	Gyr_Z	Mag_X	Mag_Y	Mag_Z	VelInc_X	VelInc_Y	VelInc_Z	Quat_q0	Quat_q1	Quat_q2	Quat_q3	Roll	Pitch	Yaw
61587		5.792657	4.378050	7.915287	0.229408	-0.828085	0.894104	0.032077	-0.530046	0.020607	-0.792236	0.032471	-0.375000	0.057712	0.043774	0.079313	-0.074080	-0.323037	-0.155328	-0.930609	24.393786	-35.326018	163.022525
61588		6.069016	4.393822	7.815729	0.014193	-0.806274	0.984237	0.029619	-0.639632	0.116161	-0.794434	0.030273	-0.372559	0.060414	0.043962	0.078357	-0.073962	-0.326222	-0.155023	-0.929557	24.476599	-35.700768	162.910064
61589		5.212522	4.666957	8.244619	1.012373	-1.181732	0.887904	-0.063277	-0.742403	0.229425	-0.803467	0.032227	-0.363770	0.051765	0.046755	0.082624	-0.073578	-0.329855	-0.154049	-0.928467	24.478851	-36.146375	162.839483
61590		5.263816	4.708843	8.348504	1.125173	-1.213987	0.996469	-0.075447	-0.860277	0.334135	-0.801270	0.034424	-0.354980	0.052200	0.047207	0.083692	-0.072788	-0.334183	-0.152812	-0.927185	24.458818	-36.687700	162.801427
61591		5.610038	4.542333	8.175825	0.856930	-1.055417	1.008587	-0.118834	-1.009320	0.447425	-0.805908	0.038818	-0.343994	0.055585	0.045597	0.082013	-0.071687	-0.339186	-0.151115	-0.925731	24.392550	-37.324253	162.793580
61592		5.678633	4.215933	7.705694	0.628873	-0.888588	0.589817	-0.131441	-1.169589	0.543411	-0.814941	0.038574	-0.330566	0.056220	0.042363	0.077359	-0.070254	-0.345062	-0.149146	-0.923987	24.312944	-38.076293	162.801680
61593		5.725312	4.419628	8.175004	1.034547	-1.023581	1.005018	-0.176827	-1.343662	0.678969	-0.823975	0.040527	-0.319336	0.056552	0.044462	0.082092	-0.068426	-0.351735	-0.146652	-0.922005	24.178462	-38.942008	162.850281
61594		5.164322	4.237474	8.110211	1.571528	-1.064768	0.521513	-0.164529	-1.528748	0.821838	-0.835205	0.042480	-0.303955	0.050847	0.042652	0.081458	-0.066024	-0.359420	-0.143905	-0.919646	24.026426	-39.946798	162.942262
61595		5.085302	4.043266	8.467520	2.055044	-0.901740	0.621245	-0.209450	-1.771289	0.966907	-0.835693	0.060303	-0.297607	0.049904	0.040764	0.085077	-0.063231	-0.368203	-0.140583	-0.916878	23.822880	-41.103150	163.066347
61596		5.299787	3.422343	8.591431	2.205024	-0.330060	0.610200	-0.213136	-2.079497	1.071684	-0.851563	0.062256	-0.277588	0.051916	0.034595	0.086421	-0.060149	-0.378498	-0.136951	-0.913436	23.628601	-42.453579	163.175552
61597		5.499509	4.117860	8.309405	2.105880	-1.112692	0.702424	-0.219046	-2.442263	1.196322	-0.854248	0.075439	-0.253418	0.053727	0.041594	0.083710	-0.056772	-0.390401	-0.132910	-0.909230	23.435055	-44.014207	163.270627
61598		5.264230	4.286945	8.069726	2.376591	-1.485807	0.353216	-0.263576	-2.814805	1.365944	-0.867920	0.083984	-0.226807	0.051205	0.043329	0.081368	-0.052925	-0.404079	-0.128217	-0.904146	23.205988	-45.817251	163.381804
61599		5.158430	4.973483	8.303399	2.941365	-2.253297	0.509629	-0.283199	-3.126301	1.558725	-0.875000	0.092529	-0.193848	0.049889	0.050246	0.083752	-0.048452	-0.419104	-0.122911	-0.898275	22.913280	-47.819197	163.556666
61600		5.269486	4.129811	8.991765	3.738282	-1.440495	0.656760	-0.295318	-3.436943	1.717830	-0.891357	0.109863	-0.158691	0.050782	0.041873	0.090740	-0.043448	-0.435538	-0.117118	-0.891461	22.578697	-50.027520	163.776480
61601		4.869055	3.431922	9.080292	4.427205	-0.972656	0.055071	-0.220784	-3.956029	1.817402	-0.894043	0.125244	-0.121094	0.046567	0.034850	0.091700	-0.038141	-0.454112	-0.111261	-0.883147	22.329254	-52.524055	163.930282
61602		4.743198	2.877411	9.485486	5.247334	-0.539550	-0.174192	-0.200067	-4.693242	1.872690	-0.905762	0.140625	-0.074951	0.044917	0.029298	0.095900	-0.032918	-0.475778	-0.105184	-0.872633	22.255163	-55.430094	163.880254
61603		4.586581	2.819231	10.034740	6.291363	-0.570133	-0.339674	0.004511	-5.508882	1.881832	-0.912842	0.153564	-0.017334	0.042811	0.028602	0.101555	-0.027588	-0.500629	-0.099748	-0.859453	22.575215	-58.763152	163.498834
61604		5.274665	2.548966	10.101728	6.576686	-0.337498	-0.171768	0.056006	-6.366027	1.938244	-0.913574	0.173340	0.051025	0.049247	0.025950	0.102629	-0.022278	-0.528754	-0.094192	-0.843238	23.322732	-62.564975	162.678214
61605		5.730533	1.884839	8.798632	5.816123	0.058216	-0.872754	0.157399	-7.308334	2.059526	-0.905029	0.188965	0.128418	0.053843	0.019344	0.090011	-0.016614	-0.560194	-0.088503	-0.823453	24.740545	-66.874281	161.207859
61606		9.547484	3.751575	10.410134	6.893839	-1.254209	3.008163	0.399296	-8.134670	2.303324	-0.891846	0.204346	0.203369	0.090697	0.038366	0.107932	-0.009604	-0.594292	-0.082929	-0.799905	27.239940	-71.651832	158.781271
61607		10.958176	8.097711	12.161310	9.663538	-5.423832	4.697331	0.042880	-8.417534	2.808367	-0.875000	0.235596	0.282471	0.103186	0.082430	0.126064	-0.001737	-0.628555	-0.074246	-0.774211	30.508228	-76.658225	155.409722
61608		14.392562	3.494020	12.712130	10.395906	-0.866222	6.675729	-0.417491	-8.514989	3.000188	-0.842041	0.258301	0.359619	0.137797	0.037312	0.133000	0.005389	-0.662026	-0.063044	-0.746805	36.999430	-81.685173	148.562384
61609		22.673151	3.217609	16.490337	14.794049	-0.095386	14.208170	-0.200286	-8.078267	2.743957	-0.802246	0.281250	0.427734	0.219358	0.035391	0.173830	0.012407	-0.692474	-0.053351	-0.719360	59.375484	-86.030203	125.957901
61610		22.411281	-0.159938	14.926829	14.784378	2.631198	12.531209	0.059857	-7.419129	2.154589	-0.775635	0.292725	0.480469	0.218373	0.000728	0.157441	0.018352	-0.719243	-0.046516	-0.692957	135.655103	-86.877962	49.604911
61611		22.388114	-0.331538	15.037314	16.447363	2.530520	11.406764	0.454644	-6.653551	1.593258	-0.733398	0.306641	0.528809	0.218734	-0.001912	0.157703	0.023935	-0.742221	-0.042922	-0.668350	168.299528	-83.816810	17.127721
61612		19.565873	1.523288	15.461608	17.999583	0.519278	7.500842	0.578513	-5.997898	1.112819	-0.702148	0.315918	0.570801	0.190818	0.015845	0.160433	0.028477	-0.762102	-0.041406	-0.645503	176.514950	-80.483309	9.169544
61613		15.513946	0.986124	15.083541	17.782773	0.894899	2.516934	0.532488	-5.513976	0.845782	-0.668457	0.318848	0.601563	0.150861	0.010096	0.155061	0.032069	-0.779719	-0.040648	-0.623985	179.812352	-77.336252	6.118590
61614		10.950834	1.354907	13.739324	16.039552	0.282839	-2.524486	0.142688	-4.788796	0.700605	-0.641602	0.323730	0.627930	0.106129	0.013826	0.139971	0.033799	-0.794552	-0.039098	-0.604993	-178.619684	-74.587888	4.582950
61615		15.341775	4.578358	15.236696	19.375211	-2.768976	0.450599	-0.997233	-4.717740	0.387120	-0.616699	0.319580	0.645752	0.149681	0.046847	0.155696	0.030061	-0.808854	-0.035308	-0.586178	-178.666893	-71.876408	4.032521
61616		36.240514	4.039215	24.684290	35.121841	-1.017826	16.727914	-1.072130	-1.254101	-0.590964	-0.618408	0.301758	0.643799	0.360969	0.040655	0.248892	0.023735	-0.812543	-0.034721	-0.581382	179.680611	-71.163537	5.122120
61617		14.530818	-5.520069	20.663541	23.634689	7.621916	-2.608747	-0.287713	1.434520	-1.447696	-0.640381	0.290283	0.635254	0.146382	-0.055961	0.205668	0.018590	-0.808134	-0.039572	-0.587374	176.957413	-71.957143	7.815751
61618		6.540311	-5.954513	17.040494	17.559469	7.690334	-8.760262	1.277798	2.802930	-2.252942	-0.671875	0.287598	0.595703	0.067094	-0.061378	0.169084	0.017649	-0.799152	-0.052129	-0.598604	173.102503	-73.454076	12.613314
61619		-0.883904	-0.363739	13.653756	12.811377	1.687445	-14.322355	2.039730	3.401126	-2.648596	-0.691650	0.273926	0.573730	-0.006576	-0.004933	0.136616	0.018737	-0.787898	-0.068478	-0.611700	167.801451	-75.123202	19.330044
61620		-4.117062	3.503438	11.139490	10.320185	-2.476877	-16.188242	1.785443	3.506636	-2.631178	-0.718018	0.260254	0.538818	-0.038749	0.034554	0.112398	0.018878	-0.775832	-0.083918	-0.625049	160.863655	-76.664026	27.529989
61621		-4.452094	6.387229	9.860927	9.753367	-5.414485	-15.590844	0.794289	3.487703	-2.324982	-0.733398	0.246582	0.512451	-0.042046	0.063976	0.099611	0.016136	-0.763729	-0.095048	-0.638298	152.359212	-77.970360	36.709155
61622		-3.533100	5.502111	9.048785	9.207572	-4.535240	-14.202724	-0.405016	3.499399	-1.854648	-0.759521	0.226318	0.481934	-0.033229	0.055520	0.090969	0.010279	-0.751497	-0.100500	-0.651956	142.324694	-79.097883	46.701674
61623		-2.407991	2.004723	8.373932	8.266745	-1.103844	-13.033198	-1.121655	3.597570	-1.456950	-0.774902	0.210449	0.453613	-0.022421	0.020685	0.084038	0.003105	-0.738966	-0.102089	-0.665956	130.694482	-80.021103	57.869648
61624		-0.255045	-0.426989	7.986785	7.793113	1.477350	-10.867547	-1.205975	3.786908	-1.219233	-0.790283	0.201416	0.425049	-0.001061	-0.003779	0.079921	-0.003535	-0.725518	-0.102461	-0.680524	117.025025	-80.659159	71.024126
61625		1.574735	-1.274121	7.700097	7.492103	2.517871	-8.855983	-0.899783	4.115719	-1.099682	-0.807373	0.178955	0.389893	0.017259	-0.012488	0.076713	-0.008446	-0.710788	-0.103413	-0.695712	101.538750	-80.844548	86.186703
61626		2.666435	-0.639388	7.525434	7.338755	2.056213	-7.351952	-0.471067	4.492799	-1.050485	-0.818359	0.165527	0.341553	0.028312	-0.006363	0.074646	-0.011507	-0.694319	-0.105629	-0.711780	85.350832	-80.392561	102.308312
61627		3.602332	1.399511	7.077814	6.967663	0.198350	-5.759334	-0.198406	4.897329	-0.977787	-0.838623	0.163086	0.301758	0.037810	0.013883	0.069853	-0.013099	-0.676172	-0.108540	-0.728586	70.575705	-79.251922	117.197845
61628		3.780053	2.841325	6.646427	6.485672	-1.185375	-5.011364	-0.149592	5.257506	-0.873987	-0.847168	0.154053	0.255371	0.039653	0.028292	0.065417	-0.013990	-0.656198	-0.111213	-0.746217	58.250096	-77.480079	129.681330
61629		3.922807	3.685265	6.376254	6.041203	-1.974130	-4.407453	-0.225801	5.522069	-0.782834	-0.851318	0.138672	0.208984	0.041111	0.036765	0.062603	-0.014588	-0.634917	-0.113256	-0.764094	48.737062	-75.232723	139.331329
61630		4.248335	3.986300	6.282152	5.611465	-2.188631	-3.721072	-0.326045	5.699170	-0.736264	-0.855713	0.131836	0.158203	0.044395	0.039803	0.061510	-0.015266	-0.612332	-0.114675	-0.782091	41.509815	-72.610875	146.645724
61631		5.018936	4.158850	6.504023	5.281024	-2.163511	-2.587997	-0.395970	5.817014	-0.751889	-0.857666	0.123291	0.107422	0.052207	0.041521	0.063459	-0.016088	-0.588890	-0.115797	-0.799713	36.135966	-69.744814	152.078227
61632		5.905404	4.478164	6.947263	5.008958	-2.229271	-1.262541	-0.441733	5.888993	-0.833049	-0.861816	0.114258	0.054199	0.061249	0.044680	0.067592	-0.017369	-0.564443	-0.116868	-0.816972	32.113423	-66.665748	156.126014
61633		7.035292	4.984060	7.559995	4.671156	-2.405703	0.377777	-0.493050	5.948456	-0.954522	-0.847900	0.101318	0.007813	0.072794	0.049680	0.073336	-0.019185	-0.539319	-0.117984	-0.833575	29.108967	-63.456902	159.123274
61634		8.202921	5.471447	8.196737	4.142453	-2.546763	2.049727	-0.572730	5.997832	-1.100221	-0.838623	0.090576	-0.058594	0.084734	0.054483	0.079297	-0.021762	-0.513224	-0.119093	-0.849673	26.801653	-60.107496	161.368002
61635		9.280409	5.603459	9.103255	3.667367	-2.302448	3.662511	-0.692489	6.046592	-1.233854	-0.815430	0.069092	-0.095947	0.095839	0.055758	0.087972	-0.025178	-0.486513	-0.119891	-0.865042	24.977533	-56.685743	163.039562
61636		10.806809	5.406319	9.705914	2.466352	-1.716927	5.389688	-0.797602	6.065283	-1.307337	-0.797119	0.056152	-0.135742	0.111292	0.053720	0.093502	-0.029195	-0.459018	-0.120294	-0.879761	23.452780	-53.190179	164.332783
61637		11.933028	5.463897	10.934780	1.816194	-1.328047	7.118442	-0.846438	6.098327	-1.265226	-0.771973	0.041260	-0.170898	0.122929	0.054321	0.105405	-0.033027	-0.431117	-0.120278	-0.893633	22.106304	-49.691840	165.430057
61638		14.607957	5.683058	12.411651	0.134538	-0.806258	10.160777	-0.886927	6.117042	-1.154502	-0.747070	0.037354	-0.204346	0.150105	0.056508	0.119315	-0.036472	-0.402585	-0.119725	-0.906786	20.850560	-46.168880	166.425662
61639		17.931990	5.270152	13.432021	-2.717164	0.323473	13.036448	-0.906891	6.228625	-1.016554	-0.730957	0.026611	-0.226318	0.183648	0.052367	0.128407	-0.039164	-0.373403	-0.118706	-0.919209	19.653387	-42.623093	167.389275
61640		21.723235	5.413806	14.204630	-6.475479	0.899022	15.877602	-0.940304	6.388607	-0.879592	-0.714844	0.013672	-0.257080	0.221852	0.053814	0.134754	-0.041215	-0.342989	-0.117188	-0.931089	18.487144	-38.979808	168.337776
61641		26.086210	5.514664	14.159066	-11.597902	1.361927	18.020249	-1.058701	6.598787	-0.665123	-0.709961	0.000488	-0.285889	0.265519	0.054987	0.132589	-0.042241	-0.311505	-0.114665	-0.942355	17.273116	-35.268535	169.338505
61642		29.815623	5.252393	13.081788	-17.147397	1.741422	18.297647	-1.203306	6.817788	-0.383908	-0.701172	0.000732	-0.334717	0.302477	0.052691	0.120238	-0.042048	-0.278583	-0.110940	-0.953056	15.981445	-31.445128	170.421635
61643		32.963209	6.065099	10.386075	-23.159075	0.501036	16.533446	-1.399964	6.957776	-0.036382	-0.683105	-0.003174	-0.376953	0.332979	0.061262	0.091887	-0.040287	-0.244977	-0.105685	-0.962909	14.592020	-27.598088	171.606273
61644		34.768784	6.786023	5.938969	-28.566345	-1.345989	11.908107	-1.734240	6.928084	0.412979	-0.660889	0.001709	-0.425781	0.349311	0.069022	0.046711	-0.036780	-0.211226	-0.098138	-0.971802	13.028039	-23.785908	172.909957
61645		35.821931	4.479586	-0.442954	-33.314571	-0.765980	4.062009	-2.128241	6.654595	0.813152	-0.640869	0.009033	-0.477295	0.357611	0.046116	-0.016823	-0.031789	-0.178808	-0.088076	-0.979418	11.297089	-20.160765	174.267402
61646		36.065864	-0.788762	-7.207763	-36.391862	2.739283	-5.224938	-2.228412	6.008017	0.847112	-0.614746	0.027344	-0.520020	0.358310	-0.007249	-0.082783	-0.026997	-0.149247	-0.077303	-0.985404	9.648790	-16.855702	175.428426
61647		39.025175	-4.927427	-15.922690	-41.715022	5.465897	-15.326847	-1.912391	5.072810	0.337867	-0.585693	0.030273	-0.546631	0.386139	-0.050202	-0.168579	-0.024785	-0.124107	-0.068258	-0.989608	8.371249	-14.019391	176.099476
61648		46.867669	-4.883022	-29.152645	-52.073718	4.426468	-28.213028	-1.855732	4.089006	-0.630626	-0.561279	0.037598	-0.571533	0.462430	-0.053056	-0.300545	-0.027662	-0.103388	-0.059942	-0.992448	7.314738	-11.648039	176.059763
61649		43.599482	-4.820698	-36.236696	-49.512700	4.299132	-37.505268	-2.301256	2.609964	-1.703802	-0.552490	0.042236	-0.587158	0.430767	-0.056100	-0.367396	-0.036513	-0.089623	-0.049726	-0.994063	6.145311	-10.052530	175.251830
61650		24.712449	-24.626932	-36.338939	-29.043109	23.485513	-43.614558	-0.893142	-0.184005	-1.892249	-0.558594	0.028564	-0.573486	0.245103	-0.250214	-0.362052	-0.046349	-0.089967	-0.046080	-0.993798	5.824768	-10.052295	174.146747
61651		-9.377434	-18.173240	-15.467053	7.637878	15.466826	-28.780424	2.624149	-4.119127	-2.070693	-0.595947	0.003418	-0.543945	-0.092391	-0.178704	-0.158941	-0.056384	-0.110565	-0.059051	-0.990510	7.612401	-12.261414	172.665192
61652		16.641503	3.876646	19.146643	-11.530799	0.538861	13.102458	2.483058	-5.588292	-0.784880	-0.626953	-0.008301	-0.516846	0.161115	0.035708	0.196474	-0.060499	-0.138737	-0.070130	-0.985989	9.255398	-15.372987	171.725739
61653		12.109198	5.144590	22.277484	-5.396337	-0.531758	15.484023	1.916825	-2.716592	0.920570	-0.644531	-0.013184	-0.492188	0.117815	0.049845	0.224873	-0.055571	-0.153044	-0.078080	-0.983561	10.276436	-17.000383	171.992579
61654		0.163889	-9.391473	7.026121	2.782844	10.286742	-4.911611	3.157952	-2.093772	1.627890	-0.651367	-0.013428	-0.467773	0.001684	-0.094995	0.068784	-0.045931	-0.164917	-0.091718	-0.980959	11.862652	-18.368568	172.713762
61655		-3.111831	9.337724	1.763076	3.100299	-9.168567	-7.302273	3.063048	-3.482003	1.881897	-0.669434	-0.011719	-0.445557	-0.032310	0.092798	0.018499	-0.035756	-0.183541	-0.104332	-0.976805	13.397202	-20.555067	173.367262
61656		9.042706	19.204406	7.510292	-5.832061	-16.282167	4.601924	1.987132	-4.265094	1.570069	-0.689941	-0.000977	-0.405762	0.087264	0.191966	0.078894	-0.028455	-0.205579	-0.111753	-0.971822	14.416076	-23.154575	173.677456
61657		14.844072	18.065035	12.173990	-8.355702	-13.458238	11.255437	1.306316	-4.255017	0.238671	-0.707520	-0.010254	-0.369873	0.145575	0.180011	0.126035	-0.028322	-0.226554	-0.117194	-0.966507	15.385661	-25.549745	173.134558
61658		16.351368	4.612941	11.261906	-9.264469	-0.171478	8.340809	0.793184	-4.369068	-0.502657	-0.720703	-0.012939	-0.345459	0.161114	0.045266	0.116337	-0.032386	-0.247528	-0.120924	-0.960759	16.322100	-27.891395	172.059666
61659		21.604356	-12.917200	12.605477	-12.416535	18.020988	7.893718	1.335606	-3.690551	-0.241765	-0.722900	-0.012939	-0.312012	0.213522	-0.130287	0.129143	-0.034120	-0.265310	-0.126990	-0.955154	17.497004	-29.878281	171.205910
61660		17.479244	0.693168	11.054664	-8.984538	4.242597	8.338109	1.726303	-3.087372	0.215731	-0.722900	-0.010986	-0.296631	0.173051	0.006149	0.113282	-0.032727	-0.280559	-0.134365	-0.949822	18.740540	-31.612266	170.704081
61661		19.753299	19.012245	10.884639	-10.222263	-12.807397	14.714205	1.535791	-1.808561	-0.343954	-0.711670	-0.015137	-0.281006	0.196855	0.188931	0.112082	-0.033421	-0.289181	-0.141807	-0.946123	19.949316	-32.528750	170.079371
61662		6.175632	5.063773	7.950738	-0.557949	-1.929295	1.276026	0.537731	-1.023970	-0.514681	-0.709229	-0.017334	-0.283203	0.061477	0.050265	0.079958	-0.035774	-0.293872	-0.144894	-0.944121	20.564781	-32.992938	169.509578
61663		11.196436	-1.083149	9.500091	-3.851751	5.209403	3.408864	0.830887	-0.461478	-0.485839	-0.697998	-0.019287	-0.285400	0.111717	-0.011498	0.095212	-0.037183	-0.295876	-0.149417	-0.942735	21.268903	-33.144573	169.086299
61664		6.531870	8.544489	7.602979	-0.879562	-5.085299	2.305243	0.528259	-0.212837	-0.493195	-0.691406	-0.016846	-0.298828	0.065448	0.085082	0.076324	-0.038853	-0.296738	-0.152566	-0.941892	21.771193	-33.170624	168.719548
61665		10.621697	4.185250	6.384762	-5.002275	-0.523011	2.262303	0.217224	-0.062353	-0.361785	-0.677734	-0.023193	-0.305420	0.106272	0.041591	0.063926	-0.040285	-0.296829	-0.154086	-0.941556	22.027313	-33.130484	168.473474
61666		7.624924	4.060829	7.076636	-2.144883	-0.674105	1.125936	0.204997	-0.108824	-0.313990	-0.668945	-0.014160	-0.312256	0.076274	0.040416	0.070849	-0.041512	-0.297275	-0.155470	-0.941134	22.268417	-33.137036	168.246621
61667		5.986335	3.032599	7.836897	-0.376103	0.263006	0.494548	0.168704	-0.098302	-0.337160	-0.668945	-0.016357	-0.323242	0.059876	0.030159	0.078424	-0.042927	-0.297542	-0.156716	-0.940780	22.493002	-33.119585	168.007235
61668		6.088335	3.728560	8.063584	-0.314422	-0.280240	0.948997	0.198003	-0.104409	-0.362500	-0.664551	-0.014160	-0.332275	0.060909	0.037095	0.080704	-0.044388	-0.297927	-0.158139	-0.940352	22.746295	-33.111695	167.750915
61669		6.439559	5.004425	7.474539	-0.921142	-1.549815	1.102001	0.128433	-0.137999	-0.263271	-0.668945	-0.016357	-0.341064	0.064410	0.049911	0.074822	-0.045547	-0.298428	-0.159076	-0.939979	22.927978	-33.130039	167.547770
61670		5.779025	4.984778	7.699102	-0.239898	-1.567364	0.911449	0.066564	-0.167668	-0.152037	-0.664551	-0.016357	-0.347900	0.057764	0.049778	0.077056	-0.046264	-0.299246	-0.159555	-0.939603	23.043166	-33.201238	167.406980
61671		6.280057	4.880149	7.676615	-0.645878	-1.374391	1.136251	0.004030	-0.225051	-0.029747	-0.673584	-0.011963	-0.361084	0.062721	0.048791	0.076838	-0.046581	-0.300312	-0.159538	-0.939250	23.086282	-33.317216	167.327278
61672		5.387309	4.554949	8.005088	0.296303	-1.142657	0.791961	-0.019389	-0.263917	0.039381	-0.685059	-0.007568	-0.374512	0.053758	0.045568	0.080117	-0.046605	-0.301714	-0.159306	-0.938839	23.101109	-33.481895	167.280667
61673		5.416141	4.331863	7.637013	0.085730	-1.036330	0.450946	-0.099049	-0.302735	0.113530	-0.689941	-0.000977	-0.390137	0.054021	0.043387	0.076430	-0.046466	-0.303235	-0.158570	-0.938480	23.047154	-33.670984	167.270362
61674		6.175661	4.107870	7.378747	-0.649409	-0.774549	0.600646	-0.156785	-0.315429	0.177058	-0.694336	0.000977	-0.387939	0.061604	0.041191	0.073852	-0.046094	-0.304953	-0.157474	-0.938126	22.942828	-33.893578	167.297168
61675		6.068263	4.209743	7.429488	-0.498437	-0.903891	0.612159	-0.197875	-0.312852	0.216687	-0.708008	0.005371	-0.394775	0.060521	0.042237	0.074348	-0.045629	-0.306577	-0.156114	-0.937847	22.796671	-34.111008	167.350598
61676		5.907927	3.502153	7.344268	-0.390958	-0.316748	0.229901	-0.228564	-0.316805	0.240664	-0.712891	0.014160	-0.403809	0.058921	0.035176	0.073496	-0.045070	-0.308333	-0.154583	-0.937552	22.627783	-34.348305	167.418948
61677		5.103487	3.326170	8.028542	0.693892	-0.147283	0.240329	-0.204857	-0.322889	0.240329	-0.719971	0.020508	-0.401611	0.050865	0.033405	0.080333	-0.044512	-0.310018	-0.153151	-0.937258	22.469197	-34.575989	167.486647
61678		4.393493	3.398937	8.451789	1.552854	-0.264430	0.177650	-0.205015	-0.315451	0.237446	-0.733887	0.031494	-0.408447	0.043761	0.034128	0.084552	-0.043932	-0.311766	-0.151734	-0.936936	22.313243	-34.811456	167.555136
61679		5.849809	2.752936	7.635488	-0.078232	0.366544	0.185261	-0.190824	-0.294428	0.244735	-0.743164	0.040283	-0.413086	0.058352	0.027674	0.076414	-0.043309	-0.313320	-0.150365	-0.936667	22.155231	-35.024691	167.635106
61680		6.221791	3.000102	7.174491	-0.615846	0.054020	0.127249	-0.086602	-0.273805	0.224316	-0.750000	0.042236	-0.410889	0.062086	0.030102	0.071817	-0.042574	-0.314885	-0.149531	-0.936309	22.064212	-35.234756	167.707745
61681		6.184302	3.261883	7.166597	-0.555772	-0.223883	0.181635	-0.066679	-0.274395	0.235422	-0.754639	0.046631	-0.406494	0.061706	0.032715	0.071740	-0.041785	-0.316363	-0.148761	-0.935969	21.976509	-35.435104	167.788312
61682		5.219858	3.479312	7.793810	0.629795	-0.460280	0.161648	-0.104450	-0.301633	0.240093	-0.770752	0.055176	-0.408691	0.052039	0.034896	0.077998	-0.041025	-0.318064	-0.147811	-0.935577	21.872422	-35.663194	167.865070
61683		5.575462	2.952472	7.618603	0.267349	0.033175	0.075347	-0.163781	-0.352512	0.256594	-0.777344	0.052734	-0.410889	0.055582	0.029659	0.076260	-0.040349	-0.319901	-0.146536	-0.935181	21.731614	-35.909351	167.940425
61684		5.707846	3.023435	7.202423	-0.050271	-0.142455	-0.139396	-0.151031	-0.369505	0.245319	-0.782227	0.063965	-0.402344	0.056908	0.030359	0.072107	-0.039689	-0.321909	-0.145344	-0.934706	21.607737	-36.174261	168.004476
61685		6.443346	2.871122	6.782489	-0.851611	-0.003662	-0.064007	-0.158412	-0.402986	0.260958	-0.780273	0.072754	-0.404785	0.064259	0.028849	0.067932	-0.039020	-0.323982	-0.144075	-0.934214	21.474419	-36.447955	168.071435
61686		6.185203	2.652207	7.309098	-0.283741	0.263787	0.115230	-0.145618	-0.403279	0.264118	-0.789551	0.079346	-0.398193	0.061669	0.026657	0.073196	-0.038288	-0.326158	-0.142871	-0.933672	21.349842	-36.734603	168.141001
61687		5.188053	2.397040	7.496670	0.651344	0.364254	-0.415632	-0.112989	-0.414304	0.242059	-0.791748	0.076904	-0.389160	0.051696	0.024075	0.075060	-0.037642	-0.328275	-0.141840	-0.933113	21.250201	-37.010176	168.194332
61688		4.680515	2.159787	7.986835	1.393469	0.605757	-0.429056	-0.083681	-0.453494	0.213951	-0.798340	0.076904	-0.386963	0.046601	0.021681	0.079965	-0.037078	-0.330657	-0.140995	-0.932422	21.187639	-37.312970	168.218902
61689		5.554066	1.733896	7.691503	0.565275	1.069365	-0.244512	-0.044450	-0.498368	0.162749	-0.803223	0.083252	-0.378174	0.055335	0.017401	0.077049	-0.036748	-0.333118	-0.140397	-0.931650	21.171938	-37.616947	168.198074
61690		5.745158	1.645746	7.583347	0.399468	1.150697	-0.234661	0.016359	-0.522334	0.096611	-0.805664	0.090088	-0.375977	0.057245	0.016479	0.075985	-0.036613	-0.335750	-0.140196	-0.930740	21.225684	-37.931983	168.125702
61691		5.325647	2.014211	7.669568	0.840535	0.749672	-0.327273	0.071429	-0.560419	0.030753	-0.810059	0.087646	-0.367188	0.053038	0.020123	0.076852	-0.036746	-0.338423	-0.140346	-0.929743	21.342441	-38.241605	167.998065
61692		5.266816	2.269247	7.706772	0.974227	0.509323	-0.269398	0.089092	-0.602542	0.006042	-0.810059	0.087646	-0.364990	0.052435	0.022660	0.077236	-0.036966	-0.341371	-0.140617	-0.928615	21.491224	-38.580106	167.840580
61693		5.651621	2.385987	7.987157	0.926844	0.534412	0.201472	0.101477	-0.679086	-0.013414	-0.812256	0.089844	-0.360596	0.056246	0.023815	0.080075	-0.037336	-0.344563	-0.140956	-0.927369	21.667378	-38.943125	167.647451
61694		5.965883	2.732969	7.619012	0.531973	0.178604	0.226976	0.138534	-0.751163	-0.028899	-0.821045	0.083008	-0.344727	0.059376	0.027268	0.076432	-0.037737	-0.348174	-0.141485	-0.925923	21.889568	-39.352257	167.420934
61695		6.759878	3.099283	6.928023	-0.430742	-0.186982	0.340043	0.161346	-0.824613	-0.004529	-0.823486	0.087402	-0.342529	0.067313	0.030935	0.069583	-0.038064	-0.352048	-0.142055	-0.924356	22.127741	-39.793350	167.187627
61696		6.020024	3.769423	7.493464	0.607801	-0.809387	0.462331	0.143722	-0.907566	0.070130	-0.830078	0.087158	-0.331543	0.059846	0.037661	0.075234	-0.038108	-0.356440	-0.142399	-0.922616	22.344716	-40.305397	166.978167
61697		5.731235	3.671775	7.844649	1.154566	-0.679464	0.486431	0.118967	-1.032414	0.169897	-0.827637	0.082764	-0.320313	0.056875	0.036719	0.078763	-0.037852	-0.361373	-0.142418	-0.920703	22.526699	-40.893328	166.798807
61698		5.188539	3.461988	8.610189	2.185418	-0.397290	0.584731	0.116352	-1.211615	0.269765	-0.838867	0.082520	-0.313721	0.051316	0.034639	0.086434	-0.037240	-0.367280	-0.142213	-0.918419	22.703139	-41.608828	166.632221
61699		5.013653	3.602641	8.726551	2.540331	-0.546489	0.556225	0.116015	-1.463081	0.368472	-0.843262	0.082275	-0.295898	0.049430	0.036067	0.087650	-0.036379	-0.374303	-0.141765	-0.915684	22.884427	-42.467459	166.456428
61700		5.889688	4.266728	8.326283	1.839594	-1.143142	1.028256	0.120112	-1.774902	0.513704	-0.847900	0.084473	-0.280273	0.058045	0.042767	0.083806	-0.035039	-0.382916	-0.141004	-0.912286	23.071744	-43.533310	166.282520
61701		5.630387	4.932973	8.220013	2.192711	-1.883368	0.922494	0.067089	-2.092325	0.725401	-0.854736	0.088623	-0.258057	0.055260	0.049504	0.082798	-0.033080	-0.392991	-0.139517	-0.908295	23.193949	-44.803038	166.158140
61702		5.776346	4.736642	8.301812	2.398393	-1.703942	0.960393	0.027323	-2.431016	0.978881	-0.868652	0.101807	-0.238525	0.056516	0.047634	0.083717	-0.030257	-0.404797	-0.137285	-0.903536	23.245498	-46.318385	166.107801
61703		5.886525	4.512439	8.603222	2.837241	-1.474307	1.086620	0.005999	-2.853230	1.209929	-0.871338	0.110352	-0.211914	0.057356	0.045472	0.086859	-0.026740	-0.418500	-0.134387	-0.897821	23.255600	-48.098076	166.094763
61704		5.464208	4.561522	9.758406	4.356130	-1.426788	1.361552	-0.021934	-3.373903	1.435211	-0.882813	0.119141	-0.176514	0.052657	0.046009	0.098479	-0.022593	-0.434643	-0.130795	-0.890768	23.254067	-50.212353	166.080068
61705		4.612908	3.563016	10.584366	5.878190	-0.518892	0.730450	0.048607	-4.015077	1.604040	-0.899170	0.138672	-0.139160	0.043704	0.035961	0.106746	-0.017971	-0.453507	-0.127014	-0.881973	23.362708	-52.692744	165.973084
61706		3.548728	3.963325	11.545161	7.790408	-0.962681	0.184252	0.116870	-4.898304	1.685041	-0.901611	0.149414	-0.086182	0.032311	0.039847	0.116292	-0.013372	-0.476131	-0.123209	-0.870598	23.760691	-55.663709	165.564565
61707		3.221025	3.314908	11.317494	8.252774	-0.520206	-0.811468	0.258974	-5.986220	1.737124	-0.908691	0.162598	-0.028564	0.028515	0.033260	0.114108	-0.008884	-0.503070	-0.119714	-0.855868	24.689681	-59.204035	164.635385
61708		4.114802	4.635256	11.851905	9.050861	-1.665968	-0.111704	0.420353	-7.215610	1.861349	-0.911621	0.182373	0.046387	0.036404	0.046455	0.119987	-0.004173	-0.534805	-0.116411	-0.836908	26.437102	-63.404970	162.918293
61709		5.106233	5.352159	11.818168	9.471508	-2.334883	0.142477	0.571401	-8.472506	2.153127	-0.900879	0.199951	0.125732	0.045416	0.053689	0.120339	0.001426	-0.571027	-0.112730	-0.813153	29.402706	-68.277389	160.026591
61710		7.885429	5.262926	11.943426	9.630154	-1.982501	1.834467	0.794334	-9.768537	2.593078	-0.888184	0.222168	0.214111	0.072207	0.053110	0.123281	0.008719	-0.611513	-0.108468	-0.783716	34.882915	-73.821125	154.719193
61711		13.409036	11.349728	15.631356	14.128060	-6.837153	7.684147	0.240274	-9.935482	3.138801	-0.857666	0.251465	0.308838	0.124307	0.115307	0.162791	0.016338	-0.651316	-0.100076	-0.752001	44.492119	-79.373641	144.992254
61712		18.009875	3.816512	14.706759	13.228045	0.423667	9.669461	-0.445294	-9.745495	3.461797	-0.813477	0.276611	0.390137	0.171957	0.041529	0.155491	0.022982	-0.688884	-0.087785	-0.719169	69.449257	-84.201561	119.546755
61713		28.124090	1.068392	14.913260	14.780204	3.457373	18.176188	-0.355359	-8.772706	3.089126	-0.775879	0.301514	0.462646	0.274132	0.015235	0.161239	0.028975	-0.721093	-0.076759	-0.687963	129.026215	-85.287260	59.556561
61714		24.612541	-2.439029	11.612110	13.056212	5.716099	13.490970	0.213079	-7.588508	2.194099	-0.744873	0.313232	0.510986	0.241735	-0.021852	0.125326	0.034330	-0.747464	-0.070608	-0.659646	161.818978	-82.295171	26.711098
61715		21.044970	4.199411	14.981062	18.482916	-0.798451	8.692482	0.248377	-6.554624	1.648783	-0.702393	0.320557	0.552979	0.205035	0.043508	0.156644	0.038347	-0.769214	-0.066328	-0.634382	172.541167	-78.824308	15.988814
61716		17.653412	3.520118	16.561544	20.296498	-0.243173	3.830777	-0.118263	-5.654472	1.296340	-0.666748	0.330078	0.590332	0.171526	0.036424	0.170491	0.040085	-0.787284	-0.062006	-0.612154	177.037884	-75.661329	11.306958
61717		14.871978	1.125403	15.233321	18.622892	1.643096	0.429684	-0.516019	-4.407493	0.994224	-0.635010	0.323975	0.614746	0.145256	0.012380	0.155529	0.039704	-0.801003	-0.057358	-0.594582	179.090181	-73.152322	8.866829
61718		-3.175155	2.946437	17.871797	16.269583	-0.813849	-18.342215	-1.026077	-4.042707	0.498982	-0.619141	0.326416	0.643311	-0.035428	0.030293	0.177873	0.035879	-0.813180	-0.053080	-0.578475	179.466122	-70.842094	7.849006
61719		41.733251	4.574765	26.752436	39.458476	0.462547	20.536081	-1.404314	-1.678055	-0.412409	-0.616211	0.304199	0.641602	0.415166	0.046783	0.270688	0.028513	-0.818146	-0.050971	-0.572036	178.058387	-69.871906	8.486268
61720		18.963111	-1.059474	27.137318	31.531856	4.893128	-0.930538	-0.793845	2.668222	-1.518640	-0.642578	0.290283	0.610840	0.193147	-0.010982	0.268855	0.021561	-0.810100	-0.054502	-0.583355	174.858512	-71.352169	11.390399
61721		3.940043	-3.579888	20.596044	20.273132	5.925048	-12.337181	0.280712	4.266848	-2.272558	-0.671387	0.276611	0.582520	0.043369	-0.036565	0.205012	0.017210	-0.796790	-0.064027	-0.600608	169.905160	-73.601395	16.749062
61722		-2.644904	0.713807	16.055725	14.869146	0.836499	-16.403853	0.964314	4.916525	-2.700335	-0.706543	0.253662	0.538818	-0.022399	0.006683	0.161174	0.014472	-0.780690	-0.077197	-0.619963	162.425838	-75.985065	25.063135
61723		-6.843562	3.772870	12.367856	11.219001	-2.952413	-18.723173	0.723565	4.878858	-2.733925	-0.737549	0.237793	0.501465	-0.064870	0.038180	0.125428	0.010683	-0.764173	-0.089703	-0.638654	151.901120	-77.959577	36.285081
61724		-6.443339	6.339193	10.448721	10.255920	-5.691125	-17.110701	-0.159459	4.618484	-2.521479	-0.754639	0.215332	0.466553	-0.061192	0.064261	0.105874	0.004044	-0.747955	-0.098514	-0.656386	138.283450	-79.324072	50.070222
61725		-3.139174	5.849868	9.820823	10.232374	-4.897426	-13.248941	-1.213788	4.486369	-2.117718	-0.778564	0.190430	0.431885	-0.028558	0.059408	0.098511	-0.005252	-0.731994	-0.102302	-0.673567	122.462258	-80.069737	65.437503
61726		0.458559	2.619833	9.437943	9.714190	-1.308873	-9.594593	-1.785390	4.681212	-1.759376	-0.795898	0.172363	0.390137	0.007024	0.026984	0.093995	-0.015371	-0.714923	-0.102781	-0.691437	104.799440	-80.227180	82.313685
61727		3.505648	-0.311532	9.120794	9.007217	1.973250	-6.567550	-1.644972	5.099563	-1.574536	-0.811035	0.154541	0.354980	0.037345	-0.002658	0.090298	-0.024081	-0.696106	-0.103049	-0.710097	86.933767	-79.622461	99.494581
61728		4.789703	-1.058576	8.966163	8.510052	2.915226	-4.964080	-1.057662	5.614217	-1.493580	-0.826416	0.138672	0.300049	0.050311	-0.010486	0.088327	-0.030220	-0.674856	-0.105084	-0.729804	70.948388	-78.145834	115.153211
61729		4.997151	1.001827	8.051362	7.463031	0.902208	-3.959491	-0.484982	6.052276	-1.390915	-0.839355	0.123047	0.251465	0.052445	0.009852	0.078927	-0.033750	-0.651669	-0.108844	-0.749894	58.506130	-75.934552	127.627698
61730		4.883408	3.680567	7.113505	6.411386	-1.750892	-3.194876	-0.297216	6.369936	-1.175124	-0.854736	0.111816	0.191895	0.051280	0.036613	0.069473	-0.035699	-0.626622	-0.112532	-0.770329	49.035969	-73.211110	137.260309
61731		4.927297	5.156328	6.371966	5.379123	-3.196279	-2.581580	-0.435339	6.548257	-0.897205	-0.854492	0.098633	0.134521	0.051552	0.051472	0.061944	-0.036826	-0.600506	-0.114747	-0.790487	41.790153	-70.208778	144.622285
61732		5.171506	5.387944	6.042626	4.542092	-3.374816	-2.051227	-0.641825	6.600488	-0.660754	-0.854248	0.092285	0.074707	0.053845	0.053894	0.058499	-0.037621	-0.573442	-0.115305	-0.810218	36.070479	-67.006690	150.356390
61733		5.877104	5.221096	6.247193	3.961287	-3.030952	-1.099573	-0.753199	6.534392	-0.531781	-0.844971	0.081543	0.023926	0.060904	0.052281	0.060308	-0.038157	-0.546243	-0.114917	-0.828828	31.639212	-63.729398	154.750964
61734		7.043322	5.119289	6.832121	3.422262	-2.622107	0.378880	-0.759208	6.403514	-0.535809	-0.838135	0.074951	-0.029297	0.072705	0.051253	0.065823	-0.038744	-0.518800	-0.114406	-0.846320	28.233450	-60.374589	158.111382
61735		8.377239	5.151148	7.820638	2.997698	-2.252748	2.177512	-0.701918	6.254725	-0.649349	-0.815186	0.060059	-0.073486	0.086326	0.051502	0.075352	-0.039723	-0.491599	-0.114247	-0.862380	25.701518	-57.015118	160.599318
61736		9.946561	5.653684	8.636316	2.108668	-2.315897	4.173455	-0.664336	6.124718	-0.758295	-0.799072	0.051514	-0.120117	0.102258	0.056432	0.083072	-0.041174	-0.464220	-0.114377	-0.877338	23.756106	-53.623484	162.490440
61737		11.304809	5.751381	9.583919	1.224891	-2.000598	5.908337	-0.657019	6.028315	-0.745801	-0.771973	0.041016	-0.157715	0.116078	0.057392	0.092182	-0.042511	-0.437032	-0.114385	-0.891130	22.158208	-50.280168	164.036977
61738		12.675067	5.727167	10.957483	0.461037	-1.502718	7.821430	-0.611196	5.954893	-0.613167	-0.753662	0.034912	-0.186523	0.130109	0.057203	0.105559	-0.043219	-0.409645	-0.114190	-0.904038	20.753191	-46.953357	165.431482
61739		15.493717	5.651188	12.578762	-1.314359	-0.687643	10.872888	-0.517883	5.901200	-0.416431	-0.737549	0.021973	-0.204102	0.158672	0.056502	0.120996	-0.042779	-0.382475	-0.113898	-0.915920	19.503154	-43.700469	166.767268
61740		19.338616	4.394064	13.337063	-4.803526	1.247751	13.561842	-0.345312	5.959130	-0.258947	-0.728271	0.015625	-0.237305	0.197300	0.043910	0.127454	-0.041276	-0.354614	-0.114013	-0.927117	18.424166	-40.400445	168.071820
61741		23.011508	3.472927	13.446706	-8.933908	2.658388	15.392496	-0.059496	6.093072	-0.250957	-0.728027	0.006836	-0.268066	0.234111	0.034476	0.127364	-0.039056	-0.326085	-0.115359	-0.937462	17.630440	-37.040146	169.281023
61742		26.824917	4.315603	12.789027	-13.929266	2.178996	16.695860	0.132347	6.207256	-0.278750	-0.718506	-0.010742	-0.301025	0.272105	0.042698	0.119512	-0.036606	-0.296529	-0.117568	-0.947052	17.058025	-33.576480	170.391821
61743		29.860869	5.466035	10.754878	-19.199344	0.914331	16.022045	0.110576	6.286626	-0.269995	-0.713867	-0.019531	-0.347412	0.301865	0.054198	0.098123	-0.034009	-0.266512	-0.119556	-0.955783	16.563540	-30.087629	171.443501
61744		32.763179	6.182824	7.413661	-24.936475	-0.373127	13.516972	-0.146519	6.283080	-0.214321	-0.695557	-0.027832	-0.391846	0.329810	0.061525	0.063752	-0.031504	-0.236059	-0.120131	-0.963770	15.995074	-26.579782	172.454050
61745		35.038817	5.374884	2.448949	-30.513872	-0.770427	8.367228	-0.572453	6.195063	-0.174816	-0.675293	-0.031738	-0.445068	0.350966	0.053491	0.013470	-0.029287	-0.205934	-0.118469	-0.970927	15.265512	-23.138507	173.401683
61746		35.725700	1.163187	-3.808057	-34.506572	1.655618	0.104509	-0.934761	5.932792	-0.364076	-0.650635	-0.033447	-0.482910	0.355937	0.010772	-0.048705	-0.028523	-0.176590	-0.115108	-0.977114	14.463882	-19.787396	174.120121
61747		34.638297	-2.967285	-10.092478	-35.961059	4.029139	-8.965144	-0.934420	5.402312	-0.910601	-0.625732	-0.041748	-0.527100	0.343350	-0.031741	-0.110082	-0.030675	-0.149508	-0.112046	-0.981912	13.842751	-16.662527	174.384485
61748		32.318499	-2.978604	-16.163048	-35.411101	2.653207	-17.117439	-0.834020	4.500541	-1.619539	-0.589355	-0.049805	-0.560547	0.319182	-0.033075	-0.168710	-0.036735	-0.126294	-0.109804	-0.985212	13.443115	-13.932931	174.079231
61749		32.869398	0.034946	-22.917008	-37.372181	-1.148643	-24.213061	-1.272789	3.176755	-2.144433	-0.580078	-0.060547	-0.573730	0.324967	-0.004629	-0.234333	-0.046347	-0.109243	-0.105423	-0.987322	12.890009	-11.884777	173.277491
61750		34.490626	-0.345401	-27.578451	-39.496862	-0.558072	-29.555186	-2.211600	1.624214	-2.384613	-0.566895	-0.055908	-0.584961	0.342554	-0.010617	-0.278482	-0.058463	-0.099459	-0.096153	-0.988658	11.847857	-10.685561	172.119749
61751		31.944774	-5.372198	-27.407192	-36.134152	5.369777	-31.394860	-2.602153	-0.130805	-2.344802	-0.571289	-0.053711	-0.587158	0.318940	-0.061021	-0.273101	-0.071397	-0.098235	-0.084375	-0.989006	10.603083	-10.501559	170.764716
61752		24.950467	-12.866619	-21.741417	-27.037641	13.678903	-28.319512	-1.863735	-1.936708	-2.058153	-0.589111	-0.056396	-0.564697	0.250231	-0.133242	-0.213766	-0.083283	-0.106350	-0.075453	-0.987958	9.796990	-11.394910	169.383106
61753		-2.662882	-17.313022	-2.115196	4.702123	16.054748	-15.419086	1.114068	-3.525344	-1.325861	-0.618164	-0.063721	-0.540039	-0.027385	-0.172827	-0.022594	-0.090549	-0.123738	-0.080150	-0.984919	10.674132	-13.251719	168.251035
61754		3.911634	3.983546	16.523643	0.319467	-0.759465	7.607496	1.702091	-4.658026	-0.821266	-0.635254	-0.084229	-0.501709	0.035409	0.038272	0.166420	-0.095357	-0.147183	-0.086868	-0.980662	11.901397	-15.789646	167.236114
61755		4.876331	15.210915	19.169576	-0.811090	-10.863149	12.635226	1.426963	-2.810509	0.599841	-0.657959	-0.080078	-0.486328	0.045599	0.150873	0.193431	-0.092571	-0.161917	-0.092043	-0.978132	12.718295	-17.440216	167.228577
61756		-1.997970	-8.230926	10.659622	6.723880	9.207453	-2.371654	1.957385	-2.604005	1.273851	-0.673584	-0.080566	-0.461670	-0.020829	-0.083476	0.105516	-0.085923	-0.176223	-0.099337	-0.975549	13.716303	-19.072057	167.618239
61757		4.541994	4.315110	5.811188	-2.494433	-2.247692	-1.955650	2.660858	-3.501995	1.128370	-0.693604	-0.085449	-0.428223	0.044145	0.042617	0.059462	-0.079790	-0.194993	-0.109761	-0.971372	15.192185	-21.180392	167.751749
61758		14.132937	14.693217	8.998125	-10.567853	-9.684642	7.247511	1.863275	-3.760985	1.074637	-0.709473	-0.074707	-0.401855	0.138798	0.146819	0.093976	-0.074781	-0.214645	-0.116202	-0.966867	16.253781	-23.433682	167.761933
61759		17.355047	10.889310	12.765832	-10.677748	-4.606025	11.340194	1.076609	-3.532310	0.633957	-0.718506	-0.074951	-0.368408	0.170908	0.108737	0.131278	-0.072599	-0.232486	-0.119356	-0.962514	16.972675	-25.480951	167.508651
61760		17.610724	4.831061	12.823529	-9.622595	1.366527	10.272364	0.801590	-3.324539	0.129543	-0.736328	-0.075439	-0.341797	0.173910	0.047901	0.131331	-0.072999	-0.248934	-0.121819	-0.958052	17.678256	-27.335420	166.954193
61761		22.863171	-3.382301	13.083593	-12.732047	10.503815	10.992774	1.023233	-2.761330	-0.076267	-0.738770	-0.068848	-0.317383	0.226785	-0.034589	0.133800	-0.073765	-0.262493	-0.125765	-0.953855	18.546321	-28.829615	166.349541
61762		14.883153	2.417384	9.154651	-7.919884	2.628812	5.727961	0.933185	-2.085200	0.406174	-0.732178	-0.066650	-0.302002	0.147817	0.024042	0.093204	-0.071884	-0.273154	-0.128877	-0.950584	19.174023	-30.051798	166.158928
61763		11.770316	12.710393	9.246362	-5.592482	-7.788231	7.323411	0.817972	-1.728963	0.324610	-0.734619	-0.062256	-0.284180	0.116689	0.126912	0.093995	-0.070337	-0.281893	-0.131664	-0.947762	19.731127	-31.051849	165.979260
61764		9.570812	11.102463	7.208679	-4.538151	-7.093794	4.184120	0.362231	-1.205598	0.093692	-0.725830	-0.057617	-0.277832	0.095218	0.110938	0.072863	-0.070148	-0.287933	-0.132800	-0.945800	20.051791	-31.737157	165.762403
61765		9.409362	1.473551	8.504851	-2.996646	2.351960	2.374493	0.189813	-0.812801	0.233098	-0.710449	-0.048340	-0.278076	0.093730	0.014764	0.085444	-0.069314	-0.292027	-0.133046	-0.944571	20.179494	-32.224417	165.721147
61766		8.734982	4.835740	8.651268	-2.450675	-0.968040	3.132793	0.253140	-0.416467	0.181606	-0.701660	-0.039307	-0.280518	0.087125	0.048327	0.086755	-0.068338	-0.294350	-0.133814	-0.943812	20.316357	-32.502341	165.737797
61767		6.009130	3.933642	8.441123	-0.248673	-0.719558	1.244258	0.024021	-0.261938	0.154418	-0.692871	-0.036865	-0.287354	0.059950	0.039373	0.084495	-0.067751	-0.295729	-0.133581	-0.943456	20.307642	-32.677836	165.774140
61768		6.374784	0.716328	8.199459	-0.501899	2.372709	0.311564	0.071127	-0.145817	0.078906	-0.679443	-0.034424	-0.291748	0.063685	0.007159	0.082044	-0.067346	-0.296644	-0.133734	-0.943177	20.341417	-32.790072	165.788716
61769		5.892181	1.535632	8.192834	-0.134382	1.495993	0.283966	0.171018	-0.149337	-0.021473	-0.679688	-0.030029	-0.300781	0.058862	0.015280	0.081985	-0.067296	-0.297423	-0.134493	-0.942827	20.463354	-32.870014	165.739183
61770		5.892929	2.301172	7.979716	-0.271460	0.738244	0.340100	0.229949	-0.199845	-0.096323	-0.675293	-0.025391	-0.309814	0.058861	0.022892	0.079882	-0.067516	-0.298527	-0.135633	-0.942299	20.655803	-32.976100	165.628591
61771		6.990833	3.652526	7.716334	-1.357390	-0.353397	1.132038	0.229667	-0.175897	-0.139863	-0.671143	-0.018799	-0.321045	0.069866	0.036388	0.077267	-0.067954	-0.299370	-0.136835	-0.941826	20.856563	-33.045974	165.496297
61772		6.187167	4.469591	7.569498	-0.806188	-1.309497	0.826429	0.155630	-0.166107	-0.100469	-0.668701	-0.025146	-0.332031	0.061831	0.044606	0.075781	-0.068280	-0.300287	-0.137642	-0.941393	21.004202	-33.132632	165.390338
61773		6.227720	3.884707	7.648972	-0.746059	-0.713579	0.737970	0.076784	-0.198816	-0.025192	-0.671387	-0.011963	-0.338867	0.062206	0.038810	0.076566	-0.068423	-0.301263	-0.137944	-0.941026	21.081055	-33.237798	165.325002
61774		6.037767	3.955629	7.933595	-0.403798	-0.757152	0.878767	0.014474	-0.211207	0.038283	-0.669189	-0.014160	-0.356689	0.060286	0.039562	0.079403	-0.068341	-0.302439	-0.137864	-0.940667	21.106123	-33.376931	165.295959
61775		5.511541	3.756960	7.941373	0.058120	-0.682759	0.535628	-0.028430	-0.229184	0.054806	-0.680420	-0.009766	-0.365723	0.055014	0.037596	0.079471	-0.068287	-0.303576	-0.137540	-0.940352	21.099014	-33.514775	165.274036
61776		5.550379	3.389136	8.085085	0.153100	-0.303498	0.557748	-0.087068	-0.210921	0.082317	-0.683105	0.001221	-0.370361	0.055405	0.033949	0.080895	-0.068151	-0.304745	-0.136916	-0.940074	21.050549	-33.662741	165.273143
61777		5.720988	3.562246	7.460809	-0.340538	-0.580745	0.218748	-0.073428	-0.201773	0.098308	-0.692139	-0.001221	-0.381348	0.057117	0.035678	0.074653	-0.067942	-0.305767	-0.136323	-0.939844	20.998367	-33.794892	165.286123
61778		6.153102	3.108714	7.187557	-0.807684	-0.130379	0.112853	-0.100747	-0.190897	0.117891	-0.698975	0.005371	-0.390381	0.061444	0.031160	0.071919	-0.067648	-0.306859	-0.135588	-0.939615	20.926450	-33.939344	165.313321
61779		5.513730	3.191452	7.501042	-0.094678	-0.293124	0.023841	-0.111088	-0.155055	0.106830	-0.703613	0.005371	-0.394775	0.055062	0.031986	0.075035	-0.067424	-0.307654	-0.134821	-0.939482	20.842890	-34.048200	165.343742
61780		5.574694	2.568100	7.519148	-0.088074	0.303461	-0.111653	-0.087087	-0.150676	0.103639	-0.712646	0.009521	-0.403564	0.055677	0.025743	0.075222	-0.067148	-0.308552	-0.134185	-0.939298	20.778092	-34.168140	165.372054
61781		5.319600	2.270800	7.330295	0.029422	0.483405	-0.487810	-0.045424	-0.119447	0.061457	-0.728516	0.011475	-0.412354	0.053145	0.022741	0.073330	-0.067013	-0.309170	-0.133808	-0.939159	20.743466	-34.248649	165.382187
61782		5.653526	2.437304	7.431813	-0.170529	0.409916	-0.172276	-0.013142	-0.107148	0.018658	-0.742188	0.018066	-0.410400	0.056493	0.024383	0.074347	-0.066993	-0.309830	-0.133664	-0.938963	20.745745	-34.327929	165.366328
61783		6.460738	2.108704	7.102931	-0.988842	0.822447	-0.066654	0.016902	-0.086329	-0.010048	-0.740234	0.024658	-0.412598	0.064578	0.021078	0.071059	-0.067075	-0.310266	-0.133701	-0.938808	20.768383	-34.376174	165.338227
61784		5.618413	2.635756	7.384945	-0.160438	0.204693	-0.169889	0.030078	-0.043089	-0.040379	-0.751709	0.031250	-0.419434	0.056174	0.026335	0.073866	-0.067222	-0.310600	-0.133873	-0.938662	20.808100	-34.409181	165.299808
61785		5.069735	2.989445	7.784657	0.505790	-0.158932	-0.068007	0.044251	-0.024094	-0.067671	-0.760498	0.026611	-0.421631	0.050698	0.029860	0.077859	-0.067490	-0.310714	-0.134148	-0.938566	20.858937	-34.412326	165.249579
61786		5.081026	2.778216	7.694811	0.456541	0.033086	-0.193129	0.047196	-0.022947	-0.073122	-0.765381	0.030762	-0.417236	0.050812	0.027745	0.076960	-0.067751	-0.310937	-0.134457	-0.938429	20.917683	-34.427676	165.194833
61787		5.580411	2.349166	7.138701	-0.255520	0.439018	-0.465892	0.056865	-0.023644	-0.092774	-0.774414	0.032959	-0.423828	0.055807	0.023445	0.071400	-0.068116	-0.311036	-0.134831	-0.938316	20.984910	-34.425352	165.128415
61788		5.882388	2.224084	7.194852	-0.451962	0.644294	-0.289267	0.070166	-0.033215	-0.112415	-0.778809	0.035156	-0.419434	0.058824	0.022183	0.071966	-0.068533	-0.311287	-0.135305	-0.938134	21.072632	-34.437898	165.045631
61789		4.915660	2.121056	7.889414	0.744962	0.695859	-0.332907	0.092854	-0.040246	-0.129284	-0.785645	0.037109	-0.421631	0.049154	0.021142	0.078914	-0.069025	-0.311452	-0.135899	-0.937958	21.176220	-34.436743	164.951396
61790		3.816112	2.466189	8.479726	1.968542	0.271966	-0.399856	0.151028	-0.058459	-0.144023	-0.779053	0.037354	-0.415039	0.038154	0.024570	0.084827	-0.069481	-0.311826	-0.136792	-0.937670	21.325320	-34.455846	164.841845
61791		4.826009	2.214876	8.285544	1.068009	0.707831	-0.055405	0.193948	-0.111727	-0.147088	-0.792480	0.037109	-0.415039	0.048230	0.022033	0.082904	-0.069947	-0.312348	-0.137862	-0.937305	21.503683	-34.488701	164.717921
61792		4.434995	3.216511	8.323016	1.372746	-0.298125	0.052115	0.238264	-0.144708	-0.172835	-0.794922	0.043701	-0.412842	0.044317	0.032028	0.083300	-0.070461	-0.313132	-0.139177	-0.936810	21.725852	-34.546710	164.567570
61793		5.470336	3.714817	7.914214	0.300039	-0.608451	0.478031	0.201812	-0.224990	-0.142069	-0.796875	0.036865	-0.414795	0.054641	0.037029	0.079241	-0.070970	-0.314189	-0.140236	-0.936260	21.923997	-34.640145	164.417119
61794		5.247941	3.894551	8.171323	0.653226	-0.751424	0.603045	0.162560	-0.279537	-0.118505	-0.801758	0.043457	-0.408447	0.052388	0.038848	0.081818	-0.071442	-0.315612	-0.141064	-0.935621	22.103801	-34.780279	164.265815
61795		4.846414	3.766387	8.606215	1.274156	-0.609167	0.663270	0.109029	-0.354663	-0.089389	-0.805908	0.038818	-0.399414	0.048328	0.037595	0.086168	-0.071941	-0.317278	-0.141559	-0.934944	22.250125	-34.953146	164.114053
61796		5.487316	3.036455	8.161616	0.571806	0.142484	0.463266	0.147694	-0.443516	-0.073034	-0.808105	0.038818	-0.395020	0.054703	0.030284	0.081760	-0.072340	-0.319489	-0.142186	-0.934065	22.431404	-35.189035	163.946854
61797		6.252067	4.161701	7.609255	-0.369349	-0.862023	0.837622	0.131097	-0.522476	-0.030363	-0.806152	0.041016	-0.388428	0.062328	0.041558	0.076283	-0.072647	-0.321985	-0.142628	-0.933116	22.596533	-35.462939	163.786158
61798		5.903835	4.022811	7.783821	0.080146	-0.767950	0.724372	0.041041	-0.635456	0.056503	-0.808105	0.036621	-0.381592	0.058779	0.040229	0.078034	-0.072749	-0.325140	-0.142479	-0.932036	22.701027	-35.828018	163.648323
61799		5.781412	4.620502	8.115529	0.430431	-1.299802	1.085031	0.015107	-0.741077	0.165357	-0.819336	0.038574	-0.372559	0.057475	0.046246	0.081372	-0.072485	-0.328746	-0.141980	-0.930867	22.762900	-36.260274	163.552946
61800		5.492565	4.420375	8.387367	0.924752	-1.139327	1.045574	-0.044654	-0.873577	0.313229	-0.817139	0.040771	-0.368408	0.054489	0.044308	0.084102	-0.071700	-0.333149	-0.140922	-0.929522	22.760364	-36.807640	163.515544
61801		4.521830	4.402757	9.160274	2.271554	-1.217696	1.008481	-0.134237	-1.068271	0.459963	-0.824219	0.047363	-0.357178	0.044627	0.044192	0.091813	-0.070541	-0.338415	-0.139118	-0.927979	22.675786	-37.478027	163.523431
61802		4.998673	4.491556	9.332013	2.154404	-1.217906	1.417632	-0.199351	-1.359815	0.595069	-0.828613	0.047119	-0.350586	0.049217	0.045156	0.093612	-0.069043	-0.345189	-0.136687	-0.925956	22.552194	-38.344250	163.539996
61803		5.190881	4.050634	8.817259	1.855293	-0.937356	0.993452	-0.256386	-1.696861	0.769456	-0.837891	0.051514	-0.328369	0.051002	0.040817	0.088556	-0.067084	-0.353498	-0.133550	-0.923419	22.373737	-39.415186	163.585641
61804		4.794587	4.903311	8.912905	2.396503	-1.910569	1.007269	-0.230422	-2.046855	0.983848	-0.842773	0.062500	-0.315430	0.046788	0.049368	0.089555	-0.064296	-0.363631	-0.130038	-0.920179	22.179532	-40.729466	163.683378
61805		4.540825	4.725184	8.983704	2.879715	-1.889789	0.759995	-0.316024	-2.442720	1.214288	-0.851807	0.071045	-0.284424	0.044019	0.047664	0.090305	-0.060871	-0.375553	-0.125550	-0.916238	21.889809	-42.291857	163.842908
61806		3.949192	4.191849	9.997471	4.315587	-1.439204	0.789667	-0.271206	-2.884705	1.451026	-0.868164	0.088379	-0.271484	0.037739	0.042333	0.100470	-0.056525	-0.389666	-0.120676	-0.911264	21.587053	-44.149706	164.059066
61807		4.334702	3.244619	10.357840	4.669547	-0.531576	0.887686	-0.302061	-3.468095	1.679076	-0.877441	0.097168	-0.229492	0.041268	0.032956	0.104257	-0.051550	-0.406352	-0.114997	-0.904984	21.239708	-46.354880	164.300290
61808		3.924483	3.687125	11.216489	6.009881	-1.058121	1.028958	-0.282756	-4.162192	1.802029	-0.891602	0.112305	-0.191895	0.036565	0.037368	0.112892	-0.046345	-0.426152	-0.108942	-0.896871	20.966179	-48.965091	164.451540
61809		3.678449	3.279528	11.252203	6.681309	-0.874166	0.456630	-0.253246	-4.957280	1.911222	-0.894043	0.125488	-0.141113	0.033665	0.033270	0.113340	-0.041004	-0.449241	-0.102519	-0.886561	20.805768	-52.013199	164.467573
61810		3.659392	2.580541	10.433788	6.562100	-0.482400	-0.561821	-0.102571	-5.922680	2.036114	-0.906006	0.147217	-0.079346	0.033218	0.026209	0.105342	-0.035224	-0.476390	-0.096215	-0.873244	20.912467	-55.611858	164.262440
61811		3.659396	4.924861	11.450218	8.111445	-2.806621	-0.065580	0.067084	-6.969489	2.162323	-0.913330	0.166748	-0.006592	0.032041	0.049573	0.115688	-0.028961	-0.507577	-0.090039	-0.856399	21.400826	-59.787150	163.727089
61812		4.647046	5.321788	10.956190	7.967355	-3.295941	-0.039592	0.136821	-8.132610	2.359089	-0.916260	0.186523	0.070801	0.041335	0.053650	0.111349	-0.022156	-0.543098	-0.083370	-0.835227	22.404175	-64.625344	162.681720
61813		7.575861	3.852838	9.981932	6.729021	-1.786716	1.290112	0.305686	-9.259578	2.674055	-0.901367	0.211182	0.158936	0.070508	0.039339	0.103225	-0.014004	-0.582296	-0.076238	-0.809273	24.242497	-70.108423	160.878857
61814		15.366863	7.574323	16.591701	12.207477	-4.220353	10.224837	0.285550	-9.368717	3.076409	-0.877441	0.238037	0.247070	0.144489	0.077770	0.172941	-0.004298	-0.620739	-0.067682	-0.781078	26.765313	-75.721966	158.412456
61815		18.331246	0.356728	16.722262	13.018080	2.719850	11.127488	-0.175423	-8.906480	2.979922	-0.846436	0.258301	0.319580	0.175547	0.006373	0.175153	0.003773	-0.655856	-0.057459	-0.752687	31.494592	-81.019479	153.483792
61816		27.557902	-1.655206	17.484088	14.446984	4.933043	19.070702	0.236324	-7.891813	2.243411	-0.817627	0.271973	0.385742	0.268562	-0.013728	0.185515	0.010695	-0.685679	-0.051085	-0.726030	47.533265	-85.372658	137.478329
61817		27.662634	-1.972508	16.578728	15.619696	4.850038	18.045611	0.427834	-6.655381	1.321560	-0.791016	0.281250	0.425293	0.271032	-0.018289	0.174829	0.015241	-0.709778	-0.048409	-0.702595	104.799148	-87.249875	80.361488
61818		22.614652	0.988154	17.888100	18.681958	1.739631	12.099349	0.890551	-5.387540	0.569975	-0.771240	0.292725	0.465088	0.221191	0.009702	0.184928	0.019071	-0.728527	-0.049890	-0.682932	148.741759	-85.539553	36.852532
61819		10.482457	0.731746	14.366763	15.213015	1.197572	-0.653575	0.941470	-4.779428	0.345275	-0.746338	0.295410	0.504883	0.101339	0.006810	0.146150	0.022468	-0.744648	-0.052264	-0.665028	162.517751	-83.107414	23.551472
61820		-2.114094	1.800747	15.992137	15.663912	-0.202009	-14.056445	0.808291	-4.830441	0.122322	-0.717529	0.304688	0.537842	-0.025006	0.017348	0.159419	0.024591	-0.760428	-0.055004	-0.646621	168.275864	-80.443743	18.199490
61821		30.117925	6.242795	21.803343	27.332097	-2.188426	16.061152	0.186938	-3.701475	-0.141223	-0.705566	0.287109	0.549072	0.297119	0.062010	0.223616	0.023808	-0.772225	-0.056567	-0.632378	170.091105	-78.341622	16.459016
61822		17.740342	3.333734	26.283527	29.432540	0.590759	2.436123	-0.174032	-0.163170	-0.669049	-0.710205	0.289307	0.540283	0.177300	0.032973	0.262951	0.020943	-0.772544	-0.058601	-0.631904	168.251446	-78.181803	18.231739
61823		0.440855	-3.265346	20.140836	19.328788	5.442321	-13.457632	0.222806	1.168385	-1.066957	-0.716309	0.273682	0.531738	0.005410	-0.032905	0.201342	0.018759	-0.768515	-0.063279	-0.636419	164.716480	-78.686591	21.967224
61824		-3.537556	-1.275297	17.350389	16.175947	2.968407	-16.498223	0.896821	1.701396	-1.375395	-0.727539	0.269043	0.507568	-0.033988	-0.013295	0.173738	0.018332	-0.762475	-0.071230	-0.642823	159.796528	-79.384372	27.496677
61825		-5.487844	1.310261	15.046238	14.060029	0.090013	-17.592235	0.961733	1.827688	-1.368517	-0.738281	0.257813	0.494385	-0.053412	0.012746	0.151017	0.018234	-0.755990	-0.079342	-0.649501	154.122685	-80.039016	33.820040
61826		-3.854620	3.282572	13.870538	13.568857	-1.758618	-15.363246	0.606591	2.059358	-1.291378	-0.749268	0.250977	0.474609	-0.036903	0.032646	0.139190	0.017112	-0.748605	-0.085972	-0.657196	147.202454	-80.716695	41.185256
61827		-1.967977	3.983962	13.261572	13.420128	-2.281555	-13.021558	-0.010933	2.484289	-1.158009	-0.762695	0.244141	0.452637	-0.017799	0.039954	0.132842	0.014317	-0.739899	-0.090026	-0.666514	138.349977	-81.448579	50.136145
61828		-1.098474	2.660374	12.251704	12.385532	-1.023441	-11.794121	-0.503570	3.015312	-1.022922	-0.775391	0.226074	0.422119	-0.008999	0.026962	0.122595	0.010357	-0.729240	-0.091878	-0.677982	126.315644	-82.191184	61.994900
61829		-0.268811	1.038962	11.210430	11.217874	0.498882	-10.662212	-0.674735	3.526182	-0.945126	-0.795410	0.214600	0.393555	-0.000661	0.010774	0.112092	0.006297	-0.716787	-0.092814	-0.691059	110.588145	-82.681220	77.465724
61830		0.827086	0.263006	10.267806	10.209495	1.252303	-9.208901	-0.573675	3.991810	-0.921841	-0.806396	0.205566	0.360596	0.010331	0.002880	0.102478	0.002860	-0.702324	-0.093962	-0.705623	91.859966	-82.608194	96.007953
61831		2.474771	0.744611	9.736532	9.652332	0.928376	-7.086405	-0.387435	4.418920	-0.907377	-0.821777	0.196533	0.327637	0.026924	0.007515	0.096772	0.000360	-0.686160	-0.095669	-0.721133	73.753345	-81.766650	114.053959
61832		4.622648	1.535430	9.325043	9.026078	0.411764	-4.425614	-0.266619	4.867291	-0.922659	-0.828369	0.187744	0.276611	0.048547	0.015257	0.092067	-0.001600	-0.667834	-0.097804	-0.737855	58.753972	-80.135559	129.076311
61833		6.028952	2.124376	8.755917	8.058084	-0.008584	-2.562497	-0.222559	5.378688	-0.970173	-0.841309	0.172119	0.239258	0.062717	0.021040	0.085871	-0.003304	-0.647293	-0.100203	-0.755619	47.648234	-77.836906	140.254013
61834		6.242132	2.922672	7.948938	6.903377	-0.825698	-1.918271	-0.241914	5.802308	-1.028621	-0.847656	0.163086	0.179688	0.064841	0.028992	0.077596	-0.005114	-0.624431	-0.102637	-0.774290	39.705262	-75.001309	148.271502
61835		6.059066	3.092853	7.164906	5.732918	-1.087968	-1.841896	-0.360699	6.073335	-1.072150	-0.854004	0.147705	0.126709	0.062892	0.030722	0.069707	-0.007283	-0.600093	-0.104668	-0.793020	34.124442	-71.850306	153.873050
61836		6.082917	2.954824	6.679062	4.746483	-0.986429	-1.638863	-0.451639	6.171187	-1.101267	-0.856201	0.143311	0.069092	0.063011	0.029353	0.064802	-0.009752	-0.574570	-0.106372	-0.811455	30.102543	-68.497399	157.872766
61837		6.520507	2.925622	6.642768	4.031436	-0.870416	-0.971770	-0.513842	6.142063	-1.124597	-0.846436	0.121338	0.018555	0.067366	0.029048	0.064306	-0.012529	-0.548778	-0.107739	-0.828901	27.189148	-65.103072	160.717560
61838		7.668131	2.985861	7.163485	3.459037	-0.651116	0.512264	-0.547648	6.044470	-1.154184	-0.837158	0.110596	-0.030029	0.078969	0.029599	0.069190	-0.015532	-0.522633	-0.108977	-0.845422	25.000513	-61.679168	162.814505
61839		9.310776	3.052394	7.855460	2.642309	-0.333401	2.458166	-0.566454	5.973135	-1.201011	-0.823242	0.093262	-0.072021	0.095578	0.030172	0.075639	-0.018835	-0.496475	-0.110106	-0.860834	23.335105	-58.278786	164.358945
61840		10.592229	3.079668	8.764603	1.970948	0.021403	4.135477	-0.556522	5.946431	-1.248870	-0.802734	0.087158	-0.118652	0.108654	0.030362	0.084357	-0.022362	-0.469732	-0.111287	-0.875481	22.013291	-54.835945	165.550780
61841		11.698893	3.408294	9.688114	1.244407	0.072422	5.702198	-0.549132	5.926343	-1.247939	-0.784180	0.067627	-0.146973	0.119999	0.033600	0.093262	-0.025812	-0.442852	-0.112398	-0.889147	20.926092	-51.418238	166.512343
61842		12.708781	4.027818	10.607316	0.401469	-0.174940	7.215859	-0.605640	5.911623	-1.140650	-0.760986	0.050293	-0.184570	0.130374	0.039854	0.102130	-0.028942	-0.415465	-0.112909	-0.902110	19.897102	-47.992349	167.395769
61843		14.473802	4.362315	11.921101	-0.834931	0.012845	9.418144	-0.702577	5.887862	-0.956118	-0.744873	0.039551	-0.204346	0.148367	0.043328	0.114726	-0.031382	-0.388114	-0.112499	-0.914181	18.860694	-44.632170	168.267777
61844		17.468298	4.627814	12.928277	-3.434447	0.344045	12.133558	-0.771087	5.886143	-0.721138	-0.735840	0.033203	-0.237549	0.178549	0.046124	0.123887	-0.032898	-0.360323	-0.111214	-0.925590	17.787729	-41.277347	169.182608
61845		20.685220	4.773268	13.273868	-6.948679	0.630150	14.228700	-0.793119	5.937523	-0.492787	-0.726563	0.026855	-0.264160	0.210784	0.047726	0.126330	-0.033294	-0.332313	-0.109330	-0.936219	16.718195	-37.948686	170.142154
61846		23.808484	5.873706	12.801718	-11.151338	-0.275380	15.496739	-0.841950	5.998018	-0.242742	-0.728760	0.020264	-0.299561	0.241847	0.058963	0.120553	-0.032579	-0.303630	-0.106708	-0.946235	15.624068	-34.587064	171.164291
61847		26.974483	7.226552	11.017113	-16.264989	-1.808346	15.349278	-1.024371	6.024466	0.082190	-0.726074	0.011475	-0.341553	0.272862	0.072912	0.101610	-0.030518	-0.274899	-0.102641	-0.955491	14.424848	-31.269439	172.284529
61848		30.343482	8.738470	8.506013	-21.902990	-3.799552	14.164975	-1.336667	5.977257	0.466016	-0.710693	0.016357	-0.381592	0.305578	0.088620	0.075358	-0.027083	-0.246092	-0.096451	-0.964055	13.043585	-27.986744	173.517891
61849		33.800736	7.222828	4.432751	-28.145110	-3.277980	10.461206	-1.734855	5.881244	0.775004	-0.688477	0.021240	-0.437256	0.338819	0.073864	0.033735	-0.022633	-0.217801	-0.087859	-0.971767	11.475747	-24.792099	174.801226
61850		34.922258	0.986940	-0.883006	-32.348092	1.495011	3.315176	-1.778271	5.723896	0.661270	-0.666260	0.024170	-0.475098	0.348743	0.010885	-0.018910	-0.018856	-0.189867	-0.079092	-0.978437	10.031853	-21.627028	175.871020
61851		33.371428	-6.017152	-6.259427	-33.392633	7.162505	-5.078511	-1.078796	5.346339	-0.107818	-0.639404	0.026855	-0.513184	0.331856	-0.060719	-0.071156	-0.018284	-0.163534	-0.074364	-0.983561	9.244955	-18.600707	176.352818
61852		33.078342	-5.282050	-12.860964	-35.310789	5.517729	-12.963990	-0.165678	4.667674	-1.383076	-0.618896	0.016357	-0.550781	0.327287	-0.055203	-0.136231	-0.023490	-0.139947	-0.075063	-0.987030	9.256318	-15.827237	175.983927
61853		35.125327	0.781759	-20.725601	-39.322841	-0.973312	-20.603357	-0.426965	3.785066	-2.569355	-0.597900	-0.003174	-0.568115	0.347305	0.002887	-0.213864	-0.035038	-0.120251	-0.075151	-0.989275	9.296868	-13.453538	174.844237
61854		35.901708	2.665672	-27.022134	-41.251677	-2.554190	-27.636014	-1.805590	2.544789	-3.281842	-0.582031	-0.011719	-0.585693	0.355885	0.018331	-0.274954	-0.051389	-0.106098	-0.068595	-0.990655	8.623450	-11.721996	173.174213
61855		30.075239	-1.846923	-28.750278	-35.112582	2.587286	-32.053179	-2.799768	0.799019	-3.338339	-0.575195	-0.009521	-0.585938	0.299193	-0.027505	-0.288357	-0.069116	-0.100283	-0.056660	-0.990937	7.384015	-11.006283	171.307953
61856		20.683394	-10.310361	-24.113942	-23.629229	11.449689	-30.452746	-2.393888	-1.326655	-2.962691	-0.588623	-0.014160	-0.574707	0.206836	-0.109033	-0.238486	-0.085346	-0.105253	-0.045795	-0.989718	6.365226	-11.567619	169.497466
61857		16.487385	-22.279925	-15.838012	-15.681408	23.841638	-24.120401	0.208578	-3.321231	-2.264774	-0.612549	-0.034668	-0.540771	0.164940	-0.224503	-0.155875	-0.097180	-0.121268	-0.046563	-0.986753	6.814277	-13.313145	167.954580
61858		-7.714180	-10.770328	11.812769	12.489738	9.806388	-1.888462	3.699441	-4.565324	-1.666543	-0.642822	-0.064209	-0.513428	-0.080686	-0.109179	0.114302	-0.104154	-0.145263	-0.063535	-0.981842	9.270530	-15.784269	166.601499
61859		9.950092	14.349458	21.820587	-4.979914	-9.321016	16.056953	3.035869	-3.433294	-0.696097	-0.666992	-0.075928	-0.481934	0.096202	0.139805	0.222017	-0.106425	-0.163468	-0.077108	-0.977756	11.230138	-17.653009	165.826746
61860		-3.705055	0.568678	14.598567	8.387286	0.443298	2.701475	2.544787	-1.928740	1.204904	-0.669434	-0.071533	-0.459717	-0.038482	0.003603	0.145674	-0.099162	-0.174805	-0.087476	-0.975683	12.536161	-18.890462	166.299881
61861		-2.546137	-2.937639	4.487810	4.453903	2.953947	-7.227776	4.317983	-2.876685	0.958041	-0.686523	-0.089844	-0.428223	-0.025953	-0.030454	0.043857	-0.091936	-0.191367	-0.106214	-0.971414	14.956556	-20.625812	166.450476
61862		10.562767	16.891875	2.883652	-10.484276	-13.344717	1.009840	3.709030	-3.837687	0.875924	-0.708984	-0.090332	-0.390381	0.104269	0.168779	0.033977	-0.086117	-0.212205	-0.121532	-0.965807	17.127064	-22.890165	166.316923
61863		16.253971	21.775574	11.785322	-11.435537	-14.835840	13.127487	2.012135	-4.055961	0.751867	-0.726807	-0.090820	-0.354736	0.159259	0.217136	0.123292	-0.082793	-0.233088	-0.128642	-0.960347	18.410754	-25.238675	165.989445
61864		17.762889	10.721109	12.448928	-10.380260	-3.639840	11.736297	1.253699	-3.956404	0.135098	-0.735840	-0.091064	-0.314697	0.175039	0.106532	0.128638	-0.083192	-0.252756	-0.132812	-0.954754	19.456222	-27.422111	165.250032
61865		27.917382	4.476341	12.526927	-17.601742	4.826600	15.149730	0.986887	-3.459203	-0.054831	-0.733643	-0.086670	-0.297119	0.276961	0.044053	0.130291	-0.084491	-0.269634	-0.136102	-0.949545	20.399419	-29.278768	164.448655
61866		20.061432	3.892503	12.213444	-10.399106	3.640078	11.290904	0.933055	-2.284996	0.328677	-0.736084	-0.077881	-0.277344	0.199136	0.038676	0.124596	-0.083199	-0.281218	-0.139088	-0.945859	21.100187	-30.586711	164.115493
61867		16.232130	17.018963	10.079570	-9.037016	-10.060830	11.908844	0.866688	-1.225224	0.056575	-0.731689	-0.075684	-0.268555	0.161649	0.169794	0.102524	-0.082564	-0.287436	-0.142564	-0.943525	21.729521	-31.256111	163.851506
61868		5.655961	10.105847	7.762501	-0.948047	-6.502965	2.483100	0.013431	-0.768146	0.222981	-0.716309	-0.068604	-0.257568	0.056148	0.101116	0.077848	-0.082016	-0.291377	-0.141971	-0.942453	21.766571	-31.730895	163.797352
61869		9.584592	2.890703	9.189261	-2.735661	1.535387	3.409305	-0.049103	-0.557107	0.438501	-0.707520	-0.061768	-0.262207	0.095526	0.029139	0.092152	-0.080419	-0.294323	-0.140842	-0.941844	21.663902	-32.124428	163.932800
61870		5.840957	5.226814	8.323744	-0.279303	-1.786747	1.476700	-0.024674	-0.343817	0.475577	-0.703369	-0.052734	-0.258057	0.058142	0.052417	0.083331	-0.078435	-0.296423	-0.139874	-0.941497	21.538394	-32.426703	164.144178
61871		6.192183	2.682465	8.266715	-0.388429	0.653847	0.831497	-0.161498	-0.294165	0.460753	-0.687744	-0.048096	-0.269287	0.061738	0.027034	0.082736	-0.076714	-0.298096	-0.138285	-0.941345	21.325604	-32.684084	164.362263
61872		7.828742	0.410606	7.497786	-1.990249	2.980186	0.426056	-0.104386	-0.212622	0.299390	-0.686035	-0.036865	-0.273926	0.078201	0.004262	0.075059	-0.075586	-0.299420	-0.137253	-0.941167	21.194151	-32.878581	164.497326
61873		6.237168	1.373205	7.938072	-0.480125	1.780914	0.207229	0.007019	-0.211461	0.151194	-0.679199	-0.036621	-0.282959	0.062277	0.013776	0.079447	-0.075012	-0.300553	-0.136951	-0.940896	21.171493	-33.026886	164.541036
61874		6.213723	2.215778	7.768568	-0.584285	0.934396	0.319250	0.086181	-0.204795	0.038688	-0.677246	-0.034424	-0.289551	0.062053	0.022136	0.077759	-0.074817	-0.301733	-0.137204	-0.940497	21.237360	-33.163360	164.512799
61875		6.698598	4.076108	7.670445	-1.114749	-0.742839	1.074325	0.109502	-0.248777	0.014905	-0.668213	-0.034180	-0.296387	0.066887	0.040724	0.076810	-0.074755	-0.302985	-0.137574	-0.940045	21.326093	-33.303308	164.460075
61876		6.494697	3.362125	7.804150	-0.798080	-0.076268	0.852532	0.069116	-0.273231	0.016405	-0.675049	-0.032227	-0.311768	0.064838	0.033600	0.078142	-0.074738	-0.304465	-0.137755	-0.939542	21.399860	-33.471652	164.399950
61877		5.699453	3.348736	7.926205	-0.055169	-0.212710	0.505944	0.073836	-0.296456	0.006550	-0.677734	-0.023193	-0.312012	0.056876	0.033460	0.079359	-0.074802	-0.305921	-0.137951	-0.939035	21.478343	-33.635156	164.329242
61878		5.521681	3.314496	7.968187	0.149785	-0.210956	0.429374	0.019432	-0.333111	0.032910	-0.677734	-0.018799	-0.323242	0.055079	0.033146	0.079777	-0.074825	-0.307673	-0.137851	-0.938475	21.526933	-33.838725	164.263803
61879		4.959676	3.886058	8.040640	0.643508	-0.869406	0.345151	-0.003550	-0.325290	0.022876	-0.686768	-0.019043	-0.336426	0.049461	0.038868	0.080486	-0.074950	-0.309244	-0.137648	-0.937978	21.560066	-34.020923	164.195599
61880		5.525572	3.115313	7.773970	0.107969	-0.071842	0.220001	-0.050764	-0.307220	0.034220	-0.687256	-0.007813	-0.338867	0.055131	0.031182	0.077817	-0.075057	-0.310846	-0.137225	-0.937502	21.565044	-34.210675	164.136942
61881		5.960668	2.952832	7.263951	-0.509099	0.066126	0.023478	-0.038122	-0.275850	0.030800	-0.698730	-0.003662	-0.347900	0.059502	0.029551	0.072716	-0.075164	-0.312176	-0.136866	-0.937104	21.568958	-34.368175	164.086071
61882		6.321429	2.879538	6.975475	-0.938508	0.152190	-0.014451	-0.023167	-0.251728	0.006200	-0.707764	-0.003662	-0.350098	0.063126	0.028805	0.069831	-0.075322	-0.313507	-0.136637	-0.936681	21.592429	-34.522361	164.023149
61883		5.690069	2.146095	7.584115	-0.006592	0.831501	-0.127134	-0.021393	-0.199084	-0.032209	-0.717041	0.004883	-0.356934	0.056829	0.021460	0.075895	-0.075646	-0.314440	-0.136483	-0.936364	21.618279	-34.625647	163.950881
61884		5.253374	1.517959	7.565153	0.382777	1.329361	-0.581223	0.070050	-0.183212	-0.093133	-0.721680	0.009277	-0.352539	0.052471	0.015129	0.075705	-0.076075	-0.315416	-0.136871	-0.935944	21.722096	-34.722259	163.840854
61885		5.261447	2.104671	7.548539	0.350265	0.783115	-0.412852	0.143488	-0.168543	-0.159321	-0.730713	0.009277	-0.356934	0.052568	0.020951	0.075545	-0.076713	-0.316181	-0.137700	-0.935512	21.885341	-34.782040	163.693606
61886		5.409591	3.577777	7.515691	0.149249	-0.571497	0.096946	0.127399	-0.180581	-0.160713	-0.739746	0.015625	-0.361328	0.054057	0.035686	0.075228	-0.077365	-0.317118	-0.138462	-0.935029	22.046993	-34.862164	163.539931
61887		5.503861	3.036155	7.314816	-0.001729	-0.061434	-0.168340	0.081134	-0.174819	-0.155921	-0.746826	0.022217	-0.365967	0.054998	0.030289	0.073209	-0.078090	-0.317889	-0.138991	-0.934628	22.174863	-34.925361	163.392592
61888		5.030467	3.182206	7.906990	0.744893	-0.173602	0.054809	0.072486	-0.186250	-0.146977	-0.751221	0.019775	-0.363770	0.050254	0.031756	0.079128	-0.078769	-0.318838	-0.139473	-0.934176	22.301642	-35.010706	163.245553
61889		5.406778	3.417108	7.707993	0.332268	-0.333941	0.192364	0.162462	-0.216377	-0.136314	-0.762939	0.028564	-0.363770	0.054008	0.034072	0.077166	-0.079301	-0.319848	-0.140334	-0.933657	22.475906	-35.099612	163.099160
61890		5.851863	3.619535	7.255653	-0.283778	-0.498258	0.170347	0.126752	-0.224145	-0.118125	-0.767334	0.030762	-0.368408	0.058459	0.036115	0.072645	-0.079786	-0.321012	-0.141008	-0.933114	22.629823	-35.210431	162.959720
61891		6.027493	3.696655	7.080197	-0.512512	-0.552070	0.165169	0.106868	-0.229881	-0.101476	-0.772217	0.039551	-0.359619	0.060212	0.036898	0.070891	-0.080253	-0.322086	-0.141548	-0.932622	22.762308	-35.313532	162.831269
61892		5.918454	3.835279	6.977019	-0.475831	-0.721577	0.070081	0.054116	-0.225101	-0.064171	-0.776611	0.034912	-0.357178	0.059118	0.038315	0.069847	-0.080604	-0.323262	-0.141796	-0.932147	22.855694	-35.436255	162.725463
61893		5.833999	3.488715	7.553149	-0.007994	-0.286750	0.344793	0.040881	-0.220386	-0.025616	-0.774658	0.043945	-0.357422	0.058261	0.034864	0.075603	-0.080817	-0.324318	-0.141910	-0.931745	22.921190	-35.550896	162.647999
61894		5.315987	3.445704	7.503453	0.391053	-0.380428	-0.007755	0.053701	-0.232379	0.023768	-0.785889	0.045898	-0.357422	0.053069	0.034443	0.075105	-0.080764	-0.325588	-0.142012	-0.931291	22.983174	-35.696790	162.596484
61895		6.102325	3.246405	7.323598	-0.293841	-0.039730	0.253325	0.045954	-0.267636	0.060563	-0.779297	0.050537	-0.355469	0.060915	0.032466	0.073325	-0.080600	-0.326927	-0.141989	-0.930839	23.027090	-35.855519	162.561437
61896		5.739163	3.473092	7.546398	0.148365	-0.299157	0.278738	0.027971	-0.323064	0.078656	-0.788086	0.045898	-0.348633	0.057256	0.034743	0.075561	-0.080398	-0.328645	-0.141845	-0.930274	23.068662	-36.061325	162.519991
61897		5.342745	3.248319	8.026146	0.808380	-0.088107	0.329016	0.012451	-0.398788	0.092700	-0.790527	0.047852	-0.346436	0.053252	0.032503	0.080370	-0.080233	-0.330601	-0.141560	-0.929638	23.103012	-36.296361	162.468970
61898		5.037665	3.033096	8.098499	1.147897	0.048110	0.129306	0.017446	-0.473944	0.106883	-0.790283	0.045654	-0.341797	0.050168	0.030351	0.081107	-0.080024	-0.333031	-0.141258	-0.928834	23.153281	-36.587742	162.403152
61899		5.207274	2.886469	8.124147	1.095552	0.224501	0.197221	0.041895	-0.569484	0.116744	-0.794922	0.045654	-0.339600	0.051824	0.028878	0.081395	-0.079817	-0.335804	-0.141000	-0.927892	23.224758	-36.918028	162.318964
61900		5.561273	3.123487	8.051770	0.832857	0.060167	0.425342	0.003068	-0.684412	0.113398	-0.797119	0.047852	-0.337402	0.055319	0.031265	0.080708	-0.079750	-0.339202	-0.140534	-0.926732	23.301598	-37.321196	162.196302
61901		5.497776	3.138381	7.980794	0.908311	0.002761	0.333370	0.013586	-0.785474	0.131651	-0.808350	0.045410	-0.328369	0.054643	0.031414	0.080025	-0.079672	-0.342967	-0.140030	-0.925428	23.390684	-37.768302	162.058123
61902		5.382397	3.794737	8.148558	1.159108	-0.628702	0.581047	0.020941	-0.882404	0.174317	-0.801758	0.052246	-0.322021	0.053431	0.037986	0.081726	-0.079430	-0.347317	-0.139458	-0.923912	23.491393	-38.288824	161.915714
61903		5.210525	3.648264	8.149943	1.391750	-0.550750	0.416671	0.037321	-0.981357	0.256277	-0.810547	0.047363	-0.312988	0.051658	0.036534	0.081760	-0.078868	-0.352070	-0.138764	-0.922264	23.581982	-38.866974	161.800079
61904		5.553640	3.684976	8.310563	1.359440	-0.494975	0.741600	0.055260	-1.149564	0.361867	-0.812744	0.047363	-0.301758	0.054991	0.036927	0.083433	-0.077883	-0.357773	-0.137910	-0.920279	23.677347	-39.570007	161.700837
61905		5.617239	3.213561	8.578683	1.654508	-0.011157	0.804966	0.056503	-1.394499	0.444251	-0.815186	0.047363	-0.295166	0.055501	0.032235	0.086184	-0.076702	-0.364539	-0.136799	-0.917886	23.781475	-40.407891	161.584668
61906		5.567032	3.556927	8.552325	1.828979	-0.395012	0.830695	0.059593	-1.695279	0.526005	-0.826416	0.049316	-0.275146	0.054849	0.035689	0.086001	-0.075321	-0.372819	-0.135443	-0.914870	23.920556	-41.434172	161.425748
61907		4.932867	4.442970	8.467906	2.386963	-1.455723	0.577575	0.065749	-2.026503	0.666820	-0.835693	0.055664	-0.261963	0.048319	0.044564	0.085187	-0.073521	-0.382574	-0.133700	-0.911239	24.066804	-42.654314	161.259297
61908		5.482507	4.966458	8.293338	2.101242	-1.923620	0.928873	0.030442	-2.353304	0.896097	-0.842529	0.062256	-0.239990	0.053621	0.049894	0.083577	-0.070936	-0.394002	-0.131233	-0.906922	24.165826	-44.110162	161.141632
61909		5.523010	4.714356	8.454195	2.476189	-1.732906	0.913867	-0.024028	-2.697865	1.133781	-0.854004	0.068604	-0.213379	0.053815	0.047462	0.085269	-0.067610	-0.406959	-0.127891	-0.901919	24.190091	-45.790399	161.083695
61910		5.210664	4.475139	8.950554	3.382164	-1.597691	0.830917	-0.051477	-3.136663	1.353776	-0.861084	0.079590	-0.182373	0.050390	0.045120	0.090293	-0.063599	-0.422012	-0.123812	-0.895842	24.195965	-47.762295	161.036121
61911		5.467715	4.686014	10.179728	4.553851	-1.675192	1.672825	-0.101530	-3.696907	1.520032	-0.872559	0.090332	-0.149414	0.052425	0.047316	0.102756	-0.059286	-0.439424	-0.118920	-0.888397	24.220629	-50.055330	160.922369
61912		3.504276	3.993189	11.168974	6.975644	-1.414203	0.300875	-0.038593	-4.359696	1.667890	-0.880127	0.110107	-0.109863	0.032263	0.040230	0.112406	-0.054536	-0.459758	-0.113748	-0.879039	24.401215	-52.738809	160.663614
61913		3.277667	3.479113	11.384666	7.756946	-1.081018	-0.269082	0.073926	-5.246539	1.728397	-0.888916	0.111816	-0.061035	0.029474	0.035013	0.114662	-0.049740	-0.483671	-0.108598	-0.867061	24.935440	-55.887881	160.054698
61914		4.108537	3.303072	10.899196	7.464077	-0.970280	-0.332403	0.220103	-6.355149	1.760295	-0.896240	0.129395	-0.001465	0.037303	0.033249	0.110254	-0.045004	-0.512059	-0.103645	-0.851486	26.113151	-59.620331	158.811920
61915		4.641395	4.427835	11.659902	8.595340	-2.032056	0.137456	0.338820	-7.475373	1.884383	-0.892090	0.144775	0.075928	0.041594	0.044486	0.118289	-0.039964	-0.544577	-0.098476	-0.831951	28.156057	-63.929063	156.712000
61916		5.466039	4.399377	9.969596	7.501301	-2.235162	-0.471362	0.532355	-8.738810	2.167146	-0.881592	0.166992	0.155273	0.049756	0.044281	0.102060	-0.033774	-0.581611	-0.092934	-0.807435	31.735398	-68.899247	153.142155
61917		11.913125	8.529040	13.332151	10.024708	-5.126102	6.476349	0.512178	-9.536079	2.691176	-0.862061	0.189453	0.241211	0.111434	0.086474	0.138979	-0.025823	-0.620742	-0.085427	-0.778919	37.557881	-74.281320	147.319014
61918		16.440816	8.467348	15.905411	13.193165	-4.646813	10.158592	-0.243203	-9.333584	3.194441	-0.840576	0.216309	0.327148	0.155375	0.087403	0.166342	-0.018117	-0.657713	-0.073253	-0.749480	47.119655	-79.492302	137.367977
61919		20.910649	0.661943	16.688946	14.768854	3.030864	12.286856	-0.202470	-8.970705	2.937852	-0.804932	0.234375	0.399902	0.201217	0.009790	0.176026	-0.011053	-0.691666	-0.061917	-0.719473	71.203411	-83.669394	112.925213
61920		27.628451	-0.662002	14.945756	14.769381	4.286625	17.575391	0.065255	-7.804477	2.238727	-0.776367	0.250488	0.461426	0.270227	-0.003623	0.160082	-0.005211	-0.719896	-0.053921	-0.691965	117.259748	-84.699057	66.692126
61921		24.333089	-0.460120	14.974284	16.570888	3.419064	13.207943	0.620203	-6.676128	1.390322	-0.740479	0.257568	0.505615	0.238180	-0.003414	0.157740	0.000020	-0.742982	-0.050832	-0.667379	148.160334	-82.613858	35.969649
61922		22.142406	2.492760	18.019103	20.923870	0.396181	9.757726	0.798164	-5.608839	0.877517	-0.709229	0.264893	0.547363	0.216144	0.025148	0.186403	0.004459	-0.761627	-0.050202	-0.646053	160.630700	-79.915365	23.816712
61923		12.813730	-0.589998	15.714412	17.683642	2.675602	-0.245206	1.079726	-4.692715	0.376485	-0.684570	0.269775	0.567139	0.124416	-0.006522	0.160059	0.008593	-0.776655	-0.052322	-0.627691	166.123847	-77.394999	18.843540
61924		-3.206954	3.555586	17.394847	16.469309	-2.344275	-16.793008	0.847860	-4.265737	0.030036	-0.659912	0.272217	0.593750	-0.035777	0.034815	0.173360	0.010831	-0.789820	-0.055021	-0.610770	168.828286	-75.013792	16.555493
61925		35.458168	9.801751	23.917366	33.183936	-5.060149	18.445301	-0.250558	-2.698990	-0.368072	-0.655029	0.261230	0.598389	0.351492	0.097672	0.243809	0.007958	-0.797922	-0.055827	-0.600117	169.008240	-73.452100	16.216337
61926		17.710474	3.586130	26.119220	30.116807	-0.079730	0.271469	-0.781361	1.251237	-1.011327	-0.672852	0.252197	0.587646	0.178915	0.035977	0.259936	0.002114	-0.793847	-0.057452	-0.605394	166.073096	-74.033656	18.802114
61927		0.966235	-4.006762	19.622147	18.784517	5.499225	-14.159942	-0.263965	2.678038	-1.478593	-0.692383	0.236084	0.568115	0.011994	-0.039892	0.196124	-0.002656	-0.785247	-0.062463	-0.616019	161.397153	-75.266988	23.490714
61928		-3.269622	-2.072632	15.792985	14.422452	2.920757	-16.729869	0.605198	3.214220	-1.805374	-0.707520	0.220459	0.537354	-0.030342	-0.020924	0.158367	-0.004879	-0.774586	-0.071427	-0.628403	155.151573	-76.607918	30.279841
61929		-5.500653	0.564609	12.933148	11.689445	-0.100606	-17.633839	0.828579	3.283288	-1.844211	-0.727539	0.211182	0.510986	-0.052822	0.005602	0.130234	-0.006306	-0.763511	-0.081216	-0.640637	147.591834	-77.752912	38.515684
61930		-4.416774	3.525945	11.297800	10.856681	-2.970923	-15.545778	0.456535	3.326222	-1.752787	-0.749756	0.199707	0.478027	-0.041970	0.035375	0.113769	-0.008871	-0.751936	-0.089437	-0.653080	138.441030	-78.684924	48.122626
61931		-2.053055	4.721573	10.551514	10.749096	-3.851971	-12.541214	-0.375157	3.534419	-1.513987	-0.758057	0.184082	0.456299	-0.018304	0.047558	0.105763	-0.013658	-0.739585	-0.094019	-0.666324	127.501748	-79.432130	59.041116
61932		-0.480533	2.625119	9.762613	9.938400	-1.646703	-10.778223	-1.018400	3.888372	-1.246851	-0.780029	0.170410	0.421143	-0.002742	0.026769	0.097557	-0.019800	-0.725708	-0.095461	-0.681060	114.253406	-79.971592	71.903805
61933		1.489971	0.360134	9.245173	9.273492	0.815303	-8.742179	-1.160591	4.308387	-1.073340	-0.793213	0.156982	0.390381	0.016907	0.004049	0.092079	-0.025619	-0.710244	-0.095779	-0.696939	99.109043	-80.092055	86.599655
61934		2.946282	-0.756744	8.659482	8.502804	2.093301	-7.065915	-0.914999	4.788881	-1.001993	-0.810791	0.147949	0.346191	0.031488	-0.007328	0.085891	-0.030112	-0.692620	-0.096710	-0.714156	83.072555	-79.562294	102.348224
61935		3.732767	-0.344242	7.919290	7.596694	1.786320	-5.831579	-0.521509	5.245537	-0.979757	-0.828369	0.134277	0.304443	0.039370	-0.003427	0.078187	-0.032883	-0.673115	-0.098969	-0.732148	68.573501	-78.273889	116.811527
61936		4.138533	0.994199	7.456570	6.960084	0.565898	-4.819355	-0.249598	5.621333	-0.956304	-0.839600	0.127441	0.255859	0.043506	0.009829	0.073350	-0.034481	-0.651613	-0.102130	-0.750853	56.765201	-76.285440	128.757923
61937		4.827674	2.741173	6.755153	5.984208	-1.015126	-3.520692	-0.204799	5.916982	-0.889451	-0.845947	0.116455	0.202881	0.050367	0.027259	0.066054	-0.035463	-0.628647	-0.105206	-0.769725	47.772093	-73.803237	137.938396
61938		5.010350	3.470974	6.348313	5.217379	-1.674617	-2.927629	-0.327971	6.125688	-0.801235	-0.852539	0.109863	0.147461	0.052154	0.034606	0.061850	-0.036392	-0.604142	-0.107470	-0.788758	40.848667	-70.947688	144.993766
61939		5.295541	3.423198	6.198736	4.563939	-1.543451	-2.399889	-0.459149	6.221986	-0.741314	-0.856689	0.098877	0.092285	0.054974	0.034170	0.060219	-0.037352	-0.578855	-0.108950	-0.807255	35.598525	-67.884862	150.315358
61940		5.933339	3.136284	6.442765	4.081931	-1.072138	-1.523474	-0.500382	6.219637	-0.737823	-0.854248	0.090088	0.037109	0.061412	0.031297	0.062461	-0.038354	-0.552798	-0.110196	-0.825106	31.598017	-64.659574	154.371205
61941		6.920118	2.996921	7.044467	3.696805	-0.629147	-0.200286	-0.451999	6.158227	-0.805838	-0.840332	0.077148	-0.007080	0.071445	0.029840	0.068200	-0.039526	-0.526626	-0.111658	-0.841805	28.643299	-61.378785	157.391458
61942		8.231709	3.400087	7.842534	3.204742	-0.608713	1.595305	-0.371448	6.089007	-0.921770	-0.826660	0.068604	-0.053711	0.084808	0.033756	0.075806	-0.040945	-0.499974	-0.113691	-0.857568	26.452649	-58.017955	159.682017
61943		9.425243	4.037874	8.711090	2.648831	-0.807372	3.351632	-0.361674	6.026230	-1.007099	-0.812256	0.044678	-0.097656	0.097020	0.040049	0.084142	-0.042730	-0.473288	-0.115810	-0.872216	24.782518	-54.658747	161.435270
61944		10.533200	4.222014	9.472514	1.841871	-0.587131	4.839941	-0.413868	5.947946	-1.003894	-0.787598	0.042969	-0.135498	0.108295	0.041873	0.091447	-0.044679	-0.446279	-0.117574	-0.886011	23.384871	-51.288919	162.878708
61945		11.512049	3.900090	10.551310	1.202594	0.149976	6.234873	-0.422133	5.842102	-0.899701	-0.769043	0.025635	-0.168457	0.118309	0.038691	0.102006	-0.046158	-0.419613	-0.118937	-0.898693	22.174245	-48.006984	164.145471
61946		13.118160	3.546330	12.219571	0.435602	1.131046	8.419704	-0.353211	5.681793	-0.742088	-0.748779	0.023926	-0.197266	0.134711	0.035179	0.118339	-0.046889	-0.393196	-0.120145	-0.910364	21.115783	-44.800177	165.317149
61947		16.018472	3.560838	13.526863	-1.711230	1.915243	11.295031	-0.204445	5.501858	-0.563283	-0.741455	0.004150	-0.214600	0.163923	0.035285	0.130757	-0.046537	-0.367650	-0.121537	-0.920813	20.232334	-41.740814	166.430431
61948		20.037401	3.905361	13.946895	-5.574798	2.378647	14.153613	-0.046380	5.357412	-0.402964	-0.736572	-0.004639	-0.243408	0.204091	0.038676	0.134026	-0.045255	-0.342404	-0.123242	-0.930335	19.498335	-38.751658	167.514528
61949		24.778226	5.679792	13.385694	-10.883105	1.295811	16.740827	-0.040263	5.293355	-0.189284	-0.729736	-0.013184	-0.271973	0.251262	0.056587	0.127226	-0.042930	-0.317570	-0.124505	-0.939045	18.792550	-35.854901	168.635878
61950		29.664626	7.716288	11.370669	-17.410662	-0.513399	17.849255	-0.313258	5.336060	0.099907	-0.738525	-0.017822	-0.311768	0.299498	0.077482	0.105620	-0.039665	-0.292219	-0.123951	-0.947455	17.909965	-32.949221	169.869202
61951		34.148866	9.518794	8.324242	-24.250642	-2.679224	17.213950	-0.824067	5.474023	0.457809	-0.731689	-0.021973	-0.349609	0.343369	0.096289	0.073465	-0.035295	-0.266330	-0.120389	-0.955682	16.709507	-30.036818	171.257081
61952		38.706567	6.973254	3.742751	-31.868699	-1.256032	13.493546	-1.429119	5.745160	0.689345	-0.709717	-0.008057	-0.403320	0.387674	0.071280	0.025790	-0.030464	-0.238782	-0.113586	-0.963926	15.189082	-26.963081	172.717980
61953		39.507655	-0.713353	-1.983225	-36.334422	4.451274	5.181309	-1.470093	6.042393	0.355168	-0.687256	-0.016357	-0.447510	0.394250	-0.006637	-0.031703	-0.027062	-0.209560	-0.106915	-0.971556	13.839794	-23.666482	173.895750
61954		36.692527	-4.993031	-8.453584	-37.050783	6.675423	-4.813901	-0.744026	6.038131	-0.549278	-0.660400	-0.015869	-0.496582	0.364015	-0.051274	-0.095367	-0.027288	-0.179661	-0.104627	-0.977768	13.208077	-20.219842	174.437568
61955		32.858501	-1.868823	-15.966723	-36.233609	1.762813	-14.477926	-0.276776	5.478850	-1.590311	-0.623779	-0.032715	-0.529541	0.323885	-0.021505	-0.168555	-0.032431	-0.151970	-0.105380	-0.982216	13.104590	-16.959727	174.255579
61956		32.006277	1.781804	-23.659320	-37.458828	-3.029612	-23.029059	-0.999170	4.288859	-2.425881	-0.603271	-0.043457	-0.553955	0.315066	0.012771	-0.243458	-0.042838	-0.129411	-0.102956	-0.985301	12.754143	-14.252616	173.419998
61957		31.229516	2.007337	-28.753903	-37.496566	-3.349677	-29.525065	-2.410834	2.568073	-2.856982	-0.587402	-0.045166	-0.569580	0.308779	0.012146	-0.291697	-0.057135	-0.114774	-0.093424	-0.987337	11.675802	-12.472181	172.095999
61958		26.869461	-4.739284	-28.755342	-32.168248	4.073873	-32.609276	-3.080178	0.456702	-2.691650	-0.591797	-0.045410	-0.569580	0.267328	-0.055424	-0.287353	-0.071958	-0.110419	-0.079862	-0.988055	10.226577	-11.929413	170.597883
61959		15.104446	-26.631019	-22.562520	-16.231855	25.532769	-32.855467	-1.108563	-1.627113	-2.241589	-0.600586	-0.052246	-0.549316	0.149859	-0.269235	-0.222916	-0.084281	-0.117183	-0.075000	-0.986681	9.899060	-12.626980	169.137488
61960		0.293985	-9.049885	-8.549646	-1.186037	7.671770	-19.549550	2.761576	-4.361058	-1.444632	-0.633301	-0.077393	-0.517578	0.004173	-0.089335	-0.086653	-0.091378	-0.139383	-0.087567	-0.982117	11.793373	-14.938262	167.817231
61961		13.020054	12.562203	14.161987	-9.677802	-7.244331	9.722887	2.361442	-4.717912	-0.321464	-0.655762	-0.077881	-0.477539	0.126989	0.123709	0.146109	-0.093341	-0.163469	-0.097171	-0.977304	13.367536	-17.540426	167.017142
61962		5.863500	8.278933	21.113005	0.774047	-3.277852	13.366981	1.500965	-2.344190	1.136467	-0.664551	-0.078125	-0.464111	0.055685	0.081520	0.212409	-0.087672	-0.176275	-0.102434	-0.975063	14.121514	-19.013857	167.347630
61963		2.068396	-3.140644	9.982589	2.224314	5.234082	-0.788128	2.657483	-2.286151	1.101697	-0.677734	-0.085205	-0.435059	0.019722	-0.032621	0.099627	-0.081113	-0.189151	-0.113369	-0.972003	15.542685	-20.445669	167.639780
61964		2.931714	13.356980	3.937238	-2.492384	-11.451642	-1.742207	2.502415	-3.248047	0.908869	-0.691406	-0.083252	-0.403809	0.028049	0.133189	0.041503	-0.076135	-0.206536	-0.123289	-0.967650	16.982051	-22.391699	167.617352
61965		13.121950	16.579181	10.226741	-8.763893	-11.168261	8.896625	1.021438	-3.896384	1.097067	-0.702881	-0.072510	-0.373047	0.128273	0.165967	0.105633	-0.072157	-0.226439	-0.125558	-0.963200	17.592049	-24.714137	167.548348
61966		22.000427	9.563526	15.170091	-12.960117	-1.657947	15.382831	0.602335	-3.477395	0.489216	-0.716553	-0.068359	-0.346436	0.217085	0.095704	0.155781	-0.071278	-0.243793	-0.126613	-0.958881	18.103042	-26.710880	167.165651
61967		25.694889	0.180879	14.895899	-14.808834	8.112855	14.620338	0.611175	-2.706992	-0.102398	-0.723145	-0.066406	-0.317627	0.254902	0.001216	0.152423	-0.072731	-0.256933	-0.128662	-0.955061	18.733763	-28.167940	166.550649
61968		15.268781	-1.693288	9.744308	-7.845961	6.800657	5.125071	0.651955	-1.954604	0.290215	-0.718994	-0.059570	-0.306641	0.151751	-0.017033	0.098874	-0.071742	-0.266821	-0.130663	-0.952148	19.221366	-29.298412	166.313283
61969		8.971694	7.522998	8.725912	-3.361162	-3.499191	3.959712	0.655148	-1.865303	0.639947	-0.714844	-0.050781	-0.291260	0.088656	0.075227	0.088336	-0.069038	-0.276371	-0.132223	-0.949405	19.599329	-30.432298	166.302277
61970		8.330900	12.958126	7.904947	-3.313017	-9.007561	4.598690	0.228383	-1.613689	0.431783	-0.705811	-0.048340	-0.282471	0.082387	0.129669	0.079865	-0.067716	-0.284540	-0.132124	-0.947098	19.777893	-31.404717	166.209188
61971		9.135259	1.872848	8.479395	-2.879821	1.855662	2.316700	0.071909	-1.120741	0.269174	-0.701660	-0.041504	-0.278320	0.090850	0.018820	0.085311	-0.067081	-0.290076	-0.131671	-0.945526	19.861248	-32.065147	166.123528
61972		9.124370	0.623520	9.348363	-2.186374	3.225493	2.671290	0.368620	-0.835449	0.303557	-0.697510	-0.030518	-0.276367	0.090843	0.006200	0.093875	-0.065641	-0.294503	-0.132675	-0.944117	20.074298	-32.593343	166.121293
61973		7.243679	5.729354	8.037456	-1.546089	-2.307042	2.111402	0.258949	-0.430760	0.168042	-0.684082	-0.027832	-0.278564	0.072215	0.057250	0.080604	-0.064754	-0.296764	-0.133478	-0.943357	20.216455	-32.862247	166.127410
61974		7.348576	1.071174	7.787302	-1.524171	2.118440	0.626665	0.097930	-0.303958	0.085759	-0.679688	-0.025635	-0.289795	0.073363	0.010705	0.077990	-0.064388	-0.298446	-0.133696	-0.942820	20.283620	-33.061852	166.108208
61975		6.692934	1.073754	7.696767	-1.017313	1.974533	0.200044	0.218336	-0.151529	-0.045823	-0.668457	-0.025391	-0.291992	0.066873	0.010638	0.077030	-0.064382	-0.299231	-0.134716	-0.942426	20.441723	-33.138146	166.042455
61976		5.917796	2.323960	8.045009	-0.217052	0.722240	0.413477	0.246519	-0.119961	-0.154196	-0.668945	-0.011963	-0.303467	0.059148	0.023095	0.080514	-0.064799	-0.299932	-0.136048	-0.941983	20.654240	-33.190955	165.912713
61977		7.084709	3.522271	7.480975	-1.526022	-0.275820	0.965046	0.261929	-0.138151	-0.170563	-0.664307	-0.020752	-0.318848	0.070825	0.035064	0.074905	-0.065306	-0.300583	-0.137463	-0.941535	20.879798	-33.234350	165.769606
61978		6.089110	4.348705	7.818030	-0.536449	-1.165228	0.932753	0.197393	-0.142583	-0.155540	-0.664307	-0.020752	-0.325439	0.060869	0.043362	0.078267	-0.065818	-0.301373	-0.138558	-0.941087	21.068193	-33.298244	165.632937
61979		6.453380	4.387791	7.628790	-0.927956	-1.149238	1.000054	0.093643	-0.160130	-0.086724	-0.664551	-0.016357	-0.338867	0.064492	0.043814	0.076360	-0.066198	-0.302129	-0.139047	-0.940745	21.171379	-33.369956	165.537516
61980		5.846783	4.219170	7.923429	-0.237629	-1.039569	0.847040	0.071688	-0.167486	-0.041385	-0.669189	-0.009766	-0.345703	0.058410	0.042151	0.079298	-0.066380	-0.303073	-0.139372	-0.940381	21.251872	-33.470301	165.467006
61981		4.865283	3.731093	8.384447	0.864722	-0.674786	0.516295	0.013037	-0.193186	0.010448	-0.680664	-0.007568	-0.356689	0.048570	0.037308	0.083894	-0.066449	-0.304024	-0.139324	-0.940076	21.279554	-33.579653	165.425154
61982		5.490349	3.479446	8.004147	0.170095	-0.392412	0.489443	-0.025527	-0.212078	0.052259	-0.687500	-0.003418	-0.363525	0.054809	0.034819	0.080095	-0.066370	-0.305208	-0.139036	-0.939740	21.277838	-33.722957	165.403120
61983		6.235938	3.870756	7.465546	-0.742379	-0.736732	0.604131	-0.057632	-0.216170	0.081369	-0.698975	0.005371	-0.368164	0.062263	0.038754	0.074712	-0.066228	-0.306293	-0.138540	-0.939471	21.243109	-33.859320	165.400972
61984		6.164577	3.906468	7.059103	-0.903465	-0.888387	0.261433	-0.090006	-0.203946	0.121458	-0.699219	0.009766	-0.381592	0.061550	0.039134	0.070636	-0.065918	-0.307464	-0.137846	-0.939212	21.178604	-34.012546	165.425528
61985		5.562257	3.147289	7.546986	-0.080456	-0.200346	0.074399	-0.104932	-0.179996	0.134760	-0.710693	0.018555	-0.388184	0.055533	0.031550	0.075503	-0.065573	-0.308399	-0.137057	-0.939045	21.092229	-34.140611	165.467202
61986		5.984016	2.654633	7.743163	-0.261441	0.381951	0.316371	-0.111918	-0.171607	0.130434	-0.730957	0.018066	-0.392578	0.059756	0.026629	0.077468	-0.065232	-0.309415	-0.136258	-0.938851	21.007089	-34.278282	165.506066
61987		5.399950	2.599957	7.602249	0.139304	0.267548	-0.136820	-0.071784	-0.134716	0.105212	-0.735840	0.026855	-0.395020	0.053935	0.026055	0.076049	-0.064944	-0.310127	-0.135685	-0.938719	20.943695	-34.375964	165.540402
61988		5.667933	2.382599	7.483434	-0.122287	0.493919	-0.140816	-0.054606	-0.122600	0.068798	-0.738525	0.035889	-0.399658	0.056625	0.023866	0.074863	-0.064771	-0.310889	-0.135265	-0.938539	20.906625	-34.474628	165.551914
61989		6.215039	2.234341	7.060879	-0.795779	0.651494	-0.199297	-0.012226	-0.109511	0.028531	-0.747314	0.033447	-0.397217	0.062109	0.022357	0.070641	-0.064733	-0.311450	-0.135098	-0.938380	20.901814	-34.543109	165.542917
61990		5.394126	2.575347	7.492638	0.118293	0.247522	-0.231801	0.008753	-0.079649	-0.007296	-0.759033	0.044189	-0.401855	0.053912	0.025748	0.074949	-0.064788	-0.311979	-0.135107	-0.938199	20.922855	-34.603221	165.515753
61991		5.054103	2.423803	7.849873	0.618388	0.399671	-0.195144	0.023197	-0.083200	-0.027278	-0.765869	0.048584	-0.402100	0.050512	0.024222	0.078523	-0.064939	-0.312390	-0.135202	-0.938038	20.955292	-34.646191	165.476948
61992		4.876351	2.447993	7.670438	0.662153	0.306142	-0.427864	0.066692	-0.096089	-0.047726	-0.772705	0.050781	-0.402100	0.048732	0.024443	0.076736	-0.065105	-0.312985	-0.135539	-0.937780	21.026803	-34.706574	165.419328
61993		5.303154	2.056199	7.518160	0.255704	0.745005	-0.418344	0.100529	-0.116784	-0.085080	-0.777100	0.050537	-0.399658	0.052996	0.020502	0.075223	-0.065429	-0.313539	-0.136076	-0.937494	21.129929	-34.755510	165.334324
61994		5.630359	2.085712	7.404279	-0.058959	0.774765	-0.311598	0.133971	-0.148405	-0.141020	-0.781738	0.050537	-0.404297	0.056263	0.020768	0.074098	-0.065962	-0.314336	-0.136857	-0.937076	21.282246	-34.824123	165.202604
61995		5.421233	1.296207	7.451868	0.180121	1.514983	-0.632678	0.185662	-0.150675	-0.215458	-0.781738	0.052734	-0.395264	0.054170	0.012834	0.074571	-0.066786	-0.314987	-0.137986	-0.936634	21.487887	-34.863526	165.023785
61996		4.523047	1.025700	7.904969	1.194632	1.708244	-0.887823	0.241184	-0.143988	-0.316381	-0.786133	0.050537	-0.401855	0.045190	0.010090	0.079094	-0.067968	-0.315675	-0.139544	-0.936086	21.766375	-34.891874	164.778851
61997		4.552339	1.210642	8.036811	1.257741	1.604552	-0.722963	0.322672	-0.127639	-0.413324	-0.788574	0.052490	-0.395264	0.045497	0.011883	0.080416	-0.069485	-0.316124	-0.141633	-0.935509	22.120805	-34.875237	164.477310
61998		4.571906	1.564921	8.125463	1.297434	1.339581	-0.544658	0.393925	-0.140217	-0.483275	-0.788086	0.041504	-0.401855	0.045699	0.015379	0.081317	-0.071202	-0.316722	-0.144165	-0.934791	22.547548	-34.862461	164.125617
61999		5.436519	2.842522	8.066717	0.542671	0.370560	0.300440	0.509613	-0.203682	-0.519669	-0.790283	0.041504	-0.392822	0.054356	0.028078	0.080794	-0.072973	-0.317510	-0.147267	-0.933903	23.059637	-34.858662	163.735466
62000		5.560594	4.946473	7.682804	0.142036	-1.612409	0.760527	0.408737	-0.246583	-0.476689	-0.790039	0.036865	-0.383789	0.055629	0.049175	0.076997	-0.074711	-0.318604	-0.149815	-0.932987	23.508872	-34.898290	163.359231
62001		4.904495	4.451744	8.340871	1.109332	-1.090080	0.724060	0.351708	-0.303934	-0.393634	-0.792480	0.036865	-0.379395	0.049005	0.044274	0.083561	-0.076218	-0.319888	-0.151940	-0.932082	23.900978	-34.971081	163.021334
62002		5.638456	4.793346	7.844989	0.247224	-1.304458	0.890078	0.330335	-0.393563	-0.319667	-0.790039	0.032471	-0.381592	0.056306	0.047714	0.078640	-0.077458	-0.321747	-0.153816	-0.931031	24.273833	-35.119615	162.701972
62003		6.498488	5.151583	7.177858	-0.814862	-1.549897	1.014331	0.245488	-0.449879	-0.223062	-0.791748	0.019043	-0.379150	0.064880	0.051355	0.071988	-0.078451	-0.323795	-0.155113	-0.930023	24.569310	-35.305481	162.428435
62004		6.189675	5.323790	7.353103	-0.420349	-1.718926	1.031263	0.184049	-0.537506	-0.104097	-0.791748	0.021240	-0.367920	0.061726	0.053138	0.073746	-0.079035	-0.326427	-0.155905	-0.928920	24.807219	-35.577617	162.200915
62005		6.049373	5.013908	7.588605	-0.088289	-1.396147	1.020767	0.090367	-0.635271	0.039898	-0.798340	0.019043	-0.359131	0.060242	0.050117	0.076100	-0.079201	-0.329474	-0.155978	-0.927817	24.951816	-35.921441	162.037074
62006		5.275874	4.947087	7.879154	0.770071	-1.463776	0.753930	0.035318	-0.739595	0.171903	-0.807617	0.023193	-0.359131	0.052424	0.049502	0.078995	-0.078905	-0.333192	-0.155547	-0.926586	25.040517	-36.364158	161.922362
62007		5.445168	4.461341	8.459734	1.121901	-0.851009	1.102291	-0.047706	-0.899622	0.307405	-0.807129	0.012207	-0.352051	0.054002	0.044717	0.084830	-0.078263	-0.337607	-0.154427	-0.925229	25.054340	-36.909699	161.848531
62008		5.253757	3.893304	8.728985	1.577902	-0.335734	0.973929	-0.000707	-1.096568	0.421412	-0.807617	0.023193	-0.339111	0.051976	0.039043	0.087576	-0.077145	-0.343137	-0.153264	-0.923480	25.093314	-37.597721	161.784958
62009		4.774081	4.184025	9.159053	2.349417	-0.670627	1.059957	0.002350	-1.379407	0.548559	-0.816406	0.022949	-0.325684	0.046993	0.041969	0.091917	-0.075667	-0.349949	-0.151768	-0.921291	25.131967	-38.450746	161.719683
62010		4.877665	4.547456	9.209415	2.470752	-1.030006	1.237885	-0.004969	-1.692018	0.700836	-0.823730	0.036133	-0.310547	0.047835	0.045646	0.092500	-0.073715	-0.358391	-0.149856	-0.918512	25.171741	-39.514988	161.653164
62011		4.500502	5.528548	8.971768	2.769337	-2.170774	1.092594	-0.028673	-2.017912	0.932023	-0.837158	0.035889	-0.299316	0.043839	0.055504	0.090156	-0.070999	-0.368354	-0.147272	-0.915197	25.159941	-40.792505	161.641484
62012		5.104756	5.420245	8.565464	2.307493	-2.103759	1.098177	-0.090989	-2.366817	1.190516	-0.850830	0.042236	-0.277100	0.049705	0.054540	0.086223	-0.067445	-0.380123	-0.143795	-0.911198	25.074316	-42.325162	161.693053
62013		5.267564	4.625386	9.276132	3.009984	-1.278536	1.344468	-0.130069	-2.807637	1.453749	-0.853516	0.057617	-0.246338	0.051029	0.046689	0.093455	-0.063085	-0.393898	-0.139445	-0.906322	24.926889	-44.139117	161.795227
62014		4.007531	3.973564	10.830757	5.369572	-0.760997	1.129248	-0.105424	-3.374537	1.656573	-0.876709	0.074707	-0.211182	0.037909	0.040113	0.108938	-0.058121	-0.410360	-0.134603	-0.900060	24.822619	-46.306952	161.857833
62015		3.806377	3.569208	12.176421	6.945398	-0.308799	1.462544	-0.087034	-4.062862	1.737145	-0.878906	0.079102	-0.173584	0.035268	0.036060	0.122484	-0.053209	-0.429716	-0.129405	-0.892058	24.852049	-48.841561	161.746489
62016		3.113298	2.744255	11.425889	7.262547	0.046692	-0.066136	-0.000822	-4.856771	1.756922	-0.897705	0.098633	-0.129395	0.028104	0.027699	0.114966	-0.048498	-0.452475	-0.124278	-0.881742	25.175015	-51.801972	161.326469
62017		3.228338	3.229042	11.163475	7.519237	-0.593368	-0.403332	0.104155	-5.830340	1.788372	-0.913574	0.106934	-0.067383	0.028721	0.032499	0.112524	-0.043986	-0.479131	-0.119191	-0.868500	25.931712	-55.261825	160.456545
62018		3.434456	3.941325	11.320604	8.176453	-1.369253	-0.501979	0.274500	-6.962625	1.850536	-0.905029	0.122559	0.000977	0.030011	0.039548	0.114355	-0.039418	-0.510300	-0.114328	-0.851451	27.408127	-59.314138	158.889204
62019		4.821562	6.632258	11.428591	8.497471	-3.871286	0.701300	0.478614	-8.139282	1.994170	-0.907715	0.140137	0.080566	0.042848	0.066491	0.116262	-0.034334	-0.545754	-0.109545	-0.830045	29.973068	-63.958634	156.285095
62020		5.297138	5.047735	10.076214	7.841756	-2.607372	-0.503665	0.606038	-9.530656	2.221152	-0.895020	0.164551	0.175537	0.047526	0.050715	0.103268	-0.028656	-0.586027	-0.104222	-0.803050	34.591898	-69.267737	151.635735
62021		13.286425	9.133321	14.997925	11.678345	-4.854253	8.201741	0.716264	-9.940071	2.715329	-0.875244	0.182373	0.263672	0.123937	0.092504	0.156619	-0.020810	-0.626683	-0.097554	-0.772864	42.135975	-74.713909	144.141341
62022		18.662270	3.492077	15.211405	12.136808	1.067317	11.233734	-0.059375	-9.282593	3.024052	-0.842529	0.213867	0.344971	0.178744	0.037711	0.160523	-0.013839	-0.663313	-0.086762	-0.743167	54.526791	-79.578193	131.409232
62023		29.688983	-0.901158	16.999051	14.472799	6.513541	20.496236	0.264348	-8.267943	2.361381	-0.809082	0.223145	0.413574	0.289610	-0.005798	0.182057	-0.007776	-0.694479	-0.079237	-0.715094	79.573572	-82.749480	106.230874
62024		30.028253	-2.766873	14.987118	14.558400	7.833428	19.517500	1.005903	-6.576848	1.301263	-0.787109	0.241211	0.461670	0.295317	-0.026522	0.159503	-0.002257	-0.718176	-0.078000	-0.691473	111.479104	-83.142356	74.672178
62025		25.395481	1.527062	16.993634	18.466741	3.266681	14.356559	1.525605	-5.000987	0.602825	-0.760254	0.243896	0.488281	0.249554	0.014698	0.176327	0.003342	-0.735491	-0.081001	-0.672667	132.399873	-81.899380	54.455460
62026		10.330508	0.573582	14.391906	15.313086	2.381299	-1.212338	1.942063	-3.976816	0.116302	-0.740234	0.248779	0.508057	0.100413	0.004384	0.145982	0.009242	-0.748708	-0.087130	-0.657084	143.554455	-80.244066	44.288888
62027		-6.867840	8.327845	17.036376	16.937241	-6.778680	-18.408610	1.294551	-4.234092	-0.191875	-0.713135	0.249268	0.541260	-0.072192	0.082248	0.169395	0.011595	-0.762313	-0.092251	-0.640495	150.725333	-78.140616	37.742144
62028		28.504836	13.472802	22.682477	29.160657	-6.580982	14.982371	-0.552283	-3.058344	-0.298442	-0.710693	0.244873	0.552246	0.281741	0.134940	0.230778	0.007093	-0.771897	-0.091768	-0.629050	153.378769	-76.513510	34.694263
62029		9.711608	3.606192	24.672379	26.331875	0.712012	-5.104848	-1.504099	-0.023886	-0.702682	-0.709961	0.224854	0.552734	0.097217	0.037575	0.246457	-0.000949	-0.771699	-0.089723	-0.629627	151.078289	-76.310907	36.171388
62030		0.087241	-4.150228	19.043315	18.001490	6.136765	-14.074349	-1.005193	0.915590	-1.111281	-0.723145	0.213379	0.539795	0.001518	-0.040552	0.190633	-0.007955	-0.768237	-0.090830	-0.633639	147.107405	-76.440019	39.659085
62031		-2.051364	-2.631176	16.845244	15.752532	4.006634	-15.352888	-0.141462	1.497651	-1.354554	-0.724854	0.200195	0.526855	-0.019428	-0.026058	0.168619	-0.012125	-0.762854	-0.095616	-0.639346	142.308153	-76.689744	44.506884
62032		-2.160249	-0.501889	14.872727	14.164055	1.713178	-14.561875	0.215381	1.881175	-1.340543	-0.742676	0.193115	0.511475	-0.020236	-0.005041	0.148916	-0.014725	-0.756094	-0.101499	-0.646377	136.890931	-77.021407	50.190116
62033		-1.011912	2.164018	13.734232	13.647839	-0.766814	-12.546538	0.048150	2.402737	-1.195172	-0.757813	0.179688	0.487305	-0.008339	0.021660	0.137455	-0.017201	-0.747681	-0.106316	-0.655267	130.437937	-77.475450	56.831187
62034		-0.444408	2.769463	12.636321	12.780275	-1.341137	-11.360626	-0.418991	2.990088	-0.936827	-0.770996	0.166016	0.456787	-0.002424	0.027974	0.126351	-0.020284	-0.737170	-0.108662	-0.666605	122.292006	-78.067962	64.912813
62035		-0.613093	1.491887	11.271933	11.298992	-0.278385	-11.190711	-0.742963	3.517064	-0.650630	-0.784180	0.161377	0.430176	-0.004099	0.015353	0.112747	-0.023292	-0.724920	-0.108897	-0.679772	112.344395	-78.662924	74.630395
62036		0.098060	0.510832	10.177517	10.160757	0.682315	-10.175866	-0.783478	3.927449	-0.398565	-0.802490	0.163330	0.399170	0.002989	0.005502	0.101709	-0.025386	-0.711010	-0.108085	-0.694361	100.478115	-79.084735	86.257228
62037		1.589545	0.338251	9.515683	9.475535	1.062034	-8.309061	-0.631772	4.305474	-0.206354	-0.811035	0.154541	0.359375	0.017942	0.003664	0.094774	-0.026030	-0.695728	-0.107120	-0.709796	87.270737	-79.134676	99.333170
62038		3.719326	1.073839	8.923380	8.770602	0.689101	-5.665733	-0.426906	4.723835	-0.084516	-0.824463	0.149902	0.315186	0.039291	0.010911	0.088299	-0.025320	-0.678544	-0.106453	-0.726364	73.359481	-78.622648	113.250792
62039		5.226555	1.911778	8.618197	8.183395	0.131470	-3.629110	-0.250244	5.203687	-0.030018	-0.835938	0.149902	0.275391	0.054486	0.019216	0.084759	-0.023513	-0.659395	-0.106242	-0.743880	60.305410	-77.428654	126.442447
62040		6.078130	2.790667	7.952716	7.141102	-0.638573	-2.292923	-0.141066	5.681375	-0.015815	-0.851807	0.151855	0.224365	0.063009	0.027957	0.077739	-0.021052	-0.637834	-0.106363	-0.762503	49.110367	-75.517247	137.862169
62041		6.170007	3.162546	7.237383	6.027742	-1.063796	-1.878132	-0.072857	6.051617	-0.059913	-0.855957	0.140869	0.169189	0.063861	0.031632	0.070452	-0.018297	-0.614461	-0.106838	-0.781465	40.473361	-73.028614	146.785269
62042		6.009980	3.637046	6.636576	5.063966	-1.622904	-1.744990	-0.028724	6.279010	-0.150400	-0.854004	0.147705	0.120117	0.062170	0.036334	0.064430	-0.015653	-0.589388	-0.107681	-0.800488	34.083472	-70.089458	153.492874
62043		6.004076	4.095957	6.230731	4.241516	-2.120347	-1.497909	-0.035419	6.342499	-0.259855	-0.858398	0.138916	0.058105	0.062029	0.040891	0.060354	-0.013386	-0.563596	-0.108720	-0.818756	29.518424	-66.923697	158.371908
62044		6.344732	4.377845	6.288384	3.681566	-2.324586	-0.869560	-0.080413	6.290083	-0.406964	-0.853760	0.134766	0.000488	0.065471	0.043671	0.060828	-0.011824	-0.537164	-0.109926	-0.836201	26.239041	-63.605442	161.932510
62045		7.299762	4.360265	6.841928	3.204389	-2.068990	0.411184	-0.137951	6.158986	-0.590284	-0.837402	0.117432	-0.048096	0.075185	0.043429	0.066096	-0.011281	-0.510857	-0.111219	-0.852366	23.925836	-60.269253	164.459851
62046		8.674992	4.059464	7.496663	2.429567	-1.457109	2.013795	-0.154490	6.019402	-0.804358	-0.833008	0.115234	-0.101318	0.089115	0.040296	0.072277	-0.011722	-0.484326	-0.112923	-0.867490	22.301318	-56.892662	166.261458
62047		9.758356	3.936067	8.446391	1.900579	-0.986659	3.507270	-0.109807	5.898354	-0.991482	-0.814453	0.095703	-0.140869	0.100210	0.038913	0.081513	-0.012959	-0.457994	-0.115116	-0.881375	21.192500	-53.547044	167.530742
62048		10.830533	4.141798	9.387311	1.227039	-0.816671	5.031204	-0.068980	5.786657	-1.082038	-0.793701	0.085205	-0.178467	0.111182	0.040853	0.090670	-0.014596	-0.431483	-0.117594	-0.894305	20.382618	-50.203442	168.501997
62049		11.923332	4.639942	10.531228	0.563144	-0.877517	6.723331	-0.089184	5.681576	-1.036679	-0.770752	0.065674	-0.211426	0.122398	0.045816	0.101844	-0.016083	-0.405317	-0.119770	-0.906154	19.696908	-46.945654	169.344113
62050		13.698591	5.074345	11.817429	-0.653254	-0.771598	8.947327	-0.176053	5.571007	-0.889026	-0.743408	0.057373	-0.242432	0.140429	0.050226	0.114250	-0.017171	-0.379179	-0.121155	-0.917197	19.004632	-43.741288	170.167351
62051		16.685756	5.199474	12.641669	-3.303819	-0.356948	11.496965	-0.302105	5.482197	-0.683581	-0.727295	0.046875	-0.269043	0.170414	0.051603	0.121699	-0.017555	-0.353488	-0.121463	-0.927354	18.255392	-40.643662	171.020483
62052		20.072923	5.169989	12.880472	-6.916621	0.048498	13.587494	-0.425207	5.435290	-0.474303	-0.716064	0.044678	-0.284424	0.204250	0.051484	0.123176	-0.017241	-0.327641	-0.120744	-0.936897	17.440388	-37.572680	171.918098
62053		23.510795	5.380844	12.277878	-11.268160	-0.066303	14.790231	-0.543818	5.384796	-0.268717	-0.708984	0.031738	-0.310791	0.238369	0.053812	0.116243	-0.016137	-0.302122	-0.119029	-0.945671	16.575454	-34.581290	172.852385
62054		27.170747	6.024066	10.593116	-16.514742	-0.941887	14.944489	-0.704150	5.316617	-0.078193	-0.699951	0.031982	-0.344238	0.274415	0.060489	0.098447	-0.014437	-0.276599	-0.116189	-0.953826	15.644709	-31.621114	173.810077
62055		31.489782	6.530948	8.155225	-22.709383	-1.930650	14.292567	-0.984459	5.238775	0.067198	-0.688721	0.027832	-0.381836	0.316862	0.065789	0.072946	-0.012431	-0.251520	-0.111711	-0.961303	14.600457	-28.737486	174.758954
62056		35.963212	3.529914	3.932136	-29.933392	0.054837	10.801487	-1.250716	5.289914	-0.059064	-0.684082	0.025879	-0.417480	0.360511	0.035398	0.029572	-0.011356	-0.225754	-0.106051	-0.968328	13.518799	-25.772573	175.549689
62057		36.269146	-1.641470	-1.315650	-33.558718	3.815828	3.559296	-1.088515	5.378855	-0.721739	-0.661621	0.019775	-0.455078	0.362102	-0.017829	-0.022807	-0.013222	-0.199218	-0.101833	-0.974560	12.757912	-22.681433	175.876500
62058		33.636998	-2.922402	-7.118456	-33.915394	3.843873	-4.779533	-0.616593	5.210205	-1.739388	-0.634277	0.007080	-0.499268	0.334093	-0.032374	-0.079812	-0.019669	-0.172752	-0.100853	-0.979591	12.525637	-19.541196	175.534183
62059		31.443005	0.793413	-13.463416	-34.104630	-0.744170	-12.381471	-0.641440	4.599157	-2.685518	-0.617676	-0.012695	-0.525635	0.311288	0.003293	-0.141833	-0.031046	-0.148782	-0.100420	-0.983268	12.459635	-16.639586	174.553876
62060		31.937202	3.056578	-20.906658	-36.634924	-3.486621	-20.387639	-1.553616	3.577917	-3.310787	-0.592773	-0.023193	-0.552246	0.315991	0.023661	-0.214942	-0.046675	-0.129228	-0.095750	-0.985877	11.959502	-14.233098	173.080315
62061		32.663303	0.196279	-26.641489	-38.205758	-0.243482	-27.605380	-2.776592	2.195885	-3.624593	-0.579102	-0.025146	-0.556641	0.323602	-0.007652	-0.269917	-0.065265	-0.116013	-0.084860	-0.987461	10.791809	-12.593982	171.242899
62062		28.238263	-6.842403	-28.227410	-32.982041	7.453897	-32.113754	-3.019442	0.365894	-3.482647	-0.583496	-0.029541	-0.556641	0.280569	-0.077576	-0.281663	-0.084032	-0.111770	-0.072060	-0.987549	9.481906	-12.042994	169.270178
62063		20.379707	-15.931414	-25.310931	-22.933457	16.641648	-32.324566	-1.525389	-1.833441	-2.953866	-0.592041	-0.041016	-0.533936	0.203697	-0.164238	-0.250001	-0.100110	-0.119129	-0.065367	-0.985654	9.010161	-12.811971	167.387376
62064		-0.828463	-21.465626	-6.024265	3.259987	19.913838	-19.327662	2.078605	-3.637895	-2.404768	-0.613281	-0.070313	-0.497803	-0.009735	-0.213902	-0.062637	-0.111868	-0.137386	-0.075175	-0.981305	10.618147	-14.644231	165.624518
62065		4.174367	6.451985	9.825749	-2.088228	-3.939857	1.835420	2.624964	-5.429252	-1.622098	-0.646240	-0.088867	-0.463867	0.039556	0.062886	0.100184	-0.120005	-0.164843	-0.086063	-0.975202	12.562140	-17.508949	164.027192
62066		11.326465	23.095192	19.951614	-7.784007	-16.364991	17.228265	2.229759	-3.581778	-0.156063	-0.648438	-0.089111	-0.439453	0.109816	0.228607	0.204061	-0.120426	-0.183650	-0.094852	-0.970965	14.023886	-19.498976	163.438349
62067		-0.101071	-2.332825	13.078423	5.653641	4.095557	1.489955	1.724621	-2.235118	0.992273	-0.663818	-0.093750	-0.410400	-0.002351	-0.024464	0.130555	-0.115070	-0.196020	-0.100926	-0.968581	14.924372	-20.885084	163.683996
62068		1.604330	3.909118	4.579352	-0.190418	-2.569932	-4.140025	2.834388	-3.024846	0.772654	-0.668457	-0.093994	-0.379395	0.015193	0.038495	0.046576	-0.110037	-0.212753	-0.112100	-0.964397	16.564700	-22.686389	163.636122
62069		13.157353	15.488456	5.652556	-11.415293	-10.320649	4.612100	2.021349	-3.573812	0.846320	-0.682129	-0.085449	-0.346191	0.129862	0.154839	0.060422	-0.105785	-0.231555	-0.118925	-0.959713	17.782240	-24.789924	163.481723
62070		22.139904	12.188397	13.457815	-14.319669	-3.414279	14.744408	1.223763	-3.237170	0.587272	-0.688965	-0.081299	-0.328369	0.218817	0.121688	0.138879	-0.103447	-0.248166	-0.122368	-0.955374	18.609211	-26.670903	163.192190
62071		27.311167	6.376619	15.889747	-15.926239	3.959007	17.930143	0.732123	-2.569678	0.136451	-0.691162	-0.081299	-0.303955	0.270995	0.063361	0.162621	-0.103450	-0.260911	-0.124326	-0.951718	19.234888	-28.093055	162.737625
62072		21.610303	-3.764921	12.610342	-10.949638	11.573725	9.842932	0.794330	-1.546396	0.048833	-0.684814	-0.072266	-0.295410	0.215129	-0.038101	0.127619	-0.103123	-0.268845	-0.127221	-0.949159	19.838736	-28.954440	162.428123
62073		12.117762	3.821644	10.406949	-4.904929	1.529721	5.786903	0.746660	-1.178271	0.443690	-0.680420	-0.067871	-0.295410	0.120477	0.038094	0.104923	-0.100762	-0.275127	-0.129527	-0.947299	20.259639	-29.679814	162.436301
62074		7.248576	15.458202	8.599832	-3.034896	-11.091805	5.458601	0.544192	-0.952941	0.474700	-0.673828	-0.063232	-0.286865	0.071707	0.154517	0.086762	-0.098359	-0.280375	-0.130942	-0.945817	20.535250	-30.305400	162.508981
62075		4.741589	12.444182	6.707379	-1.528319	-9.277243	1.759923	-0.108312	-0.829031	0.368528	-0.665283	-0.052002	-0.291504	0.046908	0.124565	0.067201	-0.097312	-0.284512	-0.129473	-0.944892	20.451848	-30.828297	162.545241
62076		8.192651	2.878666	8.617225	-2.136437	0.979675	2.193052	-0.337286	-0.681230	0.408319	-0.665283	-0.049805	-0.300537	0.081573	0.029099	0.086402	-0.096287	-0.287987	-0.126958	-0.944285	20.211961	-31.294297	162.639582
62077		8.067145	0.638611	8.246500	-1.941482	2.954044	1.187105	-0.075185	-0.383026	0.317178	-0.665771	-0.042969	-0.311768	0.080503	0.006545	0.082617	-0.095143	-0.289990	-0.125932	-0.943925	20.108095	-31.566977	162.750586
62078		5.645822	1.831251	8.539623	0.109340	1.232984	0.513087	-0.066414	-0.302307	0.274989	-0.666016	-0.034180	-0.318604	0.056304	0.018418	0.085475	-0.094115	-0.291720	-0.125063	-0.943611	20.018762	-31.802902	162.851427
62079		5.044654	0.515520	8.070673	0.496155	2.231049	-0.559242	0.027353	-0.285732	0.161176	-0.670654	-0.029785	-0.332031	0.050327	0.005185	0.080779	-0.093496	-0.293212	-0.124793	-0.943246	20.012548	-31.992371	162.887352
62080		5.822321	0.750967	8.135899	-0.089814	2.211372	-0.027090	0.174862	-0.263893	0.073233	-0.670654	-0.031982	-0.336426	0.058113	0.007460	0.081442	-0.093041	-0.294744	-0.125371	-0.942736	20.123434	-32.167888	162.869622
62081		5.970247	3.460537	7.778301	-0.661934	-0.385286	0.557194	0.191800	-0.244596	0.022013	-0.677734	-0.023193	-0.343018	0.059603	0.034537	0.077889	-0.092810	-0.296030	-0.126099	-0.942259	20.253616	-32.307810	162.826146
62082		5.780647	3.917246	8.088178	-0.342480	-0.802490	0.837100	0.099703	-0.240991	0.016537	-0.679932	-0.025391	-0.347412	0.057706	0.039137	0.080971	-0.092719	-0.297382	-0.126415	-0.941800	20.338165	-32.459702	162.777007
62083		5.488089	3.480272	8.403282	0.149400	-0.401277	0.801603	0.062993	-0.257663	0.066558	-0.691162	-0.021240	-0.358643	0.054761	0.034794	0.084114	-0.092477	-0.298697	-0.126463	-0.941401	20.381479	-32.615412	162.758183
62084		4.979749	3.979563	8.316680	0.492680	-1.024753	0.604080	0.015140	-0.301118	0.122321	-0.696289	-0.008057	-0.358887	0.049648	0.039820	0.083245	-0.092052	-0.300357	-0.126196	-0.940950	20.389393	-32.820492	162.761768
62085		4.812890	3.721001	8.334790	0.697920	-0.831054	0.448920	-0.037435	-0.353477	0.182636	-0.709961	-0.001465	-0.363525	0.047947	0.037269	0.083426	-0.091474	-0.302148	-0.125552	-0.940519	20.347324	-33.050813	162.794356
62086		5.463962	3.214869	8.141319	0.152792	-0.242322	0.501823	-0.060719	-0.388521	0.184734	-0.714600	0.002930	-0.367920	0.054452	0.032224	0.081509	-0.090925	-0.304219	-0.124795	-0.940005	20.301181	-33.314951	162.817367
62087		5.414906	3.196958	7.661279	-0.052809	-0.343209	0.092676	-0.066971	-0.378500	0.158225	-0.723633	0.004883	-0.372314	0.053979	0.032038	0.076704	-0.090522	-0.306096	-0.124037	-0.939535	20.253550	-33.553830	162.828904
62088		5.520307	2.856011	7.624298	-0.088464	-0.017586	0.023585	-0.066493	-0.343369	0.163577	-0.735596	0.018066	-0.381592	0.055049	0.028631	0.076328	-0.090053	-0.307935	-0.123304	-0.939075	20.205218	-33.789308	162.849568
62089		5.991752	3.056233	7.739384	-0.379597	-0.092143	0.433630	-0.083839	-0.309572	0.163512	-0.739990	0.020020	-0.374756	0.059773	0.030644	0.077474	-0.089608	-0.309482	-0.122489	-0.938716	20.136456	-33.992142	162.881531
62090		5.733983	2.450461	7.546226	-0.205256	0.369913	-0.032615	-0.082023	-0.248277	0.151139	-0.751709	0.031006	-0.384033	0.057228	0.024579	0.075523	-0.089163	-0.310857	-0.121744	-0.938401	20.070541	-34.173886	162.917393
62091		5.920432	2.123392	7.571938	-0.283417	0.717850	0.000511	-0.021484	-0.229483	0.094791	-0.760986	0.039795	-0.379639	0.059107	0.021270	0.075785	-0.088893	-0.312012	-0.121363	-0.938092	20.051464	-34.320059	162.924260
62092		5.382934	2.232003	7.619663	0.184394	0.485415	-0.234200	0.023731	-0.203325	0.048490	-0.763428	0.041992	-0.377441	0.053746	0.022324	0.076254	-0.088737	-0.313159	-0.121293	-0.937734	20.077418	-34.457371	162.904226
62093		5.479123	1.850693	7.631971	0.170234	0.875713	-0.278698	0.086336	-0.179410	-0.009998	-0.770264	0.043945	-0.381836	0.054724	0.018471	0.076377	-0.088760	-0.314063	-0.121604	-0.937389	20.152148	-34.555962	162.854506
62094		5.795247	1.906212	7.527284	-0.126844	0.888972	-0.165297	0.118566	-0.160216	-0.051777	-0.774902	0.052734	-0.375488	0.057897	0.019002	0.075331	-0.088899	-0.314987	-0.122152	-0.936995	20.263839	-34.650085	162.779013
62095		5.499181	2.047534	7.457305	0.067159	0.682721	-0.348327	0.151011	-0.152196	-0.106590	-0.772461	0.046143	-0.373047	0.054946	0.020390	0.074630	-0.089256	-0.315732	-0.122930	-0.936608	20.408234	-34.714663	162.672209
62096		5.847810	1.539107	7.211618	-0.292678	1.229197	-0.486567	0.176776	-0.158241	-0.191528	-0.774902	0.050537	-0.377686	0.058436	0.015271	0.072176	-0.089956	-0.316585	-0.123971	-0.936116	20.605361	-34.779276	162.505377
62097		5.381401	1.252927	7.516577	0.301807	1.466295	-0.604700	0.222257	-0.136567	-0.280763	-0.781494	0.045898	-0.373047	0.053780	0.012370	0.075216	-0.091006	-0.317180	-0.125364	-0.935627	20.853767	-34.799552	162.288109
62098		4.871896	1.426436	7.807890	0.880663	1.259094	-0.627252	0.297042	-0.113608	-0.334899	-0.781494	0.045898	-0.377441	0.048698	0.014067	0.078128	-0.092156	-0.317786	-0.127211	-0.935060	21.166971	-34.809584	162.038553
62099		4.693209	1.671545	8.187263	1.245967	1.090663	-0.372911	0.365538	-0.112340	-0.374170	-0.783691	0.045898	-0.366455	0.046917	0.016478	0.081929	-0.093398	-0.318271	-0.129433	-0.934466	21.528812	-34.795522	161.766446
62100		5.254704	2.556233	7.697887	0.441605	0.354387	-0.164742	0.398314	-0.143463	-0.393602	-0.783691	0.043701	-0.373047	0.052542	0.025305	0.077067	-0.094679	-0.319018	-0.131829	-0.933748	21.925813	-34.806147	161.471375
62101		5.596600	2.779963	7.394649	-0.014961	0.227302	-0.133907	0.387765	-0.187155	-0.430549	-0.781250	0.037109	-0.368408	0.055956	0.027536	0.074052	-0.096196	-0.319821	-0.134207	-0.932979	22.332325	-34.816580	161.143384
62102		5.611520	3.746771	7.805480	0.162496	-0.553267	0.488778	0.322675	-0.236975	-0.447526	-0.785400	0.032471	-0.368164	0.056106	0.037216	0.078181	-0.097909	-0.320925	-0.136290	-0.932119	22.720384	-34.861314	160.788441
62103		5.759421	4.073581	7.849708	0.069880	-0.760658	0.713429	0.365398	-0.275722	-0.420706	-0.780518	0.023682	-0.354736	0.057571	0.040471	0.078651	-0.099474	-0.322131	-0.138502	-0.931211	23.124868	-34.916952	160.442233
62104		5.324305	4.857128	7.766002	0.310189	-1.585156	0.658297	0.319953	-0.309350	-0.349021	-0.784912	0.019287	-0.359131	0.053207	0.048354	0.077820	-0.100781	-0.323631	-0.140377	-0.930269	23.488149	-35.017914	160.129286
62105		5.322898	4.656170	8.134801	0.596908	-1.285470	0.872779	0.263662	-0.357663	-0.247900	-0.782471	0.014893	-0.356689	0.053141	0.046388	0.081504	-0.101762	-0.325282	-0.141794	-0.929371	23.785772	-35.152713	159.869267
62106		6.033665	4.317333	7.844063	-0.055699	-0.795225	0.954768	0.216315	-0.442430	-0.191632	-0.791504	0.016846	-0.352295	0.060204	0.043031	0.078621	-0.102598	-0.327452	-0.142866	-0.928352	24.056269	-35.356839	159.616884
62107		5.504048	4.328309	7.703467	0.307342	-0.962335	0.548366	0.174791	-0.516657	-0.146343	-0.793701	0.012207	-0.338867	0.054873	0.043175	0.077214	-0.103363	-0.329865	-0.143621	-0.927296	24.294806	-35.596571	159.373436
62108		5.486919	4.453518	8.320756	0.764987	-0.948845	1.035778	0.163450	-0.615772	-0.065433	-0.791260	0.008057	-0.343262	0.054627	0.044449	0.083412	-0.103824	-0.332895	-0.144149	-0.926079	24.521347	-35.919026	159.147816
62109		4.973822	4.636363	8.224523	1.144312	-1.285143	0.718980	0.106529	-0.739296	0.066796	-0.802246	0.003174	-0.329834	0.049418	0.046336	0.082453	-0.103873	-0.336449	-0.144116	-0.924793	24.683188	-36.324097	158.971893
62110		5.481059	3.840552	8.410074	1.049438	-0.368844	0.877635	0.072848	-0.918453	0.196649	-0.804688	0.007568	-0.325439	0.054386	0.038428	0.084365	-0.103489	-0.341008	-0.143627	-0.923242	24.816188	-36.865393	158.820750
62111		5.388656	3.972841	8.487498	1.269569	-0.528454	0.909543	0.089589	-1.165169	0.315559	-0.809082	0.005371	-0.312012	0.053328	0.039775	0.085205	-0.102718	-0.346683	-0.142867	-0.921330	24.953819	-37.551087	158.673241
62112		4.948334	4.132055	9.185409	2.194933	-0.706138	1.169697	0.101140	-1.483315	0.440757	-0.818115	0.005127	-0.303223	0.048709	0.041382	0.092238	-0.101557	-0.354004	-0.141787	-0.918838	25.117818	-38.443789	158.502763
62113		4.296554	4.884987	9.687496	3.132144	-1.557580	1.319717	0.080984	-1.849230	0.602900	-0.827148	0.007080	-0.285400	0.041920	0.048938	0.097286	-0.099955	-0.362982	-0.140116	-0.915763	25.273944	-39.553571	158.323800
62114		4.469243	5.154827	9.317075	2.958953	-1.902967	1.186014	0.050665	-2.221998	0.829561	-0.833984	0.013428	-0.260986	0.043439	0.051706	0.093671	-0.097605	-0.373862	-0.137706	-0.911997	25.404673	-40.922632	158.167917
62115		4.920332	5.837162	8.761333	2.467079	-2.614529	1.237746	0.031024	-2.603535	1.104952	-0.845459	0.022217	-0.241211	0.047734	0.058624	0.088250	-0.094296	-0.386501	-0.134468	-0.907548	25.481808	-42.545652	158.074394
62116		4.975105	5.597151	9.443434	3.266749	-2.383494	1.540370	-0.066492	-3.063480	1.405067	-0.859131	0.028564	-0.214600	0.047902	0.056344	0.095159	-0.090090	-0.401378	-0.129975	-0.902156	25.475465	-44.490646	158.029687
62117		4.263913	4.528846	10.429480	4.916431	-1.558164	1.180339	-0.071335	-3.630752	1.678174	-0.875488	0.043701	-0.181641	0.040355	0.045671	0.105025	-0.085010	-0.418762	-0.124594	-0.895482	25.459333	-46.786223	157.991022
62118		3.970542	3.995068	12.079455	6.856584	-1.058838	1.565909	-0.043318	-4.340259	1.828748	-0.886963	0.052246	-0.135010	0.036705	0.040322	0.121604	-0.079593	-0.439306	-0.118681	-0.886899	25.580609	-49.494829	157.795833
62119		2.508381	2.945565	12.355340	8.500146	-0.562597	-0.065255	0.111237	-5.154833	1.833748	-0.894043	0.065186	-0.084229	0.021618	0.029596	0.124157	-0.074253	-0.463159	-0.113022	-0.875898	26.063960	-52.615093	157.252796
62120		2.956671	3.638733	11.522154	8.088639	-1.416764	-0.471677	0.197822	-6.232959	1.849209	-0.901367	0.082764	-0.018066	0.025620	0.036522	0.116097	-0.069185	-0.491416	-0.107221	-0.861526	27.094361	-56.294291	156.126357
62121		3.200453	4.251544	11.631453	8.682009	-2.137405	-0.670371	0.347086	-7.523100	1.887814	-0.910645	0.093506	0.059326	0.027198	0.042584	0.117472	-0.064190	-0.524604	-0.101367	-0.842849	29.041561	-60.611285	154.073053
62122		4.446628	6.346138	11.825044	9.074506	-4.097072	0.218076	0.577950	-8.788594	2.015806	-0.897705	0.115723	0.147705	0.038571	0.063524	0.120216	-0.058582	-0.562373	-0.095582	-0.819249	32.504063	-65.539681	150.563972
62123		5.928435	5.628739	11.473251	9.153883	-3.364166	0.344734	0.805362	-10.325092	2.311113	-0.887207	0.137695	0.247070	0.052602	0.056451	0.117791	-0.051715	-0.605222	-0.089198	-0.789352	38.966102	-71.127355	144.113122
62124		18.080447	10.980307	17.111166	13.245278	-6.341069	13.076445	0.349583	-10.439486	3.028716	-0.854004	0.158203	0.328613	0.169861	0.112122	0.180366	-0.043310	-0.647003	-0.078579	-0.757190	49.325416	-76.656037	133.552143
62125		21.305341	-0.702323	16.647759	14.125214	4.930829	12.707252	0.014331	-9.499244	2.926420	-0.816650	0.183105	0.414307	0.204905	-0.003997	0.176341	-0.035877	-0.683330	-0.066989	-0.726144	68.666704	-80.962358	113.862310
62126		32.318262	-1.612800	17.135309	16.310435	6.773426	22.250298	0.713025	-8.119348	1.999133	-0.787598	0.194580	0.467285	0.316021	-0.013586	0.184230	-0.028903	-0.713027	-0.061226	-0.697860	100.864902	-82.589172	81.759862
