// General information: 
//  MT Manager version: 2019.2.0 
//  XDA version: 2019.2.0 build 3853 rev 94535 built on 2019-09-09
// Device information: 
//  DeviceId: 00B40AC5
//  ProductCode: MTW2-3A7G6
//  Firmware Version: 4.3.5
//  Hardware Version: 1.1.0
// Device settings: 
//  Filter Profile: human(46.1)
//  Option Flags: Orientation Smoother Disabled, AHS Disabled, ICC Disabled
// Coordinate system: ENU
PacketCounter	SampleTimeFine	Acc_X	Acc_Y	Acc_Z	FreeAcc_E	FreeAcc_N	FreeAcc_U	Gyr_X	Gyr_Y	Gyr_Z	Mag_X	Mag_Y	Mag_Z	VelInc_X	VelInc_Y	VelInc_Z	Quat_q0	Quat_q1	Quat_q2	Quat_q3	Roll	Pitch	Yaw
61587		15.995536	4.217156	13.088365	0.864737	0.547565	11.253019	-0.176771	5.639050	-2.190774	-0.697021	-0.020508	-0.139893	0.164009	0.040503	0.126261	0.094270	-0.412662	-0.166786	-0.890509	19.956898	-50.032103	-177.301412
61588		20.149707	4.564757	13.609562	-2.723588	0.239498	14.771880	-0.173430	5.683877	-2.318864	-0.685059	-0.038086	-0.168213	0.205766	0.043393	0.130249	0.088261	-0.385222	-0.168028	-0.903095	20.007451	-46.505877	-177.505182
61589		24.645844	4.569287	13.561837	-7.468254	0.060110	17.685832	-0.134096	5.829587	-2.530789	-0.680176	-0.053467	-0.196289	0.250822	0.042625	0.128320	0.081433	-0.356733	-0.169602	-0.915066	20.139514	-42.882014	-177.807861
61590		28.801211	3.119322	12.871776	-13.162804	1.085300	18.999142	-0.021684	5.983797	-2.822675	-0.677490	-0.066650	-0.233643	0.292092	0.027103	0.120015	0.073492	-0.326694	-0.171991	-0.926439	20.410273	-39.094712	-178.243097
61591		32.728159	-0.062991	11.124317	-19.903523	3.488721	18.224888	0.250428	6.044184	-3.199315	-0.676514	-0.095459	-0.272461	0.330376	-0.006030	0.101283	0.064244	-0.295761	-0.176017	-0.936705	20.923254	-35.218552	-178.861135
61592		36.773003	-3.647770	7.590184	-27.682204	5.826002	15.134122	0.742257	5.946899	-3.662944	-0.668701	-0.124268	-0.320313	0.369013	-0.043483	0.064788	0.053366	-0.264203	-0.182863	-0.945468	21.812444	-31.272449	-179.712669
61593		39.503439	-3.126086	0.253687	-34.908942	3.087085	8.667633	1.321991	5.929161	-3.890071	-0.654053	-0.161621	-0.361084	0.394166	-0.038898	-0.009399	0.042120	-0.232193	-0.192511	-0.952498	22.995836	-27.293203	179.409361
61594		37.811364	2.671410	-6.904313	-36.489120	-4.678865	1.617017	1.387738	5.881080	-3.329085	-0.632568	-0.192383	-0.406494	0.376250	0.020970	-0.079968	0.033501	-0.200529	-0.201591	-0.958137	23.979087	-23.439211	178.960036
61595		34.378175	3.940299	-14.984871	-36.546597	-9.139096	-8.265842	0.684377	5.477898	-2.005341	-0.611816	-0.207520	-0.452393	0.339885	0.036516	-0.159066	0.030097	-0.172163	-0.205838	-0.962853	24.273792	-20.116170	179.211833
61596		33.942183	-6.495219	-24.043100	-40.085204	-3.684951	-22.125577	0.300463	4.624120	-0.516653	-0.591553	-0.211670	-0.481201	0.333573	-0.065450	-0.248287	0.032546	-0.149316	-0.206958	-0.966341	24.166289	-17.580810	-179.934075
61597		40.017366	-20.881637	-34.007174	-49.739344	4.454166	-36.264268	1.519185	3.536752	0.151073	-0.572998	-0.229004	-0.502686	0.394215	-0.205890	-0.348650	0.038074	-0.132205	-0.213535	-0.967200	24.757798	-15.783151	-178.976416
61598		34.862903	-18.209377	-35.738286	-44.198316	-0.059490	-39.315551	3.180626	2.130903	0.283421	-0.565918	-0.239990	-0.500000	0.345027	-0.175850	-0.363902	0.043806	-0.121659	-0.228255	-0.964977	26.393519	-14.761349	-178.281194
61599		25.730824	-5.155806	-29.483893	-31.895345	-10.006339	-30.798375	3.389481	-0.163882	0.712915	-0.570068	-0.249023	-0.484131	0.257720	-0.045636	-0.295435	0.049123	-0.122599	-0.244141	-0.960704	28.246667	-15.043228	-177.951359
61600		-12.397881	32.883544	-0.754487	16.977884	-28.808204	1.022478	-0.604228	-3.140602	1.199032	-0.591309	-0.216064	-0.456543	-0.125798	0.328056	-0.010503	0.050655	-0.139418	-0.241218	-0.959067	27.968383	-16.969419	-178.208393
61601		-2.485398	24.683035	17.579272	11.392324	-13.592218	14.878205	-2.936268	-4.640420	3.155253	-0.619385	-0.185547	-0.431152	-0.032782	0.248893	0.171449	0.058123	-0.166241	-0.225960	-0.958085	26.147268	-20.170437	-177.787015
61602		-1.763136	-4.238588	21.184008	7.481945	13.280212	5.595860	-1.715816	-4.109698	0.640736	-0.631104	-0.174561	-0.391602	-0.021852	-0.040634	0.211774	0.055116	-0.187221	-0.218352	-0.956155	25.436367	-22.463489	-178.534228
61603		4.420438	6.910077	4.435782	-1.215330	-4.384430	-1.672520	-1.552252	-3.859522	-0.065234	-0.649414	-0.161621	-0.365479	0.043367	0.069432	0.044662	0.049134	-0.206082	-0.211973	-0.954035	24.966488	-24.459502	-179.598194
61604		4.017340	-5.546178	1.694298	-3.957199	5.740163	-8.739355	-2.094878	-4.895001	1.319840	-0.668213	-0.135254	-0.326416	0.040097	-0.055009	0.018503	0.048081	-0.231371	-0.201740	-0.950503	23.996505	-27.337876	179.874202
61605		18.052765	-13.196463	14.407908	-11.948299	17.879883	5.841262	-1.500714	-4.798766	2.138443	-0.677979	-0.115479	-0.296143	0.178376	-0.128942	0.149352	0.051657	-0.256698	-0.193175	-0.945580	23.119232	-30.358925	179.901471
61606		21.632512	-10.465596	20.507086	-10.716056	17.509885	14.197335	-0.833954	-3.503685	2.744117	-0.683594	-0.086670	-0.263916	0.214085	-0.100841	0.209260	0.060176	-0.276177	-0.186543	-0.940907	22.222989	-32.831142	-179.304339
61607		21.355366	1.366151	14.447693	-10.067085	3.819333	13.652845	-0.624858	-2.563177	3.227877	-0.682129	-0.060059	-0.244873	0.211417	0.017542	0.147145	0.072101	-0.291466	-0.179839	-0.936753	21.070807	-34.889556	-177.886653
61608		26.799743	22.942431	7.138993	-12.310250	-19.726039	17.660347	-1.787341	-1.633672	2.911774	-0.678467	-0.035645	-0.234619	0.264030	0.233926	0.071480	0.081664	-0.302456	-0.167741	-0.934727	19.150116	-36.357654	-176.354978
61609		17.481246	6.332222	6.650802	-8.745620	-4.606197	7.281127	-2.349438	-0.603054	1.936505	-0.668213	-0.011230	-0.231201	0.173983	0.065789	0.066270	0.086653	-0.307913	-0.154022	-0.934857	17.093437	-37.042183	-175.172949
61610		8.356103	-10.762047	15.429874	-0.879756	14.648995	4.621436	-1.680180	-0.232358	1.395774	-0.655273	0.002441	-0.240479	0.084123	-0.105733	0.155290	0.090423	-0.310926	-0.144088	-0.935087	15.573094	-37.412073	-174.255261
61611		11.467098	-3.014492	7.947903	-5.409858	4.454399	2.622774	-0.681596	-0.047182	0.748540	-0.648438	0.000244	-0.249268	0.114763	-0.029444	0.079607	0.092838	-0.312082	-0.139721	-0.935128	14.865566	-37.561719	-173.741059
61612		12.132810	0.329019	7.794172	-5.110505	1.093871	3.631572	-0.396710	-0.077089	0.394265	-0.641846	0.004883	-0.253906	0.121291	0.003684	0.077981	0.094024	-0.313047	-0.137248	-0.935053	14.473018	-37.679181	-173.477386
61613		5.475315	-1.802315	9.447130	0.519285	4.182124	0.420387	-0.118611	-0.143596	0.224199	-0.637207	0.002686	-0.256104	0.054705	-0.017906	0.094521	0.094798	-0.314019	-0.136374	-0.934777	14.319414	-37.801764	-173.344105
61614		7.498728	0.861899	8.165836	-1.060363	1.065377	1.205262	-0.017128	-0.228545	0.129258	-0.632568	-0.001709	-0.262451	0.074888	0.008674	0.081743	0.095236	-0.315332	-0.136157	-0.934322	14.272756	-37.964759	-173.291964
61615		6.431676	3.210514	8.165647	0.423682	-1.062687	1.005943	-0.082779	-0.191818	0.145985	-0.630371	0.002686	-0.271484	0.064215	0.032186	0.081705	0.095666	-0.316458	-0.135596	-0.933979	14.177821	-38.102796	-173.221458
61616		6.709981	3.555339	7.547365	-0.022499	-1.626413	0.769428	-0.197636	-0.172029	0.218776	-0.632568	0.000488	-0.282471	0.066996	0.035701	0.075496	0.096275	-0.317653	-0.134367	-0.933688	13.981602	-38.246736	-173.095030
61617		6.537009	3.874220	7.861411	0.400483	-1.846736	0.956382	-0.298101	-0.067396	0.290693	-0.630615	0.005127	-0.284912	0.065287	0.038954	0.078578	0.097123	-0.318397	-0.132509	-0.933612	13.685132	-38.334993	-172.898784
61618		6.768347	1.590993	7.944790	-0.318111	0.273659	0.736493	-0.336096	-0.020026	0.285089	-0.630615	0.002930	-0.289307	0.067653	0.016140	0.079428	0.097922	-0.318990	-0.130457	-0.933615	13.362935	-38.402158	-172.697297
61619		6.926429	1.058046	8.359942	-0.328599	0.849498	1.057168	-0.278204	-0.056934	0.212539	-0.632568	0.000488	-0.291504	0.069229	0.010770	0.083604	0.098443	-0.319622	-0.128811	-0.933573	13.110008	-38.472718	-172.553387
61620		7.587386	1.446176	7.595699	-1.153519	0.151197	0.957685	-0.245522	-0.115003	0.171691	-0.635254	0.009521	-0.291748	0.075818	0.014620	0.075983	0.098794	-0.320538	-0.127407	-0.933414	12.898551	-38.576870	-172.447276
61621		7.472890	1.107972	7.451199	-1.215777	0.413944	0.720238	-0.213063	-0.115958	0.167337	-0.646484	0.007080	-0.284912	0.074676	0.011222	0.074543	0.099171	-0.321382	-0.126165	-0.933253	12.708086	-38.673814	-172.344231
61622		6.112364	1.764003	7.849307	0.260951	0.030151	0.287574	-0.174877	-0.092816	0.143063	-0.637695	0.013916	-0.294189	0.061075	0.017752	0.078506	0.099515	-0.322142	-0.125124	-0.933094	12.546618	-38.761593	-172.253914
61623		5.384468	1.680331	8.150958	0.991022	0.257761	0.046599	-0.141222	-0.086031	0.123765	-0.646729	0.015869	-0.289795	0.053799	0.016894	0.081521	0.099822	-0.322782	-0.124273	-0.932954	12.413093	-38.835945	-172.176440
61624		5.133163	1.493125	8.412578	1.303903	0.524656	0.055179	-0.127953	-0.119792	0.116158	-0.642090	0.013916	-0.287354	0.051273	0.015015	0.084147	0.100099	-0.323626	-0.123507	-0.932734	12.292635	-38.935060	-172.108987
61625		4.487776	2.167743	8.537375	2.071817	-0.022078	-0.146609	-0.092386	-0.139419	0.114605	-0.648926	0.015869	-0.287598	0.044806	0.021743	0.085395	0.100409	-0.324484	-0.122925	-0.932479	12.195920	-39.037943	-172.045859
61626		5.056233	2.468408	8.502892	1.717586	-0.387941	0.230074	-0.071720	-0.186102	0.127544	-0.646973	0.022705	-0.281006	0.050467	0.024747	0.085067	0.100789	-0.325612	-0.122436	-0.932109	12.108380	-39.175087	-171.979856
61627		4.907738	1.886612	8.469855	1.679739	0.161933	0.012578	-0.075474	-0.158927	0.148643	-0.646729	0.018066	-0.276611	0.048996	0.018935	0.084730	0.101272	-0.326573	-0.121886	-0.931793	12.007063	-39.292814	-171.894466
61628		4.901369	1.948932	8.180128	1.554505	0.009381	-0.204376	-0.059403	-0.153900	0.145500	-0.646973	0.027100	-0.274658	0.048937	0.019549	0.081833	0.101775	-0.327552	-0.121409	-0.931457	11.914522	-39.413573	-171.809715
61629		5.957647	1.773053	7.648247	0.409660	-0.103669	0.033853	-0.049617	-0.170375	0.144679	-0.644775	0.027100	-0.268066	0.059498	0.017793	0.076529	0.102275	-0.328549	-0.120992	-0.931105	11.830182	-39.537037	-171.728164
61630		6.587357	1.642973	7.164204	-0.367583	-0.199357	0.048528	-0.034785	-0.147851	0.144645	-0.645020	0.031494	-0.263672	0.065809	0.016490	0.071688	0.102818	-0.329485	-0.120628	-0.930762	11.750830	-39.653927	-171.642377
61631		5.981278	1.521586	7.720678	0.407614	0.138978	0.062245	-0.022330	-0.117603	0.145116	-0.638184	0.029297	-0.259277	0.059756	0.015268	0.077240	0.103396	-0.330222	-0.120309	-0.930477	11.676123	-39.747661	-171.551819
61632		5.546258	1.722502	8.163205	1.072211	0.120632	0.147317	-0.011311	-0.118330	0.127547	-0.636230	0.036133	-0.266113	0.055403	0.017265	0.081664	0.103915	-0.330997	-0.120067	-0.930176	11.614731	-39.845816	-171.473444
61633		5.730734	1.858853	7.975120	0.875254	-0.090698	0.143460	-0.023699	-0.113130	0.142179	-0.638672	0.042725	-0.257324	0.057249	0.018639	0.079781	0.104480	-0.331712	-0.119745	-0.929899	11.539609	-39.936535	-171.383822
61634		5.928251	2.066389	7.971972	0.799987	-0.319603	0.297916	-0.049270	-0.128681	0.157906	-0.632080	0.044922	-0.257568	0.059215	0.020730	0.079753	0.105071	-0.332570	-0.119280	-0.929586	11.442615	-40.043622	-171.284191
61635		5.776272	1.783424	8.158396	0.967132	0.010386	0.295223	-0.063143	-0.114106	0.171176	-0.627441	0.040527	-0.259521	0.057701	0.017909	0.081611	0.105705	-0.333327	-0.118727	-0.929314	11.330614	-40.137941	-171.172768
61636		5.558977	1.787882	8.264290	1.215212	0.051120	0.233100	-0.063416	-0.117573	0.163306	-0.623047	0.049561	-0.257568	0.055527	0.017950	0.082670	0.106303	-0.334142	-0.118182	-0.929022	11.221168	-40.238941	-171.066751
61637		5.231945	1.985497	8.590195	1.732157	-0.015066	0.292076	-0.085744	-0.162813	0.194714	-0.620850	0.045166	-0.255371	0.052230	0.019943	0.085936	0.106979	-0.335150	-0.117510	-0.928667	11.088716	-40.362903	-170.944213
61638		5.515536	1.923315	8.740569	1.619614	0.040821	0.574465	-0.080785	-0.211672	0.208598	-0.623291	0.053955	-0.255615	0.055043	0.019326	0.087456	0.107703	-0.336434	-0.116858	-0.928201	10.955438	-40.521159	-170.817320
61639		6.245850	1.667715	8.485636	0.883680	0.108070	0.817704	-0.092104	-0.310063	0.245739	-0.621338	0.058350	-0.260254	0.062306	0.016793	0.084945	0.108518	-0.338157	-0.116149	-0.927569	10.806949	-40.733043	-170.676563
61640		6.344637	1.485920	8.412383	0.763013	0.236035	0.798271	-0.070981	-0.415114	0.249321	-0.619141	0.065186	-0.264893	0.063253	0.014968	0.084250	0.109328	-0.340399	-0.115584	-0.926724	10.676345	-41.009463	-170.546267
61641		6.062867	1.505003	8.762410	1.249020	0.345973	0.870156	-0.068595	-0.534930	0.276138	-0.621338	0.065186	-0.262695	0.060373	0.015164	0.087781	0.110192	-0.343164	-0.115052	-0.925667	10.544423	-41.350684	-170.411774
61642		5.712410	1.308751	9.039648	1.695437	0.651846	0.806153	-0.083780	-0.683646	0.244401	-0.632568	0.064941	-0.258301	0.056799	0.013195	0.090585	0.110799	-0.346645	-0.114581	-0.924355	10.430550	-41.777241	-170.319587
61643		6.156733	0.845345	9.032203	1.319799	1.038549	1.021493	-0.023862	-0.845607	0.186614	-0.630371	0.064941	-0.258301	0.061177	0.008521	0.090580	0.111146	-0.350760	-0.114580	-0.922760	10.394981	-42.283913	-170.292956
61644		5.965523	1.068709	9.136626	1.692229	0.896365	0.982653	-0.001144	-1.018408	0.151073	-0.641846	0.067139	-0.256104	0.059181	0.010732	0.091668	0.111270	-0.355671	-0.114833	-0.920831	10.405653	-42.889070	-170.316806
61645		5.740843	0.565446	9.169812	1.851926	1.437551	0.763927	0.040203	-1.240152	0.096959	-0.650635	0.066895	-0.245117	0.056836	0.005664	0.092053	0.111083	-0.361498	-0.115498	-0.918499	10.492402	-43.608747	-170.415729
61646		5.487255	0.709316	9.796388	2.617865	1.555549	1.018151	0.097220	-1.479601	0.016294	-0.648438	0.066895	-0.240479	0.054145	0.007050	0.098370	0.110490	-0.368364	-0.116691	-0.915687	10.682314	-44.459054	-170.615918
61647		5.125184	1.375564	9.926366	3.318492	1.058611	0.890398	0.124835	-1.786685	-0.017873	-0.659424	0.062256	-0.227051	0.050364	0.013689	0.099725	0.109600	-0.376540	-0.118241	-0.912263	10.949593	-45.473488	-170.898661
61648		5.198386	1.326374	9.612341	3.244212	1.069239	0.651866	0.180999	-2.118953	-0.004178	-0.670898	0.064209	-0.216064	0.050962	0.013175	0.096679	0.108675	-0.386203	-0.120185	-0.908071	11.291117	-46.679057	-171.235830
61649		5.559570	0.495985	9.598658	2.980181	1.893182	0.714281	0.221041	-2.481651	-0.005438	-0.686523	0.061768	-0.202637	0.054399	0.004852	0.096672	0.107585	-0.397406	-0.122501	-0.903043	11.723148	-48.082613	-171.656312
61650		5.739560	0.221138	9.610290	3.061587	2.233851	0.721866	0.260392	-2.905925	-0.036820	-0.690918	0.061768	-0.180664	0.055992	0.002075	0.096926	0.106155	-0.410437	-0.125253	-0.896986	12.284962	-49.721025	-172.210638
61651		5.280060	1.921628	10.163518	4.565227	0.943904	0.823282	0.224095	-3.389087	-0.050851	-0.715576	0.056885	-0.153809	0.051073	0.019089	0.102532	0.104256	-0.425514	-0.128106	-0.889751	12.959794	-51.620468	-172.922208
61652		4.626748	3.576431	10.807761	6.296652	-0.261529	0.735805	0.171891	-3.939102	0.145447	-0.713379	0.059082	-0.122803	0.044101	0.035703	0.108991	0.102733	-0.443066	-0.130540	-0.880964	13.625432	-53.849731	-173.641309
61653		5.283744	4.513401	11.336106	7.035421	-0.916761	1.431401	0.180913	-4.516493	0.506895	-0.731201	0.058838	-0.087402	0.050145	0.045160	0.114555	0.102397	-0.463169	-0.132461	-0.870312	14.211974	-56.442344	-174.234537
61654		5.255772	5.678300	11.743614	8.250544	-1.780544	1.434383	0.218926	-4.972140	0.966339	-0.740723	0.071777	-0.047852	0.049341	0.056897	0.118752	0.103788	-0.485279	-0.133631	-0.857832	14.604329	-59.351854	-174.555377
61655		6.017944	5.589759	11.143475	7.966015	-1.846126	1.355063	0.145031	-5.663428	1.588588	-0.743164	0.082764	0.000488	0.056546	0.056275	0.113111	0.107125	-0.510427	-0.133240	-0.842755	14.565631	-62.732355	-174.420859
61656		4.746069	3.818763	11.741546	9.133598	0.142236	-0.249006	0.134090	-6.324254	2.172543	-0.746094	0.100342	0.055420	0.043299	0.038594	0.118854	0.112349	-0.538245	-0.131530	-0.824846	13.972626	-66.562115	-173.685035
61657		6.907269	2.472088	11.178978	8.079169	1.182803	0.771870	0.198418	-7.219058	2.571296	-0.746582	0.115723	0.112305	0.064655	0.025459	0.114202	0.118654	-0.569275	-0.129348	-0.803192	12.860357	-70.938485	-172.374916
61658		7.988095	2.862220	11.397959	8.934517	0.910161	1.193481	0.095331	-8.196525	2.823075	-0.736084	0.140137	0.189209	0.074709	0.029646	0.117127	0.124845	-0.603485	-0.126394	-0.777332	10.822728	-75.877148	-170.198401
61659		13.890309	-0.217931	14.050963	10.063582	4.607919	6.547334	0.519042	-8.823436	2.619920	-0.716553	0.160156	0.255127	0.132544	-0.000790	0.146449	0.130878	-0.638532	-0.125841	-0.747871	7.853349	-81.122140	-166.872164
61660		16.351929	6.246466	12.772823	12.366004	-1.706738	7.890100	1.034210	-8.774562	2.486725	-0.695068	0.189209	0.324951	0.156913	0.063758	0.135038	0.137833	-0.671597	-0.127345	-0.716759	-2.261175	-86.242565	-156.112144
61661		24.066776	8.565837	15.112605	16.829498	-2.843556	14.458167	1.122207	-8.441083	2.610102	-0.664063	0.200439	0.380127	0.232857	0.087845	0.161555	0.145432	-0.702131	-0.128255	-0.685136	-123.534964	-88.041995	-34.144519
61662		22.572715	9.193592	12.578877	16.665514	-4.015024	11.588033	1.058868	-7.728456	2.740323	-0.631348	0.227539	0.432373	0.219351	0.094273	0.134844	0.153470	-0.729016	-0.127756	-0.654722	-149.420254	-83.626368	-7.603500
61663		19.681919	5.666728	11.401716	15.469081	-0.906972	7.768807	1.396503	-7.059730	2.563700	-0.598389	0.254395	0.478027	0.191883	0.058318	0.121253	0.162315	-0.752222	-0.128270	-0.625590	-153.042525	-79.359616	-3.138768
61664		15.628460	5.563233	12.028034	16.328619	-0.196983	2.558195	2.176666	-6.325785	2.423020	-0.572510	0.281250	0.503662	0.151686	0.056140	0.125736	0.173948	-0.771324	-0.131030	-0.598023	-153.534784	-75.494771	-1.353525
61665		9.627148	8.388476	10.363011	15.169018	-3.057425	-4.255729	2.698536	-6.015242	2.657494	-0.530762	0.312744	0.535889	0.091962	0.083692	0.107570	0.188229	-0.788276	-0.133965	-0.570301	-152.678910	-71.721331	-0.638051
61666		5.230600	8.755390	12.339914	15.868989	-2.078109	-10.036116	2.692139	-5.578051	2.594232	-0.498291	0.344238	0.556885	0.047690	0.086508	0.125942	0.202464	-0.802920	-0.136659	-0.543739	-151.619164	-68.201386	-0.111581
61667		31.508683	13.300251	15.538132	30.790056	-4.111250	11.303856	2.219186	-4.149782	1.971284	-0.478516	0.360107	0.565430	0.310433	0.134295	0.163341	0.213808	-0.813099	-0.138904	-0.523317	-150.722534	-65.562865	0.291736
61668		25.026890	20.055714	20.710887	35.810484	-7.075858	1.370034	0.925506	-0.152220	0.383725	-0.489990	0.362061	0.558594	0.249727	0.200075	0.208226	0.218551	-0.812721	-0.140034	-0.521643	-149.862086	-65.382473	-0.054300
61669		14.925970	18.367263	17.733255	28.456861	-7.150298	-6.119585	-0.746625	2.554043	-0.696595	-0.516602	0.353027	0.541016	0.152142	0.183802	0.174716	0.215446	-0.806371	-0.138085	-0.533181	-149.404930	-66.835961	-1.026560
61670		5.316354	10.594128	14.639513	18.619793	-2.178189	-11.634361	-1.724790	3.855949	-1.148205	-0.529785	0.341797	0.517090	0.056572	0.106874	0.144407	0.208103	-0.796900	-0.134034	-0.551070	-148.990530	-69.080249	-2.525785
61671		-1.723692	3.810719	11.649267	10.798027	2.167529	-15.458452	-1.695688	4.145679	-1.354672	-0.551514	0.325928	0.506592	-0.014559	0.039200	0.116484	0.200316	-0.786180	-0.130380	-0.569909	-148.375664	-71.502239	-4.215016
61672		-4.221540	0.926789	8.542275	6.433689	3.200961	-16.137012	-1.145479	4.055231	-1.544794	-0.578125	0.312256	0.480469	-0.040397	0.010077	0.086198	0.194125	-0.774474	-0.129228	-0.588052	-147.455567	-73.952959	-5.843704
61673		-4.094849	-1.132261	6.693407	4.272954	4.146056	-15.046772	-0.361712	3.924875	-1.702478	-0.600342	0.303223	0.449707	-0.039718	-0.010859	0.067742	0.190193	-0.762073	-0.130886	-0.604930	-146.105463	-76.358046	-7.458701
61674		-3.180531	-0.920824	6.466833	4.583283	3.830658	-13.947623	0.474401	3.786591	-1.915256	-0.611328	0.298828	0.427734	-0.030661	-0.009065	0.065234	0.188806	-0.748631	-0.136126	-0.620785	-144.257577	-78.777904	-9.046081
61675		-1.159168	2.258543	6.564526	6.577248	1.010970	-12.103543	0.861880	3.693295	-2.107722	-0.640137	0.285156	0.396973	-0.010139	0.022414	0.065938	0.187943	-0.734813	-0.143140	-0.635798	-142.073829	-81.185145	-10.765845
61676		1.877816	5.347598	7.093094	8.922487	-1.525947	-9.117992	0.614028	3.784809	-2.184331	-0.645996	0.265137	0.373291	0.020699	0.053040	0.070715	0.186126	-0.720329	-0.149674	-0.651216	-138.434433	-83.665475	-14.051002
61677		4.317231	6.052835	7.544783	9.812974	-1.989525	-6.359160	-0.037641	4.054359	-2.228585	-0.665527	0.242676	0.347412	0.045360	0.060045	0.074532	0.181703	-0.705375	-0.153732	-0.667680	-129.694919	-86.195899	-22.848299
61678		5.723360	3.918129	7.694382	8.832601	-0.099469	-4.402990	-0.638336	4.425397	-2.316396	-0.680908	0.231689	0.312500	0.059366	0.038744	0.075522	0.175183	-0.689056	-0.155797	-0.685740	-86.170072	-88.406360	-66.757400
61679		6.411526	0.811714	7.483341	6.938343	2.487293	-3.223421	-0.821510	4.826730	-2.509617	-0.693359	0.204834	0.282227	0.065993	0.007600	0.073224	0.167429	-0.671088	-0.157307	-0.704885	-3.393280	-87.140957	-150.048561
61680		6.586316	-1.076490	7.241436	5.507658	4.015786	-2.706700	-0.625805	5.189145	-2.760481	-0.706299	0.182617	0.240967	0.067558	-0.011467	0.070711	0.159746	-0.650723	-0.160037	-0.724865	13.311342	-83.989536	-167.137126
61681		6.527864	-1.083741	7.080365	4.958298	3.929825	-2.473236	-0.344217	5.469070	-2.957575	-0.720947	0.153564	0.204346	0.067013	-0.011700	0.069006	0.152196	-0.628575	-0.163931	-0.744886	18.723035	-80.516840	-172.799188
61682		6.661524	-0.095559	6.995265	4.824882	2.993669	-1.999246	-0.211064	5.637656	-2.998095	-0.727051	0.133789	0.162842	0.068528	-0.001901	0.068040	0.145014	-0.604825	-0.168243	-0.764756	21.147442	-76.876320	-175.380732
61683		7.004622	0.515276	7.147731	4.631251	2.493306	-1.284847	-0.244839	5.711692	-2.879821	-0.735107	0.106934	0.119385	0.072114	0.004210	0.069432	0.137985	-0.580515	-0.171752	-0.783877	22.217959	-73.236522	-176.637533
61684		7.865910	0.394002	7.424393	3.999872	2.683144	-0.121694	-0.320995	5.735910	-2.667328	-0.738770	0.082764	0.075928	0.080789	0.002989	0.071942	0.131410	-0.555565	-0.174188	-0.802333	22.518066	-69.598922	-177.151589
61685		8.787412	0.145756	7.902849	3.348697	3.053369	1.101352	-0.320489	5.749506	-2.449906	-0.735840	0.062744	0.034424	0.090107	0.000487	0.076458	0.125629	-0.530393	-0.175809	-0.819751	22.423855	-66.029349	-177.252559
61686		9.913666	0.617059	8.672700	2.988779	2.867971	2.703957	-0.264069	5.770923	-2.253877	-0.732910	0.045166	-0.004883	0.101645	0.005146	0.083811	0.120659	-0.504550	-0.176982	-0.836390	22.147777	-62.462731	-177.118332
61687		11.263517	1.390472	9.496329	2.496689	2.396973	4.572493	-0.213242	5.813910	-2.100680	-0.720947	0.025391	-0.041748	0.115470	0.012801	0.091620	0.116420	-0.478356	-0.177761	-0.852070	21.789865	-58.934255	-176.852844
61688		11.901952	2.214621	10.390057	2.235146	1.901067	5.866101	-0.201036	5.819710	-2.064057	-0.718262	0.012207	-0.081299	0.122195	0.020998	0.100354	0.112220	-0.451490	-0.178350	-0.867038	21.470188	-55.380904	-176.614393
61689		13.330770	2.929278	11.401915	1.417524	1.512120	7.848026	-0.211974	5.718152	-2.099697	-0.704590	0.001465	-0.114014	0.136792	0.027987	0.110111	0.107686	-0.424831	-0.178844	-0.880873	21.245620	-51.902552	-176.491501
61690		16.061473	4.021834	11.905779	-0.683959	0.511292	10.559843	-0.274818	5.577701	-2.209783	-0.694824	-0.018311	-0.142090	0.164282	0.038576	0.114456	0.102267	-0.398113	-0.179220	-0.893828	21.115372	-48.447198	-176.532437
61691		19.566770	4.909495	11.835463	-4.052186	-0.565240	13.212057	-0.432076	5.455824	-2.365257	-0.694336	-0.031494	-0.172852	0.199361	0.046999	0.112846	0.095683	-0.371749	-0.179091	-0.905855	21.013564	-45.054089	-176.738132
61692		24.206881	4.776067	11.369169	-9.112045	-0.883156	15.761090	-0.627021	5.340216	-2.536555	-0.693848	-0.044922	-0.203369	0.245569	0.045003	0.107021	0.087730	-0.345293	-0.178304	-0.917215	20.898317	-41.659478	-177.099825
61693		29.935818	3.390763	10.104919	-16.106796	-0.313072	17.572275	-0.744668	5.305155	-2.756476	-0.688721	-0.062500	-0.236084	0.302328	0.030110	0.092938	0.078500	-0.318773	-0.177204	-0.927804	20.797719	-38.267809	-177.613772
61694		35.556759	1.386139	7.855457	-23.956809	0.622967	17.631557	-0.758396	5.385888	-2.965195	-0.692627	-0.084473	-0.277344	0.357666	0.008842	0.068901	0.068238	-0.291188	-0.176179	-0.937824	20.724705	-34.764871	-178.229042
61695		39.837986	-1.553026	2.243450	-32.626718	1.423729	13.153511	-0.604855	5.578788	-3.114609	-0.689209	-0.113281	-0.322998	0.398494	-0.021691	0.011378	0.057641	-0.262439	-0.175847	-0.947038	20.722781	-31.154799	-178.869861
61696		38.007824	-1.437952	-4.983477	-35.664310	-0.995707	4.259990	-0.237195	5.852420	-2.887133	-0.666016	-0.135010	-0.379639	0.378143	-0.019916	-0.060899	0.048751	-0.232040	-0.176689	-0.955281	20.782522	-27.422922	-179.280673
61697		33.957355	-0.942565	-11.843497	-35.497808	-3.768373	-5.390048	-0.084196	5.752935	-2.142559	-0.645264	-0.152344	-0.423340	0.335853	-0.013090	-0.128127	0.043490	-0.202679	-0.177250	-0.962087	20.720517	-23.916656	-179.258324
61698		28.602218	-4.148616	-18.818408	-33.660208	-3.317333	-16.531811	0.068018	5.089191	-1.133295	-0.624756	-0.163086	-0.458496	0.280870	-0.043022	-0.195390	0.042467	-0.177107	-0.177537	-0.967114	20.585869	-20.955599	-178.818537
61699		26.829290	-11.211524	-24.324085	-34.351789	0.990225	-25.811355	0.715747	3.903556	-0.273736	-0.608887	-0.165039	-0.487305	0.263320	-0.111594	-0.248813	0.045246	-0.157897	-0.180340	-0.969793	20.759302	-18.818683	-178.134741
61700		29.276093	-14.907755	-27.939130	-37.738275	2.379294	-30.547833	1.851204	2.404234	0.118371	-0.604004	-0.180664	-0.495605	0.289450	-0.146290	-0.284247	0.049414	-0.145938	-0.188623	-0.969888	21.632051	-17.561366	-177.547485
61701		31.624735	-9.563800	-27.751233	-38.808805	-3.471877	-28.345472	2.527039	0.881755	0.309243	-0.601318	-0.187256	-0.488770	0.315160	-0.091622	-0.280078	0.053597	-0.141411	-0.200382	-0.967976	22.964696	-17.172217	-177.174977
61702		15.119766	8.414582	-17.131590	-17.396162	-15.394366	-17.111908	1.369950	-0.770541	0.361685	-0.610596	-0.183105	-0.468994	0.151701	0.085588	-0.170149	0.055529	-0.145216	-0.206919	-0.965926	23.740946	-17.668890	-177.161908
61703		-6.307703	6.641704	-6.127812	5.455808	-8.277691	-14.624948	-0.089248	-3.303497	1.720883	-0.633789	-0.158936	-0.436523	-0.062621	0.065849	-0.062344	0.060359	-0.163045	-0.206085	-0.962965	23.637534	-19.809354	-177.011874
61704		-0.263372	11.304093	17.369573	7.914214	-3.131370	9.081201	-1.482156	-5.114062	3.052398	-0.657471	-0.128174	-0.406494	-0.008796	0.114220	0.172680	0.068542	-0.191272	-0.197888	-0.958936	22.605839	-23.201270	-176.522330
61705		5.321246	6.369849	21.993464	4.500267	2.745405	13.093464	-0.873517	-4.604231	2.200301	-0.676025	-0.106445	-0.358643	0.047424	0.065205	0.220788	0.073687	-0.215852	-0.193072	-0.954307	22.025625	-26.131456	-176.341351
61706		12.262289	4.894673	7.669439	-6.661236	-2.159754	3.754575	-1.055470	-3.779112	1.910275	-0.690186	-0.088867	-0.332520	0.120671	0.050517	0.078723	0.077995	-0.236146	-0.187300	-0.950300	21.306109	-28.557176	-176.097579
61707		16.340670	-4.218142	5.545489	-12.737094	5.016982	1.505589	-1.020790	-3.949368	2.234509	-0.699951	-0.064697	-0.291260	0.162722	-0.040066	0.058881	0.083696	-0.257430	-0.181265	-0.945446	20.493826	-31.138884	-175.649135
61708		24.194540	-0.601603	14.781567	-13.534871	4.569343	14.682899	-0.642948	-3.679397	2.362395	-0.700684	-0.042480	-0.265625	0.239216	-0.002695	0.152246	0.090690	-0.277261	-0.176656	-0.940050	19.776811	-33.595138	-175.003566
61709		33.470230	5.149410	17.200299	-17.480221	-0.877845	23.894343	-0.877952	-2.142885	2.341456	-0.694580	-0.024658	-0.248535	0.332196	0.056158	0.175332	0.098581	-0.289855	-0.170196	-0.936643	18.678769	-35.207317	-173.957807
61710		23.696278	5.113483	9.668252	-12.752123	-3.337703	12.711919	-1.309590	-0.414017	1.550814	-0.679688	-0.002197	-0.253662	0.236353	0.053603	0.096827	0.103600	-0.293857	-0.161980	-0.936311	17.374732	-35.721443	-173.009629
61711		9.442519	0.518914	9.264372	-2.615203	1.878804	3.028121	-1.132177	-0.450291	0.964980	-0.668457	-0.002197	-0.251465	0.094188	0.006169	0.092823	0.106095	-0.297417	-0.155455	-0.936013	16.392172	-36.139898	-172.447607
61712		9.109293	-5.459158	10.587150	-3.283503	7.803380	2.564418	-0.782401	-0.524555	0.703840	-0.659668	0.004639	-0.253906	0.091005	-0.053856	0.106322	0.107831	-0.300953	-0.150992	-0.935415	15.715372	-36.555031	-172.068127
61713		7.608373	-0.261539	7.163619	-2.299584	1.862446	0.213070	-0.429306	-0.407746	0.537029	-0.650879	0.004639	-0.251709	0.075944	-0.002257	0.071796	0.109397	-0.303587	-0.148360	-0.934803	15.289873	-36.873371	-171.774628
61714		7.825517	3.230893	8.005128	-0.940353	-1.181440	1.740626	-0.388132	-0.163697	0.374160	-0.646484	0.009277	-0.256348	0.078129	0.032611	0.080052	0.110449	-0.304967	-0.146029	-0.934597	14.924347	-37.034801	-171.544177
61715		4.511136	1.541109	10.157727	2.361893	1.473199	1.057263	-0.222238	0.000158	0.261942	-0.637207	0.002686	-0.269287	0.045091	0.015583	0.101560	0.111344	-0.305373	-0.144556	-0.934587	14.682334	-37.084021	-171.360624
61716		4.889925	3.291003	9.061978	2.005581	-0.603036	0.792757	-0.131403	-0.017380	0.188154	-0.624023	0.007324	-0.271729	0.048860	0.033016	0.090602	0.112024	-0.305787	-0.143626	-0.934514	14.524091	-37.135599	-171.230786
61717		6.479231	5.129613	7.160811	0.286061	-3.178525	0.646072	-0.192959	0.037583	0.220259	-0.628418	0.005127	-0.280518	0.064749	0.051436	0.071546	0.112795	-0.305970	-0.142332	-0.934559	14.311735	-37.157118	-171.068931
61718		8.139963	3.517977	6.761660	-1.709349	-2.053816	1.013897	-0.335714	0.152897	0.308481	-0.621582	0.005127	-0.289307	0.081397	0.035419	0.067495	0.113846	-0.305785	-0.140170	-0.934819	13.967781	-37.129850	-170.824891
61719		7.579096	1.130635	7.018897	-1.838345	0.282152	0.411138	-0.340349	0.146537	0.324195	-0.619385	0.002930	-0.298096	0.075824	0.011549	0.070114	0.114953	-0.305613	-0.137965	-0.935068	13.615881	-37.103528	-170.571623
61720		6.874505	0.799489	7.850166	-0.929120	0.908756	0.571620	-0.291775	0.099758	0.301112	-0.624023	0.011963	-0.302979	0.068772	0.008213	0.078455	0.115999	-0.305645	-0.136050	-0.935209	13.306169	-37.102788	-170.342217
61721		6.582740	0.490890	8.449454	-0.461714	1.394044	0.808522	-0.185167	0.036367	0.225671	-0.626221	0.009521	-0.300537	0.065837	0.005061	0.084478	0.116806	-0.305828	-0.134784	-0.935232	13.095908	-37.122948	-170.176312
61722		5.547064	1.492003	8.870740	0.892292	0.709647	0.693797	-0.122582	-0.042266	0.163978	-0.624023	0.009766	-0.311768	0.055440	0.015020	0.088710	0.117372	-0.306331	-0.133949	-0.935117	12.954541	-37.182351	-170.065787
61723		5.056524	2.105152	8.728608	1.402014	0.142203	0.395289	-0.090284	-0.126780	0.148453	-0.628418	0.009521	-0.307373	0.050494	0.021128	0.087309	0.117853	-0.307168	-0.133340	-0.934868	12.846763	-37.283057	-169.979864
61724		5.363173	1.856295	8.742539	1.117901	0.326357	0.545168	-0.092078	-0.182313	0.154650	-0.628662	0.011719	-0.307373	0.053538	0.018645	0.087466	0.118328	-0.308298	-0.132743	-0.934521	12.739715	-37.418860	-169.897678
61725		5.806870	1.928968	8.460630	0.665482	0.095646	0.607046	-0.092130	-0.182983	0.141960	-0.630859	0.009521	-0.309570	0.057978	0.019370	0.084650	0.118738	-0.309394	-0.132168	-0.934188	12.638326	-37.549911	-169.824487
61726		5.458432	1.734581	8.596085	0.978285	0.360822	0.463920	-0.083394	-0.179832	0.122033	-0.639893	0.013916	-0.305176	0.054496	0.017415	0.086003	0.119075	-0.310483	-0.131661	-0.933856	12.549234	-37.679772	-169.764073
61727		6.256304	1.328465	7.909174	-0.118076	0.403576	0.350203	-0.053201	-0.212704	0.096466	-0.635254	0.009521	-0.300537	0.062472	0.013336	0.079155	0.119313	-0.311664	-0.131355	-0.933475	12.491983	-37.821624	-169.726985
61728		6.966365	1.412650	7.442838	-0.874780	0.073126	0.441631	-0.040806	-0.209040	0.078707	-0.642334	0.018311	-0.303223	0.069580	0.014169	0.074498	0.119493	-0.312832	-0.131130	-0.933093	12.448338	-37.962181	-169.701287
61729		6.212671	1.865349	7.702120	0.015657	-0.162474	0.255718	-0.019352	-0.202566	0.066354	-0.644531	0.016113	-0.296387	0.062042	0.018682	0.077082	0.119650	-0.313924	-0.131023	-0.932721	12.422286	-38.094602	-169.683591
61730		5.459797	2.053260	8.259755	0.988875	-0.053186	0.250517	-0.011475	-0.200423	0.060962	-0.644531	0.018311	-0.291992	0.054509	0.020554	0.082651	0.119799	-0.315022	-0.130957	-0.932341	12.402165	-38.228099	-169.668903
61731		5.595688	2.069674	8.066626	0.804797	-0.148774	0.187105	-0.016523	-0.198426	0.084452	-0.642334	0.020508	-0.281006	0.055868	0.020727	0.080720	0.120047	-0.316105	-0.130833	-0.931960	12.369140	-38.360415	-169.637443
61732		5.554668	2.053935	8.146924	0.900337	-0.101601	0.218483	0.003776	-0.201451	0.075927	-0.644531	0.020508	-0.285400	0.055457	0.020559	0.081526	0.120289	-0.317205	-0.130815	-0.931557	12.351101	-38.496084	-169.612050
61733		5.254197	2.055528	8.088729	1.121430	-0.075137	-0.014931	0.047363	-0.188253	0.054054	-0.646729	0.020264	-0.274414	0.052460	0.020550	0.080942	0.120503	-0.318181	-0.131029	-0.931167	12.367013	-38.618967	-169.600558
61734		5.040728	0.715475	8.583274	1.171605	1.372866	0.002402	0.004196	-0.189016	0.070517	-0.646973	0.027100	-0.274658	0.050324	0.007171	0.085880	0.120727	-0.319217	-0.131014	-0.930785	12.350341	-38.746773	-169.577031
61735		4.995010	2.398447	8.466139	1.682206	-0.229813	0.162056	0.039273	-0.221378	0.046429	-0.637939	0.022705	-0.274414	0.049851	0.023979	0.084721	0.120871	-0.320346	-0.131223	-0.930349	12.368252	-38.887261	-169.576188
61736		5.628435	1.959036	8.310013	0.997598	0.052517	0.364513	0.099982	-0.234808	0.030404	-0.635742	0.024902	-0.267822	0.056184	0.019557	0.083176	0.121031	-0.321508	-0.131745	-0.929853	12.429047	-39.035463	-169.588802
61737		6.559788	1.048533	7.623908	-0.360084	0.565601	0.277139	0.098885	-0.244403	0.034263	-0.635742	0.027100	-0.268066	0.065503	0.010459	0.076324	0.121199	-0.322699	-0.132264	-0.929345	12.489155	-39.187330	-169.600711
61738		6.563994	1.893272	7.342911	-0.236056	-0.304654	0.209302	0.079141	-0.227540	0.032573	-0.635986	0.029297	-0.265869	0.065553	0.018914	0.073511	0.121339	-0.323839	-0.132680	-0.928871	12.536574	-39.331587	-169.611021
61739		6.192574	2.238553	7.472681	0.250731	-0.525054	0.130223	0.053144	-0.200314	0.064044	-0.629150	0.031738	-0.268066	0.061844	0.022385	0.074795	0.121600	-0.324871	-0.132911	-0.928443	12.552550	-39.462488	-169.594619
61740		5.541441	2.279799	8.045772	1.107081	-0.283255	0.153937	-0.000368	-0.164472	0.102827	-0.624756	0.033936	-0.272705	0.055336	0.022827	0.080503	0.121979	-0.325812	-0.132806	-0.928079	12.515732	-39.580145	-169.543961
61741		5.505669	2.687119	8.089022	1.307892	-0.647569	0.228991	-0.033860	-0.162228	0.126388	-0.624756	0.031738	-0.272461	0.054974	0.026920	0.080930	0.122413	-0.326761	-0.132508	-0.927731	12.448852	-39.697447	-169.475903
61742		5.545348	2.867467	8.553561	1.624859	-0.676560	0.629473	-0.057387	-0.168344	0.153922	-0.622803	0.036133	-0.270508	0.055359	0.028742	0.085574	0.122933	-0.327785	-0.132058	-0.927365	12.355615	-39.823243	-169.388204
61743		5.188460	2.651304	8.858244	2.029660	-0.335952	0.588541	-0.109471	-0.202814	0.222548	-0.629395	0.038330	-0.272705	0.051765	0.026619	0.088620	0.123661	-0.329031	-0.131277	-0.926937	12.203787	-39.974799	-169.255622
61744		4.935623	2.900247	9.234659	2.551935	-0.427142	0.739836	-0.145446	-0.257885	0.295458	-0.625244	0.045166	-0.270752	0.049194	0.029142	0.092389	0.124633	-0.330614	-0.130242	-0.926390	12.001440	-40.167107	-169.077186
61745		5.460097	2.023630	9.082347	1.837311	0.249602	0.815508	-0.127488	-0.357754	0.311804	-0.627686	0.047363	-0.277588	0.054407	0.020379	0.090908	0.125643	-0.332644	-0.129325	-0.925655	11.810366	-40.415410	-168.900952
61746		6.094305	1.510762	8.685399	1.026959	0.493974	0.843770	-0.116957	-0.515853	0.332317	-0.629883	0.051758	-0.277832	0.060694	0.015259	0.087002	0.126664	-0.335419	-0.128520	-0.924626	11.629237	-40.755467	-168.731834
61747		6.458132	1.047879	8.810544	0.758957	0.905941	1.097576	-0.085014	-0.719433	0.328907	-0.634521	0.051514	-0.273193	0.064246	0.010622	0.088332	0.127588	-0.339099	-0.127997	-0.923228	11.486105	-41.207937	-168.594052
61748		5.868364	1.592879	9.301121	1.761666	0.646967	1.140061	-0.061045	-0.981876	0.284701	-0.634766	0.058350	-0.269043	0.058203	0.016040	0.093293	0.128180	-0.343948	-0.127823	-0.921375	11.402386	-41.803482	-168.526804
61749		5.370599	1.209114	9.911878	2.498190	1.293264	1.170721	-0.071319	-1.297298	0.270949	-0.643555	0.055908	-0.262451	0.053045	0.012199	0.099460	0.128483	-0.350227	-0.127823	-0.918964	11.350590	-42.573658	-168.516574
61750		5.175787	0.703741	10.157983	2.788432	1.903838	1.099034	-0.025970	-1.652125	0.223205	-0.652832	0.060303	-0.251465	0.050909	0.007108	0.102002	0.128412	-0.358061	-0.128334	-0.915878	11.386651	-43.538335	-168.597438
61751		5.084426	0.910643	10.195348	3.144530	1.781320	1.029823	-0.019819	-2.045056	0.193875	-0.663818	0.057861	-0.246826	0.049789	0.009165	0.102465	0.127954	-0.367635	-0.129169	-0.912024	11.489087	-44.719688	-168.766694
61752		5.000485	1.114411	10.247903	3.543547	1.680426	0.952024	0.021380	-2.473811	0.178604	-0.677490	0.059814	-0.231445	0.048722	0.011177	0.103088	0.127208	-0.379080	-0.130473	-0.907245	11.681914	-46.139739	-169.026412
61753		4.954343	2.361666	10.556681	4.476041	0.702576	1.188572	0.069320	-2.957772	0.225202	-0.684082	0.059814	-0.209229	0.047948	0.023634	0.106292	0.126425	-0.392648	-0.132193	-0.901315	11.952154	-47.835806	-169.347191
61754		4.634636	3.371460	10.603483	5.393225	-0.094601	0.965542	0.091557	-3.473505	0.394689	-0.701904	0.054932	-0.184814	0.044429	0.033755	0.106833	0.126074	-0.408530	-0.133967	-0.894014	12.221485	-49.839655	-169.641228
61755		4.394800	3.792315	11.300174	6.569849	-0.128322	1.058783	0.017534	-4.017104	0.598931	-0.711182	0.063721	-0.151855	0.041553	0.038040	0.113856	0.126076	-0.426880	-0.135291	-0.885198	12.417709	-52.172400	-169.885949
61756		5.176280	3.693687	11.496928	6.683980	0.040145	1.496957	-0.035859	-4.610328	0.891181	-0.725098	0.074463	-0.118896	0.048930	0.037180	0.116112	0.126793	-0.447869	-0.136060	-0.874542	12.486184	-54.871567	-170.002108
61757		7.253308	3.354312	11.762965	6.187574	0.343257	2.984892	0.007197	-5.142508	1.280317	-0.727539	0.081055	-0.072510	0.069261	0.033989	0.119440	0.128868	-0.471149	-0.136400	-0.861862	12.359277	-57.917727	-169.849716
61758		3.992906	3.217309	11.685090	8.407312	0.845484	-0.252954	0.011713	-5.787065	1.725625	-0.741455	0.093994	-0.019775	0.036247	0.032490	0.117937	0.132325	-0.497108	-0.136014	-0.846684	11.897253	-61.376087	-169.311775
61759		3.852543	2.089178	12.493492	9.315666	2.287464	-0.690615	0.045892	-6.533796	2.190767	-0.748779	0.113770	0.037109	0.034186	0.021253	0.126104	0.137191	-0.526011	-0.134969	-0.828417	10.940713	-65.305114	-168.217211
61760		6.731413	0.180018	12.448843	8.126111	3.910322	1.091204	0.229831	-7.605852	2.475112	-0.740234	0.129150	0.096436	0.062490	0.002449	0.126929	0.142800	-0.558657	-0.134481	-0.805869	9.559298	-69.853850	-166.586313
61761		7.317923	2.632479	11.966457	9.347862	1.570281	0.849875	0.218881	-8.663059	2.803367	-0.732178	0.153564	0.170898	0.067530	0.027165	0.122701	0.148728	-0.594780	-0.133543	-0.778642	6.892470	-75.008519	-163.664647
61762		14.496589	1.918414	16.012782	12.203725	3.520338	7.752510	0.434220	-9.578987	2.705699	-0.712646	0.177979	0.247803	0.136806	0.020715	0.166856	0.153963	-0.632852	-0.134104	-0.746867	1.912675	-80.611967	-158.326340
61763		19.845273	9.613822	14.646865	15.119198	-3.934300	11.545828	1.153655	-9.248285	2.489938	-0.695557	0.197998	0.313477	0.190176	0.097659	0.155953	0.160520	-0.667494	-0.137459	-0.713996	-14.205672	-85.793220	-141.450525
61764		27.692718	13.229740	15.881602	19.595950	-6.505348	17.882303	1.063247	-8.574156	2.755265	-0.660156	0.220459	0.365967	0.267915	0.135142	0.171147	0.167837	-0.698482	-0.138767	-0.681687	-107.491956	-87.279432	-47.458374
61765		25.531172	13.350075	13.037983	19.273388	-7.321638	14.155185	0.726053	-7.383405	3.098223	-0.632080	0.251953	0.420410	0.248154	0.136886	0.140124	0.175658	-0.724686	-0.136471	-0.652189	-138.834607	-83.318620	-15.619875
61766		22.827486	10.949247	14.998345	21.419173	-4.040291	9.947177	0.511590	-6.403379	3.253332	-0.599121	0.274414	0.461670	0.221497	0.112736	0.157434	0.183642	-0.746879	-0.131884	-0.625344	-143.983168	-79.280738	-10.118095
61767		13.390991	9.583597	13.276578	18.619489	-3.188458	-0.303503	0.565466	-5.455525	3.401349	-0.568848	0.303467	0.494141	0.128567	0.097670	0.136596	0.192677	-0.765333	-0.125859	-0.601082	-144.740821	-75.593969	-9.014545
61768		1.349893	6.859454	11.553834	13.244086	-0.992007	-12.245271	0.367574	-5.070458	3.550791	-0.538086	0.328369	0.519775	0.009345	0.068572	0.115936	0.201496	-0.782080	-0.118228	-0.577731	-144.598765	-72.046668	-8.938627
61769		23.954176	3.148954	14.972447	21.861012	2.848472	8.123836	0.859358	-4.277071	2.606037	-0.516357	0.343994	0.543701	0.235834	0.033921	0.154937	0.209772	-0.794917	-0.114760	-0.557613	-144.686976	-69.173259	-8.327520
61770		25.205451	11.615455	21.497436	31.787557	-1.521666	5.006096	1.449952	-0.548779	0.686848	-0.514404	0.353027	0.523438	0.251065	0.115452	0.216503	0.217173	-0.795275	-0.116694	-0.553856	-143.503182	-68.688918	-8.697616
61771		11.653122	17.092082	17.086240	25.655761	-7.486315	-7.446847	0.816445	1.697315	-0.404327	-0.530029	0.354980	0.514404	0.118324	0.169986	0.170558	0.220261	-0.789477	-0.118685	-0.560468	-141.986021	-69.592600	-9.824886
61772		2.661529	14.529273	14.380234	19.242278	-6.004929	-14.128575	-0.317524	2.786893	-0.784858	-0.548096	0.352783	0.496826	0.029184	0.145409	0.143177	0.218502	-0.781430	-0.117882	-0.572475	-140.334512	-71.122717	-11.759692
61773		-2.837964	8.329393	11.352012	12.387158	-1.775396	-16.861900	-0.896757	2.959277	-0.970483	-0.561035	0.339111	0.486084	-0.026293	0.083934	0.113544	0.213919	-0.773329	-0.115830	-0.585478	-138.787637	-72.763674	-13.931186
61774		-4.671542	4.051379	8.573788	7.849725	0.716154	-16.855853	-0.900987	2.867417	-1.224307	-0.578857	0.336914	0.466309	-0.045231	0.041181	0.086209	0.208560	-0.765039	-0.114923	-0.598340	-137.329079	-74.460033	-15.975925
61775		-4.052675	0.695556	7.263925	5.647795	2.974777	-15.190439	-0.417153	2.771627	-1.558261	-0.591553	0.312256	0.447021	-0.039459	0.007418	0.073176	0.203852	-0.756255	-0.116701	-0.610659	-135.898041	-76.217323	-17.706191
61776		-2.957306	0.401188	6.880860	5.593713	2.955989	-13.840268	0.265562	2.752617	-1.947464	-0.614014	0.312012	0.424805	-0.028582	0.004202	0.069212	0.200594	-0.746275	-0.122138	-0.622830	-134.297919	-78.126997	-19.174359
61777		-1.473849	2.643773	6.817617	6.905945	0.835740	-12.504457	0.642016	2.800861	-2.233501	-0.626953	0.296387	0.407715	-0.013486	0.026374	0.068456	0.197696	-0.735491	-0.129610	-0.634957	-132.459817	-80.149452	-20.675292
61778		0.425054	4.530409	6.982182	8.251188	-0.851846	-10.612690	0.544819	2.949469	-2.370112	-0.639648	0.276367	0.390625	0.005816	0.045051	0.069867	0.194183	-0.723847	-0.137204	-0.647699	-129.609990	-82.287909	-23.223534
61779		2.076610	4.865099	7.226680	8.816750	-1.103624	-8.697966	0.160617	3.187867	-2.430454	-0.650391	0.260742	0.364502	0.022503	0.048327	0.071956	0.189028	-0.711626	-0.143366	-0.661289	-124.177860	-84.491093	-28.602408
61780		3.602363	3.526650	7.231854	8.254305	0.018071	-6.719383	-0.216765	3.495294	-2.482258	-0.669922	0.240479	0.336426	0.037714	0.034883	0.071631	0.182581	-0.698270	-0.148197	-0.676107	-109.272015	-86.684842	-43.663358
61781		4.990942	1.946541	7.172577	7.368881	1.328566	-4.906997	-0.399489	3.859224	-2.579602	-0.680420	0.220459	0.317139	0.051527	0.018950	0.070704	0.175264	-0.683562	-0.152257	-0.691985	-56.500125	-88.014729	-96.714144
61782		6.237743	0.600111	7.151698	6.471081	2.469528	-3.299122	-0.362192	4.276640	-2.700990	-0.693359	0.204834	0.282227	0.063962	0.005272	0.070150	0.167946	-0.666743	-0.156479	-0.709057	-1.894192	-86.447165	-151.569006
61783		6.975191	0.075373	7.077776	5.774218	2.885980	-2.258732	-0.211913	4.714859	-2.822442	-0.712891	0.180176	0.249756	0.071396	-0.000172	0.069107	0.160847	-0.647825	-0.161084	-0.726982	13.350748	-83.582592	-166.992354
61784		7.100766	0.330152	6.850953	5.239816	2.562683	-1.849179	-0.088508	5.100991	-2.875014	-0.718750	0.158203	0.208496	0.072762	0.002294	0.066667	0.154237	-0.626689	-0.165937	-0.745612	18.751821	-80.305736	-172.486050
61785		7.011609	0.739807	6.755914	4.877333	2.159166	-1.634990	-0.060954	5.371580	-2.815675	-0.731445	0.131348	0.171875	0.071991	0.006413	0.065640	0.147926	-0.604169	-0.170279	-0.764266	21.038725	-76.873049	-174.857773
61786		6.974228	0.834315	6.750849	4.418316	2.064585	-1.380747	-0.089769	5.537707	-2.668547	-0.737305	0.109131	0.130371	0.071678	0.007425	0.065538	0.142165	-0.580448	-0.173834	-0.782720	21.949693	-73.352000	-175.847081
61787		7.420894	0.834588	7.060756	4.022148	2.166625	-0.608499	-0.102208	5.596263	-2.481288	-0.736572	0.089355	0.088867	0.076241	0.007444	0.068489	0.136948	-0.556277	-0.176540	-0.800397	22.223215	-69.857342	-176.201182
61788		8.503995	1.146694	7.675776	3.692331	2.087984	0.888606	-0.080130	5.633552	-2.299988	-0.733643	0.069580	0.049805	0.087281	0.010502	0.074316	0.132393	-0.531452	-0.178661	-0.817380	22.177710	-66.363051	-176.205791
61789		9.890401	1.987503	8.430283	3.396451	1.560966	2.789488	-0.065248	5.666140	-2.174733	-0.730713	0.049561	0.006104	0.101447	0.018808	0.081446	0.128328	-0.506241	-0.180304	-0.833512	21.996822	-62.897352	-176.051549
61790		11.273582	2.877426	9.166206	2.884903	0.953667	4.681887	-0.087230	5.704988	-2.141097	-0.725830	0.034180	-0.028809	0.115588	0.027586	0.088379	0.124233	-0.480306	-0.181597	-0.849055	21.798158	-59.399026	-175.886326
61791		12.626135	4.215306	9.911838	2.351094	-0.077929	6.613296	-0.158167	5.708649	-2.202334	-0.714111	0.021240	-0.063721	0.129475	0.040815	0.095420	0.119627	-0.454037	-0.182548	-0.863838	21.643052	-55.904498	-175.814872
61792		14.552230	5.728049	10.829315	1.436534	-1.243139	9.111645	-0.340597	5.646045	-2.318265	-0.706787	0.003662	-0.103027	0.149151	0.055745	0.104020	0.113906	-0.427475	-0.182856	-0.877983	21.508556	-52.399903	-175.894411
61793		17.474670	6.784980	11.538973	-0.701873	-2.154782	12.079386	-0.662719	5.513953	-2.481537	-0.697266	-0.009521	-0.124756	0.178661	0.066020	0.110279	0.106586	-0.401275	-0.181990	-0.891346	21.331934	-48.950646	-176.162223
61794		21.757067	6.128928	11.243091	-5.342533	-1.979724	14.777654	-0.963012	5.377171	-2.684914	-0.698975	-0.027344	-0.153076	0.221284	0.058856	0.106227	0.097504	-0.375143	-0.180113	-0.904058	21.121747	-45.514226	-176.632405
61795		26.801069	3.959912	10.434471	-11.608100	-0.555400	16.787035	-1.056954	5.295386	-2.977070	-0.707520	-0.040527	-0.185791	0.271199	0.036103	0.096995	0.086792	-0.348958	-0.178216	-0.915934	20.992976	-42.080933	-177.327156
61796		32.237827	1.365194	8.985612	-18.898275	1.225254	17.807730	-0.867915	5.276012	-3.319695	-0.717773	-0.071777	-0.222412	0.324769	0.008639	0.081264	0.074711	-0.321998	-0.177630	-0.926921	21.078288	-38.570370	-178.232910
61797		37.580712	-1.407128	6.553973	-26.818444	3.113665	17.165744	-0.506524	5.304348	-3.645427	-0.714355	-0.102783	-0.265625	0.377032	-0.020788	0.055597	0.061681	-0.294296	-0.179040	-0.936766	21.415995	-34.991795	-179.288035
61798		40.725400	-4.346261	0.263091	-34.862604	4.046728	11.285003	0.095898	5.453816	-3.926635	-0.701904	-0.137939	-0.311035	0.406166	-0.051443	-0.008480	0.048263	-0.265021	-0.183449	-0.945400	22.074940	-31.252363	179.599202
61799		39.219253	-1.915942	-6.069319	-37.290184	-0.007146	3.880469	0.703044	5.645644	-3.741514	-0.687500	-0.166504	-0.372070	0.389823	-0.026228	-0.071805	0.036669	-0.234678	-0.190222	-0.952574	22.892367	-27.454688	178.745900
61800		35.731519	2.772737	-12.822395	-37.013265	-6.669301	-3.985825	0.639599	5.549219	-2.876869	-0.659424	-0.197021	-0.413086	0.353930	0.023050	-0.137998	0.028787	-0.205331	-0.195518	-0.958532	23.390491	-23.884225	178.426681
61801		31.007689	0.901209	-20.052341	-35.742184	-7.924491	-14.689549	0.170292	5.034383	-1.472803	-0.638916	-0.205566	-0.452637	0.304956	0.006929	-0.208237	0.026825	-0.179765	-0.197016	-0.963405	23.331987	-20.912612	178.825541
61802		28.617140	-10.478620	-26.494287	-36.588203	-0.369325	-26.890250	0.450130	3.963923	-0.261587	-0.618408	-0.211914	-0.479004	0.280706	-0.104551	-0.270778	0.029779	-0.160385	-0.198836	-0.966361	23.315793	-18.773174	179.623229
61803		30.033688	-18.127939	-31.158527	-39.690618	4.057970	-34.500836	1.916559	2.490026	0.190797	-0.611328	-0.225098	-0.478516	0.296583	-0.177975	-0.317010	0.034721	-0.148334	-0.207510	-0.966298	24.188858	-17.522411	-179.667160
61804		19.179547	0.174540	-24.692712	-24.860405	-10.781197	-25.410518	2.772758	0.883848	0.175717	-0.610840	-0.236328	-0.473633	0.190698	0.005344	-0.247714	0.038523	-0.143841	-0.220573	-0.963936	25.680054	-17.115694	-179.351771
61805		16.368613	11.699022	-25.898909	-21.003681	-21.923160	-22.211583	-0.870468	-2.867141	1.331922	-0.634521	-0.205566	-0.450439	0.166602	0.116971	-0.257124	0.041159	-0.159372	-0.215906	-0.962440	25.182726	-18.937991	-179.369594
61806		-7.918701	15.100828	8.087721	12.387922	-10.226497	0.085510	-2.758496	-5.137042	3.697820	-0.663086	-0.159424	-0.405518	-0.083980	0.150562	0.076682	0.051173	-0.188665	-0.200603	-0.959972	23.327887	-22.504513	-178.600933
61807		4.917028	-2.729232	27.708185	5.137112	13.342582	14.575379	-2.172175	-4.692992	1.960365	-0.675049	-0.137451	-0.370850	0.042892	-0.023832	0.278409	0.053816	-0.213731	-0.189416	-0.956841	22.079798	-25.429548	-178.602921
61808		12.997024	2.589499	15.869033	-4.708491	3.416878	10.025592	-1.160775	-3.683730	0.547863	-0.684326	-0.124268	-0.337891	0.126947	0.027175	0.160892	0.051695	-0.232246	-0.184215	-0.953653	21.659962	-27.516908	-179.158129
61809		7.447643	-8.253916	5.259154	-5.760325	9.520737	-4.576976	-1.449470	-3.473431	1.192900	-0.700684	-0.111328	-0.305176	0.074030	-0.081706	0.054474	0.052499	-0.250329	-0.176743	-0.950443	20.871485	-29.630444	-179.254630
61810		12.847346	-15.602282	11.521730	-8.593040	18.525904	1.329253	-0.718186	-3.965622	1.977829	-0.708252	-0.086914	-0.268311	0.127680	-0.154336	0.118311	0.057494	-0.271148	-0.171823	-0.945331	20.300169	-32.168168	-178.949185
61811		24.979257	-5.450954	19.705538	-12.064724	11.577772	17.796725	-0.079371	-3.121967	2.402657	-0.708984	-0.064941	-0.244873	0.247306	-0.051449	0.200950	0.066058	-0.288030	-0.169016	-0.940271	19.804617	-34.331582	-178.135887
61812		28.940787	8.610416	14.129630	-14.295390	-4.053663	20.028501	-0.380338	-1.421033	2.291174	-0.694092	-0.040283	-0.234619	0.287381	0.089675	0.143175	0.075086	-0.296856	-0.164336	-0.937674	18.904457	-35.548153	-176.953347
61813		19.107103	18.727620	2.764453	-9.476020	-17.511414	8.270115	-1.141102	-0.452879	1.397263	-0.683105	-0.031250	-0.232666	0.189694	0.188760	0.027001	0.079576	-0.300635	-0.157038	-0.937350	17.756799	-36.057276	-176.116125
61814		9.856152	1.853670	10.265773	-1.902522	1.141487	4.366131	-1.269622	-0.575711	0.866858	-0.672363	-0.020020	-0.226318	0.098182	0.019615	0.102818	0.081290	-0.304630	-0.149974	-0.937070	16.748510	-36.534175	-175.647809
61815		6.847839	-11.144906	12.636579	-1.256922	14.211806	1.466819	-0.684698	-0.452934	0.649129	-0.665771	-0.017822	-0.230957	0.068552	-0.110793	0.126901	0.082957	-0.307605	-0.145923	-0.936592	16.140113	-36.899351	-175.293161
61816		9.993622	3.461501	5.752456	-3.908292	-2.071118	1.384657	-0.257737	-0.476917	0.325247	-0.652344	-0.015381	-0.235352	0.099742	0.034852	0.057718	0.083749	-0.310302	-0.144370	-0.935872	15.908422	-37.227973	-175.161463
61817		7.815891	1.146036	8.437868	-1.206350	1.100344	1.629909	-0.204233	-0.215334	0.164973	-0.649902	-0.017578	-0.241943	0.078058	0.011611	0.084451	0.084059	-0.311606	-0.143212	-0.935589	15.742806	-37.383432	-175.087976
61818		4.046465	2.831390	9.529630	2.832408	0.103145	0.539669	0.008383	-0.182874	0.075175	-0.643311	-0.015137	-0.248779	0.040367	0.028325	0.095334	0.084307	-0.312634	-0.143168	-0.935230	15.731914	-37.510673	-175.069701
61819		7.036637	2.844654	8.418771	-0.128362	-0.465050	1.512031	0.051261	-0.176354	0.023538	-0.634277	-0.017334	-0.248535	0.070289	0.028433	0.084257	0.084380	-0.313545	-0.143409	-0.934881	15.767433	-37.622563	-175.086447
61820		6.133090	2.434558	8.338534	0.458729	-0.033911	0.810938	0.069924	-0.164850	0.009928	-0.629639	-0.019531	-0.255127	0.061261	0.024319	0.083444	0.084432	-0.314414	-0.143748	-0.934533	15.817476	-37.729439	-175.110192
61821		7.105233	2.843325	7.044962	-0.916986	-0.895647	0.509970	0.024821	-0.141418	0.033361	-0.627197	-0.023926	-0.263916	0.070998	0.028436	0.070503	0.084535	-0.315179	-0.143834	-0.934252	15.829609	-37.823589	-175.113411
61822		7.312241	2.373386	7.333718	-1.017076	-0.373507	0.756669	-0.027906	-0.105498	0.070943	-0.629639	-0.019531	-0.261963	0.073075	0.023770	0.073372	0.084760	-0.315854	-0.143596	-0.934041	15.790454	-37.907178	-175.082936
61823		7.148697	2.090779	7.590262	-0.798464	-0.018290	0.791530	-0.038036	-0.101528	0.083001	-0.629639	-0.019287	-0.270752	0.071440	0.020952	0.075935	0.085025	-0.316496	-0.143293	-0.933846	15.740323	-37.987062	-175.043456
61824		6.691376	1.607580	8.331819	-0.123617	0.704047	0.970033	-0.002978	-0.114159	0.051933	-0.625000	-0.023682	-0.279541	0.066862	0.016094	0.083356	0.085194	-0.317186	-0.143205	-0.933610	15.724540	-38.072426	-175.027798
61825		6.699879	1.491103	7.922678	-0.374348	0.685098	0.640593	0.056302	-0.171168	0.021602	-0.638672	-0.017334	-0.275146	0.066929	0.014896	0.079288	0.085271	-0.318068	-0.143469	-0.933262	15.763352	-38.181157	-175.044989
61826		6.070510	1.691509	8.198434	0.346851	0.637489	0.502344	0.097289	-0.212997	-0.003117	-0.636475	-0.019531	-0.279541	0.060618	0.016874	0.082057	0.085272	-0.319137	-0.143978	-0.932819	15.841020	-38.312342	-175.087675
61827		6.199753	1.685711	8.209125	0.274366	0.653944	0.587567	0.143886	-0.261771	-0.022630	-0.640869	-0.021729	-0.275146	0.061892	0.016791	0.082184	0.085217	-0.320371	-0.144759	-0.932279	15.960927	-38.464017	-175.154549
61828		5.656156	1.740970	8.441908	0.871563	0.735154	0.433713	0.181141	-0.268192	-0.059672	-0.645264	-0.023926	-0.272705	0.056453	0.017316	0.084511	0.085048	-0.321618	-0.145772	-0.931708	16.119053	-38.616351	-175.249068
61829		5.451206	2.397787	8.161667	1.060801	0.063419	0.234621	0.201882	-0.287421	-0.081930	-0.647461	-0.026367	-0.277100	0.054404	0.023873	0.081719	0.084790	-0.322902	-0.146929	-0.931105	16.302723	-38.772367	-175.364335
61830		6.014297	2.448790	7.883680	0.501838	-0.084339	0.388376	0.203484	-0.283360	-0.068296	-0.647705	-0.019531	-0.277344	0.060040	0.024387	0.078947	0.084605	-0.324200	-0.148064	-0.930491	16.480833	-38.930976	-175.469686
61831		5.983035	2.198659	7.892089	0.492953	0.183249	0.318412	0.207405	-0.283512	-0.077477	-0.647461	-0.024170	-0.270508	0.059727	0.021882	0.079028	0.084380	-0.325465	-0.149237	-0.929882	16.666781	-39.085001	-175.582762
61832		5.588882	2.406497	8.097724	0.995804	0.107334	0.266832	0.215323	-0.285484	-0.073252	-0.651855	-0.026367	-0.261719	0.055782	0.023957	0.081083	0.084188	-0.326760	-0.150436	-0.929252	16.855768	-39.243272	-175.693851
61833		5.485290	2.719484	8.055956	1.158394	-0.167615	0.237802	0.200239	-0.319083	-0.059030	-0.649658	-0.026367	-0.254883	0.054732	0.027098	0.080674	0.084009	-0.328205	-0.151560	-0.928576	17.035836	-39.419300	-175.803347
61834		5.364969	2.639645	7.995583	1.226084	-0.080303	0.095395	0.185614	-0.342956	-0.043887	-0.656494	-0.021973	-0.255127	0.053518	0.026310	0.080072	0.083862	-0.329797	-0.152595	-0.927855	17.204271	-39.613248	-175.908003
61835		6.395361	2.644470	7.526372	0.194478	-0.275343	0.406234	0.179390	-0.381357	-0.023752	-0.658936	-0.019775	-0.248535	0.063813	0.026370	0.075409	0.083764	-0.331564	-0.153589	-0.927070	17.367001	-39.828844	-176.008163
61836		6.116282	2.257279	7.540271	0.354343	0.132354	0.148069	0.173688	-0.395257	-0.022967	-0.652100	-0.021973	-0.246338	0.061016	0.022500	0.075543	0.083653	-0.333416	-0.154556	-0.926255	17.528545	-40.054351	-176.111722
61837		5.587777	2.494288	7.854178	1.043572	0.068854	0.088771	0.165633	-0.426890	-0.017131	-0.654541	-0.017578	-0.235352	0.055712	0.024873	0.078681	0.083527	-0.335401	-0.155492	-0.925393	17.689067	-40.295524	-176.219735
61838		5.553138	2.339142	7.964826	1.137808	0.278761	0.105723	0.173339	-0.463291	-0.020385	-0.654297	-0.021973	-0.237305	0.055349	0.023317	0.079797	0.083374	-0.337564	-0.156480	-0.924453	17.861608	-40.557992	-176.339506
61839		5.418862	2.401633	7.882370	1.249510	0.224579	-0.032516	0.198313	-0.460059	-0.021691	-0.656738	-0.015381	-0.233154	0.054010	0.023932	0.078972	0.083255	-0.339681	-0.157587	-0.923500	18.050557	-40.815933	-176.461275
61840		5.870017	2.815640	7.470035	0.811861	-0.299269	0.058354	0.225259	-0.461088	-0.018537	-0.656738	-0.015381	-0.228760	0.058530	0.028067	0.074867	0.083198	-0.341809	-0.158809	-0.922510	18.254558	-41.076730	-176.582404
61841		6.040675	2.848508	7.376469	0.678249	-0.341020	0.108982	0.240082	-0.446753	0.000043	-0.647705	-0.019775	-0.232910	0.060242	0.028396	0.073933	0.083260	-0.343860	-0.160064	-0.921525	18.458024	-41.330705	-176.688622
61842		5.952159	2.938875	7.549562	0.915948	-0.332350	0.192884	0.230049	-0.426319	0.019241	-0.652344	-0.013184	-0.230957	0.059358	0.029308	0.075656	0.083413	-0.345849	-0.161226	-0.920563	18.644143	-41.578719	-176.777286
61843		5.792068	3.254798	7.626053	1.208489	-0.569117	0.212976	0.175074	-0.429473	0.048961	-0.652344	-0.015381	-0.224365	0.057749	0.032495	0.076413	0.083601	-0.347882	-0.162089	-0.919628	18.786537	-41.831805	-176.846646
61844		6.257959	2.883675	7.530544	0.749727	-0.255928	0.363704	0.156446	-0.441161	0.087647	-0.650146	-0.013184	-0.224365	0.062401	0.028805	0.075466	0.083927	-0.350020	-0.162799	-0.918661	18.901883	-42.100018	-176.891552
61845		6.885312	3.134476	7.168689	0.179628	-0.628022	0.589026	0.137680	-0.484502	0.136733	-0.647705	-0.015381	-0.222168	0.068658	0.031342	0.071875	0.084407	-0.352389	-0.163357	-0.917612	18.990763	-42.399042	-176.912457
61846		6.816273	3.207240	7.303610	0.391995	-0.632158	0.653310	0.101297	-0.537822	0.196929	-0.656982	-0.008789	-0.231201	0.067934	0.032102	0.073235	0.085058	-0.355077	-0.163661	-0.916461	19.038156	-42.739816	-176.903017
61847		6.092351	2.957599	7.811522	1.235742	-0.179800	0.450073	0.060470	-0.584992	0.240380	-0.656982	-0.008789	-0.224609	0.060659	0.029625	0.078302	0.085793	-0.358018	-0.163722	-0.915237	19.048868	-43.112616	-176.873836
61848		5.903621	2.910544	8.098413	1.611911	-0.019219	0.497948	0.047144	-0.666742	0.267822	-0.661621	-0.002197	-0.227051	0.058727	0.029165	0.081187	0.086564	-0.361369	-0.163703	-0.913849	19.051862	-43.536342	-176.844963
61849		6.038309	2.818574	8.118066	1.582071	0.073248	0.569972	0.027976	-0.751541	0.290803	-0.659668	0.000000	-0.227051	0.060036	0.028262	0.081411	0.087333	-0.365116	-0.163592	-0.912305	19.047073	-44.008773	-176.820739
61850		6.003676	2.757556	8.400027	1.862763	0.239911	0.707789	0.022781	-0.890042	0.288439	-0.664063	0.000000	-0.224854	0.059622	0.027652	0.084269	0.087969	-0.369499	-0.163517	-0.910491	19.065339	-44.557085	-176.834221
61851		6.167872	2.873291	8.560781	1.992200	0.193227	0.938034	0.002742	-1.064841	0.294761	-0.670898	0.002197	-0.211670	0.061179	0.028822	0.085935	0.088448	-0.374671	-0.163413	-0.908347	19.102020	-45.199910	-176.889734
61852		5.761574	2.484491	8.838011	2.478986	0.684061	0.716504	0.006145	-1.281046	0.305286	-0.675537	0.004150	-0.202881	0.057010	0.024930	0.088747	0.088804	-0.380826	-0.163392	-0.905753	19.177653	-45.962790	-176.996587
61853		5.669686	1.854957	9.143725	2.718500	1.404992	0.667158	0.050838	-1.556562	0.293263	-0.677490	-0.000244	-0.196045	0.055956	0.018609	0.091879	0.088959	-0.388170	-0.163712	-0.902557	19.344651	-46.871173	-177.192515
61854		6.259303	1.454547	8.804762	2.158253	1.667198	0.740848	0.089785	-1.910745	0.280322	-0.688965	0.006348	-0.183105	0.061728	0.014593	0.088647	0.088835	-0.397060	-0.164374	-0.898573	19.623775	-47.968665	-177.507544
61855		6.268366	1.652680	8.828950	2.449777	1.539063	0.751333	0.144098	-2.317448	0.271359	-0.695557	0.001709	-0.169434	0.061633	0.016547	0.089020	0.088433	-0.407693	-0.165463	-0.893638	20.047319	-49.281488	-177.967319
61856		6.018423	1.441073	8.969610	2.912605	1.853778	0.522912	0.200436	-2.753162	0.308606	-0.708984	0.003662	-0.151855	0.058920	0.014412	0.090527	0.087938	-0.420214	-0.166888	-0.887601	20.613666	-50.833710	-178.561936
61857		5.303667	2.696910	10.002358	4.786666	1.155270	0.732000	0.335897	-3.247870	0.393027	-0.715576	-0.000977	-0.118408	0.051350	0.026902	0.100912	0.087668	-0.434839	-0.168920	-0.880168	21.381042	-52.662798	-179.299093
61858		4.914304	3.361702	10.084284	5.643629	0.657352	0.426697	0.421527	-3.761267	0.582815	-0.733887	0.007568	-0.096680	0.047136	0.033542	0.101813	0.087958	-0.451707	-0.171081	-0.871181	22.287644	-54.798716	179.870539
61859		5.616445	3.520867	10.621559	6.122658	0.811416	1.077099	0.542491	-4.335088	0.813950	-0.740723	0.011963	-0.059082	0.053700	0.035140	0.107493	0.088998	-0.471021	-0.173430	-0.860314	23.388083	-57.279945	178.913928
61860		4.967230	3.740202	11.506516	7.730945	1.047882	0.683046	0.583788	-4.923259	1.018433	-0.747559	0.013916	-0.017090	0.046628	0.037306	0.116347	0.090455	-0.492751	-0.175633	-0.847448	24.733248	-60.104383	177.726088
61861		4.636942	3.605229	11.431466	8.329982	1.242916	-0.107140	0.611032	-5.638536	1.222297	-0.752441	0.022705	0.029297	0.042901	0.035970	0.115667	0.092146	-0.517313	-0.177647	-0.832069	26.503686	-63.331547	176.109374
61862		4.972212	3.581625	11.406885	8.742789	1.368395	-0.363009	0.599862	-6.516080	1.456220	-0.752441	0.029053	0.088867	0.045709	0.035813	0.115709	0.093911	-0.545218	-0.179232	-0.813507	29.008255	-67.034643	173.724954
61863		5.584115	2.117618	11.673626	8.891081	2.946319	-0.640830	0.585816	-7.523376	1.649331	-0.744141	0.049072	0.154785	0.051223	0.021265	0.118784	0.095398	-0.576688	-0.180477	-0.791049	33.051656	-71.228806	169.755595
61864		10.283062	1.434896	12.077645	8.420786	4.161105	3.043698	0.876798	-8.520754	1.712402	-0.737793	0.057861	0.223145	0.097437	0.014657	0.125069	0.096908	-0.611021	-0.182851	-0.764086	40.812983	-75.739332	162.186288
61865		15.560947	7.206655	14.464722	12.847049	0.530557	8.562125	1.176434	-8.887118	1.694333	-0.717773	0.069092	0.291504	0.148356	0.072465	0.151774	0.098738	-0.645381	-0.186243	-0.734199	56.244836	-79.884036	147.098113
61866		18.395156	11.603465	13.200933	14.703500	-3.361944	10.665935	0.994231	-8.776234	2.064679	-0.689453	0.093506	0.368408	0.176704	0.117200	0.140452	0.101235	-0.678411	-0.187323	-0.703151	85.763606	-82.737262	117.831189
61867		25.919709	10.362716	13.610395	16.220212	-0.918513	16.642875	1.104856	-8.414593	2.508704	-0.663086	0.113770	0.418701	0.251833	0.106024	0.147386	0.105805	-0.709181	-0.186732	-0.671565	126.891909	-82.764011	77.032719
61868		27.636084	12.853211	13.517179	19.463635	-2.791566	17.102589	1.123629	-7.570748	2.899336	-0.628418	0.147461	0.472900	0.269071	0.131668	0.146185	0.112335	-0.736159	-0.184026	-0.641549	154.987044	-80.370267	49.292980
61869		24.260466	11.669734	14.153715	21.090217	-1.807473	12.018440	1.095462	-6.677543	2.927451	-0.593262	0.167725	0.514404	0.235952	0.119377	0.150139	0.119516	-0.759217	-0.180351	-0.613823	169.614530	-77.202628	35.025002
61870		18.028267	9.204790	13.808750	19.888667	-0.451040	4.486008	1.459731	-5.746403	2.763709	-0.569092	0.185791	0.553711	0.174919	0.093454	0.143844	0.128287	-0.778090	-0.177655	-0.588691	178.007921	-74.089477	27.226423
61871		8.609938	7.489411	10.201622	14.349342	-1.455659	-4.694283	1.951066	-5.246544	2.656699	-0.541016	0.217041	0.577148	0.082376	0.074991	0.104941	0.138951	-0.794327	-0.176304	-0.564495	-176.169227	-71.046391	22.293055
61872		12.690900	3.278485	13.132675	16.545277	4.249820	-2.574676	2.771082	-4.640524	2.527198	-0.519775	0.250488	0.591309	0.123398	0.032508	0.134669	0.152885	-0.807401	-0.177192	-0.541602	-171.475909	-68.242340	18.974168
61873		38.164218	16.268639	21.591860	38.693708	-0.380242	16.454592	2.179415	-0.938461	1.810237	-0.515625	0.266113	0.584229	0.379139	0.163747	0.219482	0.165712	-0.809850	-0.176449	-0.534367	-167.951116	-67.517109	16.513015
61874		14.427274	17.670261	18.011461	27.983543	-5.784631	-4.497529	1.066408	2.099032	0.884187	-0.518311	0.277344	0.561523	0.145379	0.176385	0.179534	0.174240	-0.804075	-0.173969	-0.541146	-165.428446	-68.570601	14.453365
61875		5.318035	15.039454	14.843163	20.943514	-5.835133	-11.257317	-0.187978	3.502107	0.583038	-0.543213	0.279297	0.545898	0.055328	0.150693	0.147334	0.178056	-0.795205	-0.168006	-0.554724	-163.228394	-70.401761	11.985375
61876		-1.853218	9.259570	11.205239	12.989804	-3.050212	-15.869022	-0.959817	3.872682	0.485230	-0.565674	0.279053	0.525879	-0.016589	0.093091	0.111940	0.178830	-0.785552	-0.159955	-0.570388	-160.958162	-72.429891	9.014742
61877		-4.617240	5.088103	8.422816	8.116641	-0.819021	-16.995424	-1.113967	3.764663	0.331752	-0.585693	0.276611	0.508301	-0.044665	0.051277	0.084794	0.178356	-0.775989	-0.152046	-0.585587	-158.492774	-74.377087	5.772402
61878		-4.842866	1.725942	6.863930	5.449033	1.470661	-16.268972	-0.832391	3.580048	0.057341	-0.599121	0.274414	0.481689	-0.047196	0.017534	0.069419	0.178036	-0.766140	-0.146198	-0.599966	-155.801979	-76.257365	2.505244
61879		-3.997800	0.430045	6.448010	4.922566	2.481819	-15.042156	-0.224872	3.426096	-0.398709	-0.610352	0.274170	0.461670	-0.038857	0.004452	0.065147	0.178438	-0.755723	-0.143946	-0.613451	-153.122857	-78.116635	-0.378196
61880		-2.476683	2.487612	6.405647	6.250512	0.653863	-13.534608	0.209686	3.359665	-0.883215	-0.621338	0.263184	0.435547	-0.023576	0.024915	0.064485	0.179013	-0.744446	-0.144953	-0.626693	-150.573633	-80.055051	-2.838861
61881		-0.646821	4.844420	6.554529	7.832359	-1.378639	-11.708829	0.210886	3.399126	-1.255586	-0.639160	0.258545	0.411377	-0.005049	0.048410	0.065690	0.178281	-0.732643	-0.147188	-0.640145	-148.082085	-82.086659	-5.242375
61882		0.991608	5.725205	6.642724	8.560131	-2.144811	-9.859433	-0.122388	3.529016	-1.535712	-0.654297	0.242676	0.391846	0.011525	0.057208	0.066198	0.175578	-0.720154	-0.149286	-0.654419	-144.903232	-84.260937	-8.502354
61883		2.141404	4.872934	6.535952	8.163615	-1.481247	-8.329076	-0.523913	3.715045	-1.778148	-0.671631	0.227051	0.370117	0.023054	0.048699	0.064814	0.170594	-0.707048	-0.150648	-0.669542	-138.860688	-86.557388	-14.868292
61884		3.222482	3.324210	6.322706	7.250215	-0.256221	-6.851292	-0.769179	3.926601	-2.021074	-0.680176	0.213623	0.343994	0.033791	0.033147	0.062446	0.164081	-0.692831	-0.151848	-0.685569	-107.783965	-88.847333	-46.397626
61885		3.980288	1.855392	6.120283	6.281863	0.915111	-5.758842	-0.809003	4.149818	-2.263001	-0.697266	0.189209	0.316162	0.041268	0.018338	0.060282	0.156612	-0.677428	-0.153432	-0.702156	5.338254	-87.979670	-160.006142
61886		4.940839	1.322273	6.094320	5.779360	1.336900	-4.511696	-0.742467	4.379086	-2.460631	-0.710205	0.166748	0.288086	0.050885	0.012826	0.059792	0.148824	-0.660499	-0.155690	-0.719273	19.109427	-85.203876	-174.218215
61887		5.831634	1.434599	6.297915	5.644615	1.286624	-3.316818	-0.684574	4.617555	-2.556563	-0.722900	0.146729	0.255615	0.059927	0.013799	0.061560	0.140900	-0.642257	-0.158144	-0.736643	22.590057	-82.219433	-178.117357
61888		6.734508	1.561118	6.496191	5.379344	1.226098	-2.097185	-0.689496	4.876155	-2.559209	-0.733398	0.126709	0.216309	0.069095	0.014954	0.063239	0.133081	-0.622489	-0.160317	-0.754384	23.696975	-79.070753	-179.638496
61889		7.414066	1.599187	6.674700	4.976812	1.233640	-1.108644	-0.726026	5.128810	-2.483415	-0.737061	0.102295	0.179443	0.076011	0.015293	0.064757	0.125502	-0.601462	-0.161792	-0.772215	23.811350	-75.818959	179.814099
61890		7.908642	1.448427	7.021101	4.587791	1.468885	-0.288833	-0.739877	5.350276	-2.353734	-0.749756	0.080078	0.142578	0.081091	0.013792	0.068008	0.118487	-0.579079	-0.162570	-0.790063	23.402163	-72.466736	179.798874
61891		8.561291	1.055802	7.294274	3.906918	1.883316	0.616592	-0.689737	5.533047	-2.213427	-0.744629	0.060303	0.094482	0.087698	0.009841	0.070501	0.112185	-0.555656	-0.162866	-0.807549	22.783205	-69.064183	-179.968654
61892		9.179584	1.179770	7.834812	3.549459	1.914154	1.621250	-0.572604	5.672479	-2.092030	-0.748535	0.042725	0.063965	0.094086	0.011041	0.075669	0.106688	-0.531099	-0.163079	-0.824595	22.130184	-65.599488	-179.621809
61893		10.228653	1.927590	8.548669	3.245174	1.419445	3.180351	-0.450017	5.771901	-1.977294	-0.741211	0.025146	0.024658	0.104880	0.018435	0.082442	0.101994	-0.505769	-0.163281	-0.840912	21.506669	-62.119291	-179.219269
61894		11.428501	2.829731	9.253306	2.719525	0.758994	4.891033	-0.377986	5.828151	-1.928873	-0.731689	0.011963	-0.016846	0.117182	0.027347	0.089094	0.097614	-0.479627	-0.163488	-0.856564	20.969596	-58.603152	-178.856179
61895		13.242378	4.110476	10.129282	1.910175	-0.214930	7.248094	-0.386165	5.851605	-1.937225	-0.731445	0.000977	-0.052002	0.135700	0.039991	0.097276	0.093128	-0.453033	-0.163507	-0.871409	20.515090	-55.085671	-178.582632
61896		15.938770	4.856795	11.003255	0.116509	-0.729518	10.137999	-0.451335	5.871311	-2.023622	-0.726563	-0.007813	-0.089355	0.163005	0.047172	0.105175	0.088022	-0.425770	-0.163278	-0.885614	20.142385	-51.525073	-178.446267
61897		19.553249	5.384704	11.300571	-3.101464	-1.280005	13.156652	-0.550912	5.907884	-2.185417	-0.723877	-0.020996	-0.126709	0.199328	0.051983	0.107009	0.081955	-0.397949	-0.162771	-0.899125	19.844944	-47.927025	-178.475577
61898		24.038602	5.503639	11.079132	-7.791989	-1.637234	16.018300	-0.644375	6.006407	-2.379484	-0.729980	-0.038818	-0.161377	0.244199	0.052487	0.103323	0.074803	-0.369049	-0.162027	-0.912115	19.597836	-44.224425	-178.651413
61899		28.618896	4.816440	10.217287	-13.567141	-1.412768	17.759326	-0.686887	6.155210	-2.586619	-0.738281	-0.058594	-0.209473	0.289742	0.044762	0.093133	0.066690	-0.339028	-0.161236	-0.924454	19.399934	-40.416358	-178.948099
61900		32.984940	2.977627	8.210752	-20.397642	-0.387211	17.529932	-0.605896	6.272534	-2.800953	-0.728516	-0.080566	-0.257568	0.332581	0.025358	0.071623	0.057721	-0.307770	-0.160961	-0.935969	19.304894	-36.491874	-179.360520
61901		37.020688	-0.814558	4.873750	-28.066103	2.203916	14.719441	-0.365922	6.297721	-3.025039	-0.720703	-0.118164	-0.313965	0.371318	-0.013682	0.037077	0.048045	-0.275880	-0.161949	-0.946232	19.393239	-32.524098	-179.893538
61902		38.745640	-5.868010	-1.621766	-35.123999	5.132950	6.849236	0.298921	6.199092	-3.252753	-0.701660	-0.144287	-0.375000	0.385682	-0.064927	-0.028286	0.037889	-0.243717	-0.166245	-0.954740	19.899468	-28.553007	179.433506
61903		36.874877	-5.417726	-8.521465	-37.344526	2.674714	-2.105652	1.162845	5.949326	-3.161928	-0.680420	-0.175049	-0.422607	0.365079	-0.059430	-0.096448	0.029148	-0.212426	-0.174385	-0.961049	20.819053	-24.737979	178.860467
61904		34.096881	-0.657475	-15.290680	-37.142756	-4.107695	-9.803662	1.369021	5.395300	-2.465723	-0.647949	-0.203369	-0.466064	0.336572	-0.009654	-0.162086	0.023265	-0.184126	-0.182713	-0.965491	21.691611	-21.348828	178.624315
61905		30.060637	-0.820030	-22.916946	-35.781698	-7.051371	-19.772922	0.888703	4.477247	-1.041106	-0.625000	-0.216309	-0.498779	0.295332	-0.008709	-0.235859	0.023153	-0.161503	-0.187352	-0.968648	22.050057	-18.757015	179.052246
61906		28.809038	-11.058308	-29.033999	-37.000706	-0.405907	-30.448883	0.938238	3.028386	0.476461	-0.618652	-0.211914	-0.512207	0.283905	-0.108526	-0.295172	0.028972	-0.147236	-0.191125	-0.970027	22.293222	-17.260740	179.995529
61907		32.990265	-15.787302	-32.148254	-42.032092	1.783102	-34.329711	1.924386	1.401209	1.312780	-0.616211	-0.216309	-0.507568	0.328646	-0.152595	-0.325273	0.038104	-0.141497	-0.199235	-0.968934	23.084206	-16.821198	-178.954936
61908		34.816213	-9.693552	-29.390485	-42.229402	-4.036288	-29.052235	2.552733	-0.147788	1.738091	-0.620850	-0.209717	-0.494629	0.349183	-0.090145	-0.294827	0.048168	-0.143544	-0.210345	-0.965831	24.274402	-17.310029	-178.039801
61909		21.341663	8.470977	-14.859535	-22.795449	-14.823262	-12.748277	1.811801	-1.304914	1.767980	-0.632324	-0.200928	-0.470459	0.213609	0.087931	-0.146415	0.056639	-0.151349	-0.218083	-0.962458	25.112651	-18.423531	-177.401586
61910		-8.375060	27.474221	18.862574	18.341268	-16.193055	14.311200	-1.160306	-3.712456	2.479542	-0.660400	-0.168213	-0.440674	-0.090618	0.274729	0.185392	0.063624	-0.172333	-0.211593	-0.959938	24.302001	-20.964135	-176.978537
61911		-11.692695	9.408346	33.874218	23.524002	6.317463	18.102636	-2.255544	-2.556689	2.850519	-0.666016	-0.141602	-0.412842	-0.122596	0.096164	0.336122	0.072650	-0.188389	-0.199038	-0.958966	22.636585	-22.969319	-175.992617
61912		0.366525	3.817527	16.528818	6.209898	3.230253	5.643421	-0.605555	-2.806059	0.727996	-0.682129	-0.128662	-0.393311	0.001207	0.038683	0.165200	0.072767	-0.202877	-0.196426	-0.956537	22.389315	-24.626751	-176.246652
61913		-3.426578	1.308418	-0.319090	3.254464	-1.116178	-11.122691	-1.584511	-3.154035	1.660901	-0.696533	-0.102295	-0.356445	-0.034316	0.012771	-0.003834	0.076001	-0.220225	-0.188239	-0.954092	21.376692	-26.669376	-176.014254
61914		13.316614	-10.248899	5.722268	-11.758894	10.801987	-2.059874	-1.120825	-4.646327	2.237803	-0.712891	-0.080322	-0.312988	0.132913	-0.100666	0.060880	0.081055	-0.244943	-0.182103	-0.948826	20.601093	-29.626099	-175.737862
61915		27.602736	-5.485796	18.923761	-16.442217	10.494342	17.926730	-0.395043	-3.817389	2.013816	-0.718262	-0.055908	-0.282715	0.272879	-0.051719	0.194571	0.086638	-0.265082	-0.179232	-0.943452	20.179569	-32.089311	-175.365398
61916		26.946843	2.432284	16.037048	-14.200513	1.890304	18.185994	-0.439341	-2.216639	2.262176	-0.707764	-0.033691	-0.259277	0.267369	0.027712	0.163283	0.094742	-0.277833	-0.175062	-0.939780	19.412332	-33.736506	-174.424450
61917		22.690686	13.493647	9.455144	-10.173646	-10.823786	13.970786	-0.888210	-1.355824	1.794374	-0.701660	-0.020264	-0.255371	0.225036	0.137384	0.095475	0.100754	-0.286268	-0.168990	-0.937732	18.407643	-34.815647	-173.551423
61918		16.425962	6.762675	7.238662	-7.721463	-5.158886	6.971257	-1.369845	-0.813352	1.122605	-0.692871	-0.013672	-0.246582	0.163580	0.069043	0.072583	0.103379	-0.291827	-0.161330	-0.937082	17.287847	-35.470750	-172.976170
61919		9.045509	-8.627361	12.003351	-3.557186	11.380068	2.763799	-1.057050	-0.702359	0.858853	-0.679932	0.001953	-0.233887	0.090399	-0.085248	0.120803	0.105300	-0.296441	-0.155447	-0.936414	16.422501	-36.009567	-172.538528
61920		8.918944	-3.110682	8.660007	-3.490930	4.982925	1.465717	-0.496943	-0.467051	0.592954	-0.668457	-0.002197	-0.244873	0.089078	-0.030627	0.086885	0.106990	-0.299472	-0.152450	-0.935750	15.948345	-36.376085	-172.224899
61921		8.447835	3.403370	7.396480	-1.814800	-1.525859	1.677943	-0.389125	-0.346653	0.360482	-0.657471	0.002441	-0.238281	0.084288	0.034330	0.074044	0.107839	-0.301668	-0.150240	-0.935305	15.613345	-36.634367	-172.043376
61922		5.460431	0.786603	10.195135	1.327912	2.174682	1.495854	-0.224546	-0.153323	0.235996	-0.648682	0.006836	-0.240723	0.054517	0.008045	0.101984	0.108504	-0.302809	-0.148878	-0.935077	15.399386	-36.770172	-171.908117
61923		6.370765	3.316175	8.053906	0.232534	-1.043197	0.925407	-0.093825	-0.178567	0.148492	-0.639404	0.000488	-0.249268	0.063611	0.033247	0.080580	0.108933	-0.303898	-0.148277	-0.934769	15.299460	-36.902325	-171.837882
61924		7.031273	3.856118	7.439898	-0.439800	-1.845650	0.960457	-0.100208	-0.047484	0.129630	-0.628174	0.002686	-0.262695	0.070270	0.038644	0.074396	0.109366	-0.304395	-0.147599	-0.934664	15.187752	-36.962985	-171.755061
61925		6.576786	3.921623	7.518930	-0.008040	-1.847320	0.758729	-0.152264	0.035182	0.177899	-0.625977	0.002930	-0.264893	0.065746	0.039332	0.075148	0.110001	-0.304538	-0.146563	-0.934706	15.017439	-36.981046	-171.623687
61926		6.521980	2.370565	7.680197	-0.326514	-0.367830	0.526521	-0.211544	0.050142	0.246954	-0.621582	0.005127	-0.271484	0.065210	0.023867	0.076760	0.110885	-0.304725	-0.145134	-0.934764	14.782023	-37.004559	-171.441071
61927		7.008563	0.771888	8.041976	-0.980554	1.156923	0.774527	-0.184848	0.034755	0.231848	-0.625977	0.000732	-0.278076	0.070091	0.007874	0.080400	0.111722	-0.304926	-0.143864	-0.934795	14.570312	-37.029906	-171.272083
61928		6.919422	0.752878	8.448163	-0.685877	1.299197	1.034355	-0.087012	-0.047819	0.151417	-0.621338	0.000732	-0.278076	0.069168	0.007618	0.084495	0.112279	-0.305432	-0.143216	-0.934663	14.456434	-37.093083	-171.173142
61929		6.192045	1.407586	8.401586	0.072050	0.752655	0.691486	-0.002565	-0.123099	0.084846	-0.621338	-0.003662	-0.282471	0.061863	0.014103	0.084054	0.112593	-0.306162	-0.143109	-0.934402	14.427494	-37.184458	-171.134366
61930		5.413742	1.564117	8.871746	1.004639	0.862981	0.613667	0.052265	-0.180912	0.048144	-0.621094	-0.005859	-0.293457	0.054053	0.015631	0.088770	0.112784	-0.307137	-0.143344	-0.934023	14.450836	-37.306611	-171.130923
61931		5.584651	1.921929	8.655141	0.883080	0.445843	0.618753	0.102060	-0.249619	0.024439	-0.627686	-0.010498	-0.293213	0.055736	0.019182	0.086631	0.112885	-0.308355	-0.143889	-0.933525	14.521147	-37.459539	-171.157103
61932		5.982481	2.066958	8.140125	0.361422	0.103066	0.491812	0.118209	-0.259148	0.020997	-0.634521	-0.008301	-0.293213	0.059717	0.020628	0.081491	0.112994	-0.309637	-0.144516	-0.932991	14.602613	-37.621038	-171.187161
61933		6.228204	1.620018	7.987777	-0.021991	0.456649	0.434774	0.147323	-0.276988	-0.010556	-0.645752	-0.010742	-0.293213	0.062172	0.016138	0.079976	0.112982	-0.310930	-0.145342	-0.932434	14.717463	-37.783998	-171.243574
61934		6.530175	1.577131	7.582393	-0.465993	0.343945	0.301049	0.174946	-0.283115	-0.029877	-0.638916	-0.010498	-0.293213	0.065197	0.015695	0.075930	0.112924	-0.312253	-0.146325	-0.931845	14.856756	-37.951193	-171.314691
61935		5.844839	1.994571	7.930629	0.409729	0.180529	0.228964	0.190188	-0.268160	-0.044364	-0.647949	-0.015137	-0.288574	0.058346	0.019857	0.079403	0.112827	-0.313455	-0.147398	-0.931284	15.010798	-38.104058	-171.394446
61936		5.610269	2.460726	8.034667	0.814912	-0.165078	0.256808	0.182348	-0.273719	-0.040452	-0.654785	-0.010742	-0.284424	0.055998	0.024523	0.080446	0.112737	-0.314719	-0.148425	-0.930705	15.158981	-38.264157	-171.472609
61937		5.388363	2.554129	7.874421	0.949890	-0.259563	0.015578	0.155686	-0.238789	-0.017019	-0.659180	-0.010742	-0.286621	0.053792	0.025475	0.078828	0.112735	-0.315822	-0.149277	-0.930195	15.278953	-38.404583	-171.528765
61938		5.850094	2.622263	7.750109	0.567495	-0.400544	0.221330	0.142975	-0.254639	0.006418	-0.656738	-0.017578	-0.284180	0.058401	0.026169	0.077594	0.112814	-0.317053	-0.150036	-0.929645	15.382806	-38.560861	-171.571356
61939		5.508933	2.659563	7.665668	0.819805	-0.408658	-0.048214	0.127434	-0.242945	0.019123	-0.656738	-0.015381	-0.277588	0.054994	0.026552	0.076740	0.112932	-0.318217	-0.150701	-0.929125	15.471927	-38.708930	-171.603657
61940		5.801511	2.510413	7.959578	0.736534	-0.184264	0.323292	0.121378	-0.242057	0.020599	-0.658936	-0.017578	-0.279785	0.057916	0.025062	0.079681	0.113052	-0.319409	-0.151330	-0.928599	15.556328	-38.860240	-171.634564
61941		5.609444	2.163476	7.994379	0.820969	0.186353	0.154650	0.102107	-0.224808	0.027563	-0.663574	-0.015381	-0.268799	0.056002	0.021602	0.080018	0.113181	-0.320509	-0.151853	-0.928119	15.625474	-38.999526	-171.657964
61942		5.664334	1.868055	7.884846	0.649243	0.427962	0.043295	0.094328	-0.215915	0.032123	-0.656738	-0.015381	-0.266357	0.056555	0.018652	0.078918	0.113331	-0.321602	-0.152323	-0.927645	15.686452	-39.138032	-171.676085
61943		6.138052	2.114815	7.510064	0.173017	0.024041	0.112967	0.088670	-0.218127	0.033752	-0.663574	-0.013184	-0.264404	0.061295	0.021125	0.075177	0.113472	-0.322681	-0.152769	-0.927180	15.744662	-39.274554	-171.694224
61944		5.910558	2.777977	7.369575	0.495501	-0.606452	0.003073	0.059727	-0.199476	0.052819	-0.661621	-0.008789	-0.257813	0.059025	0.027773	0.073763	0.113674	-0.323732	-0.153035	-0.926745	15.774657	-39.407121	-171.694668
61945		5.377969	3.255085	7.526252	1.161108	-0.928675	-0.119806	0.020585	-0.191487	0.094556	-0.656982	-0.008789	-0.260010	0.053692	0.032568	0.075317	0.114007	-0.324772	-0.153052	-0.926337	15.763044	-39.538408	-171.664234
61946		5.300331	3.362435	7.686853	1.368603	-0.964534	-0.030881	-0.041375	-0.166043	0.171479	-0.655029	-0.001953	-0.262451	0.052911	0.033686	0.076906	0.114620	-0.325815	-0.152639	-0.925963	15.676724	-39.670862	-171.572924
61947		5.285130	3.018799	7.800805	1.361572	-0.614664	-0.031759	-0.101524	-0.134349	0.222022	-0.655029	0.000244	-0.260254	0.052765	0.030286	0.078028	0.115388	-0.326757	-0.151850	-0.925666	15.528874	-39.790192	-171.438969
61948		5.826689	2.630176	7.868179	0.891056	-0.310161	0.281178	-0.134287	-0.118763	0.248841	-0.646240	0.000244	-0.255859	0.058187	0.026427	0.078699	0.116243	-0.327690	-0.150854	-0.925392	15.346733	-39.907834	-171.281504
61949		5.552063	2.674059	8.412902	1.448113	-0.146327	0.513706	-0.134771	-0.110450	0.256301	-0.648438	0.004883	-0.264893	0.055440	0.026868	0.084142	0.117132	-0.328565	-0.149840	-0.925134	15.159617	-40.018490	-171.116724
61950		5.551762	2.320079	8.460926	1.390101	0.178353	0.474578	-0.124300	-0.141935	0.269937	-0.646240	0.002686	-0.264893	0.055426	0.023328	0.084634	0.118083	-0.329612	-0.148868	-0.924798	14.974851	-40.151170	-170.947022
61951		5.402997	2.515419	8.960893	1.882435	0.172126	0.781840	-0.118018	-0.211511	0.293644	-0.637695	0.013672	-0.260742	0.053898	0.025286	0.089651	0.119097	-0.330970	-0.147929	-0.924333	14.790788	-40.322465	-170.773039
61952		6.739964	1.448585	8.274882	0.184009	0.739511	0.930601	-0.113231	-0.348124	0.296659	-0.644531	0.015869	-0.267578	0.067234	0.014633	0.082858	0.120035	-0.332979	-0.147086	-0.923624	14.623195	-40.572284	-170.621316
61953		6.711542	1.634848	8.300021	0.335972	0.567692	0.965643	-0.082041	-0.505824	0.277641	-0.639893	0.013672	-0.265381	0.066882	0.016476	0.083163	0.120816	-0.335659	-0.146514	-0.922643	14.501073	-40.903739	-170.512435
61954		6.588619	1.400391	8.752773	0.690130	0.957613	1.168579	-0.071160	-0.681837	0.236406	-0.644531	0.015869	-0.265381	0.065571	0.014113	0.087747	0.121299	-0.339133	-0.146163	-0.921364	14.425074	-41.329529	-170.465505
61955		5.726216	2.025695	9.273690	1.929654	0.675346	1.082899	-0.047486	-0.896822	0.220822	-0.644531	0.020264	-0.258789	0.056823	0.020342	0.092988	0.121587	-0.343543	-0.146078	-0.919704	14.397280	-41.869639	-170.470738
61956		5.087305	2.161266	9.985386	2.982721	0.897242	1.167137	-0.013013	-1.148871	0.195930	-0.651367	0.022461	-0.252197	0.050277	0.021669	0.100142	0.121636	-0.349083	-0.146340	-0.917567	14.433778	-42.548619	-170.542773
61957		5.051234	2.043310	10.076868	3.170559	1.071572	1.143144	-0.029249	-1.475400	0.189691	-0.662598	0.024414	-0.243408	0.049748	0.020495	0.101135	0.121380	-0.356091	-0.146734	-0.914842	14.510427	-43.405250	-170.685745
61958		5.396834	1.832290	9.710737	2.808478	1.136561	1.031600	0.004364	-1.852004	0.181919	-0.665039	0.024414	-0.236816	0.053049	0.018369	0.097602	0.120866	-0.364786	-0.147509	-0.911353	14.667079	-44.471551	-170.914389
61959		5.083501	1.908727	10.173210	3.564357	1.320185	1.074289	0.028723	-2.256782	0.180372	-0.671631	0.024414	-0.225830	0.049666	0.019118	0.102300	0.120074	-0.375252	-0.148630	-0.907015	14.909171	-45.759103	-171.238554
61960		5.129617	3.195712	10.383676	4.361562	0.264550	1.378569	0.060527	-2.733063	0.296588	-0.685303	0.026367	-0.201416	0.049823	0.032000	0.104534	0.119499	-0.387900	-0.149935	-0.901539	15.193479	-47.328213	-171.588732
61961		4.627852	3.576289	10.400300	5.158706	0.040227	0.945866	0.047531	-3.279133	0.515706	-0.696289	0.026123	-0.179199	0.044473	0.035854	0.104751	0.119446	-0.403075	-0.151052	-0.894677	15.452494	-49.229288	-171.904662
61962		5.638692	3.794254	10.464194	5.018405	-0.152251	1.609356	0.050197	-3.885479	0.737193	-0.714600	0.030273	-0.146240	0.054200	0.038119	0.105719	0.119893	-0.421002	-0.152041	-0.886153	15.705509	-51.499400	-172.201679
61963		4.865993	3.387918	11.415864	6.505348	0.729717	1.259654	0.099880	-4.481751	1.014632	-0.719727	0.047852	-0.115723	0.045913	0.034059	0.115225	0.121163	-0.441546	-0.152958	-0.875763	15.942963	-54.139449	-172.432908
61964		5.022669	3.253090	12.654696	7.829823	1.407324	1.703366	0.180679	-5.088103	1.271380	-0.726318	0.045410	-0.071289	0.046778	0.032721	0.127796	0.123199	-0.464626	-0.153931	-0.863279	16.196489	-57.154042	-172.619951
61965		4.011409	3.393093	11.928027	8.459070	1.175827	0.030741	0.151906	-5.770281	1.601193	-0.735840	0.062988	-0.031982	0.036378	0.034141	0.120392	0.125967	-0.490545	-0.154316	-0.848342	16.353730	-60.595779	-172.706637
61966		4.978728	1.554507	12.508139	8.410693	3.135848	0.336942	0.204426	-6.546943	1.930307	-0.738525	0.080566	0.031738	0.045506	0.015869	0.126634	0.129529	-0.519467	-0.154440	-0.830376	16.460990	-64.517201	-172.700598
61967		6.208080	0.875405	12.805865	8.623688	3.940492	0.831688	0.364076	-7.486229	2.189969	-0.748047	0.091309	0.091064	0.057132	0.009162	0.130276	0.133684	-0.551682	-0.154957	-0.808557	16.714477	-68.997196	-172.753715
61968		9.403735	3.596692	12.262231	9.057458	1.248182	3.147501	0.205999	-8.543053	2.549996	-0.730713	0.115967	0.161133	0.088220	0.036988	0.126512	0.137803	-0.587568	-0.154267	-0.782288	16.868941	-74.115015	-172.797057
61969		16.272314	4.486260	15.834660	12.148168	1.900261	9.785191	0.494886	-8.950084	2.469701	-0.718018	0.135742	0.233643	0.154855	0.046404	0.165509	0.141856	-0.623570	-0.154910	-0.753021	17.923937	-79.442673	-173.592611
61970		19.249490	12.296511	13.641727	14.683421	-5.820339	11.586310	0.766999	-8.523049	2.613444	-0.700439	0.151367	0.302002	0.184816	0.124869	0.144881	0.147332	-0.656564	-0.155495	-0.723214	19.360820	-84.557085	-174.603381
61971		25.164878	10.434408	12.677490	14.529895	-4.265275	16.130387	0.630606	-7.758444	2.916347	-0.674561	0.180420	0.358643	0.244920	0.107528	0.136700	0.153775	-0.685919	-0.153746	-0.694428	12.363221	-89.310557	-167.244129
61972		23.217745	9.196698	11.402074	14.835323	-3.458320	13.018040	0.657619	-7.007677	2.891181	-0.648438	0.205078	0.402100	0.226630	0.094877	0.122336	0.160511	-0.711521	-0.151339	-0.667136	-155.579124	-86.326997	1.070584
61973		19.719026	5.774229	12.880370	15.953133	0.452773	8.440018	1.163234	-6.038300	2.714079	-0.624512	0.229736	0.436768	0.192376	0.059602	0.135004	0.169026	-0.732446	-0.150289	-0.642158	-155.198839	-82.522968	1.354151
61974		9.581050	7.356978	10.621564	14.151589	-1.798736	-2.385965	1.681542	-5.169062	2.805621	-0.596436	0.260986	0.471191	0.091977	0.073968	0.109247	0.180177	-0.749425	-0.149671	-0.619271	-153.259285	-79.151760	0.358470
61975		-0.342501	8.096962	10.678570	12.820894	-2.236357	-13.018487	1.643571	-5.102033	3.047177	-0.563477	0.281494	0.494873	-0.007382	0.079997	0.107291	0.191847	-0.765729	-0.147834	-0.595817	-151.469357	-75.741131	-0.514024
61976		23.177882	8.752851	15.058571	23.030192	-0.603528	7.784138	1.648597	-4.262802	2.771072	-0.546631	0.312744	0.509277	0.227259	0.089426	0.156194	0.203152	-0.778650	-0.146145	-0.575391	-149.868030	-72.830580	-1.201865
61977		23.466041	11.974067	19.991541	29.299080	-0.855562	5.500793	1.368588	-0.994256	1.376532	-0.546875	0.321533	0.506836	0.232835	0.119970	0.201896	0.211682	-0.781143	-0.145695	-0.569016	-147.894717	-71.924339	-2.453785
61978		13.006466	16.324427	17.121304	25.827784	-5.829230	-4.546094	0.640302	1.283966	0.367689	-0.556152	0.328125	0.497559	0.130863	0.162937	0.170897	0.216150	-0.777064	-0.144719	-0.573156	-145.730439	-72.424381	-4.342512
61979		5.139260	13.619042	14.787528	20.225808	-4.546045	-10.703854	-0.378775	2.641744	-0.154994	-0.565186	0.328125	0.479980	0.053443	0.136428	0.146920	0.216107	-0.769786	-0.141339	-0.583739	-143.312691	-73.698131	-7.100812
61980		-1.566307	8.829611	11.972742	13.810973	-1.703841	-15.299112	-0.914486	3.068670	-0.443933	-0.580566	0.319092	0.464600	-0.013631	0.088875	0.119541	0.213434	-0.761392	-0.137061	-0.596610	-140.661178	-75.242834	-10.394879
61981		-4.419486	5.218216	9.144524	9.185261	0.083897	-16.594854	-0.971159	3.041299	-0.723007	-0.598389	0.316650	0.447021	-0.042610	0.052783	0.091846	0.209618	-0.752825	-0.133623	-0.609474	-137.928707	-76.824195	-13.787825
61982		-4.412505	2.027921	7.555561	6.558165	2.059372	-15.592984	-0.613868	2.937924	-1.048390	-0.609375	0.307617	0.429443	-0.042902	0.020739	0.076129	0.206081	-0.743694	-0.132630	-0.621980	-134.960940	-78.461571	-17.180538
61983		-3.141839	1.069995	6.960024	6.012731	2.520407	-13.929466	0.000194	2.872693	-1.470539	-0.626953	0.298584	0.412109	-0.030335	0.010926	0.070041	0.203371	-0.733757	-0.135091	-0.634028	-131.703757	-80.194617	-20.498656
61984		-1.283188	3.206492	6.938097	7.373219	0.519149	-12.141968	0.403216	2.921069	-1.846553	-0.637939	0.285156	0.396973	-0.011520	0.032035	0.069620	0.201001	-0.722690	-0.140186	-0.646271	-127.492191	-82.080112	-24.518336
61985		0.877612	5.367353	7.116726	8.843620	-1.409209	-9.959774	0.324409	3.100341	-2.080917	-0.653076	0.269531	0.368652	0.010436	0.053455	0.071101	0.197572	-0.710832	-0.145582	-0.659158	-120.763258	-84.057782	-31.112548
61986		2.501764	5.862613	7.219742	9.275339	-1.884808	-8.035940	-0.082839	3.377192	-2.210162	-0.668213	0.256104	0.346924	0.026878	0.058366	0.071730	0.192441	-0.697994	-0.149817	-0.673295	-106.076122	-86.007508	-45.895707
61987		3.511897	4.271753	7.158613	8.414982	-0.596184	-6.549780	-0.505032	3.694622	-2.320364	-0.680908	0.231445	0.323486	0.036926	0.042476	0.070808	0.185575	-0.684210	-0.152592	-0.688574	-68.624693	-87.303900	-83.698177
61988		4.203001	2.087697	6.943411	7.043546	1.155275	-5.422196	-0.679189	3.992281	-2.467993	-0.693848	0.215820	0.292969	0.043659	0.020579	0.068503	0.177768	-0.668980	-0.154963	-0.704876	-18.814208	-86.553486	-133.957451
61989		4.874396	0.516171	6.847405	5.990648	2.438958	-4.421534	-0.615543	4.281214	-2.646754	-0.706299	0.189209	0.265137	0.050259	0.004712	0.067394	0.169630	-0.652251	-0.157758	-0.721739	3.707017	-84.285561	-156.902478
61990		5.465924	-0.044280	6.796830	5.358151	2.872006	-3.559473	-0.434247	4.544488	-2.801514	-0.714600	0.166992	0.239258	0.056173	-0.001077	0.066705	0.161644	-0.633731	-0.161420	-0.739053	13.120650	-81.458029	-166.635183
61991		5.977742	0.207390	6.769787	5.029548	2.610950	-2.778826	-0.290617	4.776838	-2.880572	-0.734131	0.144531	0.200195	0.061394	0.001294	0.066242	0.153862	-0.613824	-0.165515	-0.756406	17.792689	-78.388408	-171.551854
61992		6.366305	0.618193	6.801653	4.756015	2.243970	-2.099177	-0.250060	4.962470	-2.854820	-0.735596	0.122559	0.160889	0.065404	0.005340	0.066401	0.146320	-0.592594	-0.169433	-0.773767	20.282324	-75.159439	-174.258076
61993		6.816342	0.822419	7.066953	4.506224	2.158333	-1.322011	-0.283276	5.091817	-2.740728	-0.745850	0.097900	0.117432	0.070038	0.007371	0.068891	0.139123	-0.570617	-0.172626	-0.790722	21.553321	-71.884437	-175.756431
61994		7.470726	0.787411	7.518175	4.164923	2.351401	-0.323214	-0.321316	5.177342	-2.568990	-0.752197	0.080322	0.075928	0.076713	0.007016	0.073201	0.132423	-0.547874	-0.174992	-0.807265	22.101051	-68.576237	-176.538465
61995		8.334801	0.623508	8.056021	3.665226	2.678701	0.869694	-0.307213	5.242673	-2.403412	-0.744385	0.053711	0.041504	0.085489	0.005338	0.078329	0.126407	-0.524673	-0.176755	-0.823102	22.252996	-65.285855	-176.899253
61996		9.030501	0.872693	8.743629	3.395463	2.686308	2.018449	-0.238695	5.286007	-2.281354	-0.739746	0.045166	0.001953	0.092666	0.007781	0.084998	0.120975	-0.500789	-0.178318	-0.838319	22.240571	-61.980203	-177.043207
61997		10.147698	1.838702	9.601313	3.202835	2.092190	3.746569	-0.180198	5.300798	-2.178002	-0.736572	0.018555	-0.032715	0.104166	0.017347	0.093260	0.116069	-0.476622	-0.179700	-0.852683	22.147720	-58.707745	-177.059868
61998		11.733343	3.522410	10.699087	3.006892	0.912880	6.143596	-0.221352	5.290787	-2.129644	-0.722656	0.005615	-0.074219	0.120475	0.034068	0.103793	0.111133	-0.452034	-0.180659	-0.866416	22.003705	-55.432063	-177.045268
61999		14.178770	5.317244	11.942303	2.191236	-0.373965	9.341615	-0.417893	5.288965	-2.075371	-0.712891	-0.011963	-0.102539	0.145420	0.051920	0.115500	0.105930	-0.427389	-0.180490	-0.879512	21.725972	-52.187899	-177.002942
62000		17.700366	6.527128	12.925621	-0.049255	-1.338605	13.013608	-0.730684	5.316391	-2.071153	-0.710449	-0.018555	-0.139893	0.181017	0.063870	0.124244	0.099981	-0.402295	-0.178782	-0.892300	21.287711	-48.910669	-176.983973
62001		22.339036	6.984181	12.798877	-4.449208	-2.173322	16.396014	-1.077756	5.441802	-2.123222	-0.694336	-0.029297	-0.168457	0.227484	0.068107	0.121466	0.093164	-0.376575	-0.175409	-0.904845	20.686456	-45.574938	-177.011866
62002		26.978297	5.463397	12.143368	-10.211826	-1.418963	18.446090	-1.273435	5.664170	-2.276645	-0.689453	-0.042480	-0.198975	0.273674	0.052272	0.113381	0.085361	-0.349308	-0.171180	-0.917276	20.042387	-42.070680	-177.142221
62003		30.819677	1.734388	10.627419	-16.764411	1.192799	18.169044	-1.100385	5.884741	-2.619493	-0.695801	-0.055908	-0.234131	0.311340	0.013830	0.097061	0.076423	-0.320456	-0.168069	-0.929096	19.633773	-38.400768	-177.492135
62004		33.909109	-1.675534	8.473083	-23.010061	3.556265	16.300073	-0.588202	5.997402	-3.098924	-0.690430	-0.080078	-0.284180	0.341117	-0.021802	0.074580	0.066060	-0.289991	-0.167878	-0.939871	19.674152	-34.561336	-178.134481
62005		37.205501	-3.840343	3.504523	-30.374551	4.048824	11.906373	0.032880	5.980321	-3.503788	-0.682617	-0.111084	-0.327393	0.372132	-0.044928	0.023910	0.054633	-0.258861	-0.170999	-0.949087	20.149929	-30.666947	-178.989284
62006		36.575195	-1.366023	-3.597006	-33.921070	-0.367564	4.373195	0.615853	6.019712	-3.386189	-0.659424	-0.130615	-0.377686	0.364148	-0.019702	-0.047002	0.044459	-0.227062	-0.176512	-0.956718	20.831774	-26.754183	-179.684808
62007		34.163798	1.588975	-10.601542	-34.881932	-5.423012	-3.852386	0.632912	5.753572	-2.542216	-0.642822	-0.159180	-0.418701	0.338570	0.011929	-0.115744	0.038084	-0.197140	-0.181020	-0.962765	21.271965	-23.165475	-179.877853
62008		31.590803	-2.710866	-18.716450	-36.131414	-4.470885	-15.276469	0.445623	5.110056	-1.347791	-0.615479	-0.171875	-0.462646	0.310798	-0.028786	-0.195213	0.036555	-0.171204	-0.183439	-0.967317	21.389967	-20.159096	-179.517269
62009		32.323563	-14.496906	-27.013041	-40.533132	2.981958	-28.049082	1.029040	3.999993	-0.462681	-0.592529	-0.182861	-0.475586	0.317403	-0.144293	-0.277261	0.038871	-0.151304	-0.188004	-0.969665	21.769591	-17.941438	-178.886287
62010		35.592653	-18.906657	-33.430431	-45.373816	3.659820	-35.685987	2.500312	2.652727	-0.196964	-0.585449	-0.193848	-0.488525	0.351247	-0.185176	-0.341315	0.042264	-0.137813	-0.199699	-0.969196	23.052248	-16.500031	-178.393354
62011		22.078260	1.175437	-30.635441	-28.607005	-14.195986	-29.997729	2.235757	0.074565	-0.013084	-0.592041	-0.196045	-0.472900	0.220669	0.015164	-0.306280	0.043825	-0.137053	-0.210478	-0.966951	24.326239	-16.468933	-178.382982
62012		-2.119854	7.362831	-23.832120	-3.046856	-16.551399	-28.344301	-0.642758	-2.573037	1.994613	-0.608887	-0.169678	-0.442627	-0.018856	0.072665	-0.238808	0.050313	-0.151814	-0.206508	-0.965285	23.816423	-18.292514	-177.921805
62013		1.219792	12.273858	11.791670	4.591111	-6.459180	5.295145	-1.910523	-6.322503	3.897487	-0.643799	-0.128174	-0.395508	0.006080	0.124018	0.116993	0.061116	-0.186809	-0.195734	-0.960758	22.483189	-22.512292	-177.250985
62014		8.261959	2.848445	29.180607	3.482516	8.531376	19.217571	-1.210325	-4.823815	2.074627	-0.662354	-0.114990	-0.358154	0.075240	0.031063	0.293497	0.065213	-0.212409	-0.189367	-0.956436	21.760933	-25.531681	-177.186089
62015		18.546835	7.060168	12.976548	-9.945986	-2.214133	11.596198	-0.524791	-3.535705	0.684134	-0.667236	-0.104004	-0.329834	0.182894	0.071576	0.132827	0.064579	-0.230195	-0.187217	-0.952780	21.648545	-27.569878	-177.616427
62016		6.403942	-4.011908	3.747167	-4.864398	4.900374	-4.968671	-1.060484	-3.154918	1.313139	-0.674561	-0.086426	-0.299316	0.063696	-0.039497	0.038689	0.066663	-0.246857	-0.181617	-0.949544	21.014559	-29.539085	-177.567038
62017		9.768081	-9.016454	10.768120	-5.421412	12.015425	1.090331	-0.555708	-3.951099	2.051471	-0.679443	-0.075684	-0.264404	0.096441	-0.088868	0.109843	0.072121	-0.267693	-0.177681	-0.944229	20.515088	-32.083613	-177.221644
62018		26.061558	1.756871	19.319360	-11.815780	4.406957	20.126672	-0.222330	-3.242664	2.282758	-0.675781	-0.051025	-0.249756	0.257213	0.020735	0.197361	0.079716	-0.285160	-0.174673	-0.939052	20.001536	-34.291816	-176.523761
62019		30.930208	11.381024	14.114388	-15.179400	-7.109111	21.879615	-0.805485	-1.133459	2.064803	-0.660645	-0.035400	-0.243652	0.307297	0.117562	0.142421	0.087274	-0.292677	-0.168349	-0.937221	18.910636	-35.309274	-175.428180
62020		15.785848	6.731935	3.698216	-9.110824	-6.035063	3.926102	-1.228432	-0.074832	1.161883	-0.656494	-0.026611	-0.239502	0.157449	0.068461	0.036623	0.090868	-0.294648	-0.160883	-0.937573	17.762042	-35.573403	-174.668065
62021		8.635846	-0.298073	11.400012	-1.051239	3.591146	3.993902	-1.081740	-0.438331	0.868933	-0.649658	-0.024170	-0.248291	0.086118	-0.001989	0.114202	0.093001	-0.297978	-0.154691	-0.937353	16.848907	-35.972283	-174.173216
62022		7.267593	-6.080087	9.014323	-2.666473	8.162105	0.052000	-0.653831	-0.353979	0.644349	-0.641113	-0.017334	-0.246338	0.072711	-0.060271	0.090470	0.094787	-0.300557	-0.150795	-0.936985	16.253342	-36.286434	-173.805053
62023		10.740568	2.580569	6.532112	-4.391081	-1.159279	2.189876	-0.381118	-0.367850	0.420060	-0.634277	-0.017334	-0.253174	0.107231	0.026156	0.065469	0.095914	-0.302869	-0.148516	-0.936490	15.902505	-36.566592	-173.588796
62024		6.219232	1.670978	8.328398	-0.013448	0.657095	0.694505	-0.310516	-0.115595	0.274671	-0.629883	-0.014893	-0.259766	0.062121	0.016924	0.083294	0.096659	-0.303886	-0.146661	-0.936376	15.619768	-36.687944	-173.420574
62025		5.471095	2.226208	9.252584	1.253729	0.483757	1.081957	-0.130518	-0.069857	0.177458	-0.629883	-0.017090	-0.264160	0.054659	0.022371	0.092530	0.097250	-0.304499	-0.145779	-0.936254	15.474942	-36.764732	-173.310231
62026		6.525700	2.485887	9.156997	0.449789	0.097303	1.693971	-0.021027	-0.083600	0.090343	-0.625244	-0.021484	-0.272949	0.065207	0.024898	0.091595	0.097595	-0.305089	-0.145544	-0.936062	15.429372	-36.839368	-173.261857
62027		6.166533	2.134513	8.355026	0.218353	0.192622	0.784668	0.025188	-0.089952	0.047977	-0.625000	-0.028320	-0.279297	0.061623	0.021349	0.083581	0.097803	-0.305625	-0.145597	-0.935858	15.429226	-36.907334	-173.244329
62028		6.710547	2.733243	7.462169	-0.523526	-0.715798	0.550689	0.020012	-0.081887	0.037533	-0.627197	-0.026123	-0.281494	0.067070	0.027338	0.074652	0.097964	-0.306147	-0.145633	-0.935664	15.428734	-36.972824	-173.232006
62029		6.876606	2.571991	7.469907	-0.684078	-0.580416	0.622709	-0.042304	-0.054072	0.077515	-0.631592	-0.028320	-0.283691	0.068736	0.025762	0.074712	0.098232	-0.306570	-0.145308	-0.935549	15.373436	-37.025459	-173.187141
62030		7.498584	1.838372	7.325064	-1.444724	-0.007507	0.731393	-0.063623	-0.052504	0.095227	-0.631836	-0.023926	-0.288330	0.074958	0.018443	0.073264	0.098557	-0.307038	-0.144851	-0.935432	15.297598	-37.083434	-173.129166
62031		7.508159	1.025693	7.796871	-1.405747	0.904629	0.930739	-0.004488	-0.071368	0.053724	-0.636230	-0.026123	-0.292725	0.075051	0.010279	0.077995	0.098759	-0.307505	-0.144747	-0.935273	15.275702	-37.141963	-173.103867
62032		6.491937	1.209886	8.083125	-0.382054	0.927047	0.576758	0.075951	-0.116314	0.007299	-0.642822	-0.032715	-0.299072	0.064872	0.012071	0.080874	0.098841	-0.308139	-0.145109	-0.935000	15.323737	-37.221955	-173.118827
62033		5.780286	1.893082	8.307886	0.505385	0.440911	0.461873	0.122774	-0.170037	-0.032000	-0.644775	-0.035156	-0.290039	0.057735	0.018871	0.083140	0.098766	-0.308942	-0.145781	-0.934638	15.422182	-37.322003	-173.171932
62034		5.811376	2.169240	8.339868	0.592580	0.207333	0.562133	0.141122	-0.206458	-0.041835	-0.654053	-0.032959	-0.290283	0.058032	0.021621	0.083474	0.098653	-0.309927	-0.146566	-0.934201	15.538984	-37.444101	-173.238722
62035		5.696534	2.028019	8.118473	0.541696	0.296165	0.291359	0.151192	-0.213739	-0.050170	-0.651611	-0.035156	-0.290039	0.056884	0.020204	0.081261	0.098506	-0.310906	-0.147420	-0.933757	15.667156	-37.565296	-173.313627
62036		5.406591	2.378813	8.319660	0.997569	0.082654	0.341361	0.155489	-0.220003	-0.055584	-0.653809	-0.037354	-0.292236	0.053981	0.023708	0.083274	0.098340	-0.311936	-0.148300	-0.933291	15.800425	-37.692320	-173.393545
62037		5.552045	2.741595	8.022487	0.838662	-0.350054	0.280671	0.152613	-0.218267	-0.047106	-0.662842	-0.035400	-0.281250	0.055439	0.027342	0.080306	0.098205	-0.312936	-0.149157	-0.932834	15.929492	-37.816217	-173.468163
62038		5.687688	2.162078	8.109053	0.639659	0.230254	0.302592	0.154895	-0.210546	-0.053063	-0.671631	-0.042236	-0.281006	0.056797	0.021543	0.081167	0.098056	-0.313920	-0.150025	-0.932379	16.061129	-37.937936	-173.545447
62039		5.457861	2.069613	8.270624	0.902478	0.414190	0.261471	0.174456	-0.213736	-0.065707	-0.669434	-0.041992	-0.278809	0.054497	0.020606	0.082783	0.097872	-0.314874	-0.151011	-0.931918	16.211005	-38.056097	-173.633131
62040		5.751662	2.066335	7.923293	0.497318	0.295966	0.177053	0.178106	-0.228622	-0.078277	-0.671387	-0.044434	-0.274414	0.057434	0.020570	0.079317	0.097628	-0.315909	-0.152035	-0.931427	16.369988	-38.183200	-173.732780
62041		6.222966	2.263859	7.519588	-0.021346	-0.044295	0.206897	0.173656	-0.249335	-0.069264	-0.673584	-0.046631	-0.267578	0.062144	0.022552	0.075293	0.097399	-0.317025	-0.153039	-0.930907	16.526502	-38.319968	-173.831432
62042		5.808467	2.636979	7.806408	0.588996	-0.235780	0.248593	0.150102	-0.251665	-0.056804	-0.662842	-0.035400	-0.268066	0.057994	0.026295	0.078157	0.097192	-0.318195	-0.153910	-0.930386	16.664228	-38.462702	-173.922080
62043		5.237899	2.807159	8.083752	1.259409	-0.230031	0.138377	0.144095	-0.255981	-0.039068	-0.665039	-0.039795	-0.265625	0.052281	0.028003	0.080925	0.097051	-0.319377	-0.154731	-0.929859	16.792639	-38.607716	-174.002192
62044		5.524598	2.269957	7.890739	0.802647	0.198557	0.049053	0.115917	-0.271824	-0.008343	-0.662842	-0.037598	-0.265625	0.055140	0.022652	0.078996	0.096999	-0.320692	-0.155375	-0.929304	16.893347	-38.769052	-174.064265
62045		5.616112	2.656833	7.857572	0.847109	-0.165297	0.167089	0.117772	-0.265594	0.008159	-0.658447	-0.035400	-0.265869	0.056056	0.026524	0.078666	0.097027	-0.321967	-0.156002	-0.928755	16.988114	-38.926986	-174.114243
62046		5.547305	2.742268	7.868480	0.956814	-0.221311	0.149294	0.093560	-0.255404	0.018362	-0.660645	-0.035400	-0.256836	0.055370	0.027391	0.078768	0.097076	-0.323234	-0.156490	-0.928228	17.062818	-39.083474	-174.154891
62047		5.552150	2.926335	7.901636	1.048927	-0.369687	0.216703	0.080554	-0.236942	0.032995	-0.656006	-0.037598	-0.259033	0.055423	0.029241	0.079094	0.097181	-0.324412	-0.156890	-0.927738	17.121943	-39.229796	-174.181863
62048		5.635534	2.985671	7.725510	0.925482	-0.485100	0.150500	0.055585	-0.217715	0.057112	-0.660400	-0.039795	-0.261230	0.056263	0.029851	0.077325	0.097377	-0.325550	-0.157121	-0.927280	17.152917	-39.371941	-174.187466
62049		5.781957	2.911347	7.604925	0.746426	-0.465639	0.135571	0.027862	-0.196043	0.096163	-0.656250	-0.033203	-0.256836	0.057731	0.029131	0.076110	0.097721	-0.326613	-0.157153	-0.926864	17.148016	-39.506522	-174.161012
62050		6.507973	2.970173	7.393617	0.109498	-0.654077	0.453829	-0.013973	-0.185905	0.154278	-0.653809	-0.035156	-0.263428	0.064988	0.029757	0.073995	0.098278	-0.327712	-0.156889	-0.926462	17.090826	-39.647479	-174.090626
62051		6.338024	2.992651	7.277378	0.206182	-0.711671	0.263903	-0.070687	-0.189186	0.209476	-0.651855	-0.030762	-0.259277	0.063280	0.030019	0.072823	0.098992	-0.328879	-0.156275	-0.926077	16.976529	-39.797280	-173.981504
62052		6.146741	2.757310	7.890747	0.669400	-0.274041	0.537471	-0.098344	-0.193684	0.241096	-0.649658	-0.028564	-0.263672	0.061358	0.027686	0.078953	0.099806	-0.330121	-0.155481	-0.925681	16.831521	-39.956689	-173.849833
62053		6.017167	2.549226	8.037728	0.824942	-0.034684	0.513400	-0.103443	-0.202192	0.265407	-0.652100	-0.021973	-0.263916	0.060056	0.025614	0.080425	0.100714	-0.331406	-0.154629	-0.925266	16.673070	-40.122448	-173.701971
62054		6.026104	2.791945	7.915081	0.851057	-0.322125	0.479505	-0.086359	-0.230541	0.285271	-0.645508	-0.019531	-0.270752	0.060130	0.028039	0.079208	0.101723	-0.332843	-0.153835	-0.924772	16.517821	-40.308632	-173.544685
62055		5.689065	2.978396	8.340938	1.447523	-0.332294	0.608526	-0.060523	-0.270362	0.308376	-0.652344	-0.015137	-0.270996	0.056732	0.029897	0.083477	0.102847	-0.334452	-0.153143	-0.924181	16.371246	-40.518211	-173.378346
62056		5.819173	2.715409	8.527903	1.429234	-0.047750	0.766354	-0.110266	-0.388261	0.316238	-0.652344	-0.017578	-0.272949	0.057983	0.027293	0.085377	0.103837	-0.336650	-0.152267	-0.923417	16.207069	-40.795283	-173.229718
62057		5.290790	3.183598	8.802678	2.185565	-0.355305	0.709271	-0.114499	-0.500810	0.341503	-0.654541	-0.017578	-0.272949	0.052633	0.031976	0.088141	0.104847	-0.339371	-0.151388	-0.922451	16.042439	-41.136266	-173.084865
62058		5.615994	2.463502	8.753278	1.773646	0.256340	0.723726	-0.134785	-0.669461	0.352672	-0.659424	-0.006348	-0.271240	0.055823	0.024793	0.087703	0.105747	-0.342898	-0.150481	-0.921192	15.881816	-41.573078	-172.964887
62059		5.908994	1.863541	8.800599	1.499085	0.797584	0.815353	-0.117804	-0.892725	0.347346	-0.659424	-0.006348	-0.266846	0.058664	0.018789	0.088257	0.106479	-0.347421	-0.149778	-0.919526	15.762629	-42.130435	-172.893501
62060		5.959599	1.656206	8.924940	1.594835	1.032002	0.878635	-0.094285	-1.188275	0.317243	-0.668457	-0.004395	-0.260254	0.059038	0.016698	0.089593	0.106891	-0.353266	-0.149386	-0.917312	15.712119	-42.847262	-172.904886
62061		5.675041	0.794721	9.374672	1.970670	2.034924	0.803113	-0.046681	-1.547612	0.272109	-0.679443	-0.011230	-0.251221	0.056012	0.008046	0.094180	0.106904	-0.360672	-0.149478	-0.914409	15.765454	-43.754003	-173.027570
62062		5.168246	0.982989	9.810575	2.852948	2.088870	0.742773	-0.005232	-1.947124	0.228150	-0.693115	-0.004639	-0.238037	0.050713	0.009891	0.098602	0.106485	-0.369829	-0.150037	-0.910701	15.931492	-44.874874	-173.275760
62063		5.021910	1.878808	10.035059	3.602673	1.390859	0.889277	0.019028	-2.376807	0.231255	-0.695313	-0.002686	-0.218262	0.049000	0.018836	0.100940	0.105789	-0.380879	-0.150915	-0.906071	16.191517	-46.231175	-173.630381
62064		4.771501	2.988254	10.380366	4.619678	0.551979	1.040589	0.009198	-2.822383	0.336280	-0.710938	-0.009521	-0.200195	0.046194	0.029956	0.104464	0.105196	-0.393969	-0.151753	-0.900385	16.480777	-47.848746	-174.024598
62065		5.471381	3.137493	10.218623	4.426025	0.364371	1.343663	0.002807	-3.331595	0.552459	-0.722412	-0.003174	-0.169434	0.052915	0.031521	0.103078	0.105150	-0.409418	-0.152371	-0.893366	16.754442	-49.779412	-174.391441
62066		4.906528	3.476462	11.323039	6.071674	0.544115	1.465122	0.045879	-3.849255	0.706665	-0.733887	0.005615	-0.138672	0.046751	0.034906	0.114153	0.105452	-0.427135	-0.153082	-0.884874	17.087997	-52.018274	-174.793161
62067		4.349809	4.353376	11.805376	7.504250	0.004183	1.182593	0.115813	-4.413924	0.947933	-0.745117	0.007568	-0.101074	0.040672	0.043662	0.118997	0.106490	-0.447305	-0.153821	-0.874595	17.461041	-54.605491	-175.180563
62068		5.224932	3.911822	12.133693	7.639575	0.573041	1.637014	0.194762	-4.976879	1.248787	-0.758789	0.016113	-0.059326	0.048963	0.039312	0.122621	0.108524	-0.469857	-0.154436	-0.862326	17.838402	-57.550018	-175.506164
62069		4.644455	4.280582	11.922188	8.506400	0.264714	0.654013	0.259351	-5.629457	1.644141	-0.757324	0.035889	0.000000	0.042711	0.043011	0.120515	0.111829	-0.495137	-0.154642	-0.847596	18.150564	-60.919726	-175.701108
62070		5.723420	3.432331	11.351475	7.896793	0.887286	0.683984	0.257692	-6.533537	2.029197	-0.764648	0.053467	0.052490	0.053135	0.034728	0.115340	0.115945	-0.524027	-0.154231	-0.829557	18.430486	-64.848290	-175.854648
62071		5.825741	1.766919	12.638218	9.095410	3.008176	0.429909	0.327034	-7.522840	2.401771	-0.758301	0.069092	0.116211	0.053234	0.018120	0.128477	0.120868	-0.556557	-0.153497	-0.807511	18.780729	-69.383371	-176.035590
62072		8.035142	3.912630	12.062550	9.536058	0.870167	1.742664	0.316457	-8.744941	2.712077	-0.750244	0.093262	0.197510	0.074438	0.039968	0.124030	0.125833	-0.593224	-0.152306	-0.780419	19.496025	-74.634957	-176.602747
62073		15.967308	2.908162	16.291918	12.270498	3.514513	9.305391	0.476450	-9.439043	2.719192	-0.723877	0.111084	0.274414	0.151340	0.030778	0.170267	0.130507	-0.631172	-0.151816	-0.749361	21.778043	-80.257132	-178.662433
62074		18.885964	10.642343	14.254473	14.870589	-4.080296	11.039937	1.022578	-9.230991	2.774226	-0.702148	0.135742	0.346924	0.180508	0.108207	0.151557	0.136909	-0.666502	-0.152681	-0.716743	29.252039	-85.732182	174.396775
62075		26.673531	11.009782	15.906451	18.254953	-3.315455	17.402692	1.037588	-8.818551	3.077427	-0.667236	0.164795	0.405762	0.257638	0.113243	0.171143	0.144497	-0.699067	-0.151974	-0.683615	166.282281	-88.609005	37.921690
62076		25.425097	10.722939	13.376996	18.140242	-3.781996	14.609072	1.251279	-7.807629	3.150698	-0.634521	0.196289	0.455566	0.247035	0.110279	0.144193	0.153440	-0.726666	-0.150661	-0.652468	-165.419948	-83.980850	10.289629
62077		23.034725	8.829919	14.440311	19.885201	-1.366978	10.666801	1.741256	-6.779807	2.975343	-0.604004	0.220947	0.490234	0.223926	0.090356	0.152849	0.164236	-0.749225	-0.150588	-0.623708	-160.879040	-79.755932	6.709217
62078		17.815716	9.595401	13.580901	19.780394	-2.184082	4.246207	2.544932	-5.713941	2.801353	-0.571533	0.256836	0.522217	0.172808	0.096619	0.142024	0.177936	-0.766682	-0.152541	-0.597720	-157.836861	-76.121667	5.068021
62079		5.161288	13.004865	11.194503	16.787421	-6.201059	-8.966944	2.374348	-4.770330	2.922057	-0.543457	0.285889	0.536865	0.047006	0.129407	0.114642	0.192028	-0.780762	-0.152576	-0.574680	-154.898001	-72.935266	3.427012
62080		23.536726	14.475805	15.817563	27.199647	-4.695764	6.051074	1.587132	-3.792378	2.507350	-0.524170	0.310547	0.549316	0.230469	0.146383	0.163734	0.202344	-0.791864	-0.150880	-0.556096	-153.002553	-70.350042	2.370190
62081		27.657832	16.729605	23.429051	36.270970	-2.766850	6.634707	0.910361	0.397291	0.798435	-0.537842	0.319336	0.533447	0.276376	0.167333	0.234503	0.208443	-0.790488	-0.149815	-0.556091	-151.058695	-70.325552	0.855570
62082		9.816922	16.808775	17.831120	25.718627	-5.737407	-8.245083	0.096003	2.794911	-0.415608	-0.555664	0.316895	0.518066	0.100998	0.167795	0.176994	0.209660	-0.782239	-0.148777	-0.567460	-149.301037	-71.835106	-0.953668
62083		-0.436398	12.674633	14.532872	17.915809	-3.846308	-15.832222	-0.737525	3.721641	-0.809235	-0.575928	0.312256	0.493652	-0.001151	0.127290	0.144901	0.207188	-0.771769	-0.145891	-0.583234	-147.384434	-73.883077	-3.405450
62084		-5.813700	6.481692	11.087242	10.894322	-0.159572	-18.757162	-0.942391	3.696756	-1.013514	-0.593506	0.305420	0.476318	-0.055747	0.065628	0.111610	0.203208	-0.761067	-0.143201	-0.599147	-145.377350	-75.972902	-6.046758
62085		-7.691799	2.570607	8.478799	6.745520	2.007886	-19.199548	-0.688910	3.357014	-1.207122	-0.611572	0.303223	0.451904	-0.075323	0.026459	0.085971	0.199323	-0.750788	-0.142266	-0.613473	-143.379315	-77.928960	-8.506769
62086		-6.335748	-0.019701	7.487345	5.283393	3.761063	-17.170290	-0.046483	3.051326	-1.507468	-0.628906	0.287354	0.430176	-0.062204	0.000292	0.075828	0.196698	-0.740260	-0.144750	-0.626396	-141.448454	-79.845628	-10.496149
62087		-3.774611	1.559684	7.394302	6.579203	2.253193	-14.607158	0.551325	2.926608	-1.862558	-0.642090	0.276123	0.410645	-0.036512	0.015736	0.074527	0.194977	-0.729160	-0.150439	-0.638497	-139.663338	-81.808181	-11.988273
62088		-1.055540	4.473762	7.677879	8.688435	-0.218175	-11.941726	0.652942	3.018267	-2.110279	-0.657227	0.262695	0.384521	-0.008923	0.044586	0.077067	0.192890	-0.717136	-0.157270	-0.650980	-137.344006	-83.909004	-13.943428
62089		1.564484	5.993153	7.896460	9.900750	-1.476519	-9.104691	0.294380	3.284989	-2.255626	-0.672607	0.253662	0.355957	0.017613	0.059624	0.078774	0.189133	-0.704316	-0.163085	-0.664508	-132.370745	-86.144531	-18.769292
62090		3.312988	5.296854	7.941227	9.639486	-0.879803	-6.916870	-0.233275	3.651251	-2.358750	-0.685547	0.235840	0.327637	0.035194	0.052654	0.078721	0.183462	-0.690267	-0.167148	-0.679658	-108.682054	-88.423176	-42.606400
62091		4.445093	3.138698	7.579139	8.141683	0.785489	-5.325629	-0.577461	4.039404	-2.491439	-0.704834	0.208984	0.308838	0.046356	0.031034	0.074778	0.176311	-0.674866	-0.169999	-0.696110	-2.371354	-88.204176	-149.275760
62092		5.189200	1.240214	7.161528	6.612945	2.207232	-4.232813	-0.644359	4.409813	-2.660716	-0.708496	0.184570	0.274170	0.053614	0.011925	0.070407	0.168617	-0.657546	-0.172806	-0.713681	18.248926	-85.437620	-170.285302
62093		5.667627	0.246409	6.944734	5.620876	2.948427	-3.479609	-0.535882	4.733991	-2.821226	-0.723633	0.166748	0.243652	0.058327	0.001833	0.068074	0.160802	-0.638495	-0.176078	-0.731754	23.114758	-82.337003	-175.489970
62094		5.999332	0.318559	6.743124	5.074447	2.771484	-2.876349	-0.412015	4.984538	-2.916339	-0.736084	0.137939	0.200439	0.061688	0.002431	0.065902	0.153158	-0.617709	-0.179799	-0.750101	25.058613	-79.040774	-177.696565
62095		6.442120	0.789365	6.707524	4.758611	2.321025	-2.127611	-0.393328	5.170703	-2.901251	-0.744385	0.115723	0.167969	0.066233	0.007071	0.065364	0.145633	-0.595820	-0.183210	-0.768260	25.847237	-75.662214	-178.739544
62096		6.938133	0.960470	6.881644	4.390226	2.224984	-1.317618	-0.458478	5.288058	-2.778951	-0.750488	0.097900	0.126465	0.071294	0.008778	0.066927	0.138377	-0.572984	-0.185783	-0.786146	25.952839	-72.234793	-179.123348
62097		7.770389	0.720240	7.171547	3.753082	2.531474	-0.231239	-0.515841	5.368413	-2.610694	-0.756348	0.073486	0.085205	0.079677	0.006352	0.069577	0.131555	-0.549644	-0.187401	-0.803409	25.675524	-68.825516	-179.147083
62098		8.568883	0.620484	7.767109	3.325286	2.831265	0.912447	-0.506178	5.431554	-2.450366	-0.753418	0.053711	0.043701	0.087824	0.005330	0.075291	0.125370	-0.525567	-0.188426	-0.820096	25.210423	-65.405609	-178.957908
62099		9.466412	1.132498	8.423910	3.028139	2.588748	2.267919	-0.459768	5.485095	-2.305919	-0.752441	0.027100	0.002441	0.097049	0.010405	0.081574	0.119813	-0.501047	-0.189042	-0.835978	24.685572	-62.009870	-178.671061
62100		10.529189	1.908111	9.083926	2.597888	2.086200	3.820532	-0.430426	5.508247	-2.211411	-0.742920	0.011963	-0.041260	0.107943	0.018088	0.087851	0.114609	-0.475932	-0.189373	-0.851170	24.169807	-58.606148	-178.366902
62101		12.002423	3.609780	9.881794	2.219999	0.773268	5.971421	-0.490517	5.501640	-2.148396	-0.735840	-0.003418	-0.080566	0.123060	0.035023	0.095374	0.109455	-0.450648	-0.189126	-0.865544	23.651308	-55.236582	-178.088583
62102		14.419326	4.789325	10.768536	0.910655	-0.089430	8.785097	-0.635310	5.480425	-2.159310	-0.717285	-0.018799	-0.111084	0.147576	0.046645	0.103522	0.103780	-0.424999	-0.188131	-0.879325	23.132934	-51.857158	-177.902805
62103		17.724727	5.688662	11.561709	-1.448755	-0.802606	12.034842	-0.854684	5.472878	-2.259263	-0.705566	-0.029541	-0.150635	0.180948	0.055336	0.110460	0.097133	-0.399159	-0.186214	-0.892503	22.608088	-48.475900	-177.862524
62104		22.450139	5.319983	11.642184	-6.055016	-0.710223	15.296628	-1.057245	5.534477	-2.465235	-0.696289	-0.040527	-0.172363	0.228240	0.050994	0.109866	0.089100	-0.372453	-0.183610	-0.905333	22.104683	-44.999991	-178.009615
62105		27.616705	3.493296	10.881917	-12.357361	0.432897	17.392304	-1.041914	5.735869	-2.793258	-0.693115	-0.064697	-0.209229	0.279589	0.031582	0.100662	0.079740	-0.344290	-0.181407	-0.917713	21.745245	-41.364734	-178.362774
62106		31.844804	1.173216	9.151626	-18.974962	1.845469	17.304730	-0.765017	6.008732	-3.185453	-0.683838	-0.077881	-0.253174	0.321141	0.006956	0.081861	0.069187	-0.313904	-0.180844	-0.929501	21.650332	-37.486357	-178.910828
62107		35.006265	-1.062618	6.674553	-25.180648	3.137246	15.221011	-0.387935	6.194107	-3.530027	-0.673584	-0.110840	-0.294189	0.351647	-0.016709	0.055898	0.057738	-0.281959	-0.182286	-0.940179	21.826117	-33.451675	-179.603545
62108		36.801366	-5.135096	1.565727	-31.655565	5.354050	8.944324	0.120528	6.171144	-3.787168	-0.661621	-0.135010	-0.339844	0.367202	-0.058315	0.004283	0.045675	-0.249270	-0.186249	-0.949257	22.307098	-29.357467	179.596510
62109		35.166659	-5.244796	-4.675677	-34.094071	3.488149	0.720780	0.842417	5.993489	-3.697510	-0.640137	-0.170166	-0.380615	0.349004	-0.058690	-0.057482	0.034739	-0.217132	-0.193331	-0.956175	23.111520	-25.382801	178.888677
62110		32.807872	-0.398632	-10.669825	-34.119691	-3.119745	-5.799046	1.000662	5.500569	-2.969958	-0.623535	-0.196533	-0.426270	0.324877	-0.008263	-0.115698	0.026914	-0.187702	-0.200237	-0.961222	23.813226	-21.815925	178.553952
62111		30.105414	1.737138	-16.889526	-33.534864	-7.661750	-13.142468	0.361884	4.743583	-1.584273	-0.600830	-0.205078	-0.457031	0.297063	0.015322	-0.175944	0.024391	-0.163307	-0.202724	-0.965214	23.916481	-18.974206	178.841018
62112		28.736829	-3.982439	-22.092829	-34.136681	-4.799554	-21.697992	-0.234700	3.700241	-0.073313	-0.589600	-0.202637	-0.474854	0.283202	-0.040192	-0.226147	0.027503	-0.145444	-0.201155	-0.968311	23.518226	-17.021774	179.685435
62113		30.857493	-12.787381	-26.052656	-37.818995	1.239575	-28.853426	0.180782	2.420644	0.871627	-0.576172	-0.200195	-0.481445	0.305944	-0.126299	-0.264355	0.034299	-0.134659	-0.201010	-0.969683	23.318987	-15.958587	-179.262094
62114		33.308916	-13.180436	-27.419402	-40.341957	0.291601	-29.996916	1.207522	1.119678	1.194465	-0.572021	-0.193604	-0.479492	0.332317	-0.128152	-0.276837	0.042016	-0.130304	-0.205825	-0.968964	23.757441	-15.653324	-178.346473
62115		21.812880	3.357928	-23.515948	-26.161161	-13.406436	-23.075693	0.386773	-1.572339	1.291413	-0.597168	-0.182861	-0.457764	0.219743	0.035447	-0.233369	0.046916	-0.139258	-0.207141	-0.967212	23.884030	-16.787340	-178.020847
62116		-20.160081	10.086819	-1.176077	20.467848	-8.888296	-13.210926	-0.874284	-3.127565	2.700235	-0.611572	-0.154297	-0.427734	-0.202716	0.098074	-0.015358	0.056120	-0.157469	-0.201692	-0.965077	23.152573	-19.061152	-177.283272
62117		3.580905	8.813590	19.896148	4.433081	-0.289567	11.784548	-1.864657	-5.504920	3.395216	-0.632813	-0.123535	-0.386719	0.028808	0.090520	0.198982	0.065461	-0.187979	-0.191418	-0.961113	21.854490	-22.730651	-176.651992
62118		9.991716	4.814968	21.248079	-0.464911	3.334250	13.915555	-0.828048	-4.935616	1.879578	-0.651367	-0.106201	-0.345215	0.094174	0.049939	0.214648	0.068982	-0.213799	-0.187193	-0.956290	21.395379	-25.768282	-176.696809
62119		15.143884	2.520871	6.671841	-10.245425	-0.540933	3.412362	-1.040278	-3.942729	1.519778	-0.661133	-0.083984	-0.312744	0.149887	0.026709	0.069547	0.071440	-0.234474	-0.181875	-0.952281	20.795455	-28.200343	-176.697384
62120		14.947705	-8.261624	5.566884	-12.424728	8.955989	-0.429426	-0.875884	-4.082677	2.007776	-0.668457	-0.066406	-0.275635	0.149112	-0.080864	0.059072	0.076254	-0.256092	-0.176731	-0.947295	20.143156	-30.806617	-176.398631
62121		23.138133	-2.689121	17.562524	-11.880998	7.717915	15.686273	-0.282198	-3.809487	2.337247	-0.676025	-0.044434	-0.243164	0.228271	-0.023959	0.180028	0.083586	-0.276336	-0.173774	-0.941517	19.653631	-33.325824	-175.788969
62122		35.718272	9.802794	18.920865	-17.467400	-4.487728	27.664087	-0.602382	-1.916618	2.240244	-0.672119	-0.026611	-0.241699	0.354218	0.102583	0.192308	0.091637	-0.287640	-0.168584	-0.938320	18.727920	-34.798663	-174.760556
62123		20.889980	8.715212	6.049570	-11.591062	-7.562551	9.092044	-1.148684	-0.125387	1.177058	-0.656494	-0.024170	-0.243896	0.208343	0.088725	0.060120	0.095407	-0.289830	-0.161518	-0.938514	17.633161	-35.088362	-174.005385
62124		10.075418	-0.940612	10.704475	-2.900288	3.777145	4.126562	-1.047847	-0.515283	0.737399	-0.652100	-0.017578	-0.246338	0.100510	-0.008473	0.107350	0.096947	-0.293465	-0.155741	-0.938203	16.804301	-35.510851	-173.616533
62125		8.092051	-7.810503	10.643305	-3.104150	10.236414	1.383024	-0.540996	-0.448907	0.506838	-0.640869	-0.017334	-0.239746	0.080878	-0.077611	0.106825	0.098190	-0.296318	-0.152640	-0.937686	16.342361	-35.851198	-173.362946
62126		8.218943	2.197015	6.060876	-2.793426	-0.747889	0.224698	-0.256018	-0.540608	0.380487	-0.636963	-0.006348	-0.249023	0.081983	0.022204	0.060802	0.099197	-0.299398	-0.151099	-0.936851	16.100358	-36.225106	-173.209159
