// General information: 
//  MT Manager version: 2019.2.0 
//  XDA version: 2019.2.0 build 3853 rev 94535 built on 2019-09-09
// Device information: 
//  DeviceId: 00B40A23
//  ProductCode: MTW2-3A7G6
//  Firmware Version: 4.3.5
//  Hardware Version: 1.1.0
// Device settings: 
//  Filter Profile: human(46.1)
//  Option Flags: Orientation Smoother Disabled, AHS Disabled, ICC Disabled
// Coordinate system: ENU
PacketCounter	SampleTimeFine	Acc_X	Acc_Y	Acc_Z	FreeAcc_E	FreeAcc_N	FreeAcc_U	Gyr_X	Gyr_Y	Gyr_Z	Mag_X	Mag_Y	Mag_Z	VelInc_X	VelInc_Y	VelInc_Z	Quat_q0	Quat_q1	Quat_q2	Quat_q3	Roll	Pitch	Yaw
45979		5.052186	-1.132127	8.382970	-0.003177	0.016324	0.040241	0.005839	0.007190	-0.003787	-0.299805	0.354980	-1.063477	0.050525	-0.011325	0.083828	-0.952485	0.097027	0.255888	0.133714	-7.795895	-30.890997	-13.825304
45980		5.037223	-1.125659	8.402243	-0.022684	0.030399	0.048194	0.005838	0.007190	-0.003788	-0.302246	0.354980	-1.063477	0.050375	-0.011260	0.084020	-0.952483	0.097028	0.255893	0.133718	-7.795776	-30.891649	-13.825792
45981		5.045452	-1.164358	8.389789	-0.021992	-0.010996	0.046332	0.004211	0.006539	-0.004089	-0.297852	0.361816	-1.059326	0.050457	-0.011646	0.083896	-0.952479	0.097035	0.255900	0.133729	-7.796211	-30.892643	-13.826967
45982		5.036259	-1.124291	8.403005	-0.023828	0.032108	0.048186	0.009042	0.004754	-0.003476	-0.295410	0.355225	-1.063721	0.050364	-0.011248	0.084028	-0.952476	0.097023	0.255919	0.133726	-7.794476	-30.894655	-13.827028
45983		5.046580	-1.140742	8.416963	-0.026727	0.018006	0.067267	0.003206	0.008424	-0.004851	-0.302246	0.359375	-1.063721	0.050469	-0.011410	0.084167	-0.952475	0.097035	0.255911	0.133732	-7.795968	-30.893993	-13.827390
45984		5.071254	-1.163023	8.412112	-0.010824	-0.009338	0.078403	0.008468	0.005955	-0.002726	-0.304688	0.361572	-1.061523	0.050715	-0.011634	0.084119	-0.952474	0.097026	0.255923	0.133727	-7.794760	-30.895264	-13.827064
45985		5.032706	-1.144164	8.377799	-0.021704	0.007687	0.027243	0.006553	0.005469	-0.006799	-0.299805	0.354980	-1.061279	0.050329	-0.011446	0.083776	-0.952467	0.097025	0.255941	0.133744	-7.793939	-30.897435	-13.829215
45986		5.045174	-1.138355	8.418129	-0.028471	0.020751	0.067256	0.006410	0.005988	-0.004539	-0.299805	0.354980	-1.063477	0.050454	-0.011387	0.084179	-0.952463	0.097023	0.255952	0.133750	-7.793294	-30.898829	-13.830091
45987		5.031931	-1.142464	8.378497	-0.022814	0.009399	0.027239	0.007125	0.004267	-0.007549	-0.295654	0.361816	-1.068115	0.050321	-0.011430	0.083783	-0.952456	0.097014	0.255972	0.133772	-7.791081	-30.901211	-13.833236
45988		5.073439	-1.148060	8.381049	0.008295	-0.003937	0.051375	0.008129	0.002382	-0.006788	-0.302002	0.352783	-1.063477	0.050735	-0.011486	0.083809	-0.952447	0.097003	0.256003	0.133785	-7.788853	-30.904826	-13.835274
45989		5.058745	-1.141248	8.400192	-0.011122	0.010128	0.059311	0.008178	0.006120	-0.006500	-0.302490	0.361816	-1.061523	0.050590	-0.011418	0.084000	-0.952445	0.096987	0.256012	0.133790	-7.786566	-30.905738	-13.836497
45990		5.043889	-1.134439	8.419428	-0.030635	0.024211	0.067242	0.008177	0.006120	-0.006500	-0.299805	0.350586	-1.065674	0.050441	-0.011349	0.084192	-0.952441	0.096974	0.256025	0.133804	-7.784235	-30.907208	-13.838683
45991		5.074332	-1.122888	8.408552	0.002953	0.025883	0.072291	0.006119	0.006152	-0.008313	-0.300049	0.354980	-1.068115	0.050745	-0.011234	0.084084	-0.952435	0.096968	0.256037	0.133829	-7.782394	-30.908697	-13.842207
45992		5.075969	-1.099746	8.435319	-0.001358	0.053982	0.093200	0.011095	0.004723	-0.001665	-0.302246	0.359619	-1.068115	0.050762	-0.011003	0.084351	-0.952434	0.096948	0.256056	0.133815	-7.780099	-30.910584	-13.841068
45993		5.042833	-1.131525	8.420452	-0.032287	0.026806	0.067230	0.006502	0.001731	-0.007090	-0.302490	0.361816	-1.065918	0.050429	-0.011320	0.084204	-0.952425	0.096942	0.256088	0.133823	-7.778624	-30.914274	-13.842314
45994		5.071406	-1.142240	8.383075	0.005028	0.001273	0.051378	0.008464	0.005957	-0.002729	-0.304443	0.354980	-1.068115	0.050716	-0.011427	0.083829	-0.952423	0.096932	0.256100	0.133818	-7.777418	-30.915544	-13.841991
45995		5.056441	-1.135617	8.402342	-0.014494	0.015375	0.059300	0.007459	0.007841	-0.003492	-0.302246	0.357178	-1.061279	0.050568	-0.011360	0.084021	-0.952423	0.096925	0.256104	0.133815	-7.776544	-30.915868	-13.841771
45996		5.044991	-1.117660	8.389241	-0.012590	0.031257	0.040197	0.007458	0.007841	-0.003492	-0.295654	0.361816	-1.063721	0.050453	-0.011181	0.083890	-0.952423	0.096917	0.256107	0.133815	-7.775567	-30.916127	-13.842122
45997		5.011518	-1.149691	8.374554	-0.043458	0.004167	0.014232	0.006263	0.006507	-0.002282	-0.297852	0.357422	-1.063721	0.050118	-0.011500	0.083744	-0.952423	0.096921	0.256111	0.133804	-7.776390	-30.916588	-13.840524
45998		5.049150	-1.166793	8.409688	-0.033783	-0.010937	0.065415	0.008174	0.006119	-0.006503	-0.302002	0.352783	-1.063477	0.050494	-0.011673	0.084095	-0.952419	0.096908	0.256125	0.133817	-7.774060	-30.918058	-13.842712
45999		5.047050	-1.103667	8.358110	0.007270	0.035708	0.013170	0.009369	0.007453	-0.007714	-0.299805	0.352783	-1.063477	0.050473	-0.011043	0.083579	-0.952417	0.096885	0.256130	0.133836	-7.770366	-30.918541	-13.845888
46000		5.053841	-1.131151	8.404509	-0.017204	0.019799	0.059287	0.006979	0.004785	-0.005292	-0.297852	0.359619	-1.059326	0.050540	-0.011316	0.084043	-0.952412	0.096880	0.256148	0.133844	-7.769194	-30.920674	-13.847155
46001		5.042664	-1.112986	8.391262	-0.015220	0.035676	0.040178	0.010804	0.004887	-0.005440	-0.300049	0.357422	-1.063721	0.050428	-0.011136	0.083911	-0.952409	0.096857	0.256165	0.133848	-7.765919	-30.922341	-13.848437
46002		5.053134	-1.128970	8.405227	-0.018272	0.021560	0.059282	0.008316	0.005599	-0.008765	-0.302246	0.357178	-1.061279	0.050533	-0.011295	0.084050	-0.952403	0.096840	0.256182	0.133872	-7.762762	-30.924281	-13.852076
46003		5.039986	-1.133099	8.365563	-0.012577	0.010221	0.019288	0.005783	0.003451	-0.004082	-0.302246	0.354980	-1.063477	0.050401	-0.011334	0.083654	-0.952396	0.096845	0.256204	0.133875	-7.762989	-30.926950	-13.852318
46004		5.058152	-1.093792	8.399767	-0.001708	0.052365	0.053144	0.004921	0.004815	-0.007106	-0.297852	0.357422	-1.061523	0.050583	-0.010942	0.083996	-0.952388	0.096847	0.256221	0.133895	-7.762377	-30.929206	-13.854788
46005		5.008573	-1.142286	8.377329	-0.047802	0.011153	0.014207	0.004157	0.002799	-0.004383	-0.302246	0.359375	-1.059326	0.050087	-0.011426	0.083772	-0.952380	0.096858	0.256244	0.133901	-7.763300	-30.932089	-13.855185
46006		5.010426	-1.119463	8.403877	-0.052129	0.039272	0.035077	0.004301	0.002279	-0.006644	-0.300049	0.359619	-1.063721	0.050105	-0.011198	0.084038	-0.952369	0.096866	0.256273	0.133918	-7.763319	-30.935749	-13.857121
46007		5.004921	-1.152414	8.409936	-0.070328	0.011223	0.041207	0.001004	-0.002763	-0.007531	-0.302490	0.361816	-1.063721	0.050048	-0.011526	0.084100	-0.952350	0.096896	0.256322	0.133938	-7.765834	-30.942197	-13.858655
46008		5.052657	-1.125006	8.406045	-0.021567	0.026952	0.059262	0.000384	-0.005299	-0.007068	-0.302246	0.357178	-1.063721	0.050524	-0.011252	0.084062	-0.952327	0.096927	0.256385	0.133959	-7.768304	-30.950192	-13.860187
46009		5.051236	-1.146768	8.379382	-0.018343	0.000651	0.038392	0.000958	-0.006501	-0.007817	-0.302002	0.352783	-1.063477	0.050509	-0.011470	0.083795	-0.952303	0.096957	0.256453	0.133977	-7.770764	-30.958839	-13.861406
46010		5.042996	-1.107026	8.391851	-0.020187	0.043759	0.040137	0.000815	-0.005981	-0.005556	-0.300049	0.357422	-1.065918	0.050427	-0.011072	0.083920	-0.952281	0.096988	0.256518	0.133990	-7.773534	-30.967104	-13.861875
46011		5.054410	-1.123853	8.405145	-0.023198	0.029603	0.059251	-0.001242	-0.005952	-0.007369	-0.304443	0.357178	-1.065918	0.050541	-0.011240	0.084053	-0.952257	0.097024	0.256581	0.134012	-7.776577	-30.975135	-13.863424
46012		5.055092	-1.123746	8.404750	-0.023768	0.030482	0.059247	-0.003630	-0.008620	-0.004946	-0.297607	0.350586	-1.059082	0.050547	-0.011237	0.084050	-0.952229	0.097079	0.256655	0.134025	-7.782225	-30.984851	-13.863249
46013		5.082994	-1.124543	8.425517	-0.011608	0.030355	0.091338	-0.003585	-0.004882	-0.004660	-0.299805	0.354980	-1.061279	0.050828	-0.011245	0.084257	-0.952207	0.097129	0.256709	0.134043	-7.787364	-30.992111	-13.863710
46014		5.068680	-1.151837	8.358846	-0.002151	-0.008308	0.030507	-0.002579	-0.006765	-0.003897	-0.304443	0.357178	-1.059082	0.050684	-0.011518	0.083590	-0.952183	0.097179	0.256775	0.134051	-7.792682	-31.000693	-13.863006
46015		5.067553	-1.141008	8.417356	-0.027917	0.018079	0.078357	-0.002534	-0.003027	-0.003611	-0.304688	0.359375	-1.061523	0.050674	-0.011410	0.084174	-0.952164	0.097228	0.256822	0.134065	-7.797939	-31.007016	-13.862969
46016		5.080277	-1.169023	8.371978	-0.005764	-0.021523	0.049632	-0.002534	-0.003027	-0.003611	-0.302246	0.357178	-1.065918	0.050801	-0.011690	0.083721	-0.952145	0.097275	0.256870	0.134074	-7.803155	-31.013453	-13.862413
46017		5.065971	-1.163061	8.390747	-0.025262	-0.007404	0.057506	0.003393	0.000785	-0.001660	-0.302490	0.361816	-1.061523	0.050660	-0.011632	0.083907	-0.952135	0.097295	0.256902	0.134065	-7.805638	-31.017454	-13.860536
46018		5.055146	-1.145597	8.377184	-0.023335	0.008441	0.038378	-0.000147	-0.000359	-0.006035	-0.297852	0.359619	-1.065918	0.050551	-0.011457	0.083772	-0.952119	0.097326	0.256940	0.134083	-7.808535	-31.022565	-13.861827
46019		5.069593	-1.151078	8.358396	-0.004812	-0.003838	0.030508	0.000904	0.001496	-0.004985	-0.302246	0.357178	-1.065918	0.050696	-0.011512	0.083584	-0.952110	0.097354	0.256965	0.134084	-7.811756	-31.025858	-13.860931
46020		5.087922	-1.112219	8.392421	0.006024	0.038357	0.064316	0.000762	0.002016	-0.002724	-0.295410	0.357422	-1.063721	0.050880	-0.011123	0.083924	-0.952099	0.097384	0.256991	0.134087	-7.815152	-31.029363	-13.860244
46021		5.064002	-1.099806	8.339037	0.014385	0.041850	0.005218	0.003580	0.004003	-0.003636	-0.304443	0.357178	-1.061279	0.050641	-0.011000	0.083389	-0.952096	0.097394	0.257003	0.134081	-7.816539	-31.030877	-13.859044
46022		5.087338	-1.111576	8.392860	0.005038	0.040080	0.064310	-0.001251	0.005783	-0.004251	-0.299805	0.352783	-1.061279	0.050876	-0.011116	0.083927	-0.952088	0.097429	0.257010	0.134095	-7.820390	-31.032362	-13.859711
46023		5.070502	-1.127869	8.385567	-0.010677	0.026854	0.051337	0.001670	0.004391	0.000586	-0.306641	0.357178	-1.063477	0.050707	-0.011279	0.083854	-0.952084	0.097455	0.257021	0.134086	-7.823987	-31.033995	-13.857578
46024		5.053589	-1.144248	8.378308	-0.026424	0.013680	0.038365	0.000521	0.006795	0.002084	-0.306641	0.357178	-1.056885	0.050539	-0.011442	0.083781	-0.952083	0.097489	0.257022	0.134069	-7.828939	-31.034412	-13.854140
46025		5.060528	-1.172687	8.424519	-0.051035	-0.002104	0.084486	0.001625	0.000653	0.000301	-0.297607	0.355225	-1.061279	0.050606	-0.011727	0.084245	-0.952070	0.097522	0.257056	0.134065	-7.832953	-31.038908	-13.852424
46026		5.080499	-1.144740	8.399715	-0.014967	0.014559	0.070464	0.001336	0.000814	-0.003473	-0.302002	0.352783	-1.059082	0.050805	-0.011449	0.083997	-0.952058	0.097549	0.257089	0.134070	-7.835822	-31.043153	-13.852122
46027		5.067526	-1.149480	8.359870	-0.009161	0.003025	0.030506	0.001955	0.003350	-0.003936	-0.302002	0.352783	-1.063477	0.050676	-0.011497	0.083598	-0.952050	0.097568	0.257105	0.134081	-7.837654	-31.045398	-13.852846
46028		5.063724	-1.160475	8.392461	-0.031198	0.002180	0.057491	0.002387	0.002669	-0.002424	-0.304199	0.352783	-1.056885	0.050638	-0.011606	0.083924	-0.952042	0.097590	0.257128	0.134080	-7.840192	-31.048509	-13.852017
46029		5.094231	-1.149379	8.381485	0.002358	0.003784	0.062611	0.006256	0.006511	-0.002286	-0.300049	0.359619	-1.061523	0.050945	-0.011497	0.083813	-0.952039	0.097588	0.257135	0.134087	-7.839677	-31.049332	-13.852879
46030		5.092395	-1.137802	8.440508	-0.023471	0.030235	0.110407	0.007792	-0.000313	-0.002556	-0.302246	0.359375	-1.059326	0.050924	-0.011382	0.084405	-0.952029	0.097586	0.257177	0.134079	-7.839212	-31.054145	-13.851866
46031		5.178036	-1.128162	8.471487	0.035512	0.030234	0.179746	0.000099	-0.004259	-0.002546	-0.297607	0.352783	-1.061279	0.051778	-0.011282	0.084716	-0.952012	0.097625	0.257228	0.134074	-7.843839	-31.060716	-13.849833
46032		5.132780	-1.165947	8.416160	0.010893	-0.009349	0.113863	-0.006361	-0.004012	-0.011760	-0.302246	0.357178	-1.063721	0.051325	-0.011660	0.084163	-0.951984	0.097681	0.257282	0.134126	-7.848512	-31.068348	-13.854581
46033		5.173529	-1.110640	8.365962	0.083725	0.022995	0.085833	-0.015395	-0.009652	-0.016575	-0.306885	0.361572	-1.061523	0.051730	-0.011104	0.083663	-0.951944	0.097774	0.257354	0.134207	-7.856588	-31.078801	-13.861812
46034		5.139282	-1.166452	8.324011	0.056606	-0.031547	0.039104	-0.019562	-0.000720	-0.009073	-0.304688	0.359375	-1.065918	0.051392	-0.011659	0.083241	-0.951916	0.097894	0.257382	0.134265	-7.869588	-31.084354	-13.865078
46035		5.132297	-1.106060	8.363075	0.050976	0.038905	0.061559	-0.016411	0.004845	-0.005924	-0.306885	0.361572	-1.063721	0.051325	-0.011055	0.083630	-0.951899	0.098000	0.257384	0.134303	-7.881895	-31.086489	-13.866184
46036		5.175406	-1.091841	8.391958	0.078228	0.052983	0.106636	-0.022679	0.010066	-0.000521	-0.300049	0.357422	-1.061523	0.051758	-0.010909	0.083918	-0.951889	0.098139	0.257355	0.134329	-7.899098	-31.085250	-13.864770
46037		5.312688	-0.991352	8.499042	0.175061	0.149784	0.256477	-0.027856	0.020880	0.006219	-0.302246	0.359375	-1.063721	0.053136	-0.009900	0.084986	-0.951896	0.098303	0.257265	0.134331	-7.921197	-31.077009	-13.859338
46038		5.368587	-0.985263	8.509922	0.221262	0.150655	0.293726	-0.044555	0.028516	0.021404	-0.306885	0.363770	-1.061523	0.053699	-0.009828	0.085094	-0.951914	0.098562	0.257122	0.134291	-7.957548	-31.063564	-13.845105
46039		5.297672	-1.078585	8.454545	0.163846	0.068010	0.221082	-0.057644	0.043019	0.024937	-0.297852	0.359619	-1.057129	0.052996	-0.010755	0.084537	-0.951946	0.098879	0.256899	0.134253	-8.002205	-31.041472	-13.829301
46040		5.284744	-1.045987	8.469082	0.161985	0.111140	0.222718	-0.069102	0.046443	0.025639	-0.306885	0.361572	-1.061523	0.052868	-0.010424	0.084682	-0.951977	0.099247	0.256653	0.134233	-8.053179	-31.017498	-13.813968
46041		5.085743	-1.143463	8.380266	0.013552	0.043395	0.056410	-0.071903	0.048191	0.026814	-0.300049	0.357178	-1.056885	0.050879	-0.011398	0.083795	-0.952010	0.099631	0.256394	0.134213	-8.106114	-30.992248	-13.798309
46042		5.033540	-1.261819	8.410888	-0.074203	-0.043562	0.069840	-0.068626	0.052365	0.019395	-0.300049	0.359619	-1.057129	0.050359	-0.012584	0.084100	-0.952044	0.099985	0.256122	0.134225	-8.154360	-30.965398	-13.787725
46043		4.874360	-1.268781	8.358049	-0.178409	-0.026967	-0.055966	-0.049492	0.062018	-0.003071	-0.302490	0.366211	-1.063721	0.048769	-0.012668	0.083569	-0.952085	0.100212	0.255826	0.134333	-8.183022	-30.934643	-13.794240
46044		4.921216	-1.412509	8.316527	-0.158681	-0.180965	-0.049479	-0.025089	0.060065	-0.001630	-0.298096	0.368408	-1.061768	0.049237	-0.014115	0.083152	-0.952136	0.100327	0.255558	0.134393	-8.198776	-30.905133	-13.798327
46045		4.922005	-1.380384	8.313283	-0.141477	-0.151043	-0.055668	-0.016849	0.058211	-0.010956	-0.297852	0.361816	-1.057129	0.049243	-0.013800	0.083120	-0.952185	0.100394	0.255306	0.134476	-8.207237	-30.877081	-13.807155
46046		5.033696	-1.276537	8.311359	-0.010610	-0.077257	-0.012675	-0.004077	0.066472	-0.020291	-0.300293	0.361816	-1.063721	0.050363	-0.012769	0.083097	-0.952242	0.100381	0.255030	0.134601	-8.204314	-30.845464	-13.824186
46047		5.055612	-1.192550	8.310926	0.039384	-0.004371	-0.012110	-0.004893	0.076174	-0.014454	-0.298096	0.364014	-1.059326	0.050587	-0.011927	0.083090	-0.952316	0.100370	0.254703	0.134708	-8.202998	-30.807642	-13.838825
46048		4.880439	-1.272116	8.303254	-0.121677	-0.047430	-0.098578	-0.001059	0.075418	-0.022898	-0.295654	0.361816	-1.057129	0.048834	-0.012726	0.083014	-0.952385	0.100333	0.254389	0.134846	-8.197056	-30.771164	-13.858413
46049		4.974753	-1.150478	8.379817	-0.035052	0.065236	-0.000062	0.007987	0.069319	-0.021181	-0.295654	0.359619	-1.063721	0.049775	-0.011513	0.083780	-0.952451	0.100260	0.254105	0.134965	-8.186773	-30.737730	-13.876812
46050		5.007442	-1.050531	8.478166	-0.016738	0.176253	0.088123	-0.004626	0.064273	-0.013854	-0.293457	0.359619	-1.057129	0.050101	-0.010507	0.084766	-0.952509	0.100260	0.253837	0.135059	-8.186496	-30.706830	-13.889351
46051		4.961056	-0.960339	8.453244	-0.010939	0.263986	0.032202	-0.021222	0.059635	-0.004139	-0.295898	0.366211	-1.061523	0.049636	-0.009595	0.084519	-0.952561	0.100349	0.253570	0.135130	-8.198541	-30.677273	-13.895831
46052		4.974369	-1.041140	8.429899	-0.008938	0.180391	0.029005	-0.033868	0.050851	0.002896	-0.293457	0.364014	-1.057129	0.049765	-0.010396	0.084288	-0.952599	0.100518	0.253337	0.135175	-8.221308	-30.652618	-13.896058
46053		4.981098	-1.062031	8.445401	-0.011977	0.166378	0.048156	-0.046944	0.042751	0.008412	-0.295898	0.366211	-1.063965	0.049829	-0.010598	0.084446	-0.952624	0.100763	0.253128	0.135206	-8.254005	-30.631797	-13.891932
46054		4.959364	-1.105462	8.412574	-0.023881	0.125838	0.014435	-0.059379	0.040923	0.013750	-0.295898	0.368408	-1.052734	0.049612	-0.011026	0.084119	-0.952644	0.101073	0.252920	0.135226	-8.295499	-30.611876	-13.884089
46055		4.963149	-1.140315	8.459442	-0.048479	0.110207	0.060550	-0.065446	0.026758	0.019173	-0.295898	0.366211	-1.059326	0.049644	-0.011371	0.084592	-0.952645	0.101433	0.252771	0.135224	-8.343337	-30.599567	-13.871674
46056		4.946679	-1.173919	8.393175	-0.038869	0.071319	-0.000119	-0.067931	0.021192	0.029571	-0.295898	0.366211	-1.054932	0.049477	-0.011703	0.083930	-0.952646	0.101818	0.252643	0.135169	-8.395983	-30.589501	-13.851541
46057		4.886710	-1.191120	8.382697	-0.086206	0.072157	-0.037430	-0.075495	0.016735	0.027243	-0.293701	0.370850	-1.059570	0.048876	-0.011873	0.083827	-0.952633	0.102241	0.252532	0.135143	-8.452320	-30.582326	-13.833765
46058		4.892723	-1.259927	8.342690	-0.081661	0.003452	-0.059742	-0.072706	0.004112	0.031206	-0.291504	0.370850	-1.055176	0.048931	-0.012561	0.083430	-0.952611	0.102662	0.252481	0.135078	-8.509086	-30.581766	-13.810905
46059		4.847369	-1.304601	8.285766	-0.106092	-0.036263	-0.125567	-0.067976	-0.008880	0.030960	-0.293457	0.364014	-1.059326	0.048472	-0.013010	0.082864	-0.952575	0.103072	0.252492	0.135002	-8.564137	-30.588247	-13.786818
46060		4.584773	-1.445187	8.277268	-0.365639	-0.109307	-0.248366	-0.056257	-0.031676	0.030339	-0.295898	0.370605	-1.059570	0.045837	-0.014422	0.082784	-0.952515	0.103438	0.252623	0.134901	-8.613006	-30.608000	-13.760968
46061		4.664588	-1.402466	8.319450	-0.308135	-0.067056	-0.177383	-0.039721	-0.064565	0.021470	-0.293945	0.375244	-1.059570	0.046621	-0.014003	0.083212	-0.952415	0.103733	0.252925	0.134813	-8.650457	-30.647035	-13.738701
46062		4.609613	-1.374978	8.226961	-0.309840	-0.048074	-0.287790	-0.025302	-0.085700	0.013907	-0.293701	0.368408	-1.057129	0.046062	-0.013736	0.082291	-0.952291	0.103967	0.253342	0.134724	-8.678890	-30.698777	-13.718201
46063		4.199021	-1.416888	8.193952	-0.660228	-0.007043	-0.520527	-0.012102	-0.128194	-0.004534	-0.296143	0.372803	-1.057373	0.041937	-0.014165	0.081967	-0.952109	0.104142	0.253977	0.134682	-8.695758	-30.775729	-13.705441
46064		4.483038	-1.248660	8.409608	-0.484219	0.157340	-0.214821	-0.018704	-0.192602	-0.019706	-0.293945	0.373047	-1.057373	0.044748	-0.012483	0.084140	-0.951829	0.104374	0.254925	0.134689	-8.714670	-30.890917	-13.696238
46065		4.135401	-1.229403	8.364362	-0.767574	0.242272	-0.435715	-0.035036	-0.245974	-0.035637	-0.300537	0.370605	-1.057373	0.041249	-0.012287	0.083697	-0.951463	0.104698	0.256118	0.134760	-8.740488	-31.036977	-13.691501
46066		3.703652	-1.251808	8.827458	-1.375197	0.444285	-0.267039	-0.043480	-0.375952	-0.053568	-0.307129	0.368164	-1.061523	0.036867	-0.012509	0.088347	-0.950909	0.105128	0.257938	0.134863	-8.771792	-31.258939	-13.685868
46067		5.241814	-0.691618	9.750013	-0.393191	0.928592	1.232698	-0.111404	-0.503298	-0.055523	-0.316162	0.370361	-1.048340	0.052171	-0.006876	0.097635	-0.950151	0.105956	0.260314	0.134995	-8.847438	-31.552712	-13.668489
46068		4.508014	-0.927428	9.631916	-1.073243	0.854907	0.773767	-0.231007	-0.599111	-0.053483	-0.321045	0.379150	-1.057373	0.044789	-0.009175	0.096464	-0.949195	0.107426	0.263065	0.135222	-8.998946	-31.900965	-13.638687
46069		2.398926	-3.126730	10.784234	-4.117455	-0.426626	0.896866	-0.281494	-0.909098	-0.122549	-0.332275	0.378906	-1.046143	0.023479	-0.031130	0.107994	-0.947741	0.109251	0.267286	0.135679	-9.173000	-32.430962	-13.621368
46070		2.268880	-1.365444	12.163467	-4.448930	1.694754	1.689242	-0.127548	-1.407220	-0.184155	-0.347900	0.376221	-1.043945	0.021820	-0.013597	0.121799	-0.945629	0.110600	0.273995	0.135940	-9.267269	-33.248105	-13.588710
46071		2.402562	-0.264630	12.763770	-4.462111	2.967562	2.020885	-0.667101	-1.948630	-0.348170	-0.370605	0.384766	-1.028320	0.022776	-0.002260	0.127872	-0.942288	0.114631	0.282967	0.137413	-9.645010	-34.386756	-13.603067
46072		2.043836	-4.309146	12.213237	-6.030745	-0.768448	1.803603	-0.582113	-2.624494	-0.499329	-0.397461	0.384277	-1.023682	0.018725	-0.042783	0.122510	-0.937797	0.118498	0.295224	0.139063	-9.965564	-35.921586	-13.631669
46073		2.778008	-1.075614	12.718814	-4.973953	2.417822	2.021186	-0.587067	-3.257302	-0.692523	-0.431396	0.387939	-1.005859	0.025667	-0.010473	0.127649	-0.932009	0.122511	0.310491	0.141229	-10.258977	-37.833186	-13.709131
46074		2.558398	-2.668427	12.389027	-5.896157	1.049608	1.644410	-0.692833	-3.858583	-0.896027	-0.478760	0.395752	-0.985840	0.023068	-0.026361	0.124443	-0.924759	0.127087	0.328500	0.144079	-10.576413	-40.104702	-13.841172
46075		3.687218	-4.828395	11.824140	-5.967394	-1.151802	2.008962	-0.556064	-4.478357	-1.104433	-0.525879	0.394775	-0.963379	0.033945	-0.048146	0.119157	-0.915988	0.131066	0.349450	0.147214	-10.769662	-42.747883	-14.035107
46076		6.210210	-5.499169	12.637372	-5.511683	-1.748987	4.152455	-0.313409	-4.833756	-1.389350	-0.576904	0.375977	-0.934082	0.058640	-0.055207	0.127905	-0.906008	0.133628	0.372186	0.150902	-10.696275	-45.621541	-14.402971
46077		5.308705	-5.205513	11.742762	-6.118080	-1.471437	2.578090	-0.128085	-5.012140	-1.688067	-0.616943	0.364014	-0.902344	0.049681	-0.052408	0.118735	-0.894984	0.134806	0.395830	0.155402	-10.308048	-48.626812	-15.033683
46078		9.260474	-4.250507	12.947495	-4.765676	-0.687233	5.942136	-0.094464	-4.928279	-1.825809	-0.654785	0.356689	-0.879883	0.088985	-0.043267	0.131718	-0.883421	0.135437	0.418931	0.160377	-9.723492	-51.593825	-15.870338
46079		2.845070	-4.287213	12.034535	-8.634036	0.153429	0.020820	0.062289	-4.638869	-2.073362	-0.705566	0.337646	-0.850342	0.025203	-0.043182	0.120942	-0.871782	0.134536	0.440762	0.166208	-8.702754	-54.411596	-17.108150
46080		7.438012	-4.261916	22.053486	-13.963880	3.289553	9.000883	0.305549	-3.819975	-2.102016	-0.731689	0.314941	-0.829834	0.069696	-0.043706	0.221830	-0.861595	0.131754	0.459003	0.172083	-7.236421	-56.750748	-18.677281
46081		7.956368	-2.574388	24.280059	-15.282104	5.656666	10.033736	-0.124043	-2.200727	-1.708767	-0.733643	0.303711	-0.816162	0.076663	-0.026256	0.243671	-0.854890	0.130289	0.469479	0.178263	-6.019578	-58.120119	-20.210120
46082		-0.067168	-4.015182	20.337565	-17.163792	4.395692	0.949296	-0.533866	-0.781310	-1.182902	-0.728760	0.294922	-0.811523	-0.001702	-0.039601	0.203477	-0.851608	0.130527	0.473128	0.184054	-5.308745	-58.637026	-21.408170
46083		-5.618656	-5.721774	15.847772	-17.229711	2.286808	-6.156849	-0.612189	-0.269662	-0.765915	-0.717285	0.292969	-0.811523	-0.056618	-0.056516	0.158575	-0.849839	0.131610	0.474222	0.188588	-4.969306	-58.833313	-22.220415
46084		-4.982198	-5.905251	15.177517	-16.493141	1.852638	-5.992408	-0.465410	-0.022143	-0.395626	-0.706055	0.288818	-0.815918	-0.049955	-0.058600	0.151906	-0.849083	0.132710	0.474163	0.191354	-4.870990	-58.869939	-22.650935
46085		-3.843517	-5.391800	15.824538	-16.185308	2.424000	-4.672724	-0.391926	0.474479	0.024913	-0.683594	0.286865	-0.820557	-0.038053	-0.053612	0.158441	-0.849950	0.134024	0.471771	0.192496	-5.087348	-58.601146	-22.665830
46086		-4.577491	-4.822619	15.287059	-15.830955	2.900616	-5.468819	-0.412777	1.058082	0.461238	-0.658691	0.285156	-0.824951	-0.044854	-0.048014	0.153209	-0.852577	0.135885	0.466586	0.192212	-5.664636	-57.977341	-22.269339
46087		-5.437312	-4.494241	14.156400	-15.206283	2.916820	-6.584498	-0.400856	1.515968	0.822648	-0.631836	0.288086	-0.833984	-0.053113	-0.044878	0.142060	-0.856582	0.138097	0.459175	0.190668	-6.493410	-57.066681	-21.564804
46088		-4.625542	-3.805934	13.914081	-14.236189	3.257892	-5.788912	-0.358732	1.898982	1.121783	-0.596191	0.293213	-0.841064	-0.044718	-0.038063	0.139639	-0.861690	0.140430	0.449924	0.187983	-7.469596	-55.913022	-20.644763
46089		-3.455714	-3.479330	14.026502	-13.448040	3.335210	-4.445698	-0.326717	2.332685	1.391226	-0.560303	0.296143	-0.850098	-0.032676	-0.034795	0.140710	-0.867920	0.142808	0.438560	0.184351	-8.531970	-54.481143	-19.584964
46090		-2.382137	-3.310255	13.940755	-12.561267	3.194849	-3.257688	-0.253738	2.761748	1.623646	-0.522217	0.296875	-0.863770	-0.021624	-0.033107	0.139758	-0.875160	0.144945	0.425154	0.179805	-9.593108	-52.776309	-18.452119
46091		-1.197917	-3.105227	13.837637	-11.490297	3.056407	-1.991649	-0.156394	3.160283	1.814707	-0.470459	0.295654	-0.872803	-0.009509	-0.031038	0.138564	-0.883139	0.146902	0.409729	0.174949	-10.588779	-50.813783	-17.369757
46092		0.375537	-2.945480	13.827214	-10.158881	2.815143	-0.386351	-0.068607	3.542356	1.963444	-0.429932	0.291992	-0.879639	0.006492	-0.029353	0.138183	-0.891863	0.148139	0.392531	0.168980	-11.479005	-48.610583	-16.259033
46093		1.872008	-2.927195	13.686290	-8.706967	2.404491	1.039245	0.030696	3.908358	2.083836	-0.379883	0.281982	-0.879639	0.021693	-0.029077	0.136454	-0.901048	0.148887	0.373465	0.162694	-12.238614	-46.175689	-15.236780
46094		3.296479	-2.846640	13.390168	-7.043955	1.989414	2.214651	0.145164	4.225899	2.178885	-0.337158	0.276123	-0.884033	0.036092	-0.028181	0.133141	-0.910547	0.148862	0.352849	0.155699	-12.851006	-43.545222	-14.255877
46095		4.576211	-2.681028	12.913159	-5.221714	1.604529	3.032554	0.256207	4.489866	2.239943	-0.291748	0.265869	-0.895264	0.048942	-0.026438	0.128023	-0.920112	0.148125	0.330850	0.148290	-13.314368	-40.750780	-13.346415
46096		5.870966	-2.450082	12.479700	-3.297033	1.297815	3.737879	0.366927	4.676615	2.290712	-0.251221	0.260010	-0.904053	0.061882	-0.024031	0.123330	-0.929489	0.146748	0.307832	0.140549	-13.643325	-37.843283	-12.500770
46097		7.108353	-2.364395	11.700145	-1.212272	0.755506	4.005020	0.472594	4.793541	2.343850	-0.212402	0.245117	-0.904053	0.074132	-0.023061	0.115194	-0.938557	0.144688	0.284113	0.132121	-13.856586	-34.858026	-11.656497
46098		7.964222	-2.219180	10.700590	0.716357	0.287025	3.686188	0.569854	4.787589	2.405267	-0.171875	0.243896	-0.917480	0.082433	-0.021513	0.104993	-0.947004	0.142253	0.260215	0.123430	-13.981696	-31.868088	-10.841766
46099		9.178305	-2.382751	9.833587	2.762580	-0.436644	3.557239	0.670876	4.661733	2.450578	-0.139893	0.231201	-0.924072	0.094326	-0.023007	0.096079	-0.954765	0.139267	0.236794	0.113831	-14.020973	-28.938512	-9.962859
46100		10.355945	-2.510965	9.175539	4.686056	-1.008121	3.405665	0.803828	4.474672	2.460372	-0.101807	0.229736	-0.935303	0.105877	-0.024179	0.089305	-0.961692	0.135787	0.214134	0.104200	-13.955217	-26.114102	-9.116172
46101		11.781548	-2.275920	8.752456	6.815686	-1.147332	3.331839	0.932644	4.257476	2.452212	-0.063477	0.226074	-0.950928	0.119912	-0.021697	0.084884	-0.967896	0.131604	0.192493	0.093835	-13.783025	-23.410961	-8.205759
46102		13.325276	-1.964508	8.132308	9.111711	-1.232463	2.953338	1.049940	4.065198	2.436005	-0.029297	0.215576	-0.961914	0.135097	-0.018424	0.078491	-0.973347	0.126958	0.171689	0.083670	-13.513833	-20.822339	-7.332106
46103		14.758999	-0.937697	6.744005	11.626456	-0.744672	1.519502	1.139654	3.859181	2.440439	0.011230	0.214111	-0.973145	0.148957	-0.007938	0.064526	-0.978160	0.121813	0.151858	0.072827	-13.165699	-18.350325	-6.380330
46104		15.432965	0.887556	4.628867	13.590060	0.506834	-1.128791	1.111804	3.527513	2.394019	0.052002	0.201660	-0.981934	0.154996	0.010481	0.043614	-0.982141	0.116914	0.133554	0.062392	-12.806318	-16.076833	-5.453790
46105		16.557069	1.984157	2.444901	15.633420	1.117295	-3.618342	0.990521	3.038747	2.165657	0.081543	0.197754	-0.997559	0.165691	0.021522	0.022036	-0.985257	0.112501	0.117713	0.052490	-12.464695	-14.108867	-4.550637
46106		18.960909	2.411082	0.735747	18.539166	1.153090	-5.250379	0.875588	2.509529	1.715713	0.111084	0.187256	-0.999756	0.189466	0.025711	0.005090	-0.987547	0.108559	0.104638	0.044913	-12.121820	-12.498905	-3.875565
46107		20.910639	2.412790	-1.310826	20.921561	0.746417	-7.261932	0.816371	2.073930	1.108482	0.138184	0.178955	-1.008545	0.208818	0.025345	-0.015173	-0.989242	0.104663	0.093993	0.040131	-11.736446	-11.207574	-3.490566
46108		21.514980	2.932419	-3.831356	22.033963	0.776748	-10.065779	0.744797	1.568103	0.406068	0.154297	0.174805	-1.006348	0.214781	0.029907	-0.039888	-0.990405	0.100885	0.086208	0.038576	-11.322848	-10.285019	-3.438698
46109		22.721428	2.816511	-6.002928	23.549212	0.142192	-12.187979	0.561740	0.937597	-0.305350	0.165527	0.172852	-1.001953	0.226973	0.027989	-0.061015	-0.991021	0.097796	0.081870	0.040135	-10.954807	-9.794781	-3.696778
46110		24.396062	1.626023	-7.439439	25.286590	-1.559981	-13.175407	0.401001	0.281820	-0.983218	0.165283	0.175049	-1.012939	0.243932	0.015211	-0.074707	-0.991115	0.095382	0.081072	0.044964	-10.628461	-9.745951	-4.286425
46111		25.642069	0.329697	-7.990541	26.439843	-3.310106	-13.194768	0.287212	-0.327011	-1.561701	0.158936	0.170410	-1.012939	0.256567	0.001408	-0.079483	-0.990734	0.093417	0.083534	0.052360	-10.319071	-10.096268	-5.136542
46112		25.760255	-1.253429	-7.532243	26.253761	-5.182015	-12.212144	0.215205	-0.903687	-2.025453	0.143066	0.170166	-1.026123	0.257795	-0.015064	-0.074173	-0.989860	0.091770	0.089045	0.061863	-10.005749	-10.815031	-6.202706
46113		24.645750	-2.485156	-6.227805	24.692024	-6.485833	-10.571372	0.147633	-1.410864	-2.344535	0.124756	0.176514	-1.021729	0.246575	-0.027697	-0.060559	-0.988476	0.090453	0.097174	0.072737	-9.687180	-11.845102	-7.409747
46114		22.846488	-3.023184	-5.108491	22.521378	-7.049183	-9.308743	-0.025980	-1.784431	-2.485552	0.099854	0.182617	-1.026123	0.228509	-0.033078	-0.049042	-0.986572	0.090047	0.107133	0.084203	-9.433053	-13.094237	-8.671602
46115		-1.508868	-0.516927	6.057865	-2.785228	0.942326	-4.281444	-0.420295	-1.728448	-2.384703	0.081787	0.188965	-1.035156	-0.015671	-0.004858	0.060455	-0.984338	0.091593	0.116580	0.095391	-9.388537	-14.298977	-9.890157
46116		-13.607554	-10.090132	42.093623	-24.350239	1.373708	28.448827	-0.667124	-1.524206	-1.937325	0.063477	0.195313	-1.032959	-0.140240	-0.098154	0.420208	-0.982133	0.094502	0.124677	0.104594	-9.523099	-15.347164	-10.871848
46117		-22.186557	-15.259830	-0.766264	-24.367154	-10.626110	-14.171570	-0.988440	-1.959272	-1.573026	0.031494	0.205811	-1.039795	-0.222972	-0.150890	-0.009095	-0.979526	0.099424	0.134545	0.111989	-9.893128	-16.609682	-11.596975
46118		-2.852662	-19.604903	-0.974725	-7.335242	-18.376696	-8.424865	-0.102981	-6.053071	-1.299682	-0.040283	0.206787	-1.043701	-0.029489	-0.195865	-0.010529	-0.974198	0.102432	0.164745	0.115346	-9.910839	-20.158574	-11.738923
46119		41.300134	-14.358861	23.116156	26.626372	-15.710446	28.788765	0.333193	-4.659167	0.398334	-0.083008	0.203613	-1.036865	0.407757	-0.143168	0.240463	-0.970485	0.103832	0.187411	0.110704	-9.994058	-22.752297	-10.999508
46120		19.485442	5.071360	14.113957	13.831116	4.920224	9.911820	0.900790	-2.681541	0.414037	-0.109619	0.194336	-1.043213	0.192832	0.050470	0.143962	-0.968560	0.101360	0.200722	0.106434	-9.698240	-24.229864	-10.455533
46121		6.728974	14.193453	13.569133	4.407085	15.723969	3.000634	0.278356	-2.088926	-0.309139	-0.127441	0.191650	-1.038574	0.066085	0.141642	0.136583	-0.966375	0.100845	0.211165	0.106576	-9.555201	-25.443679	-10.424827
46122		-0.025010	5.405534	7.300226	-1.541072	6.951600	-4.172399	-0.493647	-2.082407	-0.724960	-0.154785	0.202148	-1.036377	-0.000813	0.054238	0.072862	-0.963469	0.103604	0.221350	0.109531	-9.740201	-26.693903	-10.655389
46123		6.855049	-5.991962	7.745729	1.218925	-4.875642	1.032892	-0.682424	-2.412607	-0.435757	-0.175293	0.206299	-1.031982	0.067477	-0.059801	0.078480	-0.960118	0.107758	0.232839	0.111118	-10.131927	-28.102717	-10.661303
46124		20.819789	-13.667795	13.048211	8.681824	-12.996174	13.558856	0.151772	-2.137710	-0.330216	-0.199463	0.197021	-1.033936	0.206562	-0.137120	0.132592	-0.957460	0.107863	0.243384	0.111357	-10.065409	-29.346070	-10.625999
46125		14.815512	-1.359449	11.806530	7.037480	-0.647787	7.816632	0.806392	-0.675549	-0.338576	-0.197021	0.192627	-1.029541	0.147731	-0.014322	0.118508	-0.956858	0.104002	0.247280	0.111620	-9.537177	-29.764781	-10.767278
46126		1.903594	5.310767	8.363699	-0.757188	6.869174	-2.462842	0.384710	-0.551825	-0.322950	-0.208252	0.187988	-1.029297	0.018890	0.052916	0.083791	-0.956177	0.102107	0.250335	0.112391	-9.246196	-30.111276	-10.915624
46127		10.326977	-3.544136	10.387895	3.056087	-2.471892	4.736032	0.146050	-0.425639	-0.295821	-0.210449	0.185547	-1.035889	0.102996	-0.035670	0.104072	-0.955538	0.101314	0.252636	0.113395	-9.092369	-30.383389	-11.061687
46128		4.090156	-3.687341	7.578780	-1.020280	-2.305805	-0.790162	0.282932	-0.128436	-0.216465	-0.212402	0.181152	-1.035645	0.040813	-0.037025	0.075762	-0.955382	0.099799	0.253554	0.113996	-8.869919	-30.479820	-11.187683
46129		5.072216	-0.342622	8.868656	0.087494	1.011732	0.359157	0.301169	-0.167285	-0.272852	-0.218994	0.176514	-1.037842	0.050643	-0.003629	0.088724	-0.955151	0.098146	0.254694	0.114824	-8.619604	-30.602713	-11.347483
46130		6.290796	-1.637166	9.237881	0.566515	-0.374492	1.462573	0.273768	-0.146447	-0.302259	-0.221191	0.176514	-1.033447	0.062815	-0.016593	0.092402	-0.954911	0.096575	0.255733	0.115836	-8.373425	-30.715691	-11.529463
46131		5.442461	-1.365732	8.359957	0.313082	-0.217237	0.248584	0.214929	-0.010034	-0.276542	-0.218750	0.167725	-1.033203	0.054401	-0.013822	0.083588	-0.954829	0.095238	0.256073	0.116867	-8.162342	-30.748581	-11.708276
46132		4.835471	-2.273374	8.507566	-0.527975	-0.975613	0.172200	0.275765	-0.019147	-0.334902	-0.220947	0.167725	-1.033203	0.048308	-0.022932	0.085049	-0.954726	0.093541	0.256518	0.118094	-7.896973	-30.790670	-11.924940
46133		5.106505	-1.785601	8.562177	-0.209291	-0.587006	0.296073	0.347819	0.002063	-0.399608	-0.218506	0.165527	-1.035400	0.051030	-0.018107	0.085590	-0.954641	0.091404	0.256934	0.119546	-7.567090	-30.824741	-12.186665
46134		5.356801	-1.184495	8.500399	0.177970	-0.121914	0.302072	0.371462	0.002018	-0.409221	-0.213867	0.156738	-1.035156	0.053544	-0.012112	0.084981	-0.954553	0.089141	0.257367	0.121013	-7.220156	-30.858214	-12.455022
46135		5.624745	-0.488507	8.741585	0.467375	0.501174	0.571045	0.313428	0.025697	-0.360666	-0.225098	0.158691	-1.037354	0.056250	-0.005123	0.087401	-0.954494	0.087203	0.257628	0.122332	-6.921687	-30.873506	-12.693484
46136		5.423093	-0.713295	8.744424	0.222562	0.284643	0.495223	0.250778	0.002792	-0.301803	-0.224854	0.154297	-1.035156	0.054221	-0.007324	0.087434	-0.954409	0.085653	0.257934	0.123441	-6.679985	-30.896865	-12.891203
46137		5.071226	-0.949860	8.690649	-0.125317	0.082634	0.292971	0.200956	-0.034086	-0.247499	-0.219971	0.143311	-1.037109	0.050686	-0.009649	0.086905	-0.954286	0.084433	0.258360	0.124339	-6.486554	-30.937012	-13.050284
46138		5.086003	-1.080974	8.623223	-0.132791	-0.084892	0.255630	0.175888	-0.076155	-0.212706	-0.222412	0.147705	-1.034912	0.050816	-0.010940	0.086242	-0.954117	0.083404	0.258957	0.125085	-6.320804	-30.998451	-13.183311
46139		5.101366	-1.393074	8.390354	-0.114957	-0.459461	0.093788	0.187656	-0.098172	-0.197337	-0.222168	0.140869	-1.034912	0.050959	-0.014060	0.083915	-0.953932	0.082352	0.259659	0.125733	-6.154059	-31.071150	-13.304870
46140		5.064081	-1.141905	8.560025	-0.173787	-0.195505	0.195030	0.194537	-0.102285	-0.177262	-0.222412	0.147705	-1.037109	0.050587	-0.011547	0.085615	-0.953756	0.081296	0.260376	0.126274	-5.990171	-31.144668	-13.413071
46141		5.093861	-0.668641	8.893674	-0.193738	0.304925	0.451881	0.186744	-0.143372	-0.138886	-0.229004	0.143066	-1.034912	0.050870	-0.006805	0.088967	-0.953545	0.080353	0.261268	0.126626	-5.845106	-31.239091	-13.493235
46142		4.882441	-0.366248	9.090007	-0.401700	0.664854	0.482803	0.149846	-0.209600	-0.095626	-0.233398	0.138428	-1.041260	0.048727	-0.003754	0.090948	-0.953259	0.079684	0.262434	0.126793	-5.738245	-31.368608	-13.540354
46143		4.898850	-0.333646	9.227360	-0.475184	0.716117	0.604390	0.091475	-0.298647	-0.088809	-0.237793	0.138428	-1.032471	0.048849	-0.003400	0.092345	-0.952834	0.079358	0.263985	0.126968	-5.669980	-31.548439	-13.577337
46144		4.293645	-1.769213	9.325034	-1.471242	-0.511873	0.487556	0.031770	-0.416396	-0.144270	-0.242432	0.140625	-1.039063	0.042729	-0.017738	0.093337	-0.952192	0.079319	0.266079	0.127439	-5.620288	-31.798505	-13.643927
46145		4.291504	-1.456470	9.479764	-1.513887	-0.176607	0.583507	0.089535	-0.564651	-0.213934	-0.249023	0.135986	-1.034668	0.042632	-0.014653	0.094912	-0.951324	0.079005	0.268942	0.128105	-5.517184	-32.136890	-13.748301
46146		4.788806	-1.704111	9.431425	-1.226480	-0.525820	0.817791	0.195534	-0.743718	-0.217234	-0.257813	0.131348	-1.034424	0.047518	-0.017185	0.094475	-0.950243	0.078297	0.272722	0.128572	-5.357037	-32.577407	-13.844694
46147		4.667121	1.074465	10.114928	-0.967020	2.297348	1.097597	0.250608	-0.949204	-0.192755	-0.266602	0.126709	-1.029785	0.046201	0.010573	0.101383	-0.948899	0.077490	0.277499	0.128764	-5.179457	-33.133586	-13.913747
46148		4.282833	-1.948918	9.692694	-2.053884	-0.591671	0.747582	-0.015251	-1.205584	-0.250964	-0.280273	0.133057	-1.023193	0.042219	-0.019535	0.097184	-0.947029	0.078027	0.283335	0.129498	-5.139403	-33.838999	-14.008481
46149		4.341430	0.423998	9.801840	-1.513920	1.715238	0.669103	-0.016673	-1.427113	-0.286512	-0.295898	0.128418	-1.018555	0.042719	0.004187	0.098325	-0.944778	0.078660	0.290219	0.130310	-5.092093	-34.672509	-14.115683
46150		4.929870	-0.111486	9.142848	-1.009266	0.976601	0.479684	-0.075218	-1.644474	-0.266323	-0.311523	0.127930	-1.016357	0.048543	-0.001145	0.091830	-0.942143	0.079736	0.298066	0.131018	-5.091992	-35.629082	-14.196753
46151		4.981487	0.203779	8.731327	-0.822767	1.219583	0.133455	-0.097211	-1.807844	-0.226145	-0.332031	0.132080	-1.011963	0.049025	0.002025	0.087758	-0.939210	0.081075	0.306629	0.131495	-5.125699	-36.676745	-14.239939
46152		5.376672	0.045896	8.177246	-0.431794	0.915136	-0.078664	-0.126646	-1.919178	-0.196601	-0.352051	0.129395	-1.002930	0.052979	0.000459	0.082283	-0.936029	0.082665	0.315657	0.131821	-5.193214	-37.786560	-14.254032
46153		5.586482	-0.111193	7.826168	-0.298056	0.698990	-0.226779	-0.159093	-1.964512	-0.170773	-0.367920	0.133545	-0.998535	0.055092	-0.001097	0.078806	-0.932691	0.084469	0.324833	0.132046	-5.293682	-38.920771	-14.244649
46154		6.038617	-0.922597	7.172915	-0.000090	-0.258920	-0.394790	-0.154006	-1.984382	-0.173640	-0.392578	0.133057	-0.989502	0.059662	-0.009222	0.072331	-0.929227	0.086249	0.334075	0.132254	-5.392749	-40.066587	-14.233094
46155		5.901701	-1.051211	7.135662	-0.296899	-0.307145	-0.503152	-0.166906	-1.970886	-0.213925	-0.406250	0.137207	-0.980469	0.058299	-0.010515	0.071942	-0.925661	0.088004	0.343229	0.132665	-5.480645	-41.206741	-14.250341
46156		6.241192	-1.375902	6.847497	-0.151056	-0.697382	-0.473430	-0.160520	-1.965413	-0.289299	-0.426270	0.134521	-0.976074	0.061715	-0.013793	0.069095	-0.921965	0.089589	0.352362	0.133401	-5.527068	-42.348065	-14.323926
46157		6.369614	-1.307741	6.812672	-0.197707	-0.615073	-0.417246	-0.193761	-1.959212	-0.383188	-0.448730	0.131836	-0.960205	0.063000	-0.013132	0.068759	-0.918109	0.091147	0.361449	0.134620	-5.540872	-43.490932	-14.471831
46158		6.350609	-1.337280	6.816022	-0.406848	-0.592617	-0.428820	-0.182764	-1.966038	-0.475627	-0.464111	0.127197	-0.953369	0.062800	-0.013460	0.068792	-0.914089	0.092484	0.370581	0.136224	-5.493377	-44.642891	-14.695674
46159		6.465494	-1.154395	6.685676	-0.372286	-0.434605	-0.458386	-0.187150	-1.986348	-0.570532	-0.487061	0.135498	-0.946777	0.063953	-0.011664	0.067505	-0.909868	0.093668	0.379807	0.138248	-5.386854	-45.811233	-15.001723
46160		6.491279	-0.836176	6.698079	-0.452226	-0.097772	-0.459461	-0.188581	-2.038237	-0.635950	-0.502686	0.133057	-0.931152	0.064199	-0.008503	0.067645	-0.905401	0.094761	0.389256	0.140531	-5.232964	-47.012297	-15.368145
46161		6.406910	-0.402783	6.930962	-0.721424	0.428674	-0.403053	-0.179191	-2.126067	-0.672895	-0.524902	0.128174	-0.922119	0.063314	-0.004179	0.069989	-0.900632	0.095789	0.399080	0.142906	-5.039800	-48.264458	-15.773273
46162		6.411085	-0.400387	7.087237	-1.035011	0.515498	-0.317942	-0.179476	-2.264495	-0.687140	-0.549805	0.132080	-0.908691	0.063289	-0.004158	0.071596	-0.895455	0.096876	0.409481	0.145259	-4.826385	-49.595515	-16.197338
46163		6.233951	-0.433738	7.143247	-1.419166	0.577810	-0.446596	-0.143679	-2.449337	-0.693669	-0.574219	0.126953	-0.895264	0.061443	-0.004500	0.072192	-0.889777	0.097909	0.420674	0.147457	-4.575807	-51.031119	-16.634513
46164		6.213894	-0.022790	7.136321	-1.524085	1.014891	-0.529278	-0.098669	-2.701320	-0.673548	-0.600830	0.117676	-0.881592	0.061166	-0.000400	0.072194	-0.883446	0.098953	0.432938	0.149320	-4.301408	-52.608653	-17.059895
46165		5.919262	0.663910	7.616320	-2.069255	1.915777	-0.564567	-0.052225	-3.026280	-0.600059	-0.632324	0.119141	-0.859131	0.058051	0.006484	0.077046	-0.876297	0.100171	0.446540	0.150566	-4.044627	-54.367372	-17.421019
46166		5.619614	0.843838	7.937551	-2.703147	2.309258	-0.721599	-0.006944	-3.454985	-0.528539	-0.663818	0.120605	-0.841309	0.054836	0.008295	0.080330	-0.868029	0.101647	0.461898	0.151141	-3.813912	-56.367612	-17.710433
46167		5.100903	1.208571	8.353403	-3.488040	2.957196	-1.075678	0.020324	-3.984842	-0.455556	-0.692871	0.120117	-0.814697	0.049359	0.011963	0.084530	-0.858298	0.103536	0.479373	0.151015	-3.632386	-58.667201	-17.916066
46168		4.630706	1.169234	8.617865	-4.296256	3.184125	-1.538334	0.056386	-4.615463	-0.397745	-0.735352	0.112549	-0.781006	0.044325	0.011578	0.087220	-0.846714	0.105837	0.499327	0.150154	-3.497794	-61.325309	-18.038154
46169		4.645013	0.719323	8.578742	-4.807190	2.864743	-1.790791	0.112060	-5.249598	-0.373074	-0.769043	0.116211	-0.736328	0.044191	0.007061	0.086971	-0.833074	0.108374	0.521683	0.148626	-3.376117	-64.344727	-18.106864
46170		3.838792	0.856930	9.499182	-6.274844	3.527540	-2.473910	0.243326	-5.891111	-0.380262	-0.820313	0.104004	-0.691406	0.035584	0.008383	0.096078	-0.817172	0.110738	0.546405	0.146317	-3.189987	-67.731619	-18.161721
46171		2.727674	1.661420	10.340201	-7.532760	4.805014	-3.709933	0.348315	-6.967611	-0.283511	-0.873779	0.100586	-0.626709	0.023676	0.016398	0.104297	-0.797605	0.113609	0.574969	0.142582	-3.157942	-71.730724	-17.987225
46172		4.176034	2.546912	11.096809	-7.950408	5.896126	-2.812017	0.191805	-8.376124	0.008392	-0.925537	0.103760	-0.549072	0.037065	0.025363	0.112611	-0.772921	0.118776	0.608017	0.137116	-4.151848	-76.524639	-16.844224
46173		8.263788	0.134043	10.884899	-8.446886	3.594506	0.304925	-0.448183	-9.887219	0.448436	-0.979736	0.113525	-0.455566	0.077123	0.001767	0.112750	-0.741944	0.128539	0.644911	0.130716	-9.303207	-82.129476	-11.873828
46174		20.470401	-0.080684	11.029014	-8.503594	3.867157	11.468239	-1.060918	-10.856896	0.949301	-1.020508	0.130127	-0.344971	0.198320	0.000769	0.121174	-0.705749	0.142469	0.682921	0.123449	-50.641626	-87.592198	28.960850
46175		17.225295	1.846978	8.438787	-7.352121	5.691524	7.054069	-1.974077	-11.409218	1.076053	-1.057129	0.149170	-0.225342	0.166972	0.020273	0.093823	-0.664851	0.159939	0.720036	0.118070	-154.163031	-84.384913	131.461088
46176		30.743503	-6.049821	13.916865	-18.639203	2.861906	18.796529	-1.819436	-11.576472	0.719624	-1.075195	0.159424	-0.101074	0.298893	-0.058036	0.157176	-0.620989	0.175163	0.755627	0.112775	-166.952283	-77.953968	143.324508
46177		26.955769	-15.687480	11.704004	-22.697419	-5.879169	13.828202	-0.923914	-11.648274	-0.317429	-1.076904	0.152588	0.023438	0.261863	-0.156704	0.133171	-0.574929	0.183135	0.790251	0.106875	-172.490699	-71.409391	148.504216
46178		33.077817	-18.456579	17.706831	-33.264468	-4.307060	15.124164	-0.197084	-10.407313	-1.464561	-1.076172	0.141113	0.119141	0.319608	-0.186748	0.194082	-0.532032	0.183256	0.820314	0.102196	-176.213983	-65.549927	152.376014
46179		30.796789	-7.903986	25.246703	-36.357943	7.852214	6.427217	0.018706	-8.456465	-1.747246	-1.059570	0.118896	0.195068	0.296227	-0.081687	0.265153	-0.495960	0.180231	0.843653	0.098941	-178.612494	-60.750637	155.068929
46180		22.540158	1.713856	25.091270	-29.534098	15.010608	-3.275635	-1.432802	-5.244187	-1.014372	-1.045410	0.105713	0.239502	0.218812	0.017842	0.256582	-0.471820	0.182061	0.856553	0.102747	179.547387	-57.745948	156.250176
46181		45.496574	-11.350395	29.054515	-49.435353	10.267906	12.397375	-4.092306	-2.430521	-0.016318	-1.036621	0.105957	0.239502	0.451363	-0.107490	0.298286	-0.457524	0.192885	0.859955	0.118089	177.247904	-56.351730	156.190394
46182		30.312582	-24.876335	27.983442	-47.022441	-4.514221	-0.369744	-2.597722	2.507290	0.207286	-1.036865	0.110596	0.203857	0.306884	-0.244817	0.279200	-0.465807	0.198237	0.852358	0.131194	175.807674	-57.788226	156.128792
46183		14.022028	-23.770987	18.169062	-31.212057	-10.695122	-8.042893	0.150660	4.173785	0.049458	-1.036865	0.112793	0.152832	0.144027	-0.237810	0.178532	-0.483661	0.195366	0.842494	0.134567	175.645609	-60.174271	156.412529
46184		9.198788	-14.129688	13.910906	-21.209874	-5.176031	-8.796383	2.308693	4.934935	-0.229288	-1.025879	0.113281	0.092773	0.095192	-0.142980	0.135142	-0.506329	0.185458	0.832039	0.130178	176.362520	-62.981164	157.097585
46185		5.792570	-5.936570	11.716537	-14.351519	0.210498	-9.764517	3.038133	5.279177	-0.364455	-1.015137	0.124756	0.032471	0.060864	-0.061230	0.114664	-0.530668	0.172498	0.820649	0.123175	177.310981	-65.990535	158.004956
46186		4.220584	0.267875	11.043424	-10.706066	5.008692	-10.117446	2.562100	5.530637	-0.240097	-1.008789	0.131836	-0.023193	0.045240	0.001221	0.109233	-0.555136	0.161263	0.807396	0.118023	178.142743	-69.146746	158.689628
46187		4.247981	2.848710	10.698323	-9.513741	7.056261	-9.288413	1.401359	5.830694	0.062076	-0.995850	0.145508	-0.074463	0.045569	0.027756	0.105881	-0.579592	0.154106	0.791628	0.116832	178.793176	-72.487487	158.852746
46188		4.652266	1.503349	10.059456	-9.561352	5.526652	-8.053779	0.310378	6.248146	0.361295	-0.973877	0.157227	-0.136963	0.049607	0.014967	0.099100	-0.604450	0.150946	0.773058	0.119322	179.522212	-76.065437	158.276845
46189		5.186315	-1.349751	9.243306	-9.872501	2.593771	-6.662836	-0.193797	6.710203	0.539162	-0.945557	0.173340	-0.188477	0.054961	-0.013264	0.090636	-0.630174	0.149805	0.751771	0.123612	-179.035287	-79.908218	156.652491
46190		4.869823	-3.496814	8.421456	-9.662044	0.231490	-6.150316	-0.086025	7.132981	0.587857	-0.921387	0.187256	-0.237793	0.051762	-0.034783	0.082420	-0.656843	0.147817	0.728346	0.127354	-175.265543	-83.970830	152.794271
46191		4.518538	-3.357926	7.738246	-8.680922	0.010632	-5.790780	0.319959	7.397373	0.562352	-0.892578	0.197021	-0.289307	0.048098	-0.033569	0.075585	-0.683832	0.144510	0.703254	0.130092	-154.611572	-88.039962	132.215427
46192		4.193249	-1.446995	7.346088	-7.290227	1.499939	-5.545400	0.579232	7.540497	0.595037	-0.865967	0.202148	-0.351563	0.044703	-0.014549	0.071768	-0.710623	0.139650	0.676942	0.131381	-24.846054	-87.189549	2.741336
46193		3.855435	1.118451	7.235750	-5.935891	3.710433	-5.403796	0.474087	7.548297	0.700856	-0.843994	0.213867	-0.400879	0.041209	0.011157	0.070862	-0.736445	0.135333	0.649446	0.132487	-12.811390	-82.942346	-9.063488
46194		4.747726	2.904463	7.399019	-4.949190	5.299159	-4.058326	-0.018999	7.492399	0.866592	-0.810547	0.221191	-0.447754	0.050077	0.029265	0.072144	-0.760779	0.133196	0.620828	0.134336	-10.492039	-78.641057	-11.426002
46195		6.253650	2.897771	7.683375	-4.402734	5.235970	-2.086473	-0.631545	7.496567	1.060065	-0.781982	0.230713	-0.505859	0.065199	0.029556	0.074330	-0.783788	0.133809	0.590722	0.137184	-10.151830	-74.304795	-12.154518
46196		7.665585	1.407658	7.932350	-4.122499	3.770623	-0.200615	-1.052009	7.560362	1.242320	-0.735352	0.242920	-0.559570	0.079487	0.014971	0.076277	-0.805649	0.136353	0.559134	0.140379	-10.526700	-69.919946	-12.397766
46197		8.911631	-0.549797	8.411432	-4.029112	1.949338	1.604877	-1.092779	7.650006	1.377256	-0.690918	0.257324	-0.611084	0.092279	-0.004423	0.080651	-0.826634	0.139181	0.526167	0.143016	-11.051805	-65.464673	-12.514237
46198		10.349732	-1.794059	9.468574	-3.822328	0.940613	3.766356	-0.828318	7.749827	1.455351	-0.639648	0.267334	-0.662598	0.107188	-0.016788	0.090650	-0.846809	0.140820	0.492155	0.144458	-11.439856	-60.951281	-12.615278
46199		11.732203	-1.311457	10.501056	-2.653382	1.433817	5.692318	-0.491813	7.898392	1.547883	-0.581787	0.275391	-0.711914	0.121441	-0.011935	0.100298	-0.866325	0.140941	0.456852	0.144580	-11.667692	-56.337711	-12.685963
46200		12.099658	-0.425159	11.834445	-1.829808	2.459661	6.832969	-0.356453	8.050692	1.672492	-0.519043	0.283203	-0.761230	0.125656	-0.003009	0.113354	-0.884914	0.140406	0.420197	0.143696	-11.875071	-51.630779	-12.686516
46201		13.260908	-0.464254	13.138923	-0.618373	2.476708	8.680029	-0.404149	8.158098	1.799912	-0.449951	0.291504	-0.808350	0.137852	-0.003159	0.125844	-0.902286	0.140037	0.382163	0.142203	-12.154419	-46.841836	-12.631536
46202		15.024153	-1.643979	13.968939	1.210687	1.140085	10.694401	-0.416682	8.230264	1.971526	-0.369141	0.293213	-0.844238	0.155968	-0.014639	0.133380	-0.918291	0.139745	0.343056	0.139733	-12.494506	-41.998036	-12.492039
46203		17.308801	-3.109016	14.149606	4.036980	-0.822155	12.372668	-0.239063	8.248159	2.159937	-0.279297	0.294922	-0.880371	0.179046	-0.029014	0.134228	-0.932853	0.138956	0.303120	0.136363	-12.793775	-37.115878	-12.321925
46204		20.056822	-3.368625	14.116837	8.021970	-1.864972	13.526287	0.033168	8.191062	2.372823	-0.187256	0.292480	-0.911865	0.206503	-0.031282	0.132785	-0.946043	0.136725	0.263057	0.130804	-12.973156	-32.241948	-11.979662
46205		23.198558	-1.961447	13.695006	13.236388	-1.542323	13.672574	0.189930	8.077390	2.685657	-0.092773	0.291992	-0.927734	0.237497	-0.016573	0.127414	-0.957647	0.134109	0.222849	0.123551	-13.135751	-27.384486	-11.489338
46206		26.478587	-0.151765	12.824032	18.896473	-0.850881	12.710461	0.142418	7.856820	3.150642	-0.000488	0.287109	-0.925781	0.269529	0.002618	0.117713	-0.967572	0.132002	0.183050	0.113455	-13.396477	-22.592846	-10.687820
46207		29.692857	-0.114281	10.593399	24.311401	-1.939999	10.150599	0.066336	7.468389	3.636421	0.089600	0.284424	-0.924072	0.300562	0.004268	0.094754	-0.975657	0.130740	0.144367	0.100795	-13.742829	-17.942420	-9.616883
46208		32.764150	-1.807029	6.706910	29.250171	-4.767122	5.771357	0.278992	6.847271	3.906451	0.168213	0.283691	-0.911133	0.329951	-0.011723	0.055778	-0.981982	0.128682	0.108483	0.085924	-13.936097	-13.601695	-8.331221
46209		35.609938	-4.382315	0.819826	33.636051	-8.666264	-0.817837	0.873972	6.089953	3.655776	0.234375	0.262695	-0.893066	0.356847	-0.037308	-0.002834	-0.986773	0.123739	0.076509	0.071518	-13.689020	-9.711865	-7.122241
46210		35.836681	-5.296253	-6.075076	35.119609	-10.736536	-9.423750	1.536201	5.229142	2.671966	0.289063	0.241455	-0.881836	0.357269	-0.047668	-0.070482	-0.990219	0.115290	0.049611	0.060934	-12.926080	-6.448012	-6.311428
46211		35.597355	-1.545620	-11.889298	35.809710	-8.008707	-17.824676	1.541257	4.217205	1.339538	0.327637	0.231201	-0.866211	0.353449	-0.012128	-0.126466	-0.992277	0.106728	0.028397	0.056478	-12.069059	-3.922692	-6.100454
46212		35.168013	1.627687	-15.310686	35.546763	-5.440170	-23.250172	0.583434	3.133005	0.273326	0.354980	0.224854	-0.841797	0.349202	0.017212	-0.158541	-0.992980	0.103007	0.012906	0.056686	-11.726884	-2.138139	-6.315005
46213		34.391787	-1.342155	-16.987513	34.057088	-8.737260	-25.204097	-0.391319	2.011331	-0.290621	0.363525	0.231689	-0.837646	0.342166	-0.014256	-0.173295	-0.992751	0.104423	0.002938	0.059437	-11.947598	-1.045457	-6.743121
46214		34.602301	-3.381224	-16.002034	33.761141	-10.799224	-24.247594	-0.489641	0.850374	-0.428772	0.372314	0.242920	-0.831299	0.345265	-0.034947	-0.161405	-0.992364	0.106625	-0.001168	0.061997	-12.226672	-0.624712	-7.082799
46215		37.200464	-1.516022	-14.182565	36.500069	-9.143390	-22.906906	-0.503818	-0.099411	-0.281503	0.367676	0.247314	-0.826904	0.372053	-0.016041	-0.141601	-0.991996	0.109197	-0.000674	0.063400	-12.518119	-0.716766	-7.235161
46216		34.669479	-2.793803	-12.652923	33.881976	-9.894117	-20.947296	-0.516210	-0.854161	-0.474623	0.362793	0.256104	-0.827148	0.347163	-0.029085	-0.124973	-0.991549	0.112061	0.003696	0.065266	-12.814689	-1.258096	-7.390545
46217		25.849987	-8.407949	-10.528387	24.499267	-13.884654	-17.344716	-0.238390	-2.033685	-1.025767	0.335693	0.257813	-0.826904	0.259116	-0.085531	-0.102550	-0.990970	0.113920	0.014293	0.069253	-12.945359	-2.527961	-7.708304
46218		-7.828935	-11.075797	4.105459	-9.535775	-8.672910	-3.927180	1.191409	-4.149112	-1.951695	0.297607	0.257080	-0.837891	-0.080187	-0.110217	0.038746	-0.990395	0.109316	0.036406	0.076436	-12.228061	-5.096001	-8.280195
46219		-8.183256	1.172016	16.438785	-9.197592	5.946210	4.970548	1.178683	-5.315915	-1.705626	0.243408	0.258301	-0.853271	-0.086065	0.011482	0.162206	-0.989005	0.105208	0.064115	0.081787	-11.519251	-8.281040	-8.618061
46220		-8.259849	-4.915647	2.949381	-9.357602	-2.867588	-7.520001	0.296002	-7.665486	-1.455608	0.162598	0.256836	-0.863770	-0.084000	-0.048589	0.026219	-0.985350	0.106366	0.102885	0.084778	-11.363517	-12.755468	-8.560765
46221		43.999083	0.043935	23.245040	36.902614	-0.848420	23.541785	0.488116	-7.562410	-1.098269	0.111084	0.251465	-0.865723	0.430778	-0.002538	0.248854	-0.980526	0.106560	0.140873	0.085840	-11.149112	-17.130744	-8.321965
46222		30.223735	2.418830	19.498630	23.335789	2.779574	17.517821	0.495448	-5.010328	-0.770347	0.066162	0.250488	-0.865479	0.297315	0.022541	0.202533	-0.976604	0.105740	0.166047	0.086556	-10.908502	-20.037153	-8.196987
46223		20.154375	3.570087	16.647047	13.926017	4.709480	12.093044	0.203644	-4.051670	-0.706536	0.032471	0.249756	-0.865234	0.198240	0.034824	0.170545	-0.972827	0.105925	0.186289	0.087664	-10.811751	-22.397161	-8.151711
46224		6.343040	-1.074455	7.457891	2.853383	-0.050306	-0.386422	-0.068402	-3.485343	-0.385384	0.000732	0.255859	-0.858643	0.062097	-0.010839	0.075673	-0.969215	0.107446	0.203422	0.087730	-10.924622	-24.404226	-7.974993
46225		4.818043	-2.085671	7.309258	0.993656	-0.791400	-0.903939	-0.112600	-3.775284	-0.190748	-0.035156	0.259766	-0.858643	0.046769	-0.020860	0.073996	-0.965047	0.109470	0.221767	0.086714	-11.139865	-26.552397	-7.632666
46226		25.624817	-6.695864	15.313905	14.554223	-5.625644	16.501115	0.458087	-3.445630	-0.627644	-0.057129	0.243652	-0.858154	0.253349	-0.068114	0.157365	-0.961043	0.108076	0.238935	0.087323	-10.894851	-28.563221	-7.602414
46227		22.403171	-2.701832	13.744986	12.669841	-1.845816	13.299603	0.874029	-1.438072	-0.609307	-0.063721	0.239014	-0.857910	0.222951	-0.028304	0.138934	-0.959481	0.103808	0.246583	0.088415	-10.292649	-29.441774	-7.818676
46228		6.362136	3.262157	10.061577	1.574782	4.812912	1.443795	0.475479	-0.887123	-0.251253	-0.072754	0.241211	-0.855713	0.063215	0.032302	0.100974	-0.958498	0.101644	0.251211	0.088562	-9.995324	-29.971791	-7.875928
46229		9.950611	-0.010004	10.354181	3.693030	1.283880	4.005283	0.136915	-0.594552	-0.155233	-0.074951	0.240967	-0.855713	0.099198	-0.000248	0.103837	-0.957734	0.101092	0.254237	0.088820	-9.904969	-30.327438	-7.906299
46230		6.254740	-2.287404	9.216869	0.497333	-0.744279	1.523240	0.031544	-0.361949	-0.044511	-0.077148	0.238770	-0.855713	0.062375	-0.022902	0.092278	-0.957257	0.101081	0.256041	0.088800	-9.897999	-30.540451	-7.891248
46231		5.710296	-0.635596	9.303716	0.319774	0.940743	1.076906	-0.032185	-0.324183	-0.015859	-0.088379	0.236328	-0.853271	0.056952	-0.006346	0.093131	-0.956804	0.101394	0.257626	0.088742	-9.934869	-30.729819	-7.861594
46232		6.829968	-1.940635	9.063920	1.065769	-0.490287	1.641257	-0.111815	-0.270475	0.031931	-0.088379	0.236328	-0.853271	0.068180	-0.019345	0.090742	-0.956399	0.102126	0.258889	0.088586	-10.030635	-30.883604	-7.806490
46233		5.814939	0.355634	9.406905	0.524353	1.949633	1.066362	-0.196056	-0.252197	0.135394	-0.088623	0.245361	-0.855713	0.058028	0.003688	0.094139	-0.956018	0.103386	0.259978	0.088053	-10.208786	-31.017085	-7.684937
46234		5.609239	-0.961900	8.910497	0.274014	0.625691	0.738093	-0.371056	-0.280961	0.222738	-0.086182	0.240967	-0.855713	0.055978	-0.009391	0.089201	-0.955543	0.105609	0.261076	0.087315	-10.519509	-31.156793	-7.501640
46235		5.346175	-1.884415	8.523196	0.012462	-0.275724	0.419665	-0.393380	-0.303059	0.240457	-0.090820	0.245117	-0.853516	0.053355	-0.018612	0.085350	-0.955027	0.107969	0.262264	0.086509	-10.851292	-31.306732	-7.302757
46236		5.409345	-1.168923	8.636551	0.149776	0.490116	0.432041	-0.427597	-0.319566	0.265419	-0.091064	0.251953	-0.853760	0.053971	-0.011433	0.086476	-0.954475	0.110533	0.263496	0.085619	-11.213736	-31.461630	-7.083911
46237		5.330272	-1.165330	8.672878	0.044518	0.573140	0.417549	-0.478682	-0.348291	0.308290	-0.095947	0.258545	-0.847168	0.053169	-0.011364	0.086849	-0.953864	0.113406	0.264821	0.084575	-11.623363	-31.627103	-6.831422
46238		5.010836	-1.069235	8.872981	-0.325440	0.818598	0.395400	-0.520870	-0.398343	0.345768	-0.102783	0.264893	-0.847168	0.049950	-0.010375	0.088857	-0.953167	0.116552	0.266337	0.083379	-12.075691	-31.814042	-6.545349
46239		4.578286	-2.158211	8.630053	-0.842057	-0.176099	0.155050	-0.544431	-0.486416	0.339213	-0.103027	0.269287	-0.845215	0.045609	-0.021269	0.086470	-0.952321	0.119835	0.268268	0.082193	-12.547860	-32.049683	-6.248559
46240		4.496685	-2.943769	8.042245	-0.831902	-1.012612	-0.229068	-0.473938	-0.564832	0.283564	-0.110107	0.278076	-0.843018	0.044781	-0.029183	0.080618	-0.951375	0.122739	0.270626	0.081129	-12.969305	-32.333646	-5.973727
46241		4.388125	-3.615159	7.735455	-0.963469	-1.674172	-0.408924	-0.345460	-0.627411	0.189476	-0.116943	0.282471	-0.845215	0.043672	-0.035976	0.077554	-0.950370	0.124927	0.273391	0.080299	-13.291578	-32.663804	-5.748413
46242		3.988356	-3.378217	8.159391	-1.512033	-1.252580	-0.323778	-0.203142	-0.726285	0.099352	-0.121338	0.280029	-0.843018	0.039604	-0.033679	0.081772	-0.949269	0.126355	0.276731	0.079640	-13.511269	-33.059588	-5.564455
46243		3.777806	-2.177774	9.082097	-1.958843	0.208600	0.067484	-0.190094	-0.863811	0.033931	-0.128418	0.288818	-0.843262	0.037389	-0.021685	0.091004	-0.947943	0.127682	0.280770	0.079185	-13.714239	-33.540716	-5.399213
46244		3.422365	-3.070992	9.283982	-2.644763	-0.516675	0.190968	-0.328225	-1.036398	-0.062311	-0.139648	0.288574	-0.838623	0.033732	-0.030568	0.093066	-0.946225	0.129594	0.285623	0.079268	-13.979640	-34.129973	-5.266562
46245		3.446804	-4.843366	8.871386	-2.921275	-2.286388	0.201161	-0.228366	-1.258990	-0.268168	-0.153076	0.288330	-0.829834	0.033844	-0.048378	0.088983	-0.944137	0.130823	0.291694	0.080035	-14.133706	-34.871606	-5.231491
46246		4.969566	-2.400181	8.450713	-1.033381	-0.162769	0.226034	-0.212600	-1.350308	-0.410827	-0.162109	0.288330	-0.832031	0.049074	-0.024013	0.084865	-0.941825	0.131801	0.298279	0.081389	-14.233614	-35.683508	-5.275442
46247		5.182517	-4.027785	7.508355	-0.873202	-1.984514	-0.078503	-0.183256	-1.347686	-0.581615	-0.175537	0.285645	-0.825195	0.051200	-0.040358	0.075467	-0.939416	0.132377	0.304963	0.083501	-14.247024	-36.518405	-5.436654
46248		5.686436	-3.800013	7.261605	-0.430257	-1.874374	-0.024624	-0.025139	-1.335120	-0.765914	-0.189209	0.289795	-0.820801	0.056232	-0.038207	0.072998	-0.937000	0.131917	0.311755	0.086241	-14.087794	-37.371658	-5.731319
46249		7.194066	-1.865614	7.172417	1.132705	-0.192220	0.451661	-0.114724	-1.243532	-0.852059	-0.207031	0.285156	-0.822754	0.071413	-0.018920	0.072180	-0.934575	0.131695	0.318121	0.089578	-13.925711	-38.185608	-6.108814
46250		6.080348	-3.279049	6.828221	-0.038961	-1.561768	-0.225969	-0.003735	-1.135482	-0.888867	-0.215820	0.284912	-0.820557	0.060268	-0.033058	0.068626	-0.932328	0.130841	0.324036	0.092978	-13.662850	-38.943023	-6.539478
46251		5.944557	-2.848056	7.006498	-0.271521	-1.115002	-0.261685	0.171171	-1.097928	-0.956111	-0.229004	0.275879	-0.820313	0.058923	-0.028823	0.070365	-0.930175	0.129038	0.329887	0.096427	-13.254170	-39.686858	-7.035155
46252		6.210776	-2.726797	7.161581	-0.263130	-1.020709	-0.005315	0.252385	-1.070399	-1.031236	-0.238037	0.273438	-0.815674	0.061581	-0.027677	0.071912	-0.928033	0.126712	0.335676	0.100105	-12.747264	-40.421556	-7.603546
46253		7.586955	-0.054743	6.920250	1.511321	1.249839	0.267340	0.163120	-1.035799	-1.026773	-0.244629	0.270996	-0.813477	0.075505	-0.000992	0.069593	-0.925841	0.124785	0.341242	0.103927	-12.275250	-41.132970	-8.188453
46254		6.350914	-0.928397	7.506798	-0.136114	0.690003	0.038807	0.090674	-1.102524	-0.946740	-0.255371	0.261963	-0.808594	0.063049	-0.009617	0.075412	-0.923484	0.123357	0.347007	0.107456	-11.876694	-41.868420	-8.716762
46255		5.825683	-0.713822	8.095365	-0.957454	1.105456	0.078858	0.061177	-1.233998	-0.876624	-0.277832	0.261475	-0.804199	0.057724	-0.007417	0.081309	-0.920865	0.122250	0.353305	0.110624	-11.530884	-42.667296	-9.183881
46256		6.427546	0.604546	8.197125	-0.348701	2.301290	0.358455	-0.018987	-1.450428	-0.792227	-0.284668	0.261230	-0.799561	0.063702	0.005800	0.082434	-0.917805	0.121774	0.360477	0.113407	-11.284874	-43.575966	-9.564775
46257		5.754071	0.490148	8.435504	-1.177806	2.356868	0.064699	-0.150594	-1.703318	-0.667662	-0.302734	0.263184	-0.792969	0.056836	0.004775	0.084837	-0.914208	0.122260	0.368635	0.115693	-11.197883	-44.612382	-9.818672
46258		5.563651	0.079214	8.513259	-1.669389	2.049716	0.007921	-0.200554	-2.025529	-0.562062	-0.318359	0.258301	-0.783936	0.054773	0.000723	0.085689	-0.909958	0.123343	0.378132	0.117380	-11.227934	-45.817673	-9.943133
46259		5.323402	0.179457	8.649437	-2.106289	2.267686	-0.137990	-0.231228	-2.407601	-0.479586	-0.345215	0.257813	-0.772705	0.052192	0.001769	0.087125	-0.904894	0.124929	0.389252	0.118499	-11.367250	-47.228774	-9.938382
46260		5.063342	0.246854	8.894968	-2.671045	2.509842	-0.253503	-0.271760	-2.851459	-0.402930	-0.365723	0.268555	-0.757324	0.049363	0.002490	0.089656	-0.898823	0.127088	0.402234	0.119051	-11.640132	-48.880028	-9.785551
46261		4.945054	0.373769	9.015299	-3.074910	2.770827	-0.393213	-0.322316	-3.354181	-0.324455	-0.394775	0.263428	-0.748047	0.047936	0.003805	0.090959	-0.891531	0.129899	0.417296	0.119004	-12.083603	-50.803399	-9.451418
46262		4.655644	0.142450	8.980503	-3.626665	2.679940	-0.757475	-0.362550	-3.920640	-0.262741	-0.424072	0.265137	-0.725830	0.044786	0.001529	0.090692	-0.882766	0.133312	0.434676	0.118356	-12.726463	-53.033900	-8.903171
46263		4.343739	0.067290	8.864894	-4.106805	2.720589	-1.258459	-0.386390	-4.527291	-0.198326	-0.464355	0.264160	-0.703369	0.041417	0.000804	0.089600	-0.872304	0.137267	0.454478	0.117021	-13.623751	-55.589669	-8.075436
46264		4.130326	-0.137909	9.034273	-4.810434	2.737229	-1.563918	-0.415246	-5.134936	-0.107949	-0.502930	0.274414	-0.676758	0.038965	-0.001212	0.091366	-0.859977	0.141829	0.476581	0.114868	-14.894251	-58.460648	-6.849185
46265		2.912572	0.286267	9.786094	-6.302296	3.608773	-2.632159	-0.412170	-5.916838	-0.051929	-0.538818	0.275879	-0.641113	0.026215	0.003058	0.098659	-0.845158	0.146848	0.501637	0.111827	-16.693224	-61.735014	-5.051233
46266		2.573166	0.980007	10.814226	-7.500542	4.771456	-3.070595	-0.483227	-6.844866	0.013321	-0.590820	0.283691	-0.596680	0.022012	0.010064	0.108914	-0.827123	0.152700	0.530009	0.107889	-19.446127	-65.465993	-2.292499
46267		2.160642	2.858102	11.421262	-8.000820	6.882539	-4.171177	-0.657668	-7.995451	0.287456	-0.635742	0.287109	-0.536621	0.016981	0.028985	0.114858	-0.804905	0.160404	0.562087	0.102256	-24.343622	-69.661962	2.590568
46268		4.145507	3.963057	12.673800	-8.575234	8.594068	-3.031764	-0.971078	-9.554852	0.944435	-0.685791	0.308105	-0.461426	0.035158	0.040427	0.128323	-0.776801	0.171697	0.598645	0.093404	-34.632897	-74.181595	12.814240
46269		12.138340	-1.099677	10.148568	-6.931867	3.944302	3.886909	-1.833064	-10.765028	1.572732	-0.729248	0.329346	-0.372803	0.115765	-0.009102	0.107909	-0.742552	0.188315	0.637335	0.083413	-56.054309	-77.938827	33.773990
46270		19.633432	-4.312364	10.094489	-8.453279	2.836622	10.824371	-2.125101	-11.429463	1.447972	-0.765625	0.350586	-0.279785	0.190427	-0.040576	0.112384	-0.703448	0.205288	0.676428	0.073910	-89.816455	-79.115516	66.939381
46271		21.900089	-5.304849	13.026490	-13.597727	4.713798	11.854673	-2.366378	-12.049055	1.154497	-0.790771	0.365234	-0.171387	0.210903	-0.050167	0.143744	-0.659361	0.221599	0.715447	0.065363	-121.537215	-76.518317	97.957213
46272		25.902740	-15.422328	9.818741	-17.477122	-3.373424	16.404013	-2.133588	-11.785391	0.274095	-0.815430	0.368896	-0.071289	0.252794	-0.152707	0.114847	-0.613735	0.233093	0.752014	0.058923	-140.516098	-71.905101	116.378285
46273		27.417088	-16.133776	13.440826	-24.021445	-1.355112	14.937836	-0.868457	-11.666134	-1.304200	-0.819092	0.353027	0.035400	0.264635	-0.162454	0.150740	-0.567416	0.233920	0.787758	0.052510	-152.469454	-66.713565	128.600666
46274		31.885183	-9.482400	27.466870	-36.859810	11.111463	9.609780	-1.452147	-10.171429	-1.430352	-0.822998	0.337158	0.120117	0.303644	-0.094958	0.291063	-0.524495	0.234791	0.816851	0.050328	-159.750143	-61.702916	135.749556
46275		28.644243	-4.126863	26.024774	-33.678243	14.582845	3.117563	-2.906065	-7.300548	-1.279004	-0.815674	0.330322	0.191406	0.276423	-0.039171	0.271041	-0.490530	0.238873	0.836108	0.056957	-164.808045	-57.938866	139.666301
46276		25.177960	8.674921	25.631851	-26.258128	25.215283	-3.438190	-6.194418	-4.184011	-1.146330	-0.814941	0.308105	0.240723	0.246906	0.093314	0.258696	-0.464927	0.250321	0.845388	0.080629	-170.137317	-55.736215	141.787501
46277		49.420240	-19.841279	34.087747	-57.210303	13.438489	13.513731	-6.583595	0.149223	-1.899968	-0.820313	0.272461	0.250488	0.492617	-0.191744	0.346895	-0.456286	0.257426	0.844250	0.113034	-175.485522	-55.958808	143.686118
46278		23.100294	-25.611007	24.114268	-41.356549	-3.372968	-2.793662	-4.055106	4.536202	-2.312106	-0.839600	0.245361	0.222168	0.233527	-0.253912	0.241028	-0.468624	0.254249	0.834152	0.141209	-179.701427	-58.606715	145.930071
46279		14.092137	-25.747070	16.655088	-32.122747	-9.652896	-6.099539	-0.479839	5.880641	-2.826454	-0.861328	0.222900	0.176270	0.142095	-0.259080	0.163004	-0.490317	0.239350	0.823147	0.157257	177.053604	-61.943621	149.342438
46280		9.551254	-16.622679	12.473550	-21.952720	-5.898126	-7.301742	2.090890	6.654416	-3.234319	-0.878418	0.198242	0.119141	0.096834	-0.169056	0.119770	-0.517257	0.215543	0.811755	0.164435	173.889489	-65.596564	154.198976
46281		5.307051	-7.997027	10.499107	-14.175215	-1.046663	-9.317024	3.130523	6.884538	-3.130180	-0.900146	0.175781	0.059814	0.055335	-0.082435	0.101834	-0.545596	0.188966	0.799177	0.167132	170.089536	-69.263749	160.247278
46282		2.396955	-1.740053	9.214550	-9.177358	2.969912	-10.583807	2.775241	6.993210	-2.606607	-0.914795	0.146729	-0.001709	0.026924	-0.019007	0.090982	-0.573509	0.165027	0.784268	0.169636	164.900916	-72.854574	167.406652
46283		1.536407	0.509701	8.526851	-7.481730	4.350698	-10.436801	1.669459	6.913382	-1.893653	-0.923584	0.133545	-0.070068	0.018342	0.004224	0.084706	-0.600037	0.146901	0.766845	0.174140	157.508069	-76.272014	176.056773
46284		2.575969	-0.273597	8.029204	-7.704712	3.284290	-8.812228	0.560329	6.912550	-1.154815	-0.929932	0.122559	-0.138672	0.028496	-0.003118	0.079330	-0.625539	0.134722	0.746990	0.180434	146.442712	-79.470211	-172.306541
46285		3.356802	-2.946818	7.352137	-8.317777	0.426987	-7.665048	-0.103393	7.049843	-0.498231	-0.925781	0.122803	-0.223145	0.036058	-0.029518	0.072295	-0.650997	0.126801	0.724663	0.187048	127.870434	-82.283049	-153.573945
46286		3.523430	-5.585575	6.667839	-8.696931	-2.382806	-7.217538	-0.142086	7.171110	0.012628	-0.901123	0.123535	-0.312012	0.037598	-0.055807	0.065398	-0.676448	0.120560	0.700740	0.191955	96.005484	-83.886407	-121.575889
46287		4.230058	-5.886730	6.405503	-8.398841	-2.989177	-6.061184	0.222582	7.216042	0.370865	-0.856445	0.124512	-0.401123	0.044682	-0.058856	0.062406	-0.701817	0.114164	0.675806	0.194180	59.375985	-83.178442	-84.608305
46288		4.817336	-3.776839	6.598180	-7.349477	-1.280988	-4.780892	0.454762	7.258532	0.708540	-0.804932	0.123535	-0.479004	0.050656	-0.037739	0.064087	-0.726790	0.107879	0.649949	0.194176	35.942869	-80.626743	-60.692023
46289		5.070165	-1.405547	6.984666	-6.292128	0.782415	-3.793520	0.313697	7.252974	1.053693	-0.732910	0.118652	-0.545654	0.053262	-0.013887	0.067924	-0.750947	0.103672	0.622786	0.193568	22.837688	-77.289302	-47.255917
46290		6.054377	0.179893	7.490898	-5.464328	2.068473	-2.156131	-0.145305	7.239664	1.393957	-0.652344	0.124756	-0.597412	0.063186	0.002287	0.072652	-0.774224	0.101522	0.594347	0.192412	14.685539	-73.614035	-38.928563
46291		7.505817	0.329103	7.985984	-4.901610	1.974490	-0.208441	-0.704707	7.285519	1.692196	-0.569092	0.119629	-0.633057	0.077866	0.004217	0.077043	-0.796635	0.102255	0.564115	0.191550	8.824574	-69.711875	-33.192450
46292		8.845326	-0.772975	8.503982	-4.637539	0.777806	1.543727	-1.092279	7.405280	1.897715	-0.481201	0.116943	-0.651367	0.091586	-0.006418	0.081724	-0.818159	0.104829	0.532215	0.190718	4.373326	-65.624364	-29.063833
46293		10.228364	-2.246933	9.046760	-4.263434	-0.769800	3.326708	-1.183326	7.563359	1.994870	-0.406494	0.103027	-0.651367	0.105823	-0.020905	0.086636	-0.838961	0.107738	0.498606	0.189550	0.985172	-61.338135	-26.046940
46294		11.328628	-3.076177	9.893101	-3.712774	-1.605351	4.992290	-1.042907	7.720029	1.995400	-0.352051	0.086182	-0.637939	0.117290	-0.029104	0.094609	-0.858833	0.109723	0.463793	0.187785	-1.499091	-56.913761	-23.854857
46295		12.533919	-2.361720	11.119977	-2.472454	-0.991948	6.892905	-0.888177	7.827452	1.978599	-0.317627	0.069092	-0.639893	0.129786	-0.021868	0.106277	-0.877675	0.110737	0.427795	0.185512	-3.348580	-52.374295	-22.222522
46296		14.140074	-0.927910	12.560117	-0.546244	0.196138	9.108713	-0.937970	7.947484	1.993597	-0.303711	0.053955	-0.652832	0.146320	-0.007265	0.119888	-0.895236	0.111692	0.390620	0.183009	-4.864112	-47.754945	-20.952878
46297		16.294442	-0.410648	13.169583	2.265394	0.097410	11.013080	-1.227324	8.101495	2.076336	-0.285400	0.047607	-0.692871	0.168124	-0.001598	0.124969	-0.911498	0.113775	0.351637	0.180494	-6.318146	-43.008323	-19.910048
46298		18.647181	-2.438114	12.650679	5.174160	-2.745769	12.075080	-1.451982	8.220571	2.203042	-0.250000	0.059570	-0.746582	0.191710	-0.021407	0.118860	-0.926245	0.116780	0.311324	0.177509	-7.736089	-38.183612	-19.016406
46299		20.469829	-5.529692	11.521047	7.777639	-6.620774	12.042610	-1.251457	8.200365	2.381827	-0.205566	0.069580	-0.809082	0.209832	-0.052131	0.107008	-0.939548	0.118939	0.270466	0.173064	-8.942438	-33.325876	-18.192150
46300		22.401350	-6.611141	10.572813	11.197497	-8.620152	11.570564	-0.621904	7.975826	2.682130	-0.136230	0.077637	-0.863037	0.228852	-0.062753	0.096863	-0.951434	0.118520	0.230668	0.165886	-9.767965	-28.571288	-17.287755
46301		25.025592	0.554638	11.035309	17.646141	-2.681659	10.908632	-0.247630	7.554754	3.327522	-0.062988	0.094727	-0.905762	0.254044	0.009882	0.100792	-0.961960	0.117208	0.192268	0.154687	-10.467473	-23.964422	-16.042911
46302		29.293806	4.545288	10.551486	24.569074	0.061965	9.832150	-0.847095	7.177680	4.264370	0.012939	0.107422	-0.933105	0.295403	0.052152	0.094729	-0.970804	0.119765	0.154465	0.139053	-11.599557	-19.464250	-14.306512
46303		32.891280	1.297746	7.743880	29.124301	-3.871957	6.908276	-1.229777	6.736270	4.957759	0.095703	0.120361	-0.960449	0.330805	0.021594	0.066201	-0.977855	0.124801	0.117730	0.119853	-12.917782	-15.079680	-12.258497
46304		36.388031	-4.001888	2.085175	33.442535	-10.128175	1.267622	-0.578212	6.164955	4.968133	0.172119	0.119629	-0.980713	0.365138	-0.030919	0.009706	-0.983322	0.126796	0.084092	0.099645	-13.706597	-10.990651	-10.247691
46305		34.494830	-5.266055	-5.339954	33.149537	-12.006678	-8.194967	0.730477	5.412854	3.997694	0.242432	0.101074	-0.996094	0.344290	-0.045555	-0.062900	-0.987490	0.122141	0.055200	0.083054	-13.533972	-7.429635	-8.732439
46306		32.544504	-0.097530	-10.877838	32.745909	-7.414509	-16.880826	1.356241	4.322773	2.363717	0.305908	0.084473	-1.007324	0.322968	0.003621	-0.115763	-0.990166	0.114297	0.032997	0.073605	-12.840682	-4.713379	-7.972015
46307		33.771934	3.905434	-13.680509	34.409436	-3.974794	-21.771835	0.671845	3.193917	0.853302	0.364746	0.074463	-1.016113	0.335307	0.040960	-0.142037	-0.991249	0.109946	0.016897	0.071075	-12.464000	-2.815850	-7.894885
46308		34.101895	1.337412	-15.144846	34.037044	-6.827000	-23.557137	-0.346433	2.176195	-0.108371	0.398193	0.081787	-1.011963	0.339351	0.012923	-0.155170	-0.991141	0.110907	0.006083	0.072815	-12.653245	-1.616524	-8.224217
46309		34.894282	-2.084698	-14.832380	34.052834	-10.404209	-23.007203	-0.569907	1.124004	-0.347458	0.436035	0.089111	-1.012451	0.348065	-0.021878	-0.150220	-0.990710	0.113336	0.000476	0.075162	-12.975300	-1.030271	-8.559952
46310		37.058812	-2.452616	-14.351941	36.031871	-11.113648	-22.600961	-0.356372	0.155629	0.089589	0.451660	0.089600	-1.021484	0.370487	-0.024616	-0.143764	-0.990537	0.115076	-0.000443	0.074789	-13.183526	-0.935985	-8.527458
46311		31.098788	-6.278625	-15.279369	29.638435	-14.063602	-22.610421	0.020071	-0.990669	0.320209	0.449707	0.085205	-1.036865	0.311840	-0.062272	-0.151257	-0.990655	0.115377	0.004288	0.072614	-13.182198	-1.447022	-8.217293
46312		21.594123	-4.987009	-29.281399	21.031664	-14.452856	-36.216549	1.287462	-4.306543	-0.446618	0.416504	0.066895	-1.082764	0.222074	-0.048495	-0.288391	-0.990887	0.110558	0.026379	0.072277	-12.461984	-3.913936	-7.916259
46313		-3.098911	3.212792	12.284036	-3.445749	6.228499	1.146025	1.483163	-7.021186	-0.940150	0.355957	0.059082	-1.126709	-0.035131	0.031380	0.121890	-0.989788	0.105594	0.062215	0.072790	-11.649277	-7.962863	-7.598486
46314		8.049559	5.742948	21.573950	5.721286	9.248185	11.276290	0.761085	-6.874766	-0.894080	0.295166	0.060303	-1.159912	0.073268	0.056263	0.218557	-0.987119	0.104021	0.096978	0.073288	-11.266151	-11.929335	-7.311286
46315		16.398907	5.658105	10.806763	14.457582	5.850306	3.389791	0.214343	-7.344528	-1.553755	0.236816	0.059326	-1.201660	0.160306	0.055206	0.114060	-0.982399	0.104865	0.134057	0.076964	-11.133818	-16.232547	-7.366410
46316		31.087216	3.570181	19.595558	24.534873	4.143274	17.455752	-0.081832	-6.305240	-1.506439	0.186768	0.071533	-1.212891	0.304748	0.033474	0.205615	-0.977027	0.106663	0.165747	0.081057	-11.136274	-19.948140	-7.520681
46317		20.166058	0.059638	14.650923	13.790636	1.109948	10.918334	-0.379867	-5.047994	-1.103341	0.150635	0.075439	-1.226074	0.197878	-0.000218	0.151536	-0.971857	0.109648	0.190815	0.084029	-11.336119	-22.911972	-7.578808
46318		15.092325	-1.783174	12.127547	8.752523	-0.495616	7.540048	-0.345715	-4.491928	-0.817402	0.108398	0.067871	-1.230225	0.148075	-0.018227	0.124654	-0.966773	0.112442	0.212929	0.085834	-11.562195	-25.531667	-7.519158
46319		14.790076	-11.251726	9.097095	6.912525	-10.196926	6.809443	0.089173	-4.104530	-0.832404	0.074463	0.069580	-1.238770	0.145523	-0.113168	0.093924	-0.961872	0.112895	0.233266	0.087425	-11.517140	-27.935958	-7.512912
46320		27.352396	-14.072055	14.323931	14.235012	-13.153738	18.036933	1.538374	-2.908708	-1.491236	0.056885	0.058105	-1.238525	0.270348	-0.143861	0.146088	-0.958528	0.105047	0.248766	0.091135	-10.352643	-29.738625	-8.106785
46321		17.264668	1.940226	12.160903	9.544207	2.591690	8.946039	1.693881	-1.358451	-1.231447	0.044189	0.040039	-1.238037	0.171926	0.017305	0.122931	-0.957077	0.096049	0.256722	0.094194	-9.059432	-30.630569	-8.755973
46322		9.854685	6.634684	11.588712	4.362505	7.716110	4.217918	0.904802	-0.626587	-0.904219	0.041748	0.042236	-1.244873	0.098480	0.065375	0.116493	-0.956245	0.090888	0.260610	0.097047	-8.272290	-31.067920	-9.286807
46323		12.876682	-1.044036	9.388389	6.113816	-0.729173	4.922627	0.345084	-0.005275	-0.539865	0.044434	0.033447	-1.244629	0.128735	-0.010950	0.093869	-0.956111	0.088574	0.261098	0.099163	-7.895012	-31.120804	-9.640898
46324		5.415423	-1.219728	9.492777	-0.294836	0.118986	1.179401	0.360192	0.048023	-0.387835	0.042236	0.033203	-1.238037	0.054153	-0.012473	0.094892	-0.956126	0.086358	0.261253	0.100559	-7.558295	-31.127832	-9.899794
46325		6.299956	-1.053272	9.250293	0.594674	0.051870	1.412743	0.173607	-0.018319	-0.361136	0.046631	0.031250	-1.242432	0.062972	-0.010727	0.092499	-0.955977	0.085103	0.261637	0.102038	-7.340456	-31.171761	-10.134932
46326		6.210704	0.010973	9.267525	0.754605	1.060092	1.267323	0.181323	0.007407	-0.332743	0.051270	0.029053	-1.246826	0.062110	-0.000078	0.092673	-0.955880	0.083834	0.261870	0.103385	-7.126603	-31.195992	-10.354024
46327		5.714231	0.824107	9.558906	0.382959	1.956609	1.175000	0.076529	-0.043746	-0.233158	0.053467	0.033447	-1.246826	0.057131	0.008138	0.095605	-0.955717	0.083222	0.262271	0.104370	-7.008985	-31.244089	-10.502525
46328		5.672597	-0.334614	9.191817	0.230714	0.758933	0.964631	-0.045998	-0.144830	-0.137019	0.051514	0.026855	-1.246826	0.056657	-0.003364	0.091960	-0.955424	0.083375	0.263030	0.105015	-6.998954	-31.340470	-10.579280
46329		5.715873	-0.947267	8.711115	0.330763	0.062396	0.643828	-0.072385	-0.193326	-0.105694	0.055908	0.029053	-1.240234	0.057069	-0.009471	0.087170	-0.955067	0.083719	0.264015	0.105524	-7.016549	-31.464616	-10.631069
46330		5.462903	-0.165394	8.843501	0.224763	0.894480	0.542384	-0.119009	-0.229004	-0.056852	0.044434	0.033447	-1.246826	0.054527	-0.001617	0.088498	-0.954672	0.084370	0.265104	0.105847	-7.079619	-31.603274	-10.647509
46331		5.197848	-0.447167	8.881742	-0.109352	0.691608	0.464109	-0.177206	-0.279782	-0.004376	0.044189	0.037842	-1.240234	0.051854	-0.004394	0.088894	-0.954205	0.085394	0.266402	0.105974	-7.196434	-31.769502	-10.624250
46332		4.788869	-0.964514	8.962051	-0.646438	0.300978	0.369321	-0.210366	-0.343826	0.014740	0.032959	0.037598	-1.244629	0.047735	-0.009547	0.089713	-0.953651	0.086636	0.267959	0.106028	-7.342540	-31.968283	-10.582405
46333		4.786893	-1.887063	8.702886	-0.784094	-0.615898	0.248191	-0.199913	-0.405355	-0.005219	0.034912	0.046387	-1.238281	0.047692	-0.018785	0.087144	-0.952999	0.087832	0.269842	0.106134	-7.478514	-32.205809	-10.547787
46334		4.773843	-2.531143	8.352395	-0.820863	-1.289042	0.017021	-0.119533	-0.415591	-0.061485	0.028564	0.037598	-1.238037	0.047557	-0.025276	0.083638	-0.952338	0.088576	0.271820	0.106397	-7.549510	-32.450913	-10.549605
46335		4.914968	-2.408036	8.484448	-0.782529	-1.148958	0.187751	-0.021827	-0.445848	-0.111264	0.026123	0.044189	-1.238037	0.048947	-0.024098	0.084956	-0.951643	0.088802	0.274034	0.106748	-7.547729	-32.719319	-10.581916
46336		4.519845	-3.467753	8.816597	-1.598198	-2.029694	0.361419	0.144171	-0.576721	-0.184285	0.012695	0.039307	-1.238037	0.044912	-0.034783	0.088271	-0.950801	0.088208	0.276970	0.107162	-7.430209	-33.065125	-10.652620
46337		4.576754	-0.765903	9.754523	-1.423807	0.759319	0.868111	0.326900	-0.786129	-0.231816	0.003662	0.039307	-1.226807	0.045375	-0.007871	0.097711	-0.949705	0.086791	0.281036	0.107452	-7.198914	-33.535533	-10.738630
46338		4.708119	-0.225020	10.200668	-1.514610	1.358743	1.238522	-0.013173	-1.056053	-0.262086	-0.009766	0.041260	-1.224609	0.046539	-0.002305	0.102254	-0.948048	0.087088	0.286187	0.108247	-7.162241	-34.159070	-10.824273
46339		4.267769	-1.149587	10.023868	-2.146007	0.518260	0.917533	-0.014942	-1.297944	-0.346601	-0.027588	0.038574	-1.219971	0.042006	-0.011562	0.100514	-0.945957	0.087400	0.292529	0.109333	-7.103551	-34.928259	-10.948480
46340		4.876877	-1.053320	9.007442	-1.236468	0.308235	0.405017	-0.095137	-1.503097	-0.403919	-0.048096	0.044678	-1.204346	0.048069	-0.010588	0.090442	-0.943454	0.088116	0.299787	0.110714	-7.075534	-35.815891	-11.097053
46341		5.479962	-0.208654	8.336527	-0.328196	0.898412	0.119790	-0.099502	-1.632714	-0.405747	-0.063721	0.044434	-1.193359	0.054112	-0.002155	0.083810	-0.940686	0.088914	0.307653	0.112045	-7.052483	-36.779330	-11.237658
46342		5.825648	-0.878418	7.626475	-0.000991	0.065229	-0.175969	-0.116634	-1.697902	-0.395046	-0.093018	0.048340	-1.188721	0.057589	-0.008854	0.076761	-0.937751	0.089841	0.315771	0.113315	-7.044353	-37.777022	-11.367158
46343		5.597457	-1.365762	7.453803	-0.375048	-0.376126	-0.406755	-0.116728	-1.719317	-0.420393	-0.106689	0.050293	-1.177734	0.055302	-0.013731	0.075023	-0.934689	0.090731	0.323993	0.114685	-7.022699	-38.790667	-11.515119
46344		5.724838	-1.353555	7.263538	-0.328083	-0.401325	-0.480280	-0.115807	-1.730190	-0.485922	-0.129150	0.047607	-1.170898	0.056584	-0.013631	0.073135	-0.931503	0.091511	0.332253	0.116346	-6.966961	-39.812966	-11.713361
46345		6.044044	-1.174493	7.038523	-0.070611	-0.310157	-0.466716	-0.119424	-1.729956	-0.554219	-0.146973	0.049316	-1.164063	0.059796	-0.011869	0.070911	-0.928192	0.092186	0.340531	0.118321	-6.874270	-40.841662	-11.967187
46346		5.990183	-1.379308	7.054470	-0.346586	-0.470670	-0.474259	-0.137621	-1.733957	-0.623268	-0.169678	0.051270	-1.153076	0.059244	-0.013930	0.071070	-0.924753	0.092823	0.348802	0.120637	-6.750122	-41.874947	-12.279664
46347		5.883750	-1.793249	7.196234	-0.805730	-0.791443	-0.413656	-0.134485	-1.770124	-0.715508	-0.189941	0.055176	-1.144043	0.058133	-0.018093	0.072491	-0.921108	0.093298	0.357271	0.123345	-6.567928	-42.936330	-12.668761
46348		5.948712	-1.699803	7.200353	-0.917199	-0.694817	-0.389597	-0.111172	-1.832928	-0.828605	-0.208008	0.054932	-1.135010	0.058753	-0.017202	0.072554	-0.917208	0.093493	0.366045	0.126492	-6.301306	-44.037586	-13.153782
46349		6.111874	-1.277259	7.229002	-0.887296	-0.299627	-0.306662	-0.098772	-1.923011	-0.915786	-0.230469	0.058838	-1.121826	0.060361	-0.013014	0.072879	-0.912988	0.093519	0.375256	0.129958	-5.964693	-45.195596	-13.718129
46350		6.036527	-0.827013	7.323935	-1.065947	0.177134	-0.347363	-0.082540	-2.063262	-0.964966	-0.250732	0.058350	-1.108398	0.059565	-0.008528	0.073860	-0.908376	0.093458	0.385080	0.133539	-5.573949	-46.431856	-14.333811
46351		6.088967	-0.236938	7.564878	-1.224702	0.806961	-0.210413	-0.069903	-2.249184	-0.984158	-0.277588	0.060059	-1.097168	0.060021	-0.002640	0.076328	-0.903264	0.093414	0.395726	0.137075	-5.144831	-47.773984	-14.978545
46352		5.964514	0.161979	7.849345	-1.609019	1.306123	-0.173511	-0.054838	-2.503742	-0.956502	-0.304443	0.057373	-1.081543	0.058663	0.001359	0.079232	-0.897530	0.093515	0.407438	0.140317	-4.703810	-49.254813	-15.613799
46353		5.683770	0.369807	8.078231	-2.137823	1.649319	-0.304656	-0.028040	-2.835210	-0.914613	-0.335938	0.056641	-1.067871	0.055701	0.003453	0.081577	-0.890976	0.093794	0.420569	0.143132	-4.252416	-50.921505	-16.227269
46354		5.335123	0.565734	8.482261	-2.863310	2.058217	-0.416481	0.004923	-3.257764	-0.886990	-0.374023	0.055908	-1.050049	0.051985	0.005423	0.085677	-0.883348	0.094264	0.435471	0.145520	-3.776118	-52.823642	-16.833507
46355		4.916628	0.590620	8.678114	-3.564436	2.273531	-0.760298	0.044696	-3.790072	-0.874132	-0.409912	0.052734	-1.023193	0.047535	0.005677	0.087694	-0.874289	0.094940	0.452613	0.147466	-3.252441	-55.027828	-17.453476
46356		4.789176	0.866293	8.489096	-3.751984	2.571662	-1.149803	0.101198	-4.390349	-0.863469	-0.452393	0.047363	-0.998291	0.046050	0.008418	0.085920	-0.863527	0.095796	0.472204	0.148888	-2.654196	-57.570090	-18.106885
46357		4.480732	1.369155	8.314634	-3.984458	3.125051	-1.724146	0.187226	-5.026679	-0.827120	-0.499023	0.033203	-0.960205	0.042755	0.013433	0.084251	-0.850828	0.096781	0.494324	0.149560	-1.956463	-60.472521	-18.799011
46358		4.380481	0.996322	8.258094	-4.531530	2.864676	-2.091728	0.332211	-5.642044	-0.775453	-0.552979	0.038574	-0.917725	0.041490	0.009661	0.083789	-0.836098	0.097670	0.518774	0.149246	-1.096627	-63.720565	-19.560155
46359		3.478625	1.036121	9.018712	-5.964179	3.365900	-2.914833	0.498453	-6.266268	-0.787450	-0.606201	0.024170	-0.870605	0.031978	0.010005	0.091244	-0.819058	0.098205	0.545493	0.148113	0.106757	-67.319843	-20.571566
46360		2.860221	1.547477	9.189975	-6.587510	4.070936	-3.894621	0.500820	-7.245854	-0.782656	-0.664551	0.020508	-0.812500	0.025308	0.015140	0.092895	-0.798395	0.099358	0.575578	0.146297	1.759074	-71.468588	-22.032873
46361		4.793794	2.295372	10.232327	-7.212107	5.009419	-2.345139	0.433551	-8.536415	-0.602589	-0.731689	0.016846	-0.741211	0.043582	0.022593	0.104295	-0.772853	0.102079	0.609757	0.143089	4.059069	-76.340933	-24.169686
46362		9.394651	2.187813	10.114824	-6.974270	4.697993	1.344904	-0.047409	-9.815035	-0.150082	-0.796875	0.021973	-0.647705	0.088852	0.021835	0.105588	-0.741851	0.108739	0.647003	0.138636	7.396291	-81.935171	-27.594897
46363		19.230734	-1.010707	10.282143	-8.498631	1.767702	10.206296	-0.691086	-10.659031	0.516824	-0.849121	0.042969	-0.543457	0.186492	-0.009241	0.112900	-0.706284	0.120234	0.684852	0.132980	20.425213	-87.979404	-41.057173
46364		17.520648	1.380208	9.519978	-8.827420	4.689051	7.483999	-1.269415	-11.301203	0.511637	-0.896729	0.057373	-0.430420	0.169426	0.014886	0.104794	-0.666009	0.133817	0.722501	0.128518	174.659510	-85.401165	163.942632
46365		27.265576	-0.484629	12.012569	-14.781832	5.239511	15.504083	-1.723100	-11.872997	0.382595	-0.939697	0.071533	-0.312988	0.264899	-0.003208	0.136044	-0.621018	0.148348	0.759359	0.125316	178.238919	-78.617434	159.333773
46366		29.506411	-7.739498	14.709437	-23.075902	1.215441	14.917365	-2.256201	-11.677977	0.299273	-0.964355	0.079834	-0.195313	0.285895	-0.075169	0.164829	-0.574086	0.163570	0.792638	0.124077	178.357719	-71.929467	157.871693
46367		36.526419	-15.499076	22.473060	-37.625299	-0.486291	15.906964	-2.230877	-10.719329	-0.565170	-0.971191	0.083740	-0.091064	0.352036	-0.153336	0.245558	-0.528582	0.174167	0.821273	0.125611	176.898269	-65.779630	158.059479
46368		38.459288	-12.210261	22.807293	-39.525273	4.096883	14.022260	-1.575521	-8.044226	-1.512961	-0.970703	0.072510	-0.021973	0.374056	-0.123078	0.244229	-0.492740	0.177051	0.842155	0.128974	174.922434	-61.115801	159.253683
46369		18.745907	3.187407	24.678617	-26.429152	15.988241	-5.772423	-2.523388	-4.482725	-1.270886	-0.958984	0.065918	0.013672	0.182083	0.033851	0.250489	-0.470667	0.180787	0.852373	0.138738	172.708957	-58.488152	160.136203
46370		54.336941	-15.042599	35.731795	-60.263684	11.327662	16.556270	-4.034864	-0.878175	-0.843918	-0.954346	0.057129	-0.015137	0.541164	-0.145432	0.362665	-0.462549	0.187287	0.852226	0.157106	169.750446	-57.912806	160.892981
46371		25.241370	-21.622735	25.326352	-41.144917	-3.367555	-3.347202	-2.272778	3.249775	-1.057906	-0.928955	0.040039	-0.063721	0.255372	-0.214708	0.251576	-0.473404	0.185495	0.843683	0.172277	166.847502	-59.623176	162.758392
46372		13.896173	-18.868605	18.006691	-28.871392	-6.159392	-8.467840	0.099923	4.463141	-1.187810	-0.892090	0.009766	-0.123047	0.141808	-0.189612	0.176829	-0.491136	0.176389	0.834095	0.178771	164.599397	-61.929997	165.395337
46373		10.806921	-11.723634	15.059294	-21.758882	-2.157087	-8.133250	1.604254	5.178206	-1.050620	-0.841064	-0.031250	-0.177979	0.111281	-0.119003	0.146789	-0.513109	0.163437	0.823348	0.179183	162.715501	-64.622541	168.526641
46374		6.925269	-6.197362	12.960900	-15.911508	0.890206	-9.253034	2.067662	5.609051	-0.609748	-0.774170	-0.078857	-0.197266	0.072646	-0.063513	0.126952	-0.537073	0.150560	0.810953	0.176750	160.890008	-67.563621	171.814614
46375		3.656282	-2.334337	11.100835	-11.528089	2.961254	-10.393065	1.818654	5.806137	-0.042493	-0.718750	-0.115723	-0.165527	0.039755	-0.024353	0.109667	-0.561800	0.140371	0.796536	0.173804	158.870745	-70.696553	175.082925
46376		2.680896	-1.140023	9.984450	-9.852477	3.305447	-10.193747	1.299673	5.947442	0.507972	-0.725586	-0.113770	-0.085693	0.029790	-0.011972	0.098912	-0.586540	0.133546	0.780250	0.171305	156.396296	-73.956225	178.456619
46377		2.483317	-1.800322	9.096643	-9.345193	2.182023	-9.631367	0.929926	6.135706	0.909626	-0.814941	-0.064453	-0.030762	0.027688	-0.018302	0.090061	-0.611695	0.129112	0.761959	0.169051	152.868788	-77.376128	-177.361922
46378		2.840108	-2.766812	8.354118	-9.131519	0.862918	-8.649358	0.836551	6.383847	1.123546	-0.932861	0.020020	-0.085449	0.031201	-0.027845	0.082459	-0.637143	0.125406	0.742031	0.166468	146.671351	-80.863341	-170.569755
46379		3.627060	-2.869653	8.018853	-8.880442	0.470001	-7.248223	0.943945	6.646457	1.177534	-0.984619	0.079346	-0.224121	0.039074	-0.028846	0.078785	-0.663112	0.121227	0.720358	0.163315	132.054151	-84.240299	-155.298407
46380		4.427528	-1.572373	7.725043	-7.968641	1.344356	-5.761659	0.979172	6.933345	1.168985	-0.958740	0.100342	-0.353271	0.047007	-0.015827	0.075575	-0.689179	0.116492	0.697033	0.160020	88.946914	-86.415395	-111.508713
46381		4.206911	0.394028	7.315480	-6.559604	2.856037	-5.323339	0.751051	7.175068	1.177596	-0.915527	0.083496	-0.446533	0.044634	0.003927	0.071599	-0.715128	0.112647	0.671611	0.157612	34.909624	-84.928007	-56.965740
46382		4.125548	2.090778	6.980094	-5.310957	4.172928	-4.866262	0.234564	7.246154	1.233515	-0.890137	0.059814	-0.508301	0.043618	0.021091	0.068274	-0.740048	0.110203	0.644767	0.156395	14.967032	-81.412025	-36.760970
46383		4.978604	2.358442	6.793216	-4.551782	4.169190	-3.618663	-0.387945	7.234497	1.318441	-0.901611	0.059814	-0.590332	0.052040	0.024052	0.066030	-0.763830	0.109998	0.616404	0.156557	6.596297	-77.447695	-28.457447
46384		6.319917	1.334020	6.921935	-4.281474	3.039593	-1.937119	-0.884062	7.222215	1.394399	-0.882324	0.080566	-0.732910	0.065545	0.014091	0.066819	-0.786140	0.111981	0.586972	0.157824	1.845655	-73.381593	-24.078733
46385		8.082580	-0.116991	7.404890	-4.130216	1.576673	0.215955	-1.102945	7.250777	1.435626	-0.739746	0.105957	-0.862793	0.083442	-0.000180	0.071058	-0.807479	0.114782	0.556233	0.159395	-1.299024	-69.209610	-21.436776
46386		9.590941	-1.550670	8.070811	-3.936940	0.188344	2.183903	-1.042998	7.365820	1.448704	-0.510742	0.114990	-0.888672	0.098903	-0.014389	0.077179	-0.827913	0.117108	0.524467	0.160560	-3.453533	-64.962710	-19.751744
46387		11.514882	-2.406111	9.241135	-3.473334	-0.610699	4.721231	-0.819818	7.510576	1.445523	-0.308105	0.103271	-0.833740	0.118680	-0.022845	0.088093	-0.847761	0.118226	0.491318	0.161028	-4.932441	-60.588635	-18.627093
46388		13.251343	-2.081617	10.292789	-2.177388	-0.428923	6.944383	-0.589596	7.737028	1.517977	-0.146973	0.070313	-0.705078	0.136514	-0.019497	0.097756	-0.866954	0.118172	0.456804	0.160488	-5.997154	-56.097359	-17.778083
46389		14.003871	-1.222757	11.355208	-0.870872	0.341664	8.228656	-0.514379	7.922289	1.672989	-0.094971	0.068604	-0.520996	0.144483	-0.010749	0.107915	-0.885447	0.117816	0.420510	0.158978	-6.907222	-51.456887	-17.025951
46390		15.246370	-0.055156	12.108487	1.291404	1.186636	9.572349	-0.647554	8.021220	1.926625	-0.207031	0.128418	-0.388672	0.157147	0.001326	0.114841	-0.902682	0.118296	0.383030	0.156395	-7.866681	-46.761628	-16.253092
46391		17.034368	-0.381606	12.080752	4.022274	0.309434	10.674581	-0.890185	8.074528	2.227174	-0.358887	0.281250	-0.464600	0.175058	-0.001367	0.113812	-0.918620	0.120200	0.344052	0.152698	-8.958407	-41.975666	-15.432830
46392		18.735841	-2.478686	11.418205	6.620750	-2.350195	11.113375	-0.923567	8.076831	2.499467	-0.388428	0.398926	-0.682373	0.192052	-0.021902	0.106593	-0.933019	0.122505	0.304479	0.147517	-10.030258	-37.179403	-14.587765
46393		19.949194	-2.976902	10.914227	9.422174	-3.349594	10.818461	-0.594504	7.959786	2.714604	-0.324951	0.431885	-0.885254	0.204001	-0.026711	0.101164	-0.945991	0.123465	0.264793	0.140509	-10.865801	-32.390033	-13.732405
46394		22.049296	0.707567	11.548117	13.794079	-0.217475	10.908301	-0.424398	7.717926	3.022871	-0.224365	0.436523	-1.039063	0.224585	0.010683	0.106845	-0.957241	0.123984	0.225940	0.131408	-11.598893	-27.719464	-12.762223
46395		24.636068	3.363244	11.704733	18.454600	1.880751	10.453780	-0.698992	7.475420	3.411221	-0.087646	0.443848	-1.146484	0.249875	0.038262	0.107621	-0.966710	0.126190	0.187222	0.120394	-12.488126	-23.101694	-11.636146
46396		27.887555	3.508108	10.490433	23.378832	1.350079	8.927457	-1.041350	7.141925	3.761226	0.096436	0.447510	-1.171875	0.281646	0.040872	0.094675	-0.974192	0.130376	0.149591	0.107586	-13.539000	-18.633508	-10.372684
46397		31.607065	0.819511	7.399182	28.350051	-2.237104	5.844974	-0.963845	6.701693	3.862202	0.257080	0.419434	-1.114258	0.318070	0.014648	0.063294	-0.979931	0.134265	0.113644	0.093776	-14.454956	-14.353794	-9.103033
46398		33.751020	-2.107210	2.007795	31.837259	-6.349289	-0.158845	-0.228855	6.204967	3.463341	0.368408	0.392334	-1.036621	0.338214	-0.015204	0.009610	-0.984300	0.134395	0.080780	0.081030	-14.814688	-10.416590	-8.054327
46399		32.459064	-3.305728	-4.322312	31.706399	-8.662222	-8.220661	0.739906	5.548016	2.447673	0.428223	0.360107	-0.980713	0.323594	-0.028910	-0.052322	-0.987577	0.129437	0.051970	0.072364	-14.476654	-6.971898	-7.495082
46400		30.216340	-1.421544	-9.541825	30.187373	-7.722855	-15.726516	1.262408	4.653405	1.086913	0.471436	0.347412	-0.933838	0.299902	-0.011949	-0.102494	-0.989691	0.121798	0.028768	0.069641	-13.752425	-4.238469	-7.538776
46401		30.832383	2.445898	-12.445132	31.130804	-4.793732	-20.733989	0.789770	3.622091	-0.026071	0.493896	0.347900	-0.907471	0.306007	0.024925	-0.129910	-0.990515	0.116613	0.011042	0.071836	-13.273454	-2.213743	-8.038438
46402		31.379752	1.683548	-13.906150	31.171686	-6.161363	-22.896921	-0.225419	2.622829	-0.509445	0.513916	0.354980	-0.894287	0.311979	0.015879	-0.143179	-0.990254	0.116782	-0.001696	0.075875	-13.389457	-0.822929	-8.666500
46403		33.513373	-1.452467	-14.335757	32.469581	-9.896555	-23.173987	-0.615762	1.564269	-0.336876	0.524902	0.364014	-0.881348	0.333973	-0.015535	-0.145926	-0.989716	0.119249	-0.009531	0.078432	-13.741436	0.009213	-9.063193
46404		35.383149	-4.800871	-15.617087	33.574688	-13.854793	-23.943866	-0.232126	0.584670	0.122598	0.529053	0.370605	-0.874756	0.353402	-0.047974	-0.157149	-0.989590	0.120195	-0.012552	0.078143	-13.877945	0.347142	-9.072225
46405		32.813705	-4.152701	-15.038952	31.167527	-12.623391	-23.574438	0.595015	-0.464290	0.183610	0.526855	0.370605	-0.894775	0.328523	-0.040779	-0.149749	-0.990040	0.117445	-0.010146	0.076973	-13.539288	0.115091	-8.905017
46406		29.662830	0.222105	-16.983009	28.919552	-8.252305	-26.056091	0.598788	-2.603594	-0.385520	0.494873	0.385742	-0.928223	0.298810	0.002147	-0.165943	-0.990283	0.115524	0.003237	0.077357	-13.201150	-1.391470	-8.772272
46407		-12.381740	-3.536525	-12.659355	-12.582675	-4.388524	-21.994923	0.838335	-5.488662	-1.771416	0.435547	0.402588	-0.979248	-0.120583	-0.033747	-0.130076	-0.989569	0.113454	0.031780	0.082891	-12.709503	-4.686657	-9.054107
46408		1.251137	-1.884500	26.241369	-1.244620	4.047101	16.177050	1.017765	-7.354262	-2.222611	0.357910	0.432129	-1.028564	0.002638	-0.020247	0.262531	-0.987310	0.111062	0.069854	0.089472	-12.088938	-9.079701	-9.392839
46409		12.295844	-5.753927	10.800687	9.018222	-4.950119	4.149795	0.316185	-8.004028	-2.203185	0.282471	0.464111	-1.068848	0.117865	-0.059032	0.112700	-0.982849	0.112254	0.110675	0.095696	-11.854667	-13.829786	-9.679525
46410		39.880138	1.707174	21.672637	33.139769	0.377789	21.230697	0.733814	-7.198925	-2.021793	0.221191	0.483154	-1.104492	0.390798	0.012264	0.230942	-0.977610	0.110930	0.147487	0.101101	-11.350882	-18.107414	-9.994194
46411		34.172549	-2.489978	20.029199	25.268707	-3.039857	20.633976	0.605273	-5.213897	-1.328319	0.171143	0.495605	-1.117676	0.336174	-0.027769	0.209024	-0.973061	0.109625	0.174000	0.104203	-10.948354	-21.190598	-10.170709
46412		22.038666	2.296778	16.089583	15.235518	2.620773	12.787288	0.502308	-3.997576	-0.787535	0.132568	0.508057	-1.133301	0.217199	0.021697	0.165314	-0.969234	0.108592	0.194139	0.105371	-10.659308	-23.529302	-10.183028
46413		7.095276	2.468249	8.880834	3.688587	3.477243	0.656072	0.120164	-3.444161	-0.320077	0.107422	0.518799	-1.144531	0.069449	0.024517	0.090028	-0.965625	0.109534	0.211104	0.104906	-10.679358	-25.510473	-9.976528
46414		10.672769	-2.727535	9.569448	4.882826	-1.793303	3.819661	0.119550	-3.508618	-0.802638	0.068848	0.522461	-1.151123	0.104917	-0.027757	0.097529	-0.961399	0.109969	0.228545	0.106705	-10.574983	-27.575383	-10.064578
46415		19.711105	-11.150995	10.551285	9.686312	-11.005799	10.416481	0.874313	-2.348015	-1.098143	0.051025	0.524414	-1.157715	0.195240	-0.113052	0.107320	-0.958500	0.105789	0.240952	0.109672	-9.873548	-29.019625	-10.493649
46416		13.305175	-0.482954	12.312862	5.732024	0.512338	7.384281	1.122788	-1.841727	-0.608177	0.032959	0.521729	-1.159912	0.131894	-0.005927	0.124316	-0.956470	0.100716	0.250735	0.110242	-9.138941	-30.122250	-10.685655
46417		14.315962	6.920152	11.800562	8.523093	7.192396	6.549227	0.486043	-0.539258	-0.552838	0.033203	0.519531	-1.162109	0.143030	0.068518	0.118558	-0.955700	0.098035	0.253939	0.111990	-8.710582	-30.486571	-10.989136
46418		4.937171	-1.961880	9.044956	-0.563249	-0.480425	0.650939	0.128880	-0.528193	-0.227812	0.028564	0.521729	-1.164307	0.049110	-0.019733	0.090567	-0.954949	0.097462	0.256680	0.112646	-8.592116	-30.809768	-11.083503
46419		9.181389	-0.275643	9.655456	3.124944	0.568573	3.129995	0.054470	-0.226661	-0.223024	0.026367	0.521729	-1.166504	0.091701	-0.002885	0.096658	-0.954532	0.097079	0.257987	0.113519	-8.501128	-30.967663	-11.205309
46420		7.073789	-1.355270	8.876410	1.405765	-0.307402	1.527296	-0.040078	-0.104436	-0.072158	0.028320	0.526123	-1.166504	0.070687	-0.013560	0.088804	-0.954325	0.097274	0.258532	0.113855	-8.509716	-31.037336	-11.239977
46421		6.237631	-0.245330	9.201194	0.833385	0.982565	1.231325	-0.136774	-0.132271	0.015496	0.028320	0.523926	-1.168701	0.062316	-0.002386	0.092055	-0.954069	0.098057	0.259166	0.113883	-8.604337	-31.121798	-11.213646
46422		5.458497	-1.335897	9.140907	-0.096672	0.079924	0.916720	-0.226316	-0.170944	0.064295	0.023682	0.530518	-1.166748	0.054511	-0.013238	0.091471	-0.953761	0.099354	0.259855	0.113776	-8.769878	-31.217427	-11.151067
46423		5.528381	-1.387358	8.725245	0.128868	-0.052155	0.608359	-0.263991	-0.230186	0.076054	0.023682	0.528320	-1.168945	0.055189	-0.013737	0.087334	-0.953345	0.100877	0.260854	0.113631	-8.963743	-31.351921	-11.074025
46424		5.358239	-1.722533	8.514861	-0.022620	-0.362144	0.387750	-0.282294	-0.261198	0.064661	0.023438	0.534912	-1.166748	0.053477	-0.017088	0.085243	-0.952885	0.102493	0.261939	0.113550	-9.167175	-31.498227	-11.000746
46425		5.361367	-1.072710	8.614007	0.085981	0.317866	0.384739	-0.280816	-0.292537	0.067293	0.016357	0.543701	-1.162598	0.053491	-0.010588	0.086233	-0.952367	0.104119	0.263228	0.113437	-9.372242	-31.668370	-10.921438
46426		5.302707	-0.734138	8.809612	0.011339	0.739349	0.469334	-0.317716	-0.333491	0.090911	0.011963	0.541504	-1.157959	0.052883	-0.007177	0.088196	-0.951799	0.105978	0.264622	0.113238	-9.610558	-31.852580	-10.821137
46427		5.087332	-0.892331	8.901145	-0.284039	0.692289	0.451200	-0.356437	-0.394609	0.118068	0.002930	0.543457	-1.162354	0.050703	-0.008735	0.089127	-0.951123	0.108088	0.266325	0.112929	-9.884415	-32.074892	-10.694499
46428		4.976266	-1.743747	8.613507	-0.502885	-0.127167	0.273293	-0.369972	-0.464500	0.111851	0.000732	0.543457	-1.162354	0.049572	-0.017250	0.086282	-0.950351	0.110295	0.268297	0.112628	-10.170341	-32.330124	-10.562275
46429		4.580346	-2.351343	8.400596	-0.935876	-0.653580	-0.026214	-0.313700	-0.533725	0.060101	-0.001709	0.550049	-1.155762	0.045586	-0.023368	0.084165	-0.949463	0.112200	0.270711	0.112459	-10.410616	-32.635729	-10.454385
46430		4.489243	-2.719758	8.294448	-1.109286	-0.979679	-0.109201	-0.225213	-0.595019	-0.031200	-0.006104	0.547607	-1.153564	0.044641	-0.027111	0.083108	-0.948496	0.113598	0.273459	0.112568	-10.573419	-32.978502	-10.398494
46431		4.997920	-2.761714	8.223930	-0.725484	-1.085942	0.113708	-0.170722	-0.631896	-0.139363	-0.021729	0.545166	-1.146729	0.049700	-0.027582	0.082420	-0.947422	0.114607	0.276525	0.113093	-10.667989	-33.359819	-10.409405
46432		4.625658	-4.058207	8.353879	-1.525906	-2.201965	0.211060	-0.081050	-0.695855	-0.283440	-0.028809	0.551758	-1.149170	0.045908	-0.040613	0.083715	-0.946233	0.115029	0.279970	0.114139	-10.662609	-33.785972	-10.509408
46433		4.767030	-2.319611	8.863262	-1.264008	-0.421254	0.428736	-0.016148	-0.794870	-0.397956	-0.041748	0.540283	-1.146484	0.047271	-0.023283	0.088823	-0.944846	0.115038	0.284034	0.115575	-10.582002	-34.286274	-10.675160
46434		5.060562	-1.808336	8.710616	-0.897235	-0.017702	0.382803	-0.027872	-0.891570	-0.445537	-0.044189	0.544678	-1.137695	0.050176	-0.018183	0.087333	-0.943281	0.115088	0.288516	0.117196	-10.494630	-34.839473	-10.863457
46435		5.350573	-1.786395	8.310675	-0.554102	-0.149057	0.215123	0.001750	-0.966025	-0.481513	-0.055420	0.542236	-1.128906	0.053060	-0.017993	0.083364	-0.941562	0.114987	0.293432	0.118896	-10.378107	-35.444297	-11.069244
46436		5.720463	-0.758308	8.151287	0.017311	0.724095	0.148066	0.001691	-1.019481	-0.489682	-0.068604	0.537598	-1.124268	0.056769	-0.007723	0.081803	-0.939747	0.114902	0.298542	0.120602	-10.258959	-36.073531	-11.277432
46437		5.929127	-1.153680	7.791076	0.147464	0.221220	0.041991	-0.042940	-1.048389	-0.471694	-0.084473	0.539307	-1.113037	0.058854	-0.011659	0.078223	-0.937827	0.115067	0.303793	0.122268	-10.170862	-36.723111	-11.472187
46438		5.799285	-1.379277	7.637714	-0.049030	-0.005939	-0.124275	-0.028746	-1.056705	-0.463840	-0.097656	0.530273	-1.108398	0.057556	-0.013916	0.076684	-0.935892	0.115179	0.309025	0.123868	-10.075505	-37.370158	-11.663582
46439		6.294891	-1.286866	7.512895	0.320716	-0.027355	0.067626	0.016198	-1.062771	-0.467496	-0.111084	0.530029	-1.103760	0.062518	-0.013021	0.075461	-0.933922	0.115074	0.314357	0.125407	-9.949023	-38.026898	-11.859846
46440		6.324621	-0.704137	7.158961	0.611007	0.419476	-0.262967	-0.042518	-1.028469	-0.462601	-0.124268	0.525146	-1.094727	0.062860	-0.007172	0.071915	-0.931962	0.115227	0.319426	0.127031	-9.852407	-38.657287	-12.060471
46441		6.210513	-1.161737	7.296202	0.197382	0.058726	-0.163267	-0.078064	-1.047719	-0.444400	-0.137695	0.522705	-1.092529	0.061696	-0.011726	0.073291	-0.929913	0.115581	0.324594	0.128612	-9.781721	-39.302823	-12.248307
46442		5.933744	-1.452836	7.458648	-0.305254	-0.105586	-0.177017	-0.115520	-1.082939	-0.455354	-0.142334	0.524902	-1.074707	0.058899	-0.014620	0.074915	-0.927765	0.116111	0.329845	0.130280	-9.727502	-39.962864	-12.442531
46443		5.631211	-1.903282	7.790998	-0.984751	-0.358987	-0.069340	-0.131468	-1.157858	-0.502046	-0.157715	0.520020	-1.072266	0.055812	-0.019122	0.078247	-0.925399	0.116681	0.335499	0.132143	-9.661818	-40.675859	-12.664655
46444		5.740711	-1.703677	7.817391	-0.980378	-0.161100	-0.015682	-0.127051	-1.252218	-0.558731	-0.182373	0.519531	-1.063232	0.056868	-0.017146	0.078542	-0.922818	0.117195	0.341559	0.134200	-9.569646	-41.441057	-12.921109
46445		6.307538	-0.818398	7.694458	-0.340197	0.556482	0.148857	-0.136693	-1.374320	-0.589173	-0.193604	0.519287	-1.050049	0.062520	-0.008316	0.077381	-0.919935	0.117775	0.348227	0.136334	-9.471273	-42.283967	-13.189969
46446		5.991769	-0.386519	7.976539	-0.742567	1.127854	0.079249	-0.163140	-1.513144	-0.564172	-0.209229	0.512451	-1.042969	0.059301	-0.003968	0.080219	-0.916773	0.118609	0.355428	0.138310	-9.407167	-43.196553	-13.427280
46447		5.998308	0.022203	8.079636	-0.824683	1.578285	0.091205	-0.174301	-1.730518	-0.481490	-0.229492	0.516357	-1.029785	0.059281	0.000149	0.081311	-0.913189	0.119779	0.363592	0.139788	-9.406572	-44.230208	-13.576472
46448		5.641980	0.197508	8.542595	-1.485268	2.002621	0.118419	-0.208863	-2.013221	-0.400548	-0.251953	0.513672	-1.022949	0.055560	0.001953	0.085986	-0.909058	0.121444	0.372890	0.140776	-9.495364	-45.410068	-13.625221
46449		5.126386	0.287016	9.174797	-2.423162	2.449838	0.120107	-0.252591	-2.402606	-0.313193	-0.278564	0.508789	-1.004883	0.050161	0.002907	0.092351	-0.904101	0.123724	0.383873	0.141196	-9.699348	-46.807435	-13.546505
46450		4.585884	0.052503	9.572391	-3.373109	2.545885	-0.076345	-0.321714	-2.917461	-0.262107	-0.314697	0.510254	-0.991455	0.044457	0.000621	0.096378	-0.898001	0.126760	0.396984	0.141172	-10.041871	-48.484343	-13.337190
46451		4.099789	0.236076	9.842984	-4.094220	3.000307	-0.433353	-0.390425	-3.549712	-0.247848	-0.345703	0.500488	-0.966797	0.039246	0.002504	0.099132	-0.890352	0.130537	0.412812	0.140785	-10.531760	-50.520383	-12.990467
46452		3.757541	0.538288	9.751418	-4.464992	3.435205	-0.995339	-0.463084	-4.278122	-0.236677	-0.388184	0.497559	-0.939697	0.035485	0.005567	0.098275	-0.880827	0.135130	0.431618	0.139964	-11.221469	-52.957423	-12.454600
46453		3.372632	0.885555	9.580777	-4.810889	3.899871	-1.714897	-0.536917	-5.104428	-0.198178	-0.444092	0.494141	-0.903809	0.031276	0.009082	0.096603	-0.868982	0.140622	0.453776	0.138502	-12.208021	-55.852906	-11.623097
46454		3.198901	0.021881	9.160559	-5.308863	3.133981	-2.321637	-0.555635	-5.913270	-0.152592	-0.493164	0.486328	-0.863525	0.029263	0.000452	0.092497	-0.854666	0.146760	0.479016	0.136203	-13.588448	-59.179355	-10.368820
46455		2.755042	-0.517115	9.401618	-6.342765	2.935142	-2.930283	-0.463289	-6.576990	-0.134176	-0.551270	0.476074	-0.814209	0.024436	-0.004969	0.094866	-0.837982	0.152842	0.506693	0.132993	-15.429389	-62.854819	-8.571882
46456		1.427924	2.558309	10.732461	-7.273543	6.509988	-4.480780	-0.420852	-7.591074	-0.071528	-0.620605	0.474609	-0.749512	0.010205	0.025805	0.107709	-0.817756	0.159398	0.537927	0.128460	-18.296878	-67.034298	-5.678716
46457		2.911341	3.431621	11.051651	-7.094748	7.538819	-3.885254	-0.668822	-8.857203	0.388907	-0.681152	0.470947	-0.673584	0.024120	0.034738	0.111543	-0.792813	0.168729	0.572901	0.121499	-24.118740	-71.696761	0.123864
46458		6.902038	0.799720	11.927814	-8.314088	5.811784	-0.459713	-1.074187	-10.281527	1.078394	-0.748535	0.478271	-0.569092	0.062727	0.008999	0.122565	-0.762025	0.182125	0.611329	0.111466	-37.188086	-76.482327	13.054333
46459		15.105278	-1.611552	8.809995	-5.835507	3.470793	6.372102	-1.755781	-11.203550	1.449772	-0.804932	0.485840	-0.458008	0.145910	-0.014222	0.096503	-0.725731	0.199202	0.650724	0.100955	-64.941585	-79.971569	40.338355
46460		21.599676	-2.718459	10.197703	-8.579521	4.996792	12.065402	-2.361506	-11.757725	1.451125	-0.845703	0.504639	-0.329590	0.209683	-0.024342	0.114731	-0.684524	0.218087	0.689562	0.091484	-104.975259	-79.719645	79.582588
46461		29.141534	-14.833964	14.209707	-19.814915	-1.106085	19.782808	-2.263457	-11.938879	0.939850	-0.879395	0.510254	-0.196289	0.282872	-0.145246	0.160816	-0.640051	0.234138	0.727075	0.082920	-132.976893	-75.826834	106.862989
46462		22.701806	-17.287608	7.752079	-17.457278	-6.196803	13.218396	-0.662843	-11.754144	-0.858734	-0.912842	0.504883	-0.076172	0.221179	-0.173547	0.091214	-0.595062	0.237633	0.764152	0.074181	-148.891837	-70.855101	123.050772
46463		29.308727	-12.668641	21.120283	-30.653751	5.447994	12.431377	-0.549471	-10.942189	-1.597290	-0.927734	0.488770	0.030762	0.279927	-0.128348	0.227114	-0.551111	0.236883	0.797211	0.067947	-158.271475	-65.629383	132.792827
46464		34.474753	-6.980204	26.802957	-36.456614	14.386323	10.638664	-1.682403	-8.768717	-1.420312	-0.934082	0.483887	0.108643	0.332049	-0.069850	0.283364	-0.513094	0.238625	0.821677	0.068118	-164.019682	-61.128372	138.134910
46465		17.995643	2.715890	24.633234	-25.086525	17.276060	-6.655939	-3.979934	-5.306205	-0.843492	-0.949463	0.479004	0.170898	0.173475	0.031375	0.250396	-0.486015	0.247068	0.834446	0.080293	-168.345934	-58.296801	140.498489
46466		41.304695	-7.851281	27.491867	-41.857282	18.101550	11.244728	-6.666289	-2.376089	-0.898472	-0.955566	0.460938	0.189209	0.409392	-0.071030	0.282249	-0.467159	0.260342	0.838135	0.107306	-173.313096	-57.030121	141.852327
46467		33.111468	-24.008661	29.156603	-48.181753	3.865898	3.838001	-5.218169	2.810189	-1.355447	-0.975586	0.454102	0.147217	0.333623	-0.234708	0.293061	-0.471288	0.265254	0.830081	0.135988	-177.322543	-58.710872	143.051078
46468		14.318093	-25.407128	18.859644	-33.797118	-7.279349	-6.503175	-2.576298	4.981482	-1.610840	-0.979248	0.429932	0.072266	0.145833	-0.252812	0.188248	-0.487209	0.261172	0.818388	0.157030	179.695219	-61.579060	144.782694
46469		11.349657	-19.287627	13.738502	-25.338104	-5.776275	-6.053934	0.125365	5.870331	-1.873878	-0.972168	0.414551	-0.022949	0.115646	-0.194038	0.133890	-0.509825	0.248519	0.806138	0.168698	177.485532	-64.934984	147.332721
46470		7.896111	-12.276914	10.869501	-17.776049	-2.815277	-7.123482	1.618418	6.594183	-1.853161	-0.949219	0.395264	-0.117920	0.081317	-0.124375	0.105037	-0.536494	0.231246	0.792513	0.174994	175.394891	-68.636789	150.611261
46471		4.420537	-6.416598	8.926948	-11.804517	-0.035996	-8.806371	2.141720	6.833530	-1.478823	-0.916992	0.374023	-0.215332	0.046724	-0.065445	0.087005	-0.564547	0.213571	0.777104	0.178279	173.145913	-72.472816	154.291576
46472		2.792978	-2.395601	7.450476	-8.015036	2.098387	-9.197754	1.860783	6.894776	-0.947930	-0.867188	0.357422	-0.286133	0.030354	-0.024782	0.073258	-0.592072	0.198390	0.759828	0.180978	170.250630	-76.301375	158.399187
46473		2.183160	-1.753512	6.881555	-7.082186	2.130503	-9.120573	1.297729	6.871165	-0.408399	-0.810547	0.340820	-0.345947	0.024139	-0.018025	0.067897	-0.618888	0.186721	0.740447	0.183985	166.034760	-80.135546	163.456694
46474		3.161478	-2.542793	6.802324	-7.514885	1.308518	-7.685921	0.935385	6.865958	0.089365	-0.747070	0.329102	-0.403809	0.033933	-0.025727	0.066765	-0.644854	0.177768	0.719556	0.186551	158.343898	-83.902424	171.755899
46475		4.427085	-3.775583	6.874342	-8.142553	0.114338	-5.970116	0.900915	7.016173	0.545920	-0.686035	0.316895	-0.448242	0.046744	-0.037935	0.066962	-0.671156	0.170232	0.696664	0.187695	130.940172	-87.494970	-160.268535
46476		4.707575	-4.256316	6.910371	-8.139943	-0.511115	-5.178700	1.172376	7.235068	0.902022	-0.620361	0.302734	-0.468262	0.049720	-0.042740	0.067086	-0.697709	0.162574	0.672268	0.186620	29.085242	-87.163214	-57.684518
46477		4.478328	-2.522161	6.730621	-6.828630	0.695624	-4.855930	1.426880	7.386650	1.155167	-0.572754	0.285889	-0.494629	0.047369	-0.025424	0.065407	-0.724422	0.154528	0.646213	0.183689	6.586673	-83.232759	-34.309360
46478		3.544923	-0.151881	6.739004	-5.515969	2.641185	-5.276712	1.351048	7.401285	1.362862	-0.531738	0.269043	-0.507813	0.037921	-0.001715	0.066006	-0.750069	0.147168	0.619150	0.179975	0.630385	-79.047169	-27.505576
46479		3.455243	1.809078	7.118969	-4.685859	4.387520	-4.846894	0.952958	7.260973	1.547684	-0.504395	0.262939	-0.525635	0.036968	0.018035	0.069963	-0.774261	0.141801	0.590993	0.176464	-2.412092	-74.842612	-23.832493
46480		4.758671	2.255736	7.677847	-4.288107	4.734280	-3.041411	0.362227	7.156029	1.705738	-0.481689	0.254639	-0.550049	0.050099	0.022841	0.075057	-0.796614	0.139069	0.562031	0.173746	-4.557125	-70.694328	-21.374556
46481		6.232560	0.991425	8.247853	-4.325838	3.505794	-1.048759	-0.112895	7.134329	1.788078	-0.447998	0.255371	-0.583496	0.065121	0.010534	0.080183	-0.817735	0.138293	0.531664	0.171810	-6.259796	-66.497086	-19.624870
46482		7.966301	-0.748561	8.904257	-4.249828	1.813208	1.227888	-0.295274	7.185146	1.792741	-0.403076	0.251709	-0.612305	0.082854	-0.006624	0.086114	-0.837583	0.138038	0.500461	0.170115	-7.533899	-62.290965	-18.404391
46483		9.532317	-2.023979	9.827865	-3.935626	0.603023	3.438919	-0.203679	7.330970	1.731736	-0.346924	0.248535	-0.648193	0.099009	-0.019295	0.094714	-0.856789	0.136924	0.467791	0.168333	-8.361383	-57.961732	-17.593757
46484		11.244740	-1.895221	11.181744	-2.968184	0.716253	5.859532	-0.062267	7.519378	1.652176	-0.290527	0.242920	-0.668213	0.116695	-0.017966	0.107488	-0.875065	0.134666	0.434085	0.166421	-8.833195	-53.564679	-17.070829
46485		12.930613	-0.809123	12.480760	-1.214316	1.575579	8.061845	-0.088028	7.778416	1.619980	-0.236328	0.239746	-0.679443	0.134087	-0.006964	0.119657	-0.892654	0.132016	0.398287	0.164646	-9.165698	-48.984879	-16.718362
46486		13.989646	-0.645132	13.380956	0.373328	1.496202	9.489874	-0.352749	8.039351	1.622021	-0.170898	0.227539	-0.692871	0.145167	-0.005059	0.128054	-0.908993	0.130131	0.360749	0.163272	-9.551862	-44.293190	-16.470365
46487		15.419240	-2.128284	13.833807	2.129641	-0.360140	10.893292	-0.599400	8.202948	1.649381	-0.121094	0.221924	-0.697510	0.159858	-0.019578	0.131918	-0.924034	0.129038	0.321321	0.162060	-10.020484	-39.468011	-16.292501
46488		17.809710	-4.395883	14.094844	4.662797	-3.244309	12.605892	-0.619841	8.244934	1.753264	-0.076172	0.220703	-0.708740	0.184080	-0.041941	0.133573	-0.937458	0.127962	0.281351	0.160122	-10.492514	-34.644942	-16.104830
46489		21.018403	-6.559860	13.815261	8.454975	-6.459825	13.895054	-0.379541	8.226369	1.968642	-0.020020	0.221680	-0.713379	0.216260	-0.063238	0.129461	-0.949589	0.125824	0.240711	0.156550	-10.863675	-29.771853	-15.827377
46490		24.325755	-6.936511	12.807270	13.483072	-8.298134	13.698097	0.030022	8.136748	2.337772	0.029541	0.213867	-0.720215	0.248985	-0.066495	0.118009	-0.960367	0.122054	0.200459	0.150383	-11.072814	-24.944393	-15.342845
46491		26.432385	0.672632	12.452246	19.904704	-2.093132	11.473896	0.140455	7.820633	3.094921	0.078857	0.219238	-0.733887	0.268776	0.010781	0.114075	-0.969809	0.118506	0.160696	0.140014	-11.358088	-20.174152	-14.403415
46492		30.298560	2.583371	10.541828	26.200944	-1.535998	8.797932	-0.617674	7.376360	4.110047	0.135010	0.218262	-0.729736	0.305974	0.032405	0.094075	-0.977368	0.119571	0.121962	0.124817	-12.182037	-15.560273	-12.884732
46493		33.887597	-3.747222	5.784407	30.284058	-8.875133	4.305234	-0.713301	6.720981	4.608073	0.186768	0.219238	-0.729980	0.341307	-0.029446	0.046514	-0.983118	0.121569	0.085604	0.106635	-13.006606	-11.200657	-11.100101
46494		36.843228	-8.798086	-0.733108	33.998514	-15.071020	-2.620972	0.272603	5.959812	4.124337	0.231934	0.213379	-0.725586	0.369702	-0.080344	-0.018450	-0.987382	0.118773	0.053933	0.089785	-13.104272	-7.344338	-9.546807
46495		35.423460	-4.839864	-7.241351	34.385436	-11.918564	-12.238678	1.166707	5.103266	2.742471	0.266113	0.200684	-0.723389	0.352844	-0.043095	-0.081691	-0.990256	0.111414	0.027453	0.078903	-12.526194	-4.126138	-8.658357
46496		35.041943	2.932095	-11.690874	35.262693	-4.935364	-20.068651	0.582929	4.082860	1.295717	0.282227	0.192139	-0.725342	0.347736	0.031934	-0.123936	-0.991419	0.107103	0.006777	0.074646	-12.207148	-1.686324	-8.431312
46497		34.766252	2.527037	-15.440716	34.467239	-6.026372	-24.947781	-0.763543	3.033529	0.353849	0.306396	0.203613	-0.721191	0.345222	0.025280	-0.159752	-0.991121	0.109764	-0.008832	0.074512	-12.644208	0.065887	-8.606051
46498		33.343869	-2.951361	-17.404452	31.761572	-11.744720	-26.445857	-1.169847	1.849604	-0.038785	0.312744	0.214844	-0.712646	0.331805	-0.030607	-0.176941	-0.990322	0.114901	-0.018375	0.075644	-13.320575	1.089366	-8.863134
46499		36.772621	-2.067215	-15.634393	35.125547	-11.212756	-25.349688	-0.676841	0.626801	0.132816	0.303955	0.212402	-0.714844	0.367248	-0.020960	-0.157425	-0.989914	0.118023	-0.021848	0.075261	-13.711413	1.460637	-8.871066
46500		38.133190	-3.187682	-15.620346	36.275483	-12.503908	-25.176202	-0.317552	-0.143749	0.299475	0.299316	0.212402	-0.719238	0.381491	-0.031553	-0.155879	-0.989850	0.119649	-0.021396	0.073640	-13.892093	1.417445	-8.682013
46501		28.863152	-5.864102	-15.822823	26.852881	-13.680176	-24.289964	0.052786	-1.303360	-0.193657	0.281494	0.212158	-0.719238	0.289598	-0.058880	-0.156359	-0.989926	0.119924	-0.014781	0.073801	-13.864689	0.662527	-8.607822
46502		-3.142209	-5.489937	-11.584370	-4.214595	-7.490885	-19.828327	1.283378	-4.275842	-1.357165	0.234375	0.204590	-0.736572	-0.029299	-0.053948	-0.116833	-0.990239	0.115251	0.007709	0.078009	-13.130757	-1.905321	-8.789428
46503		-4.011876	0.924106	22.969450	-4.462416	6.688291	12.089957	1.759639	-6.069276	-1.572851	0.180908	0.194580	-0.744873	-0.047000	0.007579	0.228409	-0.989874	0.108841	0.039393	0.082166	-12.120698	-5.501665	-8.905573
46504		-10.432885	3.399866	6.015429	-10.183210	6.232263	-6.072436	0.540398	-7.377973	-1.716769	0.113770	0.188965	-0.760010	-0.106159	0.034749	0.056353	-0.987291	0.108815	0.077065	0.086464	-11.803148	-9.845233	-8.989856
46505		30.697376	5.286291	15.607760	27.941945	3.963926	10.600834	0.448836	-8.233963	-2.074566	0.039795	0.180908	-0.759521	0.300726	0.049352	0.168660	-0.982567	0.109308	0.118988	0.091952	-11.505353	-14.710187	-9.202684
46506		34.349064	3.788845	19.873199	28.481260	3.095348	17.898162	0.057425	-6.097695	-1.605386	-0.011963	0.182129	-0.752686	0.337510	0.035104	0.209094	-0.977737	0.110854	0.149820	0.096411	-11.415186	-18.321265	-9.416237
46507		24.670823	-1.950558	17.085296	17.411298	-1.437829	14.660650	-0.054212	-4.946456	-1.368059	-0.049805	0.176758	-0.752197	0.242242	-0.021125	0.176887	-0.973003	0.112478	0.174768	0.100353	-11.375322	-21.264527	-9.634786
46508		16.743023	-2.431130	11.996496	10.652100	-1.796455	7.890423	-0.143770	-4.066042	-0.572108	-0.072510	0.180908	-0.747803	0.164875	-0.024698	0.123352	-0.968867	0.114730	0.194795	0.100941	-11.520531	-23.617162	-9.479373
46509		8.019813	-1.632929	8.251925	3.732067	-0.538294	1.180204	-0.212741	-3.823505	-0.091756	-0.110596	0.180176	-0.740967	0.078594	-0.016277	0.084049	-0.964769	0.117616	0.213337	0.099371	-11.826905	-25.786333	-9.044992
46510		20.412204	-9.267243	12.761633	10.552873	-8.278856	12.219791	0.628638	-3.538851	-0.902510	-0.135254	0.172852	-0.745117	0.201403	-0.093993	0.130902	-0.960739	0.115396	0.231247	0.100943	-11.421907	-27.880792	-9.151883
46511		18.089954	-8.430982	10.613241	9.020524	-7.806931	9.387122	1.228649	-1.971109	-0.806712	-0.148193	0.159424	-0.738037	0.179502	-0.085693	0.107383	-0.958654	0.109590	0.241907	0.102241	-10.593911	-29.092444	-9.418964
46512		13.024813	2.661116	11.874485	6.527979	3.699976	6.355764	1.044826	-1.212540	-0.565813	-0.161377	0.150146	-0.739990	0.129598	0.025620	0.119667	-0.957424	0.104550	0.248589	0.103010	-9.889678	-29.838052	-9.640686
46513		9.109969	0.711030	10.139845	3.306738	1.871044	3.297495	0.513655	-0.600621	-0.514146	-0.165527	0.143555	-0.737793	0.090812	0.006616	0.101689	-0.956631	0.101805	0.252133	0.104505	-9.466193	-30.243406	-9.905430
46514		6.739271	-3.957835	8.493182	0.792845	-2.716298	1.376991	0.454192	-0.389629	-0.420776	-0.167480	0.138916	-0.733154	0.067143	-0.039913	0.084972	-0.956133	0.099342	0.254481	0.105736	-9.092479	-30.506945	-10.136737
46515		8.768623	0.217727	9.519271	3.041680	1.167636	2.714764	0.393726	-0.100165	-0.390989	-0.169678	0.136719	-0.739746	0.087642	0.001818	0.095240	-0.955950	0.097059	0.255502	0.107041	-8.746651	-30.615458	-10.379615
46516		6.116505	-0.379002	8.976240	0.877627	0.828600	0.988760	0.184861	-0.012879	-0.298654	-0.160889	0.136963	-0.735352	0.061153	-0.003964	0.089763	-0.955850	0.095838	0.255842	0.108216	-8.546070	-30.652848	-10.572228
46517		5.833735	-0.158590	9.062152	0.640873	1.079976	0.892597	0.101419	-0.045264	-0.216750	-0.169678	0.136719	-0.737549	0.058315	-0.001695	0.090634	-0.955681	0.095142	0.256361	0.109089	-8.422083	-30.714297	-10.707091
46518		5.568330	-0.767027	8.930410	0.310608	0.497731	0.723091	-0.021036	-0.082716	-0.135717	-0.169678	0.134521	-0.730713	0.055641	-0.007699	0.089328	-0.955479	0.095151	0.256844	0.109715	-8.397360	-30.776933	-10.785840
46519		5.628935	-0.655586	8.727694	0.471840	0.545189	0.568424	-0.011575	-0.092024	-0.107256	-0.174316	0.136475	-0.726318	0.056246	-0.006581	0.087303	-0.955254	0.095160	0.257473	0.110188	-8.376783	-30.855600	-10.844339
46520		5.416820	-0.385892	8.731828	0.348626	0.840611	0.429749	-0.049143	-0.124218	-0.064732	-0.172119	0.138916	-0.735352	0.054113	-0.003855	0.087353	-0.955023	0.095417	0.258105	0.110491	-8.394060	-30.935801	-10.872311
46521		5.233251	-0.183882	8.810896	0.192439	1.093061	0.376561	-0.112699	-0.179378	-0.003452	-0.178711	0.134277	-0.735107	0.052253	-0.001790	0.088157	-0.954693	0.096089	0.259046	0.110557	-8.470782	-31.055346	-10.853806
46522		5.214238	-0.093419	8.988790	0.098376	1.246645	0.503876	-0.198273	-0.236488	0.055781	-0.174561	0.143311	-0.733154	0.052036	-0.000831	0.089950	-0.954309	0.097275	0.260072	0.110424	-8.620508	-31.188965	-10.790654
