// General information: 
//  MT Manager version: 2019.2.0 
//  XDA version: 2019.2.0 build 3853 rev 94535 built on 2019-09-09
// Device information: 
//  DeviceId: 00B40A8D
//  ProductCode: MTW2-3A7G6
//  Firmware Version: 4.3.5
//  Hardware Version: 1.1.0
// Device settings: 
//  Filter Profile: human(46.1)
//  Option Flags: Orientation Smoother Disabled, AHS Disabled, ICC Disabled
// Coordinate system: ENU
PacketCounter	SampleTimeFine	Acc_X	Acc_Y	Acc_Z	FreeAcc_E	FreeAcc_N	FreeAcc_U	Gyr_X	Gyr_Y	Gyr_Z	Mag_X	Mag_Y	Mag_Z	VelInc_X	VelInc_Y	VelInc_Z	Quat_q0	Quat_q1	Quat_q2	Quat_q3	Roll	Pitch	Yaw
45979		9.295702	-0.318715	3.586668	-0.120988	-0.090972	0.154907	-0.054508	0.064056	-0.024676	-1.020508	0.071289	0.028809	0.092968	-0.003189	0.035838	0.134249	-0.555629	-0.068492	-0.817657	-5.689654	-67.974533	-157.514341
45980		9.271577	-0.314642	3.602988	-0.101420	-0.089138	0.138414	-0.054743	0.069307	-0.023420	-1.027100	0.071045	0.031006	0.092728	-0.003147	0.035999	0.134014	-0.555445	-0.068242	-0.817841	-5.693507	-67.944704	-157.550057
45981		9.278985	-0.317377	3.631621	-0.084292	-0.082614	0.156015	-0.059722	0.075053	-0.022712	-1.022705	0.071289	0.020020	0.092803	-0.003173	0.036282	0.133779	-0.555239	-0.067964	-0.818043	-5.702349	-67.911272	-157.583065
45982		9.270873	-0.290612	3.617625	-0.091684	-0.113245	0.142186	-0.064601	0.083217	-0.025771	-1.022949	0.075684	0.022217	0.092723	-0.002906	0.036139	0.133509	-0.555003	-0.067670	-0.818271	-5.706331	-67.873641	-157.625017
45983		9.253380	-0.312170	3.602091	-0.111705	-0.097464	0.120870	-0.064673	0.084973	-0.015318	-1.022949	0.075684	0.022217	0.092549	-0.003117	0.035983	0.133294	-0.554763	-0.067345	-0.818496	-5.727062	-67.834137	-157.648269
45984		9.252796	-0.290354	3.665583	-0.055020	-0.105048	0.143265	-0.050115	0.090771	-0.024971	-1.025146	0.075439	0.022217	0.092544	-0.002906	0.036615	0.133090	-0.554483	-0.067108	-0.818738	-5.725096	-67.791697	-157.685848
45985		9.254853	-0.316898	3.694825	-0.044195	-0.075255	0.157109	-0.046479	0.088069	-0.019051	-1.031738	0.073242	0.020020	0.092564	-0.003169	0.036908	0.132911	-0.554216	-0.066865	-0.818968	-5.729834	-67.750642	-157.715130
45986		9.205635	-0.331181	3.667366	-0.061851	-0.064260	0.101696	-0.050230	0.081859	-0.024286	-1.027100	0.068848	0.022217	0.092071	-0.003314	0.036637	0.132701	-0.553974	-0.066630	-0.819185	-5.729636	-67.713308	-157.751368
45987		9.169040	-0.326031	3.716671	-0.009043	-0.053384	0.086216	-0.051406	0.068954	-0.028645	-1.022705	0.069092	0.022217	0.091703	-0.003264	0.037136	0.132463	-0.553785	-0.066406	-0.819369	-5.726623	-67.683699	-157.792095
45988		9.200658	-0.329913	3.679947	-0.058432	-0.065064	0.101712	-0.046492	0.060821	-0.025636	-1.027100	0.068848	0.020020	0.092017	-0.003302	0.036772	0.132231	-0.553630	-0.066200	-0.819528	-5.723444	-67.658983	-157.831061
45989		9.179076	-0.323318	3.640598	-0.087601	-0.079565	0.066580	-0.036144	0.050693	-0.025394	-1.024902	0.071045	0.022217	0.091800	-0.003238	0.036383	0.132042	-0.553507	-0.066042	-0.819655	-5.718830	-67.639597	-157.864077
45990		9.153284	-0.340529	3.599361	-0.123093	-0.070620	0.027731	-0.028017	0.043529	-0.021204	-1.020508	0.071289	0.020020	0.091540	-0.003410	0.035974	0.131880	-0.553411	-0.065912	-0.819756	-5.714271	-67.624413	-157.892614
45991		9.173681	-0.343126	3.593135	-0.139219	-0.073300	0.044291	-0.019001	0.043849	-0.021127	-1.022705	0.073486	0.022217	0.091744	-0.003438	0.035912	0.131753	-0.553305	-0.065817	-0.819855	-5.706747	-67.608684	-157.918163
45992		9.181432	-0.294424	3.598887	-0.124843	-0.120304	0.051759	-0.021044	0.034115	-0.011608	-1.024902	0.071045	0.015625	0.091820	-0.002946	0.035974	0.131658	-0.553247	-0.065698	-0.819919	-5.714237	-67.598409	-157.928319
45993		9.189847	-0.296704	3.624580	-0.107693	-0.113810	0.069334	-0.012645	0.043399	-0.015055	-1.020508	0.071289	0.022217	0.091906	-0.002972	0.036226	0.131574	-0.553142	-0.065612	-0.820011	-5.711557	-67.582591	-157.944694
45994		9.205663	-0.323940	3.617297	-0.130130	-0.093119	0.082180	-0.012323	0.043802	-0.003498	-1.025146	0.075684	0.017822	0.092064	-0.003239	0.036153	0.131535	-0.553038	-0.065499	-0.820096	-5.723325	-67.565997	-157.945108
45995		9.262187	-0.310405	3.624464	-0.142279	-0.114287	0.136579	-0.013826	0.045285	-0.002919	-1.027100	0.071045	0.022217	0.092630	-0.003103	0.036224	0.131499	-0.552930	-0.065374	-0.820185	-5.737824	-67.548411	-157.943632
45996		9.246221	-0.331873	3.605390	-0.162280	-0.098444	0.115331	-0.009458	0.047606	0.002697	-1.024902	0.071045	0.015625	0.092471	-0.003316	0.036032	0.131501	-0.552813	-0.065255	-0.820272	-5.756902	-67.529588	-157.933769
45997		9.258821	-0.311300	3.632977	-0.138796	-0.115250	0.136617	-0.006433	0.044657	0.001514	-1.025146	0.075684	0.017822	0.092596	-0.003111	0.036309	0.131503	-0.552704	-0.065148	-0.820354	-5.773332	-67.512105	-157.925620
45998		9.250378	-0.357306	3.580888	-0.198473	-0.085305	0.110682	-0.005776	0.057401	-0.001340	-1.025146	0.075684	0.015625	0.092514	-0.003573	0.035782	0.131503	-0.552539	-0.065048	-0.820473	-5.783160	-67.487406	-157.923362
45999		9.235607	-0.306085	3.598167	-0.166348	-0.130206	0.101560	-0.012790	0.049265	0.002136	-1.022705	0.073486	0.020020	0.092365	-0.003058	0.035959	0.131491	-0.552416	-0.064911	-0.820569	-5.803408	-67.467258	-157.915019
46000		9.224143	-0.303489	3.580457	-0.180075	-0.137685	0.084040	-0.015173	0.049229	-0.006151	-1.027344	0.073242	0.017822	0.092250	-0.003035	0.035782	0.131447	-0.552292	-0.064792	-0.820669	-5.813731	-67.447853	-157.917752
46001		9.217223	-0.276511	3.563968	-0.187546	-0.168459	0.070226	-0.019313	0.050861	-0.009453	-1.025146	0.073242	0.020020	0.092181	-0.002766	0.035617	0.131370	-0.552162	-0.064658	-0.820779	-5.821558	-67.427468	-157.926903
46002		9.232284	-0.253132	3.537412	-0.212728	-0.201348	0.072990	-0.023908	0.048745	-0.010693	-1.022949	0.075684	0.015625	0.092331	-0.002532	0.035352	0.131276	-0.552047	-0.064516	-0.820883	-5.830129	-67.408972	-157.937571
46003		9.235744	-0.279766	3.562845	-0.201851	-0.171577	0.086854	-0.027916	0.047758	-0.014638	-1.020508	0.073486	0.017822	0.092366	-0.002799	0.035607	0.131153	-0.551934	-0.064363	-0.820991	-5.836222	-67.390658	-157.953944
46004		9.224419	-0.276536	3.544962	-0.215585	-0.179053	0.069347	-0.032637	0.048264	-0.015244	-1.016357	0.078125	0.015625	0.092253	-0.002767	0.035428	0.131024	-0.551823	-0.064199	-0.821099	-5.844334	-67.372390	-157.969847
46005		9.246526	-0.258345	3.595071	-0.176594	-0.188901	0.108132	-0.035182	0.049927	-0.013034	-1.020508	0.073486	0.015625	0.092474	-0.002583	0.035928	0.130888	-0.551706	-0.064011	-0.821214	-5.856494	-67.352748	-157.984161
46006		9.303346	-0.295665	3.623147	-0.185704	-0.156583	0.172694	-0.048564	0.056504	-0.015204	-1.020752	0.075684	0.010986	0.093043	-0.002955	0.036206	0.130723	-0.551571	-0.063777	-0.821349	-5.873321	-67.329682	-157.999935
46007		9.364554	-0.309212	3.652740	-0.188542	-0.147519	0.240953	-0.058334	0.056200	-0.018125	-1.025146	0.073486	0.008789	0.093656	-0.003090	0.036502	0.130505	-0.551441	-0.063503	-0.821492	-5.890925	-67.306767	-158.022729
46008		9.384906	-0.363967	3.668205	-0.201819	-0.096714	0.267718	-0.061318	0.069307	-0.023249	-1.027344	0.073242	0.015625	0.093861	-0.003639	0.036651	0.130273	-0.551252	-0.063230	-0.821677	-5.901440	-67.275908	-158.053554
46009		9.353634	-0.437433	3.757650	-0.136936	-0.002068	0.276069	-0.053339	0.074879	-0.024626	-1.027100	0.068848	0.008789	0.093550	-0.004376	0.037543	0.130047	-0.551040	-0.062983	-0.821873	-5.904757	-67.242733	-158.088746
46010		9.315218	-0.504893	3.771155	-0.136387	0.069564	0.248444	-0.045215	0.087966	-0.032895	-1.024902	0.071045	0.015625	0.093168	-0.005056	0.037672	0.129811	-0.550766	-0.062787	-0.822110	-5.889084	-67.202503	-158.139307
46011		9.261704	-0.541683	3.742619	-0.160515	0.103891	0.189473	-0.033342	0.102229	-0.032813	-1.022949	0.077881	0.015625	0.092635	-0.005426	0.037380	0.129616	-0.550426	-0.062627	-0.822380	-5.866205	-67.154214	-158.190511
46012		9.179428	-0.528373	3.813961	-0.072065	0.119078	0.140603	-0.023388	0.105028	-0.033705	-1.024902	0.071045	0.015625	0.091813	-0.005295	0.038092	0.129456	-0.550073	-0.062515	-0.822650	-5.836925	-67.105195	-158.241027
46013		9.135886	-0.495112	3.844783	-0.028517	0.099627	0.111080	-0.015210	0.109486	-0.029613	-1.022705	0.071289	0.006592	0.091379	-0.004962	0.038398	0.129326	-0.549692	-0.062416	-0.822932	-5.807313	-67.052565	-158.288299
46014		9.096492	-0.438546	3.877328	0.021358	0.056934	0.085214	-0.013356	0.114968	-0.015685	-1.020508	0.071289	0.008789	0.090987	-0.004390	0.038721	0.129261	-0.549294	-0.062288	-0.823218	-5.794180	-66.996320	-158.315956
46015		9.096613	-0.413897	3.888884	0.029370	0.033108	0.088885	-0.011178	0.111078	-0.009770	-1.025146	0.073486	0.015625	0.090988	-0.004141	0.038839	0.129224	-0.548910	-0.062150	-0.823491	-5.788945	-66.941626	-158.334268
46016		9.118905	-0.393055	3.890336	0.019780	0.007140	0.109167	-0.003683	0.107825	-0.005929	-1.025146	0.075684	0.008789	0.091210	-0.003933	0.038854	0.129229	-0.548541	-0.062040	-0.823744	-5.785264	-66.889467	-158.345208
46017		9.097197	-0.365528	3.911001	0.045544	-0.014504	0.096209	-0.003507	0.101638	0.002641	-1.024902	0.071289	0.008789	0.090992	-0.003653	0.039064	0.129261	-0.548195	-0.061906	-0.823979	-5.793559	-66.839436	-158.344041
46018		9.123552	-0.394114	3.877013	-0.009973	-0.003055	0.108282	0.000962	0.101343	0.007635	-1.022705	0.071289	0.004395	0.091255	-0.003938	0.038724	0.129336	-0.547852	-0.061783	-0.824205	-5.806474	-66.789864	-158.333684
46019		9.107362	-0.445017	3.937916	0.027960	0.059109	0.119331	0.005389	0.099554	0.006527	-1.022461	0.064697	0.002197	0.091093	-0.004448	0.039334	0.129408	-0.547509	-0.061676	-0.824429	-5.815065	-66.740796	-158.326647
46020		9.094160	-0.442122	3.924457	0.014069	0.051751	0.101832	0.009167	0.095127	0.002024	-1.024658	0.066895	0.002197	0.090960	-0.004422	0.039201	0.129460	-0.547180	-0.061601	-0.824645	-5.814053	-66.694435	-158.328181
46021		9.094936	-0.417969	3.934331	0.022083	0.027918	0.105490	0.007936	0.091373	0.001295	-1.022705	0.069092	0.002197	0.090967	-0.004181	0.039302	0.129515	-0.546867	-0.061524	-0.824850	-5.815334	-66.650334	-158.327511
46022		9.077487	-0.438292	3.919213	0.001898	0.043878	0.084340	0.012571	0.097124	-0.006728	-1.018066	0.069336	0.000000	0.090794	-0.004388	0.039148	0.129540	-0.546525	-0.061486	-0.825075	-5.800499	-66.603452	-158.342071
46023		9.105144	-0.443882	3.940752	0.001430	0.048109	0.118469	0.013813	0.095843	-0.002922	-1.024902	0.071289	0.000000	0.091070	-0.004443	0.039364	0.129594	-0.546189	-0.061442	-0.825292	-5.792294	-66.557047	-158.348068
46024		9.096534	-0.415653	3.928604	-0.006158	0.017394	0.104635	0.017201	0.097816	-0.011640	-1.020508	0.073486	0.002197	0.090984	-0.004165	0.039241	0.129621	-0.545839	-0.061438	-0.825520	-5.769367	-66.509912	-158.367733
46025		9.083980	-0.462023	3.934565	-0.017041	0.063470	0.097340	0.015794	0.091601	-0.008585	-1.025146	0.073486	0.002197	0.090858	-0.004627	0.039304	0.129656	-0.545517	-0.061420	-0.825729	-5.753257	-66.466249	-158.381117
46026		9.097897	-0.437149	3.912082	-0.042212	0.030522	0.100157	0.014237	0.086519	-0.011003	-1.018311	0.071533	-0.002197	0.090996	-0.004379	0.039081	0.129685	-0.545220	-0.061412	-0.825921	-5.735994	-66.426225	-158.395503
46027		9.067057	-0.426626	3.852520	-0.087201	0.009174	0.047726	0.016330	0.081105	-0.011134	-1.018066	0.069336	0.000000	0.090686	-0.004274	0.038488	0.129708	-0.544941	-0.061410	-0.826102	-5.717731	-66.388689	-158.410910
46028		9.073312	-0.427973	3.882012	-0.069903	0.015655	0.065219	0.017476	0.073222	-0.010247	-1.022705	0.069092	-0.008789	0.090747	-0.004288	0.038787	0.129735	-0.544694	-0.061420	-0.826259	-5.700238	-66.355874	-158.424407
46029		9.074938	-0.402296	3.890084	-0.061901	-0.008178	0.068871	0.018560	0.073068	-0.011902	-1.018311	0.073730	-0.002197	0.090763	-0.004032	0.038867	0.129758	-0.544446	-0.061435	-0.826418	-5.680841	-66.322960	-158.439665
46030		9.076557	-0.376503	3.898151	-0.053969	-0.031997	0.072518	0.016753	0.073248	-0.013068	-1.018555	0.075928	0.000000	0.090780	-0.003774	0.038948	0.129776	-0.544195	-0.061449	-0.826580	-5.660405	-66.289663	-158.456452
46031		9.100300	-0.354182	3.896875	-0.063679	-0.058018	0.092822	0.022753	0.076558	-0.011753	-1.027344	0.071289	-0.002197	0.091018	-0.003552	0.038934	0.129812	-0.543929	-0.061478	-0.826747	-5.638447	-66.254746	-158.471890
46032		9.043733	-0.341926	3.900640	-0.042008	-0.061101	0.042032	0.034103	0.080521	-0.012493	-1.022705	0.069092	-0.006592	0.090453	-0.003432	0.038969	0.129888	-0.543645	-0.061561	-0.826916	-5.609165	-66.218334	-158.486874
46033		8.996595	-0.361667	4.003081	0.053272	-0.010974	0.040800	0.053470	0.093093	-0.002347	-1.020752	0.075928	-0.006592	0.089985	-0.003628	0.039988	0.130052	-0.543294	-0.061681	-0.827112	-5.579800	-66.173457	-158.491180
46034		9.001865	-0.362221	4.034317	0.070555	-0.004580	0.058254	0.070000	0.096772	0.004733	-1.015869	0.069336	-0.008789	0.090038	-0.003634	0.040298	0.130299	-0.542918	-0.061853	-0.827307	-5.549677	-66.126031	-158.484865
46035		8.998188	-0.338589	4.099015	0.127441	-0.012382	0.080115	0.068341	0.097348	0.015113	-1.020508	0.069092	-0.002197	0.090002	-0.003393	0.040945	0.130576	-0.542545	-0.061984	-0.827498	-5.533844	-66.077760	-158.465056
46036		9.034590	-0.368626	4.087076	0.087517	0.006131	0.109822	0.074800	0.078790	0.025818	-1.020508	0.069336	-0.008789	0.090362	-0.003690	0.040834	0.130905	-0.542250	-0.062128	-0.827628	-5.529110	-66.040012	-158.429142
46037		9.125225	-0.431069	4.021273	-0.027422	0.034361	0.168508	0.091039	0.051316	0.036048	-1.020264	0.064697	-0.010986	0.091263	-0.004313	0.040187	0.131316	-0.542059	-0.062327	-0.827673	-5.532798	-66.016838	-158.373725
46038		9.087402	-0.419832	3.935255	-0.088183	0.006312	0.098697	0.092673	0.028152	0.049308	-1.011475	0.067383	-0.013184	0.090881	-0.004194	0.039338	0.131764	-0.541966	-0.062512	-0.827650	-5.552766	-66.006114	-158.300521
46039		9.094801	-0.344350	3.864650	-0.132105	-0.087089	0.073893	0.097255	0.019022	0.062398	-1.018555	0.075928	-0.010986	0.090953	-0.003434	0.038636	0.132291	-0.541912	-0.062686	-0.827588	-5.590583	-65.999874	-158.203835
46040		9.097755	-0.214884	3.696207	-0.243685	-0.256919	0.003212	0.097873	0.011941	0.083678	-1.015869	0.064941	-0.013184	0.090981	-0.002129	0.036956	0.132905	-0.541890	-0.062813	-0.827494	-5.655062	-65.996029	-158.077234
46041		8.998857	-0.116667	3.483968	-0.361586	-0.394344	-0.177086	0.093096	-0.016327	0.115381	-1.018311	0.073730	-0.008789	0.089986	-0.001131	0.034846	0.133629	-0.542001	-0.062849	-0.827302	-5.767597	-66.006824	-157.901368
46042		8.879025	0.033358	3.257743	-0.465029	-0.582909	-0.384271	0.087596	-0.055376	0.134725	-1.021240	0.084717	-0.006592	0.088781	0.000379	0.032602	0.134388	-0.542282	-0.062837	-0.826996	-5.910576	-66.038461	-157.696857
46043		8.836041	0.167344	3.023195	-0.605867	-0.771261	-0.523909	0.083044	-0.074910	0.153893	-1.018555	0.075928	-0.004395	0.088348	0.001729	0.030266	0.135226	-0.542653	-0.062767	-0.826621	-6.086755	-66.079973	-157.457738
46044		8.852069	0.233993	2.887200	-0.698922	-0.880479	-0.566820	0.066892	-0.105408	0.159357	-1.020752	0.078125	-0.006592	0.088504	0.002401	0.028919	0.135972	-0.543173	-0.062595	-0.826170	-6.284905	-66.138819	-157.213339
46045		8.957515	0.183146	2.750706	-0.856563	-0.891425	-0.522443	0.021458	-0.150359	0.145742	-1.020752	0.078125	-0.004395	0.089553	0.001894	0.027575	0.136584	-0.543894	-0.062344	-0.825613	-6.498656	-66.223145	-156.971945
46046		9.146598	-0.029329	2.556027	-1.140391	-0.773034	-0.416078	-0.030752	-0.196181	0.091364	-1.016602	0.082764	-0.004395	0.091441	-0.000248	0.025650	0.136735	-0.544829	-0.062010	-0.824997	-6.678589	-66.337043	-156.810743
46047		9.403657	-0.207172	2.439235	-1.366555	-0.676117	-0.215974	-0.080965	-0.234333	0.068430	-1.023193	0.082520	0.002197	0.094009	-0.002030	0.024503	0.136723	-0.545941	-0.061604	-0.824294	-6.866947	-66.473721	-156.661511
46048		9.714369	-0.393466	2.320943	-1.612407	-0.576310	0.035079	-0.114891	-0.266126	0.020117	-1.025635	0.084473	0.006592	0.097113	-0.003912	0.023341	0.136338	-0.547198	-0.061168	-0.823556	-7.017501	-66.631906	-156.584367
46049		10.674025	-0.894690	2.026107	-2.342215	-0.318857	0.829338	-0.061772	-0.212691	0.004055	-1.020752	0.078125	0.006592	0.106719	-0.008938	0.020377	0.136120	-0.548186	-0.061001	-0.822947	-7.109867	-66.760509	-156.528008
46050		10.105706	-0.793299	2.208407	-1.930187	-0.278173	0.376949	0.023654	-0.045018	0.013568	-1.016602	0.082520	0.006592	0.101053	-0.007929	0.022106	0.136145	-0.548439	-0.061000	-0.822775	-7.136962	-66.793858	-156.499897
46051		9.989075	-0.778187	2.361390	-1.742228	-0.235842	0.329914	0.058685	-0.043658	0.015872	-1.020996	0.080322	0.006592	0.099886	-0.007781	0.023633	0.136357	-0.548653	-0.061181	-0.822584	-7.148580	-66.825491	-156.456348
46052		9.765735	-0.640235	2.468681	-1.521206	-0.305521	0.160600	0.089353	-0.034722	0.031961	-1.023438	0.084473	0.008789	0.097654	-0.006398	0.024701	0.136714	-0.548816	-0.061441	-0.822396	-7.160852	-66.851303	-156.393291
46053		9.942649	-0.622339	2.370290	-1.663820	-0.376856	0.284418	0.138870	0.001045	0.055558	-1.020752	0.078125	0.006592	0.099428	-0.006212	0.023698	0.137323	-0.548803	-0.061812	-0.822276	-7.171940	-66.854679	-156.300368
46054		9.582881	-0.456228	2.410934	-1.450604	-0.472233	-0.038993	0.160631	0.057961	0.073606	-1.023438	0.086914	0.004395	0.095837	-0.004546	0.024078	0.138070	-0.548549	-0.062186	-0.822292	-7.182761	-66.824938	-156.194947
46055		9.448751	-0.383785	2.455254	-1.346195	-0.513163	-0.149413	0.138772	0.073541	0.044443	-1.014648	0.087158	0.008789	0.094497	-0.003834	0.024515	0.138655	-0.548234	-0.062538	-0.822376	-7.166859	-66.787893	-156.131416
46056		9.611857	-0.471475	2.571961	-1.335522	-0.429589	0.049203	0.207517	0.116008	0.057810	-1.019043	0.084717	-0.002197	0.096135	-0.004714	0.025659	0.139502	-0.547703	-0.063111	-0.822543	-7.121849	-66.726217	-156.055798
46057		9.426400	-0.463354	2.661860	-1.198979	-0.389330	-0.088076	0.232343	0.161968	0.065415	-1.023682	0.089111	0.006592	0.094287	-0.004634	0.026537	0.140457	-0.546965	-0.063729	-0.822825	-7.065255	-66.637446	-155.978138
46058		9.276764	-0.415381	2.823772	-1.002995	-0.374834	-0.166028	0.222284	0.188579	0.075242	-1.014648	0.089355	-0.004395	0.092796	-0.004150	0.028146	0.141361	-0.546131	-0.064215	-0.823185	-7.021780	-66.533003	-155.902035
46059		9.197174	-0.355548	2.959428	-0.853600	-0.390454	-0.190239	0.216021	0.206460	0.073964	-1.016602	0.084961	-0.002197	0.092004	-0.003553	0.029495	0.142321	-0.545222	-0.064711	-0.823584	-6.978203	-66.418384	-155.820256
46060		9.050966	-0.231715	3.102801	-0.654631	-0.452910	-0.275007	0.202394	0.211404	0.058124	-1.021484	0.089111	-0.002197	0.090543	-0.002322	0.030930	0.143104	-0.544299	-0.065146	-0.824024	-6.919352	-66.301925	-155.773365
46061		8.878224	-0.075696	3.232039	-0.447367	-0.543639	-0.390428	0.180574	0.193745	0.042994	-1.019287	0.089355	-0.004395	0.088814	-0.000767	0.032234	0.143835	-0.543455	-0.065588	-0.824419	-6.857739	-66.196730	-155.733338
46062		8.705291	0.058211	3.302861	-0.295457	-0.626781	-0.527527	0.147838	0.165483	0.028769	-1.014648	0.087158	-0.004395	0.087080	0.000570	0.032957	0.144333	-0.542755	-0.065911	-0.824767	-6.799888	-66.109281	-155.719612
46063		8.545561	0.113534	3.435716	-0.115234	-0.619537	-0.623208	0.115832	0.132918	0.010804	-1.014648	0.087158	-0.008789	0.085478	0.001120	0.034301	0.144734	-0.542197	-0.066218	-0.825039	-6.743533	-66.040903	-155.714361
46064		8.384407	0.045956	3.553107	0.016042	-0.497644	-0.719995	0.077736	0.112359	-0.013628	-1.015137	0.095947	-0.006592	0.083864	0.000440	0.035484	0.144841	-0.541753	-0.066404	-0.825297	-6.678927	-65.986579	-155.752635
46065		8.280347	-0.104481	3.584392	0.026751	-0.328291	-0.795236	0.047709	0.089616	-0.036798	-1.012451	0.087158	-0.006592	0.082819	-0.001069	0.035807	0.144847	-0.541406	-0.066590	-0.825508	-6.607609	-65.946004	-155.806499
46066		8.444081	-0.258760	3.614842	-0.063227	-0.199673	-0.626139	0.000353	0.095277	-0.052942	-1.012207	0.084961	-0.010986	0.084457	-0.002610	0.036108	0.144666	-0.541072	-0.066626	-0.825756	-6.542161	-65.904290	-155.882747
46067		8.785236	-0.397274	3.554243	-0.297409	-0.141911	-0.333118	-0.084292	0.166654	-0.067209	-1.014648	0.089355	-0.013184	0.087881	-0.003987	0.035471	0.144215	-0.540493	-0.066294	-0.826241	-6.497088	-65.821792	-155.990772
46068		8.739932	-0.563785	3.752202	-0.176611	0.075547	-0.286600	-0.157461	0.238085	-0.160370	-1.014404	0.082764	-0.013184	0.087439	-0.005678	0.037422	0.143199	-0.539641	-0.065863	-0.827009	-6.364979	-65.704941	-156.240342
46069		8.985344	-0.768606	4.229821	0.062992	0.357187	0.141555	-0.249332	0.252445	-0.238904	-1.007568	0.080811	-0.019775	0.089898	-0.007741	0.042194	0.141620	-0.538766	-0.065250	-0.827899	-6.188356	-65.584152	-156.596752
46070		9.567711	-0.882657	4.506328	0.029066	0.446054	0.790489	-0.356265	0.188296	-0.275004	-1.014160	0.078369	-0.015381	0.095707	-0.008878	0.044989	0.139496	-0.538224	-0.064293	-0.828687	-6.036092	-65.502017	-157.004694
46071		10.133139	-0.712419	4.608327	-0.061886	0.223215	1.339489	-0.468021	0.158983	-0.313856	-1.018555	0.078125	-0.015381	0.101357	-0.007175	0.046019	0.136986	-0.537859	-0.063041	-0.829439	-5.907411	-65.438174	-157.446630
46072		9.965620	-0.492279	4.393575	-0.134506	-0.013980	1.088740	-0.600560	0.181913	-0.269622	-1.016113	0.073975	-0.017578	0.099689	-0.004925	0.043860	0.134225	-0.537510	-0.061060	-0.830264	-5.906468	-65.359589	-157.842435
46073		9.539943	-0.140882	4.350464	0.077711	-0.303117	0.668674	-0.644015	0.221808	-0.218656	-1.013916	0.071777	-0.021973	0.095446	-0.001373	0.043403	0.131654	-0.537021	-0.058778	-0.831156	-5.991568	-65.254219	-158.160637
46074		9.088717	0.227730	4.376541	0.362606	-0.597491	0.253206	-0.672040	0.220882	-0.158494	-1.013916	0.073975	-0.021973	0.090937	0.002352	0.043657	0.129171	-0.536575	-0.056175	-0.832014	-6.165947	-65.146800	-158.408899
46075		8.934646	0.344203	4.309156	0.382717	-0.721692	0.079119	-0.614091	0.134226	-0.124858	-1.015869	0.069336	-0.019775	0.089378	0.003518	0.043021	0.127042	-0.536445	-0.053822	-0.832581	-6.362147	-65.086180	-158.586220
46076		9.192106	0.285660	3.924621	-0.076450	-0.808242	0.153252	-0.556621	0.029632	-0.103303	-1.022949	0.071533	-0.026611	0.091928	0.002918	0.039225	0.125049	-0.536726	-0.051673	-0.832837	-6.564922	-65.085065	-158.729922
46077		9.702442	-0.204877	3.451659	-0.816511	-0.528754	0.441435	-0.530489	-0.069147	-0.085131	-1.013672	0.069580	-0.017578	0.097012	-0.001998	0.034555	0.123254	-0.537391	-0.049688	-0.832797	-6.790255	-65.138072	-158.822331
46078		10.405282	-0.808064	3.088914	-1.554491	-0.137059	0.958989	-0.544993	-0.074677	-0.103223	-1.013672	0.069580	-0.015381	0.104037	-0.008050	0.030950	0.121266	-0.538088	-0.047653	-0.832758	-7.001524	-65.196376	-158.949071
46079		10.896157	-1.458926	2.872206	-2.087837	0.366255	1.350245	-0.563422	-0.029713	-0.047330	-1.016113	0.071533	-0.019775	0.108954	-0.014534	0.028779	0.119546	-0.538609	-0.045405	-0.832795	-7.286730	-65.224587	-158.996241
46080		11.350330	-1.923563	2.564342	-2.638407	0.674731	1.662916	-0.506623	-0.003175	0.008763	-1.013672	0.067383	-0.019775	0.113504	-0.019166	0.025694	0.118149	-0.539006	-0.043185	-0.832856	-7.604137	-65.234857	-158.981285
46081		11.728124	-1.955785	2.518544	-2.824529	0.622665	1.992029	-0.451621	0.076023	0.092321	-1.013916	0.071777	-0.021973	0.117300	-0.019447	0.025185	0.117333	-0.539043	-0.040963	-0.833059	-7.979860	-65.192419	-158.858194
46082		11.632339	-1.612788	2.703203	-2.541331	0.309968	1.962928	-0.438698	0.199920	0.207352	-1.011963	0.076172	-0.024414	0.116367	-0.015948	0.026951	0.116983	-0.538582	-0.038369	-0.833530	-8.464724	-65.070325	-158.616072
46083		10.900738	-1.460504	2.845114	-2.104039	0.255678	1.348013	-0.449668	0.311047	0.301519	-1.009766	0.078613	-0.031006	0.109073	-0.014377	0.028314	0.117089	-0.537673	-0.035453	-0.834231	-9.046395	-64.875689	-158.264218
46084		10.418369	-1.195947	3.054108	-1.685223	0.055130	0.978831	-0.516902	0.380028	0.401003	-1.012451	0.087402	-0.028809	0.104265	-0.011672	0.030373	0.117384	-0.536525	-0.031910	-0.835071	-9.764406	-64.630617	-157.811568
46085		9.732352	-1.375519	3.046466	-1.481695	0.271169	0.366815	-0.543039	0.408542	0.477014	-1.003418	0.085449	-0.037598	0.097418	-0.013440	0.030303	0.117985	-0.535278	-0.028075	-0.835924	-10.569406	-64.359639	-157.270160
46086		9.468033	-1.367981	3.101450	-1.345484	0.248274	0.150325	-0.493003	0.398684	0.482906	-1.005859	0.089844	-0.039795	0.094774	-0.013375	0.030859	0.118688	-0.534034	-0.024401	-0.836735	-11.341742	-64.090080	-156.739709
46087		9.159789	-1.558353	3.050639	-1.330071	0.412892	-0.132983	-0.364473	0.396891	0.466979	-1.010742	0.098633	-0.041992	0.091694	-0.015314	0.030353	0.119719	-0.532712	-0.021346	-0.837514	-12.009296	-63.820760	-156.234939
46088		9.157542	-1.156159	3.223883	-1.108884	-0.009075	-0.098746	-0.401380	0.427797	0.423801	-1.006592	0.103271	-0.041992	0.091668	-0.011303	0.032066	0.120408	-0.531269	-0.018192	-0.838406	-12.629337	-63.536583	-155.814303
46089		8.915872	-1.742787	2.956411	-1.402505	0.508377	-0.376335	-0.348915	0.421358	0.328595	-1.004639	0.107666	-0.048584	0.089249	-0.017230	0.029406	0.120900	-0.529808	-0.015555	-0.839312	-13.105191	-63.266703	-155.511532
46090		8.927664	-1.833695	3.017307	-1.399073	0.566096	-0.331560	-0.193973	0.381261	0.169591	-1.002197	0.107910	-0.050781	0.089349	-0.018232	0.030021	0.121076	-0.528409	-0.013976	-0.840196	-13.322255	-63.039376	-155.406532
46091		9.064058	-1.340085	2.949198	-1.432428	0.025827	-0.294382	-0.246410	0.324768	0.097622	-0.998291	0.114746	-0.059814	0.090695	-0.013320	0.029361	0.120862	-0.527268	-0.012438	-0.840968	-13.502125	-62.852749	-155.368944
46092		8.839721	-1.458032	2.574994	-1.713851	0.101359	-0.650294	-0.355665	0.279871	0.191093	-1.002441	0.110107	-0.062012	0.088447	-0.014450	0.025652	0.120676	-0.526390	-0.010180	-0.841574	-13.855325	-62.679086	-155.216359
46093		8.694012	-1.804502	2.437386	-1.866598	0.419382	-0.805870	-0.121211	0.312814	0.157760	-1.004639	0.107910	-0.059814	0.086992	-0.017962	0.024249	0.121041	-0.525223	-0.009018	-0.842264	-14.027278	-62.490655	-155.106758
46094		8.604573	-1.639904	2.243041	-1.990400	0.230006	-0.995403	-0.028613	0.376116	0.113317	-1.000244	0.112305	-0.057373	0.086097	-0.016347	0.022271	0.121392	-0.523734	-0.008283	-0.843148	-14.080399	-62.273867	-155.080819
46095		8.501231	-1.253473	2.133217	-1.990374	-0.156800	-1.186770	-0.035425	0.395218	0.099084	-0.998047	0.110352	-0.070801	0.085060	-0.012489	0.021166	0.121738	-0.522161	-0.007587	-0.844079	-14.116964	-62.047696	-155.068316
46096		8.383779	-0.870224	2.054178	-1.957072	-0.534298	-1.377703	-0.062294	0.392029	0.150653	-1.000488	0.114746	-0.070801	0.083884	-0.008633	0.020380	0.122158	-0.520624	-0.006603	-0.844976	-14.222720	-61.816835	-155.004468
46097		8.086065	-1.683595	1.628589	-2.405834	0.234785	-1.748696	-0.014103	0.426448	0.167904	-0.998535	0.121338	-0.079590	0.080909	-0.016767	0.016115	0.122849	-0.518903	-0.005798	-0.845940	-14.308387	-61.563590	-154.922261
46098		8.164281	-1.510292	1.838865	-2.253734	0.065091	-1.613043	0.183767	0.506721	0.055999	-0.996338	0.121582	-0.088379	0.081693	-0.015097	0.018168	0.123509	-0.516722	-0.006030	-0.847176	-14.145253	-61.282368	-155.003727
46099		8.063476	-1.525049	1.619890	-2.445037	0.060300	-1.813471	0.130368	0.509823	0.035710	-0.996338	0.121582	-0.092773	0.080678	-0.015247	0.015983	0.124018	-0.514550	-0.006127	-0.848422	-13.993694	-61.001333	-155.097439
46100		8.068890	-1.971581	1.456567	-2.729277	0.464471	-1.847086	0.286326	0.536787	-0.034732	-0.998291	0.114746	-0.090576	0.080724	-0.019750	0.014321	0.124555	-0.512167	-0.007010	-0.849777	-13.678820	-60.715632	-155.285771
46101		7.984811	-1.587720	1.481481	-2.633123	0.113711	-1.968814	0.326363	0.562854	-0.092403	-0.991455	0.113037	-0.101807	0.079882	-0.015938	0.014564	0.125023	-0.509636	-0.008235	-0.851218	-13.282918	-60.421711	-155.531617
46102		7.848067	-1.668344	1.495276	-2.624092	0.225540	-2.087764	0.344488	0.533028	-0.095941	-0.991211	0.110596	-0.095215	0.078512	-0.016747	0.014715	0.125446	-0.507222	-0.009525	-0.852583	-12.885996	-60.144979	-155.777097
46103		7.612898	-1.262286	1.765538	-2.237501	-0.075520	-2.219637	0.365009	0.505428	-0.120260	-0.993896	0.117432	-0.108398	0.076166	-0.012701	0.017440	0.125888	-0.504900	-0.011021	-0.853878	-12.465410	-59.884993	-156.027239
46104		7.061705	-1.384849	1.612160	-2.178925	0.138605	-2.768715	0.180516	0.359064	-0.086619	-0.991699	0.115234	-0.110596	0.070640	-0.013894	0.015982	0.125926	-0.503325	-0.011697	-0.854792	-12.218232	-59.703044	-156.209345
46105		7.452206	-1.601561	1.616115	-2.433042	0.276166	-2.415652	0.274776	0.339275	-0.154391	-0.982422	0.108887	-0.117188	0.074537	-0.016095	0.016013	0.125983	-0.501761	-0.012999	-0.855684	-11.858938	-59.538867	-156.449370
46106		7.835379	-1.599434	1.567198	-2.683514	0.202392	-2.120801	0.343179	0.355260	-0.210868	-0.993408	0.108398	-0.117188	0.078364	-0.016104	0.015505	0.125896	-0.500088	-0.014685	-0.856648	-11.407027	-59.372389	-156.761602
46107		8.449250	-1.423550	1.595351	-2.937692	-0.070036	-1.607420	0.394128	0.274758	-0.215192	-0.986572	0.102051	-0.117188	0.084499	-0.014358	0.015809	0.125985	-0.498715	-0.016691	-0.857398	-10.940578	-59.249416	-157.047481
46108		8.939609	-1.043462	1.611435	-3.091145	-0.513059	-1.222946	0.420618	0.155674	-0.200129	-0.984375	0.106689	-0.119385	0.089398	-0.010558	0.016023	0.126120	-0.497844	-0.018807	-0.857841	-10.497133	-59.191775	-157.298974
46109		9.572513	-0.754577	1.717883	-3.249172	-0.880087	-0.657264	0.423094	0.092075	-0.178180	-0.988525	0.097656	-0.123779	0.095726	-0.007667	0.017119	0.126423	-0.497235	-0.020960	-0.858100	-10.084894	-59.165766	-157.502795
46110		9.836116	-0.344188	1.446031	-3.516314	-1.351187	-0.605709	0.402559	-0.005190	-0.162803	-0.988281	0.091064	-0.128174	0.098358	-0.003551	0.014456	0.126656	-0.497065	-0.023008	-0.858112	-9.715445	-59.193549	-157.680274
46111		10.340242	-0.139493	1.219095	-3.900014	-1.663372	-0.302204	0.436775	-0.051736	-0.164476	-0.983643	0.091064	-0.117188	0.103398	-0.001507	0.012214	0.127035	-0.497060	-0.025276	-0.857994	-9.331569	-59.246106	-157.841870
46112		10.616414	-0.091370	1.170604	-4.056573	-1.749734	-0.088002	0.394469	-0.104771	-0.133244	-0.986084	0.095459	-0.119385	0.106157	-0.001008	0.011760	0.127362	-0.497323	-0.027279	-0.857732	-9.009019	-59.326505	-157.969975
46113		11.424219	-0.072278	1.101937	-4.482302	-1.917618	0.577882	0.348277	-0.139329	-0.073686	-0.976318	0.080078	-0.123779	0.114234	-0.000784	0.011098	0.127898	-0.497758	-0.028998	-0.857344	-8.773942	-59.419691	-158.017319
46114		12.284086	-0.236484	0.500984	-5.422557	-2.020819	1.037097	0.346250	-0.142531	0.032216	-0.979004	0.086670	-0.123779	0.122838	-0.002354	0.005093	0.128808	-0.498234	-0.030406	-0.856882	-8.641614	-59.506731	-157.956396
46115		12.967309	-0.475640	0.040460	-6.177544	-2.011011	1.419977	0.359716	-0.097116	0.139101	-0.981201	0.086670	-0.119385	0.129676	-0.004667	0.000459	0.130290	-0.498509	-0.031616	-0.856454	-8.597711	-59.557616	-157.774256
46116		13.006513	0.376550	3.680298	-2.881631	-2.181886	3.217712	-0.046390	-0.140774	0.087786	-0.985596	0.086426	-0.112793	0.130038	0.003831	0.036894	0.130458	-0.499240	-0.031204	-0.856018	-8.743994	-59.639015	-157.651209
46117		17.221565	0.765055	7.440093	-1.530204	-2.705707	8.703785	-0.183414	-0.215055	0.281598	-0.979248	0.091064	-0.112793	0.172124	0.007961	0.074579	0.131177	-0.500393	-0.029810	-0.855284	-9.168756	-59.743397	-157.286962
46118		16.326961	1.099137	4.844845	-3.124585	-3.406361	6.615369	-0.589473	-0.728871	0.698149	-0.977295	0.097900	-0.099609	0.163052	0.011705	0.049009	0.132508	-0.504076	-0.025933	-0.853040	-10.323786	-60.096485	-156.358149
46119		14.189985	-1.470202	1.972404	-5.125578	-1.111939	3.599931	-0.900648	-0.410675	0.585434	-0.975342	0.104492	-0.097412	0.141901	-0.014197	0.020080	0.132684	-0.506562	-0.020841	-0.851678	-11.507152	-60.271614	-155.595015
46120		14.309687	-1.129549	4.976217	-2.480429	-1.034681	5.139977	-0.743783	0.240007	0.234259	-0.977783	0.108887	-0.099609	0.143169	-0.010943	0.049632	0.131753	-0.506136	-0.016835	-0.852164	-12.128703	-60.118634	-155.385449
46121		13.902777	-1.108443	4.384632	-2.784896	-1.134087	4.494607	-0.699362	-0.096113	0.240259	-0.968750	0.106934	-0.101807	0.139020	-0.010764	0.043951	0.131003	-0.507093	-0.013264	-0.851774	-12.799371	-60.150143	-155.080153
46122		13.130848	-1.279712	3.181928	-3.474716	-1.036758	3.265264	-0.638898	-0.159632	0.102711	-0.978027	0.113281	-0.094971	0.131290	-0.012628	0.031965	0.129741	-0.508278	-0.010301	-0.851302	-13.317098	-60.234984	-154.920970
46123		10.687509	-1.832404	5.261363	-0.691296	0.302237	2.216163	-0.450300	0.105557	-0.128988	-0.975830	0.113281	-0.094971	0.106891	-0.018275	0.052598	0.128059	-0.508182	-0.008597	-0.851633	-13.440442	-60.200603	-155.082125
46124		9.180279	-2.469749	6.500623	0.915359	1.418729	1.579615	-0.229509	0.036669	-0.395460	-0.973389	0.108887	-0.094971	0.091766	-0.024804	0.065018	0.125725	-0.508237	-0.008515	-0.851948	-13.193759	-60.241405	-155.533450
46125		8.592514	-2.928207	7.231364	1.715422	2.120313	1.468259	0.011304	-0.089621	-0.466646	-0.975342	0.102295	-0.094971	0.085824	-0.029486	0.072350	0.123768	-0.508660	-0.009758	-0.851969	-12.766100	-60.358893	-156.024328
46126		8.006011	-3.169628	6.922383	1.666970	2.471057	0.825783	0.190935	-0.111673	-0.337422	-0.972900	0.102295	-0.097412	0.079968	-0.031897	0.069238	0.122742	-0.509082	-0.011411	-0.851845	-12.364354	-60.472487	-156.376140
46127		8.437420	-3.151990	7.112196	1.640448	2.427586	1.283445	0.195356	-0.034415	-0.089033	-0.975342	0.102295	-0.097412	0.084348	-0.031627	0.071106	0.122864	-0.509173	-0.012444	-0.851759	-12.187049	-60.510068	-156.457246
46128		8.185801	-2.975478	7.527125	2.156415	2.376466	1.242659	0.141360	-0.136709	0.151355	-0.970459	0.097900	-0.092773	0.081829	-0.029746	0.075306	0.123792	-0.509759	-0.012656	-0.851270	-12.301091	-60.577277	-156.248963
46129		8.088777	-2.562330	6.879027	1.751654	1.899280	0.800476	0.168910	-0.309796	0.215010	-0.972656	0.097900	-0.090576	0.080809	-0.025595	0.068894	0.125123	-0.511055	-0.012972	-0.850293	-12.501505	-60.731636	-155.914000
46130		9.202075	-2.344898	6.768893	1.237333	1.459569	1.690930	0.322672	-0.336113	0.097337	-0.966064	0.100342	-0.086182	0.091918	-0.023514	0.067806	0.126271	-0.512369	-0.014216	-0.849313	-12.504652	-60.916535	-155.714417
46131		10.792025	-1.832537	6.209600	0.195106	0.576524	2.757698	0.527048	-0.336890	0.235895	-0.966309	0.102539	-0.079590	0.107837	-0.018362	0.062229	0.128603	-0.513550	-0.016016	-0.848217	-12.531744	-61.083119	-155.344132
46132		10.474557	-1.114658	5.670958	0.066848	-0.132633	2.149605	0.636017	-0.298236	0.411145	-0.970703	0.104492	-0.079590	0.104684	-0.011112	0.056830	0.131886	-0.514516	-0.017760	-0.847091	-12.668271	-61.207416	-154.787977
46133		9.623881	-1.211773	5.863667	0.601896	0.166961	1.504552	0.705742	-0.172045	0.447145	-0.966309	0.104736	-0.079590	0.096215	-0.012110	0.058677	0.135584	-0.514884	-0.019666	-0.846241	-12.774314	-61.254579	-154.211647
46134		8.996213	-1.292171	6.057129	1.024409	0.414265	1.053284	0.785168	-0.063810	0.387381	-0.971191	0.113525	-0.086182	0.089968	-0.012985	0.060549	0.139168	-0.514738	-0.021945	-0.845693	-12.749986	-61.250093	-153.742079
46135		9.342738	-1.492678	5.743801	0.540737	0.491083	1.231427	0.847077	0.006229	0.268339	-0.968994	0.111328	-0.081787	0.093449	-0.015044	0.057372	0.142487	-0.514216	-0.024786	-0.845379	-12.552186	-61.220368	-153.420007
46136		9.864801	-1.889238	5.226473	-0.256696	0.675587	1.486744	0.849237	0.057587	0.272313	-0.964600	0.113770	-0.088379	0.098689	-0.018980	0.052156	0.145758	-0.513480	-0.027546	-0.845183	-12.345863	-61.163405	-153.115990
46137		9.767093	-1.691322	4.943340	-0.430590	0.466891	1.245784	0.886310	0.085021	0.167445	-0.962402	0.113770	-0.088379	0.097706	-0.017050	0.049317	0.148755	-0.512563	-0.030754	-0.845107	-12.005059	-61.103032	-152.931228
46138		9.212490	-0.933043	4.744155	-0.174036	-0.148119	0.589003	0.915868	0.064468	0.028728	-0.962158	0.111572	-0.090576	0.092142	-0.009534	0.047369	0.151162	-0.511693	-0.034414	-0.845066	-11.511840	-61.072470	-152.911059
46139		8.743061	-0.292761	4.385560	-0.117000	-0.685291	-0.051728	1.026561	0.076947	-0.198113	-0.955566	0.114014	-0.088379	0.087444	-0.003239	0.043806	0.152966	-0.510622	-0.039155	-0.845183	-10.722062	-61.058679	-153.147369
46140		8.257674	0.505506	4.447276	0.360238	-1.265269	-0.512583	0.962628	0.060996	-0.282240	-0.957275	0.102783	-0.090576	0.082597	0.004724	0.044471	0.154172	-0.509652	-0.043809	-0.845321	-9.887054	-61.062320	-153.487115
46141		8.093393	0.146514	3.804358	-0.246986	-0.974192	-0.925217	1.076753	0.082353	-0.387691	-0.957031	0.096191	-0.092773	0.080952	0.001104	0.038017	0.155295	-0.508452	-0.049239	-0.845539	-8.874672	-61.059720	-153.944938
46142		7.772016	0.346614	3.707949	-0.152457	-1.049522	-1.260026	1.174275	0.069625	-0.440142	-0.954590	0.091797	-0.086182	0.077740	0.003077	0.037071	0.156364	-0.507215	-0.055182	-0.845718	-7.755096	-61.066009	-154.471223
46143		7.253920	0.739299	3.603059	0.086963	-1.266557	-1.779275	1.182887	0.062198	-0.486633	-0.960938	0.087158	-0.092773	0.072568	0.007003	0.036050	0.157322	-0.505954	-0.061323	-0.845872	-6.583084	-61.073395	-155.041916
46144		7.038728	1.090109	3.501077	0.187498	-1.505306	-2.022444	1.125197	0.077748	-0.605625	-0.956055	0.076172	-0.094971	0.070433	0.010491	0.035043	0.157557	-0.504633	-0.067466	-0.846150	-5.319804	-61.074577	-155.764398
46145		6.724635	1.435109	3.343555	0.285992	-1.734345	-2.371632	1.030775	0.087503	-0.694509	-0.958008	0.069580	-0.099609	0.067310	0.013945	0.033479	0.157247	-0.503279	-0.073465	-0.846514	-4.017920	-61.065157	-156.583057
46146		6.620532	1.285276	3.095052	0.048759	-1.568970	-2.560231	0.933314	0.112107	-0.771990	-0.957275	0.056152	-0.097168	0.066271	0.012453	0.030972	0.156295	-0.501868	-0.079184	-0.847012	-2.691553	-61.036648	-157.503345
46147		6.543589	1.498925	3.140101	0.165923	-1.671437	-2.594388	0.798983	0.117479	-0.750838	-0.954590	0.049561	-0.094971	0.065510	0.014618	0.031421	0.155165	-0.500515	-0.084314	-0.847526	-1.466244	-60.993348	-158.386721
46148		6.324493	1.450708	2.861360	-0.008268	-1.609093	-2.906055	0.617063	0.139244	-0.683071	-0.954590	0.045166	-0.104004	0.063314	0.014203	0.028614	0.153800	-0.499244	-0.088446	-0.848103	-0.418099	-60.929932	-159.196739
46149		6.137866	1.709324	2.763754	0.060832	-1.798511	-3.104861	0.492888	0.161795	-0.643614	-0.947021	0.031982	-0.101807	0.061455	0.016827	0.027630	0.152372	-0.497963	-0.091973	-0.848738	0.514019	-60.845436	-159.946362
46150		6.329651	2.471382	2.979240	0.386769	-2.436971	-2.815584	0.252887	0.243806	-0.596505	-0.951904	0.036377	-0.104004	0.063406	0.024487	0.029746	0.150509	-0.496551	-0.094261	-0.849647	1.254050	-60.710541	-160.643768
46151		6.315390	2.830540	2.918267	0.435981	-2.759424	-2.840764	0.033723	0.243175	-0.560260	-0.953369	0.025146	-0.104004	0.063268	0.028123	0.029111	0.148327	-0.495299	-0.095567	-0.850614	1.825272	-60.571253	-161.282974
46152		6.202544	2.792840	2.553052	0.144473	-2.797352	-3.108704	-0.197370	0.193150	-0.546980	-0.951172	0.025391	-0.108398	0.062126	0.027784	0.025443	0.145531	-0.494452	-0.095856	-0.851557	2.247814	-60.459651	-161.913674
46153		6.370665	2.861101	2.396636	-0.072885	-2.919517	-3.031381	-0.431051	0.180666	-0.560971	-0.955322	0.018555	-0.104004	0.063808	0.028484	0.023847	0.142162	-0.493798	-0.095230	-0.852575	2.547045	-60.351454	-162.547816
46154		6.071257	2.428683	2.209042	-0.265688	-2.511772	-3.389384	-0.601339	0.141753	-0.612010	-0.941650	0.012207	-0.108398	0.060802	0.024167	0.021975	0.138063	-0.493417	-0.093994	-0.853606	2.799231	-60.264152	-163.250005
46155		5.913566	2.169144	1.858003	-0.594290	-2.336758	-3.704175	-0.784891	0.061792	-0.583211	-0.950439	0.007568	-0.108398	0.059204	0.021592	0.018477	0.133665	-0.493488	-0.091993	-0.854483	2.918748	-60.220826	-163.911697
46156		5.617424	1.658316	1.659275	-0.805287	-1.858562	-4.071968	-0.917270	0.031316	-0.599254	-0.938965	0.001221	-0.110596	0.056226	0.016491	0.016508	0.128782	-0.493775	-0.089448	-0.855337	2.979855	-60.195454	-164.602870
46157		5.277578	0.980740	1.431095	-1.057192	-1.221126	-4.497249	-0.983502	-0.050472	-0.592161	-0.941162	0.001221	-0.108398	0.052801	0.009721	0.014276	0.123797	-0.494423	-0.086689	-0.855982	2.999342	-60.215348	-165.280669
46158		5.204450	0.830086	1.621971	-0.916812	-1.002843	-4.468543	-1.002289	-0.199875	-0.574651	-0.942871	-0.005615	-0.101807	0.052052	0.008233	0.016230	0.118700	-0.495732	-0.083859	-0.856229	3.000775	-60.322712	-165.958736
46159		5.819713	0.433609	1.428327	-1.486449	-0.732755	-4.037680	-1.095126	-0.193843	-0.539405	-0.936279	-0.003174	-0.106201	0.058195	0.004257	0.014316	0.113593	-0.497048	-0.080574	-0.856474	2.914704	-60.426390	-166.587537
46160		6.518094	0.365913	1.583244	-1.711453	-0.693803	-3.353922	-1.138536	-0.069587	-0.481749	-0.945068	-0.010010	-0.104004	0.065184	0.003592	0.015835	0.108600	-0.497878	-0.076850	-0.856982	2.741505	-60.462830	-167.153386
46161		7.672114	-0.019812	1.743418	-2.235786	-0.397089	-2.279773	-1.204714	-0.000043	-0.450602	-0.947266	-0.010010	-0.101807	0.076721	-0.000266	0.017436	0.103669	-0.498420	-0.072760	-0.857634	2.494835	-60.459748	-167.669224
46162		9.131518	-0.055841	2.507004	-2.308016	-0.335154	-0.634804	-1.236346	0.038065	-0.342620	-0.940430	-0.010010	-0.106201	0.091319	-0.000560	0.025056	0.099060	-0.498850	-0.068207	-0.858303	2.120301	-60.440289	-168.068005
46163		10.134934	-0.548072	3.121254	-2.385234	0.166027	0.533450	-1.154044	-0.033885	-0.202411	-0.940430	-0.012207	-0.101807	0.101339	-0.005403	0.031261	0.095301	-0.499560	-0.063726	-0.858660	1.652939	-60.464515	-168.296832
46164		10.468387	-1.290326	2.826587	-2.934579	0.782125	0.676259	-1.004784	-0.250331	-0.056536	-0.938232	-0.009766	-0.094971	0.104645	-0.012790	0.028461	0.092397	-0.501176	-0.059586	-0.858333	1.129881	-60.617335	-168.372316
46165		10.724365	-1.654482	2.500586	-3.372603	1.034811	0.749359	-0.717731	-0.221233	0.027571	-0.940430	-0.010010	-0.097168	0.107218	-0.016440	0.025184	0.090653	-0.502531	-0.056489	-0.857935	0.682023	-60.752902	-168.336284
46166		10.921653	-1.605331	1.814320	-4.010766	0.823209	0.598238	-0.668322	-0.063024	0.082076	-0.938477	-0.005371	-0.097168	0.109217	-0.015948	0.018231	0.089238	-0.503211	-0.053358	-0.857886	0.204291	-60.799591	-168.242718
46167		10.911875	-1.368610	1.706698	-4.029255	0.555561	0.546431	-0.368662	-0.089939	0.121466	-0.940430	-0.012207	-0.094971	0.109119	-0.013588	0.017141	0.088810	-0.503862	-0.051461	-0.857664	-0.143908	-60.859675	-168.091820
46168		11.873799	-0.615196	2.441282	-3.686101	-0.153310	1.750813	-0.270282	-0.149134	-0.070425	-0.938721	-0.000977	-0.090576	0.118718	-0.006161	0.024510	0.087718	-0.504690	-0.050459	-0.857349	-0.238308	-60.955510	-168.176133
46169		13.134668	-1.225307	3.177826	-3.756793	0.466856	3.217581	-0.178318	-0.166872	-0.267183	-0.940918	-0.003418	-0.092773	0.131304	-0.012400	0.031899	0.086084	-0.505484	-0.050392	-0.857051	-0.077138	-61.060046	-168.483156
46170		15.267113	-2.705300	6.816102	-1.918112	2.391232	6.844597	0.131048	-0.189912	-0.329267	-0.931396	-0.014160	-0.086182	0.152561	-0.027349	0.068288	0.084886	-0.506245	-0.051780	-0.856638	0.328873	-61.178790	-168.876221
46171		18.687248	-5.688391	10.436297	-0.957239	5.717708	11.561992	0.405507	-0.602464	-0.271058	-0.933594	-0.011963	-0.079590	0.186480	-0.057349	0.104809	0.084598	-0.508648	-0.054408	-0.855079	0.839610	-61.530931	-169.199381
46172		14.619202	-4.450685	6.733004	-1.871726	4.319679	6.209090	0.791771	-1.136030	-0.232949	-0.931152	-0.014160	-0.068604	0.145755	-0.044945	0.067981	0.085234	-0.513182	-0.058776	-0.852012	1.556594	-62.189319	-169.513254
46173		11.547405	-0.676735	5.386415	-0.755820	0.755606	2.902275	1.230971	-0.630877	-0.409445	-0.937744	-0.021240	-0.063965	0.115289	-0.007336	0.054184	0.086463	-0.515281	-0.065287	-0.850146	2.723317	-62.550433	-170.039951
46174		10.633946	1.488484	4.533459	-0.576846	-1.319931	1.753287	1.266468	-0.371361	-0.767955	-0.930176	-0.034424	-0.055176	0.106310	0.014188	0.045623	0.086266	-0.516135	-0.072717	-0.849044	4.311985	-62.746392	-171.026904
46175		9.726203	1.751309	4.692573	0.036142	-1.339848	1.044957	1.236365	-0.026599	-0.712732	-0.932373	-0.038818	-0.055176	0.097317	0.016876	0.047044	0.086420	-0.515512	-0.079765	-0.848773	5.801005	-62.734414	-171.910922
46176		8.206431	2.146926	6.654442	2.483689	-1.078492	0.623009	0.936225	0.267196	-0.380063	-0.934082	-0.045654	-0.057373	0.082193	0.021002	0.066534	0.087253	-0.513906	-0.084512	-0.849203	6.713450	-62.569227	-172.349494
46177		8.121327	2.453592	8.340127	4.011952	-0.917069	1.349608	0.313095	0.204918	-0.156662	-0.927490	-0.043213	-0.059570	0.081318	0.024342	0.083356	0.087479	-0.512902	-0.086104	-0.849627	7.026258	-62.450856	-172.505765
46178		8.915259	3.100423	8.900736	4.274492	-1.449042	2.350641	-0.217558	-0.114998	-0.094324	-0.929932	-0.043213	-0.066162	0.089116	0.031059	0.089025	0.086398	-0.513534	-0.085383	-0.849428	7.010169	-62.520339	-172.643352
46179		10.328111	3.940039	8.137548	3.199787	-2.534468	3.292697	-0.428887	-0.480553	-0.184802	-0.927734	-0.040771	-0.059570	0.103122	0.039480	0.081539	0.084306	-0.515749	-0.084193	-0.848414	7.021839	-62.789620	-172.939002
46180		12.465259	4.505195	7.223932	1.627149	-3.413860	4.801085	-0.468607	-0.565937	-0.229705	-0.925293	-0.045410	-0.048584	0.124499	0.045079	0.072486	0.081812	-0.518335	-0.082946	-0.847204	7.077256	-63.105882	-173.317765
46181		12.870524	2.731735	7.349226	1.219432	-1.670258	5.115364	-0.356557	-0.541763	-0.219084	-0.925293	-0.045410	-0.041992	0.128536	0.027308	0.073792	0.079735	-0.520752	-0.082174	-0.845995	7.185662	-63.407250	-173.673752
46182		11.649619	0.349663	7.495994	1.436950	0.763391	3.948770	-0.293868	-0.563850	-0.289534	-0.927246	-0.049805	-0.037598	0.116289	0.003439	0.075283	0.077441	-0.523220	-0.081820	-0.844719	7.421166	-63.717186	-174.139730
46183		9.893066	-0.258198	7.573559	2.200728	1.473091	2.364542	-0.370475	-0.269733	-0.379164	-0.931641	-0.050049	-0.033203	0.098823	-0.002629	0.075874	0.074759	-0.524414	-0.081301	-0.844270	7.676536	-63.850820	-174.666792
46184		9.313632	0.405130	6.547603	1.721194	0.633967	1.430736	-0.478837	-0.078958	-0.291781	-0.928955	-0.056641	-0.030762	0.093116	0.004072	0.065503	0.072167	-0.524893	-0.079984	-0.844323	7.742660	-63.883767	-175.060978
46185		9.887448	1.227062	5.460413	0.693793	-0.430638	1.519417	-0.501111	-0.033745	-0.106177	-0.927002	-0.052246	-0.033203	0.098872	0.012355	0.054590	0.070389	-0.525241	-0.078108	-0.844433	7.572885	-63.903794	-175.197452
46186		10.274980	1.625527	5.134285	0.323519	-0.926884	1.746489	-0.509480	-0.051635	0.057340	-0.920410	-0.049805	-0.035400	0.102732	0.016415	0.051328	0.069201	-0.525745	-0.075734	-0.844434	7.212502	-63.947853	-175.136157
46187		9.908792	1.362066	4.544689	-0.079712	-0.809774	1.143195	-0.534333	-0.003547	0.140746	-0.918457	-0.045166	-0.028564	0.099077	0.013812	0.045412	0.068389	-0.526064	-0.073057	-0.844537	6.731852	-63.968597	-174.947738
46188		9.338471	0.793969	4.442193	-0.031559	-0.295765	0.554656	-0.534720	0.156659	0.243424	-0.923096	-0.042969	-0.037598	0.093410	0.008172	0.044327	0.068069	-0.525751	-0.070061	-0.845011	6.111615	-63.905443	-174.603258
46189		8.525616	0.033408	4.114870	-0.112089	0.369851	-0.353839	-0.522641	0.143915	0.348445	-0.925293	-0.045410	-0.041992	0.085285	0.000590	0.041086	0.068218	-0.525509	-0.066835	-0.845411	5.378672	-63.852259	-174.126258
46190		7.889104	-0.800018	3.706323	-0.348475	1.089967	-1.134833	-0.469683	0.159628	0.383421	-0.921143	-0.036377	-0.039795	0.078936	-0.007762	0.037019	0.068586	-0.525205	-0.063698	-0.845812	4.637701	-63.790697	-173.615398
46191		7.374766	-1.474166	3.419169	-0.498150	1.678822	-1.739008	-0.405487	0.120189	0.406944	-0.921387	-0.031982	-0.037598	0.073798	-0.014522	0.034177	0.069281	-0.525031	-0.060821	-0.846075	3.911074	-63.748194	-173.070161
46192		6.991219	-1.778492	3.332972	-0.457204	1.940541	-2.120223	-0.315439	0.079873	0.429367	-0.921631	-0.027588	-0.037598	0.069963	-0.017582	0.033330	0.070295	-0.525010	-0.058287	-0.846183	3.215916	-63.728109	-172.501536
46193		6.562445	-1.804545	3.243828	-0.348819	1.935322	-2.534143	-0.260970	0.086605	0.461620	-0.922119	-0.018555	-0.041992	0.065680	-0.017852	0.032433	0.071590	-0.524936	-0.055889	-0.846282	2.514140	-63.700476	-171.891406
46194		6.300503	-1.271234	3.356694	-0.035520	1.406746	-2.699359	-0.243176	0.070771	0.492625	-0.922119	-0.018555	-0.041992	0.063048	-0.012516	0.033560	0.073058	-0.524938	-0.053496	-0.846310	1.789635	-63.680776	-171.243714
46195		6.016306	-0.947475	3.111388	-0.061931	1.020264	-3.050338	-0.387495	0.010581	0.678233	-0.920166	-0.009521	-0.041992	0.060196	-0.009210	0.031129	0.074915	-0.525281	-0.050021	-0.846148	0.768846	-63.691995	-170.358424
46196		5.795109	-1.211495	2.809251	-0.268042	1.201641	-3.376308	-0.165194	-0.067823	0.596276	-0.918213	-0.005127	-0.048584	0.057977	-0.011919	0.028122	0.076989	-0.525855	-0.047735	-0.845737	-0.029431	-63.743167	-169.578842
46197		5.864898	-1.015040	2.682539	-0.363326	0.949645	-3.363699	-0.002982	-0.120150	0.474678	-0.918213	-0.002930	-0.039795	0.058657	-0.010011	0.026861	0.078962	-0.526544	-0.046470	-0.845196	-0.597554	-63.819016	-168.953275
46198		5.992382	-0.797969	2.407242	-0.608554	0.657271	-3.367703	0.099569	-0.184123	0.410582	-0.918701	0.003662	-0.037598	0.059918	-0.007869	0.024124	0.080919	-0.527456	-0.045837	-0.844477	-1.036101	-63.931177	-168.406511
46199		5.871225	-1.020093	2.303485	-0.674312	0.848069	-3.516344	0.171153	-0.211195	0.472552	-0.925537	0.007813	-0.028564	0.058712	-0.010082	0.023088	0.083319	-0.528453	-0.045348	-0.843646	-1.512132	-64.054562	-167.773531
46200		5.698023	-1.462696	2.472003	-0.522932	1.307875	-3.589045	0.347352	-0.185767	0.429956	-0.916748	0.012695	-0.028564	0.056989	-0.014547	0.024748	0.086011	-0.529266	-0.045709	-0.842847	-1.840225	-64.163727	-167.192871
46201		5.465814	-1.614476	2.577490	-0.352808	1.481313	-3.745866	0.409170	-0.196593	0.490936	-0.921631	0.019043	-0.026367	0.054672	-0.016063	0.025796	0.089119	-0.530096	-0.046168	-0.841977	-2.210114	-64.274730	-166.527531
46202		5.103200	-1.513550	2.557346	-0.189896	1.400057	-4.078817	0.457170	-0.239897	0.540851	-0.919434	0.021484	-0.024170	0.051042	-0.015056	0.025600	0.092554	-0.531103	-0.046720	-0.840940	-2.618614	-64.408933	-165.789076
46203		4.561213	-1.114302	2.535824	0.111175	1.051068	-4.582046	0.497132	-0.359447	0.514973	-0.921875	0.023438	-0.019775	0.045595	-0.011089	0.025413	0.095957	-0.532568	-0.047559	-0.839584	-2.987442	-64.608523	-165.070689
46204		4.707678	-0.988476	2.231280	-0.175416	0.850644	-4.581671	0.624822	-0.480212	0.437678	-0.920166	0.032471	-0.021973	0.047045	-0.009852	0.022395	0.099345	-0.534463	-0.049201	-0.837890	-3.206133	-64.879585	-164.438421
46205		5.142021	-0.705504	2.232174	-0.268135	0.523919	-4.193587	0.799490	-0.530811	0.438246	-0.917725	0.032471	-0.010986	0.051376	-0.007032	0.022430	0.103186	-0.536458	-0.051593	-0.836004	-3.338431	-65.177170	-163.792916
46206		6.273855	-1.559489	1.960979	-1.138222	1.167427	-3.256755	1.034383	-0.498622	0.435561	-0.916016	0.043701	-0.006592	0.062723	-0.015560	0.019686	0.107653	-0.538191	-0.054959	-0.834111	-3.338901	-65.457689	-163.145535
46207		7.385430	-2.086487	2.270188	-1.421459	1.608402	-2.102678	1.320252	-0.407956	0.384239	-0.922607	0.041260	-0.004395	0.073848	-0.020873	0.022715	0.112693	-0.539342	-0.059601	-0.832381	-3.110357	-65.686960	-162.571450
46208		8.085987	-2.443562	2.496159	-1.584595	1.921255	-1.363852	1.358268	-0.405063	0.341592	-0.918457	0.047852	0.002197	0.080851	-0.024467	0.024959	0.117655	-0.540431	-0.064514	-0.830620	-2.808869	-65.918517	-162.054223
46209		9.260021	-2.566613	2.022210	-2.488214	1.785821	-0.482926	1.476632	-0.462886	0.294908	-0.918213	0.043457	0.011230	0.092591	-0.025679	0.020247	0.122716	-0.541632	-0.070072	-0.828653	-2.384954	-66.184133	-161.598025
46210		9.762687	-1.691539	1.344974	-3.014382	0.710012	-0.305342	1.607995	-0.550271	0.391780	-0.918945	0.054443	0.009033	0.097623	-0.016833	0.013583	0.128497	-0.543123	-0.075963	-0.826278	-2.018633	-66.500530	-160.997613
46211		9.944843	-0.854780	0.829448	-3.245914	-0.269192	-0.341163	1.616070	-0.610097	0.576679	-0.925293	0.052002	0.020020	0.099447	-0.008329	0.008530	0.135029	-0.544872	-0.081416	-0.823561	-1.901333	-66.846969	-160.122670
46212		9.987861	0.749356	1.065220	-2.491516	-1.762908	-0.213856	1.325226	-0.491288	0.664083	-0.919189	0.063232	0.024414	0.099827	0.007753	0.010948	0.141097	-0.546344	-0.085301	-0.821172	-2.076047	-67.125132	-159.123415
46213		10.009313	0.762215	0.621027	-2.819412	-1.942407	-0.355910	0.675869	-0.328336	0.548181	-0.917236	0.070068	0.026611	0.100061	0.007875	0.006401	0.145050	-0.547513	-0.086763	-0.819550	-2.469280	-67.309012	-158.282544
46214		11.121516	0.496971	0.468101	-3.401883	-1.932617	0.620255	0.475042	-0.037818	0.375890	-0.915039	0.067871	0.022217	0.111205	0.005168	0.004714	0.147872	-0.547567	-0.087664	-0.818913	-2.730519	-67.330945	-157.709904
46215		12.337083	0.860331	0.375170	-3.779839	-2.518002	1.696304	0.511879	0.128433	0.327204	-0.921875	0.072266	0.020020	0.123359	0.008796	0.003695	0.150665	-0.546874	-0.088724	-0.818753	-2.891826	-67.256566	-157.222766
46216		13.186811	0.812454	0.358455	-4.096447	-2.646231	2.471324	0.476544	-0.041592	0.379383	-0.915771	0.081299	0.022217	0.131852	0.008366	0.003632	0.153501	-0.546935	-0.089626	-0.818087	-3.156276	-67.279006	-156.645457
46217		13.523490	-0.167882	-0.032314	-4.856621	-1.950733	2.658135	0.289219	-0.235448	0.505924	-0.913574	0.085693	0.028809	0.135239	-0.001336	-0.000166	0.156252	-0.547971	-0.089561	-0.816879	-3.719048	-67.404552	-155.861694
46218		14.869620	-0.898417	2.186825	-3.623912	-0.843465	4.776698	0.141387	0.049713	0.595133	-0.915771	0.085693	0.024414	0.148728	-0.008557	0.021825	0.159089	-0.548006	-0.088427	-0.816432	-4.466496	-67.361932	-154.969640
46219		17.778910	1.658508	5.576099	-0.771187	-2.716566	8.679415	-0.306238	0.130984	0.451831	-0.907471	0.094727	0.026611	0.177787	0.017072	0.055619	0.160149	-0.547984	-0.085790	-0.816521	-5.260356	-67.273357	-154.305051
46220		19.323867	3.724595	7.125628	0.788954	-4.525324	10.606832	-0.778379	0.000411	0.326146	-0.909424	0.092529	0.024414	0.193177	0.037838	0.071109	0.159345	-0.548825	-0.081676	-0.816535	-6.167585	-67.264564	-153.810358
46221		14.385845	4.596464	6.755078	2.463051	-4.721712	5.850924	-0.869128	0.397730	0.064387	-0.911865	0.094727	0.026611	0.143977	0.046303	0.067064	0.157380	-0.547985	-0.077589	-0.817878	-6.708796	-67.042003	-153.769093
46222		10.548335	4.482373	8.525525	5.227951	-3.544789	2.999182	-1.412879	0.637807	-0.172850	-0.918457	0.092285	0.022217	0.105793	0.045332	0.084599	0.153044	-0.546489	-0.071741	-0.820232	-7.201906	-66.701200	-154.118412
46223		8.569968	5.043887	8.242869	5.820391	-3.969463	1.012924	-1.514952	-0.064690	0.406160	-0.912354	0.105713	0.031006	0.085570	0.051235	0.082070	0.150541	-0.548113	-0.064420	-0.820219	-8.634267	-66.713745	-153.509650
46224		5.946745	4.603700	6.538659	5.142842	-3.702298	-2.121572	-1.427530	-0.762356	1.023508	-0.906006	0.112549	0.037598	0.058980	0.046806	0.065280	0.150574	-0.552701	-0.056293	-0.817729	-10.998395	-67.053813	-151.833599
46225		5.955596	2.388000	6.068703	4.104822	-1.844812	-2.213586	-1.211148	-0.612087	0.867741	-0.913086	0.118896	0.041992	0.059265	0.024505	0.060722	0.150596	-0.556411	-0.049357	-0.815654	-13.040134	-67.300814	-150.376988
46226		6.618857	-1.002768	9.518851	5.985562	1.998636	-0.035119	-0.565998	0.185619	0.772465	-0.911377	0.132324	0.041992	0.066314	-0.009502	0.095154	0.152217	-0.556346	-0.044721	-0.815665	-14.346947	-67.101868	-149.316216
46227		8.002746	-3.565603	10.688971	5.807701	4.329615	1.957414	-0.545595	0.515229	0.526430	-0.909424	0.136963	0.033203	0.080396	-0.035153	0.106779	0.152959	-0.554841	-0.040594	-0.816767	-15.186886	-66.746756	-148.748684
46228		12.071014	-6.299278	9.138623	2.283065	5.653934	5.409816	-0.470387	-0.359924	0.099972	-0.909424	0.134521	0.039795	0.120577	-0.062717	0.091751	0.151990	-0.556768	-0.038632	-0.815730	-15.733745	-66.939067	-148.452132
46229		17.281824	-10.118500	4.677973	-4.400846	7.227912	8.930653	-0.020361	-1.401836	-0.299751	-0.909424	0.136719	0.062012	0.172333	-0.101439	0.047999	0.150436	-0.562498	-0.040403	-0.811993	-15.893931	-67.765777	-148.296852
46230		15.851286	-7.347642	4.039147	-3.576062	4.824286	7.084156	0.558489	-0.505393	-0.231503	-0.911621	0.134521	0.059814	0.158325	-0.073773	0.040586	0.150964	-0.564158	-0.043661	-0.810573	-15.473078	-68.089152	-148.410965
46231		11.918363	-3.864586	6.457352	0.874795	2.887408	3.956015	0.460408	0.200711	0.353437	-0.906982	0.134521	0.055420	0.119317	-0.038583	0.064365	0.153738	-0.563140	-0.044333	-0.810723	-15.636402	-67.931202	-147.955954
46232		10.323979	-1.927831	6.163427	1.682688	1.252131	2.182701	0.250713	0.016836	0.702333	-0.911621	0.138916	0.064209	0.103312	-0.018993	0.061602	0.157293	-0.563111	-0.043317	-0.810116	-16.458851	-67.819346	-146.918495
46233		11.544984	-0.855420	5.197613	0.767891	-0.313202	2.850074	0.270462	-0.014694	0.652643	-0.907715	0.150146	0.059814	0.115473	-0.008248	0.051973	0.160693	-0.563165	-0.042541	-0.809452	-17.206303	-67.726121	-145.949269
46234		11.630940	-0.093513	4.154941	0.051218	-1.360440	2.463204	0.456131	0.073345	0.474681	-0.909668	0.143311	0.057617	0.116327	-0.000754	0.041505	0.163913	-0.562680	-0.042950	-0.809123	-17.568046	-67.613209	-145.281131
46235		10.159154	-0.467576	3.342080	-0.341599	-0.915925	0.847560	0.562791	0.175952	0.151472	-0.905518	0.150146	0.048828	0.101624	-0.004693	0.033318	0.166146	-0.561606	-0.044612	-0.809323	-17.393286	-67.497915	-145.126966
46236		9.991425	-0.532758	3.057088	-0.598163	-0.888734	0.594537	0.579876	0.396530	-0.075347	-0.907959	0.152344	0.053223	0.099973	-0.005453	0.030357	0.167557	-0.559580	-0.046800	-0.810312	-16.822799	-67.301981	-145.390468
46237		9.268752	-0.458931	2.576316	-0.831000	-0.910852	-0.260874	0.426645	0.597602	-0.340609	-0.907715	0.145752	0.048828	0.092756	-0.004802	0.025476	0.167508	-0.556787	-0.048937	-0.812118	-15.924327	-67.035530	-146.105736
46238		8.127284	-0.019778	2.564063	-0.395829	-1.050961	-1.364855	0.233183	0.634029	-0.587333	-0.902832	0.141602	0.039795	0.081352	-0.000466	0.025382	0.165926	-0.553949	-0.050947	-0.814257	-14.824176	-66.783194	-147.161884
46239		6.591898	0.618411	2.650453	0.337750	-1.261514	-2.801656	0.067504	0.497396	-0.873722	-0.906982	0.132568	0.041992	0.066011	0.005887	0.026342	0.162680	-0.551708	-0.053185	-0.816287	-13.514864	-66.636700	-148.550901
46240		5.303366	0.961614	2.507069	0.711728	-1.310175	-4.058358	-0.006235	0.325768	-1.158529	-0.908447	0.119141	0.035400	0.053129	0.009309	0.024984	0.158018	-0.550147	-0.056049	-0.818063	-11.944521	-66.609929	-150.270917
46241		4.425227	1.091520	2.617256	1.117266	-1.182226	-4.814905	0.013685	0.194772	-1.284286	-0.908447	0.116943	0.033203	0.044347	0.010629	0.026130	0.152853	-0.549038	-0.059438	-0.819549	-10.233915	-66.649549	-152.131508
46242		4.213055	1.136799	2.749702	1.293042	-1.104538	-4.943316	0.017720	0.165375	-1.230689	-0.909912	0.101318	0.033203	0.042222	0.011106	0.027463	0.147905	-0.548052	-0.062722	-0.820871	-8.593062	-66.680760	-153.912732
46243		4.379909	1.321114	2.961402	1.447928	-1.211129	-4.700419	-0.066625	0.232971	-1.127415	-0.907227	0.092529	0.028809	0.043907	0.012974	0.029559	0.143165	-0.546852	-0.065319	-0.822308	-7.122771	-66.644740	-155.561256
46244		4.560145	1.325975	3.104764	1.477396	-1.172238	-4.461460	-0.176388	0.311550	-1.057272	-0.909180	0.085938	0.028809	0.045719	0.013046	0.030965	0.138435	-0.545425	-0.067220	-0.823911	-5.803279	-66.545148	-157.114359
46245		4.764265	1.475235	3.046263	1.360049	-1.331558	-4.287176	-0.326842	0.308812	-1.010646	-0.912842	0.072266	0.035400	0.047763	0.014561	0.030365	0.133481	-0.544101	-0.068369	-0.825508	-4.644176	-66.429784	-158.588305
46246		5.366389	1.586490	2.735938	0.858536	-1.578197	-3.848423	-0.510328	0.252370	-0.976805	-0.912842	0.067871	0.031006	0.053775	0.015672	0.027251	0.128145	-0.543138	-0.068709	-0.826958	-3.651357	-66.335806	-159.996121
46247		4.972095	0.944547	2.445815	0.537981	-0.958224	-4.300137	-0.594326	0.136856	-0.837365	-0.910156	0.059082	0.028809	0.049777	0.009310	0.024396	0.123113	-0.542728	-0.068390	-0.828017	-2.905108	-66.293238	-161.188541
46248		5.033653	1.171733	2.708211	0.790606	-1.101733	-4.137645	-0.726731	0.004527	-0.764855	-0.912109	0.054688	0.026611	0.050382	0.011623	0.027039	0.117975	-0.542967	-0.067412	-0.828688	-2.338192	-66.320562	-162.267404
46249		5.586402	1.554445	2.624262	0.588852	-1.547789	-3.667080	-0.991168	0.040082	-0.688238	-0.911621	0.043457	0.026611	0.055923	0.015482	0.026155	0.112443	-0.543213	-0.065101	-0.829481	-2.020574	-66.320976	-163.240012
46250		6.244263	1.687126	1.886370	-0.311410	-1.912891	-3.359830	-1.154701	0.104428	-0.675841	-0.916016	0.043457	0.031006	0.062509	0.016769	0.018734	0.106535	-0.543276	-0.062046	-0.830453	-1.809985	-66.284022	-164.197493
46251		6.879437	1.737403	1.335656	-1.069426	-2.133331	-2.998419	-1.220553	0.098729	-0.723716	-0.915527	0.032227	0.031006	0.068863	0.017206	0.013217	0.100242	-0.543347	-0.058841	-0.831422	-1.577654	-66.248138	-165.220913
46252		7.291840	1.547972	1.025445	-1.589749	-2.028512	-2.743296	-1.307626	0.174123	-0.710227	-0.910889	0.032471	0.028809	0.072982	0.015287	0.010091	0.093787	-0.543133	-0.055204	-0.832564	-1.411966	-66.168966	-166.225683
46253		7.516371	1.130597	1.442417	-1.440656	-1.535552	-2.368161	-1.381765	0.353288	-0.712122	-0.910400	0.019043	0.024414	0.075229	0.011137	0.014214	0.087165	-0.542165	-0.051169	-0.834171	-1.288069	-65.984639	-167.233021
46254		7.521502	0.869763	1.935111	-1.101341	-1.169661	-2.164626	-1.452977	0.372199	-0.774318	-0.914551	0.014648	0.020020	0.075284	0.008546	0.019149	0.080091	-0.541106	-0.047001	-0.835811	-1.132749	-65.790788	-168.320100
46255		7.069954	0.558597	2.106148	-0.865553	-0.775278	-2.506407	-1.356447	0.323458	-0.849433	-0.909668	0.005859	0.024414	0.070757	0.005428	0.020910	0.072945	-0.540148	-0.043449	-0.837276	-0.839157	-65.622311	-169.500620
46256		6.704943	0.761041	1.999779	-0.810489	-0.939071	-2.884795	-1.206131	0.195028	-0.786703	-0.914063	0.005859	0.017822	0.067098	0.007467	0.019887	0.066438	-0.539664	-0.040409	-0.838282	-0.547606	-65.526056	-170.584617
46257		7.670295	0.805163	1.695053	-1.497548	-1.064874	-2.132961	-1.159113	0.116138	-0.664327	-0.913818	-0.003174	0.020020	0.076739	0.007895	0.016860	0.060549	-0.539482	-0.037252	-0.838990	-0.389501	-65.471120	-171.493936
46258		9.284690	0.651765	1.962221	-1.966063	-0.950342	-0.554616	-1.230594	0.161603	-0.600346	-0.913574	-0.007568	0.020020	0.092882	0.006359	0.019508	0.054743	-0.539130	-0.033616	-0.839769	-0.353363	-65.390815	-172.313691
46259		10.735906	-0.003352	1.926624	-2.700915	-0.355840	0.749031	-1.203653	0.100948	-0.534141	-0.918213	-0.003174	0.015625	0.107368	-0.000205	0.019213	0.049274	-0.539000	-0.029921	-0.840331	-0.388785	-65.343459	-173.039138
46260		11.361555	-0.857253	1.786171	-3.185398	0.476634	1.261436	-1.170299	-0.023422	-0.430858	-0.908936	-0.009766	0.017822	0.113595	-0.008712	0.017926	0.044309	-0.539388	-0.026126	-0.840485	-0.533813	-65.368951	-173.622027
46261		11.328905	-1.832661	1.785665	-3.255155	1.470126	1.238736	-0.914721	-0.046065	-0.264684	-0.908691	-0.011963	0.017822	0.113261	-0.018395	0.017967	0.040726	-0.539809	-0.022952	-0.840488	-0.741644	-65.405512	-173.975629
46262		11.605659	-2.298489	1.435864	-3.715417	1.900419	1.350653	-0.700911	0.104593	-0.088207	-0.915283	-0.016602	0.022217	0.116054	-0.022986	0.014379	0.038479	-0.539576	-0.020178	-0.840815	-1.043461	-65.356493	-174.090147
46263		11.921298	-2.260797	0.664354	-4.540393	1.787849	1.316479	-0.521134	0.139528	0.013409	-0.908691	-0.011963	0.017822	0.119219	-0.022583	0.006619	0.037147	-0.539154	-0.017870	-0.841198	-1.369371	-65.284847	-174.065810
46264		11.989785	-1.714595	0.526461	-4.647011	1.226673	1.317115	-0.328063	0.007822	0.002377	-0.913086	-0.014160	0.020020	0.119898	-0.017136	0.005288	0.036277	-0.539258	-0.016436	-0.841198	-1.572876	-65.290490	-174.053556
46265		12.706365	-1.258769	2.099136	-3.482305	0.852602	2.620702	-0.217403	0.052119	-0.162603	-0.917725	-0.014404	0.022217	0.127059	-0.012668	0.020972	0.035015	-0.539130	-0.015896	-0.841344	-1.507750	-65.271559	-174.268113
46266		14.892327	-2.405271	4.621383	-2.194217	2.083429	5.671777	-0.097278	0.020729	-0.153303	-0.913086	-0.016357	0.022217	0.148910	-0.024144	0.046210	0.034114	-0.539125	-0.015850	-0.841385	-1.385063	-65.272148	-174.469453
46267		20.232730	-5.518698	9.748355	0.008037	5.307594	12.696847	0.640362	-0.262714	0.300113	-0.915527	-0.012207	0.026611	0.202282	-0.055196	0.097573	0.037085	-0.540205	-0.017725	-0.840529	-1.415112	-65.426854	-174.038433
46268		18.044131	-4.911216	10.662682	1.846929	4.846636	11.079939	0.636916	-0.570578	0.567240	-0.917969	-0.005615	0.033203	0.180275	-0.048941	0.106985	0.041142	-0.542606	-0.018928	-0.838765	-1.799634	-65.754786	-173.220465
46269		11.682540	-4.223351	9.094244	3.115339	4.370599	4.616996	1.034081	-0.256904	0.181405	-0.920410	-0.001221	0.031006	0.116747	-0.042598	0.090873	0.044686	-0.543545	-0.022771	-0.837880	-1.462624	-65.907373	-172.946153
46270		9.875487	-3.124988	7.447013	2.461442	3.361308	2.245009	1.450273	-0.505474	-0.927341	-0.917480	-0.016602	0.035400	0.098419	-0.032247	0.074488	0.044686	-0.545289	-0.031430	-0.836466	0.546389	-66.211506	-174.240266
46271		9.710958	-3.370056	5.807455	1.003306	3.664004	1.365405	1.701930	-0.292226	-1.452216	-0.916748	-0.032227	0.042236	0.096774	-0.034897	0.057923	0.043206	-0.545934	-0.042517	-0.835632	3.414222	-66.358768	-176.313160
46272		6.360434	-2.204610	5.888812	2.523124	2.808544	-1.704879	1.842797	-0.072510	-1.138201	-0.911865	-0.036621	0.044434	0.063454	-0.022949	0.058702	0.043465	-0.545643	-0.053287	-0.835192	5.950895	-66.357457	-177.934863
46273		6.113172	0.171213	6.382366	3.324008	0.681633	-1.650635	1.417148	0.667053	-0.890583	-0.916260	-0.041016	0.031006	0.061350	0.000988	0.063628	0.043788	-0.542357	-0.061434	-0.836754	7.793097	-65.925882	-179.067032
46274		7.271139	2.897735	9.415236	5.873901	-1.450064	0.831797	0.678766	1.131861	-0.590574	-0.908691	-0.056396	0.028809	0.073328	0.028443	0.093836	0.043505	-0.537355	-0.065576	-0.839676	8.704578	-65.246147	-179.646190
46275		10.385681	5.691003	9.463879	4.929278	-4.157877	3.906967	0.011345	0.343356	-0.137707	-0.915771	-0.050049	0.033203	0.104058	0.056833	0.094463	0.043070	-0.535932	-0.065865	-0.840585	8.803886	-65.048737	-179.754210
46276		12.988556	7.804167	6.762919	1.758876	-6.684496	5.272634	-0.207390	-0.918062	0.248047	-0.924805	-0.048096	0.044434	0.129477	0.078273	0.068143	0.043255	-0.539988	-0.064476	-0.838084	8.542107	-65.600671	-179.602070
46277		14.206838	7.512329	5.409826	0.106779	-6.655663	5.782996	-0.367851	-0.576379	0.355619	-0.911621	-0.043213	0.046631	0.141778	0.075475	0.054369	0.043565	-0.542660	-0.062045	-0.836524	7.977249	-65.965772	-179.219523
46278		11.292884	4.525680	6.141672	1.586142	-3.621030	3.229680	-0.100123	-0.091391	0.183735	-0.909668	-0.038818	0.044434	0.112859	0.045391	0.061446	0.044035	-0.543198	-0.061101	-0.836220	7.691765	-66.042444	-178.974756
46279		9.356094	2.676036	6.863687	2.783091	-1.673892	1.644201	0.087693	-0.164712	-0.123036	-0.916260	-0.041260	0.048828	0.093521	0.026673	0.068726	0.043708	-0.543895	-0.061784	-0.835733	7.916936	-66.135361	-179.171802
46280		9.844331	1.784864	5.985775	1.686251	-0.905484	1.687863	0.131556	-0.174850	-0.168514	-0.922852	-0.041260	0.042236	0.098406	0.017726	0.059955	0.043308	-0.544621	-0.062784	-0.835207	8.231117	-66.231392	-179.437664
46281		10.643479	0.343725	4.868717	0.165350	0.360105	1.889841	0.091112	-0.064886	0.020901	-0.920654	-0.043457	0.051025	0.106419	0.003426	0.048723	0.043623	-0.544945	-0.063068	-0.834958	8.257104	-66.278914	-179.414713
46282		10.069373	-0.574453	3.913373	-0.587464	1.111716	0.932343	-0.016970	-0.034570	0.270421	-0.914307	-0.036621	0.051025	0.100695	-0.005605	0.039152	0.044343	-0.545280	-0.061996	-0.834781	7.895458	-66.330645	-179.083141
46283		8.716999	-0.205612	3.488294	-0.372450	0.656254	-0.451757	-0.144466	0.077962	0.411407	-0.918457	-0.039063	0.048828	0.087188	-0.001852	0.034850	0.045690	-0.545179	-0.060200	-0.834906	7.254578	-66.326419	-178.479450
46284		9.016258	0.105655	2.964867	-0.937013	0.219805	-0.369812	-0.134578	0.412764	0.464244	-0.918701	-0.034668	0.042236	0.090221	0.001286	0.029462	0.047386	-0.543700	-0.058232	-0.835915	6.503355	-66.133822	-177.747716
46285		8.104712	-0.158732	2.978028	-0.631945	0.440635	-1.211164	-0.066811	0.631440	0.645182	-0.910645	-0.020996	0.039795	0.081145	-0.001316	0.029525	0.050085	-0.541326	-0.055995	-0.837450	5.542961	-65.821709	-176.743872
46286		7.040949	-0.722259	3.077091	-0.229205	0.976671	-2.160349	0.070762	0.550810	0.776955	-0.919678	-0.019043	0.039795	0.070521	-0.006960	0.030574	0.053685	-0.539290	-0.054004	-0.838670	4.529683	-65.556684	-175.592440
46287		6.118138	-1.367893	3.066418	0.014193	1.586293	-3.016452	0.170322	0.441325	0.874915	-0.922363	-0.008057	0.037598	0.061308	-0.013437	0.030517	0.057932	-0.537690	-0.052187	-0.839530	3.481081	-65.348232	-174.338096
46288		5.752093	-1.798855	2.951127	-0.030189	1.957123	-3.393959	0.248604	0.359851	0.943208	-0.920654	0.003174	0.031006	0.057658	-0.017753	0.029385	0.062655	-0.536423	-0.050544	-0.840101	2.417335	-65.180299	-173.015080
46289		5.561386	-1.776327	3.094469	0.157438	1.914858	-3.490636	0.281294	0.299836	0.993468	-0.923340	0.011963	0.028809	0.055748	-0.017530	0.030836	0.067658	-0.535386	-0.048914	-0.840471	1.327118	-65.035840	-171.641291
46290		4.982363	-1.050858	3.154427	0.560113	1.192808	-3.969580	0.100766	0.149831	1.061190	-0.912354	0.014648	0.028809	0.049902	-0.010260	0.031502	0.072425	-0.535052	-0.046399	-0.840429	0.066085	-64.967432	-170.191345
46291		5.207406	-1.753930	2.666549	-0.090574	1.740569	-3.958989	0.021039	-0.012451	1.025458	-0.922119	0.029785	0.026611	0.052161	-0.017275	0.026667	0.076788	-0.535395	-0.043697	-0.839968	-1.194317	-64.977271	-168.792789
46292		5.761781	-1.841596	2.753403	-0.257609	1.743551	-3.404545	0.298257	-0.016655	0.957959	-0.913818	0.045654	0.033203	0.057703	-0.018181	0.027512	0.081607	-0.535631	-0.042345	-0.839432	-2.213066	-64.980369	-167.485159
46293		5.658155	-1.661519	2.611605	-0.307866	1.508779	-3.549741	0.348749	-0.088864	0.860816	-0.925293	0.047607	0.026611	0.056641	-0.016417	0.026112	0.086136	-0.536105	-0.041488	-0.838719	-3.089403	-65.016755	-166.303492
46294		5.882660	-1.131165	2.641315	-0.267472	0.936477	-3.338649	0.470343	-0.155647	0.684721	-0.914307	0.056641	0.035400	0.058844	-0.011172	0.026433	0.090238	-0.536771	-0.041646	-0.837854	-3.687604	-65.092346	-165.351822
46295		5.975720	-1.164415	2.393220	-0.523332	0.895108	-3.353782	0.633233	-0.248278	0.571893	-0.924072	0.069824	0.033203	0.059761	-0.011549	0.023970	0.094282	-0.537707	-0.042826	-0.836748	-4.066718	-65.220361	-164.539971
46296		6.172849	-1.363351	2.474099	-0.560060	1.065635	-3.131768	0.782383	-0.296618	0.568281	-0.926025	0.065186	0.037598	0.061730	-0.013555	0.024779	0.098701	-0.538773	-0.044665	-0.835456	-4.366472	-65.375606	-163.721939
46297		6.057001	-1.950071	2.377838	-0.716274	1.618784	-3.254439	0.805025	-0.301700	0.601160	-0.921875	0.074219	0.044434	0.060593	-0.019414	0.023792	0.103313	-0.539831	-0.046507	-0.834114	-4.702312	-65.528889	-162.851377
46298		6.148075	-1.950506	2.343656	-0.775848	1.587359	-3.181370	0.843791	-0.328486	0.527633	-0.924316	0.078613	0.048828	0.061494	-0.019442	0.023455	0.107460	-0.540974	-0.048563	-0.832731	-4.933083	-65.700754	-162.107361
46299		6.191774	-1.625841	1.998472	-1.015088	1.183522	-3.290100	0.858426	-0.386061	0.581780	-0.922607	0.087646	0.044434	0.061926	-0.016164	0.020035	0.112109	-0.542321	-0.050722	-0.831111	-5.239397	-65.899676	-161.238019
46300		5.596952	-1.199709	1.857271	-0.790301	0.806765	-3.901753	0.984371	-0.507390	0.563044	-0.918213	0.089844	0.053223	0.055956	-0.011931	0.018656	0.116744	-0.544106	-0.053366	-0.829139	-5.474434	-66.168684	-160.402587
46301		6.457445	-1.262251	1.758895	-1.198166	0.724221	-3.147447	1.232798	-0.607001	0.443797	-0.923096	0.096436	0.053223	0.064549	-0.012588	0.017707	0.121773	-0.546076	-0.057574	-0.826836	-5.437211	-66.498836	-159.677716
46302		7.740737	-1.742651	1.745167	-1.792280	1.006796	-1.952948	1.468689	-0.598313	0.402077	-0.918701	0.100830	0.064209	0.077390	-0.017400	0.017555	0.127023	-0.547851	-0.062705	-0.824495	-5.217035	-66.828474	-159.040304
46303		8.782450	-1.966114	1.766366	-2.197570	1.080031	-0.974064	1.562846	-0.550287	0.358665	-0.920898	0.100830	0.068604	0.087811	-0.019642	0.017752	0.132605	-0.549289	-0.068466	-0.822198	-4.885032	-67.132596	-158.433774
46304		9.756723	-2.205697	1.080399	-3.207627	0.988211	-0.327934	1.660448	-0.513835	0.363859	-0.914551	0.105469	0.075195	0.097579	-0.021970	0.010872	0.138215	-0.550508	-0.074412	-0.819939	-4.503424	-67.418742	-157.858220
46305		10.588681	-1.436558	0.607172	-3.659410	-0.014870	0.245189	1.745944	-0.436250	0.445180	-0.919434	0.114014	0.075195	0.105905	-0.014183	0.006178	0.144675	-0.551302	-0.080596	-0.817704	-4.180391	-67.656874	-157.130931
46306		10.892585	-0.455854	0.269701	-3.703801	-1.121328	0.383049	1.773402	-0.362466	0.603315	-0.924316	0.122803	0.086426	0.108934	-0.004255	0.002856	0.151590	-0.551831	-0.086208	-0.815519	-4.060008	-67.849093	-156.208578
46307		10.525258	1.199889	0.521216	-2.728071	-2.588553	0.104412	1.589126	-0.337281	0.697512	-0.917969	0.131836	0.082031	0.105201	0.012323	0.005487	0.158664	-0.552352	-0.090970	-0.813300	-4.183698	-68.021345	-155.098276
46308		10.220670	2.464808	0.503995	-2.107638	-3.768288	-0.213281	1.006634	-0.301918	0.707098	-0.920410	0.136230	0.082031	0.102111	0.024983	0.005319	0.164176	-0.553174	-0.093306	-0.811380	-4.662382	-68.172438	-153.966226
46309		10.814695	3.224743	0.238704	-2.190060	-4.697999	0.214561	0.555137	-0.087258	0.486292	-0.922852	0.136230	0.082031	0.108067	0.032503	0.002524	0.167639	-0.553367	-0.094240	-0.810433	-5.065586	-68.206792	-153.194953
46310		11.741993	3.345507	-0.139334	-2.747974	-5.123432	0.924407	0.417156	0.095201	0.292154	-0.914063	0.143066	0.084229	0.117370	0.033629	-0.001379	0.169680	-0.552891	-0.094774	-0.810271	-5.247514	-68.147448	-152.794428
46311		12.367016	3.080310	0.062014	-2.864398	-4.943579	1.579917	0.216930	0.060404	0.229874	-0.918945	0.149658	0.084229	0.123635	0.030945	0.000616	0.171235	-0.552642	-0.094923	-0.810096	-5.458923	-68.108825	-152.438304
46312		13.010755	2.152907	1.130641	-2.497281	-3.865003	2.597723	-0.116847	0.067703	0.308523	-0.921387	0.151855	0.086426	0.130078	0.021736	0.011250	0.172191	-0.552697	-0.093500	-0.810021	-5.971308	-68.062569	-151.963440
46313		14.926812	2.004510	3.691965	-0.983254	-3.253512	5.316937	-0.458105	0.354813	0.359741	-0.916748	0.149658	0.082031	0.149297	0.020398	0.036608	0.172543	-0.551891	-0.090301	-0.810858	-6.701568	-67.845808	-151.464376
46314		18.020018	3.263502	7.247036	1.525592	-3.894206	9.433010	-0.623546	0.260094	0.497281	-0.919434	0.160645	0.082031	0.180212	0.033308	0.072133	0.172952	-0.551679	-0.086138	-0.811368	-7.722376	-67.672080	-150.752695
46315		16.787557	4.713609	7.267164	2.532653	-5.147179	8.185692	-1.030437	-0.277262	0.530929	-0.919434	0.160645	0.086426	0.167648	0.047956	0.072658	0.172138	-0.553985	-0.080688	-0.810530	-9.122390	-67.792530	-149.883468
46316		12.280509	3.863620	6.252143	2.838745	-3.971941	3.640610	-1.600822	0.121324	0.182078	-0.915283	0.165283	0.088623	0.122807	0.039246	0.062134	0.168483	-0.555010	-0.073552	-0.811275	-10.281021	-67.716101	-149.627680
46317		9.808417	2.717462	7.027965	3.908359	-2.334458	1.687535	-1.452978	0.194165	0.357110	-0.922119	0.167236	0.086426	0.098103	0.027859	0.069984	0.165964	-0.555632	-0.066458	-0.811980	-11.569429	-67.575713	-149.140356
46318		7.212007	3.197052	7.628542	5.473964	-2.259569	-0.573863	-1.464146	-0.156555	0.978486	-0.916016	0.182861	0.097412	0.071901	0.032880	0.076103	0.165809	-0.557869	-0.057887	-0.811134	-13.799916	-67.549463	-147.639762
46319		5.629135	1.255154	6.847504	4.702221	-0.476780	-2.209335	-1.262676	-0.457174	0.886803	-0.920654	0.187256	0.104004	0.056077	0.013233	0.068521	0.165745	-0.561078	-0.050625	-0.809418	-15.898709	-67.679678	-146.157995
46320		5.334279	-2.099583	8.041724	4.841360	2.959537	-1.729776	-0.695244	-0.465853	0.865187	-0.916748	0.198486	0.110596	0.053245	-0.020485	0.080613	0.167175	-0.563830	-0.045734	-0.807501	-17.665604	-67.800934	-144.684166
46321		6.457833	-4.652141	9.706764	5.221932	5.471858	0.205140	-0.310925	-0.105356	0.757286	-0.914795	0.202881	0.114990	0.064702	-0.046126	0.097174	0.169329	-0.564753	-0.042388	-0.806589	-18.918863	-67.728913	-143.528320
46322		10.698694	-7.231131	8.771873	2.322908	6.617806	4.133807	-0.589522	-0.146859	0.426141	-0.914795	0.202881	0.114990	0.107076	-0.071824	0.088010	0.169351	-0.566010	-0.038894	-0.805878	-19.909001	-67.735484	-142.828411
46323		16.863097	-11.448396	4.786861	-4.290154	8.156939	8.986165	-0.488312	-1.186655	-0.156906	-0.912354	0.198486	0.130615	0.168252	-0.114497	0.049147	0.167102	-0.571232	-0.038331	-0.802684	-20.585621	-68.411118	-142.406255
46324		17.218361	-9.751163	2.245119	-5.990260	5.946504	8.224815	0.523754	-0.903635	-0.495246	-0.914551	0.198486	0.130615	0.171838	-0.097997	0.022972	0.166433	-0.574396	-0.042563	-0.800349	-20.087835	-69.003364	-142.623665
46325		12.681468	-4.810440	5.983874	0.266436	3.310350	4.635049	0.664570	0.099868	0.335594	-0.912354	0.200684	0.130615	0.126925	-0.048090	0.059616	0.169704	-0.573579	-0.044132	-0.800163	-20.147534	-68.890142	-142.157271
46326		10.671102	-2.424212	7.447056	2.909018	1.850564	2.966995	0.409397	0.070797	1.023423	-0.908447	0.211914	0.126221	0.106860	-0.023848	0.074384	0.174984	-0.573245	-0.042733	-0.799340	-21.311814	-68.652713	-140.662018
46327		11.721941	-0.914512	6.193991	2.002202	-0.227865	3.322923	0.330539	-0.098496	0.992599	-0.909180	0.227295	0.135010	0.117233	-0.008666	0.061983	0.179874	-0.573623	-0.041252	-0.798060	-22.543480	-68.499101	-139.141094
46328		12.698312	0.394276	4.759287	0.910004	-2.139416	3.553239	0.544454	-0.016714	0.607689	-0.906982	0.225342	0.132813	0.126967	0.004199	0.047615	0.183854	-0.573400	-0.041656	-0.797292	-23.077569	-68.380688	-138.236870
46329		11.317964	0.429720	3.649171	0.307669	-2.166706	1.883813	0.683532	0.180661	0.196770	-0.913818	0.227295	0.126221	0.113208	0.004284	0.036404	0.186633	-0.572158	-0.043608	-0.797434	-22.868174	-68.247687	-138.046355
46330		10.829434	0.229812	3.516004	0.214150	-1.894319	1.414826	0.764278	0.511245	-0.070456	-0.911865	0.234131	0.128418	0.108385	0.002126	0.034891	0.188647	-0.569465	-0.046341	-0.798733	-22.082323	-68.000253	-138.426714
46331		10.119194	0.339451	3.053010	-0.044340	-1.935217	0.583763	0.604565	0.863687	-0.413728	-0.906738	0.220947	0.114990	0.101329	0.003094	0.030102	0.188912	-0.565411	-0.049076	-0.801383	-20.773335	-67.632678	-139.471872
46332		8.411677	0.820461	3.053143	0.516750	-1.925237	-1.050472	0.357216	0.977516	-0.806555	-0.915283	0.211914	0.108398	0.084297	0.007811	0.030134	0.186925	-0.561027	-0.051826	-0.804749	-19.084720	-67.271780	-141.083975
46333		6.570094	1.037261	3.230295	1.208855	-1.579880	-2.690989	0.148968	0.782246	-1.201749	-0.912598	0.203125	0.101807	0.065887	0.009953	0.032053	0.182704	-0.557485	-0.055022	-0.807962	-17.134318	-67.066656	-143.113177
46334		5.484581	1.074499	3.329019	1.574308	-1.278244	-3.631704	0.026111	0.553167	-1.349301	-0.920898	0.191650	0.099609	0.055008	0.010370	0.033140	0.177473	-0.554922	-0.058344	-0.810655	-15.180089	-66.985962	-145.224754
46335		4.840201	1.198396	3.276802	1.721858	-1.215511	-4.230716	-0.049418	0.463684	-1.362452	-0.920410	0.180664	0.093018	0.048558	0.011662	0.032653	0.171943	-0.552745	-0.061468	-0.813099	-13.295065	-66.927725	-147.309620
46336		4.503859	1.333858	3.364935	1.908219	-1.202716	-4.493051	-0.157852	0.403352	-1.335899	-0.924316	0.169434	0.088623	0.045194	0.013064	0.033548	0.166195	-0.550898	-0.064132	-0.815339	-11.535113	-66.875571	-149.326439
46337		4.506561	1.403677	3.320305	1.847790	-1.242783	-4.488717	-0.172305	0.330007	-1.301936	-0.923828	0.156006	0.093018	0.045211	0.013771	0.033117	0.160513	-0.549336	-0.066696	-0.817323	-9.854910	-66.835853	-151.266706
46338		4.992257	1.717053	3.137466	1.582300	-1.641275	-4.110338	-0.227562	0.282522	-1.250847	-0.925293	0.145020	0.088623	0.050073	0.016893	0.031285	0.154867	-0.548016	-0.068936	-0.819111	-8.290408	-66.798303	-153.115542
46339		5.331783	1.891451	2.871876	1.243149	-1.900038	-3.888395	-0.277662	0.271216	-1.190857	-0.927002	0.133789	0.088623	0.053468	0.018636	0.028620	0.149318	-0.546770	-0.070806	-0.820813	-6.842959	-66.742038	-154.869460
46340		5.838117	2.012129	2.729810	0.931526	-2.101773	-3.464565	-0.538680	0.233449	-1.048147	-0.929199	0.129395	0.084229	0.058518	0.019888	0.027176	0.143623	-0.545913	-0.071247	-0.822360	-5.746620	-66.684447	-156.404027
46341		5.264722	1.030177	2.398520	0.506082	-1.142146	-4.070672	-0.604960	0.117476	-0.859203	-0.930420	0.111572	0.084229	0.052705	0.010148	0.023923	0.138477	-0.545621	-0.070973	-0.823459	-4.958017	-66.671478	-157.645920
46342		5.709719	1.277640	2.545539	0.525305	-1.384418	-3.606207	-0.789739	0.049485	-0.776517	-0.937012	0.108887	0.093018	0.057153	0.012655	0.025391	0.133141	-0.545760	-0.069766	-0.824350	-4.391697	-66.689120	-158.760267
46343		6.225094	1.611081	2.289171	0.181987	-1.828955	-3.239302	-1.045561	0.096289	-0.708899	-0.934082	0.095703	0.090820	0.062319	0.016009	0.022778	0.127395	-0.545870	-0.067279	-0.825390	-4.057528	-66.672240	-159.782182
46344		6.638763	1.753925	1.649658	-0.531397	-2.165833	-3.112136	-1.150242	0.139495	-0.780149	-0.931885	0.093506	0.093018	0.066467	0.017374	0.016350	0.121080	-0.545831	-0.064532	-0.826586	-3.685592	-66.632371	-160.909942
46345		7.030518	1.936771	1.315300	-0.970907	-2.448881	-2.886699	-1.227951	0.227112	-0.779038	-0.931396	0.084717	0.086426	0.070395	0.019174	0.012955	0.114578	-0.545439	-0.061397	-0.828009	-3.357496	-66.538180	-162.039854
46346		7.318955	1.616556	1.244537	-1.279788	-2.166101	-2.643375	-1.352355	0.365275	-0.754408	-0.935547	0.080322	0.082031	0.073272	0.015972	0.012203	0.107876	-0.544531	-0.057605	-0.829777	-3.129121	-66.363436	-163.138961
46347		7.098289	1.086527	1.335593	-1.299596	-1.583512	-2.801748	-1.519194	0.461290	-0.789250	-0.935303	0.073486	0.079834	0.071056	0.010685	0.013110	0.100594	-0.543256	-0.053151	-0.831822	-2.956791	-66.131818	-164.283914
46348		6.586163	0.541859	1.752288	-0.905553	-0.890754	-3.094957	-1.585050	0.562214	-0.968639	-0.934814	0.064697	0.082031	0.065936	0.005237	0.017296	0.092406	-0.541510	-0.048865	-0.834170	-2.599000	-65.846766	-165.674474
46349		6.329977	0.363851	1.746475	-0.894926	-0.664676	-3.331312	-1.503709	0.494037	-1.020668	-0.934326	0.051514	0.077393	0.063361	0.003446	0.017282	0.084195	-0.539939	-0.045077	-0.836268	-2.153957	-65.596544	-167.113554
46350		6.979121	0.736827	1.678146	-1.187454	-1.073974	-2.776810	-1.541264	0.281080	-0.844911	-0.933838	0.044678	0.072998	0.069845	0.007202	0.016627	0.076564	-0.539278	-0.040752	-0.837649	-1.974185	-65.462892	-168.285946
46351		8.088321	0.063909	1.371598	-2.057704	-0.520845	-1.887996	-1.549224	0.171407	-0.722930	-0.940430	0.040039	0.079834	0.080897	0.000453	0.013643	0.069393	-0.539054	-0.036095	-0.838632	-1.963777	-65.387365	-169.279168
46352		9.285475	-0.488498	1.313975	-2.691512	-0.039438	-0.816061	-1.462474	-0.032558	-0.613724	-0.935791	0.035889	0.077393	0.092837	-0.005074	0.013192	0.062873	-0.539647	-0.031586	-0.838946	-2.048006	-65.428197	-170.112677
46353		10.121211	-1.455371	0.934401	-3.490811	0.852393	-0.194083	-1.404436	-0.168627	-0.502652	-0.939941	0.029053	0.075195	0.101167	-0.014742	0.009532	0.056949	-0.540767	-0.027051	-0.838806	-2.244160	-65.543912	-170.787217
46354		10.247323	-2.379749	0.905509	-3.640804	1.792282	-0.064725	-1.039969	-0.280745	-0.299964	-0.935059	0.024658	0.079834	0.102424	-0.023903	0.009323	0.052843	-0.542268	-0.023537	-0.838212	-2.488446	-65.721634	-171.177793
46355		10.554281	-1.929065	1.475931	-3.154046	1.391435	0.454167	-0.732951	-0.183720	-0.032504	-0.939453	0.024414	0.086426	0.105526	-0.019253	0.014927	0.050700	-0.543290	-0.020549	-0.837761	-2.892973	-65.835996	-171.200416
46356		10.858263	-1.110584	1.709198	-2.961211	0.570394	0.815694	-0.535864	0.103209	0.034781	-0.937500	0.029053	0.084229	0.108593	-0.011041	0.017066	0.049405	-0.543071	-0.018140	-0.838036	-3.250565	-65.785804	-171.149672
46357		11.751218	-1.150076	0.736673	-4.218312	0.463927	1.230278	-0.472816	0.178283	-0.038162	-0.933105	0.027100	0.079834	0.117517	-0.011506	0.007289	0.047980	-0.542501	-0.016165	-0.838528	-3.474886	-65.693403	-171.206480
46358		11.816001	-0.683670	0.182776	-4.706215	-0.033038	1.048668	-0.356237	-0.019049	-0.269096	-0.939453	0.022217	0.084229	0.118150	-0.006992	0.001851	0.045888	-0.542720	-0.015362	-0.838518	-3.352883	-65.723459	-171.568993
46359		11.594647	-0.798459	0.935372	-3.938380	0.192396	1.160016	-0.075559	-0.059630	-0.448320	-0.934814	0.020264	0.086426	0.115925	-0.008241	0.009391	0.043802	-0.543017	-0.016222	-0.838422	-2.845901	-65.779773	-172.178224
46360		13.119878	-0.789998	4.345363	-1.450068	0.404230	3.948533	0.031641	-0.073210	-0.365264	-0.934326	0.011230	0.086426	0.131168	-0.008146	0.043500	0.042354	-0.543364	-0.017318	-0.838249	-2.379816	-65.841349	-172.674027
46361		17.399334	-3.850721	8.985649	0.819737	3.615279	9.797602	-0.106697	-0.553163	-0.159442	-0.948242	0.017578	0.093018	0.173713	-0.038598	0.090358	0.041351	-0.545754	-0.017367	-0.836745	-2.279755	-66.170109	-172.856167
46362		21.988689	-8.505976	12.907309	2.304236	8.327453	15.639099	0.477430	-0.969701	0.340799	-0.937012	0.020020	0.097412	0.219403	-0.084995	0.129935	0.043998	-0.549810	-0.018590	-0.833923	-2.520693	-66.727194	-172.299719
46363		13.327355	-8.222995	10.399139	3.515935	8.343927	6.661369	0.741007	-0.224181	-0.011411	-0.940918	0.008789	0.108398	0.133152	-0.082622	0.103835	0.045969	-0.550641	-0.021706	-0.833193	-2.108285	-66.864169	-172.292158
46364		7.600352	-4.652089	7.944630	3.835167	5.021163	0.316453	1.433555	-0.355130	-1.244293	-0.938232	0.000000	0.108398	0.075569	-0.047560	0.079242	0.044695	-0.551707	-0.031137	-0.832257	0.369625	-67.088614	-174.097067
46365		8.624136	-3.572562	6.241805	1.978935	3.980712	0.498908	1.777678	-0.454431	-2.049256	-0.935059	-0.020020	0.117432	0.085724	-0.037160	0.062287	0.040998	-0.552895	-0.044232	-0.831065	4.190229	-67.310830	-177.142140
46366		5.862519	-3.519071	5.842631	2.659438	4.186385	-2.310310	2.170878	-0.491670	-1.742047	-0.939209	-0.026855	0.117432	0.058169	-0.036331	0.058179	0.039648	-0.554130	-0.058116	-0.829452	7.879138	-67.496546	-179.795519
46367		4.799110	0.487294	7.596700	5.151900	0.676275	-2.465860	1.845331	0.339225	-1.275131	-0.934082	-0.037598	0.117432	0.048147	0.003866	0.075924	0.039568	-0.552017	-0.069176	-0.830016	10.578354	-67.196566	178.419702
46368		6.607410	5.986855	11.492857	8.678538	-3.972670	1.163736	0.441768	1.465251	-0.760049	-0.938477	-0.042236	0.097412	0.067141	0.059361	0.114571	0.038138	-0.545643	-0.072766	-0.833981	11.443950	-66.299868	177.747950
46369		10.401296	7.988061	11.164689	6.980390	-5.955037	4.763131	-0.930884	0.795776	-0.083527	-0.933838	-0.044189	0.097412	0.104489	0.080354	0.110859	0.035538	-0.542528	-0.068905	-0.836453	10.807815	-65.852405	177.854687
46370		14.175531	8.897507	6.987978	1.790220	-7.536348	6.586664	-0.743776	-1.291702	0.290238	-0.936035	-0.044434	0.117432	0.141172	0.089442	0.070461	0.034288	-0.548221	-0.065186	-0.833084	10.309448	-66.620772	177.928596
46371		15.056119	9.522266	5.157685	0.000303	-8.496093	6.672953	-0.916805	-1.069670	0.381632	-0.936279	-0.040039	0.119629	0.150102	0.095747	0.051942	0.033014	-0.553009	-0.060448	-0.830323	9.514955	-67.271236	178.215493
46372		11.647604	5.199306	5.850295	1.482082	-4.216635	3.489524	-0.406122	-0.115118	-0.076414	-0.936279	-0.040039	0.119629	0.116462	0.052067	0.058464	0.031539	-0.553604	-0.058946	-0.830092	9.402448	-67.339363	178.080531
46373		10.271560	2.722992	6.813486	2.623755	-1.638228	2.425573	0.005851	-0.434835	-0.395368	-0.929199	-0.048828	0.126221	0.102621	0.027025	0.068359	0.029786	-0.555354	-0.060079	-0.828906	10.033532	-67.555785	177.395186
46374		10.955937	0.614681	5.897833	1.326696	0.388540	2.568077	-0.138841	-0.458229	-0.476593	-0.933594	-0.048828	0.130615	0.109438	0.005927	0.059225	0.027287	-0.557201	-0.060849	-0.827696	10.714408	-67.775096	176.568511
46375		11.982329	-1.271656	5.190930	0.122264	2.233140	3.115458	-0.347767	-0.280356	-0.463312	-0.939697	-0.060303	0.135010	0.119721	-0.012903	0.052100	0.024314	-0.558330	-0.060684	-0.827039	11.219012	-67.891438	175.802856
46376		11.090721	-1.901214	3.577081	-1.055644	2.654097	1.643990	-0.557810	-0.244521	-0.273167	-0.939941	-0.058105	0.132813	0.110837	-0.019063	0.035959	0.021553	-0.559396	-0.059123	-0.826509	11.337825	-68.008443	175.325238
46377		9.749065	-1.269761	3.002258	-0.995255	1.917745	0.237279	-0.597986	0.003584	-0.065809	-0.933105	-0.057861	0.137207	0.097487	-0.012640	0.030059	0.019608	-0.559488	-0.056780	-0.826659	11.075027	-68.008252	175.233536
46378		9.228704	-1.103084	2.608513	-1.152185	1.678733	-0.376353	-0.591950	0.279340	-0.062703	-0.935547	-0.055664	0.128418	0.092320	-0.010983	0.025989	0.017772	-0.558443	-0.054434	-0.827564	10.739702	-67.854526	175.224711
46379		9.027130	-1.476411	2.558273	-1.187334	2.020852	-0.608351	-0.342308	0.550733	0.086577	-0.933350	-0.053223	0.130615	0.090348	-0.014681	0.025359	0.017324	-0.556280	-0.052671	-0.829143	10.273285	-67.562437	175.511202
46380		7.852222	-1.772199	2.681909	-0.694371	2.267065	-1.665985	-0.104174	0.533833	0.297134	-0.942139	-0.058105	0.128418	0.078620	-0.017591	0.026619	0.018407	-0.554224	-0.051318	-0.830580	9.673795	-67.300911	176.091002
46381		6.907594	-2.006218	2.388759	-0.654642	2.410910	-2.656940	0.032230	0.379276	0.485433	-0.945068	-0.044678	0.121826	0.069170	-0.019898	0.023753	0.020609	-0.552833	-0.050016	-0.831535	8.943672	-67.140521	176.897269
46382		6.226846	-2.079605	2.323605	-0.483539	2.425651	-3.302716	0.240043	0.306912	0.668594	-0.945068	-0.042480	0.119629	0.062373	-0.020615	0.023116	0.024130	-0.551768	-0.049085	-0.832202	8.113589	-67.033637	177.942900
46383		5.659073	-2.008176	2.444857	-0.170974	2.320112	-3.761007	0.420057	0.292102	0.854103	-0.938965	-0.033447	0.119629	0.056712	-0.019891	0.024324	0.028914	-0.550770	-0.048386	-0.832752	7.148101	-66.941728	179.247684
46384		5.165501	-1.831176	2.709189	0.254808	2.131314	-4.088383	0.512239	0.284669	0.974629	-0.948242	-0.024902	0.115234	0.051782	-0.018129	0.026972	0.034452	-0.549811	-0.047744	-0.833211	6.086548	-66.854212	-179.284123
46385		4.831973	-1.713388	2.898253	0.546388	1.999415	-4.300233	0.525779	0.230017	1.042853	-0.939941	-0.013428	0.112793	0.048442	-0.016958	0.028882	0.040297	-0.549067	-0.046973	-0.833484	4.956496	-66.789404	-177.732828
46386		4.778478	-1.370131	2.852467	0.549105	1.615153	-4.341190	0.483463	0.105008	1.078565	-0.940674	0.002197	0.117432	0.047873	-0.013512	0.028467	0.046144	-0.548850	-0.045956	-0.833380	3.774262	-66.786503	-176.150158
46387		5.154270	-1.155255	2.517724	0.116232	1.308709	-4.110612	0.514388	-0.008828	1.041627	-0.943359	0.010986	0.115234	0.051601	-0.011349	0.025150	0.051893	-0.549064	-0.045189	-0.832943	2.665292	-66.833828	-174.628761
46388		5.338624	-0.711663	2.337500	-0.058653	0.798435	-3.996313	0.612263	-0.091426	0.988841	-0.943848	0.019775	0.117432	0.053410	-0.006924	0.023378	0.057672	-0.549575	-0.044999	-0.832236	1.682161	-66.917598	-173.183455
46389		5.175245	-0.381449	2.236437	-0.029204	0.429375	-4.178418	0.714145	-0.219841	0.976294	-0.948242	0.021729	0.119629	0.051746	-0.003642	0.022408	0.063647	-0.550559	-0.045297	-0.831133	0.766565	-67.064116	-171.749844
46390		5.080063	-0.417390	2.102425	-0.101929	0.420148	-4.315921	0.828888	-0.371837	0.942187	-0.944580	0.037598	0.119629	0.050781	-0.004022	0.021102	0.069759	-0.552117	-0.046218	-0.829557	-0.051893	-67.290364	-170.351809
46391		4.876104	-0.029570	2.034231	0.005704	0.015972	-4.529227	0.882439	-0.543586	0.900538	-0.947266	0.046143	0.132813	0.048706	-0.000166	0.020474	0.075804	-0.554326	-0.047529	-0.827477	-0.809372	-67.606460	-168.989798
46392		4.746504	0.031522	1.491400	-0.392751	-0.145053	-4.854955	0.852003	-0.665640	0.884797	-0.947510	0.052734	0.137207	0.047413	0.000461	0.015074	0.081666	-0.557029	-0.048806	-0.825026	-1.597385	-67.986863	-167.616630
46393		5.285950	-0.237690	0.778528	-1.252971	-0.073509	-4.613809	1.004963	-0.614117	0.853006	-0.941406	0.064209	0.143799	0.052845	-0.002191	0.007936	0.087831	-0.559412	-0.050774	-0.822658	-2.285890	-68.330388	-166.260169
46394		5.969253	-0.052749	0.434078	-1.739293	-0.410167	-4.100454	1.222099	-0.458850	0.767785	-0.941895	0.072998	0.145996	0.059684	-0.000325	0.004475	0.094289	-0.561018	-0.053808	-0.820654	-2.743896	-68.583404	-165.020176
46395		6.711939	-0.734883	0.630346	-1.941885	0.188090	-3.317992	1.354123	-0.341310	0.722059	-0.942383	0.083984	0.141602	0.067135	-0.007149	0.006369	0.100954	-0.562024	-0.057448	-0.818924	-3.068320	-68.766070	-163.844616
46396		7.796424	-1.589016	1.431708	-1.776507	1.040092	-1.994688	1.477882	-0.215823	0.706596	-0.942871	0.093018	0.148193	0.078005	-0.015720	0.014285	0.107934	-0.562423	-0.061575	-0.817459	-3.298970	-68.876715	-162.694384
46397		8.634394	-2.322019	2.100964	-1.646214	1.774498	-0.952688	1.505035	-0.146358	0.690351	-0.947510	0.094971	0.148193	0.086408	-0.023080	0.020899	0.114937	-0.562470	-0.065814	-0.816141	-3.490215	-68.945297	-161.570768
46398		9.283956	-2.984459	1.994186	-2.151158	2.276048	-0.364536	1.419759	-0.238619	0.708303	-0.938721	0.102051	0.148193	0.092921	-0.029657	0.019842	0.121737	-0.562920	-0.069706	-0.814519	-3.771670	-69.065699	-160.403289
46399		10.162816	-3.250039	1.348361	-3.107185	2.215004	0.242290	1.428261	-0.354912	0.697243	-0.941895	0.117432	0.159424	0.101717	-0.032242	0.013433	0.128466	-0.563790	-0.073726	-0.812528	-4.053853	-69.249572	-159.231289
46400		10.339369	-2.724521	0.436152	-3.820040	1.390697	0.086236	1.470302	-0.433315	0.677747	-0.939697	0.121826	0.159424	0.103476	-0.026927	0.004387	0.135198	-0.564915	-0.078020	-0.810251	-4.305676	-69.478538	-158.067408
46401		10.594911	-1.808984	-0.223339	-4.183186	0.239984	0.087685	1.512006	-0.442944	0.627568	-0.940186	0.130615	0.166016	0.106010	-0.017741	-0.002134	0.141830	-0.565981	-0.082623	-0.807913	-4.473004	-69.712283	-156.970123
46402		10.709419	-0.865539	0.133764	-3.559500	-0.620442	0.306768	1.497332	-0.300358	0.583975	-0.942871	0.137207	0.163818	0.107117	-0.008353	0.001435	0.148294	-0.566435	-0.087185	-0.805952	-4.576589	-69.867147	-155.950985
46403		10.683801	0.394157	0.545688	-2.723515	-1.722601	0.395721	1.246860	-0.122243	0.553199	-0.940674	0.141846	0.155029	0.106823	0.004203	0.005548	0.153994	-0.566301	-0.090686	-0.804590	-4.758658	-69.919352	-155.001880
46404		11.673075	1.632010	0.134689	-2.926763	-3.202156	1.147343	0.913629	0.062246	0.482160	-0.943359	0.148438	0.159424	0.116691	0.016595	0.001386	0.158543	-0.565639	-0.092904	-0.803919	-4.997787	-69.870071	-154.195226
46405		12.884975	2.166423	-0.439770	-3.595664	-4.118361	2.062475	0.707455	0.227517	0.337206	-0.950195	0.150391	0.159424	0.128808	0.021897	-0.004467	0.161999	-0.564386	-0.094569	-0.803916	-5.102389	-69.731370	-153.657412
46406		13.338141	2.721822	-0.099000	-3.239003	-4.630644	2.572382	0.380774	0.359160	0.175500	-0.949951	0.148193	0.155029	0.133355	0.027337	-0.001178	0.163944	-0.562798	-0.095271	-0.804552	-5.123312	-69.527285	-153.407736
46407		14.421914	2.868403	1.890336	-1.831741	-4.296572	4.257719	-0.054713	0.569455	-0.005835	-0.941162	0.150635	0.150391	0.144273	0.028685	0.018485	0.164033	-0.560618	-0.094557	-0.806139	-5.086468	-69.210757	-153.486165
46408		17.208139	4.454044	5.488406	0.908324	-5.035665	8.072963	-0.395911	0.673573	-0.191750	-0.950195	0.152588	0.148193	0.172307	0.044483	0.054216	0.162464	-0.558216	-0.092905	-0.808313	-4.957688	-68.845887	-153.872278
46409		20.234114	6.979818	9.465709	4.199436	-6.612197	12.241308	-1.017945	0.302313	-0.276961	-0.949951	0.145996	0.148193	0.202580	0.069997	0.093995	0.158637	-0.557755	-0.089273	-0.809799	-5.112224	-68.695429	-154.337777
46410		15.734659	6.353638	8.464690	4.475532	-5.733278	7.700078	-1.734224	-0.002163	-0.567862	-0.953857	0.134766	0.145996	0.157527	0.063820	0.084096	0.151491	-0.558945	-0.083794	-0.810931	-5.291728	-68.736121	-155.216579
46411		11.259761	4.583197	7.890659	4.764390	-3.688941	3.368370	-2.039406	0.204823	-0.344604	-0.949707	0.141602	0.145996	0.112758	0.046438	0.078320	0.144469	-0.559555	-0.076284	-0.812532	-5.944527	-68.646772	-155.775703
46412		8.710494	4.217078	7.610981	5.218538	-3.238454	0.857714	-2.055867	-0.056361	0.895809	-0.952393	0.148193	0.159424	0.086891	0.043340	0.075693	0.142323	-0.561656	-0.065424	-0.812408	-8.452040	-68.624227	-154.352922
46413		6.602666	3.933939	6.183223	4.569120	-3.236742	-1.691981	-2.117731	-0.302519	1.096128	-0.948242	0.154785	0.161621	0.065714	0.040353	0.061508	0.140717	-0.564779	-0.053908	-0.811368	-11.344281	-68.694758	-152.556089
46414		6.590028	0.629153	6.663259	4.093253	-0.129226	-1.359876	-1.385280	-0.301425	0.849639	-0.944092	0.163818	0.168213	0.065771	0.007033	0.066685	0.140165	-0.567265	-0.046062	-0.810211	-13.473993	-68.768001	-151.127258
46415		6.065958	-3.703972	7.989544	4.296526	4.306474	-1.018287	-0.485277	0.035851	0.786200	-0.944092	0.163818	0.170410	0.060818	-0.036607	0.079974	0.141979	-0.567703	-0.041794	-0.809820	-14.880194	-68.645060	-149.922037
46416		7.532949	-5.680725	9.831230	4.985279	6.271543	1.209255	-0.348848	0.054212	0.509480	-0.946533	0.166016	0.166016	0.075500	-0.056443	0.098391	0.143062	-0.567913	-0.038860	-0.809628	-15.797548	-68.546645	-149.156282
46417		12.510037	-8.327097	7.778671	0.923982	7.337509	5.407493	-1.035220	-0.451893	0.175098	-0.944580	0.174805	0.177002	0.124996	-0.082756	0.078498	0.140740	-0.570576	-0.034448	-0.808362	-16.844506	-68.774015	-148.674649
46418		17.068897	-12.024302	2.876585	-5.751724	8.967248	8.372674	-0.214254	-1.188408	-0.142972	-0.948975	0.172363	0.190430	0.170428	-0.120333	0.029908	0.139344	-0.575571	-0.034786	-0.805041	-17.307729	-69.457369	-148.315305
46419		14.848726	-8.244257	3.968232	-2.992572	6.055072	6.267719	0.784399	-0.236006	-0.208199	-0.948730	0.165771	0.190430	0.148355	-0.082752	0.039533	0.140720	-0.576001	-0.038661	-0.804317	-16.680540	-69.628557	-148.510588
46420		11.357857	-3.764023	7.501883	2.448701	3.211282	3.720169	0.611859	0.271980	0.416020	-0.942383	0.177002	0.192627	0.113759	-0.037633	0.074749	0.144206	-0.574630	-0.039690	-0.804630	-16.843473	-69.419028	-147.967752
46421		10.428496	-0.669354	7.508494	3.570738	0.389140	2.543571	0.248580	-0.000311	0.764645	-0.940674	0.183838	0.190430	0.104310	-0.006388	0.075077	0.147994	-0.574667	-0.038447	-0.803976	-17.833364	-69.295597	-146.763317
46422		12.221537	0.853757	5.944339	2.080606	-1.832334	3.519345	0.286687	-0.246716	0.737059	-0.943359	0.192627	0.183594	0.122110	0.008902	0.059607	0.151731	-0.575660	-0.037622	-0.802607	-18.870771	-69.304947	-145.484090
46423		12.451590	1.333844	4.326117	0.724897	-2.763176	3.124687	0.347596	-0.157246	0.498564	-0.940918	0.192627	0.192627	0.124448	0.013573	0.043382	0.154700	-0.576187	-0.037655	-0.801660	-19.486717	-69.302961	-144.618324
46424		10.886362	0.595982	3.607461	0.321907	-1.935725	1.502399	0.340172	0.129918	0.138572	-0.938721	0.192871	0.190430	0.108883	0.005974	0.036014	0.156259	-0.575505	-0.038478	-0.801808	-19.447254	-69.214335	-144.457407
46425		10.123525	0.031030	3.582636	0.329578	-1.251602	0.847835	0.360958	0.346013	-0.003551	-0.943359	0.197021	0.185791	0.101297	0.000244	0.035652	0.157348	-0.573902	-0.039620	-0.802688	-19.086333	-69.034611	-144.627912
46426		9.787586	-0.041090	3.193806	0.000533	-1.205089	0.412100	0.277159	0.621290	-0.183205	-0.943359	0.194824	0.181396	0.097974	-0.000545	0.031633	0.157530	-0.571228	-0.040729	-0.804503	-18.396454	-68.739354	-145.202463
46427		8.407155	-0.027351	3.134795	0.291139	-0.931123	-0.893290	0.111625	0.725529	-0.533682	-0.945801	0.197021	0.177002	0.084183	-0.000515	0.031042	0.155847	-0.568176	-0.042086	-0.806918	-17.286758	-68.444234	-146.331285
46428		6.908620	0.299696	3.053322	0.708990	-0.920650	-2.343355	-0.011044	0.518319	-0.879574	-0.947266	0.181396	0.174805	0.069177	0.002695	0.030354	0.152373	-0.565978	-0.044096	-0.809016	-15.881896	-68.311823	-147.854506
46429		6.023192	0.485353	2.929247	0.882404	-0.903347	-3.217248	-0.066130	0.291860	-1.122700	-0.953369	0.170166	0.168213	0.060301	0.004525	0.029203	0.147706	-0.564660	-0.046738	-0.810653	-14.268518	-68.324874	-149.637077
46430		5.285936	0.654633	2.890174	1.097363	-0.881372	-3.918504	-0.134742	0.165903	-1.259611	-0.952637	0.156982	0.166016	0.052923	0.006233	0.028854	0.142255	-0.563859	-0.049584	-0.812015	-12.539825	-68.408434	-151.584956
46431		4.904993	0.667910	2.667600	0.996705	-0.828073	-4.340783	-0.175881	0.095640	-1.261352	-0.954346	0.143555	0.172607	0.049104	0.006393	0.026647	0.136657	-0.563340	-0.052311	-0.813164	-10.839012	-68.508771	-153.527398
46432		4.886174	0.650059	2.617356	0.930012	-0.771517	-4.364069	-0.213757	0.078793	-1.153825	-0.962891	0.136719	0.170410	0.048909	0.006246	0.026148	0.131381	-0.562932	-0.054597	-0.814166	-9.303354	-68.588955	-155.314014
46433		5.161879	0.750563	2.518476	0.755412	-0.889757	-4.139192	-0.276263	0.103314	-1.048768	-0.958008	0.127930	0.168213	0.051670	0.007270	0.025148	0.126359	-0.562467	-0.056309	-0.815165	-7.940796	-68.628369	-156.952957
46434		5.083673	0.589722	2.297415	0.518686	-0.735586	-4.275599	-0.303787	0.080034	-0.974694	-0.959717	0.116699	0.170410	0.050874	0.005684	0.022945	0.121552	-0.562127	-0.057720	-0.816031	-6.700538	-68.663295	-158.476549
46435		5.152141	0.574981	2.110960	0.306791	-0.736457	-4.272408	-0.404864	0.024624	-0.927434	-0.961426	0.107666	0.172607	0.051550	0.005554	0.021092	0.116634	-0.562066	-0.058611	-0.816727	-5.591998	-68.714235	-159.921030
46436		4.925640	0.062600	1.730094	-0.101859	-0.266418	-4.599470	-0.486761	-0.034817	-0.810663	-0.961182	0.101074	0.170410	0.049255	0.000468	0.017308	0.111943	-0.562325	-0.058880	-0.817186	-4.702359	-68.785189	-161.179790
46437		4.814019	-0.060552	1.627181	-0.193134	-0.127593	-4.736023	-0.508627	-0.009586	-0.781225	-0.965088	0.089844	0.177002	0.048137	-0.000752	0.016276	0.107316	-0.562481	-0.058954	-0.817694	-3.860606	-68.832310	-162.400727
46438		5.240641	0.501901	1.698670	-0.150593	-0.677566	-4.324532	-0.665281	0.138461	-0.766635	-0.960449	0.085449	0.172607	0.052437	0.004874	0.016934	0.102348	-0.562114	-0.058273	-0.818631	-3.114040	-68.789375	-163.615196
46439		5.478692	1.023004	1.614065	-0.212674	-1.202880	-4.140339	-0.779652	0.265168	-0.759241	-0.962402	0.081055	0.172607	0.054847	0.010085	0.016028	0.097124	-0.561266	-0.057030	-0.819936	-2.442239	-68.667044	-164.821063
46440		5.963160	1.221761	1.598596	-0.388658	-1.422864	-3.694543	-0.845125	0.387210	-0.780159	-0.970703	0.069824	0.166016	0.059710	0.012052	0.015819	0.091661	-0.559932	-0.055523	-0.821579	-1.782437	-68.471438	-166.054970
46441		6.631766	1.373487	1.755573	-0.499265	-1.575398	-3.014351	-0.956897	0.458738	-0.796709	-0.967773	0.054199	0.161621	0.066412	0.013554	0.017338	0.085834	-0.558320	-0.053562	-0.823434	-1.179725	-68.228914	-167.298896
46442		6.809756	1.421128	2.042865	-0.347854	-1.559038	-2.740648	-1.141124	0.473078	-0.865098	-0.967529	0.047607	0.157227	0.068206	0.014032	0.020187	0.079210	-0.556690	-0.051031	-0.825360	-0.603969	-67.975313	-168.628939
46443		6.650924	1.734652	2.387170	0.023144	-1.775125	-2.756454	-1.328560	0.442380	-0.911215	-0.969238	0.041016	0.155029	0.066640	0.017201	0.023610	0.071862	-0.555205	-0.047857	-0.827220	-0.093689	-67.733537	-170.007312
46444		6.820949	2.371653	2.553141	0.158322	-2.374801	-2.532337	-1.456469	0.312043	-0.817201	-0.973389	0.029785	0.159424	0.068346	0.023622	0.025253	0.064511	-0.554297	-0.043944	-0.828651	0.197059	-67.564090	-171.228765
46445		7.227707	2.542687	2.496787	-0.080502	-2.569893	-2.175421	-1.490188	0.209508	-0.693402	-0.968506	0.025391	0.150391	0.072391	0.025361	0.024703	0.057552	-0.553804	-0.039571	-0.829712	0.286776	-67.450933	-172.255614
46446		8.358079	2.238008	2.365756	-0.728908	-2.337588	-1.183257	-1.503109	0.217905	-0.616147	-0.963623	0.016602	0.148193	0.083675	0.022299	0.023399	0.050876	-0.553266	-0.034934	-0.830715	0.259264	-67.334166	-173.163431
46447		9.017991	1.273449	2.126860	-1.364571	-1.423713	-0.670466	-1.434279	0.156934	-0.618622	-0.967773	0.010010	0.145996	0.090236	0.012607	0.021107	0.044366	-0.552920	-0.030593	-0.831490	0.268877	-67.251180	-174.070325
46448		9.830952	-0.052386	1.567427	-2.347444	-0.162150	-0.139516	-1.367253	-0.083669	-0.652674	-0.969727	0.000977	0.152832	0.098301	-0.000737	0.015720	0.037860	-0.553528	-0.026687	-0.831541	0.366826	-67.306821	-175.030449
46449		10.683108	-1.432013	0.713476	-3.561315	1.161666	0.319222	-1.166090	-0.297068	-0.624578	-0.962891	-0.000977	0.159424	0.106775	-0.014611	0.007378	0.031997	-0.554953	-0.023569	-0.830932	0.546810	-67.482752	-175.954768
46450		11.716716	-2.759619	0.000510	-4.669689	2.460645	1.005618	-0.725266	-0.276228	-0.412074	-0.971191	-0.012451	0.155029	0.117110	-0.027837	0.000268	0.028242	-0.556235	-0.021698	-0.830261	0.694925	-67.648303	-176.569236
46451		12.388453	-2.808153	0.759501	-4.191855	2.576360	1.923027	-0.573140	-0.036108	-0.121218	-0.964600	-0.007813	0.157227	0.123866	-0.028135	0.007698	0.026143	-0.556515	-0.019606	-0.830195	0.521418	-67.676841	-176.742306
46452		12.040436	-2.671938	1.235402	-3.603822	2.474214	1.785945	-0.467860	0.172307	0.087527	-0.964355	-0.012207	0.155029	0.120427	-0.026638	0.012313	0.025223	-0.555941	-0.017352	-0.830658	0.117506	-67.588339	-176.600149
46453		11.925907	-1.936514	0.890925	-3.840334	1.707358	1.549876	-0.321931	0.141105	0.080462	-0.962402	-0.010010	0.150391	0.119273	-0.019303	0.008856	0.024677	-0.555465	-0.015718	-0.831025	-0.193262	-67.516006	-176.469110
46454		13.096078	-1.392961	1.675217	-3.542431	1.173880	2.928078	-0.037168	0.125904	-0.040730	-0.966553	-0.014404	0.155029	0.130968	-0.013953	0.016672	0.024416	-0.555017	-0.015614	-0.831334	-0.170671	-67.453950	-176.521442
46455		14.704863	-1.221318	2.811311	-3.100270	1.038289	4.848087	0.164290	-0.101952	-0.125861	-0.967041	-0.007813	0.152832	0.147027	-0.012329	0.028178	0.024344	-0.555474	-0.016603	-0.831011	0.082511	-67.520964	-176.699248
46456		19.516888	-3.386649	7.801338	-0.446825	3.393807	11.199726	0.655873	-0.170017	0.100771	-0.964844	-0.005615	0.159424	0.195120	-0.034024	0.078068	0.026572	-0.556181	-0.019022	-0.830418	0.306229	-67.628693	-176.539605
46457		20.783721	-4.605665	10.695642	1.721848	4.747153	13.469724	0.662287	-0.577102	0.615724	-0.962646	-0.001221	0.163818	0.207669	-0.045772	0.107404	0.030917	-0.558603	-0.020081	-0.828615	-0.192863	-67.968258	-175.596326
46458		14.194149	-4.601337	10.189641	3.765372	4.865838	7.176147	0.710595	-0.144189	0.578315	-0.965088	0.000977	0.157227	0.142001	-0.045965	0.101835	0.035285	-0.559218	-0.021383	-0.827993	-0.621628	-68.058586	-174.699861
46459		9.778623	-4.545771	8.317941	3.662091	4.885204	2.360876	1.098262	-0.149926	-0.511479	-0.965088	0.000977	0.163818	0.097607	-0.046164	0.083000	0.036223	-0.559644	-0.027332	-0.827490	0.721933	-68.152783	-175.475295
46460		8.862653	-4.419895	6.840289	2.610169	4.846075	0.890989	1.605941	-0.148974	-1.467623	-0.970947	-0.017090	0.170410	0.088246	-0.045395	0.068107	0.034624	-0.559810	-0.038058	-0.827022	3.736458	-68.215496	-177.736319
46461		6.407084	-3.084043	4.720110	1.654905	3.537151	-2.223978	1.965673	-0.277211	-1.230372	-0.963867	-0.023438	0.170410	0.063812	-0.031696	0.046981	0.034984	-0.560409	-0.049621	-0.825988	6.646885	-68.318770	-179.662584
46462		5.224187	0.199260	5.273195	2.938171	0.499888	-3.011662	1.784910	0.324780	-0.931284	-0.970215	-0.030273	0.166016	0.052334	0.001279	0.052661	0.036218	-0.558570	-0.059492	-0.826528	8.916995	-68.072477	178.988659
46463		5.427870	2.548189	9.132180	6.630491	-1.165939	-1.208855	0.865577	1.354433	-0.674399	-0.968262	-0.027832	0.157227	0.054981	0.024903	0.091060	0.036248	-0.552660	-0.064651	-0.830104	10.018527	-67.252531	178.328337
46464		7.207381	4.183673	9.143939	6.066337	-2.691302	0.628405	0.068146	0.799143	-0.492853	-0.970215	-0.030029	0.148193	0.072541	0.041627	0.091164	0.034648	-0.549240	-0.066100	-0.832325	10.510425	-66.761965	177.831175
46465		9.528421	7.151905	7.172268	3.712193	-5.859597	2.239974	-0.222855	-0.431956	-0.303988	-0.969971	-0.034668	0.150391	0.095238	0.071454	0.071849	0.032628	-0.551040	-0.066027	-0.831223	10.880331	-66.981975	177.284438
46466		12.987607	8.414683	5.458116	1.013712	-7.282614	4.857392	-0.260322	-0.750734	-0.101515	-0.963135	-0.038818	0.159424	0.129713	0.084152	0.054959	0.031240	-0.554237	-0.065298	-0.829205	11.052444	-67.403376	176.930846
46467		13.758107	6.750719	4.827860	0.007450	-5.720579	5.201990	-0.159592	-0.422250	0.188844	-0.965820	-0.027832	0.157227	0.137415	0.067676	0.048515	0.031441	-0.556138	-0.064124	-0.828015	10.804245	-67.670581	177.094844
46468		10.401583	3.101163	5.784046	1.752311	-2.047853	2.187353	0.091893	-0.199413	-0.010458	-0.963623	-0.030029	0.168213	0.103960	0.030980	0.057958	0.031588	-0.557019	-0.064517	-0.827387	10.915083	-67.791810	177.027110
46469		9.543514	1.192265	6.429980	2.460418	-0.061504	1.491612	0.139495	-0.287839	-0.259939	-0.968018	-0.032471	0.172607	0.095358	0.011754	0.064445	0.030807	-0.558168	-0.065809	-0.826540	11.421960	-67.933917	176.560563
46470		9.976348	0.211602	5.574088	1.419919	0.824179	1.498688	-0.040534	-0.269257	-0.198959	-0.965576	-0.032227	0.166016	0.099690	0.002028	0.055875	0.029782	-0.559293	-0.066191	-0.825786	11.743451	-68.072265	176.183971
46471		10.397944	-0.731376	3.962690	-0.304479	1.540237	1.227689	-0.196540	-0.246684	0.097636	-0.963379	-0.034424	0.168213	0.103934	-0.007224	0.039762	0.029552	-0.560437	-0.065088	-0.825106	11.554745	-68.231165	176.260349
46472		9.673824	-0.788171	3.014533	-0.890487	1.413366	0.212316	-0.328035	-0.105142	0.428293	-0.965820	-0.027832	0.172607	0.096739	-0.007625	0.030209	0.030364	-0.561129	-0.062502	-0.824807	10.782715	-68.347878	176.884175
46473		9.390171	-0.755927	2.323462	-1.420924	1.229498	-0.293536	-0.354475	0.334634	0.435514	-0.970703	-0.019043	0.166016	0.093957	-0.007314	0.023091	0.031268	-0.560001	-0.059713	-0.825746	9.865872	-68.213093	177.646857
46474		8.882013	-0.877811	2.923024	-0.735871	1.365015	-0.549892	-0.184123	0.725895	0.550378	-0.966309	-0.019043	0.159424	0.088949	-0.008507	0.028915	0.033241	-0.557263	-0.057250	-0.827693	8.811755	-67.863912	178.664784
46475		7.485238	-1.089864	3.272876	0.035000	1.547884	-1.717586	-0.070102	0.607525	0.689431	-0.973633	-0.008057	0.145996	0.074988	-0.010629	0.032505	0.036071	-0.555017	-0.054882	-0.829242	7.683487	-67.585109	179.835004
46476		6.492049	-1.553219	3.121628	0.182237	1.929386	-2.702999	0.042354	0.456920	0.789726	-0.969482	-0.001221	0.148193	0.065052	-0.015282	0.031065	0.039588	-0.553399	-0.052735	-0.830302	6.535662	-67.391305	-178.901222
46477		6.170942	-1.844877	2.964450	0.096976	2.147318	-3.056108	0.135717	0.381069	0.838898	-0.967773	0.010010	0.143799	0.061842	-0.018210	0.029514	0.043546	-0.552071	-0.050848	-0.831105	5.403036	-67.233045	-177.594971
46478		6.182481	-1.500311	3.184549	0.314064	1.782853	-2.932435	0.149136	0.310393	0.870367	-0.970703	0.023193	0.139404	0.061939	-0.014757	0.031738	0.047653	-0.551037	-0.048948	-0.831680	4.260902	-67.107719	-176.268142
46479		6.276922	-0.654835	3.255899	0.442082	0.894940	-2.781845	0.017935	0.172012	0.975442	-0.975586	0.029785	0.137207	0.062828	-0.006245	0.032504	0.051800	-0.550615	-0.046241	-0.831866	2.923979	-67.053154	-174.811131
46480		6.217102	0.227911	2.967258	0.327972	-0.083245	-2.928359	-0.223833	-0.037918	1.066318	-0.971680	0.043213	0.139404	0.062152	0.002644	0.029682	0.055610	-0.551142	-0.042335	-0.831479	1.340890	-67.107334	-173.236756
46481		6.672735	-0.460403	2.213585	-0.614887	0.409935	-2.806203	-0.109489	-0.129364	0.943551	-0.967773	0.052246	0.130615	0.066734	-0.004277	0.022181	0.059204	-0.551970	-0.039262	-0.830832	-0.017234	-67.196295	-171.836730
46482		6.692951	0.100991	2.160440	-0.574423	-0.212193	-2.805687	-0.017744	-0.098299	0.797650	-0.968262	0.061035	0.135010	0.066914	0.001279	0.021637	0.062449	-0.552609	-0.036968	-0.830275	-1.131281	-67.257607	-170.644704
46483		6.379431	-0.156462	1.866619	-0.745249	-0.019522	-3.205872	0.190929	-0.130700	0.608409	-0.968750	0.072266	0.135010	0.063787	-0.001388	0.018706	0.065479	-0.553268	-0.036068	-0.829642	-1.874679	-67.331768	-169.725915
46484		6.419481	0.411562	2.197054	-0.359410	-0.567069	-3.048415	0.322805	-0.136732	0.438994	-0.973145	0.072021	0.141602	0.064171	0.004221	0.022021	0.068169	-0.553880	-0.036190	-0.829012	-2.314206	-67.410357	-169.054537
46485		6.390052	-0.149545	2.222418	-0.397652	-0.022586	-3.057274	0.359423	-0.137498	0.319020	-0.973389	0.076416	0.139404	0.063888	-0.001434	0.022265	0.070463	-0.554449	-0.036791	-0.828413	-2.571818	-67.489647	-168.558252
46486		6.593422	-0.805754	2.124980	-0.655643	0.588735	-2.894486	0.385396	-0.164275	0.195985	-0.970947	0.072021	0.143799	0.065925	-0.008034	0.021288	0.072314	-0.555102	-0.037855	-0.827767	-2.647619	-67.588029	-168.242469
46487		6.930893	-1.421234	1.830402	-1.142171	1.125267	-2.682697	0.400433	-0.156263	0.124569	-0.969482	0.085449	0.135010	0.069303	-0.014206	0.018330	0.073911	-0.555693	-0.039172	-0.827169	-2.617292	-67.682546	-168.032798
46488		7.284771	-1.789628	1.490360	-1.639876	1.406141	-2.476108	0.437745	-0.139272	0.201456	-0.967041	0.083252	0.137207	0.072855	-0.017856	0.014915	0.075934	-0.556219	-0.040427	-0.826571	-2.672083	-67.766421	-167.707763
46489		7.104825	-2.137583	1.272160	-1.829261	1.713005	-2.714409	0.575420	-0.149357	0.463822	-0.969727	0.092041	0.141602	0.071088	-0.021248	0.012713	0.079421	-0.556774	-0.041520	-0.825815	-3.019420	-67.847039	-166.982185
46490		6.128760	-2.427794	1.380039	-1.423106	2.071665	-3.564224	0.830376	-0.286951	0.605809	-0.965332	0.096680	0.141602	0.061341	-0.024149	0.013788	0.084174	-0.557822	-0.043329	-0.824544	-3.436644	-68.001135	-166.023816
46491		6.752713	-2.660910	1.648336	-1.449316	2.265100	-2.872560	1.036765	-0.365629	0.529225	-0.970459	0.107666	0.148193	0.067567	-0.026516	0.016469	0.089166	-0.559064	-0.046230	-0.823019	-3.644082	-68.199793	-165.165635
46492		7.650702	-2.742484	1.913202	-1.547417	2.290955	-1.934121	1.141226	-0.359064	0.408031	-0.972656	0.105225	0.145996	0.076529	-0.027378	0.019113	0.093951	-0.560191	-0.049897	-0.821504	-3.625594	-68.399770	-164.487131
46493		8.525952	-2.857790	2.053024	-1.759113	2.332593	-1.064074	1.232397	-0.302545	0.400596	-0.966553	0.116699	0.143799	0.085286	-0.028533	0.020483	0.098970	-0.561010	-0.053929	-0.820100	-3.544660	-68.566710	-163.820716
46494		9.475537	-2.592046	1.680564	-2.377262	1.884835	-0.319280	1.389722	-0.285704	0.475434	-0.966553	0.121094	0.152588	0.094793	-0.025812	0.016761	0.104737	-0.561683	-0.058386	-0.818617	-3.486254	-68.722916	-163.033898
46495		10.317778	-1.642510	1.027328	-3.029382	0.699662	0.214421	1.538938	-0.339029	0.609851	-0.960449	0.132324	0.148193	0.103210	-0.016190	0.010323	0.111451	-0.562490	-0.063099	-0.816824	-3.551858	-68.903645	-162.023455
46496		10.247430	-0.617276	0.383075	-3.299771	-0.484284	-0.095993	1.694213	-0.312014	0.727197	-0.963135	0.138916	0.145996	0.102490	-0.005833	0.003940	0.119081	-0.563103	-0.068097	-0.814922	-3.710323	-69.065245	-160.819295
46497		9.307542	0.916987	0.989418	-1.972598	-1.755469	-0.786232	1.635447	-0.272929	0.812040	-0.954590	0.150391	0.141602	0.093024	0.009466	0.010098	0.126894	-0.563562	-0.072587	-0.813035	-4.035787	-69.198106	-159.473729
46498		8.918659	2.894261	1.588952	-0.672370	-3.485915	-0.990000	0.776484	-0.252110	0.776830	-0.961914	0.158936	0.141602	0.089053	0.029226	0.016115	0.132144	-0.564446	-0.073667	-0.811487	-4.810080	-69.317387	-158.175517
46499		10.303692	1.856189	0.571920	-2.297931	-2.990725	-0.029362	0.336159	-0.079124	0.483872	-0.966553	0.163330	0.141602	0.102989	0.018801	0.005791	0.135023	-0.564790	-0.073671	-0.810773	-5.377901	-69.346090	-157.368347
46500		11.940690	1.725799	-0.039301	-3.398679	-3.291404	1.285761	0.541283	0.141970	0.265919	-0.962402	0.167969	0.137207	0.119384	0.017418	-0.000431	0.137679	-0.564024	-0.074974	-0.810741	-5.467171	-69.260283	-156.946785
46501		12.907383	1.889564	-0.039492	-3.647735	-3.609952	2.180424	0.426481	-0.044935	0.238551	-0.960205	0.170166	0.143799	0.129051	0.019050	-0.000325	0.139829	-0.564069	-0.076015	-0.810244	-5.606703	-69.280847	-156.541891
46502		13.921036	1.677128	1.852058	-2.323434	-3.046406	3.801975	0.150114	-0.139880	0.287838	-0.960449	0.177002	0.137207	0.139173	0.016958	0.018631	0.141362	-0.564720	-0.075866	-0.809538	-5.995086	-69.353586	-156.040138
46503		17.364637	2.937714	4.763779	-0.426172	-3.966651	7.990061	-0.305855	0.200477	0.320266	-0.958008	0.172607	0.137207	0.173647	0.029728	0.047418	0.141867	-0.564314	-0.073536	-0.809948	-6.637490	-69.227289	-155.546269
46504		20.464775	4.827477	6.861444	1.033760	-5.743075	11.521264	-0.692480	0.095929	0.463876	-0.967529	0.183350	0.135010	0.204568	0.048986	0.068348	0.141823	-0.564663	-0.069313	-0.810085	-7.728532	-69.149154	-154.808771
46505		15.885278	4.637242	6.593566	2.188132	-5.077198	7.121118	-1.058660	0.261685	0.197555	-0.965332	0.183350	0.130615	0.158893	0.046877	0.065481	0.139720	-0.564483	-0.064234	-0.810994	-8.591109	-68.992571	-154.540250
46506		12.313465	3.061482	7.283781	3.415414	-2.960066	4.102003	-1.236870	0.686358	-0.155217	-0.956299	0.181641	0.124023	0.123407	0.030967	0.072224	0.135815	-0.562580	-0.059136	-0.813364	-8.936962	-68.626975	-154.934477
46507		10.929837	2.628065	7.815869	4.155829	-2.343793	3.020424	-1.312650	0.462375	0.546730	-0.958740	0.183594	0.119629	0.109405	0.027091	0.077730	0.134477	-0.561805	-0.051898	-0.814615	-10.378107	-68.321015	-154.199362
46508		8.782199	3.254830	7.234206	4.507393	-2.931968	0.729496	-1.623228	0.114989	1.042085	-0.959473	0.199219	0.128418	0.087690	0.033591	0.072022	0.134184	-0.562752	-0.042240	-0.814568	-12.758814	-68.145908	-152.642381
46509		6.806773	1.907916	6.577710	4.235118	-1.621388	-1.287932	-1.399855	-0.271693	0.871898	-0.961914	0.205811	0.130615	0.067893	0.019836	0.065732	0.133734	-0.565030	-0.034220	-0.813441	-14.884386	-68.185080	-151.222206
46510		6.352612	-1.030198	7.847809	4.837649	1.427918	-1.005748	-0.773700	-0.286171	0.799118	-0.959961	0.212402	0.128418	0.063453	-0.009744	0.078607	0.134746	-0.566916	-0.028968	-0.812164	-16.561049	-68.227529	-149.898881
46511		6.538046	-3.816717	8.952303	5.125996	4.210483	-0.145596	-0.187392	-0.086015	0.795539	-0.956299	0.226074	0.126221	0.065493	-0.037823	0.089587	0.137432	-0.567569	-0.025963	-0.811359	-17.813863	-68.146908	-148.670712
46512		8.552318	-5.606125	8.605164	3.735851	5.397634	1.828962	-0.291861	0.101043	0.579237	-0.956299	0.228271	0.121826	0.085728	-0.055688	0.086090	0.138966	-0.567508	-0.023027	-0.811229	-18.739586	-67.996095	-147.858107
46513		12.132376	-8.859887	5.951457	-0.575751	7.210934	4.636569	-0.621656	-0.463770	0.533659	-0.958740	0.232422	0.135010	0.121420	-0.088089	0.060070	0.139312	-0.569944	-0.019267	-0.809558	-20.053110	-68.151939	-146.831736
46514		13.580169	-10.737148	3.164421	-3.936962	8.164653	5.272365	0.106796	-0.794876	-0.031904	-0.940918	0.232910	0.145996	0.135658	-0.107410	0.032126	0.139410	-0.573155	-0.020302	-0.807246	-20.367587	-68.593522	-146.432847
46515		12.360650	-6.569824	4.960295	-0.843917	4.779457	4.222885	0.697238	-0.152095	0.078267	-0.958740	0.232422	0.132813	0.123595	-0.065822	0.049468	0.141708	-0.573354	-0.022952	-0.806633	-20.175087	-68.666374	-146.216166
46516		10.132730	-2.484390	7.239119	2.938491	1.756996	2.415447	0.549246	0.146602	0.681394	-0.952637	0.243896	0.132813	0.101465	-0.024697	0.072249	0.146046	-0.572522	-0.023067	-0.806447	-20.740195	-68.459004	-145.276406
46517		10.528791	-0.275279	6.882078	3.069989	-0.563406	2.375487	0.369152	-0.047390	0.878238	-0.952881	0.250488	0.130615	0.105283	-0.002418	0.068841	0.150638	-0.572606	-0.022030	-0.805572	-21.759470	-68.308453	-143.958121
46518		11.449521	0.968876	5.356796	1.768099	-2.322821	2.524389	0.457250	-0.209486	0.732203	-0.948975	0.259521	0.135010	0.114403	0.009985	0.053710	0.154871	-0.573256	-0.021891	-0.804309	-22.610168	-68.268671	-142.765936
46519		10.952389	0.838775	3.964103	0.638011	-2.413234	1.595279	0.540463	-0.061582	0.331783	-0.951416	0.263916	0.128418	0.109498	0.008462	0.039698	0.157748	-0.573186	-0.023116	-0.803766	-22.796924	-68.234202	-142.237076
46520		9.902639	0.184915	3.783051	0.590538	-1.590588	0.652928	0.604023	0.263574	-0.040825	-0.953613	0.261719	0.119385	0.099076	0.001715	0.037705	0.159344	-0.571718	-0.025412	-0.804427	-22.275453	-68.111140	-142.431404
