// General information: 
//  MT Manager version: 2019.2.0 
//  XDA version: 2019.2.0 build 3853 rev 94535 built on 2019-09-09
// Device information: 
//  DeviceId: 00B40A8D
//  ProductCode: MTW2-3A7G6
//  Firmware Version: 4.3.5
//  Hardware Version: 1.1.0
// Device settings: 
//  Filter Profile: human(46.1)
//  Option Flags: Orientation Smoother Disabled, AHS Disabled, ICC Disabled
// Coordinate system: ENU
PacketCounter	SampleTimeFine	Acc_X	Acc_Y	Acc_Z	FreeAcc_E	FreeAcc_N	FreeAcc_U	Gyr_X	Gyr_Y	Gyr_Z	Mag_X	Mag_Y	Mag_Z	VelInc_X	VelInc_Y	VelInc_Z	Quat_q0	Quat_q1	Quat_q2	Quat_q3	Roll	Pitch	Yaw
54461		14.577155	-2.445884	4.600209	0.000000	0.000000	5.667542	0.375653	0.283132	0.107490	-0.877197	-0.093506	-0.654785	0.145850	-0.024467	0.045750	0.757845	0.104626	-0.584196	0.270997	-28.137495	-70.418692	59.410258
54462		15.198360	-0.773403	3.816129	0.000000	0.000000	5.876516	0.434058	-0.130893	0.241901	-0.876953	-0.095703	-0.648193	0.151968	-0.007633	0.038244	0.777925	0.070251	-0.610888	0.129281	-11.287374	-75.607177	27.638994
54463		15.180144	0.364010	2.995367	0.251710	2.291655	5.491753	0.371188	-0.392823	0.417673	-0.879150	-0.097900	-0.643799	0.151734	0.003901	0.030259	0.769123	0.088911	-0.599597	0.202552	-21.814488	-73.404846	45.857119
54464		13.430895	-0.560111	4.641794	-1.214466	0.510415	4.347582	0.424074	0.050068	0.527551	-0.883789	-0.093750	-0.643799	0.134335	-0.005345	0.046373	0.768546	0.088909	-0.599206	0.205873	-22.470650	-73.264344	46.795678
54465		10.830294	-0.562963	6.375659	-3.261123	-0.678421	2.318507	0.424831	0.178479	0.578560	-0.881592	-0.091309	-0.645996	0.108376	-0.005451	0.063648	0.768209	0.089394	-0.598488	0.208988	-22.854573	-73.115517	47.486083
54466		10.448633	0.045403	7.668916	-4.754300	-0.671731	2.226140	0.144687	-0.143404	0.671497	-0.882080	-0.084717	-0.643799	0.104429	0.000749	0.076765	0.767009	0.088090	-0.599184	0.211934	-24.039217	-73.037805	48.810998
54467		10.540526	0.987081	6.058483	-3.608083	0.894169	1.804702	-0.014900	-0.184642	0.821529	-0.889160	-0.078369	-0.641357	0.105308	0.010308	0.060681	0.769859	0.086639	-0.594619	0.215032	-23.762177	-72.327204	48.695982
54468		9.486418	2.204332	4.630892	-3.143246	2.361939	0.229079	0.190573	0.029172	0.935217	-0.882568	-0.073730	-0.643799	0.094767	0.022442	0.046316	0.768849	0.084559	-0.594700	0.219209	-25.151462	-72.090126	50.269709
54469		8.177953	1.207291	4.900505	-2.945301	1.064876	-0.727420	0.071720	0.354345	1.000300	-0.883057	-0.064697	-0.648193	0.081805	0.012464	0.048865	0.777587	0.087737	-0.582647	0.219507	-21.328650	-70.845126	46.784880
54470		7.134989	-0.430407	5.295131	-2.796782	-0.711003	-1.398199	0.008315	0.499962	0.995089	-0.879150	-0.051270	-0.652588	0.071502	-0.003951	0.052773	0.777936	0.084320	-0.581122	0.223616	-22.522476	-70.366467	48.055557
54471		7.586641	-0.579817	5.185512	-2.145692	-0.666279	-0.883280	0.037635	0.428575	0.986702	-0.881836	-0.044678	-0.656982	0.076005	-0.005433	0.051691	0.790165	0.088683	-0.563701	0.223640	-17.801636	-68.513020	43.782230
54472		8.834865	-0.341774	4.885809	-1.670617	0.069659	0.149549	-0.041383	0.381643	1.000423	-0.875488	-0.035645	-0.661377	0.088457	-0.002965	0.048690	0.790129	0.085272	-0.562675	0.227642	-19.019643	-68.124492	45.067436
54473		9.940112	-1.046050	4.655564	-0.392249	-0.093123	1.205964	-0.185966	0.409640	0.968539	-0.875977	-0.028809	-0.659180	0.099545	-0.009935	0.046361	0.802139	0.087428	-0.544709	0.228520	-15.524294	-66.039158	41.928140
54474		10.588729	-1.794984	4.161054	0.553981	-0.276625	1.688325	-0.166348	0.311824	0.793918	-0.874268	-0.017822	-0.661377	0.106022	-0.017495	0.041460	0.802146	0.084242	-0.543991	0.231385	-16.486588	-65.741989	42.877974
54475		11.012069	-2.016707	3.669599	1.502678	-0.085961	1.872043	-0.103995	0.241818	0.505168	-0.867676	-0.015381	-0.670166	0.110215	-0.019870	0.036573	0.809473	0.085453	-0.532607	0.231909	-14.573491	-64.408438	41.182237
54476		10.221923	-1.889843	3.028909	1.718519	0.098153	0.877049	-0.049272	0.234675	0.230057	-0.868408	-0.001953	-0.672363	0.102276	-0.018773	0.030174	0.809851	0.084369	-0.531812	0.232809	-14.796068	-64.244956	41.397872
54477		8.894787	-1.010776	2.904586	1.053354	0.557973	-0.477025	-0.041479	0.214221	0.014084	-0.865723	-0.010742	-0.672363	0.088980	-0.010095	0.028953	0.812030	0.085143	-0.528240	0.233066	-14.174477	-63.842006	40.886379
54478		7.820874	-0.373074	3.302752	0.083202	0.660656	-1.340968	-0.120811	0.103478	-0.080248	-0.870361	-0.006348	-0.670166	0.078224	-0.003742	0.032989	0.812448	0.084744	-0.527926	0.232465	-14.123536	-63.795755	40.752481
54479		7.348996	0.036512	3.184498	-0.156733	0.900606	-1.855650	-0.170046	-0.020140	-0.117158	-0.876953	-0.006592	-0.677002	0.073487	0.000349	0.031852	0.812817	0.085644	-0.528238	0.230127	-13.667345	-63.914557	40.166910
54480		7.383691	0.220726	2.925284	-0.015921	1.168613	-1.953999	-0.174269	0.031510	-0.126667	-0.865479	-0.012939	-0.672363	0.073843	0.002186	0.029239	0.813120	0.085234	-0.528256	0.229165	-13.614440	-63.914127	39.996831
54481		7.383671	-0.084182	2.625403	0.387299	0.954897	-2.043737	-0.168682	0.108328	-0.127890	-0.872314	-0.010986	-0.679199	0.073850	-0.000867	0.026215	0.813570	0.088079	-0.528280	0.226420	-12.678735	-64.088680	39.060208
54482		7.486964	-0.418190	2.249880	0.895476	0.831460	-2.079754	-0.148064	0.148119	-0.135520	-0.868164	-0.004150	-0.679199	0.074883	-0.004216	0.022446	0.814179	0.087667	-0.527785	0.225543	-12.569708	-64.022836	38.844620
54483		7.682366	-0.916977	1.968974	1.417484	0.486414	-1.971094	-0.131204	0.165052	-0.130647	-0.874512	-0.010986	-0.681396	0.076834	-0.009207	0.019632	0.813439	0.091800	-0.528808	0.224170	-11.694713	-64.351135	38.187617
54484		7.801361	-0.966309	1.848911	1.590976	0.518593	-1.912479	-0.081520	0.110159	-0.116705	-0.872314	-0.013184	-0.679199	0.078018	-0.009701	0.018450	0.813898	0.091653	-0.528398	0.223530	-11.578688	-64.302801	38.007060
54485		7.753288	-0.947247	1.704962	1.634306	0.500224	-2.002665	-0.047389	0.073494	-0.102628	-0.872070	-0.017578	-0.681396	0.077534	-0.009508	0.017023	0.811487	0.095772	-0.532042	0.221916	-10.991091	-64.958041	37.598504
54486		7.600560	-0.863312	1.761050	1.506641	0.509516	-2.125976	-0.019851	0.095081	-0.089083	-0.867920	-0.010742	-0.683594	0.076010	-0.008665	0.017575	0.811849	0.095823	-0.531636	0.221547	-10.873208	-64.914235	37.455812
54487		7.510188	-0.846230	1.896483	1.289786	0.431180	-2.140256	-0.065903	0.114685	-0.065971	-0.870117	-0.010742	-0.683594	0.075110	-0.008481	0.018925	0.807803	0.100866	-0.534625	0.226838	-11.037714	-65.437003	38.474441
54488		7.427219	-0.767652	1.894760	1.233772	0.480066	-2.223859	-0.080239	0.071970	-0.037745	-0.865479	-0.012939	-0.685791	0.074278	-0.007683	0.018924	0.808079	0.100562	-0.534406	0.226508	-11.020022	-65.400670	38.404436
54489		7.767139	-0.636791	1.747670	1.361340	0.698911	-1.973901	-0.068603	0.057157	-0.011342	-0.870117	-0.008545	-0.685791	0.077676	-0.006366	0.017457	0.807487	0.098046	-0.537993	0.221166	-11.206912	-65.813181	37.899995
54490		8.197566	-0.724565	1.593130	1.673937	0.795124	-1.637795	-0.090992	0.119038	0.010929	-0.865723	-0.008545	-0.687988	0.081986	-0.007234	0.015886	0.807840	0.097518	-0.537618	0.221024	-11.243176	-65.745064	37.882596
54491		8.163520	-0.745398	1.463495	1.725237	0.734861	-1.699488	-0.113675	0.201143	0.029533	-0.868164	-0.006348	-0.690186	0.081651	-0.007434	0.014557	0.808066	0.091204	-0.542952	0.209559	-11.506817	-66.306293	36.607824
54492		7.725060	-1.059457	0.974192	2.143367	0.541711	-2.272094	-0.070706	0.187858	0.040960	-0.865967	-0.006104	-0.687988	0.077262	-0.010575	0.009673	0.808565	0.090611	-0.542285	0.209618	-11.550709	-66.196137	36.611513
54493		7.487951	-1.024690	0.841689	2.090801	0.487995	-2.517604	0.022527	0.182196	0.025515	-0.865479	-0.012939	-0.694580	0.074888	-0.010238	0.008348	0.807047	0.087203	-0.548084	0.201680	-11.814221	-66.901767	35.882308
54494		7.062158	-0.951218	0.750571	2.011150	0.494446	-2.953165	0.083573	0.098410	0.009477	-0.863525	-0.008301	-0.692383	0.070626	-0.009512	0.007467	0.807270	0.087415	-0.547607	0.201990	-11.751856	-66.845462	35.866552
54495		7.169738	-0.743988	0.520096	2.066969	0.846494	-2.939533	0.164108	-0.055521	-0.012858	-0.870605	-0.001953	-0.685791	0.071695	-0.007449	0.005215	0.801471	0.095024	-0.550301	0.213970	-12.465029	-67.333761	38.216417
54496		7.535576	-0.437859	0.506313	2.047844	1.207208	-2.630629	0.192331	-0.139640	-0.018999	-0.856934	-0.005859	-0.685791	0.075352	-0.004391	0.005112	0.801015	0.095996	-0.550645	0.214356	-12.370611	-67.414239	38.233511
54497		7.729865	0.046527	0.769784	1.765443	1.414359	-2.381111	0.253863	-0.163455	-0.021782	-0.867676	-0.012939	-0.687988	0.077292	0.000447	0.007762	0.807507	0.078422	-0.554963	0.183841	-11.761369	-67.684703	33.552607
54498		7.819401	1.021848	1.496302	0.773552	2.079236	-2.098774	0.267915	-0.286956	-0.019316	-0.867432	-0.019531	-0.681396	0.078173	0.010191	0.015089	0.806622	0.079821	-0.555867	0.184393	-11.663065	-67.847963	33.612226
54499		8.417536	0.782564	1.383638	1.021295	2.014774	-1.549558	0.143351	-0.401007	0.002835	-0.872070	-0.015381	-0.676758	0.084147	0.007817	0.014011	0.800430	0.095106	-0.556515	0.201387	-11.218725	-68.311991	35.869627
54500		9.097074	0.074263	0.315602	2.408472	1.913296	-1.245287	-0.006770	-0.360107	0.039763	-0.869873	-0.015381	-0.679199	0.090965	0.000761	0.003320	0.799390	0.095331	-0.557982	0.201356	-11.381267	-68.509894	36.040255
54501		9.833151	-0.611439	1.118114	2.160296	1.106206	-0.198931	0.041509	-0.088902	0.060151	-0.869873	-0.017578	-0.674561	0.098328	-0.006087	0.011224	0.797148	0.097070	-0.560951	0.201164	-11.398252	-68.967239	36.169001
54502		10.113782	-0.155147	3.050670	0.386225	0.845026	0.711380	0.010097	-0.002722	0.071632	-0.867920	-0.010986	-0.663574	0.101138	-0.001517	0.030508	0.797063	0.096912	-0.560987	0.201477	-11.497893	-68.960676	36.281954
54503		10.778666	-0.580654	2.387129	1.346112	0.817738	1.129636	-0.099408	-0.184904	0.067341	-0.865723	-0.008545	-0.674561	0.107766	-0.005758	0.023974	0.798212	0.093865	-0.562000	0.195456	-11.263850	-69.048466	35.279891
54504		11.481635	-0.681630	2.533882	1.451268	0.817073	1.846615	0.067285	-0.076643	0.042381	-0.870117	-0.008789	-0.667969	0.114808	-0.006801	0.025381	0.797923	0.094089	-0.562261	0.195778	-11.310046	-69.086872	35.370632
54505		11.005255	-0.509350	2.782715	1.007139	0.714899	1.483027	0.189955	-0.089743	0.019824	-0.878906	-0.013428	-0.670166	0.110041	-0.005109	0.027872	0.799297	0.087897	-0.565176	0.184321	-11.101922	-69.372302	33.667172
54506		11.449407	-0.514949	2.379538	1.470481	0.925240	1.763054	0.190167	-0.332152	0.011577	-0.872559	-0.004395	-0.661377	0.114455	-0.005166	0.023981	0.798263	0.088930	-0.566332	0.184759	-11.108255	-69.557858	33.790282
54507		12.612541	-1.586153	1.392829	2.983339	0.383139	2.616504	0.107500	-0.349609	-0.014554	-0.878906	-0.011230	-0.663574	0.126100	-0.015878	0.014140	0.795382	0.091869	-0.570916	0.181614	-10.473342	-70.315354	33.111243
54508		13.275254	-2.506371	2.168727	2.829238	-0.631272	3.559467	0.159542	-0.160185	-0.057530	-0.874512	-0.013428	-0.656982	0.132728	-0.025119	0.021774	0.794902	0.092813	-0.571382	0.181767	-10.337700	-70.411713	33.064256
54509		13.570579	-2.691225	3.006956	2.176868	-1.141240	4.130192	0.130080	-0.119140	-0.079653	-0.876953	-0.009033	-0.661377	0.135677	-0.026986	0.030133	0.794358	0.091482	-0.574086	0.176214	-9.971792	-70.786836	32.108715
54510		13.977333	-3.167785	3.279123	2.218719	-1.624594	4.630001	-0.045692	-0.199556	-0.095651	-0.881104	-0.013672	-0.654785	0.139725	-0.031737	0.032938	0.793889	0.091751	-0.574876	0.175611	-9.899563	-70.909085	32.004509
54511		13.859074	-2.907662	4.079364	1.239447	-1.792515	4.761954	0.060174	-0.189476	-0.181371	-0.883057	-0.020264	-0.656982	0.138526	-0.029215	0.040916	0.793559	0.087136	-0.579063	0.165399	-9.620840	-71.417545	30.470264
54512		13.005583	-1.934864	4.804538	0.000998	-1.304038	4.125455	0.219805	-0.092818	-0.237244	-0.883301	-0.015869	-0.650391	0.130010	-0.019556	0.048084	0.793389	0.088771	-0.579147	0.165054	-9.121267	-71.492359	30.076112
54513		12.222781	-1.451118	5.440276	-0.996987	-1.277043	3.546720	0.222903	-0.046166	-0.228421	-0.878662	-0.020020	-0.656982	0.122199	-0.014711	0.054415	0.790905	0.094284	-0.580621	0.168696	-8.632878	-71.849848	30.341476
54514		11.583338	-0.650479	7.532053	-3.308212	-1.395553	3.545332	0.225531	0.045980	-0.206381	-0.874023	-0.022217	-0.654785	0.115844	-0.006709	0.075286	0.791104	0.095735	-0.580153	0.168556	-8.135617	-71.841296	29.954086
54515		10.374865	-0.875376	7.411957	-3.491007	-1.630294	2.373213	0.021906	0.066066	-0.201038	-0.878174	-0.026855	-0.656982	0.103764	-0.008866	0.074084	0.794461	0.084911	-0.581456	0.153395	-7.997168	-71.793893	27.649222
54516		9.741295	-2.292931	5.556205	-1.502176	-2.490734	1.258060	-0.113398	0.065326	-0.299362	-0.880371	-0.029053	-0.648193	0.097397	-0.023044	0.055543	0.794927	0.085280	-0.581158	0.151904	-7.530761	-71.780242	27.089732
54517		8.862211	-2.563281	3.697391	0.053788	-2.327250	-0.150348	-0.166224	0.102554	-0.436965	-0.877930	-0.031250	-0.656982	0.088585	-0.025796	0.036950	0.794290	0.090469	-0.580400	0.155097	-6.684258	-71.818763	26.940517
54518		8.526491	-1.326538	3.100580	0.079668	-1.060525	-0.705378	-0.022077	0.145860	-0.579683	-0.877686	-0.037842	-0.656982	0.085249	-0.013509	0.030945	0.795167	0.091949	-0.579575	0.152796	-5.666159	-71.771713	25.855344
54519		8.892392	0.779402	4.467005	-1.739126	0.491203	0.004129	0.088942	0.463010	-0.645567	-0.879639	-0.042236	-0.663574	0.089052	0.007487	0.044467	0.796689	0.093287	-0.577660	0.151304	-4.744838	-71.560879	24.927218
54520		9.279985	1.063026	5.662392	-2.714965	0.389518	0.760262	-0.127430	0.703314	-0.671215	-0.868408	-0.046387	-0.670166	0.093033	0.010354	0.056290	0.799276	0.094183	-0.574638	0.148589	-3.593577	-71.187265	23.635154
54521		10.350874	0.662458	5.660637	-2.189093	0.134700	1.798136	-0.204522	0.556425	-0.754739	-0.865479	-0.059570	-0.670166	0.103690	0.006291	0.056312	0.801286	0.093840	-0.573018	0.144172	-2.609098	-70.972147	22.259955
54522		12.029184	0.375337	4.997344	-0.919887	0.226011	3.184141	-0.245133	0.257156	-0.834934	-0.863037	-0.061768	-0.679199	0.120370	0.003312	0.049814	0.802729	0.095062	-0.571770	0.140244	-1.354365	-70.841824	20.783397
54523		12.724439	-0.159894	4.314596	0.142994	-0.032651	3.623476	-0.259955	0.119706	-0.775002	-0.865479	-0.059570	-0.685791	0.127263	-0.002036	0.043072	0.803110	0.099135	-0.570094	0.142055	-0.474763	-70.710484	20.398383
54524		11.724867	-0.879627	3.501602	0.846776	-0.624746	2.410232	-0.208517	0.269649	-0.573835	-0.856445	-0.061523	-0.681396	0.117270	-0.009096	0.034867	0.804383	0.099739	-0.568875	0.139289	0.340983	-70.556781	19.406924
54525		10.076159	-1.270886	3.612311	0.374155	-1.243492	0.888081	-0.080520	0.405322	-0.343382	-0.854004	-0.063721	-0.687988	0.100813	-0.012867	0.035924	0.806921	0.093892	-0.568534	0.129736	0.683552	-70.370842	17.785655
54526		8.911770	-1.565446	4.107199	-0.307821	-1.800428	-0.045243	-0.078527	0.303296	-0.174610	-0.853760	-0.068115	-0.692383	0.089166	-0.015716	0.040943	0.807930	0.093872	-0.567282	0.128951	0.910082	-70.196098	17.497021
54527		8.325065	-2.218192	3.621903	0.111706	-2.323358	-0.760905	-0.181118	0.224178	-0.070844	-0.851807	-0.065674	-0.696777	0.083283	-0.022179	0.036146	0.809739	0.087096	-0.567557	0.120901	0.641523	-70.086028	16.534110
54528		7.949625	-2.946109	3.113914	0.674786	-2.906542	-1.288064	-0.191633	0.264598	-0.016806	-0.847412	-0.063477	-0.692383	0.079535	-0.029438	0.031062	0.810580	0.086205	-0.566596	0.120405	0.552855	-69.934711	16.511389
54529		7.550475	-3.076307	3.016031	0.625540	-3.029354	-1.688559	-0.084366	0.254174	0.020039	-0.854004	-0.063477	-0.696777	0.075546	-0.030743	0.030077	0.812147	0.079957	-0.566602	0.113955	0.122851	-69.809786	15.888694
54530		7.270503	-2.664859	2.879514	0.555185	-2.618339	-1.996720	-0.003431	0.127706	0.018401	-0.844727	-0.069824	-0.709961	0.072726	-0.026641	0.028749	0.812498	0.079815	-0.566096	0.114072	0.090756	-69.736993	15.920529
54531		7.195639	-2.050493	2.466210	0.696263	-1.909291	-2.201264	0.029255	0.017108	0.012499	-0.854004	-0.063477	-0.707764	0.071960	-0.020504	0.024653	0.813280	0.073377	-0.566981	0.108278	-0.567545	-69.737948	15.562678
54532		6.779485	-1.723671	2.055856	0.845293	-1.531492	-2.734622	-0.024861	0.007276	0.024702	-0.852051	-0.056885	-0.696777	0.067798	-0.017226	0.020558	0.813295	0.073199	-0.566976	0.108311	-0.621107	-69.733971	15.604325
54533		6.293036	-1.371009	1.663887	0.913398	-1.128616	-3.320968	0.030750	0.029560	0.034592	-0.851807	-0.063477	-0.701172	0.062935	-0.013702	0.016627	0.812671	0.069916	-0.568611	0.106577	-1.261198	-69.899351	15.824234
54534		5.924120	-0.939837	1.683528	0.667630	-0.748539	-3.663971	0.073174	0.062239	0.033490	-0.851807	-0.065674	-0.698975	0.059248	-0.009395	0.016813	0.812803	0.070081	-0.568334	0.106944	-1.270954	-69.863666	15.878931
54535		5.849584	-0.718903	1.734988	0.531779	-0.530939	-3.715150	0.027355	0.021005	0.045159	-0.849609	-0.065674	-0.701172	0.058499	-0.007178	0.017343	0.811789	0.071023	-0.568840	0.111244	-1.879689	-69.943986	16.920783
54536		6.039886	-0.575988	1.702125	0.586051	-0.363951	-3.549039	0.035236	-0.030050	0.044941	-0.856445	-0.061523	-0.698975	0.060398	-0.005749	0.017029	0.811664	0.071050	-0.568962	0.111517	-1.933302	-69.960768	16.998954
54537		6.368584	-0.588877	1.705096	0.676864	-0.320565	-3.236056	0.009387	-0.050736	0.031802	-0.854248	-0.061279	-0.698975	0.063682	-0.005879	0.017067	0.810395	0.072060	-0.569816	0.115660	-2.527041	-70.088720	18.017405
54538		6.463563	-0.764929	1.567468	0.876869	-0.445883	-3.190603	0.008576	-0.038683	-0.004678	-0.852051	-0.061279	-0.701172	0.064632	-0.007651	0.015687	0.810281	0.072125	-0.569971	0.115653	-2.519439	-70.111467	18.014096
54539		6.435731	-0.998226	1.473218	1.001660	-0.636331	-3.241749	0.051061	0.020510	-0.042494	-0.853760	-0.070313	-0.698975	0.064357	-0.010000	0.014723	0.809663	0.071828	-0.570630	0.116912	-2.894826	-70.191605	18.467333
54540		6.267820	-1.175452	1.416580	1.049247	-0.815348	-3.416733	0.076085	-0.007679	-0.088331	-0.851563	-0.067871	-0.694580	0.062672	-0.011788	0.014164	0.809662	0.072386	-0.570590	0.116770	-2.713823	-70.199017	18.320762
54541		6.218159	-1.306335	1.082793	1.372069	-0.834903	-3.570508	0.072935	-0.159021	-0.133250	-0.854004	-0.065918	-0.692383	0.062164	-0.013109	0.010873	0.808069	0.076072	-0.571047	0.123055	-2.996025	-70.324279	19.427972
54542		6.502051	-1.312156	0.629111	1.861088	-0.703810	-3.453824	0.028178	-0.364794	-0.179110	-0.858154	-0.070313	-0.694580	0.064997	-0.013181	0.006408	0.807122	0.076915	-0.572440	0.122274	-2.723357	-70.538734	19.155189
54543		7.162792	-1.339940	0.214899	2.417707	-0.533204	-2.955759	-0.022355	-0.516030	-0.216502	-0.860352	-0.070557	-0.685791	0.071607	-0.013477	0.002335	0.804743	0.079200	-0.574796	0.125404	-2.924975	-70.907106	19.797479
54544		7.881711	-1.286736	-0.026290	2.809416	-0.364565	-2.345972	-0.075063	-0.526966	-0.234693	-0.869385	-0.070801	-0.683594	0.078802	-0.012960	-0.000050	0.803398	0.079896	-0.576874	0.124037	-2.621986	-71.215853	19.431088
54545		8.368940	-1.358835	-0.036783	2.937627	-0.362902	-1.867536	-0.115552	-0.452386	-0.240760	-0.862793	-0.068359	-0.672363	0.083673	-0.013689	-0.000171	0.801053	0.081838	-0.579227	0.126934	-2.890430	-71.578904	20.092402
54546		8.741272	-1.560018	0.503195	2.588991	-0.694252	-1.332611	-0.197701	-0.363861	-0.232313	-0.876221	-0.068848	-0.676758	0.087385	-0.015697	0.005206	0.800221	0.081942	-0.580721	0.125284	-2.635698	-71.794338	19.704102
54547		8.923303	-1.450838	0.950435	2.161811	-0.694165	-1.010517	-0.195979	-0.277383	-0.225307	-0.869385	-0.068604	-0.670166	0.089203	-0.014599	0.009642	0.798692	0.082586	-0.582491	0.126394	-2.850811	-72.052240	20.058546
54548		9.381901	-0.799013	1.650590	1.444408	-0.244164	-0.366157	-0.143343	-0.224482	-0.225519	-0.869385	-0.070801	-0.667969	0.093791	-0.008084	0.016617	0.798233	0.082802	-0.583392	0.124986	-2.555716	-72.187746	19.661391
54549		10.127517	-0.301662	2.008830	1.151908	0.201176	0.450136	-0.108484	-0.232917	-0.223455	-0.875488	-0.080078	-0.665771	0.101248	-0.003119	0.020208	0.797146	0.083332	-0.584719	0.125373	-2.606215	-72.384221	19.783295
54550		11.058196	-0.219502	2.340486	1.070683	0.255218	1.438897	-0.098388	-0.251744	-0.202372	-0.871094	-0.082031	-0.661377	0.110550	-0.002295	0.023545	0.796570	0.083678	-0.585708	0.124177	-2.320459	-72.534364	19.423574
54551		11.617979	-0.742730	2.215246	1.453061	-0.132102	1.947732	-0.124663	-0.249569	-0.175769	-0.871338	-0.075439	-0.661377	0.116145	-0.007516	0.022302	0.794553	0.087115	-0.586769	0.129607	-2.640915	-72.750097	20.474390
54552		11.827417	-0.923030	1.644654	2.061863	-0.144049	1.984452	-0.082358	-0.260807	-0.191399	-0.871338	-0.075439	-0.652588	0.118244	-0.009337	0.016605	0.793940	0.087508	-0.587785	0.128494	-2.359605	-72.905312	20.129652
54553		11.593752	-0.887798	1.314461	2.258396	-0.047347	1.668965	-0.045401	-0.232105	-0.241329	-0.880127	-0.080078	-0.656982	0.115911	-0.009015	0.013281	0.793025	0.088790	-0.588660	0.129255	-2.232116	-73.057473	20.167982
54554		11.385790	-0.183031	1.015944	2.234915	0.650371	1.380339	0.075605	-0.308562	-0.299151	-0.877441	-0.084717	-0.645996	0.113839	-0.002004	0.010334	0.792267	0.090157	-0.589712	0.128158	-1.648528	-73.241225	19.602463
54555		11.766227	0.407908	0.279197	2.764471	1.460604	1.541273	0.133472	-0.438252	-0.334366	-0.881592	-0.091309	-0.648193	0.117662	0.003880	0.003052	0.790099	0.093643	-0.591455	0.130978	-1.409881	-73.566046	19.879160
54556		11.910693	-0.113998	-0.194334	3.367470	1.071420	1.563924	0.258255	-0.383686	-0.328116	-0.877197	-0.089111	-0.641357	0.119108	-0.001333	-0.001716	0.789047	0.095871	-0.592658	0.130268	-0.639441	-73.790656	19.229486
54557		12.225379	-1.427014	1.588366	2.215864	-0.708224	2.377775	0.347716	-0.187491	-0.286823	-0.876953	-0.095703	-0.636963	0.122218	-0.014473	0.015973	0.787699	0.099542	-0.593239	0.132998	-0.203448	-73.959387	19.320469
54558		12.752489	-2.268431	3.862205	0.577192	-2.206898	3.509651	0.308450	0.114881	-0.202149	-0.878662	-0.104736	-0.641357	0.127524	-0.022873	0.038514	0.788010	0.101266	-0.592493	0.133177	0.368683	-73.894964	18.907873
54559		13.251035	-1.123790	4.676317	-0.384198	-1.347648	4.214320	0.310789	0.118617	-0.075356	-0.880859	-0.109131	-0.641357	0.132534	-0.011360	0.046667	0.787440	0.104376	-0.591748	0.137397	0.365138	-73.865975	19.520772
54560		14.080668	0.224950	3.564093	0.365902	0.348801	4.704984	0.210775	-0.359123	0.116386	-0.881104	-0.102539	-0.632568	0.140741	0.002294	0.035896	0.786176	0.105094	-0.593091	0.138294	0.251209	-74.073737	19.763822
54561		13.975161	1.076837	4.315754	-0.727744	0.907871	4.807028	0.247126	-0.469870	0.316139	-0.890137	-0.102783	-0.628174	0.139632	0.010936	0.043499	0.783500	0.107012	-0.595030	0.143579	-0.677356	-74.395592	21.282894
54562		11.448423	0.212899	6.418316	-3.010170	-0.838061	2.936541	0.134115	-0.152148	0.474448	-0.894531	-0.100830	-0.630371	0.114430	0.002357	0.064272	0.782622	0.106221	-0.595797	0.145758	-1.589531	-74.479134	22.308400
54563		9.462229	0.154808	6.668995	-3.762225	-1.138034	1.076918	0.096200	-0.245130	0.587532	-0.892822	-0.089600	-0.628174	0.094535	0.001794	0.066807	0.780687	0.105268	-0.597407	0.150175	-3.266007	-74.664099	24.268275
54564		9.906773	0.789512	6.891926	-4.128329	-0.524829	1.542800	-0.019052	-0.146446	0.736314	-0.895508	-0.083008	-0.628174	0.098987	0.008266	0.068991	0.779689	0.103090	-0.598393	0.152917	-4.843745	-74.719935	25.891557
54565		9.718424	1.697821	6.031262	-3.760051	0.702873	1.099403	-0.054922	0.144083	0.926452	-0.895752	-0.080811	-0.632568	0.097148	0.017445	0.060238	0.779713	0.098141	-0.598642	0.155064	-7.042276	-74.573610	27.860688
54566		9.400366	2.487290	4.639134	-2.892793	1.965157	0.377700	-0.049951	0.030245	1.095366	-0.896729	-0.060791	-0.630371	0.093873	0.025399	0.046371	0.778953	0.094628	-0.599110	0.159201	-9.314298	-74.469211	30.187228
54567		9.711798	0.401716	4.747005	-2.215160	0.154485	0.774194	-0.345251	-0.026646	1.255413	-0.899414	-0.049805	-0.625977	0.097084	0.004709	0.047475	0.778111	0.088473	-0.600272	0.162449	-12.268702	-74.344365	32.903041
54568		9.901057	-1.633993	4.817558	-1.547951	-1.602536	1.093442	-0.279852	0.185786	1.306515	-0.895508	-0.038574	-0.628174	0.099159	-0.015625	0.048106	0.777698	0.083295	-0.600361	0.166774	-14.923026	-74.066849	35.493487
54569		10.132681	-2.191695	4.629616	-1.156312	-1.867725	1.326474	-0.207712	0.244219	1.260144	-0.900879	-0.020996	-0.632568	0.101518	-0.021230	0.046195	0.777507	0.077799	-0.600109	0.171169	-17.514973	-73.701421	38.003240
54570		10.990510	-2.923658	4.490969	-0.606405	-2.218612	2.196324	-0.252318	0.121378	1.090336	-0.898682	-0.018799	-0.634766	0.110089	-0.028580	0.044879	0.777007	0.073426	-0.600290	0.174700	-19.603952	-73.438594	40.028962
54571		12.358787	-3.741394	4.087105	0.304802	-2.462209	3.502179	-0.213231	-0.020374	0.793729	-0.896973	-0.009766	-0.630371	0.123731	-0.036879	0.040923	0.776215	0.069477	-0.601005	0.177357	-21.460423	-73.268300	41.782469
54572		12.657871	-2.755663	3.445239	0.570082	-1.205088	3.525511	-0.025135	0.044663	0.444523	-0.899414	-0.005371	-0.634766	0.126647	-0.027271	0.034428	0.775943	0.067987	-0.601031	0.179027	-22.238697	-73.151765	42.578832
54573		11.391499	-0.699952	3.565421	-0.556965	0.474151	2.121854	-0.015598	0.243572	0.214871	-0.904297	0.003418	-0.636963	0.113966	-0.006874	0.035516	0.775920	0.067712	-0.600183	0.182054	-22.762241	-72.948694	43.336907
54574		9.693673	0.553084	4.233775	-1.964121	1.101937	0.537480	-0.090598	0.218542	0.084213	-0.892822	-0.002930	-0.636963	0.096981	0.005591	0.042229	0.776510	0.066893	-0.599471	0.182188	-22.813426	-72.816697	43.334602
54575		8.683498	1.120531	4.042206	-2.214131	1.508793	-0.548816	-0.218487	-0.046084	-0.007179	-0.901855	-0.000977	-0.634766	0.086826	0.011246	0.040430	0.776270	0.065576	-0.599995	0.181965	-23.239143	-72.819817	43.632050
54576		8.697177	0.863033	2.865095	-1.055019	1.653214	-0.826681	-0.276883	-0.075896	-0.085249	-0.895264	0.003662	-0.641602	0.086965	0.008633	0.028672	0.776188	0.064809	-0.600540	0.180784	-23.321094	-72.881363	43.550188
54577		8.478148	0.990388	2.866697	-1.151868	1.733084	-1.052126	-0.191039	0.085141	-0.120448	-0.895264	-0.000732	-0.636963	0.084800	0.009880	0.028621	0.776410	0.064134	-0.600453	0.180362	-23.377463	-72.848870	43.516058
54578		8.014681	0.461983	2.931549	-1.112467	1.130295	-1.414630	-0.286639	0.087667	-0.102966	-0.897705	0.003662	-0.643799	0.080162	0.004621	0.029274	0.776835	0.063234	-0.600367	0.179136	-23.315320	-72.828590	43.277502
54579		7.843362	-0.357767	2.069966	-0.072361	0.609525	-1.716125	-0.247822	0.022537	-0.126981	-0.895264	-0.000732	-0.645996	0.078434	-0.003602	0.020695	0.776951	0.062599	-0.600500	0.178402	-23.352177	-72.834244	43.200392
54580		7.952748	-0.917917	1.988641	0.223747	0.131658	-1.567927	-0.167262	0.005089	-0.122686	-0.899902	0.003662	-0.648193	0.079522	-0.009211	0.019892	0.777105	0.062296	-0.600621	0.177430	-23.248847	-72.861940	42.990311
54581		7.746773	-1.554926	1.640901	0.716794	-0.397805	-1.784562	-0.105725	0.012206	-0.100422	-0.895264	0.001465	-0.641602	0.077461	-0.015579	0.016413	0.777228	0.061699	-0.600802	0.176483	-23.241888	-72.881563	42.854452
54582		7.574423	-2.240145	1.349580	1.185222	-0.985782	-1.949166	-0.025738	0.015653	-0.087008	-0.895508	0.008057	-0.641602	0.075736	-0.022433	0.013493	0.777337	0.061830	-0.600767	0.176079	-23.110084	-72.895540	42.699474
54583		7.454155	-2.569075	1.009033	1.587795	-1.214052	-2.119333	0.074270	0.081019	-0.099020	-0.897461	0.001465	-0.645996	0.074533	-0.025731	0.010051	0.777676	0.061864	-0.600415	0.175771	-22.940845	-72.863175	42.508352
54584		7.113240	-2.142701	1.322124	1.092321	-0.985468	-2.411807	0.131491	0.168027	-0.090877	-0.895508	0.003662	-0.643799	0.071134	-0.021468	0.013147	0.778195	0.062483	-0.599648	0.175871	-22.603603	-72.797261	42.232542
54585		6.801410	-1.750405	1.296622	0.923473	-0.672921	-2.762959	0.124191	0.224514	-0.061777	-0.895020	-0.005127	-0.650391	0.068023	-0.017533	0.012879	0.778883	0.062244	-0.598824	0.175720	-22.419986	-72.688661	42.019400
54586		6.700970	-1.240689	1.441008	0.610609	-0.261455	-2.878888	0.137365	0.260299	-0.035154	-0.897461	-0.000732	-0.648193	0.067026	-0.012429	0.014314	0.779625	0.062637	-0.597709	0.176082	-22.115334	-72.561075	41.780909
54587		6.819421	-0.838893	1.348478	0.594426	0.171970	-2.838184	0.133156	0.250941	-0.007962	-0.890625	-0.000488	-0.656982	0.068211	-0.008401	0.013394	0.780159	0.062532	-0.596870	0.176597	-22.043455	-72.438626	41.746490
54588		7.073973	-0.516667	1.070372	0.808541	0.612800	-2.711670	0.162461	0.229656	0.001192	-0.892822	-0.002686	-0.659180	0.070752	-0.005175	0.010618	0.780767	0.062941	-0.595863	0.177165	-21.811834	-72.319230	41.599386
54589		7.332047	-0.111724	1.017399	0.788786	1.062791	-2.528817	0.201384	0.234721	0.005417	-0.888184	-0.007080	-0.656982	0.073332	-0.001125	0.010087	0.781519	0.062326	-0.595056	0.176785	-21.689371	-72.200235	41.397231
54590		7.482297	0.197920	0.977009	0.767754	1.398116	-2.434728	0.213526	0.241589	0.009515	-0.887939	-0.009277	-0.656982	0.074835	0.001972	0.009682	0.782137	0.062899	-0.593958	0.177539	-21.439076	-72.072441	41.261003
54591		7.591860	0.355007	0.905578	0.812715	1.596393	-2.371354	0.216303	0.224779	0.021336	-0.881104	-0.013428	-0.659180	0.075928	0.003548	0.008974	0.782469	0.063503	-0.593096	0.178736	-21.332865	-71.963389	41.307850
54592		7.871036	0.371737	0.666804	1.101192	1.749201	-2.179623	0.207418	0.190872	0.039377	-0.885498	-0.013672	-0.663574	0.078716	0.003726	0.006597	0.782908	0.064009	-0.592209	0.179573	-21.171057	-71.856325	41.260863
54593		8.126346	0.301175	0.670967	1.186409	1.744505	-1.930586	0.198611	0.164156	0.072105	-0.876709	-0.013428	-0.661377	0.081268	0.003034	0.006646	0.782952	0.064833	-0.591578	0.181159	-21.146797	-71.776588	41.439833
54594		8.197127	0.483205	1.051880	0.799505	1.815384	-1.775399	0.248271	0.086617	0.102146	-0.883789	-0.006836	-0.670166	0.081973	0.004861	0.010489	0.783009	0.065407	-0.591080	0.182328	-21.129452	-71.712283	41.569621
54595		8.283420	0.068240	0.952230	1.055818	1.486372	-1.676203	0.210974	-0.050932	0.117140	-0.883789	-0.006836	-0.665771	0.082831	0.000721	0.009544	0.782612	0.065702	-0.591333	0.183106	-21.276629	-71.737124	41.805520
54596		8.511556	-0.394201	0.506915	1.668906	1.254827	-1.536270	0.177991	-0.116968	0.125897	-0.883301	-0.013672	-0.661377	0.085115	-0.003893	0.005115	0.782066	0.066115	-0.591702	0.184093	-21.466312	-71.776299	42.110865
54597		8.681671	-1.367150	-0.184254	2.672318	0.618758	-1.461023	0.095781	-0.064886	0.133720	-0.885742	-0.009277	-0.654785	0.086826	-0.013613	-0.001821	0.781592	0.065845	-0.592229	0.184506	-21.744713	-71.816356	42.400077
54598		8.915770	-1.548062	0.721221	1.973454	0.220294	-0.954666	0.115013	0.057825	0.105152	-0.879150	-0.009033	-0.656982	0.089168	-0.015438	0.007178	0.781603	0.065912	-0.591965	0.185283	-21.825542	-71.766299	42.552763
54599		9.146313	-1.394335	1.797605	0.996567	0.073960	-0.440816	0.054597	0.050086	0.079085	-0.883789	-0.006836	-0.661377	0.091473	-0.013912	0.017949	0.781293	0.066261	-0.591992	0.186375	-21.971979	-71.757032	42.819680
54600		9.887068	-0.787996	1.790909	0.945019	0.797702	0.189963	0.000857	-0.070895	0.047404	-0.879395	-0.004639	-0.659180	0.098866	-0.007857	0.017944	0.781012	0.066171	-0.592319	0.186546	-22.108605	-71.787649	42.962233
54601		11.107782	0.058968	1.867980	0.827305	1.812499	1.273613	0.040651	-0.062554	0.027072	-0.885742	-0.011475	-0.659180	0.111072	0.000601	0.018715	0.780631	0.066128	-0.592827	0.186544	-22.243000	-71.847265	43.090982
54602		11.714149	0.742156	1.940540	0.644463	2.549269	1.790057	0.067413	0.043577	0.025221	-0.881348	-0.006836	-0.656982	0.117145	0.007430	0.019382	0.780688	0.066256	-0.592637	0.186863	-22.231174	-71.821853	43.117314
54603		11.925818	0.443126	1.726057	0.990206	2.388519	1.965056	0.067833	0.048384	0.021687	-0.881348	-0.011230	-0.656982	0.119262	0.004438	0.017233	0.780500	0.066579	-0.592724	0.187259	-22.255413	-71.837500	43.201037
54604		12.445825	-0.311907	1.265095	1.805153	1.955902	2.414830	0.099408	0.000776	0.003899	-0.881348	-0.009033	-0.654785	0.124458	-0.003123	0.012649	0.780438	0.066935	-0.592665	0.187576	-22.219234	-71.839488	43.221022
54605		13.037330	-0.307060	2.049354	1.224507	1.825564	3.203994	0.167162	0.057994	0.004209	-0.878906	-0.011230	-0.661377	0.130379	-0.003085	0.020453	0.780194	0.067991	-0.592582	0.188470	-22.125401	-71.857828	43.289306
54606		13.572199	-0.693714	2.782734	0.840084	1.347641	3.968007	0.037410	0.101110	0.041155	-0.879150	-0.006836	-0.661377	0.135737	-0.006914	0.027757	0.780414	0.067901	-0.592203	0.188782	-22.119162	-71.798627	43.303411
54607		14.657994	-1.268598	3.820020	0.379227	0.714611	5.366381	-0.026886	0.195494	0.031021	-0.872559	-0.004395	-0.659180	0.146619	-0.012658	0.038059	0.780781	0.067610	-0.591781	0.188691	-22.068063	-71.735221	43.222355
54608		14.549073	-2.625517	3.704057	0.966159	-0.505342	5.389286	-0.438883	-0.049562	0.008371	-0.879639	-0.000244	-0.654785	0.145483	-0.026168	0.037134	0.780745	0.065899	-0.592427	0.187415	-22.380782	-71.763015	43.284931
54609		14.730359	-4.264415	3.490331	1.769952	-1.924879	5.695796	-0.144627	-0.229625	-0.163894	-0.879395	-0.004639	-0.663574	0.147228	-0.042739	0.035103	0.780089	0.066086	-0.593678	0.186118	-22.375133	-71.960503	43.180765
54610		13.854815	-2.631515	3.710830	0.759574	-0.712522	4.732630	0.085994	-0.022066	-0.269000	-0.877197	-0.004639	-0.659180	0.138508	-0.026517	0.037112	0.780216	0.067219	-0.593633	0.185324	-21.917206	-72.033683	42.749049
54611		12.653389	-1.862680	5.584108	-1.475912	-0.901866	4.035355	0.073641	0.078670	-0.252981	-0.881104	-0.013428	-0.661377	0.126532	-0.018807	0.055784	0.780491	0.068152	-0.593454	0.184392	-21.444978	-72.083434	42.275480
54612		11.066830	-1.724681	5.801368	-2.069704	-1.200623	2.571976	0.074109	-0.021969	-0.194869	-0.881348	-0.006836	-0.654785	0.110645	-0.017376	0.058019	0.780551	0.069018	-0.593443	0.183852	-21.110496	-72.139060	41.966536
54613		9.477142	-2.418659	5.997513	-2.353062	-2.250714	1.188842	0.000115	0.062053	-0.154280	-0.881348	-0.011230	-0.661377	0.094771	-0.024260	0.059946	0.780708	0.069283	-0.593466	0.183011	-20.870506	-72.176974	41.677388
54614		8.015444	-2.709333	5.780805	-2.373220	-2.758123	-0.233226	0.031226	0.105959	-0.197150	-0.881104	-0.013428	-0.663574	0.080158	-0.027181	0.057761	0.781162	0.069870	-0.592994	0.182378	-20.473832	-72.163528	41.277352
54615		7.711983	-3.009999	3.942083	-0.667576	-2.515982	-1.020707	0.067851	0.096598	-0.307361	-0.876465	-0.017822	-0.661377	0.077092	-0.030232	0.039373	0.781633	0.070600	-0.592708	0.181004	-19.926602	-72.197908	40.675422
54616		8.052612	-2.941779	3.603388	-0.277652	-2.301725	-0.806704	0.271117	0.316856	-0.444915	-0.873779	-0.026611	-0.661377	0.080517	-0.029646	0.035866	0.782847	0.072668	-0.591103	0.180188	-18.853539	-72.114866	39.709114
54617		8.000860	-1.999634	4.614016	-1.485357	-1.804103	-0.656280	0.349569	0.611862	-0.526367	-0.871094	-0.037598	-0.672363	0.080096	-0.020287	0.045860	0.784802	0.075306	-0.588283	0.179829	-17.481110	-71.888897	38.533444
54618		8.503494	-1.361736	5.050825	-1.912348	-1.294775	-0.099791	0.283526	0.656715	-0.593302	-0.871094	-0.037598	-0.672363	0.085159	-0.013941	0.050209	0.787123	0.077549	-0.585261	0.178588	-16.017702	-71.630328	37.161419
54619		9.844346	-1.418349	4.656449	-1.123003	-1.001642	1.065741	0.178377	0.549285	-0.659559	-0.863770	-0.046143	-0.681396	0.098523	-0.014550	0.046281	0.789081	0.079780	-0.582809	0.176974	-14.628979	-71.442533	35.829926
54620		10.762565	-1.926923	4.161128	-0.175395	-1.187662	1.824267	0.181782	0.464283	-0.697141	-0.859131	-0.052734	-0.683594	0.107654	-0.019682	0.041344	0.790943	0.082094	-0.580572	0.174945	-13.200417	-71.284407	34.429991
54621		11.145706	-0.734101	3.873316	-0.192133	0.021838	2.008063	0.324643	0.300203	-0.657098	-0.861084	-0.059326	-0.683594	0.111490	-0.007770	0.038553	0.792134	0.085074	-0.578892	0.173695	-11.878814	-71.204405	33.255484
54622		10.884878	0.385929	3.434634	-0.226378	1.105773	1.551806	0.330733	0.414532	-0.483747	-0.858154	-0.072510	-0.690186	0.108928	0.003539	0.034127	0.793580	0.087400	-0.576793	0.172919	-10.772723	-71.030165	32.284479
54623		9.941419	0.292848	4.017375	-0.913801	0.626615	0.856378	0.320893	0.333526	-0.283363	-0.851318	-0.072266	-0.698975	0.099485	0.002723	0.040012	0.794529	0.089099	-0.575243	0.172860	-10.078770	-70.891095	31.732143
54624		9.204357	0.003657	3.763667	-0.748684	0.299642	0.098669	0.320672	0.213139	-0.131944	-0.846680	-0.076660	-0.701172	0.092084	-0.000084	0.037538	0.795083	0.090545	-0.574100	0.173361	-9.634375	-70.788115	31.453914
54625		8.510294	-0.757967	3.800761	-0.664032	-0.546183	-0.501075	0.267606	0.115659	-0.056770	-0.851074	-0.076904	-0.694580	0.085123	-0.007655	0.037948	0.795264	0.091844	-0.573342	0.174353	-9.388084	-70.724595	31.401587
54626		7.843834	-1.433708	3.418875	-0.242101	-1.159015	-1.218037	0.265392	0.095446	-0.023525	-0.851074	-0.079102	-0.696777	0.078453	-0.014392	0.034132	0.795408	0.092859	-0.572759	0.175072	-9.186480	-70.677088	31.346794
54627		7.457218	-1.946118	3.267527	-0.009081	-1.648224	-1.605527	0.250712	0.081871	-0.005944	-0.848877	-0.076660	-0.698975	0.074585	-0.019504	0.032620	0.795466	0.093700	-0.572302	0.175855	-9.061751	-70.639003	31.359377
54628		7.308894	-2.215927	2.884899	0.400720	-1.791206	-1.857570	0.267121	0.045619	0.009669	-0.850830	-0.085693	-0.696777	0.073097	-0.022194	0.028803	0.795434	0.094671	-0.571930	0.176687	-8.926302	-70.616638	31.375708
54629		7.356966	-1.979698	2.638423	0.546250	-1.480358	-1.906008	0.326843	-0.013510	0.013042	-0.852783	-0.090088	-0.698975	0.073569	-0.019835	0.026357	0.795157	0.095862	-0.571761	0.177835	-8.827649	-70.626299	31.472822
54630		7.165330	-1.689783	2.354532	0.633302	-1.150806	-2.195883	0.348991	-0.011462	0.020574	-0.848389	-0.090088	-0.696777	0.071654	-0.016932	0.023520	0.794909	0.097176	-0.571546	0.178917	-8.677421	-70.635310	31.523178
54631		6.791062	-1.713558	1.985916	0.863837	-1.106943	-2.669360	0.332827	-0.026125	0.028837	-0.843506	-0.094238	-0.698975	0.067910	-0.017159	0.019839	0.794537	0.098477	-0.571429	0.180230	-8.591968	-70.654692	31.656233
54632		6.537681	-1.301597	1.844148	0.755573	-0.725693	-2.976111	0.418044	-0.049392	0.036978	-0.856934	-0.094727	-0.698975	0.065375	-0.013042	0.018430	0.794127	0.100052	-0.571305	0.181554	-8.437710	-70.683860	31.744264
54633		6.514169	-0.663782	1.872208	0.468528	-0.157872	-3.020359	0.369237	-0.040596	0.076750	-0.850098	-0.099121	-0.692383	0.065140	-0.006647	0.018723	0.793632	0.101441	-0.571191	0.183300	-8.419245	-70.703134	31.988198
54634		6.530679	-0.424072	1.860898	0.383923	0.067642	-3.020002	0.320449	-0.044865	0.119582	-0.852295	-0.096924	-0.692383	0.065305	-0.004231	0.018617	0.793203	0.102388	-0.571175	0.184674	-8.453557	-70.722768	32.216770
54635		6.705532	0.084023	2.073447	0.033758	0.484115	-2.810196	0.319028	-0.062955	0.143214	-0.852295	-0.101318	-0.694580	0.067048	0.000855	0.020757	0.792596	0.103380	-0.571265	0.186440	-8.573117	-70.754280	32.566858
54636		6.730350	0.345932	1.955177	0.026055	0.772743	-2.838293	0.186126	-0.115435	0.146128	-0.852539	-0.094727	-0.692383	0.067290	0.003490	0.019594	0.792006	0.103784	-0.571664	0.187499	-8.745951	-70.811320	32.860555
54637		6.698141	0.349353	1.655504	0.263005	0.887755	-2.966481	0.115264	-0.104350	0.124229	-0.856689	-0.101563	-0.685791	0.066971	0.003526	0.016592	0.791411	0.104055	-0.572072	0.188612	-8.967646	-70.863583	33.196657
54638		6.637739	0.383935	1.525828	0.335941	0.960490	-3.067338	0.048328	-0.055121	0.084920	-0.856689	-0.101563	-0.690186	0.066372	0.003864	0.015278	0.791121	0.104032	-0.572329	0.189065	-9.106414	-70.891332	33.370570
54639		6.751969	0.418861	1.350932	0.498837	1.082687	-3.017947	-0.031157	0.023374	0.057634	-0.859375	-0.092529	-0.692383	0.067520	0.004210	0.013501	0.791068	0.103614	-0.572463	0.189109	-9.243672	-70.891831	33.476370
54640		6.894065	0.512642	1.281010	0.559736	1.224863	-2.912084	-0.090765	0.063849	0.029062	-0.854736	-0.094727	-0.687988	0.068944	0.005142	0.012786	0.791243	0.103089	-0.572350	0.189004	-9.339405	-70.857286	33.520454
54641		7.083296	0.453773	1.288890	0.631100	1.208306	-2.728767	-0.164985	0.087663	-0.005114	-0.849854	-0.101318	-0.690186	0.070839	0.004547	0.012854	0.791507	0.102169	-0.572319	0.188490	-9.464775	-70.822429	33.526567
54642		7.132157	0.411873	1.328181	0.632385	1.166881	-2.668469	-0.219037	0.052858	-0.064161	-0.859375	-0.092773	-0.687988	0.071326	0.004110	0.013258	0.791803	0.101413	-0.572323	0.187644	-9.485233	-70.802868	33.413127
54643		7.135618	0.118820	1.272506	0.802649	0.918126	-2.666833	-0.288054	-0.050795	-0.129082	-0.854736	-0.096924	-0.687988	0.071354	0.001160	0.012741	0.791838	0.100644	-0.572885	0.186191	-9.471511	-70.863682	33.210616
54644		7.288362	-0.184277	1.056068	1.152258	0.739356	-2.574242	-0.331096	-0.174744	-0.205051	-0.859375	-0.092773	-0.690186	0.072872	-0.001900	0.010627	0.791665	0.100061	-0.573820	0.184350	-9.386841	-70.986011	32.918136
54645		7.566706	-0.395059	1.076773	1.283822	0.567977	-2.289410	-0.378300	-0.231913	-0.260067	-0.859375	-0.092773	-0.683594	0.075649	-0.004028	0.010863	0.791358	0.099337	-0.575174	0.181823	-9.258545	-71.166461	32.510913
54646		7.877057	-0.614996	1.173972	1.359677	0.361290	-1.949791	-0.416307	-0.227191	-0.310569	-0.857178	-0.088135	-0.683594	0.078748	-0.006248	0.011842	0.791162	0.098767	-0.576335	0.179291	-9.053988	-71.327685	32.040877
54647		8.270235	-0.745245	1.362074	1.337883	0.211138	-1.507699	-0.419416	-0.236128	-0.358172	-0.861572	-0.090576	-0.678955	0.082673	-0.007572	0.013734	0.790894	0.098252	-0.577664	0.176456	-8.790993	-71.516903	31.491096
54648		8.646712	-0.885659	1.592975	1.276281	0.027564	-1.068673	-0.454859	-0.292764	-0.403386	-0.861816	-0.088379	-0.674561	0.086426	-0.008994	0.016077	0.790595	0.097855	-0.579062	0.173410	-8.453081	-71.721899	30.858289
54649		9.064060	-0.791665	1.679262	1.251301	0.106539	-0.646091	-0.391917	-0.385780	-0.474864	-0.863525	-0.097412	-0.676758	0.090589	-0.008099	0.016983	0.789948	0.097860	-0.580939	0.170047	-7.996066	-72.008915	30.111511
54650		9.851011	-0.641123	2.015122	1.084094	0.196212	0.202307	-0.323318	-0.386621	-0.525180	-0.865967	-0.095215	-0.665771	0.098454	-0.006637	0.020352	0.789395	0.098415	-0.582521	0.166850	-7.361370	-72.273334	29.247959
54651		10.645459	-0.940572	2.070620	1.334773	-0.043844	0.990741	-0.301988	-0.317927	-0.534017	-0.870117	-0.099854	-0.661377	0.106396	-0.009658	0.020890	0.788925	0.098989	-0.583991	0.163560	-6.662592	-72.522056	28.315023
54652		11.534502	-1.618252	1.841768	2.011002	-0.526934	1.794787	-0.304675	-0.232650	-0.502163	-0.863770	-0.093018	-0.663574	0.115282	-0.016444	0.018577	0.788774	0.099421	-0.584948	0.160580	-5.984717	-72.691101	27.419686
54653		12.517761	-1.890087	1.549373	2.616316	-0.603330	2.655589	-0.223646	-0.151162	-0.442655	-0.870361	-0.095459	-0.661377	0.125124	-0.019160	0.015610	0.788607	0.099979	-0.585727	0.158197	-5.372064	-72.833367	26.650702
54654		13.531708	-1.430126	0.950355	3.241837	0.108712	3.436236	-0.144270	-0.181241	-0.356782	-0.867676	-0.102051	-0.654785	0.135283	-0.014536	0.009637	0.788399	0.100576	-0.586419	0.156284	-4.836632	-72.960050	26.001953
54655		14.302450	-1.272002	0.059493	4.160414	0.610597	3.916826	-0.109489	-0.221035	-0.259547	-0.865234	-0.106445	-0.656982	0.143007	-0.012905	0.000760	0.787785	0.101063	-0.587517	0.154938	-4.512562	-73.134860	25.601433
54656		14.400035	-1.708717	-0.691267	4.997805	0.432950	3.810563	-0.029705	-0.188292	-0.171759	-0.876465	-0.104492	-0.654785	0.143992	-0.017212	-0.006775	0.787348	0.101573	-0.588238	0.154085	-4.245811	-73.255191	25.302917
54657		14.404759	-2.720729	-0.268141	4.962068	-0.679053	3.967301	0.036957	-0.131274	-0.079406	-0.869629	-0.108643	-0.656982	0.144038	-0.027264	-0.002592	0.786753	0.102096	-0.588988	0.153912	-4.140440	-73.376206	25.223270
54658		15.038989	-3.764282	1.220626	4.161288	-2.087338	5.025023	0.026934	-0.021702	0.063619	-0.867676	-0.102051	-0.656982	0.150401	-0.037597	0.012218	0.786595	0.102009	-0.589129	0.154237	-4.263863	-73.391312	25.366102
54659		15.432155	-3.348166	2.347030	3.094211	-2.007860	5.720001	0.110062	0.063170	0.236457	-0.869629	-0.106445	-0.650391	0.154368	-0.033312	0.023403	0.786215	0.102066	-0.589107	0.156210	-4.723890	-73.378813	25.995598
54660		15.822105	-2.492935	3.892183	1.492123	-1.642764	6.520631	0.117855	0.040322	0.456912	-0.872314	-0.099854	-0.652588	0.158285	-0.024591	0.038875	0.785883	0.101129	-0.589132	0.158380	-5.536149	-73.337731	26.911752
54661		15.141118	-1.378077	4.572317	0.253484	-0.856830	6.038480	0.082510	-0.139318	0.626821	-0.874756	-0.095703	-0.652588	0.151422	-0.013325	0.045823	0.784623	0.099781	-0.590262	0.161250	-6.800330	-73.424646	28.300411
54662		13.173811	-0.762734	4.134749	-0.129176	-0.326007	4.011336	0.098100	-0.153802	0.654934	-0.875000	-0.093506	-0.648193	0.131730	-0.007216	0.041445	0.783555	0.098334	-0.591155	0.164038	-8.049621	-73.468847	29.660270
54663		11.457970	-1.357956	4.915415	-1.078663	-1.328455	2.611555	0.138865	-0.074856	0.603723	-0.873047	-0.084473	-0.652588	0.114602	-0.013268	0.049188	0.782478	0.097145	-0.591972	0.166913	-9.238985	-73.504037	30.989200
54664		10.082564	-1.683486	5.516952	-1.856978	-1.994912	1.478937	0.166044	-0.132551	0.512559	-0.873291	-0.082275	-0.650391	0.100832	-0.016622	0.055222	0.781541	0.096366	-0.592644	0.169352	-10.181659	-73.534627	32.069411
54665		10.017524	-0.521249	6.030454	-2.802605	-1.083308	1.499280	0.199863	-0.141894	0.436864	-0.873291	-0.082275	-0.648193	0.100144	-0.005054	0.060370	0.780328	0.096322	-0.593385	0.172349	-11.064660	-73.591531	33.197164
54666		10.031196	0.349084	7.159787	-4.153635	-0.644011	1.777899	0.123452	0.190190	0.502559	-0.873535	-0.073486	-0.639160	0.100371	0.003699	0.071505	0.780363	0.095127	-0.592822	0.174774	-11.890808	-73.432581	34.130419
54667		8.256180	1.584290	5.446804	-3.526379	0.858111	-0.476182	0.247097	0.203099	0.581657	-0.882813	-0.071533	-0.650391	0.082571	0.016016	0.054404	0.780079	0.094400	-0.592242	0.178368	-12.844192	-73.269021	35.327785
54668		7.932805	1.794939	3.964937	-2.376052	1.567922	-1.223872	0.171908	0.064870	0.653812	-0.874023	-0.066650	-0.656982	0.079282	0.018175	0.039639	0.779567	0.093054	-0.592188	0.181463	-13.942140	-73.151160	36.575410
54669		8.081915	0.561737	4.053670	-1.946947	0.480697	-0.978481	0.209282	0.329526	0.718880	-0.874023	-0.066650	-0.659180	0.080865	0.005866	0.040410	0.779606	0.091379	-0.591241	0.185197	-15.069757	-72.885106	37.882945
54670		7.916828	-0.325085	4.624216	-2.122862	-0.504133	-0.901792	0.223484	0.612983	0.748836	-0.874756	-0.053223	-0.659180	0.079321	-0.003006	0.045996	0.780578	0.089446	-0.589027	0.189062	-15.982121	-72.436783	38.970759
54671		8.052588	-0.098564	5.000952	-2.488616	-0.339708	-0.671881	0.189114	0.598412	0.719659	-0.863525	-0.052979	-0.667969	0.080678	-0.000743	0.049768	0.781399	0.087504	-0.586978	0.192912	-16.883864	-72.006129	40.045958
54672		9.414921	0.104433	5.046703	-2.266036	0.174887	0.625451	-0.063257	0.477152	0.692319	-0.865967	-0.046387	-0.667969	0.094265	0.001386	0.050242	0.782117	0.084743	-0.585520	0.195646	-17.841738	-71.631623	41.013876
54673		11.007853	-0.374167	5.002272	-1.642756	0.175360	2.170858	-0.245049	0.419260	0.638486	-0.862061	-0.039551	-0.674561	0.110194	-0.003329	0.049796	0.782640	0.081703	-0.584443	0.198054	-18.849793	-71.294697	41.980175
54674		12.580093	-0.486518	5.018308	-1.233467	0.495005	3.674781	-0.288628	0.237309	0.501207	-0.860107	-0.030518	-0.670166	0.125872	-0.004478	0.050040	0.782916	0.078853	-0.584050	0.199276	-19.696296	-71.076209	42.697600
54675		12.893149	-0.503488	4.525170	-0.730028	0.795748	3.818069	-0.372929	0.077792	0.317662	-0.864746	-0.028564	-0.676758	0.128957	-0.004746	0.045211	0.782850	0.076395	-0.584344	0.199629	-20.418281	-70.980660	43.246429
54676		11.261226	-0.070798	3.624082	-0.497617	1.187816	1.947226	-0.311810	0.207093	0.131128	-0.860596	-0.019531	-0.679199	0.112650	-0.000578	0.036125	0.783406	0.074564	-0.583941	0.199319	-20.697246	-70.847753	43.350409
54677		9.290317	0.806845	4.256163	-1.867132	1.351341	0.175482	-0.321438	0.224657	0.013635	-0.858398	-0.021484	-0.679199	0.092950	0.008143	0.042444	0.784079	0.072905	-0.583529	0.198493	-20.831230	-70.735787	43.279955
54678		8.167455	1.094264	4.421089	-2.392591	1.322018	-0.869616	-0.458477	-0.045090	-0.038150	-0.867676	-0.012939	-0.676758	0.081667	0.011028	0.044204	0.784114	0.071243	-0.584193	0.196998	-21.079432	-70.772301	43.262426
54679		8.318440	0.444897	3.706246	-1.482013	1.020694	-0.874432	-0.571628	-0.195644	-0.102653	-0.865723	-0.010742	-0.683594	0.083150	0.004512	0.037131	0.783827	0.069097	-0.585695	0.194427	-21.423837	-70.915246	43.207411
54680		8.506880	0.217505	3.298967	-1.000822	0.994163	-0.795621	-0.504989	-0.095676	-0.168871	-0.861084	-0.010498	-0.681396	0.085055	0.002187	0.033025	0.783846	0.067684	-0.586549	0.192262	-21.528470	-71.006282	43.009813
54681		8.465160	0.078048	2.998167	-0.693908	0.955445	-0.909899	-0.498621	0.001614	-0.240933	-0.865723	-0.010742	-0.683594	0.084653	0.000753	0.029979	0.784167	0.066379	-0.587017	0.189966	-21.492946	-71.059902	42.671515
54682		8.358589	-0.344104	2.658630	-0.249521	0.648689	-1.062279	-0.438433	0.130896	-0.296427	-0.865723	-0.008545	-0.681396	0.083598	-0.003507	0.026539	0.784938	0.065384	-0.586869	0.187569	-21.221950	-71.056501	42.117169
54683		8.124099	-0.599400	2.592378	-0.139711	0.375002	-1.273336	-0.415848	0.153344	-0.320440	-0.858887	-0.010498	-0.683594	0.081251	-0.006070	0.025874	0.785777	0.064366	-0.586676	0.184993	-20.912241	-71.050964	41.507592
54684		8.052817	-0.963530	2.354762	0.200243	0.087292	-1.370329	-0.377225	0.083062	-0.302649	-0.863525	-0.008301	-0.681396	0.080523	-0.009713	0.023532	0.786383	0.063672	-0.586648	0.182733	-20.624927	-71.072614	40.973059
54685		7.898389	-1.256376	2.160042	0.448442	-0.168677	-1.542304	-0.287363	0.053108	-0.270891	-0.861328	-0.006104	-0.687988	0.078973	-0.012640	0.021598	0.786808	0.063250	-0.586700	0.180875	-20.369082	-71.106386	40.525867
54686		7.469963	-1.390889	2.037209	0.506248	-0.358407	-1.970470	-0.169918	0.049407	-0.226923	-0.861328	-0.006104	-0.687988	0.074689	-0.013976	0.020365	0.787174	0.063179	-0.586636	0.179509	-20.099438	-71.129512	40.135699
54687		6.939530	-1.482926	1.911394	0.524953	-0.524524	-2.501131	-0.074503	0.041382	-0.175951	-0.854736	-0.003662	-0.690186	0.069386	-0.014883	0.019105	0.787376	0.063377	-0.586541	0.178863	-19.900998	-71.142999	39.899478
54688		6.640803	-1.677959	1.913404	0.522522	-0.775825	-2.762723	-0.016485	0.047778	-0.114463	-0.856934	-0.005859	-0.690186	0.066403	-0.016816	0.019120	0.787587	0.063581	-0.586380	0.178389	-19.721053	-71.144184	39.696988
54689		6.472901	-2.074566	1.639829	0.872940	-1.093848	-2.961937	0.006866	0.008684	-0.048311	-0.865479	-0.012939	-0.683594	0.064725	-0.020762	0.016395	0.787472	0.064110	-0.586261	0.179097	-19.706958	-71.136566	39.786279
54690		6.294653	-2.095932	1.420867	1.036145	-1.083464	-3.195516	0.106243	0.051724	0.001589	-0.861084	-0.010498	-0.685791	0.062950	-0.020966	0.014181	0.787552	0.064452	-0.586011	0.179441	-19.638069	-71.112960	39.775349
54691		6.074394	-1.864229	1.438840	0.885699	-0.918586	-3.423978	0.202093	0.066544	0.037739	-0.860840	-0.014893	-0.687988	0.060752	-0.018645	0.014349	0.787601	0.064808	-0.585747	0.179961	-19.598035	-71.084038	39.809244
54692		6.100519	-1.493440	1.150687	1.024938	-0.476403	-3.528317	0.295128	0.063331	0.061947	-0.856445	-0.017090	-0.690186	0.061013	-0.014932	0.011466	0.787597	0.065707	-0.585300	0.181099	-19.509740	-71.042620	39.892187
54693		6.289865	-1.001321	1.097319	0.946845	0.040257	-3.419643	0.329869	0.038222	0.080514	-0.862793	-0.021729	-0.690186	0.062905	-0.010006	0.010945	0.787415	0.066851	-0.584922	0.182688	-19.466213	-71.010508	40.077799
54694		6.437760	-0.585171	1.133017	0.801871	0.447951	-3.314437	0.346952	0.010239	0.096700	-0.860840	-0.019287	-0.690186	0.064381	-0.005840	0.011317	0.787203	0.067899	-0.584645	0.184097	-19.432118	-70.991165	40.249493
54695		6.691109	-0.227251	1.126541	0.735688	0.836269	-3.115591	0.367797	-0.054241	0.106712	-0.863037	-0.017334	-0.692383	0.066909	-0.002258	0.011279	0.786748	0.069004	-0.584672	0.185537	-19.456436	-71.011777	40.485830
54696		7.065252	0.221147	1.193499	0.592987	1.307711	-2.789199	0.384365	-0.135177	0.119314	-0.860596	-0.021729	-0.681396	0.070643	0.002231	0.011987	0.786071	0.070268	-0.584936	0.187093	-19.517635	-71.066620	40.780922
54697		7.670895	0.664347	1.173155	0.574487	1.850491	-2.269088	0.379589	-0.227388	0.140205	-0.867188	-0.026367	-0.687988	0.076691	0.006675	0.011831	0.785042	0.071490	-0.585645	0.188725	-19.704088	-71.172904	41.202592
54698		8.265415	1.067733	1.360273	0.373787	2.283709	-1.691580	0.345957	-0.252674	0.160520	-0.863037	-0.019531	-0.681396	0.082628	0.010720	0.013726	0.783989	0.072591	-0.586416	0.190287	-19.923828	-71.282531	41.641531
54699		8.605892	1.301862	1.702911	0.031070	2.455604	-1.290650	0.298023	-0.221727	0.182755	-0.871582	-0.028564	-0.683594	0.086028	0.013072	0.017144	0.782960	0.073399	-0.587181	0.191846	-20.217917	-71.377163	42.130589
54700		8.738912	1.650522	2.177154	-0.522692	2.643117	-1.062061	0.223008	-0.225028	0.191186	-0.864990	-0.021973	-0.667969	0.087349	0.016564	0.021888	0.781995	0.073901	-0.587967	0.193176	-20.548611	-71.464400	42.611747
54701		8.959013	1.386560	2.226255	-0.442547	2.434210	-0.811501	0.041424	-0.270024	0.190971	-0.876221	-0.022217	-0.674561	0.089547	0.013946	0.022386	0.780959	0.073576	-0.589227	0.193652	-21.021512	-71.589950	43.093290
54702		9.141938	0.635204	1.509252	0.499142	2.039270	-0.765671	-0.168801	-0.294004	0.187674	-0.869873	-0.015381	-0.672363	0.091391	0.006451	0.015221	0.779935	0.072624	-0.590655	0.193788	-21.624803	-71.712247	43.624488
54703		9.538545	-0.399731	1.421789	1.036324	1.216187	-0.293656	-0.225036	-0.223376	0.157414	-0.876709	-0.013428	-0.665771	0.095373	-0.003906	0.014329	0.779132	0.071360	-0.591962	0.193500	-22.193672	-71.814165	44.060456
54704		9.820646	-0.483653	2.539256	0.104854	0.830163	0.307915	-0.239566	-0.172657	0.133031	-0.876953	-0.006592	-0.665771	0.098188	-0.004741	0.025483	0.778539	0.070174	-0.592962	0.193257	-22.681448	-71.880879	44.426787
54705		10.177020	-1.325755	1.847726	1.089409	0.376076	0.551437	-0.296770	-0.337125	0.116649	-0.874512	-0.013184	-0.663574	0.101747	-0.013171	0.018668	0.777452	0.068766	-0.594811	0.192458	-23.329580	-72.053131	44.885304
54706		10.919830	-1.779022	1.371400	1.810399	0.281523	1.184194	-0.142605	-0.325897	0.077857	-0.879395	-0.004639	-0.656982	0.109183	-0.017738	0.013905	0.776417	0.068267	-0.596290	0.192233	-23.790965	-72.210748	45.281633
54707		11.130496	-1.766994	1.365733	1.819595	0.331822	1.387953	0.057864	-0.267492	0.013578	-0.881836	-0.000244	-0.659180	0.111288	-0.017666	0.013801	0.775495	0.068675	-0.597425	0.192286	-24.004903	-72.366030	45.529399
54708		11.658875	-1.858123	0.987795	2.277291	0.474981	1.803937	0.204877	-0.327931	-0.053580	-0.883545	-0.007080	-0.648193	0.116567	-0.018623	0.010050	0.774457	0.069918	-0.598530	0.192587	-24.062822	-72.554391	45.710649
54709		12.986458	-2.481661	0.117656	3.541922	0.458865	2.917774	0.197085	-0.328925	-0.122965	-0.881104	-0.011475	-0.648193	0.129847	-0.024898	0.001366	0.773385	0.071275	-0.599765	0.192553	-24.059403	-72.774674	45.811174
54710		14.122813	-2.177757	0.993283	2.858200	0.654337	4.208210	0.280373	-0.066704	-0.142010	-0.883301	-0.013672	-0.654785	0.141209	-0.021892	0.009949	0.773183	0.072822	-0.599752	0.192830	-23.730920	-72.846868	45.632826
54711		14.112621	-1.761142	2.253280	1.574102	0.585585	4.488508	0.229330	0.145421	-0.084569	-0.878906	-0.013428	-0.652588	0.141135	-0.017697	0.022410	0.773456	0.073973	-0.599054	0.193465	-23.390806	-72.805301	45.443024
54712		14.068324	-1.128235	3.629873	0.105814	0.678278	4.743937	-0.011079	0.145258	-0.018655	-0.876953	-0.006836	-0.650391	0.140708	-0.011293	0.036197	0.773874	0.073819	-0.598546	0.193422	-23.281692	-72.737453	45.319449
54713		13.874767	-1.478865	4.578083	-0.660659	-0.007104	4.857638	-0.282458	-0.169914	-0.011470	-0.883545	-0.011475	-0.645996	0.138708	-0.014732	0.045920	0.773245	0.073241	-0.599547	0.193060	-23.620223	-72.837651	45.576555
54714		14.106157	-1.729618	4.216849	-0.221128	-0.076157	5.009670	-0.025560	-0.217202	-0.107766	-0.883789	-0.007080	-0.654785	0.141006	-0.017367	0.042324	0.772668	0.073647	-0.600422	0.192496	-23.636141	-72.980670	45.575118
54715		13.146427	-1.461815	3.930121	-0.283574	0.038628	3.983301	0.068345	-0.120547	-0.200105	-0.883545	-0.009277	-0.648193	0.131426	-0.014763	0.039375	0.772296	0.074708	-0.600887	0.192125	-23.415095	-73.103702	45.408050
54716		11.851179	-1.007709	5.916963	-2.513198	-0.537359	3.220782	0.070894	-0.101323	-0.266277	-0.885742	-0.009277	-0.643799	0.118468	-0.010256	0.059226	0.772181	0.075850	-0.601161	0.191280	-23.010296	-73.221472	45.024727
54717		10.194570	-1.279435	6.550497	-3.320947	-1.374683	1.830196	-0.118744	-0.078507	-0.263972	-0.887695	-0.016113	-0.643799	0.101903	-0.012890	0.065553	0.772057	0.076333	-0.601607	0.190186	-22.761060	-73.332349	44.721286
54718		9.196422	-2.044688	7.040020	-3.666957	-2.468618	1.085758	-0.097739	0.059556	-0.342160	-0.883057	-0.020264	-0.650391	0.091950	-0.020570	0.070383	0.772558	0.076898	-0.601390	0.188602	-22.191463	-73.380107	44.065407
54719		8.427425	-2.716523	5.774637	-2.420744	-2.822130	0.082916	-0.274197	0.072234	-0.436615	-0.882813	-0.022461	-0.654785	0.084236	-0.027270	0.057753	0.773157	0.077183	-0.601278	0.186375	-21.572019	-73.442665	43.282281
54720		8.485308	-3.837333	3.042765	0.481864	-2.938441	-0.479032	-0.266162	-0.018496	-0.650276	-0.885010	-0.027100	-0.641602	0.084725	-0.038608	0.030487	0.773766	0.078095	-0.601394	0.183062	-20.586538	-73.591034	42.092557
54721		9.001520	-1.599813	3.476727	-0.618802	-0.985873	-0.100894	0.104618	0.290329	-0.841303	-0.880127	-0.031250	-0.652588	0.089997	-0.016395	0.034628	0.775235	0.080907	-0.599886	0.180560	-18.844323	-73.601625	40.375914
54722		8.732464	0.569762	5.699768	-3.426252	0.149228	0.051667	0.049009	0.656310	-0.881466	-0.877686	-0.037842	-0.656982	0.087535	0.005298	0.056712	0.777930	0.083115	-0.596983	0.177563	-16.827247	-73.403111	38.298527
54723		9.533710	0.412267	5.939361	-3.318476	0.017251	0.926225	-0.191102	0.533097	-0.894291	-0.870605	-0.044189	-0.665771	0.095512	0.003752	0.059135	0.780230	0.084813	-0.594693	0.174321	-15.080320	-73.248593	36.427170
54724		11.596406	-0.117892	5.197890	-1.904060	0.070711	2.752235	-0.246906	0.253365	-0.953518	-0.872559	-0.048828	-0.667969	0.116023	-0.001668	0.051834	0.781872	0.086430	-0.593559	0.169982	-13.366051	-73.247222	34.486112
54725		13.157575	-0.068877	4.819019	-1.149351	0.415836	4.146342	-0.223662	0.165106	-0.914964	-0.876709	-0.055664	-0.670166	0.131611	-0.001237	0.048083	0.783060	0.088526	-0.592623	0.166668	-11.800582	-73.261166	32.818774
54726		12.644436	-0.212797	4.188273	-0.594142	0.338708	3.491460	-0.211766	0.280705	-0.683587	-0.865479	-0.059570	-0.676758	0.126495	-0.002516	0.041708	0.784513	0.089453	-0.591444	0.163497	-10.565526	-73.184678	31.398915
54727		11.075077	-0.960018	4.064439	-0.541698	-0.588878	1.996551	-0.126565	0.381477	-0.417876	-0.858643	-0.061523	-0.674561	0.110808	-0.009806	0.040439	0.785867	0.090264	-0.589792	0.162513	-9.815913	-73.005850	30.639800
54728		9.594800	-1.627253	4.241822	-0.786243	-1.503238	0.666967	-0.035804	0.350289	-0.218358	-0.860596	-0.068359	-0.676758	0.096004	-0.016370	0.042253	0.787056	0.090446	-0.588396	0.161718	-9.347282	-72.834181	30.124819
54729		8.697912	-2.191454	4.108465	-0.654951	-2.117532	-0.199016	-0.006737	0.259862	-0.106886	-0.862793	-0.066162	-0.679199	0.087021	-0.021960	0.040972	0.787754	0.091003	-0.587202	0.162343	-9.141518	-72.686209	30.021672
54730		8.294293	-2.751832	3.832156	-0.285533	-2.603763	-0.637060	0.024861	0.248872	-0.033084	-0.860840	-0.063965	-0.685791	0.082986	-0.027537	0.038215	0.788464	0.090959	-0.586237	0.162410	-9.016443	-72.553769	29.902195
54731		8.080783	-3.250927	3.517779	0.147554	-2.984307	-0.906822	0.046554	0.246175	0.024291	-0.858398	-0.065918	-0.685791	0.080855	-0.032508	0.035071	0.788987	0.091204	-0.585172	0.163568	-9.043778	-72.406155	30.050835
54732		7.729629	-3.291003	3.188731	0.384575	-2.955128	-1.335356	0.120900	0.227865	0.051531	-0.855957	-0.068115	-0.685791	0.077341	-0.032909	0.031779	0.789520	0.091307	-0.584248	0.164240	-9.022577	-72.277901	30.097852
54733		7.539122	-2.679240	2.969284	0.331176	-2.330289	-1.609433	0.212699	0.197303	0.059911	-0.853516	-0.072510	-0.687988	0.075428	-0.026801	0.029590	0.789792	0.092173	-0.583236	0.166040	-9.026998	-72.152973	30.328407
54734		7.391487	-1.869956	2.808119	0.155201	-1.541439	-1.836711	0.275333	0.179257	0.071200	-0.858398	-0.068115	-0.690186	0.073947	-0.018712	0.027989	0.790092	0.092865	-0.582382	0.167218	-8.965124	-72.050415	30.425667
54735		7.014005	-1.179878	2.542678	0.051643	-0.861786	-2.308807	0.287810	0.172128	0.098932	-0.849121	-0.074463	-0.692383	0.070168	-0.011801	0.025349	0.790227	0.093883	-0.581439	0.169281	-8.995398	-71.938252	30.716684
54736		6.528089	-0.778376	2.264180	0.031574	-0.464361	-2.874987	0.300540	0.189542	0.122484	-0.853516	-0.074707	-0.692383	0.065307	-0.007778	0.022568	0.790497	0.094515	-0.580543	0.170739	-9.003929	-71.825226	30.903291
54737		6.118738	-0.410126	2.175412	-0.126333	-0.150312	-3.308765	0.312004	0.176847	0.128729	-0.851074	-0.076904	-0.698975	0.061209	-0.004096	0.021694	0.790577	0.095702	-0.579512	0.173191	-9.056178	-71.703894	31.263614
54738		5.911424	0.125844	2.368864	-0.551874	0.246603	-3.471796	0.282941	0.091489	0.129012	-0.851318	-0.074463	-0.701172	0.059124	0.001263	0.023663	0.790559	0.096328	-0.579017	0.174576	-9.110190	-71.645603	31.487698
54739		6.141322	0.420718	2.145850	-0.408740	0.639079	-3.337965	0.189311	-0.006691	0.117962	-0.855713	-0.074707	-0.692383	0.061410	0.004223	0.021465	0.790070	0.097561	-0.578719	0.177076	-9.272326	-71.624032	31.962945
54740		6.379505	0.415850	1.968902	-0.192655	0.740279	-3.167203	0.138465	-0.065969	0.105856	-0.851318	-0.074707	-0.692383	0.063786	0.004179	0.019713	0.789683	0.097820	-0.578959	0.177874	-9.412714	-71.656499	32.190818
54741		6.511507	0.212691	1.666281	0.180030	0.688138	-3.125722	0.077833	-0.105055	0.067050	-0.858398	-0.068115	-0.692383	0.065106	0.002142	0.016698	0.789163	0.098184	-0.579319	0.178806	-9.574192	-71.707286	32.459164
54742		6.655565	-0.161593	1.509910	0.496905	0.425594	-3.017509	0.037289	-0.066205	0.016473	-0.857910	-0.074951	-0.687988	0.066551	-0.001613	0.015121	0.788904	0.098303	-0.579605	0.178958	-9.621397	-71.748080	32.527701
54743		6.693195	-0.580091	1.407029	0.758052	0.085487	-2.991167	0.015607	-0.056783	-0.036928	-0.857910	-0.077148	-0.694580	0.066927	-0.005814	0.014089	0.788673	0.098484	-0.579848	0.179085	-9.640051	-71.785983	32.570882
54744		6.878594	-0.622654	1.253960	0.955435	0.128170	-2.859567	0.007778	-0.058299	-0.080996	-0.855713	-0.076904	-0.690186	0.068780	-0.006255	0.012559	0.788538	0.098761	-0.580082	0.178771	-9.534835	-71.831612	32.461090
54745		7.060468	-0.663950	1.159516	1.099772	0.150387	-2.713153	-0.000240	-0.078857	-0.115445	-0.857666	-0.079346	-0.687988	0.070596	-0.006680	0.011623	0.788247	0.099510	-0.580283	0.178988	-9.412510	-71.884958	32.417928
54746		7.200015	-0.643272	0.889809	1.359714	0.278968	-2.662925	-0.006373	-0.170239	-0.151503	-0.855469	-0.079102	-0.687988	0.071988	-0.006487	0.008960	0.787857	0.100036	-0.580934	0.178299	-9.223605	-72.000220	32.211638
54747		7.281695	-0.567359	0.680998	1.523424	0.424286	-2.649738	-0.039000	-0.256559	-0.179851	-0.862061	-0.081543	-0.690186	0.072803	-0.005738	0.006904	0.787168	0.100835	-0.581875	0.177822	-9.051680	-72.162228	32.061519
54748		7.300020	-0.396316	0.593694	1.520860	0.595067	-2.661979	-0.053670	-0.358106	-0.201597	-0.864014	-0.086182	-0.683594	0.072985	-0.004035	0.006069	0.786296	0.101487	-0.583279	0.176703	-8.847393	-72.387847	31.810996
54749		7.592974	-0.414689	0.668423	1.514179	0.575515	-2.352933	-0.118037	-0.440092	-0.221709	-0.864258	-0.083984	-0.678955	0.075910	-0.004227	0.006854	0.785100	0.102400	-0.584975	0.175887	-8.682074	-72.659391	31.645279
54750		7.920890	-0.574769	0.874103	1.452666	0.376241	-1.965204	-0.174213	-0.445464	-0.233026	-0.866455	-0.081787	-0.674561	0.079182	-0.005832	0.008922	0.784054	0.102747	-0.586806	0.174245	-8.501247	-72.936682	31.347721
54751		8.209686	-1.016954	1.506064	1.112681	-0.242861	-1.481769	-0.244547	-0.391855	-0.244548	-0.870850	-0.084229	-0.674561	0.082055	-0.010251	0.015234	0.783093	0.103108	-0.588414	0.172924	-8.349582	-73.181442	31.108385
54752		8.352363	-1.362695	1.964632	0.850492	-0.735352	-1.197905	-0.286715	-0.348316	-0.272462	-0.872803	-0.088867	-0.663574	0.083471	-0.013712	0.019811	0.782415	0.103045	-0.589933	0.170844	-8.117526	-73.406299	30.690797
54753		8.697087	-1.100163	1.933782	0.835081	-0.463012	-0.886472	-0.207559	-0.345340	-0.316410	-0.873047	-0.086670	-0.665771	0.086920	-0.011119	0.019499	0.781675	0.103529	-0.591350	0.169031	-7.763439	-73.634912	30.219154
54754		9.712004	-0.620358	2.155616	0.679322	0.005672	0.131802	-0.095060	-0.289012	-0.342581	-0.875000	-0.091064	-0.659180	0.097078	-0.006360	0.021699	0.781123	0.104372	-0.592430	0.167272	-7.248726	-73.829783	29.622452
54755		10.685729	-0.526299	2.630632	0.439616	0.016082	1.195871	-0.072157	-0.238803	-0.318901	-0.875000	-0.091064	-0.654785	0.106817	-0.005424	0.026436	0.780629	0.105296	-0.593303	0.165899	-6.761424	-73.994682	29.093181
54756		11.130285	-0.790461	2.464289	0.780062	-0.145981	1.586912	-0.144249	-0.249199	-0.280466	-0.881592	-0.093506	-0.654785	0.111261	-0.008043	0.024787	0.780163	0.105729	-0.594296	0.164256	-6.365455	-74.160037	28.591683
54757		11.122716	-1.316717	1.731419	1.610440	-0.405271	1.398399	-0.194790	-0.264613	-0.240465	-0.881592	-0.091309	-0.652588	0.111188	-0.013284	0.017474	0.779659	0.105608	-0.595511	0.162311	-6.090166	-74.338647	28.139333
54758		11.331903	-1.241363	1.119652	2.157651	-0.122621	1.436136	-0.166789	-0.231061	-0.223317	-0.881592	-0.093750	-0.645996	0.113292	-0.012531	0.011338	0.779206	0.105766	-0.596477	0.160832	-5.802723	-74.488804	27.737926
54759		11.936100	-0.740644	0.769727	2.406499	0.508969	1.915959	-0.170412	-0.182268	-0.194724	-0.888184	-0.095947	-0.645996	0.119347	-0.007516	0.007812	0.778889	0.105472	-0.597400	0.159127	-5.586934	-74.618915	27.352249
54760		12.863281	-0.695259	0.335308	2.981162	0.790578	2.699203	-0.169248	-0.194504	-0.152900	-0.881836	-0.086914	-0.643799	0.128624	-0.007048	0.003484	0.778484	0.105381	-0.598260	0.157934	-5.428971	-74.743550	27.084140
54761		13.689773	-1.102195	-0.548879	4.096047	0.793866	3.283802	-0.096078	-0.228373	-0.122482	-0.879150	-0.095947	-0.634766	0.136897	-0.011108	-0.005327	0.777912	0.105152	-0.599372	0.156683	-5.335484	-74.898987	26.863580
54762		14.169337	-1.805861	-1.344210	5.162908	0.451402	3.565605	0.053890	-0.168291	-0.122675	-0.881348	-0.095947	-0.643799	0.141694	-0.018142	-0.013328	0.777440	0.105817	-0.599969	0.156290	-5.101647	-75.006771	26.649616
54763		14.554502	-2.623320	-1.117087	5.345378	-0.363746	4.016912	0.246864	0.032745	-0.118786	-0.883789	-0.093750	-0.643799	0.145528	-0.026306	-0.011227	0.777468	0.106813	-0.599756	0.156289	-4.742063	-75.009934	26.372782
54764		15.255144	-3.774593	1.269470	3.824753	-2.192337	5.324786	0.325437	0.333987	-0.023586	-0.876953	-0.097900	-0.641357	0.152568	-0.037784	0.012378	0.778278	0.107844	-0.598239	0.157362	-4.473107	-74.825725	26.283550
54765		15.442761	-3.396194	3.045466	2.192964	-2.421319	5.954858	0.353916	0.412235	0.131422	-0.881348	-0.098145	-0.645996	0.154512	-0.033914	0.030076	0.779082	0.108492	-0.596540	0.159379	-4.557554	-74.598614	26.595880
54766		15.168638	-1.529232	2.701025	1.760482	-0.561694	5.559584	0.301331	0.037267	0.314917	-0.874512	-0.102295	-0.639160	0.151715	-0.015094	0.026959	0.778742	0.108653	-0.596374	0.161535	-5.054710	-74.567646	27.286857
54767		14.199406	-0.382235	2.156476	1.546700	0.620024	4.457650	0.230313	-0.218456	0.464504	-0.881592	-0.093750	-0.636963	0.141979	-0.003518	0.021716	0.777531	0.107974	-0.597518	0.163580	-5.994498	-74.688258	28.337282
54768		12.355415	0.183517	3.273135	-0.134843	0.551300	2.957631	0.313450	-0.009252	0.486920	-0.881592	-0.091553	-0.639160	0.123548	0.002085	0.032740	0.776898	0.107701	-0.597609	0.166414	-6.853978	-74.667609	29.410819
54769		10.411181	-0.210745	4.520356	-1.566816	-0.477561	1.420639	0.248056	0.018737	0.468774	-0.883789	-0.095947	-0.636963	0.104121	-0.001919	0.045191	0.776359	0.106833	-0.597841	0.168641	-7.762134	-74.646632	30.432800
54770		9.831479	-0.481542	4.156574	-1.300647	-0.642482	0.773259	0.119052	-0.356220	0.425626	-0.890625	-0.089600	-0.632568	0.098251	-0.004631	0.041738	0.774833	0.106279	-0.599399	0.170469	-8.711162	-74.818858	31.483408
54771		10.305969	-0.106278	3.232597	-0.572827	0.129979	0.972890	0.098160	-0.363858	0.431724	-0.890625	-0.089600	-0.628174	0.103003	-0.000856	0.032513	0.773303	0.105090	-0.601274	0.171543	-9.742285	-75.014236	32.499839
54772		9.886326	0.239796	4.921371	-2.337821	-0.199071	0.981368	0.191105	0.153604	0.512370	-0.888916	-0.080566	-0.634766	0.098895	0.002604	0.049140	0.773186	0.104113	-0.600835	0.174190	-10.676019	-74.880609	33.576317
54773		8.048788	1.150789	6.437341	-4.445904	-0.139659	-0.444610	0.298885	0.443732	0.654886	-0.882324	-0.078125	-0.639160	0.080592	0.011676	0.064212	0.773730	0.102543	-0.599444	0.177467	-11.737266	-74.581762	34.788114
54774		6.746295	2.059773	5.676412	-4.409131	0.822163	-1.947558	0.220464	0.215244	0.803352	-0.880615	-0.069336	-0.634766	0.067441	0.020806	0.056714	0.773505	0.100753	-0.598874	0.181356	-13.160135	-74.366929	36.392148
54775		6.958376	1.639612	4.625976	-3.275868	0.914657	-2.006359	0.112039	0.150906	0.938146	-0.882813	-0.067139	-0.641357	0.069541	0.016696	0.046217	0.772958	0.098095	-0.598791	0.185371	-14.940218	-74.164397	38.291400
54776		7.050861	0.684142	4.899093	-3.123408	0.022928	-1.786035	0.110632	0.399971	1.042923	-0.881348	-0.051514	-0.643799	0.070570	0.007182	0.048854	0.773085	0.094985	-0.597697	0.189938	-16.688431	-73.785479	40.172392
54777		7.171930	0.047646	5.004347	-2.932342	-0.491740	-1.588256	0.038245	0.487952	1.089080	-0.879395	-0.049072	-0.652588	0.071837	0.000858	0.049868	0.773398	0.091296	-0.596402	0.194487	-18.458130	-73.340229	42.027421
54778		8.361591	0.070574	4.980959	-2.667996	-0.138992	-0.453588	-0.073335	0.416541	1.077605	-0.880127	-0.033447	-0.654785	0.083714	0.001175	0.049635	0.773574	0.087350	-0.595397	0.198634	-20.187796	-72.914729	43.787109
54779		10.311024	-0.681987	4.752915	-1.759505	-0.227707	1.422239	-0.287067	0.241617	1.015444	-0.875732	-0.031006	-0.663574	0.103200	-0.006228	0.047414	0.773316	0.082919	-0.595274	0.201881	-21.994027	-72.582524	45.504701
54780		12.840848	-1.578619	4.549526	-0.717288	-0.310888	3.879111	-0.288489	0.010325	0.788910	-0.878906	-0.011230	-0.656982	0.128472	-0.015214	0.045511	0.772624	0.079403	-0.595899	0.204087	-23.500566	-72.405920	46.907200
54781		14.237692	-2.298393	3.348814	0.888590	-0.126735	4.965775	-0.248898	-0.023442	0.450989	-0.876709	-0.013428	-0.663574	0.142424	-0.022621	0.033533	0.772098	0.077144	-0.596474	0.205259	-24.450999	-72.315290	47.769533
54782		12.798187	-1.731766	2.503572	1.109231	0.419318	3.288995	-0.115372	0.323099	0.129245	-0.872314	-0.010986	-0.661377	0.128033	-0.017221	0.024839	0.772933	0.075940	-0.595446	0.205551	-24.514851	-72.119535	47.763280
54783		9.929225	-0.026102	3.805817	-1.300333	0.866446	0.705515	-0.077858	0.507206	-0.031369	-0.874756	-0.008789	-0.665771	0.099388	-0.000262	0.037806	0.774427	0.075262	-0.593581	0.205571	-24.173704	-71.862909	47.375423
54784		8.382498	1.159842	4.390586	-2.603312	1.388365	-0.747151	-0.262610	0.055276	-0.106077	-0.876709	-0.013428	-0.663574	0.083843	0.011612	0.043867	0.774759	0.074462	-0.593648	0.204414	-24.141559	-71.862319	47.179369
54785		8.893842	1.277664	3.567693	-1.815232	1.906923	-0.510545	-0.376699	-0.199038	-0.163579	-0.876709	-0.011230	-0.667969	0.088913	0.012771	0.035741	0.774446	0.073513	-0.594867	0.202392	-24.274114	-72.015795	47.058269
54786		9.223660	1.075920	3.030609	-1.192282	1.983259	-0.322522	-0.375957	-0.047366	-0.191241	-0.883789	-0.004639	-0.656982	0.092240	0.010728	0.030308	0.774596	0.072632	-0.595411	0.200528	-24.242053	-72.089004	46.794264
54787		8.857343	0.518549	2.979856	-0.995801	1.409514	-0.613633	-0.421422	0.124973	-0.221415	-0.874512	-0.010986	-0.670166	0.088598	0.005150	0.029732	0.775307	0.071320	-0.595419	0.198211	-24.074425	-72.089658	46.323103
54788		8.473150	-0.296880	2.734092	-0.520778	0.665567	-0.944574	-0.380913	0.219434	-0.236276	-0.874756	-0.006592	-0.670166	0.084758	-0.003017	0.027254	0.776289	0.070287	-0.594912	0.196252	-23.779441	-72.033170	45.779782
54789		8.168805	-0.803972	2.540974	-0.199114	0.197287	-1.224690	-0.283627	0.172328	-0.237341	-0.875000	-0.004395	-0.677002	0.081700	-0.008101	0.025351	0.777112	0.069674	-0.594488	0.194490	-23.449541	-72.002392	45.252419
54790		8.119965	-1.485775	2.063934	0.491850	-0.283758	-1.322768	-0.221877	0.094123	-0.230245	-0.874756	-0.006592	-0.672363	0.081192	-0.014928	0.020618	0.777653	0.069363	-0.594309	0.192982	-23.164212	-72.008664	44.814896
54791		8.214291	-1.920775	1.718850	0.994845	-0.558284	-1.279401	-0.163554	0.043571	-0.237186	-0.874756	-0.006592	-0.677002	0.082124	-0.019291	0.017186	0.778000	0.069410	-0.594264	0.191700	-22.873543	-72.042717	44.420038
54792		7.751256	-2.307013	1.525806	1.219337	-0.962407	-1.730650	-0.091868	0.074245	-0.230400	-0.874756	-0.008789	-0.679199	0.077492	-0.023152	0.015240	0.778433	0.069624	-0.594035	0.190569	-22.525741	-72.058086	43.995253
54793		6.818022	-2.608330	1.463675	1.190442	-1.430206	-2.603770	-0.006324	0.067966	-0.205550	-0.872314	-0.013184	-0.670166	0.068158	-0.026153	0.014614	0.778759	0.070201	-0.593741	0.189942	-22.177637	-72.069447	43.642623
54794		6.329306	-2.383947	1.383976	1.076019	-1.312227	-3.120982	0.121418	0.054246	-0.174089	-0.878906	-0.015625	-0.672363	0.063276	-0.023903	0.013808	0.779004	0.071097	-0.593404	0.189656	-21.812199	-72.081725	43.327796
54795		6.340784	-1.711691	1.447609	0.775893	-0.723321	-3.171469	0.182502	0.133109	-0.130253	-0.878906	-0.013428	-0.677002	0.063406	-0.017171	0.014418	0.779444	0.071856	-0.592802	0.189445	-21.430858	-72.052234	42.993067
54796		6.285836	-1.217094	1.652800	0.406735	-0.353336	-3.222202	0.160716	0.230083	-0.086121	-0.872070	-0.015381	-0.681396	0.062872	-0.012211	0.016446	0.780110	0.072478	-0.591773	0.189681	-21.075886	-71.951123	42.712812
54797		6.169570	-0.923113	1.608424	0.325902	-0.092005	-3.379334	0.185071	0.294796	-0.050107	-0.867676	-0.012939	-0.683594	0.061717	-0.009261	0.015985	0.780872	0.073063	-0.590514	0.190250	-20.748167	-71.810828	42.485851
54798		6.165800	-0.527696	1.436033	0.346944	0.331089	-3.478043	0.229465	0.284177	-0.019879	-0.864990	-0.021729	-0.683594	0.061678	-0.005299	0.014267	0.781606	0.073706	-0.589229	0.190967	-20.436128	-71.666362	42.291859
54799		6.327645	-0.072559	1.412167	0.245368	0.793898	-3.382440	0.256320	0.196467	0.004709	-0.864990	-0.021729	-0.683594	0.063290	-0.000742	0.014059	0.781996	0.074576	-0.588252	0.192044	-20.217726	-71.561677	42.239506
54800		6.580062	0.241883	1.309781	0.281340	1.171492	-3.208166	0.260508	0.060905	0.023847	-0.866943	-0.028564	-0.687988	0.065804	0.002410	0.013081	0.782016	0.075424	-0.587824	0.192939	-20.095840	-71.528189	42.264501
54801		6.877873	0.350071	1.012387	0.572431	1.434328	-3.025373	0.273772	-0.071839	0.024742	-0.864990	-0.026123	-0.685791	0.068775	0.003495	0.010153	0.781655	0.076400	-0.587926	0.193705	-20.038754	-71.569702	42.351822
54802		7.252235	0.296241	0.835507	0.829470	1.522036	-2.715074	0.287157	-0.161523	0.011785	-0.866699	-0.032959	-0.676758	0.072515	0.002955	0.008418	0.781020	0.077603	-0.588335	0.194546	-20.013612	-71.658335	42.494862
54803		7.402834	0.614741	1.009165	0.570246	1.774305	-2.551496	0.366265	-0.238174	0.000458	-0.875732	-0.031006	-0.679199	0.074016	0.006129	0.010191	0.780183	0.079084	-0.589014	0.195254	-19.956284	-71.797603	42.616241
54804		7.814411	0.665488	1.109173	0.532295	1.859267	-2.131681	0.302866	-0.389830	-0.005529	-0.871338	-0.033203	-0.674561	0.078122	0.006636	0.011254	0.778879	0.080621	-0.590286	0.195982	-20.032592	-72.012592	42.875264
54805		8.756155	0.265587	0.897529	1.061930	1.751478	-1.248175	0.207024	-0.413809	-0.000240	-0.880371	-0.029053	-0.670166	0.087543	0.002646	0.009159	0.777553	0.081655	-0.591831	0.196165	-20.188226	-72.249815	43.125197
54806		9.592726	-0.485221	0.572819	1.809247	1.347812	-0.458869	0.064549	-0.261015	0.012478	-0.877930	-0.033447	-0.665771	0.095920	-0.004848	0.005852	0.776702	0.082084	-0.592839	0.196310	-20.360641	-72.391624	43.341188
54807		10.533654	-0.809073	1.716527	1.114431	0.830615	0.799902	0.112048	-0.035748	0.012225	-0.877686	-0.035645	-0.667969	0.105334	-0.008094	0.017180	0.776467	0.082399	-0.593025	0.196545	-20.378901	-72.424481	43.404455
54808		10.983425	-0.686429	2.806183	0.190413	0.641325	1.524593	0.060917	-0.044324	0.027172	-0.880371	-0.031250	-0.663574	0.109829	-0.006858	0.028084	0.776245	0.082558	-0.593201	0.196825	-20.444072	-72.446866	43.505639
54809		11.921273	-0.846524	2.363947	0.834548	0.844021	2.312191	0.076333	-0.233236	0.028500	-0.877686	-0.035645	-0.654785	0.119186	-0.008457	0.023775	0.775447	0.082852	-0.594190	0.196863	-20.627355	-72.582179	43.712412
54810		12.658304	-0.634292	2.291464	0.940082	1.206747	2.975811	0.102166	-0.292425	0.062353	-0.882568	-0.031250	-0.661377	0.126551	-0.006315	0.023096	0.774435	0.083310	-0.595301	0.197299	-20.892319	-72.730184	44.047551
54811		12.411516	-0.667162	1.700713	1.383059	1.328551	2.585102	0.259263	-0.368116	0.089253	-0.889160	-0.029297	-0.652588	0.124087	-0.006638	0.017227	0.773093	0.084245	-0.596672	0.198020	-21.174394	-72.926871	44.462045
54812		12.430307	-0.801196	0.805793	2.190949	1.529746	2.380064	0.303808	-0.393983	0.103240	-0.886719	-0.033691	-0.652588	0.124291	-0.007960	0.008291	0.771646	0.085460	-0.597988	0.199171	-21.476761	-73.119607	44.956434
54813		12.680176	-1.491330	-0.266648	3.429607	1.345044	2.414763	0.234156	-0.356939	0.082834	-0.891113	-0.038330	-0.652588	0.126812	-0.014858	-0.002458	0.770281	0.086407	-0.599337	0.199991	-21.791244	-73.310885	45.412865
54814		12.944294	-1.864958	0.360116	3.052031	0.825479	2.882437	0.318418	-0.120886	0.043548	-0.893066	-0.042969	-0.643799	0.129445	-0.018627	0.003650	0.769697	0.087583	-0.599555	0.201072	-21.799875	-73.369876	45.608551
54815		12.918710	-1.291060	2.013895	1.339933	0.716973	3.237454	0.334966	0.100237	0.056487	-0.879639	-0.042480	-0.645996	0.129201	-0.012908	0.020053	0.769788	0.088338	-0.599054	0.201883	-21.655015	-73.326942	45.596165
54816		13.126991	-0.982591	3.135736	0.269715	0.625743	3.702190	0.073113	0.107897	0.082933	-0.888916	-0.036133	-0.648193	0.131291	-0.009783	0.031283	0.769955	0.088222	-0.598655	0.202481	-21.711667	-73.255939	45.695319
54817		13.021225	-0.907596	3.759806	-0.343849	0.441222	3.759314	-0.137095	-0.120887	0.019240	-0.893799	-0.029541	-0.645996	0.130190	-0.009038	0.037683	0.769586	0.087650	-0.599403	0.201920	-21.936243	-73.331470	45.822669
54818		13.072486	-0.995246	2.828843	0.506232	0.708737	3.571037	0.034055	-0.244955	-0.135580	-0.888916	-0.036133	-0.645996	0.130683	-0.010046	0.028447	0.768933	0.088395	-0.600304	0.201404	-21.878322	-73.494657	45.778868
54819		12.462242	0.054793	3.787367	-0.910940	1.136696	3.130751	0.233965	-0.007097	-0.257945	-0.890869	-0.040527	-0.645996	0.124622	0.000343	0.037879	0.768908	0.090125	-0.600128	0.201256	-21.346973	-73.569386	45.377731
54820		10.899454	0.803875	5.519194	-3.053267	0.805122	2.016726	0.137409	0.042446	-0.293568	-0.886230	-0.044922	-0.645996	0.109018	0.007841	0.055174	0.769228	0.091451	-0.599747	0.200570	-20.733468	-73.611197	44.816506
54821		9.715069	0.469052	6.113874	-3.663154	0.014114	1.075980	-0.070992	0.033406	-0.289652	-0.890625	-0.044922	-0.648193	0.097168	0.004572	0.061121	0.769581	0.091955	-0.599679	0.199184	-20.253143	-73.665389	44.260656
54822		8.647713	-1.362821	6.321880	-3.284877	-1.942110	0.289003	-0.246447	0.178113	-0.329912	-0.890625	-0.047363	-0.643799	0.086511	-0.013693	0.063159	0.770515	0.091778	-0.599140	0.197268	-19.697634	-73.638314	43.530842
54823		7.668895	-2.864255	6.683260	-3.167661	-3.636268	-0.409215	-0.215156	0.270229	-0.437414	-0.883789	-0.049316	-0.650391	0.076716	-0.028738	0.066760	0.771764	0.091946	-0.598244	0.195013	-18.879251	-73.590732	42.539313
54824		7.074255	-3.930597	4.499372	-0.896758	-3.918629	-1.471280	-0.161885	0.184606	-0.601394	-0.881348	-0.051270	-0.650391	0.070666	-0.039482	0.044960	0.772933	0.092900	-0.597464	0.192303	-17.775152	-73.603165	41.287931
54825		7.274845	-3.783602	3.326984	0.156632	-3.352141	-1.624525	0.139287	0.296540	-0.826024	-0.880615	-0.066895	-0.656982	0.072640	-0.038159	0.033136	0.774460	0.095625	-0.595874	0.189738	-16.025491	-73.586963	39.552178
54826		7.539877	-1.431246	4.441651	-1.673122	-1.636783	-1.260069	0.343341	0.540189	-0.925763	-0.871338	-0.073242	-0.659180	0.075451	-0.014738	0.044188	0.776733	0.099158	-0.593059	0.187443	-13.854353	-73.429541	37.489305
54827		8.018866	0.068077	5.037130	-2.627127	-0.466476	-0.726469	0.137674	0.567396	-0.893694	-0.871094	-0.079834	-0.661377	0.080333	0.000287	0.050144	0.779170	0.101699	-0.590342	0.184517	-11.877435	-73.232860	35.486287
54828		9.860940	0.444241	4.896868	-2.149118	0.185290	0.992914	-0.026254	0.397655	-0.843332	-0.866455	-0.084229	-0.670166	0.098724	0.004033	0.048772	0.781089	0.103677	-0.588437	0.181366	-10.204912	-73.107099	33.719456
54829		12.286132	0.747728	4.678249	-1.426611	0.877595	3.248251	-0.142376	0.240984	-0.726389	-0.865967	-0.093018	-0.672363	0.122944	0.007064	0.046629	0.782447	0.105077	-0.587291	0.178396	-8.898133	-73.045823	32.283189
54830		14.088659	0.768417	3.871351	-0.223028	1.423636	4.747231	-0.173007	0.167825	-0.526727	-0.861572	-0.092773	-0.672363	0.140939	0.007346	0.038589	0.783460	0.105756	-0.586564	0.175925	-7.996773	-73.000656	31.233343
54831		13.612728	-0.062869	3.442328	0.421279	0.720547	4.203838	-0.152207	0.349161	-0.279670	-0.863525	-0.099609	-0.672363	0.136186	-0.000793	0.034186	0.784752	0.105696	-0.585213	0.174697	-7.508669	-72.828054	30.642811
54832		10.920896	-1.387969	3.688159	0.100517	-0.987501	1.754916	-0.114563	0.474086	-0.102132	-0.856934	-0.097168	-0.681396	0.109289	-0.013914	0.036631	0.786249	0.105089	-0.583452	0.174223	-7.298549	-72.571938	30.350186
54833		9.115486	-2.499442	3.684152	0.116501	-2.263657	0.075410	-0.068757	0.355195	-0.005895	-0.859131	-0.097168	-0.681396	0.091219	-0.024984	0.036688	0.787293	0.104466	-0.582178	0.174142	-7.262623	-72.377722	30.261495
54834		8.552473	-2.967168	3.294150	0.519608	-2.620658	-0.557288	-0.010819	0.228451	0.060211	-0.848145	-0.092285	-0.683594	0.085571	-0.029644	0.032845	0.787874	0.104008	-0.581373	0.174478	-7.346378	-72.249226	30.339091
54835		8.399836	-2.889577	2.615527	1.062983	-2.308534	-0.908274	0.063768	0.234521	0.093735	-0.852783	-0.090332	-0.692383	0.084042	-0.028865	0.026048	0.788374	0.103809	-0.580480	0.175307	-7.454101	-72.113705	30.503913
54836		8.215346	-2.310350	2.485119	0.920070	-1.741834	-1.145228	0.167804	0.308189	0.112917	-0.850586	-0.090088	-0.687988	0.082205	-0.023078	0.024705	0.789044	0.103831	-0.579230	0.176411	-7.507017	-71.935900	30.656798
54837		8.161299	-1.625255	2.406838	0.725585	-1.074951	-1.247697	0.189050	0.284213	0.113920	-0.850342	-0.092285	-0.694580	0.081656	-0.016229	0.023937	0.789548	0.104152	-0.578000	0.177995	-7.584654	-71.767412	30.899605
54838		8.233289	-0.777918	2.204713	0.601486	-0.198602	-1.277367	0.196888	0.242378	0.107168	-0.845703	-0.096680	-0.692383	0.082364	-0.007757	0.021940	0.790013	0.104362	-0.576977	0.179125	-7.622286	-71.627295	31.054200
54839		8.076353	-0.423760	1.753609	0.824879	0.282592	-1.583357	0.123527	0.204985	0.130523	-0.845703	-0.096680	-0.698975	0.080784	-0.004196	0.017451	0.790353	0.104329	-0.576151	0.180301	-7.762367	-71.503983	31.294237
54840		7.797891	0.276180	1.541315	0.663544	0.968714	-1.946284	0.210850	0.238604	0.106219	-0.843506	-0.094238	-0.698975	0.077996	0.002787	0.015323	0.790796	0.104599	-0.575127	0.181464	-7.787824	-71.365922	31.444651
54841		7.407283	0.916343	1.666663	0.199884	1.453134	-2.307108	0.145103	0.244316	0.092967	-0.843262	-0.101074	-0.698975	0.074089	0.009186	0.016583	0.791286	0.104712	-0.574091	0.182542	-7.833910	-71.221196	31.595619
54842		6.964836	0.976014	1.521785	0.191373	1.497499	-2.777189	0.039958	0.196808	0.061903	-0.845703	-0.098877	-0.698975	0.069660	0.009779	0.015151	0.791736	0.104471	-0.573362	0.183017	-7.890347	-71.110231	31.675542
54843		6.643251	0.717861	1.363240	0.355280	1.274280	-3.122657	-0.029402	0.144680	0.030341	-0.838867	-0.100830	-0.698975	0.066441	0.007191	0.013583	0.792135	0.104002	-0.572918	0.182950	-7.934446	-71.033941	31.677371
54844		6.362582	0.209526	1.264845	0.577683	0.805106	-3.398308	-0.096246	0.118240	-0.012346	-0.841309	-0.094238	-0.703369	0.063633	0.002097	0.012610	0.792498	0.103506	-0.572586	0.182699	-7.963377	-70.973405	31.645763
54845		6.301665	-0.328825	1.065481	0.960809	0.380323	-3.497107	-0.097913	0.133716	-0.053809	-0.841064	-0.100830	-0.705566	0.063023	-0.003300	0.010614	0.792969	0.103053	-0.572184	0.182169	-7.913464	-70.907995	31.515624
54846		6.260975	-0.736477	1.140080	1.059733	-0.025165	-3.494594	-0.066264	0.190003	-0.080480	-0.836914	-0.093994	-0.707764	0.062618	-0.007386	0.011344	0.793583	0.102806	-0.571504	0.181770	-7.798085	-70.812039	31.349425
54847		6.274012	-0.857396	1.241557	1.035144	-0.171962	-3.445686	-0.009667	0.153007	-0.104853	-0.836914	-0.091797	-0.707764	0.062745	-0.008606	0.012368	0.794116	0.102832	-0.570908	0.181302	-7.610983	-70.738105	31.127751
54848		6.433019	-0.800097	1.022664	1.253857	-0.015895	-3.370847	0.009472	0.016924	-0.127332	-0.830078	-0.093750	-0.707764	0.064326	-0.008042	0.010221	0.794238	0.103176	-0.570821	0.180844	-7.415794	-70.743634	30.922862
54849		6.503898	-0.886609	0.895840	1.418848	-0.043724	-3.341656	0.037846	-0.119327	-0.141174	-0.841064	-0.098633	-0.701172	0.065027	-0.008914	0.008996	0.793929	0.103915	-0.571197	0.180592	-7.223647	-70.823491	30.768731
54850		6.537757	-0.874584	1.098670	1.240355	-0.115895	-3.242885	0.067373	-0.218840	-0.157797	-0.838867	-0.100830	-0.703369	0.065359	-0.008801	0.011055	0.793374	0.104789	-0.571976	0.180056	-6.991789	-70.964720	30.560311
54851		6.552252	-0.946894	1.384054	1.013735	-0.302909	-3.132510	0.055674	-0.277221	-0.169162	-0.840820	-0.103271	-0.696777	0.065495	-0.009528	0.013929	0.792656	0.105670	-0.573031	0.179348	-6.756636	-71.144426	30.333378
54852		6.627210	-1.043769	1.620350	0.852791	-0.486378	-2.981068	0.023525	-0.343480	-0.174222	-0.841064	-0.100830	-0.694580	0.066235	-0.010497	0.016316	0.791778	0.106529	-0.574332	0.178555	-6.539338	-71.357131	30.114254
54853		6.823839	-0.964088	1.772672	0.721505	-0.460763	-2.748435	0.010791	-0.407962	-0.184339	-0.845215	-0.105469	-0.692383	0.068193	-0.009705	0.017865	0.790711	0.107413	-0.575921	0.177636	-6.322819	-71.610548	29.886254
54854		7.105947	-0.977781	1.823967	0.732722	-0.473131	-2.463093	-0.019815	-0.513455	-0.185651	-0.845459	-0.098877	-0.685791	0.071003	-0.009842	0.018423	0.789368	0.108283	-0.577921	0.176580	-6.131632	-71.920257	29.669135
54855		7.803735	-1.518559	2.525428	0.488540	-1.150035	-1.565226	-0.161502	-0.579998	-0.160013	-0.854492	-0.101318	-0.683594	0.077951	-0.015227	0.025493	0.787830	0.108661	-0.580317	0.175354	-6.089465	-72.267863	29.544470
54856		8.387465	-1.743402	2.748296	0.493559	-1.380240	-0.936131	-0.132201	-0.561587	-0.157391	-0.854248	-0.105957	-0.674561	0.083783	-0.017482	0.027730	0.786370	0.109047	-0.582611	0.174056	-6.011332	-72.603073	29.379197
54857		9.104507	-0.825282	2.793567	0.227339	-0.483353	-0.268496	-0.015517	-0.550568	-0.181928	-0.862793	-0.110596	-0.670166	0.090960	-0.008333	0.028187	0.784839	0.110018	-0.584758	0.173151	-5.830985	-72.936829	29.194024
54858		9.983715	-0.780488	2.777769	0.404454	-0.347680	0.565895	-0.047625	-0.526108	-0.199436	-0.860840	-0.104004	-0.661377	0.099756	-0.007898	0.028042	0.783460	0.110827	-0.586806	0.171950	-5.605962	-73.253922	28.926456
54859		10.508043	-0.908435	2.478903	0.810347	-0.318318	0.986895	-0.061405	-0.410411	-0.232496	-0.864746	-0.115234	-0.654785	0.105019	-0.009199	0.025007	0.782409	0.111571	-0.588444	0.170649	-5.306624	-73.513645	28.572715
54860		11.008924	-0.064906	1.307604	1.598341	0.919346	1.119387	-0.022018	-0.461989	-0.289588	-0.865234	-0.108643	-0.645996	0.110058	-0.000807	0.013330	0.781270	0.112688	-0.590160	0.169204	-4.859131	-73.797860	28.089385
54861		12.841003	1.192790	0.350533	2.350505	2.617842	2.599342	0.070966	-0.562119	-0.271533	-0.871582	-0.115479	-0.656982	0.128416	0.011752	0.003870	0.779729	0.114106	-0.592297	0.167888	-4.396003	-74.149318	27.624621
54862		14.194291	0.977443	-0.574270	3.527549	2.882702	3.678380	0.100273	-0.540985	-0.217058	-0.873779	-0.115723	-0.641357	0.141968	0.009623	-0.005354	0.778212	0.115550	-0.594250	0.167040	-4.001797	-74.473538	27.271025
54863		14.306609	-0.201365	-0.818187	4.185008	1.856546	3.767725	0.252772	-0.439402	-0.184290	-0.877930	-0.120117	-0.641357	0.143082	-0.002135	-0.007870	0.776835	0.117406	-0.595744	0.166834	-3.567115	-74.744683	26.966498
54864		14.677306	-1.736340	0.957682	3.278238	-0.221325	4.628898	0.360011	-0.224407	-0.130307	-0.873291	-0.124512	-0.625977	0.146751	-0.017476	0.009710	0.776024	0.119336	-0.596291	0.167278	-3.138386	-74.883483	26.732190
54865		15.569822	-2.835064	2.948748	2.154623	-1.908380	6.026118	0.302333	-0.024074	0.003761	-0.877686	-0.124756	-0.630371	0.155695	-0.028392	0.029463	0.775682	0.120424	-0.596290	0.168090	-3.004459	-74.916243	26.756038
54866		16.999566	-1.733979	3.202616	1.803998	-0.831996	7.458733	0.318952	-0.175991	0.154892	-0.877686	-0.126953	-0.625977	0.169981	-0.017259	0.032148	0.774796	0.121304	-0.596851	0.169546	-3.196549	-75.018268	27.140374
54867		18.391702	0.074526	3.004502	1.491980	1.073318	8.732081	0.204743	-0.429793	0.357872	-0.882324	-0.122559	-0.623779	0.183850	0.001043	0.030441	0.772972	0.121320	-0.598727	0.171232	-3.944656	-75.272862	28.023669
54868		16.979731	0.149804	3.294339	0.798104	0.904566	7.442176	0.141812	-0.246331	0.570930	-0.877930	-0.120361	-0.623779	0.169751	0.001959	0.033154	0.771618	0.120327	-0.599956	0.173723	-5.177940	-75.393583	29.378724
54869		13.468754	-0.545575	4.389874	-0.715631	-0.528820	4.335944	0.301809	-0.038723	0.642863	-0.885254	-0.109375	-0.625977	0.134696	-0.005089	0.043917	0.770660	0.119540	-0.600367	0.177066	-6.458015	-75.395906	30.872329
54870		11.601519	-0.265335	5.236251	-2.035599	-0.801250	2.729156	0.293662	-0.375889	0.637920	-0.887451	-0.109619	-0.617188	0.115924	-0.002361	0.052577	0.768747	0.119047	-0.601987	0.180189	-7.820806	-75.569993	32.450123
54871		11.605828	-0.816612	4.758580	-1.466112	-1.076542	2.625035	0.142108	-0.604721	0.648251	-0.889893	-0.105225	-0.617188	0.115939	-0.007824	0.047931	0.766097	0.118251	-0.604678	0.182965	-9.452895	-75.872705	34.239461
54872		11.664315	-1.922093	6.085330	-2.224543	-2.552241	3.044952	0.137670	-0.060292	0.730757	-0.890137	-0.100830	-0.612793	0.116694	-0.018837	0.060875	0.765120	0.116581	-0.605266	0.186153	-11.062302	-75.837620	35.976790
54873		10.300099	-0.630838	6.408146	-3.335465	-1.636247	1.752392	0.407190	0.502459	0.832071	-0.890137	-0.098389	-0.619385	0.103187	-0.006009	0.063810	0.765538	0.115108	-0.603544	0.190883	-12.470028	-75.469950	37.667173
54874		9.716908	1.711344	5.935124	-4.028099	0.661187	0.953431	0.373714	0.506783	1.005650	-0.888916	-0.080566	-0.625977	0.097232	0.017492	0.059137	0.765839	0.112976	-0.601871	0.196158	-14.162687	-75.059766	39.635032
54875		9.147930	0.521915	5.481302	-3.219944	-0.209408	0.365159	0.055239	0.591857	1.197327	-0.891602	-0.073975	-0.630371	0.091608	0.005752	0.054544	0.766290	0.109022	-0.600296	0.201391	-16.296994	-74.560896	41.891555
54876		8.276253	-0.578165	5.590798	-2.996237	-1.270237	-0.352487	0.084693	0.699060	1.296866	-0.874023	-0.064453	-0.636963	0.082993	-0.005268	0.055616	0.766975	0.104706	-0.598278	0.207000	-18.370699	-73.961736	44.092636
54877		8.370205	-0.990877	5.204090	-2.453593	-1.341253	-0.309821	0.002156	0.471095	1.265301	-0.883789	-0.051514	-0.639160	0.083885	-0.009379	0.051843	0.766953	0.100471	-0.597180	0.212286	-20.456531	-73.470691	46.282786
54878		9.592296	-1.683787	4.704112	-1.482474	-1.383397	0.811022	-0.102679	0.299257	1.142691	-0.879639	-0.042480	-0.643799	0.096087	-0.016265	0.046906	0.766630	0.096305	-0.596760	0.216519	-22.363621	-73.076170	48.208879
54879		10.361616	-2.563677	4.033473	-0.368956	-1.608044	1.478080	-0.064947	0.386153	0.930155	-0.880127	-0.033691	-0.645996	0.103811	-0.025141	0.040143	0.766677	0.092895	-0.595870	0.220266	-23.768050	-72.669379	49.655601
54880		10.256329	-2.373089	3.546718	-0.043372	-1.169181	1.234195	0.092816	0.442710	0.630360	-0.873779	-0.026611	-0.648193	0.102716	-0.023424	0.035229	0.767211	0.090845	-0.594414	0.223174	-24.458612	-72.294111	50.431693
54881		9.670250	-1.672681	3.658061	-0.552000	-0.669750	0.624723	0.116805	0.334080	0.332316	-0.871094	-0.033203	-0.652588	0.096791	-0.016587	0.036409	0.767658	0.089959	-0.593230	0.225137	-24.738773	-72.045547	50.811538
54882		8.899248	-1.009396	3.542040	-0.886591	-0.194077	-0.224267	0.084377	0.155155	0.085156	-0.875732	-0.031250	-0.659180	0.089024	-0.010071	0.035347	0.767942	0.089816	-0.592633	0.225796	-24.739493	-71.948128	50.859298
54883		8.101631	0.306351	3.324431	-1.444342	0.865607	-1.213460	0.070514	-0.020972	-0.056618	-0.871094	-0.033203	-0.645996	0.081014	0.003029	0.033254	0.767899	0.090170	-0.592681	0.225674	-24.647173	-71.977932	50.785426
54884		7.471299	1.451470	3.110519	-1.902120	1.803283	-2.019581	-0.017873	-0.076611	-0.117375	-0.873779	-0.026611	-0.648193	0.074710	0.014474	0.031133	0.767771	0.090497	-0.592998	0.225148	-24.552492	-72.049599	50.671301
54885		6.890823	1.875408	2.954526	-2.072084	2.095105	-2.667982	-0.103471	-0.009373	-0.147756	-0.873535	-0.031006	-0.659180	0.068921	0.018718	0.029539	0.767878	0.090493	-0.593194	0.224266	-24.423783	-72.099300	50.466264
54886		6.485397	1.936167	2.755012	-1.999591	2.129714	-3.114541	-0.173683	0.028682	-0.180644	-0.871338	-0.031006	-0.654785	0.064875	0.019327	0.027524	0.768201	0.090291	-0.593253	0.223083	-24.237343	-72.130789	50.161996
54887		6.588497	1.578445	2.436392	-1.533167	1.962444	-3.057394	-0.239005	0.003989	-0.227444	-0.882568	-0.031250	-0.656982	0.065903	0.015739	0.024344	0.768542	0.089993	-0.593445	0.221512	-24.028133	-72.183913	49.793600
54888		6.923185	0.862047	2.097515	-0.843864	1.535280	-2.741338	-0.251611	0.007293	-0.244194	-0.877930	-0.031250	-0.652588	0.069243	0.008562	0.020962	0.768905	0.089703	-0.593640	0.219842	-23.795664	-72.240674	49.394265
54889		7.220362	-0.125916	2.010526	-0.263089	0.752997	-2.359134	-0.245847	0.054105	-0.248851	-0.877686	-0.037842	-0.654785	0.072207	-0.001324	0.020087	0.769365	0.089414	-0.593689	0.218211	-23.529337	-72.278865	48.965140
54890		7.270022	-1.115329	2.104290	0.106219	-0.162599	-2.164976	-0.251754	-0.005789	-0.222751	-0.875977	-0.029053	-0.654785	0.072687	-0.011208	0.021059	0.769660	0.089073	-0.593941	0.216617	-23.338013	-72.336614	48.609125
54891		7.555905	-1.968064	1.528328	1.037984	-0.644429	-1.950879	-0.224641	-0.114395	-0.214387	-0.877686	-0.035645	-0.659180	0.075529	-0.019744	0.015349	0.769604	0.088907	-0.594617	0.215027	-23.222064	-72.453656	48.341555
54892		8.034917	-2.183494	1.276496	1.442618	-0.647073	-1.538807	-0.114418	-0.084297	-0.193304	-0.884277	-0.038086	-0.656982	0.080323	-0.021905	0.012811	0.769569	0.089092	-0.595034	0.213917	-23.052413	-72.545592	48.091160
54893		8.024952	-1.902554	1.337905	1.263978	-0.436067	-1.565157	-0.069165	0.037764	-0.129256	-0.879883	-0.035889	-0.650391	0.080240	-0.019073	0.013370	0.769834	0.089069	-0.594987	0.213103	-22.867640	-72.562472	47.835511
54894		7.659159	-1.885604	1.412256	1.122667	-0.535341	-1.896520	-0.041296	0.092721	-0.054989	-0.879883	-0.035645	-0.652588	0.076593	-0.018874	0.014091	0.770145	0.088935	-0.594706	0.212822	-22.760986	-72.529773	47.695150
54895		7.626788	-1.599981	1.493177	0.925799	-0.318060	-1.938734	0.030635	0.083933	0.003930	-0.877930	-0.031250	-0.663574	0.076274	-0.016001	0.014897	0.770303	0.088904	-0.594464	0.212936	-22.727043	-72.496095	47.669294
54896		7.760085	-1.196262	1.432448	0.836188	0.100389	-1.875901	0.086536	0.088659	0.041875	-0.880127	-0.031250	-0.661377	0.077610	-0.011953	0.014285	0.770442	0.088979	-0.594105	0.213407	-22.712870	-72.444062	47.702684
54897		7.943824	-0.723963	1.425910	0.680587	0.573273	-1.758507	0.129933	0.143426	0.051179	-0.875732	-0.031250	-0.659180	0.079450	-0.007229	0.014197	0.770666	0.089204	-0.593484	0.214228	-22.667634	-72.359291	47.748261
54898		8.047767	-0.474128	1.501937	0.536956	0.798073	-1.668861	0.147567	0.188529	0.051689	-0.873535	-0.033203	-0.661377	0.080493	-0.004732	0.014940	0.771061	0.089377	-0.592678	0.214962	-22.565805	-72.252283	47.726361
54899		8.084910	-0.227554	1.245738	0.672250	1.136141	-1.736385	0.177013	0.180763	0.048841	-0.875488	-0.037842	-0.663574	0.080861	-0.002267	0.012382	0.771378	0.089733	-0.591875	0.215887	-22.463409	-72.150306	47.735230
54900		8.132891	-0.192103	1.023078	0.872761	1.274074	-1.760203	0.218649	0.171916	0.037301	-0.875732	-0.031250	-0.659180	0.081338	-0.001917	0.010159	0.771706	0.090241	-0.591048	0.216768	-22.310094	-72.055213	47.701991
54901		8.002741	0.049938	0.982054	0.783199	1.481856	-1.925895	0.251040	0.126042	0.027302	-0.875244	-0.040039	-0.659180	0.080034	0.000498	0.009771	0.771838	0.090994	-0.590396	0.217759	-22.169668	-71.991263	47.710597
54902		7.857518	0.221810	0.884291	0.766054	1.642148	-2.112799	0.257526	0.019571	0.011163	-0.877441	-0.042236	-0.661377	0.078576	0.002211	0.008838	0.771724	0.091894	-0.590101	0.218584	-22.054119	-71.982637	47.740470
54903		7.878682	0.463878	0.925718	0.622332	1.841604	-2.107692	0.233263	-0.085673	0.000914	-0.875244	-0.042236	-0.661377	0.078783	0.004628	0.009296	0.771297	0.092814	-0.590308	0.219143	-22.010507	-72.042275	47.819077
54904		7.910568	0.466606	0.976811	0.573343	1.824799	-2.060891	0.163740	-0.163377	-0.001667	-0.870850	-0.041992	-0.663574	0.079098	0.004657	0.009837	0.770698	0.093590	-0.590814	0.219556	-22.049469	-72.133615	47.954860
54905		8.074739	0.668780	1.223834	0.286129	1.932898	-1.854770	0.158857	-0.225926	0.005347	-0.877441	-0.040039	-0.659180	0.080733	0.006680	0.012335	0.769905	0.094372	-0.591598	0.219890	-22.145906	-72.260526	48.140722
54906		8.439554	1.088670	1.420034	-0.019719	2.298635	-1.497424	0.104807	-0.263819	0.030584	-0.873047	-0.042236	-0.654785	0.084375	0.010892	0.014317	0.768999	0.094936	-0.592569	0.220206	-22.343657	-72.397984	48.407534
54907		9.384338	0.921611	1.505809	0.146931	2.321885	-0.551486	0.036266	-0.230175	0.049995	-0.877441	-0.042236	-0.652588	0.093824	0.009237	0.015168	0.768171	0.095160	-0.593522	0.220428	-22.601511	-72.516939	48.698677
54908		10.433486	0.916765	2.916554	-0.887103	1.978573	0.841075	-0.034677	-0.060547	0.071947	-0.877686	-0.037842	-0.654785	0.104323	0.009210	0.029196	0.767886	0.094841	-0.593884	0.220584	-22.812416	-72.537157	48.895197
54909		10.643789	-0.067161	2.722467	-0.247981	1.242146	1.100705	-0.200446	-0.092071	0.102521	-0.877686	-0.037842	-0.652588	0.106426	-0.000590	0.027274	0.767526	0.093846	-0.594589	0.220364	-23.198863	-72.570461	49.178227
54910		11.043402	-0.474808	2.183986	0.463937	1.196815	1.381254	-0.070460	-0.133878	0.072740	-0.882324	-0.035889	-0.650391	0.110421	-0.004700	0.021915	0.767038	0.093468	-0.595271	0.220383	-23.486282	-72.628422	49.433355
54911		10.888904	-0.217895	2.360214	0.143085	1.316685	1.252219	-0.002943	-0.177778	0.051563	-0.882080	-0.038086	-0.650391	0.108869	-0.002151	0.023699	0.766383	0.093473	-0.596071	0.220496	-23.739587	-72.718898	49.693390
54912		11.059698	-0.079213	1.523874	0.812237	1.805958	1.174761	0.076858	-0.394969	-0.007546	-0.882324	-0.031494	-0.645996	0.110567	-0.000802	0.015457	0.765134	0.094186	-0.597552	0.220523	-24.007546	-72.931570	50.016173
54913		11.916857	-0.864185	0.071984	2.550960	1.872467	1.709019	-0.019661	-0.439577	-0.047467	-0.884766	-0.031494	-0.643799	0.119165	-0.008670	0.000983	0.763809	0.094720	-0.599314	0.220107	-24.311540	-73.180259	50.321537
54914		12.076938	-2.061044	-0.934650	3.962830	1.235674	1.752039	0.008233	-0.277281	-0.087720	-0.891357	-0.033936	-0.639160	0.120773	-0.020663	-0.009180	0.763027	0.095280	-0.600378	0.219676	-24.401738	-73.349636	50.416871
54915		11.875820	-1.977177	0.286579	2.808405	0.749628	1.873945	0.224522	-0.029928	-0.111333	-0.888672	-0.038330	-0.632568	0.118747	-0.019841	0.002861	0.762840	0.096539	-0.600277	0.220050	-24.151153	-73.399147	50.301843
54916		12.029876	-0.768667	2.962802	-0.037835	0.743868	2.578123	0.074321	0.088618	-0.059725	-0.888916	-0.036133	-0.632568	0.120310	-0.007734	0.029572	0.763093	0.096865	-0.599885	0.220099	-23.963965	-73.370692	50.147134
54917		12.227573	-0.623800	4.649399	-1.548406	0.222652	3.190096	-0.412113	-0.113222	-0.007662	-0.888916	-0.036133	-0.641602	0.122249	-0.006147	0.046576	0.762838	0.095446	-0.600899	0.218834	-24.327746	-73.445839	50.282749
54918		13.038406	-1.377252	5.211989	-1.581163	-0.493119	4.198679	-0.380900	-0.123771	-0.075275	-0.882568	-0.027100	-0.634766	0.130347	-0.013722	0.052227	0.762686	0.094314	-0.601807	0.217354	-24.542299	-73.532175	50.275090
54919		13.238476	-2.387480	4.382992	-0.384022	-1.019250	4.293395	-0.214077	-0.021525	-0.192966	-0.893555	-0.031738	-0.634766	0.132357	-0.023956	0.043870	0.762842	0.094112	-0.602101	0.216080	-24.387402	-73.594361	49.994127
54920		12.347639	-2.200367	5.434798	-1.551976	-1.499034	3.684977	-0.071929	-0.070048	-0.334554	-0.889404	-0.027344	-0.630371	0.123420	-0.022191	0.054399	0.762982	0.094880	-0.602344	0.214565	-23.918349	-73.713377	49.458528
54921		10.760646	-2.066144	6.232774	-2.599838	-2.080979	2.345361	-0.089825	-0.085339	-0.417873	-0.882080	-0.035889	-0.632568	0.107536	-0.020858	0.062383	0.763052	0.095968	-0.602674	0.212898	-23.351891	-73.864307	48.838677
54922		8.781578	-2.431291	5.740809	-2.369669	-2.658532	0.351021	-0.226488	-0.089455	-0.441330	-0.886475	-0.040527	-0.630371	0.087736	-0.024442	0.057475	0.763316	0.096488	-0.603099	0.210500	-22.773711	-74.014644	48.098116
54923		8.405762	-3.519876	6.640964	-2.751526	-4.100991	0.324354	-0.126188	0.059373	-0.522624	-0.884033	-0.042725	-0.636963	0.083985	-0.035376	0.066407	0.764039	0.097479	-0.602825	0.208195	-21.873987	-74.102256	47.085486
54924		8.308430	-2.644243	7.302813	-3.706034	-3.638317	0.305651	0.032811	0.280443	-0.634409	-0.890625	-0.047363	-0.636963	0.083102	-0.026718	0.072907	0.765481	0.099183	-0.601463	0.206017	-20.492238	-74.088146	45.664410
54925		9.062377	-3.743920	5.406414	-1.372621	-3.768477	0.641350	-0.073642	0.188516	-0.867798	-0.885742	-0.055908	-0.639160	0.090511	-0.037812	0.053993	0.766890	0.101324	-0.600435	0.202710	-18.809183	-74.157080	43.881509
54926		10.220960	-3.491400	3.913047	0.115201	-2.815692	1.324048	0.251948	0.175789	-1.180304	-0.878662	-0.060303	-0.634766	0.102035	-0.035566	0.038996	0.768430	0.105612	-0.598954	0.199037	-16.306120	-74.269916	41.426480
54927		10.333882	-0.290890	5.048011	-2.156255	-0.492423	1.477219	0.465388	0.358594	-1.308378	-0.877441	-0.086914	-0.643799	0.103407	-0.003702	0.050287	0.770434	0.110992	-0.596462	0.195820	-13.342812	-74.267546	38.644567
54928		10.529633	1.983753	5.870363	-3.725179	1.139965	1.767098	0.114673	0.301749	-1.200649	-0.878906	-0.100342	-0.643799	0.105501	0.019171	0.058556	0.772390	0.114675	-0.594568	0.191711	-10.790123	-74.247786	36.056772
54929		11.921146	2.436104	5.379081	-3.103694	1.876297	2.986855	-0.147292	0.154908	-0.990107	-0.874512	-0.102295	-0.650391	0.119372	0.023810	0.053681	0.773858	0.116805	-0.593603	0.187446	-8.856409	-74.263291	33.943596
54930		13.146029	2.824541	4.885779	-2.492571	2.543015	4.043229	-0.194311	0.223407	-0.671181	-0.872314	-0.102051	-0.656982	0.131609	0.027851	0.048684	0.775218	0.117792	-0.592583	0.184412	-7.581680	-74.197527	32.499409
54931		13.026215	1.594009	4.614379	-1.699391	1.493687	3.913069	-0.322321	0.270752	-0.332085	-0.870117	-0.099854	-0.661377	0.130351	0.015798	0.045942	0.776473	0.117268	-0.591646	0.182463	-7.072266	-74.068031	31.786823
54932		11.733309	-0.651133	3.751678	-0.254658	-0.378529	2.514572	-0.313449	0.356504	-0.115178	-0.861084	-0.101807	-0.661377	0.117396	-0.006520	0.037318	0.777775	0.116023	-0.590536	0.181308	-6.962736	-73.879429	31.482054
54933		9.907182	-2.512155	3.648179	0.219903	-2.266547	0.797997	-0.234076	0.455436	0.021593	-0.861084	-0.099609	-0.667969	0.099157	-0.025068	0.036285	0.779199	0.114644	-0.588966	0.181178	-7.076546	-73.614346	31.477700
54934		8.251954	-3.435049	3.647252	0.234963	-3.320339	-0.750857	-0.161156	0.416735	0.097838	-0.859375	-0.092773	-0.674561	0.082612	-0.034281	0.036328	0.780388	0.113307	-0.587600	0.181334	-7.281129	-73.376457	31.590765
54935		7.478413	-3.619561	2.972359	0.735379	-3.312937	-1.667357	-0.097852	0.317355	0.156094	-0.861816	-0.088379	-0.674561	0.074859	-0.036123	0.029623	0.781191	0.112216	-0.586498	0.182122	-7.605786	-73.177808	31.896369
54936		7.450119	-3.233757	2.349868	1.127679	-2.700449	-1.880527	-0.001967	0.305818	0.195564	-0.859375	-0.092773	-0.678955	0.074569	-0.032264	0.023385	0.781870	0.111312	-0.585471	0.183063	-7.919176	-72.994969	32.218688
54937		7.416176	-2.488027	2.274763	0.892296	-1.972190	-1.959110	0.089353	0.284029	0.215488	-0.852783	-0.090332	-0.676758	0.074221	-0.024810	0.022631	0.782357	0.110883	-0.584369	0.184756	-8.255591	-72.812638	32.666972
54938		7.409863	-1.588150	2.006920	0.761243	-1.029819	-2.078610	0.086690	0.225071	0.214455	-0.854736	-0.092529	-0.683594	0.074138	-0.015811	0.019979	0.782728	0.110343	-0.583584	0.185984	-8.561376	-72.672908	33.035070
54939		7.158356	-1.028559	1.638698	0.795368	-0.396978	-2.450956	0.104845	0.217717	0.220207	-0.854980	-0.090332	-0.683594	0.071613	-0.010215	0.016304	0.783053	0.109943	-0.582729	0.187531	-8.884747	-72.525393	33.459545
54940		6.657675	-0.293699	1.495038	0.493562	0.260620	-3.005744	0.154127	0.217639	0.208609	-0.854980	-0.090332	-0.681396	0.066596	-0.002879	0.014876	0.783366	0.109689	-0.581903	0.188928	-9.132863	-72.389224	33.808227
54941		6.282638	0.736478	1.581037	-0.107418	1.111736	-3.388817	0.061552	0.134263	0.180509	-0.854980	-0.090332	-0.685791	0.062830	0.007417	0.015770	0.783486	0.109324	-0.581416	0.190140	-9.423737	-72.295296	34.173299
54942		6.160211	1.088046	1.589978	-0.296495	1.415768	-3.522396	-0.067774	0.007668	0.122977	-0.850586	-0.085693	-0.681396	0.061596	0.010924	0.015894	0.783389	0.108649	-0.581575	0.190440	-9.702643	-72.284880	34.421135
54943		6.567994	1.063276	1.096942	0.242682	1.665089	-3.282682	-0.104834	0.032782	0.064558	-0.857422	-0.088135	-0.685791	0.065678	0.010660	0.010953	0.783421	0.108049	-0.581584	0.190622	-9.907516	-72.258933	34.591785
54944		6.619097	0.825844	1.240006	0.234849	1.408023	-3.179861	-0.068916	0.109817	-0.025985	-0.850830	-0.083496	-0.685791	0.066199	0.008254	0.012361	0.783763	0.107705	-0.581262	0.190391	-9.892329	-72.205072	34.530164
54945		6.607211	0.409015	1.401420	0.275370	0.966312	-3.121132	-0.071629	0.091573	-0.139242	-0.848389	-0.087891	-0.687988	0.066081	0.004049	0.013982	0.784136	0.107789	-0.580900	0.189915	-9.700036	-72.166459	34.306359
54946		6.717459	-0.284257	1.132439	0.837559	0.454631	-3.061446	-0.110166	0.013923	-0.232458	-0.853027	-0.085938	-0.685791	0.067172	-0.002914	0.011321	0.784417	0.107974	-0.580881	0.188703	-9.375244	-72.186247	33.894651
54947		6.787066	-0.988680	0.785471	1.460431	-0.050515	-3.065594	-0.089634	0.005234	-0.300506	-0.848389	-0.085693	-0.683594	0.067856	-0.009985	0.007857	0.784715	0.108517	-0.580781	0.187457	-8.930880	-72.209349	33.390480
54948		6.781840	-1.279590	0.686642	1.673793	-0.296717	-3.088662	-0.043050	-0.006437	-0.347617	-0.845947	-0.092285	-0.683594	0.067796	-0.012912	0.006871	0.785006	0.109318	-0.580714	0.185976	-8.367466	-72.248614	32.768671
54949		6.968017	-1.260198	0.596957	1.794903	-0.236849	-2.941015	-0.042486	-0.138389	-0.364909	-0.845703	-0.096680	-0.681396	0.069653	-0.012728	0.006020	0.784918	0.110340	-0.581105	0.184514	-7.817500	-72.356015	32.178205
54950		7.612168	-1.197173	0.394340	2.103736	-0.028407	-2.389265	-0.062505	-0.314966	-0.365904	-0.847900	-0.094482	-0.683594	0.076093	-0.012110	0.004067	0.784335	0.111402	-0.582252	0.182734	-7.295316	-72.568252	31.588721
54951		8.383530	-1.204469	0.369482	2.309891	0.059975	-1.656003	-0.070612	-0.383731	-0.337620	-0.854248	-0.103760	-0.676758	0.083808	-0.012185	0.003860	0.783540	0.112435	-0.583631	0.181103	-6.839578	-72.808235	31.074995
54952		8.932630	-1.365093	0.432809	2.441945	-0.064110	-1.102042	-0.070164	-0.311314	-0.301685	-0.856689	-0.099365	-0.674561	0.089299	-0.013784	0.004472	0.782904	0.113276	-0.584800	0.179552	-6.413101	-73.011209	30.582454
54953		9.034845	-1.274289	0.666390	2.213110	-0.087697	-0.936275	-0.014320	-0.198575	-0.254745	-0.863525	-0.099609	-0.676758	0.090325	-0.012857	0.006755	0.782516	0.114128	-0.585474	0.178506	-6.019084	-73.142661	30.168002
54954		9.000259	-1.052026	1.443736	1.421433	-0.216984	-0.750227	-0.076923	-0.199550	-0.192655	-0.856689	-0.099365	-0.672363	0.089978	-0.010601	0.014531	0.782109	0.114522	-0.586269	0.177424	-5.763176	-73.273636	29.850342
54955		9.024685	-0.965846	1.560805	1.270973	-0.199022	-0.693540	-0.174635	-0.304434	-0.134723	-0.858887	-0.099365	-0.667969	0.090216	-0.009706	0.015754	0.781333	0.114615	-0.587539	0.176577	-5.721595	-73.456645	29.739884
54956		9.422988	-0.614679	1.748089	1.035795	0.085560	-0.265642	-0.141856	-0.301859	-0.104321	-0.863525	-0.095215	-0.667969	0.094200	-0.006183	0.017627	0.780581	0.114586	-0.588840	0.175590	-5.685134	-73.640597	29.612771
54957		9.926702	-0.297211	2.215523	0.596046	0.250908	0.342017	-0.068372	-0.208204	-0.088503	-0.863281	-0.099609	-0.661377	0.099243	-0.003008	0.022260	0.779978	0.114870	-0.589665	0.175311	-5.656955	-73.765947	29.581304
54958		10.139527	-0.428289	2.639174	0.311794	-0.015787	0.668781	-0.116916	-0.165090	-0.078960	-0.865723	-0.099609	-0.659180	0.101372	-0.004307	0.026478	0.779589	0.114744	-0.590422	0.174574	-5.626768	-73.870431	29.475735
54959		10.205124	-0.887828	2.529786	0.589242	-0.393520	0.714918	-0.213276	-0.250084	-0.055257	-0.865723	-0.097412	-0.661377	0.102017	-0.008879	0.025435	0.778931	0.114323	-0.591593	0.173822	-5.746628	-74.021314	29.493035
54960		10.431893	-1.126423	1.757054	1.386309	-0.297221	0.731035	-0.312483	-0.394718	-0.026457	-0.870605	-0.091064	-0.654785	0.104282	-0.011250	0.017794	0.777925	0.113479	-0.593441	0.172579	-5.980465	-74.253709	29.545594
54961		10.918478	-1.001215	0.687555	2.348465	0.276570	0.915607	-0.333705	-0.461082	-0.021506	-0.870605	-0.088867	-0.652588	0.109167	-0.010012	0.007144	0.776650	0.112737	-0.595529	0.171612	-6.299950	-74.521164	29.714683
54962		11.905795	-0.306729	-0.040977	2.900971	1.299707	1.665060	-0.185463	-0.350992	-0.035172	-0.872803	-0.088867	-0.641357	0.119058	-0.003088	-0.000198	0.775700	0.112373	-0.597086	0.170735	-6.442141	-74.729066	29.747508
54963		12.285930	-0.339441	-0.346676	3.240265	1.422704	1.962542	-0.066216	-0.207858	-0.040296	-0.877441	-0.089111	-0.643799	0.122862	-0.003420	-0.003338	0.775039	0.112453	-0.597976	0.170569	-6.523653	-74.855702	29.818295
54964		12.234959	-1.158308	-0.064094	3.285041	0.542559	2.017532	0.092861	-0.181641	-0.097075	-0.877197	-0.093506	-0.636963	0.122344	-0.011642	-0.000535	0.774488	0.113208	-0.598601	0.170378	-6.336891	-74.971140	29.675499
54965		13.021248	-2.335385	1.247784	2.754901	-0.948548	3.151673	0.157620	-0.095658	-0.114637	-0.870361	-0.095459	-0.643799	0.130193	-0.023438	0.012522	0.774102	0.114227	-0.598860	0.170543	-6.097773	-75.042807	29.533243
54966		14.248346	-3.194224	3.038531	1.788444	-2.272474	4.819073	0.179081	0.042740	-0.029284	-0.872314	-0.097900	-0.643799	0.142485	-0.031990	0.030326	0.774114	0.114921	-0.598581	0.171000	-5.951536	-75.026057	29.483585
54967		15.902878	-2.653751	4.526854	0.633646	-2.126716	6.785862	0.184931	0.079315	0.128711	-0.878906	-0.100342	-0.639160	0.159064	-0.026477	0.045181	0.774089	0.115132	-0.598227	0.172207	-6.154720	-74.975424	29.806498
54968		16.749958	-0.246462	3.573321	0.672658	0.572076	7.293172	0.150565	-0.233425	0.295189	-0.875244	-0.086914	-0.634766	0.167461	-0.002244	0.035927	0.773011	0.114982	-0.599225	0.173675	-6.782189	-75.095035	30.540762
54969		15.365372	0.673083	3.503882	-0.009493	1.298860	5.907912	0.009010	-0.220367	0.471474	-0.879395	-0.091309	-0.634766	0.153599	0.007091	0.035208	0.771830	0.113755	-0.600429	0.175567	-7.924991	-75.194958	31.736282
54970		11.811459	0.041610	5.086844	-1.964815	-0.310657	2.892862	0.063400	0.144602	0.504361	-0.881836	-0.086914	-0.639160	0.118150	0.000698	0.050783	0.771744	0.112308	-0.600156	0.177795	-8.949530	-75.076146	32.829325
54971		9.084611	0.082421	5.536412	-2.991093	-0.779707	0.367393	-0.044396	-0.124095	0.460223	-0.877441	-0.084717	-0.634766	0.090809	0.001046	0.055420	0.770900	0.110822	-0.601011	0.179491	-10.060347	-75.110255	33.956805
54972		9.234553	-0.238976	4.799279	-2.228211	-0.735845	0.329315	-0.301825	-0.585276	0.424026	-0.889160	-0.076172	-0.628174	0.092209	-0.002121	0.048266	0.768883	0.108859	-0.603824	0.179903	-11.408365	-75.399764	35.167330
54973		9.794171	-0.427397	4.356821	-1.707760	-0.623651	0.760138	-0.236540	-0.268597	0.453520	-0.882568	-0.073730	-0.632568	0.097892	-0.004000	0.043705	0.767716	0.106735	-0.605406	0.180840	-12.711084	-75.503762	36.368199
54974		8.616369	-0.066916	4.775973	-2.492971	-0.586889	-0.299713	-0.008688	0.168542	0.510851	-0.889404	-0.069580	-0.634766	0.086205	-0.000447	0.047687	0.767727	0.104952	-0.605093	0.182873	-13.758938	-75.347708	37.441169
54975		7.765710	-0.159124	5.124502	-2.938856	-0.882884	-1.027730	-0.024535	0.272649	0.608228	-0.883545	-0.051514	-0.636963	0.077731	-0.001349	0.051139	0.767962	0.102705	-0.604433	0.185329	-14.952489	-75.112312	38.658556
54976		7.828523	-0.432457	5.109447	-2.798567	-1.056239	-0.945260	0.024095	0.343792	0.712594	-0.881348	-0.053711	-0.636963	0.078388	-0.004052	0.050959	0.768283	0.100274	-0.603507	0.188323	-16.237551	-74.817458	39.998849
54977		8.384461	-0.316239	5.186634	-2.796089	-0.813537	-0.388259	0.058500	0.455776	0.834320	-0.874756	-0.049072	-0.641357	0.083975	-0.002827	0.051674	0.768744	0.097556	-0.602148	0.192182	-17.662702	-74.427564	41.530324
54978		9.253099	-0.211531	5.171242	-2.640641	-0.465575	0.444782	-0.000375	0.520516	0.953982	-0.873291	-0.035645	-0.643799	0.092674	-0.001673	0.051471	0.769343	0.094130	-0.600660	0.196109	-19.193960	-73.976062	43.116791
54979		10.137290	-0.584949	5.024290	-2.169149	-0.466111	1.297065	-0.119309	0.507338	0.989825	-0.875977	-0.029053	-0.656982	0.101527	-0.005317	0.049989	0.769912	0.090089	-0.599324	0.199827	-20.797881	-73.507608	44.707871
54980		11.137447	-1.285633	4.663081	-1.355040	-0.640370	2.236895	-0.214326	0.406446	0.905604	-0.872070	-0.013184	-0.654785	0.111525	-0.012302	0.046418	0.770271	0.086093	-0.598429	0.202862	-22.275683	-73.104317	46.117776
54981		12.171607	-1.717139	4.283842	-0.631952	-0.557414	3.177193	-0.135414	0.342249	0.668318	-0.867920	-0.008789	-0.659180	0.121846	-0.016735	0.042641	0.770583	0.083246	-0.597554	0.205428	-23.312845	-72.771690	47.141900
54982		12.304732	-1.907610	3.759095	-0.054872	-0.422600	3.187092	-0.102704	0.284478	0.384867	-0.872314	-0.008789	-0.661377	0.123137	-0.018820	0.037426	0.771038	0.081358	-0.596777	0.206734	-23.840156	-72.537634	47.627929
54983		10.984550	-1.414414	3.178280	0.008113	-0.004191	1.709557	-0.024806	0.383389	0.139295	-0.867920	-0.010742	-0.665771	0.109916	-0.014064	0.031574	0.771969	0.080442	-0.595414	0.207545	-23.856998	-72.302215	47.643727
54984		8.971802	-0.028866	3.830713	-1.531053	0.573951	-0.195265	-0.021271	0.304120	0.007050	-0.863281	-0.012939	-0.661377	0.089776	-0.000281	0.038171	0.772834	0.079974	-0.594320	0.207643	-23.691167	-72.144615	47.451991
54985		8.150665	0.543219	3.713690	-1.823375	0.957099	-1.078892	-0.175312	0.014844	-0.050105	-0.863525	-0.006348	-0.659180	0.081511	0.005444	0.037126	0.772983	0.079315	-0.594480	0.206884	-23.730989	-72.150115	47.372778
54986		8.128800	0.354543	3.029671	-1.145789	1.036045	-1.268931	-0.212552	-0.041479	-0.070669	-0.870361	-0.004395	-0.663574	0.081283	0.003549	0.030310	0.772975	0.078696	-0.594887	0.205974	-23.796798	-72.191669	47.309182
54987		8.046092	-0.032710	2.678123	-0.692838	0.797449	-1.398589	-0.200968	0.044573	-0.095948	-0.872559	-0.004395	-0.665771	0.080467	-0.000339	0.026764	0.773210	0.078102	-0.594959	0.205112	-23.776094	-72.193564	47.166399
54988		7.864644	-0.398467	2.245718	-0.189043	0.582902	-1.646959	-0.155829	0.143941	-0.146044	-0.872559	-0.004395	-0.670166	0.078660	-0.004025	0.022404	0.773807	0.077736	-0.594560	0.204152	-23.553613	-72.155115	46.834104
54989		7.719018	-0.651806	2.052697	0.068937	0.389277	-1.808605	-0.101822	0.197884	-0.166932	-0.863770	-0.004150	-0.670166	0.077205	-0.006572	0.020454	0.774494	0.077685	-0.593893	0.203507	-23.252249	-72.092021	46.476554
54990		7.634405	-0.887003	1.756711	0.427418	0.260926	-1.944641	-0.008972	0.211463	-0.162199	-0.868164	-0.004150	-0.672363	0.076355	-0.008931	0.017487	0.775249	0.077866	-0.593075	0.202947	-22.876071	-72.020537	46.070913
54991		7.680229	-1.125181	1.589736	0.699018	0.112407	-1.921051	0.032584	0.167167	-0.142695	-0.865723	-0.010742	-0.674561	0.076807	-0.011309	0.015831	0.775788	0.078262	-0.592383	0.202756	-22.561356	-71.964268	45.775276
54992		7.907825	-1.461135	1.332100	1.127322	-0.053554	-1.739933	0.072208	0.112660	-0.126657	-0.865479	-0.012939	-0.676758	0.079076	-0.014666	0.013271	0.776181	0.078752	-0.591879	0.202535	-22.267667	-71.935932	45.505049
54993		7.922609	-1.573792	1.160586	1.340239	-0.095253	-1.763701	0.101598	0.103260	-0.112213	-0.865479	-0.015137	-0.676758	0.079223	-0.015788	0.011557	0.776502	0.079362	-0.591377	0.202534	-21.992928	-71.907698	45.282228
54994		7.380239	-1.534608	1.027988	1.335217	-0.134615	-2.324112	0.122596	0.141602	-0.077302	-0.861328	-0.008301	-0.674561	0.073804	-0.015381	0.010218	0.776909	0.079873	-0.590728	0.202665	-21.733616	-71.852631	45.078433
54995		6.771352	-1.393494	1.271081	0.938864	-0.228877	-2.850301	0.178374	0.105006	-0.017657	-0.863281	-0.010742	-0.679199	0.067719	-0.013952	0.012663	0.777085	0.080513	-0.590185	0.203317	-21.579713	-71.802798	45.034531
54996		6.706202	-1.178886	1.217019	0.891054	-0.027973	-2.953439	0.229021	0.050088	0.026643	-0.863281	-0.012939	-0.674561	0.067067	-0.011794	0.012140	0.777073	0.081222	-0.589824	0.204129	-21.488355	-71.774276	45.071616
54997		6.899489	-0.938865	1.175093	0.877228	0.252537	-2.810406	0.226299	0.119389	0.070236	-0.858643	-0.014893	-0.679199	0.069005	-0.009378	0.011699	0.777153	0.081811	-0.589213	0.205349	-21.449337	-71.698436	45.186862
54998		6.913011	-0.800897	1.202015	0.809669	0.378808	-2.807196	0.228161	0.224150	0.090448	-0.860840	-0.015137	-0.676758	0.069147	-0.007991	0.011934	0.777586	0.082150	-0.588200	0.206477	-21.351326	-71.563744	45.216433
54999		6.858373	-0.535328	1.018630	0.861863	0.686523	-2.946298	0.235461	0.273150	0.106507	-0.854004	-0.019287	-0.685791	0.068600	-0.005329	0.010086	0.778101	0.082457	-0.586997	0.207833	-21.262189	-71.398510	45.272644
55000		6.759763	-0.229973	0.951161	0.784783	0.977264	-3.098446	0.244816	0.259535	0.124696	-0.851807	-0.016846	-0.687988	0.067611	-0.002269	0.009421	0.778590	0.082723	-0.585840	0.209156	-21.187785	-71.237840	45.337246
55001		6.789028	0.115508	1.011324	0.603108	1.285232	-3.096182	0.237688	0.195921	0.140544	-0.854248	-0.016846	-0.687988	0.067899	0.001191	0.010048	0.778881	0.082995	-0.584910	0.210560	-21.183321	-71.103018	45.478438
55002		6.751335	0.278004	0.866237	0.655977	1.487035	-3.197055	0.223364	0.060513	0.135415	-0.856201	-0.019287	-0.690186	0.067514	0.002816	0.008645	0.778782	0.083355	-0.584552	0.211778	-21.257480	-71.046410	45.687175
55003		6.938669	0.438745	0.552929	0.898368	1.800312	-3.134726	0.197761	-0.059751	0.127788	-0.854248	-0.017090	-0.685791	0.069382	0.004426	0.005554	0.778314	0.083830	-0.584671	0.212980	-21.416154	-71.053623	45.986501
55004		7.282475	0.541483	0.596572	0.881291	1.959821	-2.807978	0.179680	-0.158828	0.124483	-0.856201	-0.019287	-0.683594	0.072817	0.005455	0.006028	0.777600	0.084283	-0.585206	0.213935	-21.632152	-71.115857	46.318685
55005		7.609166	1.183057	1.247463	0.088196	2.361103	-2.378135	0.251007	-0.251961	0.112870	-0.854004	-0.021484	-0.681396	0.076069	0.011858	0.012585	0.776567	0.085173	-0.586026	0.215085	-21.859547	-71.229822	46.713465
55006		8.018055	1.199639	0.974227	0.378925	2.570404	-2.071449	0.076628	-0.452266	0.103977	-0.860840	-0.017334	-0.679199	0.080152	0.012034	0.009928	0.775055	0.085601	-0.587799	0.215532	-22.295909	-71.451227	47.215397
55007		9.295500	0.610527	0.167666	1.575137	2.644794	-1.018882	-0.048560	-0.486196	0.074953	-0.865479	-0.015137	-0.674561	0.092948	0.006141	0.001901	0.773521	0.085659	-0.589824	0.215490	-22.795374	-71.695255	47.707530
