// General information: 
//  MT Manager version: 2019.2.0 
//  XDA version: 2019.2.0 build 3853 rev 94535 built on 2019-09-09
// Device information: 
//  DeviceId: 00B40A23
//  ProductCode: MTW2-3A7G6
//  Firmware Version: 4.3.5
//  Hardware Version: 1.1.0
// Device settings: 
//  Filter Profile: human(46.1)
//  Option Flags: Orientation Smoother Disabled, AHS Disabled, ICC Disabled
// Coordinate system: ENU
PacketCounter	SampleTimeFine	Acc_X	Acc_Y	Acc_Z	FreeAcc_E	FreeAcc_N	FreeAcc_U	Gyr_X	Gyr_Y	Gyr_Z	Mag_X	Mag_Y	Mag_Z	VelInc_X	VelInc_Y	VelInc_Z	Quat_q0	Quat_q1	Quat_q2	Quat_q3	Roll	Pitch	Yaw
54461		2.897326	14.938977	7.031821	0.000000	0.000000	6.949891	1.814507	-4.614919	0.701779	-0.653076	0.221680	-0.357422	0.026797	0.148836	0.072305	0.260929	0.071984	-0.528340	-0.804731	64.089292	-9.198913	-149.835714
54462		17.859856	18.541364	5.979556	-0.000000	-0.000000	16.614585	0.443575	-5.389069	0.825890	-0.664307	0.221436	-0.324219	0.176127	0.186004	0.064976	0.404920	-0.133652	-0.599336	-0.677476	70.744361	-41.794313	-148.599305
54463		25.049892	9.549785	15.504936	-17.840289	2.315178	15.392843	-0.312966	-4.465768	0.327039	-0.671631	0.236816	-0.306641	0.246800	0.096152	0.160438	0.323801	-0.083629	-0.569321	-0.751021	67.135894	-29.624112	-153.259312
54464		19.400366	1.622452	11.266234	-16.768522	2.812498	4.911050	-0.468539	-3.572909	-0.080201	-0.682861	0.240967	-0.280029	0.191957	0.016417	0.116066	0.313081	-0.097562	-0.573287	-0.750869	67.969756	-30.363401	-155.464166
54465		37.131927	-14.917315	14.364277	-40.683131	2.398354	2.299242	0.479576	-2.376057	-0.336616	-0.680664	0.240967	-0.282227	0.369329	-0.150147	0.147679	0.311431	-0.109279	-0.575267	-0.748423	68.382975	-31.458832	-156.478289
54466		12.640109	-4.520598	4.591685	-13.455097	0.681385	-5.364505	0.656027	-1.178340	0.017093	-0.685303	0.243164	-0.289063	0.126132	-0.045347	0.046512	0.308457	-0.112713	-0.579535	-0.745848	69.143604	-31.712515	-157.212852
54467		10.357486	2.659624	9.731335	-7.137741	5.281826	1.598007	0.420283	-0.668316	0.060512	-0.687988	0.256592	-0.287109	0.103241	0.026422	0.097714	0.340051	-0.155822	-0.560997	-0.738490	65.981474	-37.711136	-155.551561
54468		7.060190	0.177937	8.143331	-6.187996	5.298708	-2.754082	0.106200	-0.517031	-0.024803	-0.695068	0.265137	-0.291748	0.070391	0.001727	0.081616	0.338591	-0.157480	-0.562285	-0.737829	66.256624	-37.818071	-155.901488
54469		8.735563	-2.478055	6.290007	-8.052972	3.186522	-2.956259	0.094130	-0.376638	0.023241	-0.702148	0.271729	-0.307373	0.087240	-0.024800	0.063053	0.377612	-0.201799	-0.522992	-0.736997	59.007498	-43.822577	-151.386468
54470		7.516515	-2.937119	6.390756	-7.637973	3.810409	-4.058691	0.124574	-0.313602	-0.078231	-0.710938	0.269287	-0.296143	0.075053	-0.029440	0.064007	0.376629	-0.202515	-0.524121	-0.736502	59.249118	-43.876303	-151.632214
54471		6.623001	-2.729285	6.802901	-5.975395	4.151250	-3.130304	0.217689	-0.292175	-0.202479	-0.711426	0.280518	-0.309814	0.066103	-0.027434	0.068096	0.420707	-0.250248	-0.471767	-0.733360	48.252058	-49.817716	-143.814210
54472		6.606586	-2.078416	7.733303	-5.455176	4.894841	-2.460671	0.254098	-0.265562	-0.306437	-0.725098	0.284668	-0.312012	0.065931	-0.020984	0.077394	0.419274	-0.249964	-0.473639	-0.733071	48.670214	-49.787196	-144.171057
54473		6.790913	-2.347654	7.397297	-4.610284	4.044679	-1.522111	0.248979	-0.210303	-0.320789	-0.734375	0.291260	-0.312012	0.067793	-0.023677	0.074015	0.459561	-0.288825	-0.414396	-0.730520	34.770463	-53.404656	-133.552844
54474		7.087627	-1.228712	7.208434	-3.750420	3.516053	-1.021940	0.252459	-0.171880	-0.359230	-0.741211	0.293213	-0.309814	0.070792	-0.012505	0.072130	0.458256	-0.288128	-0.416231	-0.730572	35.218040	-53.367293	-133.930244
54475		6.637345	-0.841400	7.607541	-2.109006	3.340705	-0.483775	0.228560	-0.141508	-0.379536	-0.750488	0.299805	-0.312256	0.066303	-0.008627	0.076113	0.490076	-0.315339	-0.361672	-0.727722	21.939445	-54.434650	-123.470315
54476		6.495996	-0.982367	7.775897	-2.212279	3.607865	-0.554363	0.193793	-0.098265	-0.360345	-0.761719	0.301758	-0.309814	0.064904	-0.010016	0.077781	0.488892	-0.314570	-0.363185	-0.728098	22.347471	-54.408977	-123.835474
54477		6.489988	-0.228010	8.044663	-0.662610	3.024611	0.051444	0.193854	-0.041114	-0.344152	-0.761963	0.308350	-0.310059	0.064879	-0.002470	0.080458	0.511842	-0.329001	-0.318760	-0.726752	12.299980	-53.563370	-115.912935
54478		5.945325	-0.925835	7.692592	-1.271803	3.235526	-0.686142	0.137521	0.007038	-0.328975	-0.768799	0.310547	-0.307861	0.059441	-0.009409	0.076917	0.510883	-0.328099	-0.319783	-0.727385	12.626689	-53.518754	-116.221181
54479		5.842389	-1.148625	7.778441	-0.962069	2.915965	-0.510618	0.157423	0.003039	-0.307827	-0.775879	0.317139	-0.305664	0.058407	-0.011637	0.077774	0.527260	-0.332937	-0.286007	-0.727565	6.044311	-51.819406	-111.077280
54480		6.397323	0.019933	7.804044	0.009621	2.295236	0.013857	0.143233	0.025090	-0.284579	-0.784668	0.312500	-0.298828	0.063983	0.000052	0.078032	0.526498	-0.332061	-0.286935	-0.728151	6.330423	-51.787540	-111.336917
54481		6.294645	0.161554	7.775588	0.472189	1.848626	0.009125	0.103478	0.028197	-0.219335	-0.784912	0.319092	-0.301270	0.062959	0.001506	0.077748	0.538875	-0.331498	-0.261948	-0.728770	2.184541	-49.950235	-108.056860
54482		5.531406	-0.026540	7.931809	0.458914	2.487392	-0.479251	0.029710	0.000295	-0.167829	-0.789307	0.316650	-0.290039	0.055314	-0.000324	0.079318	0.538313	-0.331197	-0.262333	-0.729184	2.315849	-49.946289	-108.206165
54483		6.243371	-0.445033	7.844655	0.061621	1.741991	0.070532	0.001318	0.013043	-0.111137	-0.791504	0.318848	-0.299072	0.062436	-0.004486	0.078442	0.547939	-0.327105	-0.244606	-0.730022	-0.114461	-48.214736	-106.166603
54484		7.256602	-0.132490	7.291211	0.052957	0.609047	0.456872	-0.031802	0.035499	-0.053682	-0.793701	0.316650	-0.287842	0.072579	-0.001333	0.072899	0.547734	-0.326997	-0.244481	-0.730266	-0.098242	-48.194452	-106.212803
54485		6.357911	-0.481946	7.894382	0.113902	1.433906	0.232585	-0.070395	0.062443	0.011542	-0.798340	0.323242	-0.288086	0.063604	-0.004788	0.078926	0.555428	-0.322791	-0.231852	-0.730445	-1.663195	-46.812417	-104.781601
54486		6.422926	-0.605275	7.774515	-0.036072	1.334342	0.201385	-0.084208	0.044736	0.025479	-0.794189	0.330078	-0.288086	0.064247	-0.006012	0.077733	0.555437	-0.322891	-0.231379	-0.730544	-1.726182	-46.786362	-104.761387
54487		6.396210	-0.454297	7.698820	0.163632	1.034233	0.151915	-0.080402	0.020045	0.060344	-0.798584	0.325439	-0.283691	0.063971	-0.004493	0.076984	0.562088	-0.318665	-0.222066	-0.730203	-2.781802	-45.644969	-103.653172
54488		6.454451	0.560935	7.731682	1.151232	0.739064	0.181407	-0.130292	-0.004854	0.115311	-0.791748	0.327881	-0.281494	0.064539	0.005697	0.077315	0.562296	-0.319177	-0.221420	-0.730015	-2.924092	-45.644455	-103.558581
54489		6.344223	-1.340199	7.513058	-0.674780	1.002300	0.037763	-0.145687	-0.029889	0.119579	-0.791992	0.330078	-0.283691	0.063439	-0.013309	0.075150	0.567916	-0.315110	-0.215025	-0.729343	-3.572187	-44.739061	-102.716000
54490		6.096661	-1.694187	7.968856	-0.864710	1.573584	0.203216	-0.077226	-0.054406	0.042588	-0.791504	0.321045	-0.285889	0.060949	-0.016898	0.079712	0.567891	-0.315573	-0.214831	-0.729219	-3.642532	-44.768633	-102.678939
54491		5.997118	-2.081430	7.803017	-1.230438	1.485744	0.059670	-0.048123	-0.019494	-0.040746	-0.791748	0.327881	-0.283691	0.059959	-0.020808	0.078041	0.572555	-0.312123	-0.209591	-0.728582	-4.146936	-44.012812	-101.999452
54492		6.080006	-3.062412	7.444178	-2.267843	1.444670	-0.090011	-0.005110	-0.007841	-0.091732	-0.800293	0.312012	-0.283447	0.060783	-0.030650	0.074445	0.572204	-0.312070	-0.209738	-0.728838	-4.099531	-44.021068	-102.071894
54493		6.586579	-1.670770	7.175329	-1.011886	0.425759	0.008445	0.011384	0.016823	-0.163788	-0.800537	0.318604	-0.279053	0.065858	-0.016766	0.071747	0.575971	-0.309769	-0.204407	-0.728367	-4.660876	-43.370712	-101.473979
54494		5.892052	-1.729878	7.499380	-0.911234	1.152880	-0.231980	0.019092	-0.008999	-0.234324	-0.806885	0.309814	-0.281006	0.058897	-0.017375	0.074995	0.575137	-0.309507	-0.204865	-0.729008	-4.523877	-43.386596	-101.657529
54495		5.714326	-1.503112	7.874965	-0.549897	1.377162	-0.079809	0.049989	-0.072060	-0.330366	-0.804932	0.316406	-0.281250	0.057090	-0.015145	0.078766	0.577382	-0.308121	-0.200863	-0.728935	-4.934389	-42.933522	-101.293792
54496		5.525168	-1.192833	8.067375	-0.201541	1.578741	-0.091590	0.038073	-0.143929	-0.404146	-0.811279	0.305176	-0.278564	0.055169	-0.012055	0.080711	0.575822	-0.308129	-0.202039	-0.729840	-4.703990	-43.035145	-101.599731
54497		5.490714	-0.994887	8.179978	0.039835	1.560260	-0.034464	-0.010820	-0.302629	-0.450796	-0.810791	0.296387	-0.276367	0.054761	-0.010068	0.081883	0.577388	-0.307240	-0.199277	-0.729736	-4.994586	-42.728796	-101.341104
54498		6.616283	-0.240533	7.945222	0.540076	0.453446	0.505357	-0.077387	-0.482120	-0.492682	-0.819580	0.291748	-0.265137	0.065965	-0.002537	0.079612	0.574988	-0.308730	-0.201142	-0.730491	-4.799671	-43.028115	-101.692727
54499		5.752614	-0.391147	8.187046	0.591443	1.245121	0.105617	-0.151227	-0.647538	-0.489566	-0.822021	0.291504	-0.260498	0.057251	-0.003990	0.082059	0.575825	-0.309016	-0.199982	-0.730028	-5.008750	-42.960189	-101.497227
54500		5.564568	-0.407894	8.650791	0.711708	1.761518	0.304469	-0.185858	-0.829812	-0.459818	-0.835205	0.286865	-0.249268	0.055277	-0.004126	0.086742	0.573023	-0.312117	-0.202400	-0.730247	-4.907299	-43.456621	-101.800949
54501		5.387231	-0.764390	9.095611	0.504208	2.280024	0.525733	-0.192098	-1.007855	-0.424555	-0.837158	0.282227	-0.240234	0.053397	-0.007670	0.091233	0.574213	-0.313028	-0.202911	-0.728780	-5.046973	-43.573533	-101.511787
54502		5.027350	-0.489440	9.145353	0.857464	2.612059	0.266584	-0.195477	-1.248381	-0.393401	-0.848145	0.273193	-0.231201	0.049692	-0.004903	0.091770	0.571194	-0.317732	-0.206394	-0.728138	-5.002983	-44.305790	-101.736595
54503		5.982549	-0.151967	8.716430	0.958007	1.618031	0.591740	-0.230999	-1.540324	-0.377574	-0.854736	0.268555	-0.215576	0.059149	-0.001531	0.087623	0.573034	-0.319570	-0.208758	-0.725209	-5.117876	-44.648911	-101.268246
54504		5.741942	0.198976	8.890928	1.413022	1.982598	0.489139	-0.244925	-1.842703	-0.298681	-0.863525	0.263916	-0.195313	0.056600	0.002014	0.089431	0.569611	-0.326628	-0.213617	-0.723343	-5.182071	-45.715793	-101.375591
54505		5.542619	0.967652	8.864345	2.188806	2.027632	0.253449	-0.252350	-2.204201	-0.157024	-0.876953	0.268066	-0.173340	0.054453	0.009746	0.089235	0.572066	-0.330314	-0.218362	-0.718297	-5.345399	-46.415864	-100.637649
54506		5.480726	1.940757	9.298902	3.312653	2.358171	0.372264	-0.331638	-2.622075	0.003432	-0.894775	0.260986	-0.139648	0.053582	0.019563	0.093665	0.568618	-0.340655	-0.224646	-0.714256	-5.693404	-47.911039	-100.422240
54507		5.218463	1.554223	9.525128	3.032910	3.011064	0.291825	-0.507689	-3.129874	0.156839	-0.898926	0.256348	-0.106201	0.050674	0.015825	0.096012	0.571947	-0.346878	-0.232187	-0.706146	-6.034553	-49.068202	-99.231697
54508		4.847753	0.355646	9.100237	1.947289	3.540648	-0.320546	-0.650818	-3.722365	0.208714	-0.910156	0.255859	-0.059570	0.046769	0.003904	0.091871	0.567131	-0.362061	-0.240130	-0.699723	-6.835880	-51.174124	-98.673565
54509		4.793186	1.395127	9.629253	3.087639	4.038420	-0.232392	-0.789668	-4.393836	0.246236	-0.916748	0.253418	-0.010742	0.045785	0.014391	0.097258	0.569945	-0.371703	-0.251365	-0.688342	-7.407015	-52.962962	-97.056790
54510		3.821806	-0.824784	10.397759	1.353920	6.124778	-0.646114	-0.995078	-5.103614	0.251785	-0.918701	0.253174	0.047119	0.035558	-0.007681	0.104947	0.562356	-0.392292	-0.261930	-0.679158	-8.750995	-55.837883	-96.105545
54511		1.928462	-4.547736	10.105751	-2.308963	8.080127	-2.337769	-1.053235	-5.919532	0.010686	-0.920898	0.252930	0.113770	0.016281	-0.044942	0.101807	0.563163	-0.405065	-0.278123	-0.664392	-9.514030	-58.375418	-94.105425
54512		2.188513	-5.474491	9.167505	-3.276386	7.825020	-2.971883	-0.958685	-6.995825	-0.373069	-0.911133	0.232910	0.189453	0.018554	-0.054339	0.092624	0.549904	-0.430227	-0.295216	-0.652194	-10.945541	-62.358083	-93.091335
54513		4.515695	-4.340348	9.843758	-2.165667	7.467317	-1.117436	-0.884143	-8.112735	-0.738167	-0.899170	0.221924	0.276367	0.040952	-0.043119	0.100347	0.545094	-0.447392	-0.318171	-0.633624	-12.015006	-66.039153	-90.765451
54514		7.981673	-3.752169	11.420340	-1.103997	8.234084	1.979265	-0.783882	-8.976117	-1.079659	-0.876221	0.213135	0.358398	0.074381	-0.037476	0.117771	0.525087	-0.475778	-0.342231	-0.617088	-13.867041	-71.190387	-89.260685
54515		15.063766	-0.805149	11.505583	1.784617	6.481013	7.921058	-0.978102	-9.419273	-1.226020	-0.839355	0.193604	0.449707	0.144948	-0.008366	0.122014	0.515174	-0.493830	-0.368839	-0.595554	-16.136344	-75.520810	-85.746445
54516		24.006954	-2.342607	10.244015	0.443068	5.399712	15.817224	-1.262897	-9.370893	-1.173789	-0.793457	0.174316	0.525391	0.234777	-0.024120	0.113677	0.490703	-0.522252	-0.391688	-0.577100	-22.264168	-80.818442	-80.231551
54517		27.620432	-7.769816	7.895003	-5.282237	5.509845	18.940324	-0.823673	-8.898863	-1.401322	-0.752197	0.155029	0.596680	0.271768	-0.079254	0.091435	0.479928	-0.534563	-0.418464	-0.555697	-31.535382	-84.731577	-69.486460
54518		26.660972	-4.420146	10.487375	-1.472527	9.970725	17.357782	-0.272231	-8.376544	-1.746010	-0.702148	0.142334	0.652344	0.261508	-0.046347	0.115962	0.456391	-0.554341	-0.442084	-0.537564	-100.094413	-88.213374	-1.007054
54519		23.656217	-5.200687	14.041031	-2.154589	15.151550	13.622561	-0.210992	-7.553992	-1.733206	-0.654541	0.129883	0.701172	0.230574	-0.053868	0.149252	0.447099	-0.559582	-0.466385	-0.519091	-165.209273	-86.365333	65.729056
54520		16.216809	-5.982042	15.916987	-2.877241	18.120504	4.859181	-0.487379	-6.806346	-1.586774	-0.611328	0.119629	0.738770	0.156146	-0.060678	0.164700	0.425475	-0.574290	-0.484485	-0.504416	179.968107	-82.584125	80.331591
54521		10.635969	-3.924417	19.774232	-1.005625	21.370139	-1.959639	-1.111198	-6.267325	-1.206154	-0.570068	0.102539	0.774658	0.099856	-0.038748	0.201156	0.420046	-0.575120	-0.502299	-0.490402	176.726094	-80.421166	85.034633
54522		7.937839	-1.312242	20.543551	1.919723	21.653012	-6.061066	-1.982045	-5.934894	-1.145388	-0.537842	0.083008	0.805908	0.073166	-0.011502	0.207788	0.396425	-0.590664	-0.512941	-0.480473	173.732158	-76.977571	86.928453
54523		14.870860	0.784558	22.632767	3.703219	25.022489	-0.116964	-3.259857	-4.539729	-0.778942	-0.505371	0.052490	0.815430	0.143562	0.011003	0.229463	0.394157	-0.586410	-0.523422	-0.476228	171.253495	-76.203915	90.367158
54524		30.204162	-15.603452	27.376416	-11.026054	36.066421	12.158068	-3.391906	-1.526472	-0.501622	-0.515869	0.036621	0.809082	0.299542	-0.152089	0.278659	0.378954	-0.595312	-0.519732	-0.481534	168.792220	-75.292854	90.901380
54525		15.775975	-22.657282	22.932523	-19.844107	28.226044	0.066792	-1.494279	2.120577	0.094154	-0.540527	0.029541	0.789307	0.160297	-0.224784	0.229318	0.407156	-0.569102	-0.519482	-0.490393	166.192729	-78.868833	96.153384
54526		7.478675	-19.741258	20.319746	-17.088346	23.596584	-6.708111	0.907178	4.207644	0.266420	-0.581543	0.044434	0.764893	0.079290	-0.198223	0.200663	0.421224	-0.557499	-0.512262	-0.499353	164.019616	-81.238642	98.886819
54527		0.523621	-10.230784	17.405686	-8.990888	18.049751	-10.897617	2.320546	5.162743	0.498238	-0.618652	0.077148	0.722168	0.009963	-0.104296	0.172638	0.467076	-0.522700	-0.503242	-0.505344	158.982106	-86.749128	107.708636
54528		-0.959550	-2.489046	15.644883	-1.748274	15.710006	-11.205410	2.295640	5.573640	0.924392	-0.664795	0.100830	0.672852	-0.005117	-0.026716	0.156333	0.489216	-0.505341	-0.493376	-0.511740	77.043321	-89.381546	-169.019527
54529		0.780658	0.567020	14.663591	0.420462	14.564738	-7.921640	1.483751	6.019326	1.435306	-0.699219	0.122559	0.623779	0.012179	0.004661	0.146350	0.534411	-0.472058	-0.473312	-0.517245	-7.986219	-83.839365	-80.956842
54530		2.830886	0.252625	12.757493	0.077633	12.243572	-5.245434	0.566487	6.554828	1.826905	-0.740479	0.137451	0.561523	0.032446	0.002451	0.126564	0.555671	-0.457643	-0.452677	-0.526191	-10.648850	-79.962295	-77.941197
54531		4.046540	-1.775932	10.312884	-2.105884	8.853014	-3.253939	-0.009987	7.087357	1.953933	-0.770508	0.159424	0.503418	0.044255	-0.017334	0.101606	0.598653	-0.424092	-0.423096	-0.531742	-11.574604	-73.253941	-74.607337
54532		4.297476	-3.486514	8.049652	-3.508834	6.007830	-2.959276	-0.132333	7.466263	1.827447	-0.807129	0.172119	0.443359	0.046255	-0.034400	0.078833	0.618580	-0.408193	-0.396213	-0.541989	-12.081787	-68.852043	-74.151695
54533		4.379334	-4.073882	6.291596	-3.910616	3.379390	-2.840487	0.009065	7.653407	1.555303	-0.825928	0.187500	0.374268	0.046472	-0.040387	0.061170	0.656166	-0.373697	-0.362077	-0.546531	-11.662832	-62.084585	-72.547967
54534		4.852152	-3.372351	5.465649	-2.943845	1.991815	-2.592833	0.170299	7.636677	1.245136	-0.848877	0.200439	0.309814	0.050768	-0.033458	0.052718	0.673218	-0.354248	-0.334895	-0.555996	-11.271088	-57.654318	-72.887853
54535		6.512756	-1.587039	5.579112	-0.706091	0.573942	-1.141058	0.104128	7.487746	1.076301	-0.867432	0.209229	0.238770	0.067238	-0.015540	0.053292	0.702425	-0.322058	-0.298745	-0.560026	-10.862518	-51.298433	-71.900949
54536		8.462496	-0.391607	6.135382	1.013946	-0.633422	0.576293	-0.240487	7.309878	1.125411	-0.874512	0.216064	0.163086	0.086811	-0.003360	0.058211	0.715625	-0.303898	-0.270386	-0.567819	-10.821522	-47.063340	-72.137206
54537		10.210460	-0.755359	6.622638	1.425434	-2.562151	2.020366	-0.696196	7.139181	1.315773	-0.884033	0.229248	0.103027	0.104427	-0.006650	0.062550	0.738435	-0.277178	-0.231902	-0.569304	-11.127250	-41.154103	-71.072910
54538		11.996802	-2.481373	7.042774	0.532264	-4.726995	3.490308	-1.021337	6.975600	1.530904	-0.873291	0.238525	0.033936	0.122512	-0.023537	0.066306	0.748984	-0.262689	-0.200971	-0.574132	-11.766875	-37.062469	-70.987173
54539		13.964351	-4.681073	7.562864	-0.427023	-7.599334	4.886786	-1.077111	6.818819	1.697434	-0.864990	0.250000	-0.030762	0.142507	-0.045218	0.071048	0.766956	-0.240348	-0.162036	-0.572500	-12.414756	-31.584024	-69.955721
54540		16.329399	-6.347557	8.138333	-0.824017	-10.511974	6.369267	-0.907445	6.669394	1.862596	-0.845459	0.270752	-0.093506	0.166471	-0.061581	0.076149	0.776131	-0.226101	-0.131529	-0.573758	-13.047999	-27.621127	-69.727056
54541		19.288369	-7.379705	8.677307	-0.105729	-14.294641	7.428724	-0.600411	6.529762	2.050204	-0.816650	0.275879	-0.151367	0.196324	-0.071548	0.080617	0.788861	-0.206116	-0.094099	-0.571278	-13.635951	-22.579260	-69.088114
54542		22.417134	-7.942248	8.619673	0.975458	-18.229989	7.691212	-0.278981	6.420419	2.257320	-0.779053	0.287842	-0.200684	0.227662	-0.076752	0.079033	0.797584	-0.189822	-0.065599	-0.568792	-13.938913	-18.697959	-68.682741
54543		25.425432	-7.555313	8.227761	2.944874	-22.157420	6.659059	-0.022372	6.309912	2.494788	-0.738770	0.291016	-0.245361	0.257596	-0.072345	0.074193	0.805181	-0.171353	-0.030484	-0.566914	-14.409993	-14.085814	-68.507862
54544		28.069904	-5.369729	7.366199	6.431803	-25.055828	4.382897	0.084440	6.188588	2.874250	-0.698730	0.300781	-0.281250	0.283531	-0.049664	0.064895	0.813874	-0.153811	-0.003330	-0.560303	-14.514594	-10.240595	-67.782575
54545		30.210204	-2.069957	5.654965	10.350942	-27.176479	0.328434	0.061250	6.024759	3.335960	-0.669922	0.310303	-0.301758	0.303911	-0.015655	0.047406	0.818828	-0.137608	0.028816	-0.556556	-15.004117	-6.083829	-67.605865
54546		33.117026	5.541272	3.905402	18.727686	-27.734349	-5.089248	-0.381684	5.832320	3.957183	-0.647949	0.323975	-0.335449	0.330936	0.062025	0.029286	0.828225	-0.122287	0.056459	-0.543968	-15.318969	-2.264860	-66.288187
54547		33.855022	2.212889	-1.045110	15.557980	-30.131394	-11.123400	-0.865244	5.714753	4.145579	-0.612793	0.344727	-0.358154	0.337511	0.029060	-0.020222	0.835586	-0.110085	0.084678	-0.531514	-15.906547	1.403197	-65.116668
54548		31.018805	-3.747478	-7.131066	8.109520	-30.068058	-17.354127	-0.319792	5.519946	3.413472	-0.595215	0.351807	-0.387207	0.308645	-0.032321	-0.079790	0.841703	-0.095250	0.110423	-0.519876	-16.033568	4.982474	-64.105110
54549		25.771500	-5.833609	-12.107934	2.746822	-25.993360	-22.516892	1.016124	5.052867	1.900667	-0.577148	0.350098	-0.416260	0.255077	-0.055265	-0.127832	0.843560	-0.079227	0.126148	-0.515961	-15.434465	7.531485	-63.925922
54550		24.697543	0.491960	-14.345049	6.811860	-21.462653	-27.385750	2.065564	4.268157	0.167290	-0.556396	0.332764	-0.442627	0.243835	0.006642	-0.148614	0.841881	-0.059376	0.138855	-0.518103	-14.333095	9.919933	-64.467617
54551		28.411268	9.664211	-16.478039	15.145603	-20.327681	-32.822323	1.620888	3.477009	-1.150930	-0.551270	0.315186	-0.466553	0.281755	0.096374	-0.168911	0.834672	-0.048246	0.144205	-0.529339	-13.740059	10.932433	-66.085944
54552		28.814627	13.386792	-19.629662	16.968872	-18.620298	-37.382136	0.041525	2.595328	-2.101284	-0.552979	0.301758	-0.470703	0.286953	0.130890	-0.199998	0.827133	-0.042711	0.154403	-0.538690	-14.027038	12.087585	-67.642770
54553		24.170337	9.502872	-21.570869	10.813473	-16.275432	-37.342656	-1.297203	1.325633	-2.784501	-0.557373	0.299561	-0.477295	0.241543	0.090256	-0.217906	0.821616	-0.050109	0.154211	-0.546494	-14.832406	11.457259	-68.755566
54554		20.700421	0.259436	-20.306492	0.936009	-17.271079	-33.086925	-1.272213	-0.320494	-3.215478	-0.561279	0.283936	-0.463623	0.207321	-0.002028	-0.202730	0.812635	-0.058681	0.155545	-0.558558	-15.901259	10.792281	-70.516413
54555		21.709861	-10.060203	-16.533212	-6.921629	-22.959374	-26.268362	0.594377	-1.861923	-3.301505	-0.589600	0.260986	-0.456299	0.216932	-0.103696	-0.163617	0.807882	-0.067716	0.136036	-0.569416	-15.489847	8.203279	-71.471878
54556		11.709010	-14.844560	-5.860099	-11.619761	-15.655380	-13.229228	4.546305	-3.495278	-3.865934	-0.610352	0.211670	-0.439697	0.115249	-0.149333	-0.059964	0.800311	-0.061892	0.107591	-0.586597	-13.086212	5.716256	-73.136094
54557		1.858275	8.431781	26.006814	14.151231	0.476859	13.645701	3.374039	-3.517312	-2.617410	-0.625244	0.193604	-0.425781	0.015052	0.079699	0.261724	0.789332	-0.066084	0.076257	-0.605617	-11.352857	2.312007	-75.224492
54558		-10.547452	2.004837	15.749273	2.062686	11.133449	5.518470	2.565095	-3.865622	-0.013065	-0.640625	0.186523	-0.394531	-0.108494	0.018051	0.155655	0.791402	-0.067652	0.053213	-0.605206	-9.874501	0.133969	-74.823807
54559		7.246134	13.093860	2.700292	14.827582	-3.260200	-8.964312	1.603112	-5.387429	1.647969	-0.654541	0.195068	-0.356934	0.070600	0.131293	0.029973	0.797975	-0.080914	0.019936	-0.596902	-8.815690	-3.714113	-73.308137
54560		27.393234	12.103015	8.595353	20.700274	-21.429245	-0.715370	0.547537	-5.475082	2.247425	-0.666260	0.214844	-0.323975	0.270056	0.123830	0.093719	0.805096	-0.094808	-0.002637	-0.585512	-8.660169	-6.619124	-71.551857
54561		21.955475	8.553694	13.983099	16.652342	-14.924025	6.016945	0.294830	-4.351768	1.455780	-0.673584	0.230225	-0.297607	0.215812	0.086906	0.144682	0.814650	-0.107823	-0.030942	-0.569001	-8.199300	-9.969112	-69.149252
54562		18.085653	4.635524	12.326038	11.540622	-12.211462	4.957125	-0.020825	-3.699550	0.493802	-0.678223	0.232178	-0.286621	0.178420	0.046811	0.126571	0.815330	-0.118490	-0.045679	-0.564899	-8.324918	-12.026042	-68.553719
54563		35.190493	-9.478643	14.700784	5.068866	-30.947113	13.869692	1.098634	-2.292827	-0.201427	-0.684814	0.232178	-0.282227	0.350097	-0.095960	0.150503	0.822135	-0.120341	-0.069824	-0.552029	-7.161576	-14.339933	-66.857371
54564		14.660257	-2.155511	6.172950	3.681728	-12.091485	0.082409	0.558722	-1.186560	0.131634	-0.689697	0.238525	-0.282227	0.146247	-0.021633	0.062538	0.822403	-0.121363	-0.076163	-0.550567	-6.882863	-15.005408	-66.694053
54565		8.180601	3.433094	9.625357	6.289937	-2.966088	1.277580	0.314746	-0.693599	0.200537	-0.692383	0.249756	-0.284668	0.081437	0.034261	0.096590	0.827244	-0.123133	-0.089486	-0.540830	-6.397509	-16.334353	-65.432089
54566		8.866644	-0.100002	7.928249	3.322520	-5.366386	0.269322	0.072599	-0.554180	0.151047	-0.692627	0.260742	-0.291504	0.088447	-0.000962	0.079527	0.827446	-0.124399	-0.091881	-0.539830	-6.391877	-16.640272	-65.305503
54567		10.615767	-1.983485	6.869847	2.370866	-7.749423	0.094320	0.020573	-0.313408	0.226911	-0.697998	0.278564	-0.296387	0.106072	-0.019722	0.068863	0.832097	-0.125718	-0.101259	-0.530619	-6.127538	-17.573629	-64.102435
54568		8.742300	-0.572310	7.588653	2.865691	-5.314494	0.081092	-0.074632	-0.130838	0.282936	-0.700439	0.282959	-0.305420	0.087381	-0.005571	0.075946	0.832733	-0.126520	-0.101427	-0.529397	-6.224023	-17.630786	-63.924887
54569		7.684998	-0.798970	8.114962	2.213772	-4.198239	0.337388	-0.176037	-0.003095	0.288162	-0.709717	0.296143	-0.310059	0.076860	-0.007808	0.081158	0.836617	-0.127866	-0.107299	-0.521736	-6.164275	-18.237778	-62.907097
54570		6.458954	-1.094838	8.406695	1.437733	-3.183451	0.256460	-0.161743	0.103940	0.293362	-0.719238	0.307129	-0.312500	0.064649	-0.010786	0.084042	0.837333	-0.128429	-0.106256	-0.520662	-6.309776	-18.160431	-62.738029
54571		6.304484	-1.327313	8.082119	1.192377	-3.177167	-0.049867	-0.199092	0.107499	0.294772	-0.717529	0.318115	-0.319336	0.063108	-0.013100	0.080800	0.840644	-0.129498	-0.110218	-0.514199	-6.321556	-18.571225	-61.871368
54572		6.113133	-1.068495	7.786696	1.391202	-2.998611	-0.420272	-0.233470	0.131004	0.298580	-0.733154	0.320068	-0.317139	0.061198	-0.010503	0.077839	0.841331	-0.130307	-0.108875	-0.513156	-6.509493	-18.477677	-61.700937
54573		6.053531	-1.091927	8.122418	1.352828	-2.780790	-0.104542	-0.296026	0.140828	0.353947	-0.731689	0.342285	-0.322021	0.060612	-0.010692	0.081197	0.844222	-0.131680	-0.111311	-0.507503	-6.631827	-18.759637	-60.927604
54574		5.789032	-1.140361	8.434568	1.222028	-2.472790	0.104316	-0.332610	0.158760	0.400018	-0.740967	0.344482	-0.317627	0.057980	-0.011147	0.084318	0.845103	-0.132905	-0.109534	-0.506103	-6.895826	-18.642505	-60.698650
54575		5.873022	-1.639187	7.669781	0.903754	-2.973171	-0.520320	-0.340008	0.153163	0.436780	-0.746094	0.364258	-0.315918	0.058824	-0.016133	0.076680	0.847810	-0.134421	-0.110941	-0.500840	-7.088625	-18.829928	-59.967649
54576		6.337333	-1.401484	7.268254	1.409546	-3.369000	-0.778519	-0.358916	0.096583	0.480573	-0.746094	0.366455	-0.320313	0.063442	-0.013732	0.072677	0.848822	-0.135968	-0.109311	-0.499065	-7.384817	-18.740567	-59.686511
54577		5.662265	-1.762998	7.415409	0.812910	-2.882301	-0.802199	-0.402914	0.012921	0.520705	-0.749023	0.382080	-0.318359	0.056673	-0.017333	0.074186	0.851287	-0.138135	-0.110488	-0.493986	-7.656856	-18.940504	-58.972465
54578		5.952896	-2.480082	7.621604	0.377339	-3.361992	-0.419558	-0.431313	-0.042417	0.532034	-0.751465	0.388672	-0.314209	0.059578	-0.024478	0.076282	0.852274	-0.140369	-0.109236	-0.491927	-8.008704	-18.923285	-58.649728
54579		5.015766	-3.389335	7.512970	-0.816365	-3.031681	-0.689508	-0.407981	-0.064952	0.477547	-0.754150	0.397461	-0.303223	0.050214	-0.033620	0.075215	0.854258	-0.142745	-0.110264	-0.487553	-8.298291	-19.121971	-58.029530
54580		4.746983	-3.179850	7.612672	-0.727624	-2.656963	-0.701761	-0.361284	-0.077271	0.385827	-0.760986	0.399658	-0.301025	0.047501	-0.031569	0.076202	0.854895	-0.144690	-0.109440	-0.486048	-8.583388	-19.133587	-57.791229
54581		5.074567	-3.877020	6.562957	-1.079401	-3.593092	-1.459282	-0.294589	-0.130740	0.272408	-0.761230	0.410645	-0.301270	0.050755	-0.038604	0.065720	0.856039	-0.146705	-0.110691	-0.483138	-8.791709	-19.345868	-57.378325
54582		5.539179	-4.075813	6.405734	-0.985608	-4.094771	-1.410929	-0.179069	-0.196938	0.154072	-0.759033	0.408447	-0.303467	0.055360	-0.040658	0.064148	0.856169	-0.148034	-0.110991	-0.482433	-8.931138	-19.444052	-57.267449
54583		5.026106	-3.206698	7.481548	-0.547925	-2.834126	-0.692069	-0.119638	-0.242864	0.066756	-0.761230	0.410645	-0.294678	0.050181	-0.032005	0.074896	0.856551	-0.149544	-0.112914	-0.480840	-9.020143	-19.709266	-57.046785
54584		5.089036	-2.883182	7.472081	-0.240476	-2.702378	-0.719708	-0.092164	-0.282834	-0.018071	-0.768066	0.415039	-0.292480	0.050782	-0.028802	0.074806	0.856278	-0.150610	-0.113920	-0.480757	-9.078444	-19.871241	-57.030585
54585		5.292769	-2.914903	7.558091	-0.180596	-2.805343	-0.553521	-0.070252	-0.297208	-0.071260	-0.763672	0.412842	-0.281250	0.052805	-0.029141	0.075670	0.856181	-0.151959	-0.116054	-0.479994	-9.120230	-20.157724	-56.927542
54586		5.279197	-2.920931	7.312211	-0.195380	-2.862759	-0.777394	-0.050183	-0.309524	-0.160766	-0.772461	0.408203	-0.278809	0.052655	-0.029233	0.073211	0.855575	-0.152824	-0.117383	-0.480476	-9.125805	-20.347759	-56.994531
54587		6.009634	-3.024841	6.817189	0.090258	-3.634358	-0.951390	-0.044040	-0.331502	-0.272107	-0.770264	0.410400	-0.276855	0.059942	-0.030315	0.068278	0.854894	-0.154014	-0.119707	-0.480736	-9.115212	-20.655805	-57.036532
54588		5.626649	-2.857856	6.910968	0.001831	-3.191387	-1.014797	0.001421	-0.342524	-0.341005	-0.774658	0.405762	-0.270020	0.056099	-0.028675	0.069206	0.853867	-0.154628	-0.121439	-0.481927	-9.052987	-20.880789	-57.209753
54589		5.777723	-2.917284	7.215590	-0.029745	-3.185519	-0.657974	0.023873	-0.366108	-0.366094	-0.781006	0.396729	-0.267578	0.057591	-0.029287	0.072258	0.852916	-0.155544	-0.124027	-0.482657	-8.985372	-21.205802	-57.324911
54590		5.616349	-2.553592	7.145242	0.164921	-2.885251	-0.825663	0.085398	-0.371289	-0.397283	-0.787598	0.396729	-0.260742	0.055980	-0.025678	0.071546	0.851789	-0.155831	-0.126128	-0.484008	-8.861527	-21.451630	-57.530914
54591		5.574061	-2.654514	7.038723	0.014123	-2.907791	-0.912996	0.135357	-0.424366	-0.429643	-0.791992	0.392090	-0.254150	0.055534	-0.026712	0.070487	0.850678	-0.156355	-0.129190	-0.484984	-8.716672	-21.805590	-57.694068
54592		5.935004	-2.355880	6.808565	0.412497	-3.114146	-1.022772	0.211480	-0.470159	-0.459367	-0.791504	0.381104	-0.253906	0.059135	-0.023767	0.068200	0.849420	-0.156300	-0.132064	-0.486431	-8.506849	-22.111722	-57.931186
54593		5.576742	-2.700852	6.653683	-0.117682	-3.023556	-1.238893	0.290342	-0.582790	-0.526286	-0.798096	0.378662	-0.249268	0.055502	-0.027252	0.066659	0.848048	-0.156464	-0.136185	-0.487635	-8.252725	-22.555446	-58.150112
54594		6.293621	-2.072253	7.159098	0.659817	-3.056133	-0.572529	0.364378	-0.671360	-0.599310	-0.798096	0.374268	-0.244629	0.062633	-0.021041	0.071763	0.846404	-0.156147	-0.140390	-0.489397	-7.923972	-22.984986	-58.460141
54595		6.282310	-1.782524	7.390977	0.798331	-2.775206	-0.382337	0.319950	-0.657243	-0.632536	-0.813477	0.364990	-0.242188	0.062523	-0.018142	0.074087	0.844693	-0.156269	-0.144930	-0.490988	-7.623199	-23.471606	-58.749676
54596		6.449441	-2.391753	7.108379	0.281557	-3.273750	-0.482774	0.306056	-0.675305	-0.678069	-0.813232	0.360596	-0.235596	0.064172	-0.024244	0.071264	0.842767	-0.156143	-0.149064	-0.493096	-7.300882	-23.906111	-59.115494
54597		5.738779	-2.638658	7.979218	-0.449501	-2.424677	0.060608	0.305918	-0.728099	-0.727339	-0.822021	0.353760	-0.228760	0.057000	-0.026717	0.079959	0.840726	-0.156393	-0.153913	-0.495006	-6.976931	-24.433018	-59.465421
54598		5.485416	-2.756716	8.799186	-0.854062	-1.888813	0.714269	0.234497	-0.792141	-0.729699	-0.830322	0.340088	-0.221680	0.054404	-0.027870	0.088175	0.838480	-0.156806	-0.158395	-0.497266	-6.676580	-24.933781	-59.862949
54599		5.576858	-1.969367	9.081396	-0.246654	-1.409379	0.929899	0.164850	-0.874031	-0.694302	-0.839111	0.335449	-0.210449	0.055302	-0.019961	0.091040	0.836172	-0.158044	-0.163390	-0.499141	-6.439047	-25.532089	-60.208605
54600		5.637585	-0.741956	9.429843	0.741615	-0.678966	1.152838	0.001125	-0.948396	-0.607075	-0.843506	0.328857	-0.205811	0.055905	-0.007590	0.094564	0.833869	-0.159909	-0.167838	-0.500921	-6.300306	-26.111148	-60.525696
54601		6.445369	0.084542	8.827461	1.830245	-1.102235	0.906829	-0.174010	-1.113695	-0.515229	-0.852051	0.322021	-0.190186	0.063963	0.000757	0.088631	0.831501	-0.163256	-0.172809	-0.502086	-6.302730	-26.828376	-60.745110
54602		6.843417	0.567972	8.506053	2.414766	-1.224512	0.778611	-0.417694	-1.359489	-0.374177	-0.854004	0.315186	-0.174316	0.067865	0.005731	0.085511	0.829023	-0.168080	-0.177717	-0.502879	-6.477038	-27.626772	-60.887263
54603		6.121704	0.812034	9.002749	2.209798	-0.163822	0.877085	-0.575958	-1.695620	-0.167947	-0.876465	0.314697	-0.154297	0.060458	0.008330	0.090518	0.826740	-0.174720	-0.183869	-0.502161	-6.821536	-28.652715	-60.804872
54604		5.935911	1.066903	9.276566	2.284636	0.428357	1.004897	-0.750303	-2.125265	0.018273	-0.880859	0.310059	-0.131836	0.058368	0.011024	0.093349	0.824123	-0.183165	-0.190746	-0.500887	-7.341367	-29.860280	-60.620938
54605		5.893575	0.389590	9.312732	1.613027	0.465189	1.086264	-0.917260	-2.606545	0.184841	-0.887451	0.309814	-0.094238	0.057712	0.004379	0.093865	0.821492	-0.193635	-0.199528	-0.497840	-8.043934	-31.373835	-60.170836
54606		5.547792	0.744492	9.485038	1.716839	1.292440	0.988663	-1.030088	-3.174758	0.283362	-0.894287	0.311768	-0.058594	0.053952	0.008013	0.095675	0.817917	-0.206025	-0.209705	-0.494560	-8.904792	-33.149529	-59.663984
54607		5.038234	-0.211821	9.815483	0.534734	1.836319	1.054612	-1.216133	-3.786008	0.384425	-0.905518	0.313721	-0.009766	0.048515	-0.001423	0.099095	0.813876	-0.220603	-0.222330	-0.489398	-9.981898	-35.297564	-58.855411
54608		3.818545	-1.639751	10.255983	-1.397798	2.799237	0.800660	-1.292574	-4.540269	0.373687	-0.907471	0.311279	0.043457	0.035873	-0.015662	0.103495	0.808088	-0.237327	-0.237171	-0.484169	-11.233858	-37.815596	-57.997333
54609		2.965442	-3.746431	10.537632	-3.806673	3.185183	0.637370	-1.332973	-5.378248	0.224445	-0.904785	0.302246	0.110352	0.026844	-0.036726	0.106370	0.800690	-0.255749	-0.255841	-0.477528	-12.613669	-40.840338	-56.910915
54610		3.471524	-3.622858	10.148549	-3.577930	3.254210	0.421426	-1.414938	-6.235539	-0.013211	-0.897705	0.300049	0.179199	0.031522	-0.035507	0.102755	0.790464	-0.276153	-0.277312	-0.471174	-14.178745	-44.318182	-55.796938
54611		4.977163	-4.664641	10.854102	-4.257585	3.149376	1.859081	-1.388507	-7.064147	-0.303977	-0.888184	0.286621	0.257080	0.045820	-0.045955	0.110527	0.777596	-0.297672	-0.302439	-0.463967	-15.902409	-48.294235	-54.480457
54612		7.193044	-4.129205	11.166590	-3.293933	3.273232	3.295358	-1.323437	-7.741537	-0.621964	-0.869629	0.275635	0.332764	0.067404	-0.040754	0.114605	0.761876	-0.319601	-0.330155	-0.456506	-17.806873	-52.643377	-52.995999
54613		12.751270	-3.890163	9.529725	-1.138368	0.497360	6.522708	-1.356215	-8.188613	-0.873694	-0.839600	0.258301	0.410645	0.123294	-0.038776	0.100667	0.743403	-0.341917	-0.359299	-0.448719	-20.101625	-57.251904	-51.179276
54614		19.141941	-5.155560	8.737293	-0.554294	-1.830553	11.760223	-1.438285	-8.368988	-0.989704	-0.800537	0.238770	0.488525	0.187276	-0.051821	0.095641	0.723014	-0.363944	-0.388538	-0.440266	-23.032018	-61.921140	-48.739592
54615		23.118781	-6.814809	8.771628	-1.633832	-1.935656	15.703132	-1.520733	-8.200098	-1.175014	-0.773193	0.230225	0.548584	0.226918	-0.068773	0.097602	0.700920	-0.385135	-0.416494	-0.432338	-26.765516	-66.473222	-45.611079
54616		22.960361	-9.084461	9.210037	-4.802554	-0.320939	16.090856	-1.247647	-7.774799	-1.682588	-0.729248	0.202148	0.608887	0.225008	-0.092137	0.101481	0.678125	-0.402495	-0.443942	-0.425511	-30.811517	-70.844026	-42.037881
54617		20.995063	-10.381098	11.698203	-8.122266	3.753012	14.784548	-0.846200	-7.266576	-2.286469	-0.683594	0.182861	0.655762	0.204306	-0.105651	0.124919	0.654601	-0.415992	-0.470657	-0.420631	-35.185717	-75.048124	-38.075500
54618		15.867361	-10.482167	14.338544	-10.930486	8.371828	9.614833	-0.329212	-6.799666	-2.823604	-0.644531	0.163330	0.707031	0.152177	-0.106759	0.148808	0.631534	-0.424442	-0.497770	-0.416219	-40.182202	-79.124469	-33.146273
54619		11.702614	-11.484538	17.945294	-14.320748	12.897124	4.992992	0.235893	-6.471669	-3.144549	-0.609863	0.141846	0.740479	0.109317	-0.116819	0.182937	0.608298	-0.430390	-0.523878	-0.412661	-48.532520	-83.005984	-24.812368
54620		8.076182	-9.856069	18.402725	-14.000207	14.497003	-0.082936	0.730858	-5.971824	-3.078574	-0.573975	0.144531	0.762451	0.073692	-0.100409	0.185934	0.587530	-0.432180	-0.549873	-0.407024	-70.165426	-86.329791	-2.676203
54621		8.092600	-2.603203	19.224101	-7.755194	17.757785	-1.674824	1.042885	-5.283461	-2.687786	-0.546387	0.129395	0.791504	0.075445	-0.028080	0.194140	0.568458	-0.434794	-0.570832	-0.402443	-130.509514	-87.371365	57.886934
54622		25.608439	3.139595	26.230297	-4.483798	27.306036	14.432360	-0.488142	-3.472574	-1.501842	-0.530518	0.123047	0.798340	0.251709	0.030142	0.266624	0.554358	-0.438805	-0.582883	-0.400481	-163.089020	-86.128189	90.234193
54623		27.707450	-9.493740	29.309125	-17.282432	27.187806	16.244737	-1.386038	0.544010	-0.305211	-0.545898	0.116211	0.785156	0.277728	-0.093330	0.292987	0.551257	-0.443247	-0.576661	-0.408791	-163.469317	-86.530760	89.333926
54624		9.694056	-16.558863	21.527884	-21.685392	16.693092	-0.721399	-0.743206	3.221279	0.360208	-0.582275	0.126709	0.754150	0.100694	-0.164612	0.214290	0.559554	-0.439690	-0.565388	-0.417022	-141.723616	-88.103327	67.140623
54625		-1.218312	-17.033950	16.601657	-20.749224	11.661656	-10.633951	0.843116	4.364834	0.441379	-0.618896	0.139404	0.725098	-0.008190	-0.171059	0.165504	0.572788	-0.433238	-0.549799	-0.426544	-53.682596	-88.059760	-21.213917
54626		-6.614224	-11.944743	12.943337	-15.238555	9.435170	-15.529406	2.118331	4.474541	0.238889	-0.657959	0.160889	0.676025	-0.063100	-0.120896	0.129592	0.590007	-0.418155	-0.540819	-0.429597	-23.762876	-85.907075	-49.953098
54627		-3.831884	-6.804691	12.331424	-10.113181	10.226931	-12.292431	2.610900	4.493608	0.150433	-0.683594	0.187256	0.640137	-0.035497	-0.069684	0.123230	0.605215	-0.406082	-0.527579	-0.436432	-15.288602	-83.241729	-57.991368
54628		1.021266	-2.126491	12.630445	-5.660977	11.183192	-6.994323	2.289506	4.846249	0.292950	-0.715820	0.200195	0.591064	0.013297	-0.022689	0.125753	0.623065	-0.389209	-0.517128	-0.439187	-10.743074	-80.497888	-61.256793
54629		3.889646	-0.476773	12.172199	-3.612631	10.597529	-3.638827	1.430128	5.511217	0.568092	-0.750000	0.210693	0.546631	0.042244	-0.005516	0.120551	0.638243	-0.378926	-0.496546	-0.450003	-9.507926	-77.127973	-62.786078
54630		4.362072	-1.364286	10.635921	-3.902496	8.408210	-2.881560	0.583490	6.188315	0.785638	-0.779785	0.221436	0.488770	0.046936	-0.013770	0.104901	0.656162	-0.364909	-0.476384	-0.457550	-8.724945	-73.556079	-63.249584
54631		4.060093	-2.854110	8.775451	-4.512244	5.971099	-3.060865	0.057325	6.671485	0.892427	-0.807129	0.234375	0.428711	0.043624	-0.028376	0.086325	0.670743	-0.355760	-0.447638	-0.472396	-8.919969	-69.491444	-64.119614
54632		4.084547	-4.061099	7.234906	-5.053549	3.797270	-3.064982	-0.125977	6.932716	0.903331	-0.827637	0.238525	0.366699	0.043503	-0.040374	0.070897	0.687755	-0.341617	-0.422216	-0.481690	-8.753863	-65.487162	-64.377526
54633		4.956750	-4.585409	6.340133	-4.885052	2.154382	-2.245809	-0.094708	7.047665	0.881641	-0.843994	0.251709	0.299805	0.051962	-0.045599	0.061620	0.700673	-0.330540	-0.390962	-0.496940	-8.914750	-61.209960	-65.410825
54634		6.224684	-4.387076	6.302713	-4.199896	1.092732	-0.933042	0.000258	7.076916	0.889983	-0.860107	0.253906	0.235352	0.064618	-0.043587	0.060768	0.716269	-0.314489	-0.364457	-0.505199	-8.717716	-57.125104	-65.640090
54635		8.424646	-3.574588	6.861467	-2.717718	0.075281	1.295305	0.036130	7.080553	0.980544	-0.871826	0.264893	0.168701	0.086778	-0.035337	0.065566	0.727331	-0.301546	-0.332533	-0.519116	-8.892112	-52.825394	-66.609736
54636		10.406326	-3.180083	7.467626	-1.628663	-1.236035	3.222492	-0.050163	7.130788	1.118130	-0.874512	0.271729	0.099609	0.106812	-0.031191	0.070908	0.741536	-0.284887	-0.304574	-0.525545	-8.921453	-48.689935	-66.609125
54637		11.876872	-3.171759	8.099188	-0.910793	-2.573804	4.650007	-0.158744	7.147189	1.260700	-0.872803	0.287598	0.034912	0.121758	-0.030894	0.076700	0.750837	-0.271319	-0.271100	-0.537712	-9.324513	-44.337815	-67.410262
54638		13.642282	-2.930135	8.765626	0.186985	-4.209082	6.114176	-0.267326	7.103813	1.388884	-0.866699	0.296875	-0.042969	0.139620	-0.028226	0.082772	0.763343	-0.254933	-0.241656	-0.542143	-9.583753	-40.192238	-67.252938
54639		15.484405	-2.871856	9.306510	1.212133	-6.264537	7.327006	-0.378418	7.022237	1.477295	-0.851318	0.303955	-0.100830	0.158190	-0.027389	0.087602	0.770557	-0.241221	-0.207664	-0.552204	-10.125700	-35.904786	-67.964638
54640		16.934937	-2.705141	9.658978	2.337103	-8.214785	7.915823	-0.475387	6.898904	1.545404	-0.815674	0.309326	-0.167725	0.172748	-0.025505	0.090731	0.780928	-0.225462	-0.177782	-0.554717	-10.508019	-31.857310	-67.767999
54641		18.128708	-2.912745	10.062237	2.980409	-10.182618	8.232845	-0.555512	6.700347	1.601242	-0.789307	0.321045	-0.221436	0.184747	-0.027389	0.094549	0.785996	-0.211988	-0.144590	-0.562464	-11.114919	-27.759769	-68.420923
54642		19.407729	-3.979927	10.004664	2.944326	-12.649663	8.179844	-0.533580	6.435676	1.628807	-0.751465	0.328613	-0.268311	0.197478	-0.037944	0.093831	0.794226	-0.197050	-0.115995	-0.562958	-11.513874	-23.960888	-68.207894
54643		20.949887	-6.024742	9.609825	1.882639	-15.807455	7.905714	-0.307247	6.106507	1.594201	-0.710693	0.320557	-0.306152	0.212774	-0.058419	0.089725	0.797486	-0.183103	-0.086263	-0.568373	-11.931031	-20.226319	-68.819864
54644		22.616049	-7.004633	9.000717	1.950913	-18.758220	7.089960	0.103534	5.779787	1.574092	-0.681396	0.316650	-0.328369	0.229176	-0.068295	0.083377	0.804188	-0.166865	-0.062033	-0.567088	-11.938063	-16.799695	-68.611457
54645		23.935076	-5.905434	8.124757	3.525761	-20.823495	5.271707	0.500139	5.473139	1.717613	-0.645264	0.312988	-0.357422	0.241948	-0.057176	0.074505	0.806815	-0.150816	-0.037534	-0.569996	-11.901141	-13.443997	-69.073007
54646		25.296275	-4.110146	6.763668	5.933669	-22.602876	2.687668	0.683426	5.195144	2.058226	-0.622803	0.311279	-0.377441	0.255010	-0.038700	0.060895	0.813851	-0.133582	-0.016958	-0.565257	-11.624781	-10.289330	-68.513341
54647		26.945824	-0.297736	4.889639	10.006648	-23.894215	-0.934585	0.777540	4.942859	2.508588	-0.600586	0.318359	-0.395508	0.270567	0.000239	0.042215	0.817858	-0.117534	0.004429	-0.563271	-11.467092	-7.190149	-68.388650
54648		28.314143	1.969380	2.280517	12.779403	-25.016628	-5.185678	0.522565	4.854269	3.054540	-0.578369	0.323486	-0.422363	0.283240	0.023972	0.015990	0.826321	-0.101612	0.024600	-0.553411	-11.283402	-4.118049	-67.215808
54649		25.600291	-2.456290	-1.783055	7.389058	-24.694207	-9.905104	0.696270	4.777914	2.940465	-0.558594	0.330566	-0.447021	0.255802	-0.020724	-0.024020	0.831156	-0.085963	0.044802	-0.547524	-11.069263	-1.126432	-66.640582
54650		24.976452	-0.633730	-4.941838	8.646237	-23.456323	-14.665066	1.210476	4.498098	2.327115	-0.538086	0.322021	-0.475586	0.248617	-0.003118	-0.055044	0.836758	-0.068071	0.061167	-0.539872	-10.371960	1.654002	-65.809895
54651		27.919764	4.944573	-8.514920	14.231820	-23.681568	-20.440888	1.181595	4.198526	1.657190	-0.520752	0.335938	-0.498291	0.276907	0.052271	-0.090675	0.837982	-0.052249	0.076358	-0.537797	-9.795811	4.115936	-65.735600
54652		28.580452	10.290279	-14.238402	18.197892	-21.423056	-28.121662	0.328921	3.801543	0.958259	-0.506836	0.327393	-0.520264	0.282534	0.104502	-0.147604	0.839032	-0.040275	0.091638	-0.534795	-9.591573	6.355504	-65.560303
54653		21.958215	9.935679	-19.335513	13.752523	-14.932847	-33.105383	-0.942466	2.852992	0.049569	-0.493652	0.336426	-0.529541	0.216765	0.098488	-0.196926	0.836770	-0.037702	0.105603	-0.535950	-10.250554	7.834905	-65.982819
54654		13.862929	4.751005	-19.533593	5.297862	-9.579697	-31.640420	-1.709952	1.095680	-1.082234	-0.498291	0.340820	-0.520752	0.137803	0.045086	-0.196485	0.832914	-0.042490	0.114560	-0.539745	-11.333773	8.335506	-66.716620
54655		13.379980	-2.222579	-15.345643	-0.583224	-12.461161	-26.054789	-1.654760	-0.721940	-2.119954	-0.504883	0.336182	-0.511719	0.134098	-0.024912	-0.152774	0.827115	-0.053775	0.114610	-0.547590	-12.493585	7.509884	-67.836164
54656		11.633255	-14.895463	-12.312576	-12.188993	-16.111072	-19.844839	-0.509579	-2.142258	-2.915898	-0.530762	0.306885	-0.497559	0.115449	-0.150953	-0.121503	0.820084	-0.063412	0.106344	-0.558687	-12.946211	5.944609	-69.204818
54657		9.309652	-16.848810	-23.393489	-17.498771	-14.648161	-29.737756	3.033117	-4.510223	-3.930764	-0.565674	0.277100	-0.470215	0.095089	-0.166792	-0.234344	0.811026	-0.067084	0.077270	-0.575991	-11.423277	2.754470	-71.040319
54658		8.941627	4.533000	6.282619	8.156666	-6.791993	-4.593219	2.860294	-6.397285	-3.622853	-0.606934	0.242920	-0.440430	0.088123	0.042794	0.066283	0.803395	-0.075257	0.041825	-0.589189	-9.802168	-1.230681	-72.405139
54659		21.317831	-9.100756	23.003970	0.855652	-20.687482	15.435502	2.250322	-5.301225	-1.465206	-0.628662	0.226807	-0.408691	0.206314	-0.095158	0.234514	0.799009	-0.083882	0.012656	-0.595305	-8.603097	-4.568211	-73.032482
54660		12.773556	-2.833211	5.380361	1.636983	-12.174347	-2.797557	2.537816	-5.015675	0.591120	-0.646729	0.230957	-0.375488	0.126423	-0.028664	0.056623	0.801831	-0.088605	-0.014689	-0.590763	-7.225519	-7.368174	-72.297264
54661		15.762487	7.670916	4.589015	12.426549	-11.692928	-3.721098	1.555932	-5.840516	1.732405	-0.660400	0.237061	-0.340088	0.155514	0.077679	0.051054	0.805081	-0.101808	-0.042666	-0.582804	-6.675950	-10.799185	-71.170363
54662		22.923598	10.160512	14.486631	17.564874	-14.581713	7.998111	1.177545	-5.236395	1.372879	-0.665039	0.239258	-0.309082	0.224628	0.102279	0.151389	0.808254	-0.112583	-0.066459	-0.574137	-6.244458	-13.692296	-70.025082
54663		18.040385	17.397925	11.235922	22.533475	-7.686634	3.878884	0.703485	-4.256717	0.208755	-0.674072	0.241211	-0.286865	0.177768	0.173760	0.116773	0.807192	-0.123789	-0.086933	-0.570579	-6.020458	-16.356035	-69.644637
54664		26.058016	8.357555	14.595970	16.414419	-16.087425	11.009746	-0.243285	-3.767930	-0.908426	-0.676270	0.240967	-0.266846	0.258147	0.082581	0.150738	0.802660	-0.135107	-0.101992	-0.571910	-6.069006	-18.558182	-69.948705
54665		30.077838	-12.500592	9.640402	-2.296137	-27.228266	10.366284	0.665157	-1.505375	-1.310844	-0.680420	0.236572	-0.268799	0.299214	-0.127295	0.098239	0.799590	-0.137172	-0.113030	-0.573641	-5.468493	-19.763035	-70.359436
54666		10.843877	-10.323316	5.579329	-6.578134	-10.741437	0.017633	0.833262	-1.439566	-0.767695	-0.682617	0.232178	-0.270996	0.107638	-0.103881	0.056138	0.797112	-0.137536	-0.121699	-0.575227	-4.857677	-20.624682	-70.746934
54667		8.558554	2.932470	10.111737	4.991090	-2.952764	2.453662	0.718886	-0.830083	-0.588660	-0.680908	0.243164	-0.273438	0.085250	0.028709	0.101576	0.795596	-0.138184	-0.129339	-0.575504	-4.373847	-21.398517	-70.934334
54668		8.959815	-0.492921	8.679452	1.796765	-4.816305	1.563950	0.410263	-0.518147	-0.659279	-0.689453	0.236328	-0.277832	0.089356	-0.005402	0.087015	0.793637	-0.137621	-0.133037	-0.577496	-3.998949	-21.722910	-71.315945
54669		7.980861	-2.147613	7.021004	-0.066841	-4.998819	-0.189387	0.243840	-0.210469	-0.492383	-0.683350	0.247559	-0.284668	0.079681	-0.021758	0.070268	0.792583	-0.138184	-0.136704	-0.577953	-3.776902	-22.112495	-71.460906
54670		7.166519	-2.043464	7.713355	-0.301223	-3.985047	0.140155	0.145915	-0.096389	-0.454064	-0.689941	0.243164	-0.297852	0.071581	-0.020653	0.077153	0.791302	-0.137580	-0.137825	-0.579583	-3.589539	-22.185173	-71.737234
54671		6.810689	-1.834721	7.724369	-0.250298	-3.572062	0.015596	0.167546	0.020403	-0.385325	-0.701660	0.258545	-0.307129	0.068079	-0.018543	0.077221	0.790495	-0.137772	-0.140063	-0.580103	-3.430347	-22.413104	-71.866190
54672		6.993824	-0.035618	7.461469	1.504322	-3.325110	-0.259210	0.137744	0.077775	-0.312256	-0.704102	0.260742	-0.311523	0.069967	-0.000517	0.074587	0.789736	-0.136791	-0.140374	-0.581292	-3.277235	-22.380048	-72.062047
54673		6.800455	1.202604	7.888254	2.578192	-2.616837	0.006784	0.120239	0.078066	-0.242251	-0.708496	0.262939	-0.318115	0.068050	0.011896	0.078863	0.789289	-0.136986	-0.141974	-0.581465	-3.174074	-22.545840	-72.124916
54674		7.130931	1.990929	8.233312	3.387941	-2.562887	0.412520	0.041846	0.039875	-0.118976	-0.722412	0.269287	-0.320557	0.071338	0.019850	0.082323	0.788998	-0.136629	-0.142025	-0.581931	-3.121828	-22.527833	-72.199840
54675		7.596235	1.940089	7.952426	3.483063	-3.060322	0.346570	-0.028144	-0.003042	0.006530	-0.729492	0.280273	-0.327393	0.075961	0.019415	0.079523	0.789230	-0.137633	-0.143263	-0.581075	-3.154041	-22.711121	-72.091525
54676		6.804586	1.327852	7.906326	2.682941	-2.553536	0.028900	-0.071831	-0.042166	0.117911	-0.740967	0.284424	-0.327393	0.068021	0.013347	0.079073	0.789491	-0.138132	-0.143145	-0.580631	-3.224511	-22.732636	-72.016816
54677		6.683145	1.515609	8.139107	2.825769	-2.256241	0.193856	-0.130707	-0.099745	0.228522	-0.739014	0.293457	-0.325439	0.066773	0.015286	0.081414	0.790316	-0.139823	-0.144242	-0.578829	-3.363317	-22.945884	-71.755441
54678		6.943607	0.609055	7.951594	2.073834	-2.799471	0.171026	-0.202971	-0.104553	0.300268	-0.746338	0.308838	-0.325684	0.069385	0.006275	0.079546	0.790965	-0.141153	-0.143864	-0.577714	-3.554448	-22.996532	-71.564876
54679		6.689657	-0.577130	7.872006	0.905978	-2.909017	0.075171	-0.227441	-0.089870	0.350219	-0.760254	0.319580	-0.330322	0.066871	-0.005565	0.078757	0.792107	-0.143170	-0.144470	-0.575497	-3.775309	-23.182395	-71.225154
54680		6.418161	-1.430577	7.427922	0.077523	-3.082015	-0.383562	-0.223635	-0.092582	0.351356	-0.766846	0.317139	-0.319092	0.064172	-0.014110	0.074325	0.792887	-0.144585	-0.143948	-0.574198	-3.991600	-23.222990	-71.002594
54681		5.755642	-2.179226	7.770004	-0.824369	-2.559705	-0.272371	-0.191405	-0.095725	0.285287	-0.769775	0.337158	-0.319580	0.057550	-0.021636	0.077748	0.793770	-0.146391	-0.144597	-0.572355	-4.179042	-23.398786	-70.721916
54682		6.161023	-3.054380	7.545956	-1.495562	-3.251483	-0.251306	-0.142042	-0.080563	0.178502	-0.778809	0.334717	-0.321777	0.061607	-0.030435	0.075506	0.794116	-0.147325	-0.144386	-0.571689	-4.306611	-23.438625	-70.606914
54683		6.491445	-3.494628	6.955382	-1.763798	-3.880674	-0.617145	-0.087324	-0.059468	0.063144	-0.781006	0.339111	-0.321777	0.064905	-0.034895	0.069588	0.794311	-0.148458	-0.145195	-0.570919	-4.384160	-23.589106	-70.498239
54684		6.221441	-2.702724	6.677872	-1.072612	-3.512841	-1.031203	-0.030900	-0.018207	-0.017980	-0.781250	0.343506	-0.312988	0.062206	-0.027023	0.066789	0.794221	-0.148631	-0.145200	-0.570998	-4.398263	-23.601729	-70.508445
54685		6.757436	-1.915774	6.704661	-0.166449	-3.708117	-0.840075	-0.010522	0.000186	-0.074777	-0.788086	0.345703	-0.310791	0.067567	-0.019179	0.067048	0.793982	-0.149206	-0.145958	-0.570987	-4.400782	-23.713644	-70.518735
54686		6.277989	-1.282739	7.416539	0.239937	-2.815893	-0.427764	0.006779	0.018088	-0.087257	-0.785889	0.345703	-0.312988	0.062781	-0.012857	0.074159	0.793749	-0.149075	-0.145979	-0.571341	-4.375198	-23.708627	-70.573917
54687		5.856023	-1.302517	7.882702	0.056005	-2.255808	-0.167236	0.006350	0.030751	-0.094570	-0.797119	0.349854	-0.306396	0.058566	-0.013055	0.078818	0.793446	-0.149455	-0.146603	-0.571502	-4.362597	-23.795338	-70.609255
54688		6.031086	-1.403165	7.743583	0.016118	-2.497338	-0.217429	0.012599	0.036628	-0.109674	-0.788086	0.345703	-0.308594	0.060317	-0.014070	0.077424	0.793166	-0.149231	-0.146584	-0.571954	-4.327605	-23.780716	-70.679344
54689		6.283625	-0.326672	7.346439	1.133213	-2.540537	-0.548654	-0.019014	0.021429	-0.098993	-0.797363	0.354492	-0.304199	0.062842	-0.003291	0.073458	0.792798	-0.149703	-0.147109	-0.572205	-4.328071	-23.864604	-70.724976
54690		6.413191	-1.071233	7.658731	0.441520	-2.750470	-0.160087	-0.045809	0.002373	-0.085564	-0.794922	0.347656	-0.302002	0.064128	-0.010722	0.076589	0.792518	-0.149826	-0.147041	-0.572578	-4.333196	-23.868543	-70.778421
54691		5.971246	-0.869990	7.748406	0.488469	-2.258272	-0.267424	-0.013859	0.000375	-0.104234	-0.796875	0.341064	-0.292969	0.059708	-0.008726	0.077485	0.792132	-0.150292	-0.147631	-0.572839	-4.328010	-23.958383	-70.827205
54692		5.708746	-0.472540	8.128115	0.761838	-1.757616	-0.055140	-0.058163	-0.013498	-0.079224	-0.794922	0.350098	-0.295166	0.057080	-0.004724	0.081286	0.791849	-0.150514	-0.147587	-0.573184	-4.342034	-23.971165	-70.875977
54693		6.252907	-0.566792	8.316494	0.823250	-2.163358	0.347348	-0.100377	0.011882	-0.058509	-0.799316	0.345459	-0.299561	0.062532	-0.005644	0.083164	0.791543	-0.151284	-0.147812	-0.573345	-4.396256	-24.046338	-70.897769
54694		6.712966	-0.080386	7.721774	1.467809	-2.657612	-0.041363	-0.154299	0.015786	-0.011613	-0.797119	0.345459	-0.290771	0.067136	-0.000748	0.077213	0.791401	-0.151853	-0.147325	-0.573515	-4.481955	-24.039519	-70.905677
54695		6.556939	-0.403704	7.651446	1.129122	-2.629911	-0.142648	-0.210730	-0.023750	0.029459	-0.797119	0.345459	-0.288574	0.065561	-0.003947	0.076526	0.791258	-0.153189	-0.147290	-0.573366	-4.620669	-24.126663	-70.868107
54696		5.639685	-0.399124	8.159235	0.848850	-1.616651	-0.055419	-0.246929	-0.090136	0.084065	-0.803711	0.345459	-0.292969	0.056362	-0.003867	0.081623	0.791240	-0.154498	-0.146884	-0.573145	-4.786145	-24.175908	-70.810728
54697		5.280829	-1.895409	7.615306	-0.635151	-1.944095	-0.577450	-0.273033	-0.152478	0.075422	-0.801514	0.345459	-0.288574	0.052757	-0.018830	0.076219	0.791097	-0.156450	-0.147124	-0.572750	-4.973978	-24.330021	-70.735801
54698		5.999055	-1.495530	7.667950	-0.024718	-2.397749	-0.259005	-0.212171	-0.219937	0.061428	-0.806152	0.347412	-0.279541	0.059911	-0.014855	0.076761	0.790941	-0.157976	-0.147348	-0.572489	-5.117047	-24.454215	-70.684998
54699		6.166828	-1.605095	7.126457	-0.040190	-2.761575	-0.660393	-0.230425	-0.281546	0.029874	-0.814941	0.347412	-0.277344	0.061570	-0.015960	0.071370	0.790565	-0.160092	-0.148211	-0.572199	-5.273415	-24.679991	-70.638483
54700		5.352003	-1.878585	7.294530	-0.548389	-2.037104	-0.816436	-0.201088	-0.387270	-0.036205	-0.815186	0.349609	-0.277344	0.053375	-0.018722	0.073068	0.790008	-0.161980	-0.149205	-0.572178	-5.389203	-24.904648	-70.638375
54701		4.844631	-2.143272	8.359267	-1.010396	-1.169066	-0.037538	-0.190733	-0.507103	-0.126340	-0.814941	0.344971	-0.268555	0.048221	-0.021383	0.083736	0.789006	-0.164466	-0.151161	-0.572338	-5.488582	-25.264273	-70.682576
54702		4.766448	-2.207484	8.618509	-1.116738	-0.947293	0.173595	-0.203394	-0.645101	-0.195641	-0.821533	0.340576	-0.263916	0.047365	-0.022034	0.086361	0.787783	-0.166978	-0.153294	-0.572727	-5.569561	-25.644805	-70.766546
54703		5.088997	-1.572312	8.585909	-0.428647	-0.965429	0.235769	-0.261300	-0.812669	-0.249056	-0.832520	0.333496	-0.252686	0.050521	-0.015674	0.086085	0.786072	-0.170519	-0.156297	-0.573223	-5.684836	-26.181255	-70.877948
54704		5.818039	-1.333502	8.296946	0.013202	-1.547162	0.290391	-0.368067	-1.032880	-0.267613	-0.841553	0.333496	-0.248047	0.057733	-0.013259	0.083293	0.784168	-0.174727	-0.159538	-0.573671	-5.849957	-26.787333	-70.981781
54705		6.279245	-0.944874	8.446917	0.493807	-1.625710	0.617256	-0.436100	-1.268038	-0.259809	-0.852539	0.328613	-0.230225	0.062243	-0.009345	0.084885	0.781849	-0.180226	-0.163797	-0.573934	-6.074917	-27.581237	-71.070326
54706		5.548952	-0.796154	8.770829	0.393790	-0.669752	0.567403	-0.472330	-1.527169	-0.241672	-0.859375	0.333008	-0.208008	0.054808	-0.007820	0.088147	0.779450	-0.186265	-0.168635	-0.573869	-6.323197	-28.467976	-71.119049
54707		5.412949	-0.514252	9.232928	0.583162	-0.065006	0.886087	-0.489947	-1.823945	-0.180423	-0.867920	0.321533	-0.189941	0.053280	-0.004964	0.092830	0.776749	-0.193587	-0.174801	-0.573263	-6.623720	-29.571213	-71.106684
54708		5.618283	0.204507	9.010912	1.321013	0.065015	0.725316	-0.526401	-2.193741	-0.082155	-0.879150	0.321289	-0.163330	0.055191	0.002260	0.090712	0.774033	-0.201848	-0.181890	-0.571880	-6.985465	-30.826787	-70.988244
54709		5.679105	0.386505	8.992346	1.491044	0.322482	0.719642	-0.594862	-2.633146	0.023121	-0.890137	0.316650	-0.132080	0.055600	0.004140	0.090649	0.770910	-0.211979	-0.190640	-0.569578	-7.460563	-32.371683	-70.748553
54710		5.559783	-0.273629	9.005850	0.802071	0.563941	0.728680	-0.696202	-3.139162	0.095325	-0.896484	0.312012	-0.098633	0.054176	-0.002395	0.090925	0.767347	-0.223679	-0.200642	-0.566471	-8.054931	-34.148415	-70.393244
54711		4.794387	-0.119139	9.657768	0.674114	1.951428	0.770146	-0.797665	-3.712506	0.134455	-0.900879	0.309326	-0.047607	0.046141	-0.000772	0.097449	0.762884	-0.237595	-0.212740	-0.562405	-8.793380	-36.287768	-69.909307
54712		4.671586	-0.644986	9.830137	0.094243	2.451722	0.809546	-0.956863	-4.348291	0.136291	-0.905273	0.309326	0.005859	0.044568	-0.005945	0.099315	0.757311	-0.253571	-0.226430	-0.557595	-9.709160	-38.736190	-69.306918
54713		3.778099	-2.331851	9.814257	-1.811349	3.178493	0.317551	-1.088845	-5.095180	0.066872	-0.909668	0.308838	0.065674	0.035270	-0.022768	0.099187	0.750022	-0.272081	-0.242807	-0.551801	-10.810974	-41.643233	-68.562957
54714		2.521787	-4.886503	9.556582	-4.650012	3.802543	-0.568731	-1.115551	-6.018470	-0.196633	-0.904541	0.300049	0.130371	0.022275	-0.048351	0.096536	0.740299	-0.292513	-0.262461	-0.545444	-11.990496	-45.047831	-67.777163
54715		2.858501	-4.132295	10.091844	-3.969938	4.765835	-0.401643	-1.089819	-7.058910	-0.553400	-0.899658	0.291016	0.208252	0.024882	-0.040841	0.102064	0.727318	-0.315091	-0.286421	-0.538228	-13.245334	-49.097084	-66.932945
54716		4.398248	-3.259520	11.846400	-3.021191	6.157076	1.285772	-1.138068	-8.029138	-0.839850	-0.881104	0.277832	0.288330	0.039042	-0.032085	0.120281	0.711159	-0.339379	-0.313645	-0.529813	-14.705775	-53.679609	-65.900422
54717		9.177893	-2.593800	12.560714	-1.514274	5.377996	4.930343	-1.211932	-8.641440	-1.094059	-0.857666	0.260254	0.375244	0.086096	-0.025642	0.129566	0.691787	-0.364753	-0.342747	-0.520491	-16.507551	-58.640309	-64.599245
54718		15.769888	-0.663877	10.593798	1.687665	2.411903	8.961008	-1.334383	-8.900747	-1.105168	-0.821045	0.242920	0.459717	0.152741	-0.006754	0.112855	0.670511	-0.390267	-0.371724	-0.509831	-19.005115	-63.692860	-62.624166
54719		25.433030	-3.238224	8.827124	0.918202	-1.396145	17.241798	-1.737185	-8.920360	-0.808365	-0.779785	0.228027	0.532959	0.249919	-0.032565	0.099769	0.647652	-0.417077	-0.398413	-0.497857	-23.216612	-68.646964	-59.132161
54720		26.221638	-5.862702	7.528245	-1.816347	-0.885205	18.009259	-1.760936	-8.341587	-0.901557	-0.743164	0.210693	0.593262	0.258494	-0.059068	0.086637	0.624520	-0.441369	-0.422557	-0.486429	-28.966355	-73.172469	-54.120937
54721		24.013812	-7.711260	10.823829	-4.803943	4.779416	16.776052	-1.439890	-7.750591	-1.331161	-0.692871	0.191406	0.657715	0.235175	-0.077863	0.117977	0.601079	-0.461728	-0.445854	-0.476157	-36.544345	-77.342406	-47.166155
54722		19.402207	-8.913659	13.354007	-7.424547	9.686052	12.209897	-1.020161	-7.160657	-1.821858	-0.649414	0.174561	0.697998	0.188248	-0.090163	0.140808	0.578000	-0.477466	-0.468845	-0.467040	-47.514292	-81.106178	-36.601864
54723		14.723455	-9.562586	16.362747	-9.401265	14.369241	6.946529	-0.707853	-6.592898	-2.220395	-0.603760	0.155273	0.738037	0.140660	-0.096621	0.168678	0.555127	-0.489700	-0.491052	-0.459235	-67.638323	-84.248716	-16.780786
54724		11.611593	-6.726982	18.186416	-7.445502	17.452684	2.460232	-0.584304	-5.936675	-2.151985	-0.571777	0.142334	0.767090	0.109919	-0.067937	0.185386	0.533891	-0.499432	-0.511215	-0.451871	-106.818600	-85.729557	22.198829
54725		9.991413	0.558577	19.307927	-0.587680	19.780729	-0.800911	-1.121598	-5.133502	-1.815096	-0.544189	0.129639	0.791504	0.094968	0.005801	0.195527	0.513502	-0.509581	-0.526253	-0.446879	-144.105290	-84.813592	58.884021
54726		17.575920	1.821665	23.924889	0.747260	25.538236	5.411661	-2.552376	-3.449378	-1.356820	-0.533936	0.096436	0.803467	0.171733	0.020119	0.241985	0.494750	-0.520152	-0.532736	-0.448170	-161.123691	-83.401459	74.519706
54727		27.856582	-9.151079	27.506452	-9.636603	29.995581	15.161314	-3.034021	-0.037581	-0.880859	-0.544678	0.080566	0.790527	0.278120	-0.088549	0.276475	0.484812	-0.525432	-0.527849	-0.458534	-166.930308	-83.551125	78.577051
54728		11.379143	-16.031180	20.500175	-16.169994	21.231584	-0.093847	-2.285580	2.877236	-0.492548	-0.575439	0.064697	0.762207	0.116351	-0.158252	0.205157	0.485177	-0.522997	-0.516845	-0.473233	-167.305416	-85.219124	77.637541
54729		2.404287	-18.093695	16.193926	-18.091930	16.279692	-8.072280	-0.455217	4.203347	-0.447017	-0.614014	0.070557	0.733398	0.027041	-0.180627	0.161803	0.493776	-0.513119	-0.505814	-0.486874	-159.653314	-87.660226	69.630210
54730		-2.085387	-12.959673	12.880354	-13.046054	12.786132	-11.932773	1.055707	4.670819	-0.452462	-0.650391	0.081055	0.702148	-0.018144	-0.130233	0.128562	0.507040	-0.497862	-0.497874	-0.497157	-49.112306	-89.255132	-40.320690
54731		-1.812936	-8.134337	11.541135	-8.333961	11.461698	-11.153871	1.803717	4.849227	-0.277087	-0.687012	0.093750	0.657715	-0.015450	-0.082360	0.115068	0.522631	-0.480935	-0.489313	-0.506094	-7.227883	-86.616560	-81.343902
54732		0.650068	-4.259857	11.182816	-4.626392	10.934383	-8.191720	1.839664	5.148869	0.099089	-0.721191	0.104492	0.611084	0.009391	-0.043619	0.111213	0.539695	-0.463174	-0.480100	-0.513520	-3.571781	-83.675427	-83.954812
54733		1.988697	-2.318032	10.525533	-2.769037	10.023253	-6.355993	1.447835	5.554156	0.552066	-0.753174	0.117188	0.557617	0.022861	-0.023878	0.104477	0.557397	-0.446696	-0.465949	-0.522171	-3.899491	-80.381077	-82.967648
54734		2.315353	-2.088599	9.388172	-2.556978	8.611245	-5.672735	0.947210	5.918321	0.932648	-0.778809	0.139160	0.506104	0.026014	-0.021211	0.093040	0.575467	-0.430586	-0.449640	-0.530337	-4.742729	-76.961113	-81.555229
54735		2.242330	-2.407586	8.232846	-2.798051	7.207113	-5.475981	0.585921	6.139089	1.168827	-0.808594	0.154297	0.452637	0.025075	-0.024174	0.081515	0.593156	-0.415461	-0.429378	-0.539623	-5.880352	-73.287646	-80.212855
54736		2.474139	-2.850182	7.349597	-3.149413	5.967768	-5.047615	0.395797	6.218387	1.251447	-0.827148	0.162842	0.392578	0.027187	-0.028481	0.072620	0.610394	-0.400000	-0.409197	-0.547702	-6.624395	-69.669505	-79.190073
54737		3.404451	-2.802486	7.045983	-2.947245	5.024044	-3.884770	0.327218	6.200293	1.240112	-0.852539	0.178223	0.334717	0.036379	-0.027918	0.069310	0.626575	-0.384688	-0.387045	-0.556430	-7.235408	-65.941560	-78.516277
54738		5.056883	-2.223312	7.340132	-2.169520	4.249258	-1.963993	0.262424	6.168197	1.201291	-0.864014	0.184814	0.276855	0.052932	-0.022015	0.071764	0.642039	-0.368854	-0.365959	-0.563743	-7.556060	-62.349891	-77.993754
54739		7.423476	-1.707578	7.950675	-1.311003	3.182084	0.644469	0.137215	6.218261	1.201679	-0.875977	0.195801	0.216797	0.076759	-0.016673	0.077135	0.656413	-0.353143	-0.342536	-0.571910	-7.924609	-58.607796	-77.676363
54740		9.708937	-1.605494	8.476340	-0.795470	1.753986	3.029479	-0.036836	6.355321	1.235769	-0.887695	0.209229	0.154541	0.099813	-0.015429	0.081623	0.670414	-0.337036	-0.319221	-0.578835	-8.235518	-54.904667	-77.330776
54741		11.413609	-1.842673	8.899710	-0.572352	0.226985	4.761710	-0.194928	6.529531	1.292227	-0.890625	0.220459	0.087646	0.117075	-0.017592	0.085224	0.683493	-0.320806	-0.293004	-0.586575	-8.659439	-50.976267	-77.138251
54742		12.722325	-2.146397	9.078381	-0.407676	-1.448127	5.888343	-0.303638	6.669950	1.353877	-0.881836	0.225098	0.025391	0.130297	-0.020455	0.086504	0.696344	-0.304094	-0.266988	-0.592747	-9.040146	-47.082314	-76.865515
54743		13.609247	-2.477364	9.197687	-0.268525	-3.063712	6.508444	-0.372114	6.736039	1.414695	-0.873535	0.238770	-0.046143	0.139257	-0.023631	0.087366	0.708090	-0.287189	-0.238773	-0.599265	-9.490524	-43.027631	-76.734984
54744		14.668980	-2.734219	9.577126	0.002337	-4.681635	7.285145	-0.407132	6.695484	1.476951	-0.858398	0.250488	-0.108643	0.149982	-0.026054	0.090840	0.719500	-0.270178	-0.211598	-0.603779	-9.889089	-39.105103	-76.484609
54745		16.264417	-2.884971	10.229182	0.536852	-6.661610	8.426875	-0.456022	6.582282	1.555008	-0.834229	0.262207	-0.171143	0.166110	-0.027342	0.096926	0.729575	-0.253445	-0.183051	-0.608259	-10.363692	-35.128918	-76.348490
54746		18.490359	-3.723806	10.519996	0.571739	-9.563688	9.538506	-0.509403	6.446595	1.634181	-0.798340	0.262939	-0.224609	0.188462	-0.035450	0.099255	0.739389	-0.237066	-0.155823	-0.610592	-10.814872	-31.327450	-76.059275
54747		20.807164	-5.128208	10.476102	0.108659	-12.961874	10.206440	-0.477800	6.300678	1.691412	-0.762939	0.277100	-0.264893	0.211658	-0.049262	0.098249	0.747841	-0.220786	-0.127829	-0.612901	-11.282534	-27.505321	-75.903634
54748		23.941180	-5.703434	10.109767	0.669541	-17.157499	10.505997	-0.359020	6.180628	1.798187	-0.724609	0.273682	-0.302734	0.242883	-0.054688	0.093726	0.756513	-0.204237	-0.101576	-0.612909	-11.636346	-23.831224	-75.563536
54749		26.215264	-4.825021	9.158385	2.416535	-20.649925	9.210108	-0.239000	6.070710	2.094801	-0.686768	0.281006	-0.338623	0.265257	-0.045379	0.083618	0.764553	-0.187565	-0.074680	-0.612128	-12.008893	-20.109874	-75.226984
54750		27.022299	-4.161057	7.026608	3.569561	-23.087910	6.024790	-0.074800	5.901490	2.531715	-0.657715	0.279541	-0.361084	0.272637	-0.038145	0.062259	0.774039	-0.170651	-0.049488	-0.607695	-12.286379	-16.500175	-74.482456
54751		28.439835	4.148280	5.480842	12.271231	-23.924697	1.711900	-0.074755	5.555787	3.217823	-0.626709	0.291260	-0.383545	0.285057	0.046085	0.046878	0.783783	-0.154941	-0.024215	-0.600908	-12.671549	-12.953993	-73.508637
54752		28.851329	3.133001	1.695529	11.605028	-25.828654	-3.255409	-0.564847	5.239761	3.779678	-0.602539	0.309570	-0.404053	0.288163	0.036812	0.009303	0.794922	-0.141801	0.000949	-0.589907	-13.281785	-9.543177	-72.044130
54753		27.587087	-4.411614	-3.306500	3.954750	-27.799989	-8.157029	-0.231581	4.829013	3.498341	-0.578369	0.323486	-0.428955	0.275682	-0.039336	-0.039676	0.803954	-0.128633	0.023669	-0.580130	-13.636109	-6.383967	-70.864102
54754		25.468136	-6.978514	-7.539976	0.596675	-27.232179	-13.287081	0.952267	4.378429	2.414734	-0.564941	0.319336	-0.451172	0.253760	-0.066340	-0.081284	0.810792	-0.111791	0.040046	-0.573163	-13.158078	-3.624132	-70.096150
54755		25.878744	-0.837689	-9.382872	6.198493	-25.660272	-17.652251	1.809549	3.921724	1.269478	-0.551270	0.317383	-0.479980	0.256923	-0.005862	-0.098940	0.813550	-0.093392	0.051593	-0.571623	-12.180701	-1.307796	-70.046369
54756		28.386315	6.277828	-12.197031	13.111846	-25.511757	-22.893011	1.448345	3.563724	0.460289	-0.535156	0.304443	-0.501953	0.281489	0.064333	-0.126538	0.814471	-0.077191	0.062149	-0.571679	-11.350700	0.743739	-70.204089
54757		26.273600	9.258385	-16.115654	14.150869	-22.366236	-28.120327	0.191120	3.027675	-0.199164	-0.521729	0.306885	-0.513184	0.260349	0.092480	-0.165022	0.812162	-0.068429	0.073639	-0.574707	-11.300608	2.347476	-70.800696
54758		19.881391	7.664031	-18.637636	9.651580	-16.651246	-30.571194	-1.094961	1.899396	-0.810081	-0.519531	0.307129	-0.510986	0.197335	0.074810	-0.188668	0.808706	-0.067723	0.084210	-0.578201	-11.962052	3.318587	-71.475077
54759		14.542653	1.785838	-18.397696	2.057059	-13.530254	-28.939449	-1.554410	0.185215	-1.457206	-0.528564	0.306885	-0.508789	0.145374	0.015368	-0.184238	0.803304	-0.074797	0.088437	-0.584198	-12.934326	3.135071	-72.408004
54760		15.503757	-3.719701	-14.635084	-2.282373	-16.278167	-23.890138	-1.068408	-1.501619	-1.971213	-0.544189	0.302002	-0.492920	0.155748	-0.039507	-0.144976	0.797739	-0.084352	0.084775	-0.591025	-13.587966	2.037244	-73.310349
54761		21.288358	-5.726439	-8.697807	-1.423155	-22.437853	-17.303544	-0.120571	-2.565021	-2.018299	-0.559326	0.290527	-0.479248	0.213383	-0.059467	-0.084208	0.791984	-0.094106	0.073450	-0.598758	-13.710735	0.209072	-74.205385
54762		23.531810	-11.087489	-4.185990	-5.010396	-25.838096	-11.017990	0.982567	-2.923390	-1.557227	-0.572021	0.270264	-0.461182	0.235030	-0.112509	-0.038973	0.788741	-0.099538	0.058183	-0.603817	-13.142544	-1.628703	-74.683784
54763		3.712113	-14.463766	4.427444	-11.902090	-6.594711	-2.236184	3.258429	-3.792713	-1.894198	-0.595947	0.247559	-0.444824	0.034926	-0.145678	0.042583	0.784353	-0.099803	0.031761	-0.611408	-11.297905	-4.141318	-75.463469
54764		-1.660535	-1.510769	17.756305	0.832452	3.626688	7.691847	3.215016	-4.045995	-1.183639	-0.608643	0.231689	-0.426758	-0.020289	-0.017842	0.176905	0.782707	-0.099730	0.005460	-0.614324	-9.433006	-6.545132	-75.714068
54765		0.706469	0.387376	12.346202	1.941658	1.514367	2.310767	2.779654	-4.561141	0.062884	-0.626221	0.222412	-0.397705	0.004246	0.002158	0.123618	0.782811	-0.104113	-0.021453	-0.613112	-7.961538	-9.279619	-75.490223
54766		14.565779	8.835548	6.886337	12.749970	-10.317779	-1.533324	2.310046	-4.856968	1.031196	-0.639893	0.224365	-0.368652	0.143457	0.088269	0.073385	0.786360	-0.110046	-0.047004	-0.606068	-6.815635	-11.965052	-74.529676
54767		21.276838	10.308452	8.532826	16.006965	-15.202140	2.200453	1.337816	-4.604328	1.561275	-0.651611	0.239502	-0.349121	0.209908	0.104135	0.090877	0.789422	-0.120378	-0.068949	-0.597970	-6.385211	-14.644659	-73.464883
54768		16.877528	9.459515	11.225353	14.107529	-9.793371	4.516774	0.905601	-4.027049	1.171860	-0.656250	0.243896	-0.318115	0.165908	0.095053	0.116043	0.791900	-0.129235	-0.086837	-0.590468	-6.126490	-16.866935	-72.509832
54769		13.355297	13.205378	11.097740	16.573427	-4.937072	3.484486	0.448042	-3.517939	0.196878	-0.663086	0.245850	-0.304688	0.131440	0.131931	0.113598	0.790427	-0.139162	-0.102935	-0.587592	-6.013368	-19.042252	-72.243650
54770		13.339363	8.507630	10.548022	11.932093	-5.916609	3.758499	-0.162319	-3.159880	-0.552289	-0.665039	0.243652	-0.289063	0.131940	0.084797	0.107504	0.786961	-0.148801	-0.115325	-0.587580	-6.062241	-20.877915	-72.375442
54771		33.122700	-8.046552	14.537112	1.341524	-25.885463	16.668696	-0.103281	-2.253823	-0.893063	-0.669922	0.250244	-0.287109	0.329197	-0.081862	0.149131	0.782605	-0.156355	-0.125840	-0.589276	-5.986643	-22.410440	-72.770146
54772		8.956901	-9.277234	4.436743	-6.568757	-8.504467	-1.416135	0.421218	-0.979600	-0.503273	-0.676514	0.250000	-0.291504	0.089117	-0.093091	0.044609	0.780819	-0.157291	-0.131315	-0.590202	-5.650091	-23.000141	-73.019051
54773		11.438314	-2.551565	9.787609	0.347589	-6.702706	3.902031	0.627059	-0.844300	-0.401659	-0.681396	0.256592	-0.293701	0.113917	-0.026052	0.098277	0.778952	-0.158383	-0.138071	-0.590834	-5.238696	-23.719407	-73.259647
54774		7.932622	1.727758	7.825215	3.503506	-3.298945	0.384737	0.343229	-0.472757	-0.476256	-0.690430	0.256348	-0.298096	0.079182	0.016954	0.078469	0.777482	-0.158131	-0.141313	-0.592070	-4.933427	-24.015660	-73.530255
54775		8.181430	-0.753056	7.323215	1.117433	-4.284549	0.263330	0.186594	-0.229052	-0.404766	-0.697266	0.258545	-0.309326	0.081715	-0.007764	0.073319	0.775659	-0.159121	-0.144416	-0.593446	-4.751310	-24.386715	-73.810981
54776		7.411156	-2.111911	7.501677	-0.442353	-3.856755	0.216779	0.165165	-0.156152	-0.297537	-0.701904	0.265137	-0.304932	0.074021	-0.021291	0.075057	0.774789	-0.158747	-0.145759	-0.594353	-4.583800	-24.492187	-73.989294
54777		7.434416	-1.287178	7.519804	0.313437	-3.627076	0.198347	0.159285	-0.026733	-0.300796	-0.708984	0.273926	-0.320557	0.074315	-0.013043	0.075198	0.773352	-0.159339	-0.147920	-0.595531	-4.437535	-24.744366	-74.223354
54778		7.127080	-1.566750	7.225181	-0.053984	-3.555208	-0.178855	0.146547	0.039153	-0.283423	-0.729248	0.275879	-0.324951	0.071263	-0.015821	0.072226	0.772649	-0.158465	-0.148443	-0.596546	-4.279207	-24.736937	-74.403216
54779		7.277885	-0.071475	7.755862	1.371856	-3.080647	0.274615	0.144497	0.073965	-0.232799	-0.732178	0.289063	-0.327637	0.072807	-0.000856	0.077531	0.771434	-0.158885	-0.150116	-0.597587	-4.156262	-24.929659	-74.606817
54780		6.762905	0.433331	7.987365	1.705075	-2.426453	0.233589	0.121552	0.078188	-0.185250	-0.738525	0.280029	-0.327393	0.067664	0.004222	0.079850	0.771030	-0.158065	-0.150339	-0.598269	-4.037004	-24.895328	-74.726801
54781		6.910038	0.403643	8.082301	1.681197	-2.495135	0.394320	0.076394	0.052742	-0.116514	-0.745850	0.297607	-0.332031	0.069124	0.003965	0.080806	0.770111	-0.158881	-0.151824	-0.598861	-3.980869	-25.096103	-74.853016
54782		7.146141	0.421378	7.508678	1.770011	-2.948452	-0.025000	0.034813	0.033154	-0.060547	-0.750244	0.295410	-0.332031	0.071475	0.004179	0.075076	0.769978	-0.158624	-0.151863	-0.599091	-3.945155	-25.082494	-74.892423
54783		7.248321	-0.036337	6.910792	1.361432	-3.367041	-0.479517	0.011419	0.012852	-0.026809	-0.759521	0.304199	-0.327637	0.072488	-0.000377	0.069103	0.769269	-0.159860	-0.153262	-0.599317	-3.947957	-25.303514	-74.955889
54784		6.323045	-0.567933	7.801469	0.587954	-2.298930	-0.038456	-0.018510	-0.007482	-0.006438	-0.766602	0.312744	-0.330078	0.063227	-0.005674	0.078018	0.769223	-0.159971	-0.153257	-0.599347	-3.958022	-25.311163	-74.959390
54785		5.976011	-1.268335	8.224065	-0.202503	-1.933907	0.245922	-0.004559	-0.036400	-0.023865	-0.777832	0.312500	-0.325684	0.059744	-0.012689	0.082252	0.768468	-0.161417	-0.154804	-0.599531	-3.970639	-25.561121	-75.019136
54786		5.564236	-0.898565	8.045680	0.066477	-1.562606	-0.114494	0.002050	-0.059377	-0.016547	-0.778076	0.319336	-0.327881	0.055618	-0.008991	0.080473	0.768368	-0.161598	-0.155069	-0.599542	-3.967134	-25.599010	-75.026781
54787		6.291964	-1.112390	7.538925	0.038970	-2.422259	-0.231834	-0.014691	-0.071192	-0.021593	-0.787109	0.321289	-0.323486	0.062892	-0.011125	0.075412	0.767557	-0.163192	-0.156698	-0.599725	-3.987223	-25.867483	-75.088015
54788		6.905718	-0.824077	7.235873	0.473204	-3.015655	-0.251945	-0.006364	-0.075500	-0.006858	-0.785156	0.328125	-0.323730	0.069030	-0.008241	0.072385	0.767466	-0.163463	-0.156993	-0.599691	-3.991507	-25.914378	-75.088809
54789		6.516357	-0.621953	7.576981	0.554093	-2.437596	-0.116735	-0.025197	-0.060164	0.013682	-0.791992	0.327881	-0.314697	0.065141	-0.006206	0.075790	0.766733	-0.165102	-0.158512	-0.599779	-4.027606	-26.175579	-75.132054
54790		6.200734	-0.771799	7.603471	0.336782	-2.179303	-0.221297	-0.042200	-0.050553	0.014196	-0.787598	0.334717	-0.314941	0.061989	-0.007698	0.076052	0.766694	-0.165453	-0.158587	-0.599713	-4.057871	-26.207542	-75.120528
54791		5.915557	-1.401150	7.767793	-0.354632	-1.957657	-0.151556	-0.049497	-0.046247	0.005191	-0.799072	0.338867	-0.306152	0.059138	-0.013991	0.077695	0.765912	-0.167138	-0.159982	-0.599875	-4.105152	-26.460964	-75.171700
54792		5.713510	-1.784245	7.689075	-0.768805	-1.898366	-0.286159	-0.031865	-0.039016	-0.039740	-0.792236	0.336670	-0.303955	0.057117	-0.017842	0.076905	0.765728	-0.167372	-0.160089	-0.600016	-4.113998	-26.488712	-75.195082
54793		6.610478	-1.894140	7.271127	-0.665225	-2.844901	-0.240880	-0.022527	-0.023596	-0.080791	-0.794434	0.332275	-0.301514	0.066089	-0.018960	0.072721	0.764687	-0.168830	-0.161523	-0.600550	-4.122071	-26.731534	-75.309116
54794		6.281260	-0.924033	7.264704	0.198517	-2.346142	-0.456396	0.000266	-0.008837	-0.112742	-0.790039	0.336670	-0.301758	0.062804	-0.009276	0.072650	0.764334	-0.168792	-0.161674	-0.600970	-4.090754	-26.745206	-75.380667
54795		5.780650	-0.790404	7.927591	0.172052	-1.547077	-0.093413	-0.027083	0.009458	-0.095016	-0.794678	0.338867	-0.303955	0.057806	-0.007921	0.079274	0.763237	-0.170171	-0.162965	-0.601625	-4.096970	-26.969778	-75.511377
54796		5.839316	0.299098	8.368527	1.224225	-1.159549	0.255879	-0.041493	0.009511	-0.094129	-0.791748	0.325684	-0.301514	0.058399	0.002981	0.083682	0.762918	-0.170253	-0.162906	-0.602023	-4.094293	-26.972367	-75.571998
54797		6.641644	-0.866683	7.443771	0.296250	-2.490993	-0.118385	-0.085141	0.017960	-0.089464	-0.802979	0.325439	-0.299072	0.066419	-0.008665	0.074435	0.761804	-0.171811	-0.163983	-0.602698	-4.133038	-27.190271	-75.698363
54798		6.278255	-0.902224	7.463097	0.181636	-2.175792	-0.264847	-0.107533	0.010427	-0.111526	-0.800781	0.323242	-0.296875	0.062781	-0.009017	0.074633	0.761375	-0.172128	-0.163739	-0.603216	-4.162819	-27.193283	-75.770333
54799		5.301037	-1.741435	7.888596	-0.875831	-1.275729	-0.274923	-0.116098	-0.016871	-0.145228	-0.802979	0.323242	-0.301270	0.052991	-0.017407	0.078901	0.760018	-0.173863	-0.164897	-0.604113	-4.202734	-27.433328	-75.933839
54800		4.988415	-1.643311	8.128764	-0.858945	-0.867218	-0.212078	-0.112156	-0.051815	-0.221238	-0.802734	0.318848	-0.301270	0.049845	-0.016443	0.081310	0.759200	-0.174294	-0.164972	-0.604997	-4.203588	-27.476750	-76.073692
54801		5.591756	-1.687968	7.836695	-0.778110	-1.484286	-0.183451	-0.097301	-0.078663	-0.285148	-0.807129	0.316406	-0.296631	0.055863	-0.016921	0.078397	0.757347	-0.176029	-0.166510	-0.606394	-4.192016	-27.755296	-76.331099
54802		5.998725	-0.828153	8.126807	0.123389	-1.510668	0.208198	-0.074369	-0.148681	-0.287139	-0.811768	0.316406	-0.296631	0.059915	-0.008337	0.081316	0.756277	-0.176553	-0.167125	-0.607407	-4.152518	-27.856927	-76.509449
54803		5.415158	-0.987964	8.189240	-0.175268	-0.953743	0.006847	-0.155674	-0.244731	-0.306991	-0.811523	0.311768	-0.294434	0.054036	-0.009899	0.081966	0.754137	-0.178988	-0.169112	-0.608803	-4.168971	-28.229457	-76.778019
54804		5.594081	-0.530066	8.336523	0.295698	-0.913556	0.194818	-0.220195	-0.396323	-0.304899	-0.818115	0.309570	-0.287598	0.055767	-0.005294	0.083482	0.752664	-0.180799	-0.170235	-0.609778	-4.211242	-28.473563	-76.957003
54805		5.345156	-1.172901	8.487103	-0.402360	-0.661987	0.255921	-0.270097	-0.552462	-0.323993	-0.829102	0.300293	-0.274170	0.053198	-0.011701	0.085034	0.750084	-0.184563	-0.173027	-0.611042	-4.290692	-29.020384	-77.223706
54806		5.820386	-0.831212	8.496014	0.016339	-0.929181	0.477400	-0.279835	-0.739541	-0.341631	-0.833496	0.302490	-0.278564	0.057875	-0.008292	0.085186	0.748124	-0.187609	-0.175286	-0.611872	-4.360837	-29.462711	-77.410624
54807		5.350189	-1.290913	9.015694	-0.558308	-0.222405	0.733002	-0.318821	-0.967586	-0.369927	-0.842285	0.293457	-0.260498	0.053041	-0.012864	0.090435	0.744942	-0.192759	-0.179491	-0.612935	-4.458587	-30.246301	-77.689260
54808		5.601211	-0.790861	9.177322	-0.039379	-0.142571	0.966869	-0.306227	-1.233813	-0.383809	-0.853516	0.293213	-0.251465	0.055429	-0.007874	0.092128	0.742335	-0.197367	-0.183542	-0.613431	-4.538356	-30.973509	-77.879409
54809		5.528589	-0.236960	9.260580	0.464874	0.244254	0.962363	-0.296233	-1.534700	-0.350292	-0.860107	0.290771	-0.231445	0.054569	-0.002328	0.093030	0.738623	-0.204148	-0.189848	-0.613772	-4.639010	-32.076699	-78.116733
54810		5.461991	0.337658	9.394317	0.994559	0.648346	0.994149	-0.289267	-1.856197	-0.267264	-0.862305	0.288574	-0.218018	0.053750	0.003441	0.094440	0.735700	-0.210686	-0.196109	-0.613106	-4.764114	-33.154575	-78.194261
54811		6.056501	0.819851	8.811797	1.562669	0.170588	0.795112	-0.305593	-2.233340	-0.135936	-0.875244	0.281494	-0.182373	0.059582	0.008293	0.088774	0.731821	-0.219767	-0.204668	-0.611761	-4.967791	-34.642188	-78.237303
54812		5.986335	1.412965	8.676041	2.122622	0.500542	0.596143	-0.330553	-2.671280	0.004128	-0.890869	0.278809	-0.164551	0.058697	0.014275	0.087526	0.728656	-0.229167	-0.213437	-0.609087	-5.257115	-36.171964	-78.066872
54813		5.000741	1.120200	9.373262	1.631269	1.988972	0.555228	-0.431976	-3.171655	0.135995	-0.899658	0.271973	-0.115479	0.048505	0.011439	0.094485	0.724216	-0.241711	-0.224629	-0.605499	-5.699998	-38.175436	-77.822428
54814		4.857396	0.936412	9.624018	1.414838	2.593247	0.596555	-0.589274	-3.733729	0.233610	-0.908691	0.276123	-0.077881	0.046755	0.009705	0.097096	0.719872	-0.255404	-0.236072	-0.600686	-6.330856	-40.294613	-77.360833
54815		4.447294	1.572411	9.951473	1.968069	3.662586	0.384147	-0.830927	-4.343903	0.335784	-0.913086	0.278076	-0.026855	0.042272	0.016212	0.100382	0.713656	-0.272884	-0.249817	-0.594829	-7.242486	-42.937906	-76.770544
54816		4.233647	1.388522	9.699748	1.785704	4.095333	-0.119848	-1.105977	-5.055397	0.482456	-0.917236	0.273438	0.031006	0.039834	0.014523	0.097946	0.707008	-0.292411	-0.263853	-0.587381	-8.534492	-45.775000	-75.831086
54817		2.679359	-1.358770	9.575870	-1.145513	5.214363	-1.316209	-1.369670	-5.931134	0.520032	-0.912598	0.270996	0.099854	0.023971	-0.012863	0.096587	0.697548	-0.316209	-0.280954	-0.578363	-10.252961	-49.263990	-74.615768
54818		1.450240	-4.014431	9.803385	-3.948115	6.349136	-2.171717	-1.411588	-7.014826	0.339333	-0.903564	0.270996	0.181885	0.011114	-0.039428	0.098743	0.685977	-0.341722	-0.300648	-0.567691	-12.279358	-53.174000	-73.056718
54819		3.182171	-2.711614	10.172209	-2.365585	6.467274	-1.241414	-1.416720	-8.042391	0.054513	-0.887451	0.268799	0.266357	0.027701	-0.026381	0.103080	0.670178	-0.370121	-0.324732	-0.555356	-14.728195	-57.817434	-71.130466
54820		7.300288	-2.056166	10.574193	-1.043743	5.685190	1.841084	-1.417883	-8.904874	-0.157929	-0.871094	0.257813	0.355225	0.068181	-0.019852	0.108992	0.651957	-0.398991	-0.350618	-0.541133	-17.905471	-62.746711	-68.412080
54821		11.769206	-0.254230	10.710952	1.425956	5.345065	5.104236	-1.514118	-9.321702	-0.216361	-0.827881	0.245117	0.439697	0.112530	-0.001828	0.112452	0.630399	-0.429140	-0.377656	-0.525178	-22.625578	-67.956259	-64.237358
54822		19.714440	-2.516073	7.532970	0.517652	1.233556	11.390803	-1.666757	-9.616224	-0.043468	-0.782471	0.239014	0.526123	0.193210	-0.024522	0.084891	0.607780	-0.459073	-0.403252	-0.507192	-30.463784	-72.911688	-56.942294
54823		29.144599	-5.787039	7.255803	-1.242030	0.983312	20.721592	-1.725771	-9.266331	0.121568	-0.734863	0.228516	0.603760	0.287689	-0.056989	0.086443	0.583882	-0.488252	-0.426938	-0.488279	-44.001866	-77.256817	-44.021261
54824		26.526584	-6.321751	9.309027	-2.269753	6.067419	18.254809	-1.628609	-8.626365	-0.155568	-0.685059	0.222656	0.659180	0.260861	-0.062599	0.104919	0.560524	-0.513287	-0.448135	-0.470664	-65.058636	-80.248640	-23.520515
54825		22.965022	-9.119801	12.553843	-5.805247	11.742152	14.603965	-1.185472	-7.980131	-0.796193	-0.632813	0.210205	0.714844	0.224023	-0.091315	0.135095	0.536368	-0.533832	-0.469886	-0.454466	-94.532604	-81.603440	5.564160
54826		17.821306	-12.821813	15.108573	-10.610266	15.793703	8.840411	-0.417252	-7.359781	-1.769485	-0.580322	0.191162	0.754883	0.171347	-0.129430	0.157746	0.513527	-0.547160	-0.493082	-0.440200	-123.625528	-81.167600	34.731732
54827		16.504864	-13.986529	18.101569	-12.574337	19.736592	5.927451	0.513046	-6.569800	-2.446194	-0.541992	0.191895	0.783447	0.157264	-0.142294	0.185905	0.492258	-0.554542	-0.517706	-0.426786	-145.441610	-79.429753	57.089433
54828		12.245409	-7.515117	17.781003	-7.208557	19.481318	-0.276247	1.166397	-5.564465	-2.319733	-0.508301	0.192383	0.807861	0.116563	-0.077574	0.180660	0.475870	-0.557305	-0.540100	-0.413823	-157.823035	-77.235749	70.408557
54829		14.327535	4.646219	27.148560	4.084475	29.859801	-2.363110	0.203799	-4.047343	-1.688178	-0.489990	0.181641	0.819092	0.138126	0.045003	0.274362	0.461358	-0.561039	-0.554717	-0.405799	-164.599792	-75.281261	77.444562
54830		31.148133	-2.527123	32.684967	-2.590350	39.394039	12.238911	-1.572204	-1.091941	-1.166183	-0.505371	0.172363	0.810547	0.309546	-0.024501	0.328738	0.451484	-0.563637	-0.557307	-0.409737	-168.488998	-74.821788	80.536263
54831		15.063082	-11.510560	28.496111	-11.867281	31.036983	-1.612911	-1.329498	2.803970	-0.723166	-0.536377	0.160889	0.786377	0.154200	-0.113771	0.283575	0.453963	-0.558820	-0.550275	-0.422889	-169.668808	-76.469791	80.968775
54832		0.692969	-15.038890	21.489569	-15.537001	20.890998	-13.062808	-0.276129	4.339428	-0.835355	-0.572266	0.160156	0.755615	0.010965	-0.150132	0.214894	0.463214	-0.547864	-0.542066	-0.437540	-169.982622	-78.995112	81.126686
54833		-4.611625	-12.190273	17.112754	-12.755047	15.847836	-16.800445	0.918585	4.796575	-1.029056	-0.617676	0.168213	0.717773	-0.042633	-0.122465	0.171616	0.476571	-0.532240	-0.535360	-0.450546	-169.902432	-81.837760	81.576647
54834		-0.568144	-7.053858	15.802418	-7.648429	15.371545	-12.040853	1.440067	5.099826	-1.119709	-0.658203	0.167725	0.675781	-0.002058	-0.071656	0.157594	0.491318	-0.514159	-0.529261	-0.462742	-170.172798	-84.820380	82.678144
54835		4.080297	-3.669937	15.412415	-4.397735	15.424007	-6.596254	1.224039	5.880204	-0.966539	-0.696533	0.171387	0.625000	0.045124	-0.037848	0.152610	0.507929	-0.494695	-0.519397	-0.476982	-166.326826	-88.290136	79.515984
54836		4.891356	-3.013731	14.162988	-3.826380	13.933964	-4.841169	0.691863	6.800814	-0.746057	-0.743652	0.166260	0.565430	0.053574	-0.030817	0.139755	0.525183	-0.474524	-0.505343	-0.493597	0.659480	-87.769899	-87.082724
54837		4.547527	-3.395974	12.122131	-4.149143	11.486442	-4.342054	0.267943	7.539814	-0.600077	-0.782471	0.174561	0.489746	0.049896	-0.034266	0.119350	0.543505	-0.453159	-0.486658	-0.512262	2.972838	-83.351587	-89.256449
54838		4.155782	-3.097389	10.023571	-3.733482	9.033410	-4.179376	0.003014	8.007033	-0.539418	-0.816162	0.169678	0.425781	0.045441	-0.031094	0.098468	0.561139	-0.431005	-0.465771	-0.531428	3.335398	-78.760220	-89.622701
54839		4.166162	-2.185939	8.482008	-2.706668	7.099673	-3.787765	-0.267488	8.209809	-0.482461	-0.845215	0.165039	0.350586	0.045043	-0.021853	0.083046	0.578466	-0.408171	-0.441937	-0.550877	3.042541	-73.944622	-89.491889
54840		4.594104	-1.193310	7.472869	-1.613407	5.558501	-3.117076	-0.619620	8.204072	-0.365577	-0.865234	0.155762	0.275391	0.048933	-0.011793	0.072799	0.593798	-0.386255	-0.416908	-0.569560	2.619214	-69.245741	-89.421499
54841		5.656794	-0.820081	7.050218	-1.136997	4.205420	-1.853079	-1.012924	8.056894	-0.172384	-0.892578	0.157715	0.199951	0.059340	-0.007902	0.068189	0.608198	-0.365299	-0.389270	-0.587470	1.734104	-64.516664	-89.108149
54842		7.232532	-1.176251	7.061472	-1.376548	2.836950	-0.139907	-1.331753	7.828572	0.077547	-0.903564	0.148926	0.122559	0.075021	-0.011276	0.067789	0.620722	-0.346260	-0.361139	-0.603645	0.704108	-60.039421	-88.808683
54843		9.473079	-2.182305	7.650435	-2.218138	1.356185	2.278700	-1.498544	7.586445	0.345389	-0.899170	0.149170	0.047119	0.097581	-0.021100	0.072998	0.632919	-0.328004	-0.331323	-0.618103	-0.569250	-55.576542	-88.342975
54844		12.140002	-2.840860	8.407835	-2.648153	-0.515862	4.978007	-1.503771	7.393560	0.623821	-0.901611	0.149414	-0.028320	0.124488	-0.027413	0.079722	0.644151	-0.310755	-0.302053	-0.630289	-1.796573	-51.340002	-87.890164
54845		14.876441	-2.745813	9.492472	-2.217280	-2.569693	7.717174	-1.450160	7.262383	0.945294	-0.886475	0.160889	-0.102051	0.152209	-0.026081	0.089631	0.655835	-0.293404	-0.271484	-0.640384	-3.124380	-47.044172	-87.273941
54846		17.273367	-2.772570	10.431749	-1.818503	-4.838979	9.884314	-1.421455	7.176507	1.318587	-0.862061	0.166016	-0.164307	0.176506	-0.025858	0.098216	0.667239	-0.276718	-0.241313	-0.648064	-4.423480	-42.897515	-86.590963
54847		18.797323	-3.528754	11.038242	-2.050520	-7.017333	11.019345	-1.368769	7.050768	1.711174	-0.831543	0.188965	-0.229492	0.192001	-0.032930	0.103891	0.679262	-0.260032	-0.209891	-0.653401	-5.806159	-38.678672	-85.737237
54848		20.810989	-4.703049	11.374779	-2.588946	-9.873286	12.100121	-1.201939	6.832499	2.072301	-0.780518	0.203613	-0.278809	0.212306	-0.044189	0.106813	0.691178	-0.243842	-0.179962	-0.656070	-7.049122	-34.661446	-84.812338
54849		23.398881	-5.036404	11.069925	-2.150094	-13.717185	12.600473	-0.909671	6.557226	2.445880	-0.738525	0.219971	-0.317139	0.238042	-0.046988	0.103157	0.703716	-0.227356	-0.150331	-0.656120	-8.201717	-30.658938	-83.738952
54850		25.094287	-4.814643	10.509990	-1.155384	-16.903295	12.004927	-0.558645	6.236190	2.849270	-0.698242	0.227539	-0.346436	0.254708	-0.044256	0.097323	0.716686	-0.210915	-0.123262	-0.653209	-9.114701	-26.886456	-82.510882
54851		25.689113	-4.587132	9.880243	-0.179881	-19.056752	10.561556	-0.225951	5.879127	3.165409	-0.662842	0.237305	-0.366699	0.260329	-0.041663	0.091231	0.729955	-0.194359	-0.097273	-0.648019	-9.877796	-23.197801	-81.161988
54852		26.453996	-4.824409	8.632078	0.334171	-21.433618	8.567038	0.089700	5.506061	3.343515	-0.633545	0.237793	-0.389160	0.267539	-0.043824	0.078962	0.743165	-0.177761	-0.074201	-0.640782	-10.352312	-19.761158	-79.730081
54853		28.908521	-4.439323	6.770321	1.716439	-25.297105	6.251694	0.373809	5.229852	3.422144	-0.618164	0.242676	-0.411377	0.291426	-0.039537	0.060025	0.755779	-0.161003	-0.052295	-0.632567	-10.646195	-16.423616	-78.316103
54854		30.210961	-2.221772	4.257984	4.678005	-27.676512	2.335962	0.573475	5.173125	3.555767	-0.593994	0.256592	-0.436279	0.303407	-0.016938	0.034689	0.768458	-0.143368	-0.031705	-0.622827	-10.702649	-13.139019	-76.812641
54855		29.805074	9.553409	1.400385	16.475700	-26.066653	-4.306329	0.315942	5.149485	4.269804	-0.569824	0.272705	-0.465576	0.296153	0.101857	0.006519	0.781924	-0.127158	-0.009505	-0.610193	-10.954103	-9.790521	-74.993993
54856		26.761259	1.752750	-4.899449	8.267422	-25.940186	-11.121242	0.044173	5.001364	4.622835	-0.548340	0.293213	-0.499512	0.265776	0.023697	-0.055652	0.795836	-0.111915	0.012822	-0.594942	-11.223120	-6.474315	-72.924414
54857		30.469094	1.773917	-12.397484	8.997286	-30.138775	-19.590061	0.706358	4.506713	3.799826	-0.515137	0.307129	-0.513184	0.301380	0.023940	-0.130714	0.806416	-0.096011	0.030718	-0.582693	-11.012340	-3.574506	-71.356880
54858		34.125502	9.924817	-21.583268	16.863218	-31.209458	-31.495562	0.720689	4.085282	2.590995	-0.492920	0.314209	-0.537842	0.335427	0.104413	-0.222354	0.813442	-0.080817	0.046291	-0.574141	-10.641524	-1.002251	-70.336799
54859		24.281264	13.887600	-24.721298	16.721432	-19.926719	-36.585839	-0.231364	2.865231	0.958582	-0.479736	0.319092	-0.546875	0.238568	0.139737	-0.250812	0.814812	-0.074134	0.058529	-0.571978	-10.823044	0.605901	-70.193216
54860		11.855294	10.638473	-22.758221	9.515730	-8.877737	-34.354061	-1.410820	0.586468	-0.904384	-0.490723	0.316650	-0.537842	0.118358	0.104239	-0.228670	0.811501	-0.078506	0.064581	-0.575441	-11.640034	0.828781	-70.765959
54861		14.182872	1.552102	-17.330032	2.475849	-14.088231	-27.111228	-1.545363	-1.509324	-2.656978	-0.508301	0.305176	-0.531006	0.143309	0.012290	-0.172326	0.803100	-0.090834	0.061123	-0.585699	-12.562447	-0.471389	-72.154455
54862		20.671215	-7.400546	-9.395936	-2.806996	-22.652613	-16.830078	-0.532250	-2.605126	-3.828527	-0.534424	0.282227	-0.512695	0.206441	-0.078204	-0.091065	0.792226	-0.101786	0.050432	-0.599561	-12.823309	-2.415552	-73.965792
54863		16.061680	-15.268246	-17.789076	-13.667665	-21.242138	-22.831781	2.458149	-4.313643	-4.811911	-0.573242	0.239258	-0.489258	0.160730	-0.154375	-0.176315	0.778968	-0.107183	0.022626	-0.617421	-11.294383	-5.572421	-76.250188
54864		6.891830	10.182179	7.866233	12.526723	-3.349765	-3.114580	2.036065	-5.903891	-3.955495	-0.605957	0.214111	-0.453125	0.068521	0.099642	0.081711	0.767984	-0.117894	-0.008816	-0.629463	-9.919088	-9.320693	-77.867524
54865		17.265639	-6.581733	25.354358	0.274799	-12.144086	19.108961	0.951331	-5.297035	-1.311028	-0.628174	0.209229	-0.417236	0.165426	-0.068137	0.257669	0.763043	-0.132008	-0.033855	-0.631818	-9.357968	-12.619508	-78.214107
54866		14.075009	-5.038913	7.188405	-1.236372	-12.283204	1.265075	1.164370	-5.223932	1.042415	-0.648438	0.213135	-0.384033	0.139076	-0.050093	0.075239	0.765931	-0.144239	-0.056794	-0.623955	-8.959316	-15.485676	-77.114439
54867		23.421420	3.180901	5.499041	8.843267	-19.389428	1.788880	0.505908	-5.460656	2.195159	-0.666992	0.230469	-0.344238	0.232229	0.034215	0.061434	0.770291	-0.161273	-0.078615	-0.611934	-9.241948	-18.571594	-75.414367
54868		22.339591	5.632920	12.502888	11.855246	-14.531293	8.497508	0.396828	-4.638614	1.713702	-0.673828	0.236816	-0.317871	0.219923	0.057969	0.130271	0.773785	-0.174605	-0.096321	-0.601243	-9.521428	-21.040254	-73.923427
54869		16.108168	9.637171	12.025156	14.158677	-7.332317	5.765076	0.084686	-3.783239	0.646050	-0.667236	0.243652	-0.289063	0.158456	0.096835	0.123307	0.772774	-0.187425	-0.111744	-0.595991	-9.812093	-23.335437	-73.250468
54870		15.740194	3.226237	10.206068	7.783480	-8.549280	5.307549	-0.384121	-3.326708	0.107206	-0.678711	0.250000	-0.264893	0.155659	0.032545	0.104597	0.770755	-0.198901	-0.123373	-0.592582	-10.210930	-25.208381	-72.819597
54871		29.436421	-13.260797	14.061534	-4.461464	-21.581246	17.653256	0.858857	-2.419667	-0.296166	-0.674072	0.245605	-0.269043	0.292442	-0.133654	0.143589	0.768086	-0.204037	-0.136779	-0.591358	-9.786081	-26.835698	-72.846236
54872		14.979306	-3.078946	6.807002	1.142802	-10.142255	3.454587	0.701866	-1.151377	-0.152952	-0.669678	0.247803	-0.262451	0.149375	-0.031144	0.068822	0.767532	-0.204682	-0.143467	-0.590269	-9.398079	-27.507553	-72.818781
54873		8.726884	0.444054	9.809711	2.878896	-2.470165	2.764892	0.430964	-0.675573	-0.071459	-0.663086	0.252441	-0.264893	0.086938	0.004198	0.098400	0.766044	-0.206632	-0.148697	-0.590228	-9.204865	-28.147119	-72.915375
54874		8.494199	-0.808079	7.167473	1.519242	-3.783401	0.558162	0.221957	-0.534820	-0.090517	-0.661377	0.263672	-0.271729	0.084746	-0.008199	0.071892	0.765592	-0.207339	-0.151533	-0.589845	-9.078427	-28.464913	-72.917255
54875		10.703377	-1.765127	6.143980	1.106324	-6.269547	0.906225	0.150804	-0.383687	0.008492	-0.663574	0.265869	-0.278564	0.106916	-0.017693	0.061632	0.764249	-0.209544	-0.154742	-0.589975	-9.052351	-28.932169	-72.993972
54876		8.390529	-0.967724	6.832740	1.283673	-3.783543	0.289824	0.029655	-0.239740	0.024970	-0.661865	0.277100	-0.291992	0.083825	-0.009677	0.068426	0.764153	-0.210205	-0.155760	-0.589595	-9.057297	-29.072807	-72.952117
54877		5.923462	-2.133171	7.272803	-0.491146	-1.689412	-0.355621	0.082509	-0.196903	-0.085957	-0.666748	0.288086	-0.303467	0.059154	-0.021387	0.072777	0.762575	-0.212061	-0.158160	-0.590334	-9.030840	-29.445247	-73.111622
54878		5.346798	-3.585337	7.224278	-2.066582	-1.520629	-0.482636	0.185517	-0.318828	-0.245701	-0.671387	0.287842	-0.305664	0.053309	-0.035986	0.072295	0.761778	-0.212149	-0.160226	-0.590775	-8.863961	-29.655062	-73.237839
54879		5.573882	-2.305208	7.137566	-0.820038	-1.414694	-0.611984	0.283587	-0.356218	-0.314745	-0.678223	0.294434	-0.312500	0.055575	-0.023241	0.071442	0.759602	-0.213518	-0.164030	-0.592038	-8.655354	-30.133461	-73.531992
54880		6.111504	-2.480738	6.929381	-0.908369	-1.975806	-0.496486	0.306440	-0.391213	-0.406098	-0.678223	0.294434	-0.323486	0.060929	-0.025037	0.069375	0.758386	-0.213228	-0.166899	-0.592899	-8.367004	-30.397276	-73.759082
54881		6.252489	-2.538009	7.089100	-0.999633	-1.946838	-0.273265	0.362723	-0.422760	-0.467030	-0.689941	0.303223	-0.325928	0.062315	-0.025654	0.070977	0.755773	-0.214353	-0.171322	-0.594566	-8.059853	-30.920927	-74.151582
54882		6.589616	-1.208083	8.148536	0.301910	-1.367189	0.642949	0.366361	-0.365916	-0.486846	-0.710205	0.307373	-0.334717	0.065717	-0.012390	0.081583	0.754383	-0.213690	-0.174358	-0.595686	-7.703050	-31.174776	-74.439696
54883		6.132122	-1.023208	8.396659	0.300233	-0.754753	0.603339	0.322558	-0.288407	-0.506265	-0.717041	0.309326	-0.334717	0.061174	-0.010523	0.084038	0.751711	-0.214511	-0.178174	-0.597637	-7.390310	-31.619133	-74.876681
54884		6.256423	-1.234463	7.979255	0.066607	-1.101737	0.341951	0.272526	-0.227637	-0.490412	-0.726074	0.306885	-0.334717	0.062443	-0.012607	0.079847	0.750313	-0.213782	-0.180415	-0.598981	-7.074225	-31.792046	-75.184285
54885		6.369960	-1.232272	7.907061	0.032010	-1.176711	0.347559	0.223656	-0.197359	-0.448564	-0.737549	0.313477	-0.336914	0.063594	-0.012554	0.079119	0.747786	-0.214718	-0.183513	-0.600862	-6.825450	-32.173752	-75.594666
54886		6.172605	-1.182446	7.513843	0.001406	-1.203305	-0.091115	0.166738	-0.185907	-0.367614	-0.744385	0.317627	-0.336914	0.061634	-0.012000	0.075186	0.746670	-0.214370	-0.185149	-0.601872	-6.607922	-32.312541	-75.826596
54887		5.794558	-1.535929	7.523754	-0.465979	-0.900643	-0.246368	0.142326	-0.145718	-0.318135	-0.758057	0.319824	-0.339111	0.057866	-0.015505	0.075269	0.744496	-0.215545	-0.187652	-0.603368	-6.444165	-32.650795	-76.155862
54888		5.754269	-1.294793	7.765106	-0.272951	-0.684670	-0.089435	0.139180	-0.044957	-0.294915	-0.771484	0.321777	-0.336914	0.057506	-0.013087	0.077655	0.743694	-0.214941	-0.188604	-0.604275	-6.260617	-32.703673	-76.351391
54889		6.110678	-0.763871	7.779027	0.281450	-0.840276	0.069205	0.149211	0.068502	-0.294449	-0.778320	0.325928	-0.336914	0.061122	-0.007787	0.077764	0.741812	-0.215436	-0.190281	-0.605884	-6.089104	-32.912878	-76.681141
54890		7.334030	-0.441451	7.491494	0.812932	-1.952520	0.465060	0.126282	0.089810	-0.256448	-0.778564	0.328125	-0.341553	0.073368	-0.004556	0.074879	0.741235	-0.214508	-0.190654	-0.606801	-5.920810	-32.885864	-76.861055
54891		6.823621	-0.496887	7.527063	0.627259	-1.501283	0.228130	0.079663	0.118932	-0.244245	-0.791992	0.327881	-0.336914	0.068275	-0.005082	0.075228	0.739487	-0.215125	-0.191871	-0.608330	-5.801818	-33.059274	-77.160819
54892		6.391932	-0.897630	7.741334	0.129998	-1.111129	0.204261	0.057773	0.143157	-0.219165	-0.794189	0.327881	-0.332520	0.063965	-0.009069	0.077365	0.738998	-0.214324	-0.191802	-0.609228	-5.684218	-32.999223	-77.319150
54893		6.342548	-1.111382	8.177129	-0.123053	-0.843851	0.560414	0.052965	0.182225	-0.228559	-0.798828	0.334473	-0.332764	0.063487	-0.011208	0.081711	0.737340	-0.214831	-0.192676	-0.610781	-5.580990	-33.131726	-77.612521
54894		6.143579	-0.885111	7.677069	0.058919	-0.938873	0.014793	0.053888	0.190277	-0.225945	-0.803467	0.332275	-0.336914	0.061499	-0.008941	0.076710	0.736868	-0.213893	-0.192432	-0.611755	-5.461377	-33.044863	-77.778400
54895		6.699601	-0.630097	7.082226	0.396913	-1.663912	-0.194298	0.047175	0.156744	-0.211119	-0.803467	0.334229	-0.328125	0.067045	-0.006388	0.070768	0.735246	-0.214485	-0.193347	-0.613210	-5.366706	-33.186342	-78.057312
54896		6.928254	-0.176772	7.461514	0.860582	-1.584186	0.210080	0.030647	0.111192	-0.180883	-0.801270	0.334473	-0.328125	0.069322	-0.001842	0.074576	0.734809	-0.213918	-0.193277	-0.613953	-5.279905	-33.141919	-78.187250
54897		6.262478	-0.836646	7.724175	0.071917	-0.969306	0.118916	0.010682	0.077887	-0.147231	-0.803467	0.332031	-0.328125	0.062649	-0.008417	0.077217	0.733274	-0.214921	-0.194293	-0.615117	-5.229823	-33.321982	-78.417999
54898		5.857282	-0.907171	7.957841	-0.079639	-0.523053	0.095794	0.012898	0.034304	-0.150619	-0.809814	0.325439	-0.332520	0.058580	-0.009121	0.079568	0.732835	-0.214684	-0.194422	-0.615682	-5.166820	-33.319818	-78.522619
54899		6.002947	-0.911672	8.093004	-0.079444	-0.532298	0.290460	0.012556	-0.014594	-0.151254	-0.814453	0.329590	-0.319092	0.060017	-0.009167	0.080934	0.731214	-0.215931	-0.195766	-0.616746	-5.115290	-33.548498	-78.749429
54900		6.258508	-0.877593	7.613718	-0.005439	-0.998465	0.031642	0.016241	-0.058403	-0.141793	-0.816650	0.327393	-0.325684	0.062557	-0.008826	0.076155	0.730713	-0.215976	-0.196236	-0.617174	-5.056302	-33.598813	-78.842659
54901		6.272604	-0.476077	7.961450	0.368949	-0.715588	0.302089	-0.007335	-0.088629	-0.130040	-0.816895	0.333984	-0.321533	0.062688	-0.004799	0.079642	0.729077	-0.217517	-0.197744	-0.618086	-5.024726	-33.864441	-79.049589
54902		6.059838	-0.504580	8.346832	0.293865	-0.318293	0.505169	-0.064900	-0.103038	-0.111260	-0.810059	0.329834	-0.314697	0.060553	-0.005052	0.083501	0.728537	-0.218027	-0.198094	-0.618432	-5.024779	-33.938804	-79.119552
54903		4.584465	-0.208576	8.806470	0.345719	1.232554	0.034951	-0.191271	-0.171012	-0.160732	-0.816895	0.331787	-0.310303	0.045768	-0.002038	0.088106	0.726533	-0.220428	-0.199345	-0.619534	-5.087018	-34.248773	-79.341947
54904		5.123154	-1.131558	8.918669	-0.481353	0.767302	0.495036	-0.196294	-0.402903	-0.180000	-0.818604	0.322998	-0.305664	0.051042	-0.011274	0.089301	0.725331	-0.222275	-0.200454	-0.619926	-5.145397	-34.498050	-79.441131
54905		6.200770	-0.240167	8.469083	0.569154	-0.154705	0.669887	-0.324402	-0.597749	-0.156023	-0.823486	0.331543	-0.292480	0.061752	-0.002312	0.084879	0.722776	-0.226436	-0.202794	-0.620642	-5.298333	-35.045018	-79.630909
54906		5.860592	0.243527	8.610368	1.010216	0.339670	0.551082	-0.404073	-0.795039	-0.074851	-0.823242	0.322754	-0.287842	0.058264	0.002588	0.086331	0.721247	-0.230352	-0.204552	-0.620403	-5.532209	-35.512887	-79.630157
54907		5.907730	-0.400518	8.679503	0.399347	0.394594	0.679175	-0.498490	-1.002777	0.004927	-0.830078	0.327148	-0.279053	0.058641	-0.003787	0.087099	0.718546	-0.236512	-0.207585	-0.620211	-5.866371	-36.277337	-79.674767
54908		5.482291	-0.158033	8.773484	0.609938	0.940459	0.473052	-0.528624	-1.229995	0.092838	-0.836914	0.329102	-0.265869	0.054283	-0.001323	0.088074	0.716889	-0.242384	-0.210307	-0.618944	-6.266214	-36.983005	-79.515512
54909		5.514058	-0.549739	8.470477	0.259521	0.862779	0.269083	-0.553299	-1.501776	0.152642	-0.839111	0.331299	-0.245850	0.054506	-0.005221	0.085130	0.713987	-0.250380	-0.214714	-0.617601	-6.729454	-38.015504	-79.399377
54910		5.486932	-0.626915	8.520672	0.214741	1.082220	0.280917	-0.556519	-1.823665	0.172247	-0.845703	0.331055	-0.228027	0.054094	-0.005984	0.085719	0.711803	-0.258239	-0.219337	-0.615257	-7.229891	-39.051315	-79.111070
54911		5.068470	-0.470154	8.819529	0.341792	1.847836	0.195245	-0.577014	-2.199288	0.195313	-0.857178	0.333008	-0.201416	0.049715	-0.004397	0.088759	0.708101	-0.268430	-0.225995	-0.612751	-7.795832	-40.467505	-78.864806
54912		5.287429	-0.351833	8.913144	0.525147	2.007957	0.346582	-0.617800	-2.588633	0.229115	-0.861328	0.328369	-0.185791	0.051718	-0.003182	0.089816	0.704955	-0.278851	-0.232997	-0.609092	-8.449724	-41.928074	-78.412510
54913		5.023246	-0.869191	9.120446	0.009202	2.608638	0.304489	-0.664731	-3.014026	0.229441	-0.875000	0.334717	-0.145752	0.048860	-0.008330	0.091976	0.700035	-0.291737	-0.242054	-0.605187	-9.204778	-43.788841	-77.981505
54914		5.121879	-0.944900	8.670725	-0.026425	2.548170	-0.024776	-0.727220	-3.495980	0.184469	-0.875000	0.334473	-0.114746	0.049701	-0.009085	0.087618	0.695156	-0.305105	-0.251839	-0.600205	-10.060507	-45.756928	-77.361062
54915		5.242990	0.005738	8.731074	0.963741	2.997085	-0.127916	-0.856458	-4.013988	0.171448	-0.888428	0.334229	-0.070313	0.050663	0.000478	0.088338	0.688072	-0.321361	-0.263629	-0.594797	-11.119250	-48.166088	-76.700495
54916		4.671975	-0.664361	8.817206	0.250892	3.792688	-0.563584	-0.989476	-4.601569	0.190078	-0.899414	0.333740	-0.016846	0.044680	-0.006161	0.089247	0.680755	-0.338677	-0.276196	-0.587866	-12.444002	-50.735932	-75.706168
54917		3.596027	-3.600108	9.435103	-2.764445	5.195584	-0.854389	-1.072395	-5.312872	0.074055	-0.901611	0.333740	0.040771	0.033447	-0.035478	0.095453	0.670476	-0.358946	-0.291530	-0.580198	-14.031991	-53.847265	-74.590001
54918		2.542949	-6.167644	9.966205	-5.437839	6.563693	-1.378135	-0.969534	-6.178125	-0.258027	-0.898926	0.326904	0.107422	0.022250	-0.061220	0.100680	0.658615	-0.379629	-0.309804	-0.571078	-15.710545	-57.317741	-73.231905
54919		3.062665	-5.237488	9.897457	-4.453036	6.883149	-1.596135	-0.934793	-7.094242	-0.703670	-0.896240	0.315674	0.176514	0.026903	-0.052007	0.100217	0.642400	-0.402580	-0.332134	-0.561193	-17.605141	-61.471181	-71.758660
54920		6.025581	-4.090854	10.723499	-2.913237	7.054071	0.661001	-0.977555	-8.026681	-1.067647	-0.882080	0.302246	0.265625	0.055667	-0.040682	0.109730	0.623532	-0.426192	-0.357094	-0.549593	-20.006801	-66.033523	-69.709632
54921		10.230334	-2.640353	11.240205	-0.974236	7.034911	3.876032	-1.071460	-8.623186	-1.357667	-0.869873	0.282227	0.343750	0.097150	-0.026457	0.116807	0.600590	-0.451247	-0.383963	-0.536880	-23.535009	-71.038960	-66.672623
54922		16.429203	-1.144698	10.132226	1.126537	5.582098	8.659182	-1.267582	-8.892105	-1.384535	-0.835449	0.264893	0.430420	0.159490	-0.011890	0.108561	0.576277	-0.475851	-0.410033	-0.522822	-29.579591	-75.967098	-61.134066
54923		25.619492	-4.798040	8.590094	-1.675136	4.218925	17.243854	-1.360990	-8.795785	-1.294279	-0.803223	0.249756	0.506104	0.251765	-0.048983	0.097372	0.550148	-0.500391	-0.434763	-0.507865	-41.964815	-80.620440	-49.377247
54924		25.486412	-5.692982	8.203423	-2.856317	6.208469	16.684594	-1.149727	-8.318792	-1.491999	-0.759277	0.223877	0.572998	0.250720	-0.058298	0.092855	0.524848	-0.521029	-0.458105	-0.493156	-68.561689	-84.136753	-23.230188
54925		24.930627	-6.490640	12.738015	-3.876020	12.966235	15.531540	-0.805256	-7.802936	-1.789245	-0.716064	0.211182	0.635254	0.243489	-0.066563	0.137223	0.499223	-0.538537	-0.481094	-0.478856	-119.166936	-84.944267	27.040402
54926		18.895290	-8.270929	14.270833	-6.431238	15.998496	8.394084	-0.495492	-7.275725	-2.080946	-0.674805	0.191650	0.682129	0.182721	-0.084267	0.149640	0.474987	-0.551851	-0.503365	-0.465265	-154.259275	-82.611777	62.033551
54927		13.625300	-9.051054	17.055160	-7.747885	19.259203	1.468499	-0.228098	-6.811739	-2.277893	-0.629395	0.179199	0.719971	0.129298	-0.091812	0.175139	0.451007	-0.562650	-0.525125	-0.451952	-169.911625	-79.189357	77.697447
54928		10.085198	-6.002556	19.817273	-4.980818	21.746775	-4.108342	-0.364105	-6.312792	-2.106870	-0.588135	0.159912	0.755615	0.093893	-0.060675	0.201320	0.428331	-0.571939	-0.544211	-0.439605	-177.333242	-75.710143	85.080960
54929		12.425842	0.150556	22.456482	1.258852	24.969626	-4.026569	-1.107162	-5.604777	-1.786322	-0.553467	0.138184	0.780273	0.117916	0.001689	0.227920	0.405489	-0.581784	-0.558774	-0.429974	178.346181	-72.450537	88.900047
54930		21.855899	0.182776	25.480934	1.738109	31.059521	2.802602	-2.681169	-3.544496	-1.227985	-0.538818	0.107422	0.794189	0.214018	0.003954	0.258586	0.384968	-0.591301	-0.563657	-0.429481	175.065541	-70.370566	90.737830
54931		31.638598	-15.232287	29.062729	-12.816136	39.076515	9.844124	-2.842530	0.599711	-0.368493	-0.552002	0.098389	0.785645	0.316984	-0.148765	0.291809	0.377344	-0.594446	-0.557486	-0.439835	172.746985	-70.672854	91.470417
54932		12.464390	-21.405027	21.736041	-19.083503	26.537674	-5.630257	-0.994306	3.856596	0.066637	-0.585693	0.097656	0.748047	0.128889	-0.212932	0.215963	0.385139	-0.587958	-0.547752	-0.453808	171.365417	-72.854811	92.322823
54933		4.586691	-17.944396	17.845973	-16.044820	20.071599	-10.865459	1.166853	5.426591	0.175721	-0.633545	0.108154	0.703613	0.050825	-0.180433	0.176075	0.404179	-0.573380	-0.539320	-0.465842	170.746696	-75.970849	93.725217
54934		-2.689757	-9.247853	13.857488	-7.972933	13.663435	-15.683000	2.346136	5.985505	0.242163	-0.670166	0.127441	0.654541	-0.022644	-0.094130	0.138197	0.427328	-0.555110	-0.531755	-0.475899	170.111576	-79.364307	95.748719
54935		-3.210330	-3.440600	12.671665	-2.622448	12.205186	-14.990513	2.381699	6.102402	0.467749	-0.709229	0.149170	0.607666	-0.028144	-0.035988	0.127193	0.451893	-0.535970	-0.522900	-0.484875	169.415730	-82.907128	97.940403
54936		-0.881252	-0.176377	12.013413	0.290427	11.879942	-11.777458	1.781347	6.293270	0.783999	-0.741455	0.161865	0.554443	-0.005018	-0.002860	0.120310	0.474707	-0.518506	-0.510660	-0.495006	167.362991	-86.519142	101.023616
54937		0.469455	0.606984	10.774624	0.836287	10.765678	-9.611329	0.931606	6.554504	1.073673	-0.771240	0.174805	0.496582	0.008191	0.005606	0.107543	0.497196	-0.501961	-0.494360	-0.506399	11.941904	-89.573286	-102.904678
54938		1.179778	-0.073990	9.258360	0.075695	9.200153	-8.252990	0.239114	6.772763	1.220011	-0.803223	0.185547	0.440918	0.014927	-0.000766	0.092112	0.517266	-0.486998	-0.474824	-0.519433	-8.023146	-85.670656	-82.799129
54939		1.920680	-0.757383	7.975950	-0.613257	7.721525	-7.010382	-0.190516	6.876947	1.236058	-0.826172	0.196289	0.376465	0.021979	-0.007368	0.079043	0.537019	-0.471663	-0.453177	-0.532706	-9.349649	-81.589037	-81.464601
54940		2.992416	-1.472125	7.104915	-1.259919	6.472997	-5.559538	-0.365229	6.910137	1.135546	-0.842285	0.202881	0.318604	0.032437	-0.014413	0.069984	0.554450	-0.456587	-0.430747	-0.546417	-9.526936	-77.588247	-81.499322
54941		4.271377	-1.693679	6.932615	-1.378420	5.678312	-3.896313	-0.364776	6.891029	0.957348	-0.860596	0.207275	0.249756	0.045148	-0.016600	0.067829	0.571780	-0.439933	-0.408056	-0.559480	-9.430760	-73.516849	-81.702638
54942		5.746068	-1.087563	7.134056	-0.627713	4.986122	-2.079269	-0.356973	6.848433	0.783415	-0.867676	0.213867	0.189697	0.059900	-0.010519	0.069336	0.586765	-0.423201	-0.385568	-0.572666	-9.077237	-69.583247	-82.292902
54943		7.678984	-0.343982	7.716635	0.310386	4.234687	0.215090	-0.457086	6.797326	0.690497	-0.876953	0.218262	0.123047	0.079363	-0.002996	0.074505	0.601605	-0.405541	-0.362410	-0.585036	-8.893420	-65.583870	-82.663740
54944		10.060369	-0.186793	8.441905	0.732409	3.146142	2.915626	-0.648632	6.768779	0.688168	-0.875000	0.222900	0.049805	0.103388	-0.001249	0.080956	0.614169	-0.388774	-0.338602	-0.597495	-8.848552	-61.702534	-83.130835
54945		12.516684	-0.752953	9.075422	0.489537	1.581373	5.574437	-0.830866	6.775356	0.772586	-0.866211	0.223389	-0.012451	0.128172	-0.006673	0.086474	0.627020	-0.371568	-0.313322	-0.608780	-9.097503	-57.706639	-83.288948
54946		14.716248	-1.648639	9.529510	-0.055720	-0.299902	7.790798	-0.932870	6.802845	0.916200	-0.846191	0.228271	-0.074707	0.150363	-0.015373	0.090290	0.638316	-0.355072	-0.287323	-0.619615	-9.473225	-53.786488	-83.483762
54947		16.465443	-2.531582	9.664814	-0.569648	-2.466675	9.275948	-0.934379	6.741542	1.141271	-0.821777	0.235596	-0.132813	0.167928	-0.023929	0.091138	0.650508	-0.338055	-0.260375	-0.628301	-10.044589	-49.778505	-83.340682
54948		18.573441	-3.867644	9.829736	-1.462181	-4.985121	10.909205	-0.847721	6.586392	1.397493	-0.783936	0.238770	-0.177490	0.189102	-0.036963	0.092265	0.661630	-0.321822	-0.233837	-0.635607	-10.655404	-45.933418	-83.175184
54949		21.414361	-5.394167	9.788053	-2.401806	-8.396522	12.704025	-0.617654	6.385846	1.661338	-0.748047	0.239502	-0.219727	0.217562	-0.051855	0.091132	0.673986	-0.304882	-0.207593	-0.640075	-11.282723	-42.076608	-82.691831
54950		24.732505	-6.183170	9.747424	-2.499884	-12.353118	14.391325	-0.297732	6.199921	1.975218	-0.718750	0.238037	-0.248779	0.250783	-0.059229	0.089824	0.685902	-0.288009	-0.182685	-0.642819	-11.793948	-38.380654	-82.168099
54951		27.380163	-5.082353	9.405432	-0.657403	-16.183535	14.709269	-0.023747	6.028046	2.343806	-0.692383	0.249756	-0.271484	0.277040	-0.047579	0.085742	0.699462	-0.270387	-0.158142	-0.642367	-12.288573	-34.652907	-81.280063
54952		29.353886	-2.912825	8.441324	2.186903	-19.750292	13.558363	0.039383	5.846281	2.787649	-0.676270	0.241211	-0.297852	0.296206	-0.025027	0.075774	0.712701	-0.253612	-0.134031	-0.640136	-12.806327	-31.046980	-80.288463
54953		30.744340	-1.106439	5.914778	4.600080	-23.457793	10.427035	0.044698	5.699934	3.205960	-0.661133	0.257080	-0.333740	0.309087	-0.006130	0.050352	0.727217	-0.237087	-0.109488	-0.634789	-13.405337	-27.402855	-78.953267
54954		31.428663	5.257942	3.595680	11.423473	-25.570980	5.795008	-0.079128	5.520625	3.692633	-0.641602	0.275391	-0.358643	0.314077	0.058392	0.027262	0.741446	-0.221821	-0.084789	-0.627586	-14.079321	-23.838242	-77.505292
54955		29.062871	1.403694	-1.188731	7.367993	-26.509734	-0.290287	-0.218213	5.342804	3.809277	-0.622314	0.298096	-0.401611	0.289835	0.019544	-0.019657	0.755471	-0.207419	-0.059941	-0.618586	-14.780040	-20.314908	-75.959508
54956		24.679036	-5.522597	-6.466545	-0.522532	-25.880371	-6.477619	0.656203	4.946265	2.871316	-0.600098	0.300781	-0.426025	0.245845	-0.051466	-0.070927	0.766189	-0.190492	-0.040348	-0.612404	-14.702129	-17.166183	-75.038660
54957		23.320727	-1.941947	-9.150122	2.449551	-24.947244	-11.505379	1.816432	4.329573	1.353702	-0.586426	0.294434	-0.463867	0.231272	-0.016987	-0.096684	0.772977	-0.170762	-0.028085	-0.610376	-13.730595	-14.588569	-74.826417
54958		28.479961	8.768011	-10.768735	13.780257	-27.997044	-15.301519	1.620077	3.808773	0.248677	-0.565918	0.286133	-0.481445	0.282579	0.088930	-0.112366	0.775480	-0.152949	-0.018154	-0.612297	-12.718274	-12.442329	-75.195136
54959		30.272968	14.995577	-15.134329	19.255938	-29.397848	-21.441613	-0.128109	3.417177	-0.481728	-0.552490	0.286377	-0.508057	0.300444	0.149131	-0.156586	0.774126	-0.143352	-0.005132	-0.616566	-12.673317	-10.644674	-75.886866
54960		24.197308	11.668847	-19.475538	13.208588	-25.186635	-26.901272	-2.148358	2.546202	-1.209243	-0.550293	0.286377	-0.512695	0.240148	0.113110	-0.199048	0.768797	-0.143839	0.010417	-0.623019	-13.728863	-9.393353	-76.908093
54961		15.497298	3.820579	-20.606524	2.597177	-18.561822	-27.924235	-2.925293	0.954483	-2.040068	-0.545654	0.286621	-0.510498	0.154344	0.033603	-0.207317	0.759764	-0.152702	0.021232	-0.631656	-15.204494	-9.244491	-78.242759
54962		13.694296	-7.040602	-18.019706	-8.355743	-18.033263	-22.725498	-2.078931	-0.917337	-2.900292	-0.565674	0.281738	-0.490234	0.136707	-0.074253	-0.178811	0.748982	-0.163854	0.022034	-0.641633	-16.148450	-10.210346	-79.719379
54963		13.468667	-19.026056	-13.860762	-19.362284	-18.218891	-15.166536	0.552091	-2.409182	-3.531098	-0.591553	0.247803	-0.478271	0.132965	-0.192238	-0.137528	0.737785	-0.170519	0.007750	-0.653098	-15.532247	-12.198301	-81.361636
54964		10.957566	-8.785380	-13.433430	-9.904124	-14.691859	-17.797730	4.357453	-4.303555	-4.340861	-0.623291	0.200439	-0.446045	0.110561	-0.087326	-0.133869	0.726968	-0.168624	-0.026113	-0.665133	-12.595390	-15.205488	-83.225534
54965		11.249760	6.376077	16.544229	10.141486	-5.391711	7.761376	3.596286	-4.695117	-3.513974	-0.646729	0.166504	-0.427246	0.109618	0.058798	0.169126	0.717126	-0.171464	-0.058736	-0.672964	-10.126423	-18.362092	-84.719849
54966		4.316945	0.315743	19.961418	3.339069	2.847879	10.133429	2.335415	-4.334939	-0.956868	-0.670898	0.152588	-0.389160	0.038837	0.000627	0.200504	0.714397	-0.177421	-0.082995	-0.671767	-8.743157	-20.913228	-84.860359
54967		9.373935	7.704939	5.432594	9.066156	-6.185050	-2.312149	1.874796	-5.054607	0.894652	-0.687012	0.163330	-0.351563	0.091970	0.076935	0.057387	0.716385	-0.188822	-0.107176	-0.663063	-8.069422	-23.825956	-83.867611
54968		23.107645	10.733484	7.249787	13.780755	-16.945998	5.169676	0.892746	-5.352273	1.656274	-0.700684	0.171875	-0.318359	0.228121	0.108889	0.079113	0.719543	-0.204257	-0.127756	-0.651318	-8.209558	-26.738832	-82.347454
54969		23.358659	8.310774	13.118459	12.150135	-13.477821	11.573601	0.628602	-4.429144	1.129315	-0.705566	0.185059	-0.278809	0.230129	0.083990	0.136570	0.720198	-0.217952	-0.145252	-0.642428	-8.393644	-29.291758	-81.269686
54970		18.499274	9.609395	11.473636	12.751810	-9.083054	8.104986	0.296933	-3.571551	0.124993	-0.712402	0.184814	-0.265381	0.182843	0.096035	0.118157	0.718190	-0.228488	-0.158967	-0.637750	-8.443017	-31.317031	-80.839313
54971		21.663721	-0.021464	12.113125	3.615406	-11.478263	11.893948	-0.055730	-2.958717	-0.361546	-0.707764	0.184814	-0.245361	0.214813	-0.000570	0.124318	0.713551	-0.238731	-0.170549	-0.636212	-8.497405	-33.172226	-80.906064
54972		23.389784	-7.427858	10.007077	-3.737071	-14.154218	12.279727	0.532647	-1.563758	-0.493769	-0.705566	0.184814	-0.236572	0.232922	-0.075124	0.101695	0.711230	-0.241453	-0.178466	-0.635611	-8.095033	-34.111233	-81.085681
54973		8.338159	-3.534890	6.685723	-2.122170	-3.184584	0.773743	0.475079	-1.171257	-0.361035	-0.696533	0.185059	-0.243408	0.082924	-0.035658	0.067259	0.708564	-0.244166	-0.185362	-0.635579	-7.741445	-34.963561	-81.342381
54974		11.608132	0.411283	9.769793	2.259721	-3.652183	4.744806	0.397514	-0.592698	-0.431645	-0.694336	0.185059	-0.238770	0.115799	0.003668	0.098049	0.707095	-0.244318	-0.189311	-0.635992	-7.375524	-35.344497	-81.586403
54975		7.152169	-1.630987	7.612268	-0.470407	-1.377848	0.658232	0.218262	-0.374034	-0.455287	-0.692139	0.189697	-0.245605	0.071342	-0.016556	0.076238	0.704525	-0.245317	-0.192673	-0.637449	-7.079658	-35.749313	-81.991239
54976		7.956690	-1.594043	7.176512	-0.408281	-2.246368	0.776890	0.200210	-0.219902	-0.345474	-0.690186	0.194092	-0.252441	0.079460	-0.016150	0.071836	0.703428	-0.245059	-0.194570	-0.638183	-6.837073	-35.910290	-82.213701
54977		8.106839	-0.729670	7.286841	0.419000	-2.200911	0.879907	0.179646	-0.096969	-0.354181	-0.692627	0.196289	-0.265869	0.081020	-0.007506	0.072901	0.701413	-0.245397	-0.196701	-0.639616	-6.586416	-36.146881	-82.571682
54978		7.288933	-1.246641	7.030400	-0.231144	-1.724377	0.241274	0.177315	0.014005	-0.379836	-0.692627	0.198486	-0.270264	0.072870	-0.012667	0.070288	0.700399	-0.244437	-0.197747	-0.640772	-6.329027	-36.175476	-82.839720
54979		7.869382	-0.641123	7.352730	0.392739	-1.937730	0.793522	0.175314	0.053110	-0.337025	-0.697266	0.205078	-0.279297	0.078702	-0.006608	0.073501	0.698585	-0.244316	-0.199314	-0.642310	-6.077958	-36.322395	-83.198169
54980		7.110939	-0.867383	7.707933	0.070216	-1.134635	0.648556	0.183123	0.035321	-0.312411	-0.699707	0.209473	-0.283691	0.071109	-0.008855	0.077059	0.697810	-0.243333	-0.200222	-0.643243	-5.843427	-36.333105	-83.420963
54981		6.463861	-0.575745	7.924885	0.267333	-0.448666	0.416874	0.204578	0.021969	-0.284162	-0.711182	0.213867	-0.290527	0.064639	-0.005930	0.079236	0.696175	-0.243249	-0.201922	-0.644513	-5.596688	-36.491299	-83.740187
54982		6.501452	-0.503821	7.785899	0.304420	-0.558290	0.323313	0.205982	-0.001866	-0.251837	-0.718506	0.227051	-0.299561	0.065007	-0.005200	0.077854	0.695581	-0.242367	-0.202962	-0.645161	-5.375225	-36.518565	-83.918085
54983		6.439818	-0.418024	7.691155	0.345742	-0.535859	0.206949	0.186178	-0.023927	-0.226337	-0.722900	0.224854	-0.308350	0.064384	-0.004325	0.076915	0.694072	-0.242534	-0.204679	-0.646180	-5.162860	-36.695718	-84.193721
54984		6.235043	-0.736634	7.994740	-0.007044	-0.200308	0.350679	0.164484	-0.044120	-0.211654	-0.736572	0.231201	-0.310791	0.062325	-0.007498	0.079955	0.693510	-0.241973	-0.205684	-0.646674	-4.982906	-36.744181	-84.341083
54985		6.038172	-0.832984	7.839844	-0.152959	-0.110631	0.116101	0.159677	-0.061079	-0.197584	-0.746094	0.241943	-0.302002	0.060349	-0.008452	0.078410	0.692035	-0.242363	-0.207396	-0.647560	-4.797276	-36.937303	-84.593809
54986		5.939222	-1.080695	7.691364	-0.435022	-0.124693	-0.045676	0.151709	-0.061517	-0.183482	-0.755127	0.244141	-0.306396	0.059359	-0.010920	0.076924	0.691529	-0.241932	-0.208387	-0.647944	-4.636356	-36.993784	-84.720870
54987		6.056380	-0.612030	7.642118	0.013693	-0.197133	-0.044515	0.143113	-0.067497	-0.150248	-0.759766	0.250732	-0.313232	0.060533	-0.006220	0.076437	0.690205	-0.242430	-0.209995	-0.648649	-4.479693	-37.184533	-84.936809
54988		6.396712	-0.245332	7.496634	0.383033	-0.532881	0.023315	0.087536	-0.054465	-0.103356	-0.766602	0.255127	-0.311035	0.063945	-0.002519	0.074983	0.689886	-0.242282	-0.210658	-0.648830	-4.389175	-37.233079	-85.007557
54989		6.332804	-0.178562	7.314304	0.425085	-0.563208	-0.161914	0.056151	-0.036268	-0.069231	-0.773682	0.263672	-0.309082	0.063314	-0.001828	0.073154	0.688765	-0.243046	-0.211764	-0.649375	-4.315263	-37.399365	-85.166544
54990		5.851338	-0.219432	7.709052	0.355280	0.061382	-0.138712	0.015576	-0.011302	-0.051048	-0.780518	0.261475	-0.306641	0.058508	-0.002215	0.077094	0.688573	-0.243062	-0.211981	-0.649501	-4.287019	-37.421010	-85.202344
54991		5.679777	-0.564925	7.930343	-0.002601	0.344307	-0.047914	0.001855	-0.025047	-0.059163	-0.792236	0.276611	-0.298096	0.056786	-0.005667	0.079310	0.687438	-0.243970	-0.212845	-0.650081	-4.247267	-37.577590	-85.354791
54992		6.302732	-0.581754	7.751443	0.012462	-0.252648	0.191499	-0.005166	-0.032143	-0.071234	-0.792236	0.274414	-0.298096	0.063013	-0.005838	0.077525	0.687132	-0.244104	-0.213092	-0.650273	-4.222544	-37.612102	-85.404165
54993		6.442000	-0.801615	7.724670	-0.208152	-0.359385	0.268979	-0.011696	-0.025156	-0.101715	-0.796875	0.283203	-0.296143	0.064406	-0.008044	0.077255	0.685859	-0.244993	-0.213948	-0.651001	-4.171372	-37.767378	-85.585364
54994		6.168971	-1.061542	7.655890	-0.491670	-0.190852	0.062411	-0.009589	0.005194	-0.111126	-0.794678	0.281006	-0.300537	0.061686	-0.010646	0.076558	0.685457	-0.244979	-0.214102	-0.651380	-4.130085	-37.782286	-85.665733
54995		6.008124	-0.565644	7.746246	-0.013718	0.028635	0.006724	-0.015130	0.030623	-0.121711	-0.799316	0.287598	-0.287354	0.060090	-0.005687	0.077454	0.684201	-0.245658	-0.214767	-0.652224	-4.070268	-37.903664	-85.860518
54996		6.353652	-0.310654	7.531425	0.250227	-0.369381	0.035597	-0.043702	0.042874	-0.105641	-0.801758	0.289795	-0.291748	0.063551	-0.003124	0.075301	0.683814	-0.245644	-0.214675	-0.652666	-4.049539	-37.896846	-85.939028
54997		6.582061	-0.318890	7.652069	0.251866	-0.455544	0.272372	-0.060684	0.020826	-0.077304	-0.805908	0.283203	-0.293701	0.065827	-0.003191	0.076515	0.682649	-0.246540	-0.215157	-0.653387	-4.035275	-38.019241	-86.099881
54998		6.606738	-0.405464	7.310467	0.156489	-0.686198	0.024027	-0.052012	-0.004794	-0.074218	-0.801514	0.283203	-0.293701	0.066064	-0.004060	0.073107	0.682302	-0.246743	-0.215163	-0.653671	-4.034638	-38.038502	-86.153295
54999		5.906674	-0.699918	7.592829	-0.171356	0.055583	-0.169177	-0.037494	-0.032995	-0.090456	-0.812744	0.282959	-0.282715	0.059051	-0.007012	0.075939	0.681075	-0.247707	-0.215910	-0.654340	-4.002275	-38.189958	-86.320113
