// General information: 
//  MT Manager version: 2019.2.0 
//  XDA version: 2019.2.0 build 3853 rev 94535 built on 2019-09-09
// Device information: 
//  DeviceId: 00B40AC7
//  ProductCode: MTW2-3A7G6
//  Firmware Version: 4.3.5
//  Hardware Version: 1.1.0
// Device settings: 
//  Filter Profile: human(46.1)
//  Option Flags: Orientation Smoother Disabled, AHS Disabled, ICC Disabled
// Coordinate system: ENU
PacketCounter	SampleTimeFine	Acc_X	Acc_Y	Acc_Z	FreeAcc_E	FreeAcc_N	FreeAcc_U	Gyr_X	Gyr_Y	Gyr_Z	Mag_X	Mag_Y	Mag_Z	VelInc_X	VelInc_Y	VelInc_Z	Quat_q0	Quat_q1	Quat_q2	Quat_q3	Roll	Pitch	Yaw
23438		19.777318	-1.496127	-8.259178	10.491581	11.496275	4.997107	2.085136	0.806152	-3.518929	-0.333496	-0.825928	0.116455	0.197144	-0.017566	-0.083561	-0.597955	-0.658201	0.230295	-0.395203	87.400623	-52.717408	16.246225
23439		18.815665	3.209114	-8.689371	6.521769	11.073288	6.760331	2.975701	0.383298	-3.707444	-0.311279	-0.829834	0.149902	0.188558	0.029890	-0.086799	-0.595740	-0.670442	0.211010	-0.388685	88.920114	-50.587527	16.485932
23440		16.421278	5.198952	-8.498786	4.030662	10.108995	6.013351	2.519286	0.269746	-3.652124	-0.284668	-0.829590	0.163330	0.165024	0.050048	-0.084571	-0.594501	-0.681122	0.193059	-0.381272	90.207410	-48.498134	16.693004
23441		15.088531	1.742852	-6.398086	6.611926	8.679902	2.539077	2.099333	0.521985	-3.432100	-0.261963	-0.840088	0.185791	0.150995	0.015511	-0.064205	-0.594257	-0.689560	0.175785	-0.374786	91.065118	-46.535248	17.164286
23442		12.421361	2.269289	-5.569153	4.986144	7.362070	0.741263	1.689794	0.851206	-3.149642	-0.239746	-0.837646	0.194580	0.124317	0.021208	-0.056037	-0.594950	-0.695655	0.159255	-0.369779	91.500344	-44.746720	17.911382
23443		7.944179	4.283707	-5.861309	0.697256	6.288063	-1.107142	0.950677	0.996834	-2.755482	-0.221680	-0.846191	0.199219	0.079732	0.042019	-0.058809	-0.597443	-0.698772	0.144936	-0.365751	91.459875	-43.183255	18.757677
23444		4.471829	3.181526	-9.514037	-2.156434	9.227900	-4.260042	0.793631	0.627870	-2.055280	-0.210449	-0.850586	0.199463	0.044746	0.031733	-0.095155	-0.598793	-0.701470	0.134467	-0.362361	91.564476	-42.021285	19.281382
23445		9.661826	-0.511367	-5.119359	5.314729	7.323171	-3.652779	0.803356	0.478258	-1.049403	-0.208252	-0.852539	0.206055	0.096468	-0.005414	-0.051446	-0.598165	-0.703717	0.127902	-0.361416	91.769586	-41.428298	19.668350
23446		6.469020	-2.860934	-8.222778	3.373293	10.043606	-7.490204	0.579480	0.229816	-0.519353	-0.204102	-0.843750	0.210449	0.064521	-0.028538	-0.082385	-0.597158	-0.705394	0.124400	-0.361035	91.987054	-41.141165	19.847491
23447		3.890382	-2.389292	-3.834639	2.814773	5.185806	-8.956718	0.137997	0.269948	-0.186859	-0.212891	-0.848389	0.203857	0.038830	-0.023903	-0.038415	-0.597158	-0.705454	0.122692	-0.361502	91.932745	-41.039494	20.054023
23448		2.621154	-4.751813	-1.554817	4.169437	3.342825	-11.631738	-0.338949	0.335675	0.217205	-0.217285	-0.850586	0.195068	0.026237	-0.047516	-0.015512	-0.598112	-0.703737	0.123137	-0.363118	91.584759	-41.176280	20.293781
23449		1.745811	-2.508564	-0.797055	2.471222	1.830930	-10.531567	-0.770537	0.426064	0.411441	-0.226074	-0.853027	0.190674	0.017493	-0.025080	-0.007911	-0.600314	-0.700418	0.124715	-0.365356	90.938080	-41.417405	20.608283
23450		1.851734	0.572216	-0.785030	0.657286	1.083344	-8.149276	-0.991195	0.487659	0.731054	-0.237305	-0.842285	0.168213	0.018477	0.005751	-0.007924	-0.602696	-0.696112	0.127697	-0.368617	90.135207	-41.845370	20.965334
23451		0.944452	1.648505	-1.711656	-0.994992	1.458523	-7.962842	-1.002583	0.417698	1.235792	-0.250732	-0.846924	0.157227	0.009307	0.016457	-0.017219	-0.604137	-0.691529	0.132590	-0.373130	89.345561	-42.552473	21.289230
23452		0.030410	1.230339	-2.523178	-1.661383	2.082628	-8.927593	-1.103361	0.326597	1.837819	-0.268555	-0.842773	0.143799	0.000151	0.012166	-0.025299	-0.604672	-0.686353	0.140092	-0.379033	88.529006	-43.607953	21.559603
23453		-0.289307	-0.107090	-2.772853	-1.086556	2.546724	-10.155268	-1.073086	0.179093	2.382470	-0.297852	-0.832031	0.136719	-0.002904	-0.001254	-0.027720	-0.603895	-0.681063	0.149755	-0.386054	87.776044	-44.969195	21.760753
23454		0.028748	-0.946350	-2.783661	-0.288420	2.835261	-10.535989	-0.878041	-0.036159	2.784177	-0.318115	-0.823730	0.116455	0.000425	-0.009580	-0.027795	-0.601388	-0.676348	0.161108	-0.393612	87.232339	-46.569921	21.817358
23455		1.023753	-0.469202	-2.696330	0.067982	2.900995	-9.469217	-0.718458	-0.235153	3.050479	-0.347168	-0.819580	0.116211	0.010340	-0.004632	-0.026934	-0.597532	-0.672131	0.173530	-0.401351	86.874532	-48.322587	21.747450
23456		1.522844	0.041223	-2.428628	0.096160	2.649407	-8.721688	-0.682578	-0.387229	3.277529	-0.381104	-0.806641	0.104736	0.015267	0.000579	-0.024259	-0.592808	-0.667944	0.187136	-0.409157	86.625857	-50.215723	21.556470
23457		2.096417	-0.799233	-2.311817	1.076322	2.849486	-8.764010	-0.574958	-0.533978	3.543581	-0.406250	-0.787109	0.113037	0.021164	-0.007685	-0.023039	-0.586864	-0.663928	0.201703	-0.417260	86.531442	-52.260969	21.258118
23458		2.876475	-1.674691	-2.483097	2.110245	3.360688	-8.589710	-0.322746	-0.707979	3.773200	-0.435791	-0.767578	0.099121	0.029162	-0.016239	-0.024702	-0.579216	-0.660544	0.217031	-0.425544	86.730681	-54.448827	20.776586
23459		3.968654	-1.398774	-2.439383	2.454678	3.435877	-7.399390	-0.061656	-0.904023	3.993459	-0.465088	-0.752441	0.103271	0.040065	-0.013198	-0.024209	-0.569802	-0.657838	0.232928	-0.433957	87.282601	-56.761138	20.067923
23460		5.185395	-0.569915	-2.237787	2.374993	3.192950	-5.765369	0.217298	-1.123356	4.147503	-0.494873	-0.730469	0.111328	0.052082	-0.004597	-0.022091	-0.558644	-0.655908	0.249339	-0.442189	88.297366	-59.165802	19.011154
23461		6.166490	0.840366	-1.840665	1.641267	2.495990	-4.051668	0.471435	-1.346373	4.267224	-0.529053	-0.702148	0.121582	0.061588	0.009761	-0.017970	-0.545825	-0.654737	0.265991	-0.450159	89.863052	-61.623166	17.524180
23462		6.964217	2.288801	-1.431072	0.673420	1.654777	-2.561132	0.689767	-1.529405	4.391604	-0.559082	-0.673584	0.131836	0.069223	0.024459	-0.013698	-0.531493	-0.654032	0.283010	-0.457889	92.062723	-64.129749	15.490331
23463		7.983581	2.989878	-1.384545	0.220112	1.298053	-1.277716	0.851493	-1.611171	4.550800	-0.588867	-0.645020	0.146484	0.079235	0.031763	-0.013073	-0.515831	-0.653368	0.300141	-0.465772	94.918995	-66.676699	12.889000
23464		9.103857	2.968570	-1.302983	0.342278	1.043030	-0.212395	0.842037	-1.572575	4.716383	-0.610107	-0.610107	0.152100	0.090402	0.031875	-0.012186	-0.499568	-0.651903	0.317639	-0.473877	98.402635	-69.261883	9.645290
23465		9.706595	3.051644	-1.111836	0.139083	0.561923	0.405372	0.783519	-1.597418	4.804075	-0.637939	-0.577148	0.166748	0.096379	0.032878	-0.010221	-0.482911	-0.649822	0.335328	-0.481750	102.842891	-71.799831	5.415760
23466		10.162183	3.066759	-1.250102	-0.197688	0.371622	0.866051	0.735257	-1.659468	4.814637	-0.661377	-0.539795	0.181152	0.100942	0.033147	-0.011543	-0.466000	-0.647273	0.353185	-0.489021	108.726795	-74.202367	-0.304478
23467		10.837397	3.060673	-1.748008	-0.603986	0.488028	1.555707	0.799033	-1.757802	4.832076	-0.691406	-0.504639	0.195801	0.107739	0.033282	-0.016402	-0.448317	-0.644701	0.370845	-0.495829	116.820771	-76.369383	-8.194796
23468		12.016606	2.883621	-2.136725	-0.767932	0.472155	2.694525	0.899323	-1.851951	4.889367	-0.701904	-0.458496	0.209961	0.119602	0.031857	-0.020119	-0.429714	-0.641983	0.388480	-0.502282	127.989090	-78.176485	-19.121621
23469		13.274731	3.626839	-2.443046	-1.850707	-0.022389	4.038970	0.887521	-1.881973	4.974395	-0.725342	-0.423340	0.222168	0.132010	0.039662	-0.023015	-0.410541	-0.638740	0.406118	-0.508463	142.609941	-79.422748	-33.501747
23470		14.347705	4.294568	-2.445175	-2.917444	-0.838286	5.053675	0.612704	-1.783450	5.111484	-0.735352	-0.385986	0.228027	0.142526	0.046669	-0.023039	-0.391823	-0.633881	0.424471	-0.514290	159.858639	-79.942216	-50.680673
23471		14.993671	4.154625	-1.880995	-3.188228	-1.895843	5.411946	0.360288	-1.715651	5.209412	-0.750244	-0.339844	0.239990	0.148940	0.045467	-0.017450	-0.373475	-0.627722	0.443253	-0.519623	177.397115	-79.560099	-68.286826
23472		15.339070	3.269539	-1.093941	-2.754921	-2.881159	5.393254	0.260492	-1.713829	5.242189	-0.760254	-0.300293	0.247803	0.152549	0.036715	-0.009584	-0.355116	-0.620758	0.462128	-0.524394	-167.516852	-78.311185	-83.510660
23473		16.165253	1.946741	-0.456298	-1.971955	-3.712392	5.921866	0.343711	-1.729744	5.205701	-0.761719	-0.258545	0.260010	0.161104	0.023672	-0.003130	-0.336248	-0.613660	0.480276	-0.528860	-156.040771	-76.425263	-95.063685
23474		17.411331	2.937058	-0.110746	-3.536277	-5.159258	6.697703	0.790419	-1.783318	5.096050	-0.771973	-0.216797	0.272217	0.173290	0.033793	0.000568	-0.315951	-0.607196	0.496700	-0.533645	-147.605976	-74.137387	-103.320609
23475		18.525676	6.816266	1.481089	-7.431850	-8.633536	6.373514	1.095347	-1.630407	5.012115	-0.768555	-0.183594	0.280273	0.183342	0.072686	0.016701	-0.295067	-0.600628	0.511385	-0.539136	-141.150425	-71.699940	-109.413014
23476		19.178581	5.908351	2.052762	-7.156257	-9.563839	6.440723	1.238447	-1.303782	4.941254	-0.774414	-0.139893	0.285645	0.190110	0.063661	0.022155	-0.274594	-0.593092	0.524679	-0.545482	-135.847492	-69.258981	-114.289853
23477		19.882170	5.824154	0.789601	-8.310971	-9.109736	6.851684	1.715520	-1.238118	4.602203	-0.771240	-0.100098	0.295898	0.197357	0.062717	0.009646	-0.253596	-0.586579	0.535174	-0.552452	-131.612906	-66.860284	-117.791743
23478		20.715306	8.217925	-0.190223	-11.610003	-9.722131	6.536648	1.816565	-1.110327	4.090337	-0.774170	-0.075928	0.292969	0.205418	0.086398	0.000013	-0.233898	-0.580843	0.543455	-0.559080	-128.312796	-64.648909	-120.270044
23479		19.790712	12.326386	-1.442802	-16.037743	-9.951072	3.949226	1.760648	-0.927597	3.485792	-0.768311	-0.045166	0.307617	0.195778	0.126804	-0.012411	-0.216449	-0.575923	0.549625	-0.565132	-125.731358	-62.732477	-122.021401
23480		17.290489	16.756678	-2.439037	-20.010566	-9.811495	-0.381129	1.469271	-0.797824	2.872102	-0.773438	-0.023193	0.311523	0.170565	0.170197	-0.022463	-0.201850	-0.571797	0.554552	-0.569892	-123.835032	-61.115815	-123.216263
23481		14.697366	19.637411	-1.740344	-21.639121	-10.471244	-4.641502	0.795344	-0.663922	2.202203	-0.767334	-0.010010	0.309082	0.144854	0.198043	-0.016135	-0.191421	-0.568359	0.559204	-0.572378	-122.719483	-59.850679	-123.971735
23482		12.364953	20.296146	-0.088749	-20.865708	-11.205616	-7.842882	0.232902	-0.543869	1.357084	-0.762939	-0.005371	0.313477	0.122270	0.203795	-0.000317	-0.185326	-0.566342	0.562903	-0.572758	-122.325775	-59.025245	-124.272838
23483		12.641489	19.194886	1.055424	-19.512675	-12.000797	-7.667895	0.026736	-0.339576	0.433120	-0.769775	-0.001221	0.313232	0.125981	0.192221	0.010794	-0.183028	-0.566134	0.564358	-0.572270	-122.363913	-58.710008	-124.207623
23484		14.065159	17.202639	1.969452	-17.828131	-12.806130	-5.837996	-0.210902	-0.007184	-0.431610	-0.767334	-0.007568	0.315674	0.141022	0.171743	0.019518	-0.184822	-0.567203	0.563732	-0.571251	-122.713677	-58.915953	-123.937616
23485		14.149040	15.750404	0.899412	-17.050448	-11.481970	-4.662882	-0.254973	0.142014	-1.192169	-0.762695	-0.014160	0.315918	0.142432	0.156668	0.008693	-0.189322	-0.569928	0.560931	-0.569821	-123.371774	-59.531401	-123.338942
23486		11.446686	17.337534	-1.264514	-18.529139	-8.969799	-6.744022	-0.094588	0.230350	-1.876944	-0.762207	-0.029541	0.313965	0.116072	0.172285	-0.012860	-0.195565	-0.574457	0.555579	-0.568406	-124.277732	-60.499745	-122.351839
23487		18.724336	-8.221832	-6.407428	-0.515646	0.341100	11.608349	-0.471530	0.748118	-1.498745	-0.761963	-0.036133	0.307617	0.186379	-0.083769	-0.064576	-0.203224	-0.576028	0.551855	-0.567757	-124.790176	-61.448576	-122.072071
23488		14.202953	-31.924802	0.743484	24.511253	3.389778	14.868593	-1.170165	0.618003	-0.729983	-0.768311	-0.049561	0.301270	0.140889	-0.319715	0.008868	-0.210357	-0.575124	0.552395	-0.565546	-125.374125	-61.996455	-122.166190
23489		14.075077	-3.943655	4.407697	1.883440	-8.154451	2.955991	-0.099243	0.353789	-1.928805	-0.763672	-0.055908	0.308105	0.140440	-0.040770	0.043848	-0.217039	-0.579335	0.546724	-0.564232	-126.360941	-63.009212	-121.115185
23490		24.096026	15.373697	-2.028831	-19.710856	-12.421420	6.867223	1.631921	0.036611	-2.845701	-0.762939	-0.075684	0.315186	0.243113	0.150447	-0.019096	-0.220396	-0.588740	0.533729	-0.565637	-127.372502	-64.328050	-118.938642
23491		20.014483	2.232980	-1.674400	-6.670334	-6.792544	8.011898	0.439576	0.265530	-2.551341	-0.767090	-0.086670	0.313232	0.200386	0.019812	-0.016965	-0.226983	-0.595248	0.524631	-0.564730	-128.795574	-65.570952	-117.087310
23492		11.305425	-1.073153	-1.418276	-1.652529	-2.491715	1.233887	0.064030	0.197830	-2.972268	-0.759766	-0.106445	0.313721	0.112864	-0.012405	-0.014298	-0.235669	-0.602536	0.515273	-0.562054	-131.052605	-66.952778	-114.576245
23493		10.141071	5.053448	-1.937102	-6.832596	-3.737257	-1.358765	0.770002	-0.041651	-3.263395	-0.754639	-0.132568	0.325439	0.102222	0.048945	-0.019159	-0.242354	-0.611900	0.503249	-0.559985	-133.720329	-68.316466	-111.212232
23494		8.765610	3.684555	-5.239723	-6.657763	0.096889	-1.237932	1.113617	-0.179830	-2.991527	-0.756592	-0.141357	0.332275	0.088244	0.035819	-0.052117	-0.246831	-0.621245	0.491080	-0.558542	-136.422219	-69.457240	-107.626558
23495		7.573222	5.074152	-7.536882	-8.648339	1.868276	-1.962974	1.344726	-0.116593	-2.662671	-0.751709	-0.156494	0.337158	0.076447	0.050232	-0.074986	-0.249752	-0.629716	0.479138	-0.558130	-138.866054	-70.434141	-104.202457
23496		9.241947	3.778815	-5.626952	-6.632290	0.224314	-0.468408	0.993133	0.297175	-2.302955	-0.753418	-0.169678	0.335205	0.092765	0.037001	-0.056222	-0.253736	-0.635638	0.468655	-0.558520	-140.910332	-71.416946	-101.432304
23497		9.603027	-0.090518	-4.151072	-2.422893	0.614272	0.346410	0.563785	0.524083	-2.035735	-0.755371	-0.180664	0.339844	0.095906	-0.001764	-0.041766	-0.258818	-0.639639	0.459913	-0.558887	-142.828758	-72.371426	-99.071695
23498		11.899351	1.740555	-0.988850	-2.498506	-3.390521	1.494748	0.387462	1.125370	-1.931686	-0.759521	-0.191650	0.335693	0.119096	0.016276	-0.010526	-0.265622	-0.641394	0.451113	-0.560853	-144.272562	-73.557874	-97.331126
23499		12.812953	3.239891	1.548760	-2.530004	-6.212925	1.678798	-0.363222	2.127325	-1.813264	-0.765625	-0.209473	0.320801	0.128571	0.031261	0.014064	-0.276619	-0.638990	0.443442	-0.564387	-144.989084	-75.150998	-96.800760
23500		9.405724	2.721275	-1.001683	-3.116566	-2.654744	-0.862268	-0.773222	1.720911	-1.867328	-0.771973	-0.220703	0.309814	0.094214	0.026292	-0.010930	-0.288225	-0.637146	0.437178	-0.565550	-146.767785	-76.578046	-95.424614
23501		10.365241	1.365277	-1.421407	-2.042862	-1.691253	0.399296	-0.598620	1.106914	-1.777288	-0.771240	-0.242676	0.308350	0.103687	0.012688	-0.014827	-0.297537	-0.637018	0.431584	-0.565168	-149.428184	-77.652579	-93.045047
23502		9.185211	-0.630449	-0.938913	0.071878	-0.794627	-0.592702	-0.555996	0.806559	-1.612194	-0.772949	-0.253662	0.302002	0.091758	-0.007071	-0.009740	-0.305657	-0.637364	0.426739	-0.564122	-152.535126	-78.514413	-90.195754
23503		8.061945	-0.907345	-1.778706	0.038147	0.395939	-1.516771	-0.177544	0.379289	-1.603700	-0.774902	-0.269043	0.306641	0.080509	-0.009735	-0.017931	-0.311522	-0.639442	0.421531	-0.562477	-156.356701	-79.104768	-86.401503
23504		9.333673	-0.477293	-2.062215	-0.349035	0.300422	-0.253181	-0.139303	0.297965	-1.488591	-0.772217	-0.284424	0.300537	0.093267	-0.005482	-0.020757	-0.316819	-0.641518	0.416628	-0.560804	-160.346068	-79.584725	-82.422418
23505		9.852209	0.536734	-1.069322	-0.677582	-1.033154	0.034625	0.006762	0.266001	-1.328749	-0.765137	-0.297607	0.307373	0.098541	0.004713	-0.010824	-0.321046	-0.643555	0.411913	-0.559548	-164.104504	-79.959980	-78.597020
23506		9.524092	0.183726	-0.937576	-0.214718	-0.860290	-0.282006	0.218014	0.113531	-1.187365	-0.771484	-0.304199	0.305420	0.095244	0.001282	-0.009428	-0.323938	-0.646034	0.407237	-0.558447	-167.697091	-80.193896	-74.822205
23507		10.505504	2.342461	-2.256492	-2.592225	-0.798645	0.844973	-0.063289	0.099181	-1.151584	-0.769043	-0.312744	0.310059	0.105176	0.022812	-0.022624	-0.327531	-0.648007	0.403523	-0.556758	-171.462204	-80.366657	-71.036691
23508		9.701540	2.069046	-2.962541	-2.615902	0.137621	0.203021	-0.434041	0.123493	-1.057935	-0.766357	-0.328125	0.317139	0.097104	0.020113	-0.029729	-0.332160	-0.649094	0.401039	-0.554540	-175.276148	-80.510251	-67.419568
23509		9.947127	1.270384	-2.380267	-1.533805	0.022609	0.379013	-0.491401	0.133974	-0.998386	-0.763672	-0.341309	0.312988	0.099517	0.012148	-0.023900	-0.336763	-0.649917	0.398929	-0.552316	-178.969450	-80.613093	-63.958632
23510		9.410919	-0.911573	-1.589930	0.811305	0.459918	-0.270479	-0.332853	0.142344	-0.944268	-0.768066	-0.347900	0.315430	0.094053	-0.009586	-0.015951	-0.340750	-0.650866	0.396482	-0.550513	177.510810	-80.688524	-60.581941
23511		9.663788	0.159801	-1.105910	0.170490	-0.436730	-0.095853	-0.102625	0.088189	-0.929231	-0.763184	-0.358887	0.317871	0.096639	0.001143	-0.011102	-0.343790	-0.652302	0.393583	-0.549002	174.193218	-80.697849	-57.277306
23512		10.114538	0.915431	-1.499393	-0.559872	-0.445809	0.428267	-0.105767	0.068236	-0.889667	-0.764893	-0.376465	0.318359	0.101180	0.008696	-0.015033	-0.346714	-0.653709	0.390799	-0.547476	170.988248	-80.670073	-54.087135
23513		9.832724	1.731054	-2.129011	-1.514857	-0.176495	0.281124	-0.244296	0.068649	-0.871896	-0.760498	-0.376465	0.318359	0.098394	0.016856	-0.021345	-0.350007	-0.654813	0.388492	-0.545700	167.830220	-80.614388	-51.025994
23514		9.978949	1.335523	-1.670740	-0.868530	-0.370297	0.349118	-0.337855	0.085512	-0.818617	-0.757813	-0.387451	0.316406	0.099836	0.012918	-0.016772	-0.353521	-0.655600	0.386531	-0.543880	164.787257	-80.549841	-48.134525
23515		9.865745	1.108374	-1.763806	-0.647490	-0.122628	0.248999	-0.330178	0.100048	-0.800034	-0.748535	-0.395996	0.321045	0.098692	0.010660	-0.017705	-0.356946	-0.656304	0.384623	-0.542144	161.879932	-80.470835	-45.376281
23516		9.993200	1.439896	-2.030115	-0.973888	-0.001733	0.439613	-0.324327	0.089627	-0.769196	-0.752686	-0.406982	0.316895	0.099977	0.013982	-0.020369	-0.360264	-0.656989	0.382766	-0.540431	159.105840	-80.369695	-42.747150
23517		9.917614	1.353361	-1.912253	-0.785286	-0.012574	0.347527	-0.388972	0.060745	-0.747512	-0.748047	-0.413574	0.317139	0.099220	0.013126	-0.019178	-0.363652	-0.657569	0.381246	-0.538528	156.493808	-80.237722	-40.320969
23518		10.450424	1.866431	-1.501288	-0.925908	-0.617662	0.850771	-0.458839	0.042345	-0.750112	-0.745605	-0.422363	0.317383	0.104570	0.018238	-0.015077	-0.367259	-0.658076	0.379887	-0.536417	153.900192	-80.076794	-37.951528
23519		10.319165	1.255875	-1.202588	-0.198905	-0.554463	0.635329	-0.465474	0.046198	-0.741928	-0.740723	-0.435547	0.315430	0.103234	0.012148	-0.012078	-0.370842	-0.658519	0.378604	-0.534311	151.434761	-79.902860	-35.716413
23520		10.116254	0.106384	-1.082846	0.921975	-0.095527	0.319577	-0.458410	0.030588	-0.728458	-0.736084	-0.439941	0.317871	0.101164	0.000671	-0.010846	-0.374350	-0.658994	0.377322	-0.532181	149.089288	-79.707932	-33.595928
23521		10.255990	0.344880	-1.355513	0.685202	0.068828	0.515279	-0.436196	0.029866	-0.735480	-0.733643	-0.448730	0.318115	0.102570	0.003042	-0.013577	-0.377775	-0.659499	0.375998	-0.530069	146.853226	-79.496800	-31.574234
23522		10.583826	0.381085	-1.711505	0.630104	0.382552	0.890015	-0.400612	0.050962	-0.758504	-0.729004	-0.455322	0.311523	0.105847	0.003375	-0.017149	-0.381181	-0.660068	0.374411	-0.528041	144.609488	-79.272374	-29.519091
23523		10.527571	2.011341	-2.044327	-0.899072	0.034264	1.061328	-0.455732	0.040698	-0.812899	-0.724121	-0.466064	0.313965	0.105352	0.019639	-0.020510	-0.384881	-0.660626	0.372848	-0.525761	142.335526	-79.011851	-27.467157
23524		10.343880	1.080911	-1.845787	0.069482	0.318591	0.744965	-0.530804	0.053930	-0.842606	-0.719482	-0.475098	0.307617	0.103478	0.010324	-0.018514	-0.388934	-0.661062	0.371306	-0.523316	140.011334	-78.729463	-25.403262
23525		10.527994	1.692941	-2.546658	-0.641812	0.731568	1.107115	-0.509966	0.065465	-0.894652	-0.712402	-0.483887	0.303467	0.105346	0.016393	-0.025543	-0.393054	-0.661571	0.369549	-0.520832	137.698233	-78.418527	-23.339093
23526		10.579296	1.110002	-2.449021	0.025207	0.939955	1.062336	-0.564793	0.057096	-0.912480	-0.703125	-0.496826	0.303955	0.105835	0.010548	-0.024551	-0.397394	-0.662019	0.367842	-0.518170	135.431358	-78.079165	-21.350253
23527		11.378974	1.585864	-2.171015	-0.037630	0.490394	1.869184	-0.639634	0.050647	-0.957808	-0.702881	-0.508057	0.297607	0.113858	0.015244	-0.021788	-0.402057	-0.662387	0.366221	-0.515242	133.192359	-77.704993	-19.432735
23528		11.309290	1.591906	-1.795879	0.197377	0.215422	1.744678	-0.692858	0.040699	-0.990670	-0.695557	-0.521240	0.293457	0.113166	0.015296	-0.018036	-0.406970	-0.662720	0.364598	-0.512100	130.992590	-77.295719	-17.582778
23529		11.391997	1.008208	-1.144905	1.098408	-0.087663	1.628002	-0.750553	0.039920	-1.020447	-0.695313	-0.530029	0.291504	0.113967	0.009458	-0.011508	-0.412112	-0.662957	0.363049	-0.508770	128.861813	-76.860429	-15.835443
23530		11.264948	0.447171	-1.086229	1.709940	0.149427	1.382460	-0.744652	0.064039	-1.065816	-0.686279	-0.538818	0.282959	0.112668	0.003831	-0.010913	-0.417405	-0.663203	0.361236	-0.505414	126.730147	-76.396792	-14.080585
23531		11.168623	0.091353	-1.134055	2.105945	0.398545	1.207167	-0.694457	0.094639	-1.135546	-0.674561	-0.551758	0.281006	0.111683	0.000240	-0.011395	-0.422717	-0.663570	0.359019	-0.502086	124.625897	-75.898456	-12.320707
23532		10.638627	1.075172	-1.012279	1.257619	0.002509	0.853981	-0.622509	0.127258	-1.253243	-0.665283	-0.565186	0.272461	0.106444	0.010053	-0.010223	-0.428153	-0.664188	0.356114	-0.498720	122.477567	-75.336833	-10.469181
23533		10.355568	0.901934	-0.983020	1.478666	0.127974	0.522344	-0.535322	0.174806	-1.386952	-0.656006	-0.575928	0.275146	0.103606	0.008274	-0.009944	-0.433667	-0.665077	0.352459	-0.495357	120.314508	-74.709373	-8.545158
23534		10.229369	-0.191164	-1.182875	2.487764	0.807368	0.148879	-0.375208	0.235999	-1.492309	-0.644287	-0.595703	0.266846	0.102261	-0.002697	-0.011945	-0.439021	-0.666306	0.347875	-0.492220	118.179528	-74.025908	-6.549929
23535		11.128701	1.243100	-2.053228	1.287728	1.141142	1.441009	-0.255922	0.267266	-1.600051	-0.635254	-0.602295	0.266846	0.111354	0.011514	-0.020696	-0.444240	-0.667867	0.342576	-0.489129	116.151710	-73.279017	-4.587082
23536		11.409491	1.448458	-2.556273	1.175435	1.627400	1.796595	-0.296281	0.248485	-1.707015	-0.614502	-0.619873	0.260742	0.114181	0.013472	-0.025725	-0.449822	-0.669514	0.337011	-0.485628	114.210512	-72.451061	-2.732489
23537		12.118428	2.520522	-1.598717	0.956779	0.443833	2.623077	-0.461557	0.228475	-1.815754	-0.605225	-0.633057	0.252197	0.121388	0.024067	-0.016182	-0.456119	-0.670971	0.331525	-0.481503	112.321053	-71.546018	-1.021427
23538		12.356478	2.679688	-0.543414	1.460297	-0.474375	2.749001	-0.584397	0.239469	-1.895725	-0.589111	-0.648193	0.248291	0.123805	0.025608	-0.005658	-0.463033	-0.672180	0.325992	-0.476973	110.455910	-70.581327	0.595961
23539		11.540332	1.744182	0.041903	2.414117	-0.564504	1.592226	-0.635129	0.270868	-1.964469	-0.572998	-0.663574	0.244385	0.115568	0.016308	0.000210	-0.470247	-0.673249	0.320261	-0.472267	108.658127	-69.571827	2.123559
23540		11.714890	1.266303	-0.330404	2.971984	0.076529	1.593786	-0.644539	0.269791	-2.066816	-0.554688	-0.674561	0.233643	0.117267	0.011441	-0.003500	-0.477717	-0.674373	0.314158	-0.467238	106.957455	-68.488411	3.548554
23541		13.053497	0.516185	-0.366867	4.329536	0.530196	2.506468	-0.718546	0.268827	-2.217270	-0.534180	-0.694336	0.229736	0.130576	0.003701	-0.003859	-0.485688	-0.675485	0.307699	-0.461680	105.320243	-67.310221	4.873714
23542		16.717621	-1.532327	-1.917796	7.288478	2.964053	5.139993	-0.689011	0.369118	-2.396510	-0.515869	-0.707520	0.214600	0.166940	-0.017391	-0.019429	-0.494063	-0.676619	0.300247	-0.456005	103.657626	-66.030955	6.258379
23543		17.074245	-2.805725	-4.336188	8.082552	5.874631	4.963853	-0.507766	0.415309	-2.622564	-0.493164	-0.718262	0.215088	0.170264	-0.030403	-0.043641	-0.502317	-0.678313	0.291482	-0.450120	102.139516	-64.618826	7.611347
23544		16.739480	-1.823667	-5.792579	7.017670	7.107518	4.928493	-0.748760	0.255862	-2.850551	-0.470215	-0.740234	0.206787	0.167036	-0.020836	-0.058065	-0.511575	-0.679960	0.282805	-0.442682	100.762735	-63.045144	8.670901
23545		18.691307	-1.558664	-6.200157	7.994022	7.737158	6.510131	-1.159389	0.132930	-3.015817	-0.445313	-0.755615	0.196289	0.186605	-0.018762	-0.062023	-0.522291	-0.680896	0.274745	-0.433714	99.389917	-61.356830	9.474409
23546		18.620704	-2.667349	-5.812875	9.505047	7.878745	5.522780	-1.621638	0.054442	-3.077535	-0.420410	-0.766602	0.183350	0.185747	-0.030004	-0.057945	-0.534464	-0.680690	0.267593	-0.423561	97.942705	-59.617124	10.072769
23547		18.086709	-2.325169	-5.831885	9.476026	7.895022	4.829079	-2.042218	-0.022314	-3.071366	-0.395264	-0.781982	0.166016	0.180482	-0.026619	-0.058038	-0.547777	-0.679294	0.261484	-0.412464	96.437130	-57.869422	10.467816
23548		18.255075	-1.840405	-5.726946	9.732968	7.804077	4.807810	-2.414745	-0.051949	-2.993798	-0.367920	-0.797363	0.144531	0.182256	-0.021823	-0.056972	-0.561962	-0.676598	0.256395	-0.400843	94.846086	-56.159220	10.717800
23549		17.566776	-1.489128	-5.516708	9.651152	7.549499	4.010038	-2.742170	-0.046254	-2.853630	-0.343018	-0.810547	0.125000	0.175437	-0.018150	-0.054893	-0.576768	-0.672532	0.252322	-0.389067	93.154189	-54.526341	10.867329
23550		16.927260	0.004794	-5.691996	8.563658	7.440166	3.978885	-2.645574	-0.055690	-2.725747	-0.333740	-0.817383	0.100830	0.169261	-0.003011	-0.056846	-0.590768	-0.668351	0.248437	-0.377597	91.600899	-52.965325	10.916178
23551		15.116311	0.465617	-5.304563	7.652623	6.854893	2.487175	-1.647830	-0.225477	-2.593284	-0.309082	-0.823975	0.096680	0.151262	0.002259	-0.052900	-0.600801	-0.667071	0.243525	-0.367083	90.789073	-51.477200	10.751718
23552		14.276909	4.082165	-2.598324	5.284513	3.598834	3.838434	-1.422078	-0.311895	-2.574549	-0.284180	-0.834961	0.077148	0.143318	0.038794	-0.026041	-0.609798	-0.666457	0.238487	-0.356519	90.185580	-50.002052	10.481159
23553		13.525468	6.354910	-2.327093	3.534104	3.030504	4.576505	-1.411697	-0.206458	-2.674779	-0.268311	-0.841553	0.068604	0.136111	0.061567	-0.023570	-0.618934	-0.665654	0.232700	-0.345943	89.523780	-48.469965	10.290098
23554		12.673826	6.094448	-3.044881	3.428734	3.808955	3.632031	-1.358860	0.022292	-2.653930	-0.250244	-0.850342	0.057617	0.127527	0.059047	-0.030868	-0.627976	-0.664448	0.226158	-0.336165	88.764109	-46.951177	10.267049
23555		8.560835	0.926497	-6.051411	4.196222	6.927903	-3.092850	-1.140659	-0.069127	-2.190996	-0.229980	-0.856934	0.046875	0.085721	0.007981	-0.060532	-0.635303	-0.663430	0.221004	-0.327731	88.191986	-45.697525	10.157708
23556		6.482314	-7.578966	-1.840962	9.562454	3.290226	-10.575386	-1.060748	-0.191660	-1.334298	-0.229980	-0.856934	0.038086	0.064333	-0.076316	-0.017944	-0.640744	-0.661850	0.218958	-0.321651	87.731069	-44.939622	9.953910
23557		6.771958	-8.682867	-0.082625	10.808172	1.565022	-11.223443	-1.478860	0.000045	-0.954728	-0.223145	-0.859375	0.022705	0.067304	-0.087154	-0.000183	-0.647130	-0.658152	0.218177	-0.316951	86.913878	-44.393450	9.914403
23558		7.288143	-5.872243	1.639945	9.448264	-0.361775	-8.870059	-0.973375	0.033346	-0.784986	-0.218506	-0.865967	0.016113	0.072653	-0.058927	0.016674	-0.651583	-0.655806	0.217083	-0.313420	86.369863	-43.946078	9.893777
23559		6.104659	-5.060373	3.725017	8.313018	-2.658197	-9.052657	-0.466502	0.099948	-0.458996	-0.216309	-0.863770	0.011719	0.060949	-0.050657	0.037338	-0.653919	-0.654645	0.215991	-0.311735	86.069218	-43.680186	9.945379
23560		5.048816	-2.442419	2.299422	5.574095	-1.519317	-7.978452	-0.048579	0.147589	-0.227618	-0.225098	-0.865967	0.013916	0.050477	-0.024476	0.022963	-0.654572	-0.654513	0.214898	-0.311395	85.975944	-43.547539	10.039633
23561		4.551016	-1.056564	0.728580	4.067984	-0.088960	-7.403852	0.365845	0.098400	0.058026	-0.227295	-0.865967	0.022705	0.045517	-0.010566	0.007244	-0.653370	-0.655514	0.214204	-0.312290	86.134697	-43.577132	10.116870
23562		4.057409	-1.916596	-0.973713	4.081364	1.591260	-8.436349	0.721492	-0.004097	0.461516	-0.236328	-0.863770	0.020508	0.040618	-0.019037	-0.009805	-0.650252	-0.657391	0.214658	-0.314534	86.540714	-43.844798	10.127965
23563		3.570763	-2.431892	-1.724212	3.974392	2.321503	-9.140444	1.019922	-0.091737	0.850589	-0.243164	-0.861572	0.038086	0.035818	-0.024078	-0.017349	-0.645430	-0.659944	0.216152	-0.318076	87.154825	-44.334568	10.088632
23564		4.183407	-2.229305	-1.870557	4.218195	2.546543	-8.512266	1.175317	-0.174954	1.183121	-0.260986	-0.859131	0.051270	0.041981	-0.021935	-0.018798	-0.639434	-0.662726	0.218803	-0.322556	87.905170	-45.019967	9.979428
23565		4.877552	-1.297232	-1.768312	4.021070	2.456926	-7.284049	1.192893	-0.246659	1.452425	-0.272461	-0.850342	0.064209	0.048889	-0.012512	-0.017698	-0.632822	-0.665339	0.222479	-0.327664	88.712142	-45.856153	9.809444
23566		5.187872	-0.334588	-1.752141	3.494209	2.368159	-6.308788	1.159930	-0.327382	1.669902	-0.295166	-0.841797	0.066162	0.051932	-0.002811	-0.017454	-0.625800	-0.667669	0.227217	-0.333114	89.566085	-46.819749	9.548698
23567		5.264508	0.468135	-1.848760	2.876901	2.349432	-5.622883	1.124856	-0.387749	1.881407	-0.310791	-0.837402	0.079346	0.052633	0.005280	-0.018357	-0.618413	-0.669675	0.232831	-0.338954	90.457265	-47.897795	9.216610
23568		5.540408	1.061505	-1.958887	2.513098	2.365388	-4.939520	1.065407	-0.404040	2.094554	-0.333496	-0.830811	0.090088	0.055327	0.011299	-0.019418	-0.610755	-0.671180	0.239335	-0.345275	91.358862	-49.098226	8.827834
23569		5.812557	1.230311	-1.877013	2.462970	2.232916	-4.543117	1.023229	-0.359283	2.349052	-0.353760	-0.819824	0.096436	0.058008	0.013080	-0.018600	-0.602765	-0.672078	0.246535	-0.352429	92.243791	-50.437044	8.439788
23570		5.952765	1.128747	-1.729959	2.521271	2.057863	-4.417498	0.992103	-0.311370	2.590090	-0.376709	-0.804443	0.104736	0.059401	0.012143	-0.017148	-0.594397	-0.672368	0.254470	-0.360358	93.128936	-51.915274	8.032900
23571		6.051858	1.518029	-1.649068	2.146495	1.859846	-4.017923	0.964478	-0.314179	2.790685	-0.401611	-0.791260	0.117676	0.060324	0.016102	-0.016320	-0.585641	-0.672196	0.263026	-0.368774	94.054787	-53.499771	7.566801
23572		5.874642	1.703105	-1.808067	1.702058	1.897503	-3.966298	0.923274	-0.376902	2.959052	-0.428711	-0.780518	0.126221	0.058519	0.017981	-0.017889	-0.576487	-0.671629	0.272407	-0.377322	95.081779	-55.176845	6.953206
23573		5.850596	1.603067	-2.212298	1.517283	2.231983	-3.947027	0.906642	-0.455550	3.114521	-0.460449	-0.762939	0.136719	0.058296	0.017039	-0.021914	-0.566849	-0.670790	0.282437	-0.385945	96.255191	-56.926730	6.167887
23574		5.978381	1.394410	-2.527243	1.511192	2.502011	-3.852458	0.931055	-0.537324	3.282514	-0.480957	-0.745605	0.138428	0.059610	0.015040	-0.025044	-0.556518	-0.669737	0.293197	-0.394685	97.648418	-58.760614	5.151754
23575		6.304255	1.338649	-2.763076	1.478909	2.661000	-3.496296	0.986672	-0.630201	3.455222	-0.508545	-0.725830	0.153320	0.062884	0.014609	-0.027362	-0.545358	-0.668570	0.304529	-0.403560	99.332606	-60.665149	3.859034
23576		6.877448	1.351756	-3.017604	1.469704	2.807987	-2.871465	1.070728	-0.730235	3.643672	-0.540283	-0.703857	0.165771	0.068620	0.014929	-0.029848	-0.533186	-0.667291	0.316551	-0.412589	101.418820	-62.647447	2.184087
23577		7.375259	1.324956	-3.318980	1.400590	2.977315	-2.307323	1.153556	-0.817761	3.814942	-0.561279	-0.673096	0.176025	0.073614	0.014845	-0.032806	-0.520042	-0.665897	0.329018	-0.421763	103.981652	-64.676630	0.065009
23578		7.806953	1.338531	-3.546513	1.235765	3.034772	-1.777145	1.188122	-0.874234	3.986075	-0.588867	-0.646729	0.190674	0.077933	0.015149	-0.035038	-0.506095	-0.664123	0.342051	-0.431056	107.104801	-66.746811	-2.615787
23579		8.194016	1.326862	-3.540674	1.083217	2.847196	-1.318806	1.186984	-0.913381	4.157067	-0.621094	-0.620605	0.196533	0.081798	0.015178	-0.034947	-0.491487	-0.661843	0.355527	-0.440459	110.905500	-68.828500	-5.983180
23580		8.670311	1.452950	-3.520734	0.796835	2.579967	-0.736649	1.137782	-0.951323	4.329691	-0.644287	-0.587646	0.211182	0.086525	0.016602	-0.034705	-0.476340	-0.658860	0.369663	-0.449837	115.616371	-70.896553	-10.308009
23581		9.164665	1.409283	-3.407317	0.642496	2.239832	-0.213751	1.036817	-0.978815	4.509777	-0.663330	-0.554688	0.228027	0.091460	0.016332	-0.033544	-0.460817	-0.655031	0.384416	-0.459136	121.508891	-72.899010	-15.878513
23582		9.711908	1.334652	-3.195487	0.503980	1.782202	0.329439	0.924031	-1.009373	4.681150	-0.691162	-0.517578	0.227051	0.096928	0.015763	-0.031396	-0.444938	-0.650278	0.399907	-0.468234	129.041021	-74.759736	-23.170680
23583		10.321652	1.236027	-2.977607	0.347831	1.289494	0.916823	0.823574	-1.051449	4.853070	-0.714844	-0.475830	0.241455	0.103029	0.014983	-0.029176	-0.428634	-0.644682	0.415970	-0.477103	138.701684	-76.350386	-32.654630
23584		11.074994	1.030219	-2.986290	0.194484	0.986720	1.658755	0.756294	-1.100132	5.022334	-0.738037	-0.445068	0.251465	0.110605	0.013192	-0.029208	-0.411763	-0.638247	0.432639	-0.485713	150.876551	-77.500434	-44.709708
23585		12.141192	0.745407	-2.981731	0.080300	0.597762	2.695481	0.682740	-1.141953	5.180706	-0.757324	-0.396729	0.259033	0.121330	0.010698	-0.029092	-0.394363	-0.631010	0.449707	-0.494032	165.121194	-78.007267	-58.879847
23586		13.464666	1.367360	-3.247591	-1.065615	0.090490	4.062560	0.767799	-1.236626	5.262147	-0.770020	-0.352783	0.269043	0.134420	0.017335	-0.031582	-0.375998	-0.623488	0.466747	-0.502031	179.941533	-77.691113	-73.590418
23587		14.928825	3.259584	-3.419783	-3.534703	-0.972705	5.408594	0.843969	-1.340418	5.310877	-0.784912	-0.304443	0.285400	0.148574	0.036689	-0.033051	-0.356741	-0.615826	0.483522	-0.509608	-166.701863	-76.567545	-86.789159
23588		15.645469	6.063715	-3.625629	-7.013878	-2.143371	5.706071	0.792909	-1.387969	5.332186	-0.797119	-0.264893	0.293213	0.155007	0.064923	-0.034925	-0.337199	-0.607625	0.500266	-0.516549	-155.868677	-74.821357	-97.500651
23589		16.986743	7.473201	-2.795451	-8.936720	-4.045845	6.183879	0.538291	-1.259927	5.387294	-0.803223	-0.212158	0.300781	0.167942	0.079346	-0.026683	-0.318346	-0.598095	0.517170	-0.522947	-147.401996	-72.711741	-105.992489
23590		18.441909	7.373272	-2.065018	-9.545570	-5.487891	6.842762	0.424237	-1.196280	5.216890	-0.806885	-0.172607	0.310791	0.182530	0.078553	-0.019391	-0.300208	-0.588173	0.533427	-0.528568	-141.077358	-70.399739	-112.404510
23591		20.126403	8.907468	-1.207321	-11.739469	-7.542895	7.247925	0.279531	-1.197551	4.784890	-0.810303	-0.135254	0.318604	0.199123	0.093872	-0.010748	-0.283431	-0.578834	0.548390	-0.532810	-136.660854	-68.075814	-116.952660
23592		20.585763	11.372934	-0.206892	-14.531172	-9.496556	6.053414	0.168010	-1.067677	4.236768	-0.813477	-0.100098	0.320068	0.203394	0.118057	-0.000881	-0.268641	-0.570147	0.561622	-0.536046	-133.529328	-65.923147	-120.251400
23593		19.097774	15.855621	-0.278088	-18.962795	-10.106674	2.613027	0.210742	-0.868983	3.667005	-0.810059	-0.069092	0.332520	0.188037	0.162024	-0.001790	-0.255699	-0.562378	0.572573	-0.538990	-131.165923	-64.032692	-122.723312
23594		15.534074	18.297396	-1.212929	-21.016271	-8.531396	-1.871647	0.042751	-0.702017	3.043948	-0.812988	-0.049561	0.325439	0.152573	0.185313	-0.011551	-0.245317	-0.555536	0.581864	-0.540956	-129.511072	-62.439568	-124.549833
23595		12.213203	19.759257	0.342842	-21.157114	-8.960870	-6.382351	0.101030	-0.737259	2.059339	-0.806641	-0.038330	0.331787	0.120075	0.198834	0.003974	-0.237281	-0.551646	0.588175	-0.541696	-128.676610	-61.255689	-125.427871
23596		12.831398	21.772117	4.015978	-22.021815	-12.916147	-8.079369	0.175313	-0.668453	0.897005	-0.811035	-0.036133	0.340576	0.127200	0.218258	0.040777	-0.232392	-0.551020	0.590962	-0.541419	-128.538604	-60.614171	-125.470935
23597		14.242466	21.173213	5.833246	-21.264476	-15.056926	-7.304770	0.191007	-0.338129	-0.232822	-0.804688	-0.029541	0.338135	0.142572	0.211510	0.058775	-0.231471	-0.552860	0.590190	-0.540780	-128.846668	-60.595466	-124.989022
23598		16.489387	18.084787	5.841760	-18.981460	-15.472335	-4.034550	0.593332	0.006478	-1.227813	-0.808594	-0.042725	0.340820	0.166001	0.179657	0.058946	-0.233175	-0.557149	0.585154	-0.541119	-129.297682	-61.146226	-124.082514
23599		12.481821	16.824795	0.533532	-18.305265	-9.080574	-5.165613	1.399188	0.052569	-2.005200	-0.801758	-0.053711	0.343262	0.126498	0.166943	0.006473	-0.234813	-0.564479	0.575672	-0.542981	-129.807200	-62.049575	-122.589241
23600		12.967523	2.736890	-11.261735	-9.570683	4.256269	4.071077	1.899408	-0.046818	-2.256598	-0.797119	-0.060059	0.350098	0.130007	0.026971	-0.112330	-0.235460	-0.573274	0.564102	-0.545623	-130.358934	-63.028205	-120.740240
23601		14.852699	-34.031300	-8.177446	24.433846	10.148578	17.492781	0.173952	0.069972	-0.793081	-0.794678	-0.066650	0.345703	0.147147	-0.340827	-0.082122	-0.237296	-0.575536	0.561262	-0.545375	-130.785713	-63.397668	-120.147862
23602		14.945550	-13.600447	7.852866	11.898327	-9.194840	5.804214	-0.631702	0.309632	-1.597976	-0.798584	-0.084229	0.352783	0.148486	-0.136945	0.078730	-0.244346	-0.578420	0.557974	-0.542579	-132.111420	-64.204494	-119.072584
23603		24.288301	18.905377	7.047371	-19.571434	-20.403127	4.244516	0.661568	0.308747	-2.738833	-0.797852	-0.104004	0.353271	0.245548	0.185470	0.070713	-0.250674	-0.585990	0.547820	-0.541915	-133.733257	-65.472450	-116.859479
23604		22.888475	8.051174	1.983001	-10.737236	-12.336183	8.218885	-0.622948	0.462307	-2.366510	-0.803955	-0.123779	0.344971	0.229861	0.077856	0.019054	-0.260177	-0.590411	0.541911	-0.538568	-135.818773	-66.626515	-114.965337
23605		15.759022	0.774673	1.960490	-2.506802	-7.537123	3.959954	-2.228980	0.556520	-2.632937	-0.800781	-0.152588	0.336914	0.157729	0.005886	0.019094	-0.275290	-0.593074	0.539330	-0.530662	-139.238131	-67.878560	-112.640113
23606		12.557192	5.344246	-2.057765	-7.315713	-3.871074	1.230701	-1.024574	0.256848	-3.134057	-0.795410	-0.180908	0.342041	0.126361	0.051360	-0.021006	-0.287342	-0.599358	0.532273	-0.524299	-143.145254	-69.127441	-109.070058
23607		11.027822	6.763204	-5.676725	-9.324069	-0.431089	0.791198	0.602945	-0.266104	-3.099968	-0.794922	-0.202881	0.349121	0.111386	0.066082	-0.056419	-0.292892	-0.609113	0.521714	-0.520585	-146.945603	-70.018532	-104.643902
23608		10.659828	5.170862	-3.295703	-6.735630	-2.013994	0.276815	0.495518	0.103564	-2.823549	-0.782959	-0.224609	0.347656	0.107298	0.050279	-0.032887	-0.299022	-0.616879	0.511564	-0.518024	-150.479237	-70.918337	-100.592122
23609		8.411757	0.293491	-4.950635	-2.358613	1.703739	-0.491509	1.081804	0.467830	-2.613142	-0.782471	-0.244385	0.352539	0.084033	0.002105	-0.049690	-0.303594	-0.623922	0.499947	-0.518271	-153.410051	-71.857211	-96.843262
23610		10.983357	0.470855	-3.330078	-1.917550	-0.441762	1.503977	1.040872	1.518385	-2.280855	-0.784424	-0.253418	0.334961	0.109622	0.003634	-0.034113	-0.310074	-0.627207	0.487720	-0.522106	-155.376390	-73.215043	-94.156392
23611		7.058125	3.587138	-4.517379	-5.049024	0.926357	-2.280297	-0.228723	1.921095	-2.040351	-0.790283	-0.275391	0.326660	0.070503	0.035100	-0.045892	-0.320747	-0.626769	0.478889	-0.524354	-157.713649	-74.687982	-91.858474
23612		9.151674	2.395652	-6.180677	-4.425221	2.508061	0.277541	-0.718107	2.017738	-1.727756	-0.785156	-0.295410	0.309570	0.091088	0.022944	-0.062811	-0.332396	-0.624399	0.472019	-0.526152	-160.092187	-76.132559	-89.826949
23613		6.367415	1.358718	-5.592460	-3.152760	3.188294	-2.494321	-0.339198	1.381378	-1.521500	-0.793701	-0.308838	0.303223	0.063386	0.013009	-0.056385	-0.340676	-0.623777	0.465838	-0.527103	-162.704237	-77.158514	-87.339749
23614		8.958759	0.598740	-1.686068	-1.000036	-0.587850	-0.751044	0.331917	0.851142	-1.396250	-0.789063	-0.315186	0.303467	0.089554	0.005391	-0.017233	-0.345353	-0.625328	0.459092	-0.528139	-165.405972	-77.854875	-84.378956
23615		11.056306	1.081195	-0.381208	-0.854295	-2.281775	1.032475	0.652995	0.571033	-1.439777	-0.788574	-0.332764	0.306152	0.110626	0.010029	-0.004094	-0.348388	-0.628249	0.451861	-0.528915	-168.497061	-78.357549	-80.835358
23616		10.755108	3.047460	0.273826	-2.343314	-3.417334	0.573013	0.615146	0.481910	-1.430533	-0.783691	-0.339355	0.306152	0.107772	0.029696	0.002571	-0.351347	-0.631275	0.444835	-0.529309	-171.934790	-78.772782	-76.966937
23617		10.140220	1.286782	-0.619805	-0.922430	-1.776219	0.230052	0.397433	0.441503	-1.310667	-0.781006	-0.354736	0.300049	0.101470	0.012216	-0.006397	-0.354511	-0.633723	0.438857	-0.529265	-175.381175	-79.104748	-73.220944
23618		8.953145	-0.730671	-2.020579	0.481274	0.529542	-0.633229	0.290068	0.397163	-1.155208	-0.776367	-0.361328	0.302490	0.089447	-0.007794	-0.020395	-0.357545	-0.635726	0.433665	-0.529102	-178.663089	-79.369420	-69.709543
23619		8.595810	-0.094905	-2.851706	-0.361256	1.181472	-0.840390	0.282069	0.305483	-1.091252	-0.775879	-0.376709	0.307129	0.085908	-0.001378	-0.028650	-0.360168	-0.637796	0.428894	-0.528720	178.138317	-79.539080	-66.289232
23620		9.601336	1.473303	-2.051915	-1.375486	-0.242552	0.016607	0.308003	0.304392	-1.055182	-0.775879	-0.383301	0.307373	0.096058	0.014258	-0.020643	-0.362644	-0.639822	0.424111	-0.528439	174.934369	-79.677746	-62.850264
23621		11.072119	3.213973	-1.582530	-2.609541	-1.500669	1.428443	0.277439	0.381000	-1.007821	-0.766602	-0.389648	0.312012	0.110851	0.031603	-0.015992	-0.365198	-0.641464	0.419454	-0.528405	171.785598	-79.825325	-59.486531
23622		10.135704	1.583993	-1.663266	-1.136893	-0.595656	0.500404	0.126677	0.389888	-0.908227	-0.766357	-0.398438	0.303467	0.101395	0.015390	-0.016820	-0.368006	-0.642598	0.415439	-0.528251	168.742375	-79.956237	-56.317337
23623		9.964808	1.783140	-0.947887	-0.998992	-1.236170	0.229654	-0.021034	0.303981	-0.896712	-0.763672	-0.411621	0.312500	0.099712	0.017383	-0.009632	-0.371046	-0.643631	0.412048	-0.527523	165.681375	-80.009894	-53.218814
23624		10.482763	1.601222	-0.040857	-0.365495	-2.002896	0.594422	-0.234834	0.292929	-0.865699	-0.763428	-0.418213	0.306152	0.104895	0.015558	-0.000581	-0.374683	-0.644236	0.409283	-0.526365	162.548563	-80.033585	-50.170012
23625		10.129320	1.371921	-0.392109	-0.252536	-1.485981	0.304942	-0.278838	0.249936	-0.839296	-0.758789	-0.427002	0.306396	0.101345	0.013288	-0.004066	-0.378275	-0.644785	0.406839	-0.525016	159.546761	-80.010438	-47.281942
23626		9.660241	1.368116	-1.393834	-0.603358	-0.452306	0.014087	-0.314490	0.206006	-0.829090	-0.751709	-0.437988	0.304443	0.096644	0.013259	-0.014059	-0.381870	-0.645371	0.404546	-0.523464	156.603631	-79.939721	-44.470637
23627		9.817348	1.058418	-1.673781	-0.331234	-0.045838	0.196793	-0.381876	0.171884	-0.775032	-0.749512	-0.442383	0.302246	0.098199	0.010172	-0.016842	-0.385452	-0.645772	0.402711	-0.521755	153.900690	-79.840951	-41.944929
23628		9.438907	0.678402	-1.980622	-0.075060	0.470561	-0.156160	-0.422878	0.141452	-0.700539	-0.749023	-0.453369	0.298096	0.094398	0.006411	-0.019887	-0.388910	-0.646038	0.401224	-0.520003	151.458101	-79.725228	-39.702891
23629		9.922769	1.939492	-1.829772	-1.055785	-0.153741	0.406522	-0.434647	0.116771	-0.654231	-0.739746	-0.464355	0.300781	0.099280	0.019030	-0.018397	-0.392223	-0.646216	0.400010	-0.518226	149.251878	-79.595769	-37.710999
23630		9.457555	1.850372	-1.040661	-0.700175	-0.755330	-0.174687	-0.433091	0.091481	-0.626320	-0.739746	-0.466553	0.287598	0.094628	0.018185	-0.010489	-0.395410	-0.646420	0.398875	-0.516421	147.191521	-79.447755	-35.862092
23631		10.135942	2.453086	-0.867371	-1.038240	-1.171719	0.534099	-0.389867	0.087613	-0.647070	-0.737061	-0.481934	0.287842	0.101434	0.024186	-0.008766	-0.398490	-0.646728	0.397614	-0.514638	145.189487	-79.281077	-34.049946
23632		10.134910	0.964360	-0.900974	0.386340	-0.556146	0.385311	-0.360327	0.099681	-0.640788	-0.729980	-0.488525	0.279297	0.101375	0.009303	-0.009077	-0.401511	-0.647047	0.396223	-0.512958	143.225330	-79.110161	-32.257869
23633		10.074431	0.999961	-1.592957	0.166185	0.114932	0.433790	-0.366063	0.095346	-0.666919	-0.725342	-0.495117	0.288330	0.100769	0.009634	-0.015995	-0.404569	-0.647403	0.394809	-0.511193	141.297696	-78.917501	-30.505500
23634		10.630997	1.581578	-1.733816	-0.259300	0.021793	1.071122	-0.385430	0.079589	-0.698823	-0.716309	-0.503906	0.286377	0.106357	0.015411	-0.017410	-0.407772	-0.647815	0.393327	-0.509266	139.351573	-78.694385	-28.744763
23635		11.106263	1.573754	-1.839746	-0.131492	0.122405	1.552940	-0.401030	0.107749	-0.734654	-0.711670	-0.508301	0.281982	0.111109	0.015292	-0.018488	-0.411127	-0.648182	0.391745	-0.507318	137.373146	-78.458982	-26.958365
23636		11.171654	1.433744	-1.696749	0.138370	0.083082	1.576500	-0.484052	0.123145	-0.771118	-0.711182	-0.523682	0.273438	0.111760	0.013865	-0.017070	-0.414885	-0.648409	0.390172	-0.505174	135.300749	-78.201570	-25.121228
23637		11.443122	0.893372	-1.028592	0.993050	-0.322338	1.663823	-0.534120	0.131549	-0.796014	-0.699951	-0.528076	0.269287	0.114459	0.008451	-0.010384	-0.418856	-0.648534	0.388663	-0.502896	133.244775	-77.925877	-23.330204
23638		11.303227	0.155174	-0.952880	1.760177	-0.075581	1.394018	-0.573366	0.112820	-0.822609	-0.694824	-0.543457	0.267334	0.113032	0.001059	-0.009596	-0.423022	-0.648651	0.387163	-0.500409	131.214560	-77.617648	-21.588806
23639		11.452531	1.644880	-0.580050	0.619092	-0.896852	1.720483	-0.607605	0.100043	-0.851091	-0.683350	-0.558594	0.265625	0.114591	0.015943	-0.005907	-0.427288	-0.648774	0.385706	-0.497744	129.266401	-77.280840	-19.947199
23640		11.512677	2.445684	-0.037472	0.152289	-1.625896	1.843077	-0.717798	0.058898	-0.873522	-0.680664	-0.572021	0.254883	0.115232	0.023952	-0.000495	-0.431921	-0.648777	0.384498	-0.494666	127.369089	-76.906293	-18.422843
23641		11.314211	2.620190	0.496041	0.202247	-2.118235	1.615091	-0.871263	0.009551	-0.892999	-0.669434	-0.572021	0.254883	0.113258	0.025718	0.004842	-0.436943	-0.648595	0.383729	-0.491077	125.575931	-76.496649	-17.090812
23642		11.428381	2.469385	0.803163	0.548577	-2.315522	1.662825	-1.005773	-0.032550	-0.912543	-0.653320	-0.589600	0.235596	0.114394	0.024212	0.007928	-0.442411	-0.648212	0.383279	-0.487023	123.825132	-76.053622	-15.884139
23643		11.688678	1.704720	-0.324096	1.082586	-0.971378	1.914189	-1.102612	0.065793	-0.917512	-0.650635	-0.600586	0.235840	0.116962	0.016492	-0.003371	-0.448311	-0.647374	0.382836	-0.483075	121.947511	-75.631320	-14.596819
23644		10.898758	0.170535	-1.082856	2.201895	0.323081	0.912555	-0.983670	0.174316	-0.907007	-0.639160	-0.615967	0.227539	0.108984	0.001157	-0.010930	-0.454071	-0.646446	0.381871	-0.479689	120.002211	-75.234970	-13.176002
23645		11.002075	1.613241	-2.584264	0.581033	1.388938	1.503593	-0.901948	0.293743	-1.000079	-0.629883	-0.624756	0.214355	0.110061	0.015465	-0.026075	-0.459913	-0.645608	0.380127	-0.476628	117.908796	-74.813896	-11.541508
23646		10.524917	1.427744	-3.042387	0.623595	1.988666	1.037339	-0.828478	0.334701	-1.044843	-0.609619	-0.633545	0.208008	0.105270	0.013601	-0.030657	-0.465692	-0.644906	0.377909	-0.473722	115.830039	-74.363312	-9.872735
23647		10.315601	0.882310	-3.196921	1.149694	2.381838	0.695104	-0.822069	0.374551	-1.084349	-0.604492	-0.653320	0.201904	0.103141	0.008132	-0.032197	-0.471585	-0.644158	0.375479	-0.470834	113.768301	-73.888317	-8.216508
23648		10.132292	1.003196	-3.381859	1.056409	2.617238	0.538109	-0.766199	0.406460	-1.108607	-0.590820	-0.657715	0.188721	0.101307	0.009340	-0.034061	-0.477402	-0.643489	0.372708	-0.468079	111.760694	-73.389546	-6.577102
23649		10.210477	1.403614	-2.970394	0.926064	2.197765	0.644728	-0.763322	0.421539	-1.161476	-0.579590	-0.662109	0.191162	0.102121	0.013329	-0.029971	-0.483327	-0.642848	0.369743	-0.465222	109.811230	-72.852249	-4.994473
23650		10.680911	1.675349	-2.507318	1.049476	1.761595	1.094576	-0.785480	0.448184	-1.256642	-0.568115	-0.675293	0.176025	0.106855	0.015983	-0.025376	-0.489577	-0.642240	0.366404	-0.462158	107.850392	-72.250593	-3.406492
23651		10.489323	1.666149	-1.744826	1.311516	1.126501	0.810633	-0.794078	0.445567	-1.357728	-0.552246	-0.681885	0.174072	0.104963	0.015879	-0.017746	-0.496043	-0.641753	0.362778	-0.458789	105.964605	-71.579860	-1.898873
23652		10.639706	1.837341	-0.264959	1.678008	-0.254048	0.853457	-0.877926	0.438681	-1.467723	-0.531738	-0.697266	0.161377	0.106522	0.017579	-0.002961	-0.502991	-0.641234	0.358951	-0.454944	104.110273	-70.830014	-0.467302
23653		11.240168	1.218639	0.625654	2.782977	-0.866702	1.128922	-1.082765	0.610248	-1.553247	-0.526855	-0.706055	0.154785	0.112510	0.011345	0.005850	-0.511044	-0.639899	0.354884	-0.451022	101.975695	-70.041408	1.142120
23654		10.436756	-1.249285	0.495465	4.879663	-0.080166	-0.490038	-0.836344	0.690645	-1.665073	-0.504150	-0.719238	0.135498	0.104275	-0.013341	0.004649	-0.518662	-0.639154	0.349632	-0.447470	99.966216	-69.177455	2.778823
23655		11.126890	0.475323	0.873710	3.784382	-0.700457	0.674489	-0.429099	0.759559	-1.816453	-0.495117	-0.723633	0.142090	0.111338	0.003760	0.008306	-0.525377	-0.639505	0.342803	-0.444407	98.205632	-68.218112	4.407091
23656		11.308804	0.408635	0.457692	3.998936	-0.140693	0.782102	-0.380545	0.843675	-1.918036	-0.472168	-0.741211	0.129395	0.113138	0.003010	0.004093	-0.532259	-0.639907	0.335253	-0.441389	96.479406	-67.187623	6.041236
23657		11.375515	-0.037190	-0.788644	4.347337	1.314978	0.646370	-0.333328	0.875334	-2.013250	-0.454346	-0.745361	0.131836	0.113708	-0.001530	-0.008382	-0.539182	-0.640444	0.327201	-0.438239	94.877033	-66.089175	7.581148
23658		12.561482	-0.732985	-1.606287	5.467093	2.476223	1.362292	-0.209210	0.948971	-2.121289	-0.433838	-0.754150	0.125488	0.125449	-0.008678	-0.016650	-0.546001	-0.641251	0.318262	-0.435188	93.378788	-64.914100	9.099854
23659		15.262300	-1.409292	-3.983633	6.910204	5.310849	3.409459	0.153133	1.056114	-2.239087	-0.417969	-0.767090	0.127930	0.152239	-0.015768	-0.040653	-0.552000	-0.642906	0.307847	-0.432665	92.091811	-63.661435	10.628170
23660		16.138985	-0.610436	-5.338883	6.542599	6.768588	4.354525	0.256802	0.993358	-2.364254	-0.395508	-0.775879	0.130615	0.161035	-0.007940	-0.054199	-0.557757	-0.645073	0.296908	-0.429691	91.054323	-62.321557	11.961437
23661		18.170214	0.338334	-5.446784	6.920245	7.114242	6.355684	-0.143064	0.898125	-2.498048	-0.372803	-0.786621	0.124268	0.181478	0.001076	-0.055284	-0.564848	-0.646417	0.286632	-0.425363	90.002986	-60.895132	13.065935
23662		19.312673	-1.992530	-4.776539	9.951370	7.288734	5.922107	-0.699818	0.839299	-2.556839	-0.359131	-0.793213	0.113525	0.192647	-0.022559	-0.048499	-0.573678	-0.646279	0.277453	-0.419805	88.796163	-59.424553	13.998087
23663		19.236435	-3.488149	-4.413183	11.628150	7.414846	4.729033	-1.291342	0.756798	-2.620933	-0.338379	-0.810791	0.098389	0.191715	-0.037684	-0.044621	-0.584317	-0.644570	0.269497	-0.412886	87.432103	-57.909606	14.731485
23664		18.969385	-4.567889	-3.918830	12.882640	7.232816	3.519751	-1.625794	0.642030	-2.741335	-0.313965	-0.812988	0.087402	0.188915	-0.048592	-0.039408	-0.595983	-0.642124	0.262115	-0.404693	86.076467	-56.321042	15.239162
23665		18.702656	-3.692065	-3.524913	12.507738	6.791859	3.349394	-1.358142	0.521537	-2.997956	-0.286621	-0.828369	0.081299	0.186350	-0.039958	-0.035471	-0.606991	-0.640883	0.253653	-0.395589	85.064283	-54.585725	15.526056
23666		18.340898	-1.553778	-3.901106	10.923938	6.944655	3.841277	-0.499451	0.485436	-3.114112	-0.273193	-0.830322	0.081543	0.183041	-0.018488	-0.039412	-0.615266	-0.642296	0.243177	-0.387000	84.626140	-52.785219	15.716982
23667		17.405071	0.218690	-4.950663	9.183020	7.727821	3.730652	0.116336	0.313044	-3.118394	-0.252686	-0.843506	0.083984	0.173979	-0.000497	-0.049779	-0.621212	-0.645782	0.231951	-0.378498	84.682961	-50.989938	15.732494
23668		15.081831	0.900643	-4.213387	7.768534	6.611932	2.101281	0.581814	0.019853	-2.969880	-0.230469	-0.843262	0.090820	0.150927	0.006888	-0.042127	-0.624880	-0.650943	0.221205	-0.369955	85.189954	-49.296331	15.508521
23669		14.300474	1.757272	-3.265712	7.158057	5.486628	1.887882	0.772467	-0.090599	-2.823328	-0.212402	-0.849609	0.097656	0.143250	0.015677	-0.032529	-0.627402	-0.656597	0.210854	-0.361645	85.839278	-47.688024	15.235687
23670		13.578606	1.831848	-4.033935	6.769773	6.142654	1.161595	0.751675	0.163623	-2.745747	-0.194580	-0.855957	0.108887	0.135989	0.016604	-0.040386	-0.629980	-0.661510	0.199987	-0.354309	86.292964	-46.115053	15.206414
23671		11.948919	1.088783	-2.473559	6.784595	4.495486	-0.656648	0.526401	0.533158	-2.560044	-0.176514	-0.857910	0.113525	0.119550	0.009423	-0.025028	-0.633233	-0.664745	0.188898	-0.348493	86.385567	-44.632034	15.503403
23672		9.890846	2.718628	-3.278772	4.249719	4.773368	-1.145482	0.268176	0.632884	-2.331071	-0.169678	-0.862305	0.111328	0.099112	0.026076	-0.033066	-0.636925	-0.666668	0.178715	-0.343426	86.280414	-43.279479	15.878582
23673		6.969918	4.694408	-3.599855	0.948971	4.348255	-1.827351	-0.491987	0.558485	-1.947727	-0.151611	-0.871094	0.104980	0.070050	0.046174	-0.036308	-0.642356	-0.665867	0.171287	-0.338616	85.779874	-42.144340	16.204386
23674		5.278603	-0.877978	-2.327085	3.824321	3.461976	-7.085336	-0.723515	0.301740	-1.328518	-0.149414	-0.868896	0.091797	0.052691	-0.009214	-0.023318	-0.647223	-0.664177	0.167170	-0.334702	85.272408	-41.375832	16.346448
23675		6.758160	-6.041892	-2.124229	8.339663	4.133939	-10.035327	-0.166849	0.240825	-0.813949	-0.149414	-0.868896	0.091797	0.067309	-0.060711	-0.021273	-0.649316	-0.663929	0.163973	-0.332715	85.095508	-40.899877	16.473626
23676		5.325891	-2.993049	-4.227421	4.836528	5.558808	-8.862873	0.578555	-0.168283	-0.734990	-0.156250	-0.868896	0.098389	0.053184	-0.030004	-0.042316	-0.648441	-0.666709	0.161176	-0.330218	85.547337	-40.492353	16.291675
23677		5.071023	-1.472254	-0.843412	4.456406	2.058883	-7.692409	0.467865	-0.134976	-0.349026	-0.153809	-0.875488	0.103027	0.050690	-0.014791	-0.008434	-0.647329	-0.668748	0.159686	-0.329001	85.898266	-40.299020	16.167464
23678		4.526738	-1.979389	0.072945	4.597524	1.112912	-8.384801	0.394557	-0.021128	0.077924	-0.165039	-0.868896	0.100586	0.045275	-0.019778	0.000695	-0.645830	-0.670024	0.159432	-0.329474	86.140450	-40.349060	16.145163
23679		3.558016	-1.043172	-0.254004	3.207870	1.121734	-8.308206	0.260323	0.022473	0.412571	-0.171875	-0.868896	0.104980	0.035601	-0.010355	-0.002558	-0.644276	-0.670517	0.160320	-0.331077	86.269852	-40.584372	16.179244
23680		3.001682	-0.560985	-0.689535	2.378308	1.370665	-8.307654	0.117705	0.081558	0.846013	-0.185059	-0.869141	0.107178	0.030037	-0.005479	-0.006911	-0.642507	-0.670104	0.162766	-0.334145	86.278360	-41.069930	16.271816
23681		2.577389	-0.990377	-1.288548	2.191281	1.915235	-8.910369	0.263783	0.042034	1.249542	-0.198486	-0.866943	0.102539	0.025832	-0.009725	-0.012904	-0.639539	-0.669871	0.166381	-0.338497	86.372428	-41.783141	16.361642
23682		2.469458	0.042612	-1.769157	1.298204	2.224632	-8.201645	0.356803	-0.048908	1.602627	-0.220947	-0.864990	0.106934	0.024694	0.000656	-0.017684	-0.635526	-0.669772	0.171360	-0.343728	86.560669	-42.706653	16.390043
23683		2.872812	1.264940	-2.144523	0.634853	2.494863	-7.015481	0.344871	-0.128493	1.886766	-0.239014	-0.858398	0.111084	0.028621	0.012957	-0.021405	-0.630971	-0.669461	0.177494	-0.349561	86.773065	-43.790418	16.371906
23684		3.310096	0.912688	-2.273795	1.086204	2.735909	-6.932709	0.372180	-0.180061	2.186476	-0.261475	-0.852051	0.110840	0.033019	0.009530	-0.022691	-0.625660	-0.669001	0.184784	-0.356149	87.031540	-45.052318	16.311332
23685		3.666151	0.455894	-2.319474	1.564701	2.893133	-6.947538	0.459102	-0.232429	2.483043	-0.288574	-0.843262	0.114990	0.036628	0.005067	-0.023141	-0.619419	-0.668524	0.192992	-0.363524	87.364799	-46.480057	16.216666
23686		4.187172	0.451751	-2.080418	1.889003	2.730293	-6.489974	0.558629	-0.286356	2.761014	-0.317871	-0.832520	0.116699	0.041833	0.005153	-0.020730	-0.612150	-0.668075	0.202142	-0.371601	87.801790	-48.072999	16.060975
23687		4.849485	0.567841	-1.993575	2.147031	2.705459	-5.827355	0.693799	-0.368910	3.004967	-0.347168	-0.823730	0.120850	0.048438	0.006475	-0.019825	-0.603784	-0.667787	0.212001	-0.380212	88.381338	-49.801015	15.822757
23688		5.629567	0.451037	-1.889989	2.612752	2.704250	-5.194817	0.833580	-0.448471	3.240045	-0.372070	-0.810791	0.129395	0.056254	0.005500	-0.018752	-0.594233	-0.667656	0.222630	-0.389304	89.136966	-51.668114	15.466318
23689		6.542965	0.594085	-1.980161	2.863612	2.836510	-4.259917	0.957184	-0.530152	3.416295	-0.403809	-0.795410	0.139893	0.065367	0.007152	-0.019596	-0.583684	-0.667643	0.233716	-0.398677	90.071488	-53.627711	14.983733
23690		7.682748	1.317362	-2.105178	2.713310	2.871507	-2.771620	1.011175	-0.598347	3.549758	-0.437744	-0.775879	0.148193	0.076639	0.014640	-0.020751	-0.572382	-0.667550	0.245330	-0.408129	91.180315	-55.663380	14.336832
23691		8.471755	2.184925	-2.106206	2.195471	2.645432	-1.496912	1.018823	-0.621299	3.683041	-0.460693	-0.753906	0.160645	0.084359	0.023511	-0.020683	-0.560577	-0.667111	0.257280	-0.417759	92.413188	-57.761488	13.563337
23692		8.803352	2.685529	-2.094310	1.663138	2.384218	-0.833011	1.031068	-0.652802	3.849463	-0.499023	-0.740967	0.162598	0.087561	0.028650	-0.020512	-0.548089	-0.666305	0.269819	-0.427590	93.839178	-59.949153	12.589685
23693		8.932844	2.689282	-2.218216	1.361040	2.327178	-0.611241	1.072686	-0.693021	4.021376	-0.526611	-0.714600	0.183838	0.088838	0.028800	-0.021723	-0.534842	-0.665173	0.282766	-0.437644	95.517567	-62.213191	11.377403
23694		9.228294	2.618882	-2.341232	1.170537	2.283020	-0.278358	1.139066	-0.763260	4.155455	-0.556641	-0.683838	0.187500	0.091799	0.028231	-0.022904	-0.520701	-0.663878	0.296145	-0.447699	97.600787	-64.534084	9.778363
23695		9.749928	2.755827	-2.663526	0.805188	2.358866	0.361740	1.196531	-0.853801	4.255853	-0.588623	-0.659912	0.204346	0.096993	0.029783	-0.026047	-0.505786	-0.662455	0.309743	-0.457594	100.200948	-66.867534	7.680850
23696		10.573287	3.035918	-2.888798	0.402525	2.267836	1.324127	1.169853	-0.936655	4.336763	-0.620850	-0.629150	0.210205	0.105172	0.032810	-0.028207	-0.490351	-0.660686	0.323798	-0.467124	103.464409	-69.194829	4.885740
23697		11.109733	3.141308	-3.101516	-0.010250	2.159863	1.944128	1.088270	-0.998036	4.407482	-0.639648	-0.600586	0.229248	0.110519	0.034019	-0.030282	-0.474693	-0.658392	0.338176	-0.476260	107.528633	-71.476080	1.235444
23698		11.612401	3.163133	-3.262456	-0.390486	1.991403	2.489768	1.012918	-1.060197	4.464695	-0.669678	-0.567871	0.234863	0.115547	0.034378	-0.031842	-0.458750	-0.655604	0.352965	-0.484919	112.771033	-73.673619	-3.650278
23699		11.928037	3.259016	-3.266936	-0.878084	1.623533	2.841764	0.972502	-1.127607	4.488042	-0.693115	-0.530518	0.247314	0.118688	0.035414	-0.031831	-0.442542	-0.652485	0.367806	-0.493090	119.604989	-75.698148	-10.154052
23700		12.344364	3.364677	-3.076001	-1.314096	1.034400	3.238626	0.977137	-1.209299	4.508795	-0.714111	-0.495361	0.255127	0.122823	0.036568	-0.029842	-0.425841	-0.649159	0.382759	-0.500747	128.698178	-77.452977	-18.927011
23701		12.630145	3.272391	-2.768993	-1.580740	0.384132	3.424221	0.981493	-1.303730	4.543734	-0.735596	-0.455811	0.267334	0.125689	0.035717	-0.026699	-0.408639	-0.645648	0.397712	-0.507916	140.510254	-78.786854	-30.418042
23702		12.959998	3.090558	-2.577459	-1.811877	-0.156137	3.633973	0.951747	-1.377013	4.586259	-0.747803	-0.416260	0.277344	0.129017	0.033988	-0.024728	-0.391019	-0.641775	0.412874	-0.514551	154.939820	-79.525646	-44.554915
23703		13.294122	2.874918	-2.383798	-2.028988	-0.706388	3.826495	0.879645	-1.415640	4.622535	-0.767090	-0.376709	0.296143	0.132392	0.031915	-0.022764	-0.373242	-0.637420	0.428085	-0.520700	170.487075	-79.535854	-59.847348
23704		13.430534	3.044894	-1.982009	-2.568285	-1.569477	3.769673	0.787554	-1.461940	4.641261	-0.781494	-0.343750	0.302002	0.133689	0.033631	-0.018713	-0.355368	-0.632563	0.443499	-0.526200	-174.938083	-78.789602	-74.227689
23705		13.514810	3.785032	-1.669140	-3.673041	-2.541487	3.595208	0.670594	-1.495601	4.665018	-0.796387	-0.297607	0.318359	0.134335	0.041044	-0.015551	-0.337526	-0.627171	0.459007	-0.531080	-162.860227	-77.424235	-86.172673
23706		13.632440	4.084684	-1.204881	-4.310553	-3.490753	3.346806	0.531711	-1.460488	4.688783	-0.799561	-0.260254	0.326416	0.135399	0.044059	-0.010943	-0.319922	-0.620982	0.474690	-0.535444	-153.422769	-75.633899	-95.565196
23707		13.885502	3.505251	-0.595874	-4.081073	-4.282698	3.241472	0.439543	-1.378284	4.694281	-0.807617	-0.220459	0.338623	0.138018	0.038310	-0.004924	-0.302599	-0.614065	0.490145	-0.539551	-146.164562	-73.591939	-102.827700
23708		14.818519	2.908605	0.037058	-3.897249	-5.278727	3.787002	0.446192	-1.246543	4.676195	-0.820313	-0.172363	0.337402	0.147445	0.032537	0.001361	-0.285440	-0.606449	0.505097	-0.543710	-140.442406	-71.408319	-108.561235
23709		15.676364	2.048115	0.297805	-3.663907	-5.856743	4.409099	0.525993	-1.088471	4.617061	-0.816895	-0.136963	0.349609	0.156216	0.024082	0.003889	-0.268440	-0.598344	0.519071	-0.548169	-135.804857	-69.174363	-113.163505
23710		16.397467	1.997165	-0.130897	-4.469063	-6.054240	4.891324	0.679100	-0.968047	4.491049	-0.818115	-0.097412	0.353027	0.163475	0.023649	-0.000441	-0.251490	-0.590077	0.531849	-0.552899	-131.978622	-66.928473	-116.870968
23711		16.923615	3.054217	-0.626907	-6.292563	-6.464403	4.839836	0.787140	-0.843412	4.314408	-0.817139	-0.060059	0.358887	0.168549	0.034206	-0.005427	-0.234911	-0.581796	0.543324	-0.557789	-128.780618	-64.729857	-119.878610
23712		16.785540	5.025561	-1.072676	-8.743528	-6.912254	3.747783	0.727720	-0.769457	4.120288	-0.815918	-0.024902	0.362305	0.166811	0.053737	-0.009892	-0.219137	-0.573460	0.554094	-0.562230	-126.169161	-62.582827	-122.328612
23713		16.521922	8.079465	-1.848192	-12.143659	-7.264663	2.077655	0.509466	-0.808304	3.797748	-0.814941	0.012451	0.368164	0.163717	0.083959	-0.017607	-0.204695	-0.565676	0.564324	-0.565375	-124.260273	-60.536195	-124.164472
23714		15.593940	11.919915	-1.408677	-15.401700	-8.492117	-0.988058	-0.099850	-0.830539	3.393383	-0.813232	0.030029	0.367676	0.153944	0.121816	-0.013505	-0.192989	-0.558254	0.574988	-0.566124	-123.153788	-58.651099	-125.514263
23715		14.671554	14.305458	0.219188	-16.763807	-10.161792	-3.843312	-0.638038	-0.798944	2.814597	-0.811523	0.049805	0.371582	0.144674	0.145107	0.002312	-0.184460	-0.551762	0.585350	-0.564712	-122.736150	-57.047279	-126.436469
23716		14.109834	16.550741	2.235125	-17.872886	-12.125389	-6.417691	-0.893411	-0.681694	2.076151	-0.807373	0.056396	0.369141	0.139294	0.167059	0.022084	-0.179043	-0.546748	0.594193	-0.562090	-122.773243	-55.834079	-127.005861
23717		13.805328	18.605858	2.917561	-19.395063	-12.900957	-8.180059	-0.941330	-0.335272	1.157159	-0.800781	0.061035	0.375732	0.136925	0.186988	0.028527	-0.177337	-0.543410	0.600278	-0.559396	-123.023956	-55.171554	-127.353205
23718		12.998193	19.952736	2.087376	-20.696151	-11.952585	-9.338717	-0.724076	0.108406	0.129682	-0.805176	0.054443	0.378174	0.129864	0.199685	0.020081	-0.179266	-0.542080	0.602542	-0.557634	-123.305239	-55.144459	-127.514269
23719		12.117272	19.805117	0.438575	-20.952145	-10.002708	-9.352056	-0.363015	0.361843	-0.873343	-0.796143	0.049805	0.369385	0.122043	0.197527	0.003807	-0.183748	-0.543386	0.600848	-0.556732	-123.663473	-55.674653	-127.328897
23720		11.387183	19.371226	-0.375044	-20.634866	-8.879523	-9.183362	-0.091827	0.459071	-1.756425	-0.802246	0.034424	0.372070	0.115558	0.192701	-0.004103	-0.190280	-0.547288	0.595855	-0.556081	-124.227388	-56.660764	-126.711326
23721		13.803669	16.712043	-0.566740	-19.119127	-9.246119	-5.442413	-0.032870	0.435793	-2.455390	-0.808350	0.016846	0.372314	0.140062	0.165408	-0.005998	-0.198455	-0.553333	0.588760	-0.554796	-125.175231	-57.957997	-125.604735
23722		10.686345	4.051345	-6.691148	-9.284458	0.330149	-0.375158	0.176648	0.254289	-2.425739	-0.807861	0.001465	0.368408	0.107260	0.039273	-0.067013	-0.205498	-0.559896	0.581216	-0.553602	-126.201838	-59.181762	-124.282495
23723		9.438200	-35.042354	-12.275943	23.502565	15.196692	16.348765	-0.258337	0.141023	-1.011064	-0.810059	0.001465	0.375000	0.092522	-0.351053	-0.122372	-0.209402	-0.562187	0.578941	-0.552199	-126.824615	-59.693800	-123.728398
23724		7.606068	-41.489688	-3.358895	33.334917	9.589467	14.422239	-1.228939	0.023347	-0.210755	-0.814209	-0.009521	0.370850	0.075620	-0.415173	-0.031047	-0.213532	-0.561447	0.581673	-0.548488	-127.635447	-59.803383	-123.603407
23725		18.926248	3.538224	6.329329	-5.942469	-14.265931	3.299965	0.205079	0.216102	-1.792440	-0.809326	-0.024658	0.377930	0.189637	0.033619	0.063124	-0.218466	-0.566279	0.575818	-0.547754	-128.455623	-60.686815	-122.520640
23726		25.856460	21.498397	-2.939549	-26.802609	-13.452652	5.678144	1.686218	0.188652	-2.444094	-0.813232	-0.042480	0.371582	0.261141	0.212042	-0.027845	-0.220912	-0.574597	0.563979	-0.550422	-128.933114	-61.850622	-120.871530
23727		25.038272	0.344207	2.233209	-5.338376	-12.006707	11.619394	-1.105295	1.039117	-2.126438	-0.817139	-0.062256	0.369873	0.250513	0.000898	0.021021	-0.232826	-0.576480	0.559711	-0.547894	-130.176624	-63.167412	-120.181047
23728		14.881670	1.862357	3.814798	-3.505615	-9.573751	1.828891	-1.722097	0.633291	-2.875420	-0.813965	-0.093018	0.366211	0.149187	0.016805	0.037526	-0.247441	-0.580715	0.555272	-0.541494	-132.836899	-64.648997	-118.315210
23729		12.677664	7.480945	-0.671193	-9.494197	-6.092608	-0.333215	-0.608750	0.208953	-3.112194	-0.808594	-0.119141	0.366943	0.127913	0.072804	-0.007069	-0.258158	-0.587979	0.547551	-0.536491	-135.710899	-66.007815	-115.534048
23730		10.674754	4.666333	-3.556984	-7.284088	-1.978832	-0.252595	0.098853	-0.012638	-2.703071	-0.810059	-0.143311	0.365479	0.107368	0.045233	-0.035540	-0.265102	-0.595500	0.539248	-0.533209	-138.276007	-67.067359	-112.673426
23731		9.198202	4.686038	-2.557020	-6.517681	-2.311807	-1.733417	-0.005193	0.188325	-2.387541	-0.805176	-0.160889	0.370361	0.092509	0.045757	-0.025658	-0.271946	-0.601403	0.531860	-0.530551	-140.626861	-68.036834	-110.130650
23732		8.309114	1.942208	-2.791846	-3.773820	-0.970083	-1.724241	0.444520	0.031937	-2.052537	-0.809082	-0.174072	0.370605	0.083281	0.018630	-0.027890	-0.276181	-0.607353	0.524377	-0.529032	-142.677403	-68.790656	-107.650294
23733		9.666638	0.934813	-4.419231	-3.418008	0.335103	0.289312	0.689777	-0.104498	-1.852724	-0.804199	-0.193604	0.384277	0.096771	0.008604	-0.044111	-0.278675	-0.613426	0.517041	-0.527937	-144.613103	-69.369674	-105.152424
23734		10.193652	2.145209	-4.411042	-4.442286	-0.208758	0.588760	0.661567	-0.113761	-1.783128	-0.803711	-0.206787	0.382568	0.102148	0.020688	-0.043983	-0.281088	-0.619247	0.509903	-0.526804	-146.611914	-69.900637	-102.614011
23735		9.428013	1.454574	-3.301396	-3.199988	-0.685176	-0.263273	0.182667	0.081231	-1.576552	-0.801270	-0.215576	0.385010	0.094378	0.013832	-0.033039	-0.284848	-0.623306	0.504406	-0.525286	-148.552951	-70.422016	-100.436782
23736		10.579558	2.013068	-2.040833	-3.189565	-2.303817	0.417719	-0.272484	0.246053	-1.504471	-0.800537	-0.235352	0.381104	0.105918	0.019306	-0.020565	-0.290301	-0.626064	0.500011	-0.523218	-150.638966	-70.986973	-98.390291
23737		11.492716	2.736523	-1.717628	-3.641614	-3.043700	1.141436	-0.479651	0.275756	-1.515302	-0.793457	-0.248535	0.381348	0.115106	0.026452	-0.017399	-0.296422	-0.628432	0.496102	-0.520663	-152.950040	-71.534312	-96.237611
23738		10.552998	2.095472	-2.815324	-3.260506	-1.467431	0.718029	-0.843002	0.290956	-1.369637	-0.792969	-0.268311	0.375244	0.105628	0.020112	-0.028393	-0.303390	-0.629818	0.493489	-0.517449	-155.371134	-72.033274	-94.195703
23739		10.311824	0.365496	-2.385083	-1.352328	-1.118497	0.631166	-0.979795	0.381831	-1.226903	-0.790283	-0.283691	0.380127	0.103092	0.002905	-0.024063	-0.310557	-0.630368	0.491561	-0.514352	-157.677476	-72.511612	-92.361307
23740		9.220435	-2.903752	-1.509487	2.148776	-0.454008	-0.278418	-0.522091	0.066456	-1.097398	-0.783203	-0.294678	0.371582	0.092038	-0.029582	-0.015049	-0.315215	-0.632093	0.489277	-0.511572	-159.822625	-72.780430	-90.425102
23741		10.166051	-1.275297	-2.624399	0.348081	-0.221909	0.755701	-0.293893	-0.061530	-1.101982	-0.780762	-0.298828	0.378174	0.101596	-0.013351	-0.026193	-0.318783	-0.634490	0.486632	-0.508910	-161.963744	-72.951339	-88.358299
23742		10.005183	-0.634381	-2.154316	0.014078	-0.775626	0.412007	-0.039684	-0.143953	-1.096648	-0.782471	-0.316406	0.383057	0.100030	-0.006897	-0.021470	-0.321363	-0.637480	0.483421	-0.506606	-164.046958	-73.059721	-86.200450
23743		9.893769	1.051014	-2.597410	-1.616618	-0.874030	0.304598	0.016030	-0.147003	-1.084906	-0.775635	-0.325195	0.387695	0.099012	0.009975	-0.025901	-0.323675	-0.640508	0.480149	-0.504421	-166.085330	-73.136017	-84.058001
23744		9.911590	0.926898	-3.626065	-1.744134	0.112588	0.636791	-0.225339	0.020622	-0.920119	-0.770752	-0.333984	0.383545	0.099153	0.008772	-0.036281	-0.326766	-0.642330	0.477677	-0.502454	-167.922662	-73.267777	-82.268949
23745		9.256644	-0.530228	-3.495820	-0.267513	0.697565	0.068030	-0.337485	0.078821	-0.806612	-0.763672	-0.344971	0.383789	0.092530	-0.005735	-0.034985	-0.330037	-0.643519	0.475798	-0.500575	-169.599709	-73.399603	-80.717747
23746		8.547518	-0.635161	-3.852973	-0.246403	1.288252	-0.507412	-0.231383	0.102362	-0.738158	-0.761230	-0.355713	0.384277	0.085431	-0.006712	-0.038566	-0.332873	-0.644668	0.473777	-0.499133	-171.119214	-73.529462	-79.266474
23747		8.567236	0.122836	-4.261268	-1.032790	1.436690	-0.408439	-0.148049	0.186805	-0.713539	-0.760742	-0.366699	0.382324	0.085636	0.000891	-0.042693	-0.335547	-0.645659	0.471530	-0.498189	-172.526635	-73.690994	-77.885400
23748		8.658905	0.052467	-4.121574	-0.859197	1.347814	-0.356918	-0.052064	0.205923	-0.705686	-0.753906	-0.373535	0.375732	0.086548	0.000208	-0.041305	-0.337958	-0.646754	0.468983	-0.497544	-173.903718	-73.856605	-76.478040
23749		8.923195	-0.070093	-4.074185	-0.659005	1.314646	-0.114010	-0.003690	0.238688	-0.691948	-0.751465	-0.382080	0.380371	0.089180	-0.001010	-0.040848	-0.340224	-0.647790	0.466346	-0.497130	-175.230099	-74.027719	-75.097551
23750		8.457187	-0.124014	-4.137686	-0.612837	1.555293	-0.546349	0.018112	0.231699	-0.680808	-0.749023	-0.388672	0.378418	0.084519	-0.001524	-0.041475	-0.342405	-0.648856	0.463654	-0.496759	-176.569271	-74.188902	-73.691413
23751		8.826127	0.239448	-3.869073	-0.792558	1.135944	-0.272839	-0.026056	0.290711	-0.661586	-0.755615	-0.390869	0.380615	0.088212	0.002098	-0.038819	-0.344780	-0.649637	0.461069	-0.496501	-177.898476	-74.370996	-72.323619
23752		9.076367	-0.122108	-3.114230	-0.141299	0.562374	-0.233694	0.079615	0.439820	-0.651577	-0.750732	-0.402100	0.372070	0.090690	-0.001504	-0.031342	-0.347148	-0.650215	0.457949	-0.496983	-179.190635	-74.631900	-70.931281
23753		8.824518	0.250855	-2.664671	-0.330411	0.157301	-0.598511	0.095595	0.640221	-0.663601	-0.746094	-0.412842	0.372314	0.088167	0.002229	-0.026928	-0.349924	-0.650320	0.454436	-0.498121	179.469368	-74.997092	-69.483610
23754		8.627311	0.951307	-2.144822	-0.800023	-0.433086	-0.918442	0.063639	0.651220	-0.695399	-0.743652	-0.419434	0.368164	0.086235	0.009220	-0.021726	-0.352935	-0.650408	0.450833	-0.499156	177.951924	-75.361336	-67.873904
23755		8.600408	0.297117	-1.556679	0.040123	-0.668594	-1.093198	0.160709	0.572099	-0.629172	-0.743408	-0.421875	0.363770	0.085968	0.002713	-0.015810	-0.355245	-0.650694	0.447370	-0.500259	176.593055	-75.669055	-66.372889
23756		9.245347	1.423775	-1.398236	-0.865647	-1.288660	-0.482723	0.125437	0.506469	-0.592518	-0.743164	-0.435059	0.359619	0.092459	0.013973	-0.014208	-0.357453	-0.650999	0.444186	-0.501126	175.228512	-75.933776	-64.888231
23757		10.855957	2.224633	-1.474873	-1.441294	-1.786332	1.128388	-0.075956	0.558612	-0.516185	-0.740723	-0.437256	0.350830	0.108575	0.021960	-0.015060	-0.360207	-0.650623	0.441693	-0.501844	173.878561	-76.221785	-63.539830
23758		10.479617	1.217698	-1.122997	-0.388569	-1.599084	0.668615	-0.263983	0.541212	-0.478140	-0.740479	-0.448242	0.346680	0.104794	0.011911	-0.011529	-0.363484	-0.649854	0.439789	-0.502150	172.433961	-76.497837	-62.208788
23759		9.945094	0.773943	-1.168545	-0.015352	-1.223357	0.155868	-0.369633	0.484874	-0.483701	-0.733643	-0.452881	0.338135	0.099440	0.007477	-0.011941	-0.366939	-0.649042	0.438260	-0.502025	170.905187	-76.730048	-60.852596
23760		9.944149	0.036280	-1.342639	0.650039	-0.736168	0.173555	-0.433160	0.618951	-0.487688	-0.735596	-0.461670	0.331543	0.099400	0.000091	-0.013734	-0.370960	-0.647758	0.436598	-0.502176	169.190141	-77.032531	-59.348171
23761		9.558707	0.220273	-1.981795	0.254435	-0.055555	-0.051726	-0.450880	0.733719	-0.514468	-0.737305	-0.474854	0.320801	0.095519	0.001912	-0.020173	-0.375285	-0.646213	0.434696	-0.502603	167.288689	-77.381554	-57.660819
23762		9.975559	0.894872	-2.408243	-0.434688	0.128671	0.478360	-0.493975	0.815701	-0.575826	-0.725586	-0.490234	0.314697	0.099681	0.008601	-0.024511	-0.380154	-0.644462	0.432525	-0.503064	165.017254	-77.758796	-55.629585
23763		9.943379	1.297956	-3.065428	-0.992374	0.721612	0.601023	-0.533210	0.983145	-0.585772	-0.725586	-0.488281	0.303467	0.099319	0.012606	-0.031177	-0.385441	-0.642249	0.430100	-0.503950	162.463750	-78.203243	-53.328820
23764		9.213690	0.579054	-2.832780	-0.293161	0.983296	-0.210705	-0.655093	0.908834	-0.621339	-0.720703	-0.503662	0.292969	0.092024	0.005411	-0.028764	-0.391122	-0.639998	0.427990	-0.504233	159.595363	-78.581914	-50.790311
23765		9.757029	-0.901018	-3.086983	1.134071	1.734775	0.249320	-0.830934	1.001622	-0.587225	-0.711182	-0.519287	0.275635	0.097387	-0.009426	-0.031319	-0.397372	-0.637107	0.426236	-0.504494	156.470684	-78.986043	-48.087781
23766		7.205333	-0.881799	-3.508648	0.714082	2.579874	-2.207520	-0.845788	0.716231	-0.687605	-0.708740	-0.528076	0.262695	0.071896	-0.009214	-0.035306	-0.403307	-0.635106	0.424709	-0.503594	153.219837	-79.187575	-45.266054
23767		9.560838	2.282414	-2.506924	-1.607989	0.411421	0.194698	-0.620611	0.555021	-0.778547	-0.699463	-0.536865	0.256104	0.095626	0.022373	-0.025404	-0.408387	-0.634119	0.422672	-0.502455	150.018080	-79.253135	-42.366372
23768		10.244918	1.363112	-1.126042	-0.174430	-0.606452	0.564464	-0.499287	0.502492	-0.781945	-0.692627	-0.543457	0.254150	0.102473	0.013202	-0.011551	-0.412979	-0.633514	0.420380	-0.501386	146.916183	-79.261369	-39.495994
23769		10.708619	0.786703	-1.153558	0.503818	-0.380427	0.968059	-0.452424	0.434672	-0.902565	-0.680908	-0.561035	0.243652	0.107095	0.007357	-0.011785	-0.417559	-0.633397	0.417751	-0.499936	143.690837	-79.169686	-36.474158
23770		11.092573	0.054217	-0.881519	1.422129	-0.379941	1.217139	-0.491060	0.433816	-1.002942	-0.671875	-0.567871	0.237061	0.110907	-0.000036	-0.009056	-0.422508	-0.633404	0.414855	-0.498178	140.259683	-79.008467	-33.262080
23771		10.967315	-0.414558	-0.979160	1.918936	-0.052961	1.037472	-0.448013	0.438638	-1.114971	-0.657959	-0.583252	0.228760	0.109626	-0.004779	-0.010022	-0.427583	-0.633684	0.411505	-0.496267	136.729697	-78.771386	-29.923904
23772		10.927527	-0.030691	-1.798108	1.434847	0.701570	1.145968	-0.407224	0.452451	-1.227246	-0.646484	-0.591797	0.222412	0.109229	-0.001014	-0.018227	-0.432826	-0.634233	0.407617	-0.494225	133.115333	-78.453425	-26.470742
23773		10.748051	0.771681	-2.155372	0.670778	0.912602	1.117858	-0.381683	0.437784	-1.332719	-0.632813	-0.602783	0.213867	0.107481	0.006959	-0.021803	-0.438188	-0.635044	0.403376	-0.491933	129.578060	-78.044094	-23.078764
23774		10.991752	0.826441	-1.978731	0.847537	0.799112	1.325438	-0.292931	0.398482	-1.389062	-0.623535	-0.613770	0.218506	0.109932	0.007472	-0.020018	-0.443313	-0.636237	0.398772	-0.489547	126.313014	-77.553658	-19.905910
23775		11.448344	1.469666	-1.559583	0.590168	0.271700	1.816246	-0.303186	0.399629	-1.428722	-0.605225	-0.629150	0.203613	0.114553	0.013855	-0.015846	-0.448536	-0.637437	0.394073	-0.487028	123.248692	-77.010379	-16.940241
23776		12.072864	2.175233	-1.052396	0.352156	-0.354906	2.489351	-0.419541	0.424679	-1.469502	-0.591553	-0.635742	0.206055	0.120861	0.020842	-0.010825	-0.454261	-0.638367	0.389418	-0.484240	120.256639	-76.419337	-14.108955
23777		12.334561	1.630264	-0.592935	1.207986	-0.544470	2.572450	-0.477317	0.455735	-1.525914	-0.571045	-0.650879	0.197510	0.123451	0.015346	-0.006248	-0.460328	-0.639148	0.384655	-0.481277	117.367780	-75.777822	-11.412303
23778		12.554756	1.627377	-0.675966	1.414955	-0.357511	2.780700	-0.479082	0.479885	-1.590794	-0.559570	-0.664063	0.195801	0.125655	0.015258	-0.007098	-0.466579	-0.639955	0.379578	-0.478207	114.608946	-75.076001	-8.841459
23779		12.659983	0.851913	-0.427160	2.409199	-0.266699	2.649413	-0.456056	0.477574	-1.654403	-0.539063	-0.677246	0.187256	0.126654	0.007461	-0.004592	-0.472860	-0.640884	0.374247	-0.474985	112.068423	-74.312995	-6.476055
23780		12.527377	1.172733	0.125359	2.403202	-0.759726	2.514895	-0.397749	0.511228	-1.732600	-0.523193	-0.681396	0.191895	0.125372	0.010644	0.000911	-0.479171	-0.641971	0.368390	-0.471759	109.670637	-73.486990	-4.213702
23781		12.811146	1.315526	-0.313911	2.438345	-0.252894	2.834051	-0.440052	0.527096	-1.833609	-0.502686	-0.696777	0.176758	0.128216	0.011973	-0.003504	-0.485835	-0.643041	0.362264	-0.468219	107.395401	-72.586036	-2.096191
23782		12.923463	1.251613	0.129012	2.852236	-0.528355	2.843502	-0.423857	0.551244	-1.904032	-0.484619	-0.707764	0.179443	0.129349	0.011287	0.000909	-0.492614	-0.644162	0.355752	-0.464572	105.267831	-71.625445	-0.111813
23783		13.244518	1.424830	0.099208	3.009953	-0.402722	3.157616	-0.427812	0.569880	-2.000635	-0.462158	-0.712158	0.168457	0.132581	0.012924	0.000586	-0.499603	-0.645328	0.348881	-0.460686	103.281590	-70.594426	1.730822
23784		14.711368	0.529030	-0.350428	4.443511	0.441207	4.218670	-0.488824	0.711960	-2.040644	-0.443848	-0.725098	0.173340	0.147144	0.003780	-0.004039	-0.507077	-0.646011	0.341600	-0.457003	101.222560	-69.536222	3.626971
23785		15.352617	-1.662175	-2.071347	6.482051	2.864058	4.062667	-0.386333	0.848331	-2.131037	-0.414551	-0.738281	0.158203	0.153248	-0.018296	-0.021330	-0.514587	-0.646710	0.333428	-0.453643	99.202021	-68.420264	5.556852
23786		16.053000	-0.542359	-3.188374	5.727165	3.904473	5.023096	-0.109440	0.858678	-2.262897	-0.403076	-0.746826	0.160645	0.160316	-0.007256	-0.032569	-0.521451	-0.648229	0.324107	-0.450380	97.489103	-67.207115	7.342627
23787		17.320716	-0.692183	-3.238435	6.637249	4.282567	5.953205	-0.291560	0.835425	-2.400816	-0.378174	-0.755615	0.154541	0.172970	-0.009047	-0.033095	-0.529092	-0.649446	0.314781	-0.446312	95.865385	-65.896244	8.932862
23788		19.233600	-2.910284	-3.705021	9.595072	5.640357	6.564881	-0.484083	0.836350	-2.565344	-0.357910	-0.764160	0.154785	0.191784	-0.031656	-0.037778	-0.537638	-0.650297	0.305278	-0.441434	94.280281	-64.473374	10.376897
23789		20.266063	-5.357884	-4.110626	12.446803	6.936081	6.101267	-0.651063	0.776614	-2.705567	-0.337402	-0.775146	0.146240	0.201749	-0.056447	-0.041710	-0.546835	-0.650916	0.295803	-0.435639	92.821234	-62.953622	11.590665
23790		21.204365	-5.593366	-4.333092	13.425890	7.515654	6.401814	-0.833356	0.664556	-2.808287	-0.317383	-0.779541	0.144287	0.211084	-0.059084	-0.043792	-0.556565	-0.651290	0.286627	-0.428837	91.514524	-61.359923	12.531275
23791		21.507890	-7.479468	-4.389049	15.594750	8.183325	5.273461	-1.309215	0.571979	-2.789348	-0.296631	-0.794922	0.129150	0.213880	-0.078071	-0.043999	-0.567540	-0.650359	0.278729	-0.421000	90.149445	-59.766744	13.239977
23792		19.436498	-11.275911	-4.479122	18.159474	8.845169	1.001136	-1.928225	0.544225	-2.803043	-0.278809	-0.799316	0.109375	0.192634	-0.115895	-0.044210	-0.580362	-0.647571	0.272100	-0.412059	88.563405	-58.158271	13.803932
23793		16.259461	-11.341177	-4.461028	16.941348	8.367599	-2.340915	-2.119322	0.466839	-2.928867	-0.253906	-0.808105	0.100830	0.160803	-0.116242	-0.043765	-0.593777	-0.644358	0.265589	-0.402113	87.039162	-56.471376	14.174874
23794		16.250504	-5.773652	-2.704395	13.065980	5.750710	0.232573	-1.878899	0.549277	-3.166483	-0.240234	-0.816895	0.085693	0.161487	-0.060552	-0.026928	-0.606797	-0.641787	0.257516	-0.391908	85.679956	-54.643066	14.519462
23795		17.333463	-0.484163	-3.640211	9.630645	6.233141	3.689206	-1.255594	0.619214	-3.256647	-0.215332	-0.830078	0.081543	0.173109	-0.007892	-0.036895	-0.617890	-0.640878	0.247613	-0.382329	84.698088	-52.754311	14.847944
23796		16.486856	1.374424	-4.757008	7.893006	7.118422	3.727641	-0.101898	0.224260	-3.116116	-0.197266	-0.834229	0.081787	0.165002	0.011150	-0.047761	-0.624348	-0.643933	0.237137	-0.373237	84.694368	-50.967736	14.780292
23797		14.748198	0.679019	-3.820538	7.908232	6.063887	1.730415	0.604723	-0.019480	-2.814196	-0.179443	-0.838379	0.090820	0.147563	0.004830	-0.038174	-0.627546	-0.649148	0.226991	-0.365059	85.229388	-49.362882	14.537899
23798		13.179796	-0.046419	-4.144873	7.684031	6.244232	-0.177079	0.628951	0.045725	-2.753872	-0.167969	-0.849121	0.102295	0.131767	-0.002148	-0.041484	-0.630491	-0.654119	0.216784	-0.357231	85.709130	-47.791441	14.380607
23799		12.555615	3.226088	-1.405606	5.676200	3.166594	1.490840	-0.371286	0.345059	-2.682897	-0.154541	-0.846924	0.097656	0.125949	0.030547	-0.014331	-0.636794	-0.655200	0.207572	-0.349457	85.417584	-46.243892	14.491548
23800		10.586190	5.877389	-4.120342	2.215657	5.334075	1.598601	-0.686522	0.488013	-2.524973	-0.138916	-0.853516	0.093506	0.106490	0.057290	-0.041661	-0.643874	-0.654746	0.198979	-0.342258	84.872879	-44.782684	14.705696
23801		6.788063	8.507715	-6.149658	-2.373739	6.520248	0.585571	-0.393088	0.451114	-2.267346	-0.138672	-0.857910	0.089355	0.068699	0.084180	-0.061817	-0.649428	-0.654940	0.190771	-0.336012	84.519343	-43.465624	14.893368
23802		2.947927	2.162407	-8.424314	-1.016040	8.616694	-6.803459	0.226524	-0.011032	-1.474490	-0.138672	-0.860107	0.095947	0.029643	0.021501	-0.084217	-0.651103	-0.657107	0.185649	-0.331375	84.736884	-42.629154	14.767152
23803		5.147020	-6.375748	-5.822269	6.824987	7.210755	-11.382770	0.829503	-0.297174	-0.348919	-0.140625	-0.864502	0.102783	0.051446	-0.063605	-0.058410	-0.648655	-0.660637	0.184102	-0.330019	85.388300	-42.444983	14.510107
23804		3.875765	-9.715841	-4.549033	8.364657	6.119952	-14.575993	1.719104	-0.514797	0.078633	-0.152100	-0.857666	0.111328	0.038914	-0.096748	-0.046223	-0.642313	-0.666989	0.183249	-0.330119	86.648662	-42.514633	14.104730
23805		2.975674	-6.886366	-2.014679	6.308890	3.287461	-12.931230	1.318233	-0.278082	0.427160	-0.163086	-0.862061	0.129150	0.029932	-0.068665	-0.020558	-0.636923	-0.671294	0.183395	-0.331752	87.543803	-42.767391	13.901777
23806		3.136431	-4.585513	-1.082528	5.072178	2.182810	-11.055290	0.710846	-0.085565	0.804756	-0.176758	-0.857666	0.131104	0.031553	-0.045690	-0.010974	-0.633080	-0.672978	0.185254	-0.334651	87.989316	-43.234591	13.847950
23807		3.379370	-3.206726	-1.123433	4.302853	2.109514	-9.834509	0.495321	-0.031883	1.071316	-0.196777	-0.855713	0.128906	0.033967	-0.031858	-0.011308	-0.629561	-0.673616	0.188136	-0.338377	88.276272	-43.848889	13.846804
23808		2.553639	-1.967798	-1.357637	2.822237	2.037235	-9.465001	0.613249	-0.124712	1.419928	-0.216797	-0.855713	0.130859	0.025684	-0.019454	-0.013620	-0.624922	-0.674426	0.192337	-0.342970	88.685822	-44.668775	13.765384
23809		1.777904	-0.160222	-1.668571	0.956451	1.946349	-8.686844	0.611870	-0.282315	1.721442	-0.239258	-0.853760	0.137451	0.017815	-0.001398	-0.016665	-0.619590	-0.675158	0.197975	-0.347960	89.185594	-45.658097	13.558344
23810		1.798825	0.963638	-2.529382	-0.036866	2.600971	-7.864474	0.471171	-0.395759	1.950347	-0.261719	-0.847168	0.135010	0.017943	0.009871	-0.025235	-0.614146	-0.675365	0.205024	-0.353090	89.690839	-46.782434	13.234112
23811		2.216751	0.914387	-2.800556	0.173554	2.915584	-7.562779	0.495588	-0.440813	2.249519	-0.284180	-0.838623	0.141357	0.022124	0.009462	-0.027934	-0.607988	-0.675333	0.213092	-0.358982	90.254240	-48.071567	12.857892
23812		2.498856	-0.270319	-2.720314	1.186404	3.056495	-8.090160	0.703912	-0.485268	2.623976	-0.315674	-0.829834	0.145508	0.025086	-0.002279	-0.027151	-0.600275	-0.675517	0.222204	-0.366022	91.007043	-49.576761	12.398296
23813		3.052183	-0.843342	-2.252645	2.013498	2.758741	-7.959200	1.057219	-0.539843	2.980377	-0.347168	-0.821045	0.165039	0.030703	-0.007858	-0.022486	-0.590553	-0.676300	0.231934	-0.374261	92.047523	-51.275608	11.837482
23814		3.811028	-0.212726	-2.062565	1.965343	2.511554	-6.871449	1.356047	-0.621930	3.265402	-0.381348	-0.801514	0.166748	0.038201	-0.001365	-0.020518	-0.578982	-0.677609	0.242296	-0.383299	93.413561	-53.132428	11.097623
23815		4.169042	0.516795	-2.020644	1.507635	2.294998	-6.045951	1.495848	-0.714314	3.504021	-0.410645	-0.788330	0.183838	0.041661	0.006048	-0.020015	-0.566205	-0.678956	0.253328	-0.392753	95.045646	-55.104409	10.144253
23816		4.423840	0.445379	-2.308813	1.497981	2.533689	-5.758996	1.374237	-0.805788	3.750017	-0.440186	-0.770752	0.196533	0.044235	0.005441	-0.022875	-0.552977	-0.679573	0.265650	-0.402277	96.867678	-57.198269	8.903336
23817		4.867987	-0.012315	-2.687088	1.854857	2.956437	-5.484600	1.248673	-0.888246	3.997065	-0.474365	-0.746826	0.204834	0.048786	0.001018	-0.026650	-0.539369	-0.679367	0.279119	-0.411867	98.915148	-59.396799	7.340903
23818		5.157233	-0.207567	-2.998540	1.910206	3.219968	-5.164181	1.161451	-0.993057	4.244510	-0.512939	-0.727295	0.215088	0.051746	-0.000805	-0.029736	-0.525097	-0.678480	0.293814	-0.421439	101.351090	-61.695192	5.312086
23819		5.570707	0.263020	-3.095313	1.488082	3.075273	-4.427123	1.049555	-1.069981	4.453495	-0.545166	-0.698730	0.225342	0.055792	0.004033	-0.030636	-0.510416	-0.676781	0.309441	-0.430917	104.229836	-64.047905	2.756579
23820		6.485853	0.676791	-3.193791	1.268114	2.912962	-3.284174	0.926184	-1.136636	4.655143	-0.581787	-0.670410	0.233398	0.064855	0.008424	-0.031533	-0.495285	-0.674214	0.326073	-0.440232	107.735496	-66.436855	-0.516724
23821		7.668689	0.661263	-3.109328	1.483420	2.639886	-2.084139	0.809776	-1.185190	4.864513	-0.611816	-0.633057	0.252197	0.076676	0.008602	-0.030607	-0.479736	-0.670700	0.343521	-0.449453	112.066527	-68.827169	-4.694584
23822		8.929997	0.493145	-2.785220	1.817273	2.109472	-0.869916	0.731205	-1.257799	5.096694	-0.641846	-0.600098	0.264648	0.089307	0.007308	-0.027267	-0.463445	-0.666311	0.361933	-0.458532	117.691664	-71.177602	-10.232011
23823		10.295045	0.374825	-2.496341	2.005483	1.510453	0.484335	0.696211	-1.339997	5.298487	-0.674316	-0.562988	0.274658	0.102966	0.006561	-0.024254	-0.446357	-0.661175	0.380956	-0.467424	125.104874	-73.372020	-17.591031
23824		11.816316	0.517943	-2.165565	1.863446	0.681432	2.045140	0.638026	-1.415993	5.444723	-0.706787	-0.519043	0.286621	0.118112	0.008463	-0.020796	-0.428583	-0.655293	0.400538	-0.475895	134.874823	-75.246330	-27.355056
23825		13.353825	1.094976	-1.721012	1.191092	-0.493881	3.632472	0.575592	-1.513640	5.540933	-0.730713	-0.472900	0.298828	0.133291	0.014693	-0.016162	-0.410282	-0.648779	0.420398	-0.483757	147.248737	-76.572707	-39.766570
23826		15.025092	1.571342	-1.041943	0.533112	-1.980139	5.188575	0.330249	-1.572838	5.615934	-0.751953	-0.433594	0.306396	0.149806	0.019940	-0.009209	-0.392088	-0.641191	0.440929	-0.490635	161.620089	-77.147871	-54.325764
23827		16.007023	1.235448	-0.861388	0.254228	-2.710358	6.030515	0.110083	-1.548537	5.717161	-0.777832	-0.385254	0.313965	0.159690	0.016928	-0.007368	-0.374103	-0.632340	0.461826	-0.496900	176.419628	-76.896125	-69.441629
23828		17.086212	2.948233	-1.522203	-2.324375	-3.316379	7.112467	-0.153112	-1.500458	5.706802	-0.790771	-0.332520	0.325928	0.170036	0.034331	-0.013969	-0.356743	-0.622323	0.482915	-0.502237	-170.331671	-75.850229	-83.162395
23829		17.714368	6.085386	-1.309759	-6.137299	-4.982924	7.215367	-0.381367	-1.434499	5.641562	-0.809814	-0.293213	0.331543	0.175423	0.065795	-0.011957	-0.340126	-0.611378	0.503775	-0.506697	-159.650449	-74.208984	-94.439104
23830		18.339528	8.983437	-1.237319	-9.802743	-6.335383	6.987142	-0.385466	-1.362743	5.484939	-0.820068	-0.249268	0.336914	0.180920	0.094797	-0.011314	-0.323804	-0.600106	0.523684	-0.510665	-151.450016	-72.184776	-103.235326
23831		19.340473	9.885230	-1.059612	-11.559953	-7.329421	7.081931	-0.041665	-1.307845	5.277700	-0.834961	-0.205322	0.353516	0.190771	0.103908	-0.009364	-0.306887	-0.589356	0.541546	-0.514984	-145.119216	-69.951712	-109.948833
23832		20.292669	9.866276	-0.058658	-12.208289	-8.871547	6.958823	0.426879	-1.244962	4.898547	-0.831787	-0.163330	0.361328	0.200427	0.103592	0.000884	-0.289517	-0.579754	0.556656	-0.519807	-140.228221	-67.674884	-114.932335
23833		20.479105	10.327063	1.658312	-12.920760	-10.913328	5.764694	0.692751	-1.113885	4.357312	-0.839600	-0.125977	0.371582	0.202380	0.107637	0.018083	-0.272985	-0.571392	0.568950	-0.524677	-136.498821	-65.536162	-118.559838
23834		19.998927	11.800248	2.379529	-14.567405	-11.966081	3.949587	0.932457	-0.991694	3.700453	-0.836182	-0.095215	0.375000	0.197639	0.121558	0.025340	-0.257712	-0.564626	0.578344	-0.529435	-133.649591	-63.631618	-121.122843
23835		18.662667	14.366096	2.176748	-17.084523	-12.018935	1.279257	1.167532	-0.804877	3.077137	-0.834961	-0.057861	0.380859	0.184297	0.146375	0.023362	-0.243881	-0.559298	0.584889	-0.534427	-131.324441	-62.017974	-122.981613
23836		17.077388	16.409531	1.473805	-18.994849	-11.373212	-1.275035	1.261958	-0.633908	2.472887	-0.840088	-0.035889	0.382568	0.168678	0.166090	0.016319	-0.231843	-0.555246	0.589155	-0.539302	-129.427885	-60.700531	-124.317746
23837		15.614275	18.058488	1.092126	-20.306726	-10.962097	-3.603505	1.227266	-0.528242	1.795358	-0.833984	-0.018066	0.388672	0.154482	0.181903	0.012444	-0.221999	-0.552786	0.591400	-0.543498	-128.014346	-59.706914	-125.133549
23838		14.914587	18.572645	1.402344	-20.473554	-11.228216	-4.902952	0.986773	-0.387965	1.046117	-0.836670	-0.007080	0.392822	0.148143	0.186430	0.015230	-0.215261	-0.551839	0.592018	-0.546489	-127.129642	-59.095550	-125.502630
23839		14.430852	18.160507	2.415912	-19.559376	-12.007431	-5.672851	1.009396	-0.267240	0.229427	-0.836914	-0.000732	0.390381	0.144067	0.181645	0.025268	-0.211029	-0.552985	0.590166	-0.548979	-126.624790	-58.896864	-125.414132
23840		14.014900	18.198931	2.080845	-19.466128	-11.757546	-5.969379	1.277046	-0.167651	-0.595146	-0.838867	-0.007080	0.397217	0.140671	0.181433	0.022086	-0.208628	-0.556553	0.585157	-0.551647	-126.359863	-59.115297	-124.866872
23841		16.275463	18.144610	-0.981070	-21.027709	-10.280156	-2.941065	1.380684	-0.140953	-1.341843	-0.836670	-0.011475	0.408447	0.163974	0.180410	-0.008448	-0.208040	-0.562298	0.577728	-0.553869	-126.451262	-59.684523	-123.838883
23842		11.629397	19.560741	-6.825270	-23.034251	-3.920191	-5.513529	1.411006	-0.243739	-1.954296	-0.833984	-0.026855	0.406494	0.118283	0.194932	-0.066732	-0.208777	-0.570066	0.568503	-0.555195	-127.002201	-60.502399	-122.267760
23843		18.699042	-3.523872	-12.607829	-6.683416	4.206302	11.603672	0.232934	0.375873	-1.625249	-0.831299	-0.040039	0.398193	0.186459	-0.036608	-0.126471	-0.213661	-0.573881	0.562805	-0.555211	-127.576792	-61.372077	-121.455030
23844		15.758022	-36.465584	-1.536961	27.835401	4.720379	18.174682	-1.896557	0.631721	-0.400257	-0.837646	-0.046631	0.402588	0.156808	-0.365097	-0.012405	-0.222017	-0.571208	0.566181	-0.551242	-128.397180	-61.781711	-121.756817
23845		12.832902	-7.329618	7.690228	6.331652	-9.969147	1.937630	-1.020053	0.497080	-1.784674	-0.836914	-0.070801	0.394531	0.127862	-0.074046	0.076960	-0.231219	-0.573743	0.563307	-0.547762	-129.788980	-62.753222	-120.842073
23846		23.101073	18.100803	2.588465	-20.505201	-16.083076	3.928250	0.779362	0.326588	-2.733687	-0.829590	-0.090576	0.397217	0.233498	0.177726	0.026202	-0.237369	-0.581414	0.552861	-0.547684	-131.089653	-64.069748	-118.884954
23847		20.868427	8.242836	-0.483936	-11.841688	-9.738793	6.575470	-0.505855	0.508870	-2.511042	-0.835449	-0.121338	0.386963	0.209684	0.079786	-0.005576	-0.247077	-0.586328	0.546291	-0.544737	-132.960599	-65.332007	-117.133640
23848		15.434580	-1.487703	0.633918	-1.173743	-5.788579	4.538009	-1.977399	0.527420	-2.663223	-0.823486	-0.145508	0.378662	0.154146	-0.016870	0.006093	-0.261563	-0.589656	0.543093	-0.537532	-136.010824	-66.638891	-115.032407
23849		9.901567	3.679380	1.927648	-4.286609	-6.229916	-2.190284	-1.277092	0.395691	-2.765099	-0.827148	-0.169678	0.383545	0.099550	0.035541	0.018850	-0.273778	-0.594378	0.537788	-0.531550	-139.170084	-67.873077	-112.397898
23850		8.365623	3.749376	-3.000985	-5.614150	-1.230531	-2.066039	0.114916	-0.039635	-2.395838	-0.824219	-0.191406	0.390869	0.084103	0.036505	-0.029972	-0.279707	-0.601056	0.530326	-0.528440	-141.805454	-68.735667	-109.487959
23851		7.255389	4.626755	-5.318376	-6.942272	0.961127	-2.518063	0.757435	-0.259977	-2.049967	-0.817139	-0.204590	0.391113	0.073093	0.045721	-0.052915	-0.282116	-0.608219	0.522492	-0.526766	-144.052603	-69.322877	-106.614211
23852		9.717132	2.438492	-3.580140	-4.417847	-0.790266	-0.166861	0.148162	0.014582	-1.762646	-0.812012	-0.224365	0.394043	0.097379	0.023554	-0.035791	-0.286342	-0.613004	0.516649	-0.524699	-146.192333	-69.911117	-104.236562
23853		9.762145	-0.870615	-3.314629	-1.090405	0.000859	0.475812	-0.185758	0.043803	-1.527155	-0.809570	-0.237305	0.398682	0.097544	-0.009482	-0.033159	-0.290997	-0.616567	0.512374	-0.522149	-148.301703	-70.403456	-102.104735
23854		10.468870	0.146560	-3.795145	-2.103350	-0.061654	1.123103	-0.224150	-0.057959	-1.560206	-0.806641	-0.255127	0.394775	0.104707	0.000606	-0.037922	-0.295604	-0.620407	0.508167	-0.519115	-150.676678	-70.831456	-99.718405
23855		9.403072	1.994382	-5.005248	-4.038535	0.844276	0.208442	-0.378312	0.064137	-1.511479	-0.797363	-0.270264	0.395264	0.094161	0.019138	-0.050119	-0.300830	-0.623520	0.504347	-0.516099	-153.068449	-71.269883	-97.416317
23856		10.038549	2.637371	-5.314240	-4.627420	0.792934	0.860868	-0.744494	0.312374	-1.349771	-0.792480	-0.281250	0.386719	0.100476	0.025497	-0.053395	-0.307418	-0.625011	0.501526	-0.513154	-155.356331	-71.770256	-95.449814
23857		8.828678	-2.474147	-3.018318	1.122288	0.754755	-0.255147	-0.692768	0.286623	-1.183528	-0.794434	-0.294434	0.395752	0.088095	-0.025368	-0.030222	-0.313306	-0.626181	0.499149	-0.510477	-157.462089	-72.189771	-93.650383
23858		9.294697	-1.744981	-3.297443	0.451930	0.695303	0.168313	-0.187134	0.069175	-1.308704	-0.789307	-0.309814	0.387451	0.092819	-0.018088	-0.032990	-0.317387	-0.629007	0.495362	-0.508166	-159.729164	-72.501022	-91.378365
23859		9.567935	-0.993139	-2.600833	0.081620	-0.198604	0.149676	0.104619	0.060006	-1.299395	-0.789063	-0.322998	0.387695	0.095604	-0.010539	-0.026042	-0.320476	-0.632243	0.490901	-0.506538	-161.882114	-72.775840	-89.057398
23860		10.411527	-0.719583	-2.119231	0.101579	-0.916917	0.796569	0.419598	0.072960	-1.350771	-0.777344	-0.336182	0.392334	0.104056	-0.007854	-0.021246	-0.322742	-0.636063	0.485395	-0.505622	-164.020857	-73.044083	-86.564357
23861		11.297174	1.216862	-2.873241	-1.839181	-1.051763	1.714320	0.392934	0.345583	-1.327439	-0.770508	-0.346924	0.397217	0.113000	0.011475	-0.028905	-0.325654	-0.639046	0.479607	-0.505516	-166.065093	-73.429232	-84.191835
23862		9.914928	0.542760	-3.496633	-1.346404	0.210316	0.626099	0.032042	0.641071	-1.210212	-0.772461	-0.353760	0.388428	0.099067	0.004834	-0.035283	-0.330119	-0.640412	0.474555	-0.505659	-168.087062	-73.941463	-82.059551
23863		9.143581	-0.054322	-3.951788	-0.881788	1.132149	0.044490	-0.140960	0.724787	-1.113152	-0.774170	-0.366943	0.379883	0.091287	-0.001080	-0.039848	-0.335073	-0.640992	0.470138	-0.505792	-170.103008	-74.467417	-80.046006
23864		8.706801	-0.454520	-4.331343	-0.575031	1.820196	-0.266453	-0.176541	0.606933	-1.053616	-0.769287	-0.382324	0.375977	0.086910	-0.005042	-0.043573	-0.339713	-0.641665	0.466138	-0.505547	-172.200292	-74.903527	-77.971431
23865		9.147516	0.086785	-3.739757	-0.789029	1.073427	-0.020111	-0.083619	0.502362	-1.039360	-0.766846	-0.391113	0.371826	0.091384	0.000377	-0.037627	-0.343749	-0.642682	0.462151	-0.505185	-174.339608	-75.256650	-75.804638
23866		9.763243	-0.270408	-2.391364	0.108440	-0.099453	0.241659	0.017762	0.577172	-1.025594	-0.762207	-0.397705	0.369629	0.097547	-0.003202	-0.024195	-0.347609	-0.643645	0.457771	-0.505307	-176.498058	-75.633160	-73.560538
23867		9.346458	-0.326752	-3.076550	-0.033421	0.748761	0.003877	0.030692	1.010772	-0.965698	-0.763672	-0.415527	0.350342	0.093290	-0.003713	-0.031238	-0.352231	-0.643357	0.452816	-0.506935	-178.585220	-76.233014	-71.388330
23868		8.599461	0.539027	-3.766007	-1.086597	1.368477	-0.573127	0.001308	0.983502	-0.912262	-0.763672	-0.419922	0.343750	0.085831	0.004999	-0.038082	-0.356772	-0.642936	0.448102	-0.508479	179.231704	-76.800289	-69.141161
23869		8.540256	0.870878	-4.184278	-1.496830	1.751182	-0.544757	-0.097210	0.771175	-0.867691	-0.758789	-0.428711	0.343994	0.085277	0.008318	-0.042176	-0.360988	-0.642754	0.444175	-0.509179	176.961303	-77.222891	-66.865912
23870		9.608202	1.888583	-3.094392	-1.939117	0.277871	0.268042	-0.270447	0.639963	-0.854716	-0.753906	-0.441895	0.335449	0.096062	0.018433	-0.031276	-0.365473	-0.642536	0.440927	-0.509078	174.481783	-77.552953	-64.483918
23871		9.989065	1.492165	-2.200916	-1.170526	-0.386466	0.450420	-0.545415	0.609349	-0.833311	-0.746582	-0.464111	0.324951	0.099884	0.014445	-0.022353	-0.370660	-0.641833	0.438516	-0.508297	171.808881	-77.840122	-62.065636
23872		9.700884	-0.231590	-1.333361	0.770396	-0.459495	-0.059062	-0.677841	0.507417	-0.778088	-0.744385	-0.464111	0.316162	0.096965	-0.002739	-0.013571	-0.375960	-0.640980	0.436776	-0.506976	169.112591	-78.054360	-59.708454
23873		10.081279	-0.500367	-0.493519	1.396147	-1.143459	0.130586	-0.740268	0.458496	-0.774988	-0.734863	-0.477295	0.309814	0.100781	-0.005413	-0.005147	-0.381268	-0.640127	0.435299	-0.505359	166.363132	-78.214300	-57.329968
23874		10.044947	-0.215764	-0.306212	1.245373	-1.337783	0.071643	-0.736352	0.435099	-0.765012	-0.725830	-0.486084	0.299072	0.100433	-0.002554	-0.003272	-0.386547	-0.639268	0.433862	-0.503668	163.564202	-78.342830	-54.906374
23875		10.719749	1.681258	0.129878	-0.270122	-2.396413	0.767472	-0.768160	0.477706	-0.814922	-0.718506	-0.501465	0.295166	0.107267	0.016380	0.000979	-0.392060	-0.638355	0.432259	-0.501940	160.555932	-78.457023	-52.282288
23876		9.766455	-0.322225	-0.897704	1.264167	-0.566620	-0.098094	-0.693508	0.503222	-0.845597	-0.722656	-0.512695	0.286377	0.097627	-0.003667	-0.009211	-0.397533	-0.637531	0.430301	-0.500363	157.399233	-78.553715	-49.472138
23877		11.488268	3.878863	-2.113808	-2.777558	-0.908372	2.143583	-0.868516	0.525811	-0.763984	-0.699951	-0.528076	0.271484	0.114973	0.038256	-0.021607	-0.403313	-0.636139	0.428985	-0.498637	154.317309	-78.647325	-46.833441
23878		11.081146	1.920273	-2.010668	-0.868353	-0.231027	1.576476	-1.091981	0.582103	-0.772595	-0.697266	-0.539063	0.262939	0.110825	0.018663	-0.020532	-0.409938	-0.634159	0.428028	-0.496574	150.948536	-78.737599	-44.031523
23879		11.261969	1.511677	-1.268741	-0.172841	-0.728331	1.596307	-1.157330	0.541087	-0.733551	-0.690186	-0.550293	0.245605	0.112639	0.014629	-0.013078	-0.416553	-0.632015	0.427454	-0.494290	147.679248	-78.787578	-41.372005
23880		11.608611	1.853588	-0.918566	-0.279103	-1.099133	1.924091	-1.205227	0.526343	-0.778536	-0.681152	-0.554688	0.243408	0.116132	0.018027	-0.009601	-0.423387	-0.629883	0.426828	-0.491741	144.263965	-78.785264	-38.589736
23881		11.370193	1.399255	-0.296288	0.352935	-1.434553	1.551432	-1.209499	0.546176	-0.802524	-0.664795	-0.574463	0.224121	0.113748	0.013517	-0.003356	-0.430299	-0.627693	0.426105	-0.489162	140.784992	-78.751874	-35.746973
23882		11.013083	0.308495	0.052956	1.498061	-1.342364	1.019613	-1.218664	0.592426	-0.840698	-0.657715	-0.585449	0.217773	0.110143	0.002624	0.000186	-0.437417	-0.625425	0.425123	-0.486601	137.140491	-78.688939	-32.738124
23883		10.439118	0.073703	-0.388167	1.599810	-0.710270	0.486161	-1.159834	0.594780	-0.907328	-0.648682	-0.594238	0.204834	0.104381	0.000240	-0.004194	-0.444478	-0.623370	0.423794	-0.483991	133.458835	-78.563709	-29.658191
23884		10.719676	0.101292	-0.967032	1.579150	-0.095895	0.834022	-1.066515	0.630963	-0.994984	-0.639404	-0.603271	0.193848	0.107169	0.000427	-0.010012	-0.451521	-0.621593	0.421822	-0.481474	129.662773	-78.374214	-26.402997
23885		11.169315	0.708333	-1.710801	1.025860	0.544099	1.449255	-1.006134	0.673109	-1.166190	-0.618896	-0.616211	0.185547	0.111673	0.006345	-0.017517	-0.458837	-0.620158	0.419086	-0.478789	125.674502	-78.079380	-22.915531
23886		11.422957	-0.212792	-2.515444	1.926821	1.631038	1.610120	-1.032205	0.719098	-1.337653	-0.607422	-0.627197	0.179199	0.114120	-0.003023	-0.025551	-0.466714	-0.618876	0.415708	-0.475770	121.509585	-77.665995	-19.255977
23887		11.802740	-0.655248	-2.675355	2.559227	1.979391	1.867196	-1.011132	0.757533	-1.532288	-0.588867	-0.645020	0.161865	0.117870	-0.007593	-0.027164	-0.475017	-0.617889	0.411585	-0.472408	117.324834	-77.112999	-15.559133
23888		12.177196	-1.112430	-2.030999	3.385523	1.552768	2.009700	-0.981398	0.778885	-1.672845	-0.577393	-0.653809	0.146729	0.121592	-0.012243	-0.020726	-0.483564	-0.617156	0.406832	-0.468798	113.302603	-76.434406	-12.000702
23889		12.923780	-1.016976	-1.276820	3.808395	0.895684	2.612142	-0.886397	0.804490	-1.858635	-0.554932	-0.664795	0.140381	0.129083	-0.011428	-0.013239	-0.492241	-0.616891	0.401207	-0.464950	109.520553	-75.610085	-8.624335
23890		13.596677	-1.714619	-0.496043	5.006045	0.391874	2.947949	-0.706499	0.872220	-2.049422	-0.543213	-0.680176	0.136475	0.135758	-0.018557	-0.005489	-0.500886	-0.617221	0.394326	-0.461149	105.978344	-74.641308	-5.374131
23891		13.957366	-2.792126	-0.656329	6.346475	0.909598	2.912077	-0.457134	0.940061	-2.263032	-0.515869	-0.695313	0.125977	0.139213	-0.029514	-0.007152	-0.509307	-0.618343	0.386014	-0.457440	102.769534	-73.518077	-2.307458
23892		14.836350	-3.754969	-1.679834	7.608297	2.272819	3.377178	-0.224603	0.982385	-2.521296	-0.497803	-0.708496	0.124023	0.147790	-0.039435	-0.017482	-0.517603	-0.620359	0.376172	-0.453583	99.932441	-72.210117	0.530611
23893		16.452057	-4.423942	-2.554419	8.904939	3.483989	4.515885	-0.062884	1.033457	-2.825887	-0.472656	-0.728027	0.126953	0.163739	-0.046565	-0.026377	-0.526070	-0.623117	0.364835	-0.449301	97.432723	-70.698306	3.131467
23894		18.704729	-6.281457	-2.413694	11.786005	3.996226	5.686799	0.000620	1.107130	-3.099629	-0.445557	-0.736572	0.122803	0.185906	-0.065702	-0.025168	-0.534963	-0.626225	0.352197	-0.444539	95.187545	-69.001025	5.526905
23895		22.936811	-8.469824	-3.724186	15.536692	6.182124	8.409062	0.161298	1.239579	-3.357580	-0.425049	-0.749756	0.127686	0.227667	-0.088499	-0.038727	-0.543996	-0.629734	0.337958	-0.439646	93.180679	-67.133811	7.792200
23896		24.274355	-9.624739	-4.630987	17.457585	7.786994	8.567680	0.318419	1.247157	-3.579581	-0.391357	-0.764893	0.119141	0.240675	-0.100492	-0.047973	-0.552852	-0.633813	0.322526	-0.434295	91.563859	-65.113383	9.762895
23897		26.097125	-10.576610	-5.393394	19.471833	9.296198	9.064270	0.161525	1.218264	-3.683022	-0.373047	-0.775635	0.124023	0.258630	-0.110499	-0.055602	-0.562177	-0.637455	0.307080	-0.428147	90.163443	-63.013809	11.425413
23898		25.694872	-14.834724	-6.504406	23.309161	11.550079	5.864240	0.092524	1.166250	-3.706428	-0.350098	-0.795166	0.124512	0.253756	-0.153039	-0.066600	-0.571479	-0.640807	0.291739	-0.421506	88.997867	-60.885936	12.808663
23899		22.087021	-14.339521	-6.649367	21.555859	11.572188	1.977489	-0.058963	1.091112	-3.756862	-0.318848	-0.799561	0.122559	0.217758	-0.147525	-0.067644	-0.581047	-0.643717	0.276659	-0.414093	87.993972	-58.717843	13.933621
23900		20.704944	-9.481245	-5.597280	17.402810	9.838830	2.441960	-0.439589	1.299899	-3.988226	-0.296387	-0.808105	0.116211	0.204734	-0.099035	-0.057094	-0.592362	-0.645139	0.260920	-0.405985	86.743553	-56.403178	15.118477
23901		20.871444	-4.731112	-7.061962	13.736501	10.852830	4.376181	0.203204	1.268051	-4.118477	-0.271484	-0.818848	0.127686	0.207229	-0.051516	-0.071988	-0.601563	-0.648411	0.243413	-0.398041	86.036333	-54.002606	16.124158
23902		18.053815	-1.088331	-8.739346	9.300145	11.730662	3.580127	1.517765	0.610088	-4.065070	-0.248779	-0.831787	0.143555	0.180008	-0.013879	-0.088041	-0.605302	-0.656570	0.225361	-0.389535	86.649385	-51.659423	16.447763
23903		15.136970	2.016364	-6.076132	6.182444	8.227901	3.000558	2.878124	-0.061722	-3.647785	-0.226807	-0.826904	0.165527	0.151733	0.018270	-0.060443	-0.602706	-0.669354	0.207914	-0.381422	88.455875	-49.573118	16.247389
23904		15.330796	0.669799	-3.074767	8.420401	5.686172	2.090345	2.040547	0.312437	-3.454330	-0.206543	-0.835449	0.181396	0.153349	0.004365	-0.030935	-0.602637	-0.678382	0.191531	-0.374089	89.470881	-47.595057	16.454559
23905		13.292145	2.549359	-0.891523	6.713556	2.985978	1.587669	1.222189	0.957899	-3.558797	-0.190430	-0.846191	0.188232	0.133303	0.023180	-0.009407	-0.605933	-0.683574	0.174259	-0.367704	89.613640	-45.551818	17.225438
23906		8.706054	5.879421	-6.059091	0.155114	6.455515	0.452368	0.617269	0.929081	-3.195728	-0.177002	-0.850342	0.197266	0.087705	0.057584	-0.060818	-0.610390	-0.686443	0.159420	-0.361669	89.463980	-43.721053	17.943452
23907		4.155156	-2.287630	-8.167262	1.866862	9.189021	-8.681919	1.024444	0.471841	-2.165272	-0.177002	-0.852539	0.204102	0.041111	-0.022904	-0.081887	-0.611102	-0.690412	0.148692	-0.357458	89.810111	-42.478900	18.299395
23908		2.364660	-9.940723	-3.890501	6.742962	6.394655	-15.573081	1.873222	0.337391	-0.943514	-0.175049	-0.841309	0.219238	0.023112	-0.099147	-0.039874	-0.606506	-0.696220	0.141113	-0.357094	90.714030	-41.943947	18.553383
23909		1.996384	-9.866104	-6.360856	5.446741	8.793027	-15.711406	2.456806	0.000593	-0.353171	-0.181885	-0.845459	0.243652	0.019790	-0.097905	-0.064814	-0.598520	-0.703884	0.135491	-0.357719	92.121567	-41.741733	18.557094
23910		2.548971	-4.379891	-2.673407	3.565166	4.237063	-11.283589	2.149394	0.243067	0.107443	-0.190918	-0.838623	0.259033	0.025480	-0.043494	-0.027234	-0.590858	-0.709794	0.131364	-0.360310	93.240258	-41.814902	18.728246
23911		1.691430	-1.597569	-1.790669	1.517064	2.513354	-9.781149	1.681547	0.347228	0.628846	-0.208984	-0.829834	0.265381	0.016933	-0.015771	-0.018069	-0.583943	-0.713713	0.129542	-0.364477	94.050259	-42.187083	18.961115
23912		1.055095	-0.336750	-2.763795	-0.092844	2.910778	-9.193212	1.304121	0.380819	0.990235	-0.220215	-0.827881	0.265137	0.010514	-0.003135	-0.027679	-0.577675	-0.716186	0.129659	-0.369537	94.646880	-42.774650	19.185685
23913		0.010654	1.702522	-3.748898	-2.476769	2.941062	-8.340098	0.695964	0.351066	1.357044	-0.247070	-0.827881	0.267334	-0.000075	0.017155	-0.037429	-0.572867	-0.716666	0.132221	-0.375141	94.923238	-43.566159	19.368050
23914		-0.960848	2.514695	-5.465211	-4.340304	4.013047	-8.338771	0.255748	0.144891	1.755855	-0.267334	-0.821533	0.269287	-0.009869	0.025131	-0.054613	-0.568660	-0.715982	0.137670	-0.380844	95.088046	-44.582039	19.350847
23915		-1.552367	0.687122	-6.245424	-3.895291	5.163646	-10.037718	-0.064476	-0.101259	2.309807	-0.291748	-0.823975	0.267090	-0.015570	0.006671	-0.062464	-0.564367	-0.714374	0.146345	-0.386967	95.234390	-45.894773	19.096059
23916		-1.150572	-1.320494	-5.145358	-1.867867	4.906017	-11.221203	-0.142872	-0.300622	2.908621	-0.318848	-0.808838	0.251221	-0.011234	-0.013406	-0.051461	-0.558897	-0.712394	0.157906	-0.393947	95.515401	-47.544128	18.605819
23917		-0.071414	-1.674108	-3.713439	-0.333745	3.956316	-10.725428	-0.198343	-0.421562	3.426099	-0.352783	-0.795898	0.261719	-0.000349	-0.016786	-0.037119	-0.552421	-0.709879	0.171659	-0.401792	95.899541	-49.473283	17.944512
23918		1.143715	-0.743960	-2.888218	0.121848	3.133441	-9.204555	-0.385846	-0.463395	3.839823	-0.379883	-0.783203	0.239258	0.011645	-0.007273	-0.028841	-0.545506	-0.706358	0.187381	-0.410329	96.300397	-51.638736	17.145507
23919		1.904549	-0.468049	-2.737927	0.425411	3.022258	-8.388907	-0.642733	-0.555103	4.252697	-0.429199	-0.770264	0.243164	0.019216	-0.004361	-0.027312	-0.538384	-0.701614	0.205192	-0.419257	96.719105	-54.023490	16.161040
23920		2.429830	-1.320718	-2.605821	1.384995	3.235539	-8.380726	-0.917100	-0.725465	4.586244	-0.461182	-0.746338	0.233643	0.024689	-0.012763	-0.025910	-0.531032	-0.695802	0.225175	-0.427973	97.270260	-56.586659	14.855183
23921		3.532541	-1.744142	-2.426139	2.335658	3.300846	-7.564766	-1.023291	-0.998270	4.842253	-0.499512	-0.729248	0.228516	0.035856	-0.016701	-0.023997	-0.522918	-0.689568	0.246792	-0.436058	98.190397	-59.258974	13.080498
23922		4.678451	-0.997487	-2.478055	2.221321	3.128781	-6.031737	-1.158218	-1.249913	5.034775	-0.536133	-0.703125	0.216797	0.047172	-0.008933	-0.024433	-0.514142	-0.682846	0.269935	-0.443299	99.600669	-62.004002	10.704335
23923		5.170912	0.336210	-2.505076	1.204945	2.628325	-4.836572	-1.330990	-1.497894	5.185558	-0.570313	-0.674805	0.215820	0.051787	0.004539	-0.024691	-0.504952	-0.675503	0.294336	-0.449538	101.621603	-64.766844	7.594397
23924		5.737027	1.322279	-2.721575	0.346855	2.400607	-3.797774	-1.517744	-1.731590	5.356667	-0.604736	-0.644531	0.212891	0.057226	0.014552	-0.026827	-0.495225	-0.667416	0.320169	-0.454752	104.537157	-67.537441	3.456707
23925		6.369477	0.689759	-2.840028	0.884668	2.541106	-3.342522	-1.613177	-1.965085	5.508134	-0.641357	-0.609619	0.214111	0.063752	0.008427	-0.027838	-0.484691	-0.658786	0.346935	-0.459033	108.760521	-70.240837	-2.056939
23926		7.467623	-0.475754	-2.610013	2.115296	2.404825	-2.564856	-1.413951	-2.259522	5.578145	-0.673584	-0.579102	0.215332	0.075062	-0.002848	-0.025229	-0.472346	-0.650571	0.373947	-0.462396	115.145256	-72.728364	-9.643503
23927		8.964673	-0.731319	-2.127929	2.588021	1.616074	-1.089513	-0.882991	-2.571252	5.607306	-0.694824	-0.539551	0.225342	0.090070	-0.004882	-0.020098	-0.457197	-0.643651	0.400117	-0.465393	124.539500	-74.788931	-19.949056
23928		10.807626	-0.244337	-0.782526	2.464896	-0.379217	0.733351	-0.238501	-2.806823	5.622986	-0.718506	-0.495605	0.239502	0.108184	0.000589	-0.006307	-0.439010	-0.638065	0.425069	-0.468466	137.315038	-76.177859	-33.286871
23929		12.705043	0.585754	0.638152	1.816368	-2.694138	2.498110	0.414265	-2.970779	5.669398	-0.740234	-0.451416	0.269287	0.126703	0.009437	0.008283	-0.417849	-0.633575	0.448485	-0.472067	152.659940	-76.649723	-48.821450
23930		14.579553	0.818392	2.422747	1.615690	-5.350066	3.891163	0.935298	-3.016901	5.765600	-0.755127	-0.400879	0.292480	0.145093	0.012254	0.026471	-0.394258	-0.629365	0.470680	-0.476362	168.507367	-76.107877	-64.574863
23931		17.237894	2.837043	4.413805	-0.366787	-8.934863	5.827198	1.299738	-2.834655	5.770079	-0.774658	-0.350098	0.319824	0.170820	0.033016	0.046771	-0.369522	-0.624780	0.491072	-0.481613	-177.545401	-74.737229	-78.208805
23932		20.411601	4.587081	6.446207	-2.284810	-12.733055	7.843484	1.387280	-2.283097	5.789024	-0.785156	-0.299561	0.331787	0.201928	0.051278	0.067119	-0.345419	-0.618297	0.509851	-0.488310	-166.026760	-72.953144	-89.372449
23933		21.367514	4.255375	6.124286	-2.979199	-13.244191	8.291840	1.957212	-1.716996	5.704063	-0.793457	-0.246582	0.350342	0.211819	0.047999	0.063519	-0.320874	-0.611043	0.525417	-0.497598	-156.370567	-70.960213	-98.342724
23934		23.040823	6.278873	3.776898	-6.582073	-12.698236	9.677280	2.911755	-1.198367	5.483106	-0.802002	-0.191650	0.366699	0.228347	0.068496	0.040111	-0.295002	-0.603968	0.536633	-0.510119	-147.966402	-68.876661	-105.514216
23935		25.664842	9.173750	1.144272	-11.337406	-12.532976	11.596805	3.443307	-0.636887	5.105089	-0.803711	-0.134521	0.374023	0.254158	0.098022	0.013907	-0.269711	-0.596702	0.543945	-0.524716	-140.671509	-66.869712	-111.254771
23936		24.604537	11.121832	-2.844294	-15.268372	-9.671777	10.444080	3.522404	-0.323910	4.587534	-0.816406	-0.088379	0.379395	0.243445	0.117295	-0.026017	-0.246144	-0.589565	0.548630	-0.539288	-134.584699	-64.954836	-115.710606
23937		19.710449	13.201230	-7.623734	-18.774295	-4.739079	5.866231	3.254772	-0.574164	4.010204	-0.810791	-0.046631	0.385010	0.194602	0.137142	-0.073472	-0.224056	-0.583936	0.552191	-0.551274	-130.048470	-63.032028	-118.679496
23938		17.593022	21.117421	-8.207445	-26.069047	-6.206677	0.414207	2.133757	-0.759477	3.411395	-0.807373	-0.013672	0.386475	0.172589	0.214992	-0.079135	-0.206254	-0.578875	0.557023	-0.558649	-127.161677	-61.229210	-120.561489
23939		16.701400	27.814776	-3.477536	-29.957823	-12.107800	-5.279143	0.289844	-0.646758	2.781814	-0.806152	0.012695	0.394531	0.163234	0.280485	-0.033838	-0.195798	-0.573189	0.564868	-0.560394	-125.848287	-59.725882	-121.877145
23940		14.752170	23.488355	1.539173	-23.750945	-14.200952	-7.385395	-1.041277	-0.569321	2.107457	-0.803955	0.017334	0.401123	0.144993	0.236498	0.014578	-0.191238	-0.567778	0.574344	-0.557839	-125.707500	-58.553856	-122.735239
23941		14.901499	18.898552	3.417423	-19.240718	-14.425408	-6.265786	-1.212822	-0.436093	1.156784	-0.806396	0.023926	0.396484	0.147844	0.190047	0.033347	-0.190170	-0.564508	0.581400	-0.554203	-126.102681	-57.868859	-123.085068
23942		18.395638	19.200065	2.295262	-21.124081	-14.899669	-3.173533	-1.185275	0.073947	0.023542	-0.803955	0.015137	0.396729	0.183942	0.192154	0.021746	-0.193657	-0.563113	0.584653	-0.550982	-126.715480	-57.884169	-123.161066
23943		12.495511	20.199775	-1.663544	-21.899335	-8.965769	-7.173805	-0.552408	0.285469	-0.997627	-0.803711	0.008545	0.401367	0.125936	0.201324	-0.017371	-0.198767	-0.564715	0.583073	-0.549195	-127.377146	-58.437276	-122.751996
23944		14.797957	12.954211	-13.250912	-20.615760	1.802420	1.767889	0.148143	0.069515	-1.842657	-0.807861	-0.002441	0.395020	0.149119	0.128270	-0.132465	-0.203620	-0.570036	0.577334	-0.547981	-128.312415	-59.299975	-121.557486
23945		18.705411	-29.075668	-10.062529	16.898759	7.843631	21.000216	-1.120584	0.570392	-0.754126	-0.809326	-0.024658	0.393311	0.185670	-0.292018	-0.099522	-0.210496	-0.569510	0.577652	-0.545589	-128.980245	-59.839822	-121.524847
23946		17.120496	-18.477636	5.403435	14.091950	-7.538211	10.394076	-1.594247	0.555973	-1.479410	-0.811279	-0.037842	0.389160	0.169986	-0.185601	0.055038	-0.220682	-0.570568	0.577137	-0.540985	-130.413219	-60.699476	-120.924755
23947		26.596974	15.290985	5.039099	-18.282796	-19.160409	6.470548	0.331756	0.522585	-3.092438	-0.812744	-0.062012	0.389893	0.268422	0.148689	0.049941	-0.229556	-0.578389	0.566764	-0.539953	-131.955602	-62.228528	-118.950232
23948		23.422501	8.747893	0.776205	-12.646600	-12.360829	7.878343	0.130435	0.436252	-2.824495	-0.809570	-0.088379	0.379395	0.235445	0.084155	0.007305	-0.238038	-0.585324	0.557641	-0.538304	-133.672885	-63.591140	-116.934275
23949		16.819826	0.102592	-0.411771	-3.398066	-6.226359	5.443356	-0.931949	0.480305	-3.221732	-0.815430	-0.116943	0.386719	0.168175	-0.001704	-0.004518	-0.250716	-0.591837	0.550064	-0.533198	-136.525757	-65.087497	-114.359372
23950		13.393260	7.277857	-0.474781	-8.974213	-6.626857	0.583966	-0.600373	0.218959	-3.885288	-0.805420	-0.154053	0.383301	0.135307	0.070144	-0.005109	-0.263450	-0.601078	0.539730	-0.527249	-140.405847	-66.667025	-110.483187
23951		8.540899	7.410763	-4.906682	-9.643182	-0.881487	-2.186372	-0.287274	-0.014560	-3.419955	-0.800049	-0.180420	0.381836	0.086662	0.072562	-0.049166	-0.273225	-0.609895	0.530145	-0.521845	-144.286447	-67.856032	-106.451950
23952		6.400370	7.220314	-4.590035	-8.930616	-0.320513	-3.955935	-0.231580	0.194386	-2.737071	-0.801514	-0.202393	0.386719	0.064939	0.071265	-0.046046	-0.281621	-0.616272	0.522027	-0.518061	-147.537655	-68.837361	-103.095681
23953		7.062318	1.362147	-4.601419	-3.364472	1.234790	-2.062974	-0.111691	0.396842	-2.284074	-0.798828	-0.222168	0.382813	0.070681	0.012789	-0.046162	-0.288873	-0.621023	0.514681	-0.515738	-150.253453	-69.706089	-100.257974
23954		8.914388	-2.386028	-5.352626	-0.068782	2.501042	0.557789	0.018070	0.395220	-2.070006	-0.791748	-0.233154	0.383057	0.088785	-0.024776	-0.053704	-0.295204	-0.625334	0.507548	-0.514011	-152.833535	-70.478641	-97.501502
23955		8.567821	-0.465861	-3.742147	-1.148229	0.678826	-0.547335	0.141674	0.254920	-1.958809	-0.788818	-0.257324	0.379395	0.085579	-0.005471	-0.037534	-0.300403	-0.629845	0.500655	-0.512248	-155.468924	-71.097224	-94.622324
23956		9.595557	0.420292	-3.096787	-1.628878	-0.435520	0.136975	0.272467	0.164772	-1.968405	-0.786377	-0.265869	0.388428	0.095965	0.003301	-0.031042	-0.305021	-0.634744	0.493432	-0.510477	-158.291303	-71.633299	-91.477435
23957		9.684278	2.562568	-4.196288	-3.869287	-0.123360	0.334834	0.499607	0.278832	-1.789272	-0.779053	-0.281250	0.386719	0.097009	0.024863	-0.042035	-0.308652	-0.639198	0.486028	-0.509840	-160.770734	-72.139173	-88.565132
23958		10.296923	3.252519	-2.800045	-3.884733	-1.709986	0.503706	0.172838	0.658292	-1.615705	-0.778564	-0.301025	0.382813	0.103135	0.031717	-0.028312	-0.313822	-0.641718	0.479336	-0.509853	-163.101707	-72.788038	-86.013433
23959		10.707329	1.588735	-1.370151	-1.690360	-2.417575	0.691759	-0.186876	0.834934	-1.487416	-0.780273	-0.312256	0.374023	0.107129	0.015078	-0.014163	-0.320178	-0.642855	0.473710	-0.509728	-165.487229	-73.476880	-83.630157
23960		10.762441	0.201938	0.136529	0.251896	-3.163842	0.473885	-0.301592	0.900698	-1.381772	-0.773193	-0.327393	0.372314	0.107640	0.001277	0.000878	-0.326821	-0.643347	0.468525	-0.509683	-167.924990	-74.165561	-81.269929
23961		10.256238	-0.942571	-1.422650	0.862201	-1.103651	0.489707	-0.239340	0.679812	-1.315912	-0.768311	-0.338623	0.363770	0.102448	-0.010117	-0.014563	-0.332504	-0.644305	0.463776	-0.509140	-170.456363	-74.687115	-78.782037
23962		10.791782	0.618685	-2.362447	-0.787213	-0.828118	1.192715	-0.297984	0.554663	-1.299049	-0.767822	-0.354004	0.359863	0.107889	0.005451	-0.023932	-0.338064	-0.645421	0.459361	-0.508066	-173.209210	-75.109906	-76.104316
23963		10.869876	0.245660	-1.233342	0.066175	-1.629045	1.007462	-0.390453	0.607880	-1.191730	-0.762939	-0.369385	0.360107	0.108673	0.001784	-0.012668	-0.343715	-0.645956	0.455467	-0.507100	-175.898742	-75.518947	-73.552825
23964		12.038282	0.765929	-2.509922	-0.683653	-0.765210	2.465292	-0.717998	1.490072	-1.122434	-0.773926	-0.374023	0.342529	0.120231	0.006892	-0.026021	-0.352270	-0.643496	0.451026	-0.508326	-178.740438	-76.403749	-71.044414
23965		8.063516	0.832331	-4.465184	-1.635878	2.074028	-0.943042	-0.773330	1.442083	-1.013538	-0.769043	-0.389404	0.329590	0.080350	0.007741	-0.045263	-0.360546	-0.640743	0.447167	-0.509408	178.327735	-77.225525	-68.485956
23966		7.794946	0.978386	-5.007256	-1.901533	2.722694	-1.108651	-0.811077	0.995001	-0.999442	-0.768555	-0.402832	0.321045	0.077746	0.009191	-0.050498	-0.367917	-0.638985	0.444171	-0.508966	175.114481	-77.763324	-65.667518
23967		8.653681	1.267027	-3.811096	-1.634794	1.476222	-0.530300	-0.805798	0.804568	-0.875959	-0.763672	-0.411621	0.314697	0.086436	0.012137	-0.038508	-0.374475	-0.637403	0.441930	-0.508118	172.076633	-78.163001	-63.031069
23968		9.096848	2.348439	-2.653442	-2.177142	0.076503	-0.296310	-0.809375	0.675749	-0.830628	-0.761230	-0.420410	0.303955	0.090974	0.022998	-0.026936	-0.380654	-0.636023	0.440016	-0.506916	169.013021	-78.466344	-60.372394
23969		10.472214	2.735900	-1.703102	-2.047680	-1.062606	0.898493	-0.883483	0.634096	-0.773497	-0.760986	-0.431396	0.299805	0.104772	0.026877	-0.017483	-0.386787	-0.634441	0.438578	-0.505500	165.977680	-78.722652	-57.789915
23970		10.197473	1.079243	-1.902083	-0.500547	-0.206827	0.602533	-0.912276	0.526027	-0.713962	-0.756104	-0.444580	0.293457	0.101962	0.010341	-0.019337	-0.392631	-0.632934	0.437545	-0.503776	163.033283	-78.902495	-55.316989
23971		10.605110	-0.235259	-2.137271	0.789497	0.429612	0.970775	-0.421437	0.362991	-0.693921	-0.755859	-0.451416	0.291504	0.106003	-0.002766	-0.021560	-0.396479	-0.632723	0.435693	-0.502631	160.534488	-78.973368	-53.014527
23972		11.098806	1.182991	-0.153377	0.141725	-1.885991	1.188624	-0.301257	0.270518	-0.688062	-0.746582	-0.458008	0.284912	0.111026	0.011446	-0.001701	-0.399737	-0.632979	0.433686	-0.501461	158.170815	-78.977008	-50.776970
23973		10.812226	1.180534	-0.877854	-0.037289	-1.110103	1.042464	-0.486595	0.225186	-0.618299	-0.746338	-0.464600	0.276367	0.108148	0.011449	-0.008928	-0.403289	-0.632797	0.432495	-0.499874	155.969012	-78.955484	-48.815348
23974		10.863211	1.243993	-0.248473	0.145682	-1.682044	0.993222	-0.579492	0.202114	-0.591262	-0.746094	-0.475586	0.276611	0.108666	0.012111	-0.002630	-0.407035	-0.632426	0.431616	-0.498063	153.797280	-78.914835	-46.936871
