// General information: 
//  MT Manager version: 2019.2.0 
//  XDA version: 2019.2.0 build 3853 rev 94535 built on 2019-09-09
// Device information: 
//  DeviceId: 00B40AC5
//  ProductCode: MTW2-3A7G6
//  Firmware Version: 4.3.5
//  Hardware Version: 1.1.0
// Device settings: 
//  Filter Profile: human(46.1)
//  Option Flags: Orientation Smoother Disabled, AHS Disabled, ICC Disabled
// Coordinate system: ENU
PacketCounter	SampleTimeFine	Acc_X	Acc_Y	Acc_Z	FreeAcc_E	FreeAcc_N	FreeAcc_U	Gyr_X	Gyr_Y	Gyr_Z	Mag_X	Mag_Y	Mag_Z	VelInc_X	VelInc_Y	VelInc_Z	Quat_q0	Quat_q1	Quat_q2	Quat_q3	Roll	Pitch	Yaw
23438		9.435724	-0.335370	11.498274	-2.368866	0.042242	4.875398	-0.773297	-0.524041	0.696893	-0.575439	0.161377	-0.310303	0.094065	-0.002580	0.115240	-0.245399	0.256555	0.097817	0.929726	3.770684	-31.672292	-151.498225
23439		9.003487	-0.625456	9.383357	-2.980796	-0.271311	2.857804	-0.693295	-0.272948	0.571916	-0.560059	0.170410	-0.317383	0.089923	-0.005672	0.093977	-0.247044	0.259054	0.094178	0.928973	3.171036	-31.859722	-151.121085
23440		8.017549	-1.608803	8.086988	-3.238456	0.509363	1.210970	-0.600727	-0.039241	0.478502	-0.557861	0.172607	-0.315186	0.080197	-0.015653	0.080933	-0.248501	0.260398	0.090810	0.928544	2.648682	-31.918653	-150.792278
23441		8.393647	-1.312233	8.269983	-3.247417	0.082502	1.589720	-0.479598	0.102102	0.392394	-0.555908	0.179443	-0.333252	0.084004	-0.012759	0.082688	-0.249756	0.260799	0.087930	0.928372	2.226641	-31.881201	-150.520952
23442		7.609947	-1.532107	8.629061	-2.598390	0.640682	1.481422	-0.373870	0.167366	0.339716	-0.547119	0.183838	-0.340088	0.076197	-0.015030	0.086255	-0.250952	0.260838	0.085535	0.928262	1.880351	-31.815242	-150.279825
23443		6.057239	-2.086964	8.896681	-1.607740	1.798145	0.882087	-0.251314	0.160063	0.258908	-0.549561	0.192871	-0.349121	0.060670	-0.020679	0.088944	-0.251907	0.260623	0.083815	0.928221	1.636802	-31.739523	-150.098127
23444		5.158023	-1.755951	8.372454	-0.999607	1.714704	-0.022534	-0.130409	0.059301	0.140052	-0.554199	0.197266	-0.353760	0.051617	-0.017469	0.083721	-0.252445	0.260773	0.082942	0.928111	1.502202	-31.730758	-149.994419
23445		5.129197	-1.162034	8.881920	-0.442549	1.351817	0.411021	-0.030308	-0.034990	0.047039	-0.545654	0.204102	-0.358398	0.051279	-0.011595	0.088830	-0.252623	0.261095	0.082769	0.927987	1.462494	-31.762874	-149.959313
23446		4.843349	-0.658636	9.196690	0.176478	1.134763	0.538742	0.022110	-0.116502	-0.014876	-0.554688	0.206055	-0.367432	0.048379	-0.006600	0.091994	-0.252567	0.261804	0.083024	0.927780	1.471378	-31.852288	-149.963027
23447		4.008176	-0.215164	9.080685	0.978185	1.088370	0.007149	0.061827	-0.174293	-0.070374	-0.557129	0.215088	-0.374512	0.040002	-0.002194	0.090841	-0.252262	0.262608	0.083608	0.927583	1.527522	-31.962440	-150.009552
23448		4.137323	-0.037457	8.764630	0.849506	0.811550	-0.192020	0.114218	-0.253980	-0.126235	-0.561768	0.217285	-0.378906	0.041262	-0.000451	0.087699	-0.251751	0.263789	0.084608	0.927296	1.630433	-32.128596	-150.091342
23449		5.518456	0.248216	8.893510	0.056475	0.049885	0.656491	0.139581	-0.301320	-0.134531	-0.564209	0.226074	-0.376953	0.055052	0.002383	0.089020	-0.251197	0.265055	0.085797	0.926976	1.756172	-32.310277	-150.184439
23450		5.898806	0.622827	8.765586	-0.065197	-0.437707	0.761968	0.130983	-0.334432	-0.112988	-0.564453	0.230469	-0.375000	0.058845	0.006138	0.087758	-0.250895	0.266534	0.086885	0.926532	1.852505	-32.513814	-150.236838
23451		6.323117	0.857724	8.210881	-0.481122	-0.948716	0.531606	0.092037	-0.343087	-0.094207	-0.566895	0.234863	-0.373047	0.063094	0.008510	0.082221	-0.250444	0.268069	0.087852	0.926120	1.937909	-32.719898	-150.304631
23452		6.254800	-0.103231	7.771177	-1.095501	-0.199077	0.101167	0.102463	-0.320189	-0.089110	-0.578369	0.243652	-0.371094	0.062423	-0.001100	0.077811	-0.250260	0.269511	0.088750	0.925666	2.007700	-32.913773	-150.335817
23453		6.532486	0.254679	7.901952	-1.035033	-0.551887	0.375692	0.138377	-0.308947	-0.139728	-0.576172	0.245850	-0.373291	0.065204	0.002446	0.079122	-0.249675	0.270808	0.089950	0.925329	2.137089	-33.099189	-150.434904
23454		6.422406	-0.077174	8.489068	-0.837444	-0.010097	0.799379	0.198187	-0.309114	-0.178740	-0.576416	0.248047	-0.366699	0.064092	-0.000913	0.084989	-0.249252	0.272025	0.091393	0.924945	2.293964	-33.283021	-150.522415
23455		4.543238	-0.780021	9.090284	0.460761	1.590680	0.244151	0.217287	-0.289234	-0.206697	-0.574219	0.252441	-0.366943	0.045293	-0.007946	0.090960	-0.248471	0.273099	0.093023	0.924676	2.494940	-33.455079	-150.668498
23456		6.413921	0.549436	8.409399	-0.515369	-0.481790	0.754258	0.216018	-0.371465	-0.197407	-0.585693	0.256836	-0.355957	0.063988	0.005340	0.084219	-0.247711	0.274655	0.094737	0.924245	2.689942	-33.685332	-150.807519
23457		5.003378	0.749815	9.248591	1.017497	0.225516	0.677599	0.231217	-0.355072	-0.176103	-0.583496	0.261230	-0.356201	0.049876	0.007347	0.092583	-0.247057	0.276027	0.096471	0.923832	2.890497	-33.895074	-150.936887
23458		5.298369	2.330276	8.866968	1.458833	-1.331672	0.590405	0.153246	-0.377730	-0.027316	-0.585938	0.263428	-0.351807	0.052819	0.023228	0.088787	-0.246991	0.277768	0.097668	0.923202	2.986295	-34.133139	-150.961069
23459		6.061161	1.327029	8.016894	0.032015	-1.019446	0.273384	0.065634	-0.366575	0.082466	-0.579346	0.270264	-0.352051	0.060459	0.013269	0.080284	-0.247294	0.279521	0.098293	0.922525	2.993236	-34.356814	-150.913456
23460		6.724475	0.892038	7.589123	-0.830582	-1.032667	0.279522	0.019299	-0.346786	0.145747	-0.583740	0.267822	-0.345215	0.067107	0.008962	0.076009	-0.247853	0.281366	0.098594	0.921782	2.944340	-34.582271	-150.816704
23461		6.664125	0.309509	7.746644	-0.974755	-0.448679	0.354185	-0.007311	-0.321906	0.165752	-0.579590	0.279053	-0.343506	0.066514	0.003153	0.077573	-0.248459	0.283042	0.098710	0.921093	2.874950	-34.782752	-150.708924
23462		6.147189	-0.004916	8.129718	-0.547033	0.160421	0.363520	-0.005932	-0.320239	0.157129	-0.581787	0.276855	-0.345703	0.061342	0.000001	0.081395	-0.249047	0.284800	0.098847	0.920377	2.805385	-34.993343	-150.602144
23463		5.935830	0.208789	8.578759	-0.035567	0.216903	0.619203	-0.019547	-0.349669	0.154545	-0.586426	0.276855	-0.343506	0.059207	0.002142	0.085891	-0.249567	0.286611	0.098956	0.919662	2.732724	-35.209184	-150.501992
23464		5.802989	-0.654821	8.576676	-0.343566	1.020484	0.507354	-0.052349	-0.414873	0.117295	-0.581787	0.279053	-0.339111	0.057856	-0.006492	0.085889	-0.249857	0.288840	0.099052	0.918875	2.653046	-35.472627	-150.425023
23465		5.765084	-0.608556	8.933644	-0.075434	1.132670	0.776349	0.043133	-0.495338	0.058371	-0.588867	0.283447	-0.343750	0.057431	-0.006088	0.089478	-0.249951	0.291192	0.099769	0.918029	2.657081	-35.769125	-150.396166
23466		5.771207	-0.357203	8.886883	0.079780	0.932797	0.748293	0.069576	-0.597757	0.015936	-0.590820	0.276611	-0.341309	0.057446	-0.003598	0.089040	-0.249856	0.294053	0.100797	0.917030	2.691551	-36.134383	-150.396193
23467		5.424420	-0.053244	8.983586	0.583680	0.887303	0.627787	0.144877	-0.705527	-0.025536	-0.593018	0.274414	-0.334473	0.053927	-0.000605	0.090026	-0.249605	0.297194	0.102364	0.915912	2.793332	-36.548908	-150.434402
23468		5.622049	0.407806	8.903422	0.707916	0.443219	0.691905	0.186342	-0.788226	-0.030723	-0.599854	0.278809	-0.330078	0.055870	0.003986	0.089259	-0.249364	0.300750	0.104229	0.914606	2.919454	-37.021630	-150.475990
23469		6.379343	0.479451	8.026804	-0.150248	-0.154691	0.449295	0.193519	-0.875172	-0.007200	-0.602051	0.274170	-0.332275	0.063442	0.004714	0.080551	-0.249173	0.304605	0.106199	0.913154	3.047080	-37.533636	-150.510030
23470		7.215198	0.461940	7.642994	-0.852763	-0.536717	0.659741	0.181171	-0.925263	0.011980	-0.610596	0.267578	-0.327637	0.071797	0.004554	0.076767	-0.249037	0.308802	0.108142	0.911552	3.157118	-38.085828	-150.529158
23471		6.583880	0.327318	8.059292	-0.198194	0.031140	0.597197	0.157199	-0.961735	0.015645	-0.610596	0.265381	-0.327393	0.065450	0.003215	0.080911	-0.248837	0.313096	0.110015	0.909916	3.258198	-38.647976	-150.553133
23472		6.219138	0.770490	8.417090	0.553073	-0.016561	0.666417	0.112626	-1.008326	0.044945	-0.621582	0.260742	-0.313965	0.061764	0.007671	0.084487	-0.248687	0.317759	0.111693	0.908135	3.317904	-39.248779	-150.554032
23473		6.462394	0.787511	8.446365	0.508329	-0.052252	0.839146	0.056476	-1.079267	0.076581	-0.626221	0.262939	-0.314209	0.064164	0.007876	0.084813	-0.248526	0.322729	0.113152	0.906244	3.337327	-39.880140	-150.539800
23474		6.523829	0.225626	8.243037	0.171695	0.390145	0.693310	0.041407	-1.157787	0.081708	-0.637207	0.256104	-0.300537	0.064759	0.002266	0.082807	-0.248330	0.328157	0.114627	0.904160	3.343271	-40.567535	-150.520429
23475		6.401989	-0.043214	8.140654	0.166331	0.691527	0.519316	0.051320	-1.252644	0.068033	-0.641846	0.258057	-0.296143	0.063509	-0.000431	0.081805	-0.248006	0.333890	0.116284	0.901936	3.368845	-41.297782	-150.520491
23476		6.235653	-0.074968	8.223292	0.421170	0.882851	0.461217	0.061125	-1.345549	0.036985	-0.655273	0.260254	-0.285156	0.061802	-0.000763	0.082650	-0.247512	0.340087	0.118146	0.899511	3.414369	-42.090936	-150.544248
23477		6.192916	-0.078139	8.220132	0.567742	0.980034	0.416887	0.094227	-1.464736	-0.001211	-0.662109	0.257813	-0.278564	0.061325	-0.000821	0.082652	-0.246801	0.346649	0.120364	0.896904	3.508799	-42.940085	-150.609817
23478		6.339044	0.286581	8.237471	0.809428	0.715323	0.529091	0.117218	-1.588038	-0.020410	-0.675293	0.255371	-0.265137	0.062734	0.002811	0.082876	-0.245972	0.353791	0.122861	0.893999	3.628875	-43.869572	-150.694640
23479		6.484093	0.937777	7.947024	1.038616	0.094383	0.433667	0.091995	-1.737247	0.012179	-0.684326	0.252930	-0.249512	0.064147	0.009345	0.080034	-0.245118	0.361538	0.125365	0.890781	3.730473	-44.874838	-150.770081
23480		7.128992	0.875434	7.433538	0.470420	-0.181725	0.511498	0.047590	-1.921094	0.065849	-0.699707	0.248291	-0.233887	0.070569	0.008760	0.075018	-0.244475	0.370188	0.127754	0.887058	3.767004	-45.990231	-150.782447
23481		6.822537	1.407431	8.106448	1.519405	-0.146911	0.765975	0.019613	-2.083134	0.104194	-0.704346	0.252686	-0.218506	0.067369	0.014102	0.081771	-0.243633	0.379549	0.130169	0.882973	3.791423	-47.196625	-150.805919
23482		6.779849	1.579587	7.984150	1.765545	-0.219522	0.629440	-0.053587	-2.257737	0.174796	-0.713379	0.250244	-0.200684	0.066878	0.015876	0.080596	-0.242975	0.389808	0.132301	0.878356	3.720398	-48.510100	-150.751219
23483		6.689216	1.206081	7.832803	1.745655	0.173219	0.408385	-0.101164	-2.448976	0.234530	-0.727051	0.254639	-0.178711	0.065912	0.012178	0.079133	-0.242172	0.400910	0.134346	0.873255	3.603517	-49.930478	-150.678532
23484		6.837793	0.848927	7.752802	1.661971	0.507700	0.412563	-0.150274	-2.650338	0.287248	-0.736084	0.256592	-0.145508	0.067330	0.008645	0.078418	-0.241455	0.412962	0.136278	0.867520	3.407694	-51.473072	-150.536352
23485		6.863409	0.642753	7.583781	1.688728	0.719324	0.269799	-0.197593	-2.897247	0.347471	-0.745117	0.260742	-0.121338	0.067515	0.006621	0.076815	-0.240554	0.426057	0.138167	0.861115	3.152274	-53.153225	-150.361574
23486		6.001728	0.185405	8.219621	2.598689	1.768468	-0.131380	-0.199337	-3.187762	0.376622	-0.749512	0.258545	-0.092285	0.058693	0.002048	0.083137	-0.239617	0.440373	0.140298	0.853798	2.851688	-55.006367	-150.131598
23487		6.086651	1.003697	8.549383	3.522595	1.341513	0.032429	-0.142739	-3.575812	0.434762	-0.756348	0.260498	-0.052490	0.059303	0.010229	0.086556	-0.238610	0.456138	0.142973	0.845318	2.534738	-57.076052	-149.852798
23488		5.856690	1.275468	9.630511	4.888937	1.835589	0.256321	-0.174698	-4.095481	0.557975	-0.758789	0.264893	-0.008301	0.056543	0.012999	0.097466	-0.237650	0.474106	0.145795	0.835159	2.049925	-59.451981	-149.402466
23489		5.408465	2.590365	10.210187	6.615134	1.296405	-0.079152	-0.229153	-4.765404	0.776312	-0.763428	0.271240	0.035889	0.051531	0.026225	0.103320	-0.236801	0.494797	0.148596	0.822812	1.253005	-62.205484	-148.644840
23490		4.354594	2.173080	10.198483	7.246925	2.094824	-1.401299	-0.218775	-5.718253	1.132303	-0.759277	0.282227	0.093018	0.040483	0.022078	0.103148	-0.236591	0.519354	0.151578	0.807044	-0.150419	-65.506376	-147.225457
23491		3.924489	2.814730	11.230574	9.016898	2.368845	-1.908661	-0.283054	-6.791602	1.581268	-0.755127	0.293213	0.156982	0.035179	0.028596	0.113506	-0.236938	0.548061	0.154250	0.787208	-2.744822	-69.385704	-144.597645
23492		4.653977	3.056555	12.449068	10.475223	2.870815	-1.572262	-0.431163	-7.956834	2.042295	-0.733154	0.311035	0.229736	0.041225	0.031275	0.126135	-0.237452	0.581126	0.156222	0.762564	-7.788624	-73.838693	-139.552312
23493		8.978917	4.176820	12.088922	10.683738	1.266110	1.514112	-0.633929	-8.748987	2.427077	-0.706787	0.324463	0.306885	0.083875	0.043201	0.124510	-0.237773	0.616604	0.156956	0.733913	-18.271217	-78.437656	-129.143614
23494		19.063291	0.889244	10.096799	7.360725	1.857849	10.390695	-0.782471	-8.930095	2.519970	-0.664551	0.342773	0.375000	0.185740	0.011671	0.109294	-0.237335	0.651709	0.156733	0.703123	-41.249962	-82.247455	-106.314753
23495		24.501003	-5.660127	5.650321	1.819542	4.918223	15.413458	-0.489749	-8.473445	2.112581	-0.633301	0.345215	0.437012	0.242899	-0.053872	0.066960	-0.236283	0.683181	0.158010	0.672656	-81.443522	-83.597167	-66.126413
23496		28.847770	-2.195075	6.992944	7.105402	3.095210	18.916536	0.247284	-7.971181	1.624667	-0.595459	0.360840	0.498535	0.285553	-0.019719	0.081326	-0.236089	0.710504	0.162541	0.642671	-116.270766	-81.886110	-30.900534
23497		25.595364	3.388178	7.735621	12.226256	-0.105609	14.199995	0.256006	-7.325477	1.621178	-0.553223	0.370361	0.544922	0.252607	0.035832	0.086696	-0.236068	0.734626	0.166114	0.614005	-133.283248	-78.683159	-13.506043
23498		23.636002	2.041027	8.638118	13.399843	2.287602	11.456945	0.375520	-6.776265	1.583724	-0.520020	0.384033	0.573242	0.233082	0.022093	0.094357	-0.236522	0.755930	0.169311	0.586482	-141.543610	-75.188111	-4.814569
23499		25.519598	1.880990	9.895148	16.114546	3.696880	12.075882	0.778643	-6.079840	1.610686	-0.479736	0.390869	0.608643	0.251870	0.020442	0.106720	-0.238898	0.773887	0.172590	0.560570	-145.595048	-71.823320	-0.130086
23500		24.166857	5.877854	12.338133	20.809494	2.259310	8.422229	0.648030	-4.694821	1.790450	-0.446533	0.404785	0.623535	0.238145	0.060509	0.129194	-0.242274	0.787627	0.172995	0.539463	-147.026125	-69.005551	1.777752
23501		18.538057	8.868978	18.133283	25.431158	3.239737	-0.126618	-0.069015	-3.048891	1.620882	-0.433105	0.406982	0.634766	0.181861	0.090236	0.184092	-0.243675	0.797284	0.170073	0.525392	-147.482652	-67.022418	2.223194
23502		22.337190	10.476193	20.628232	29.897560	3.249098	1.579444	-0.971290	-0.795014	1.087018	-0.430908	0.409180	0.643555	0.221974	0.106974	0.206651	-0.241948	0.801488	0.164119	0.521672	-147.395626	-66.297590	1.517284
23503		16.627858	6.375209	18.398508	23.922919	4.936259	-2.135431	-1.543446	0.998059	0.728940	-0.441650	0.393555	0.639648	0.166955	0.065773	0.182651	-0.238445	0.801376	0.155937	0.525950	-146.775597	-66.539223	-0.128363
23504		5.931010	3.314683	16.105936	16.466915	5.845022	-10.282339	-1.610662	2.369534	0.272575	-0.461670	0.388916	0.624268	0.061164	0.034521	0.160068	-0.234504	0.797205	0.147736	0.536326	-145.608658	-67.580026	-2.402761
23505		-1.845718	1.311872	11.499045	9.076690	4.978317	-15.305996	-1.379632	2.552442	0.014065	-0.472656	0.382080	0.619873	-0.016989	0.013911	0.115119	-0.230880	0.791971	0.140951	0.547365	-144.298398	-68.761513	-4.669811
23506		-2.772944	0.895826	9.503664	7.124877	4.224938	-15.307525	-1.085206	2.040799	0.096205	-0.485840	0.377686	0.602295	-0.026763	0.009462	0.095263	-0.228246	0.787650	0.135193	0.556088	-142.972666	-69.672165	-6.758147
23507		2.728759	2.261319	9.878279	10.065296	2.917031	-10.375211	-0.920888	2.018326	0.229080	-0.503662	0.368408	0.595947	0.028256	0.023099	0.098395	-0.226585	0.783263	0.129397	0.564283	-141.269469	-70.493320	-9.134934
23508		7.027745	2.889028	10.229470	12.064917	2.137603	-6.314821	-0.988223	2.687911	0.401759	-0.519287	0.368408	0.580566	0.071584	0.029535	0.101194	-0.225545	0.776962	0.121928	0.574972	-138.429092	-71.525258	-12.742706
23509		7.334261	1.896555	9.893567	11.375860	2.551191	-5.415705	-1.038781	3.645672	0.484986	-0.537354	0.365967	0.549561	0.075081	0.019655	0.097477	-0.225065	0.767877	0.112902	0.589036	-133.919189	-72.830469	-18.108543
23510		6.196890	1.066114	9.115110	9.940266	2.727667	-5.768886	-0.858781	4.539804	0.401891	-0.555176	0.365723	0.531738	0.063993	0.011176	0.089666	-0.225438	0.755465	0.103640	0.606390	-127.165806	-74.353101	-25.665130
23511		4.676988	1.952682	8.068785	8.941875	1.390652	-6.832508	-0.654464	5.177457	0.259976	-0.579590	0.356689	0.496582	0.048811	0.019851	0.079377	-0.226344	0.740456	0.094781	0.625707	-117.867041	-75.818353	-35.677718
23512		4.633514	3.318986	7.286283	8.689401	-0.392342	-6.667040	-0.610280	5.608370	0.164081	-0.602051	0.354248	0.458984	0.048324	0.033448	0.071424	-0.227153	0.723342	0.085827	0.646383	-105.699364	-76.932520	-48.558584
23513		4.569109	3.575470	6.838406	8.208718	-1.045438	-6.359124	-0.700443	5.981177	0.048554	-0.615479	0.349854	0.419189	0.047697	0.036002	0.066852	-0.227229	0.704579	0.076534	0.667891	-91.203058	-77.407458	-63.837198
23514		4.125968	2.698263	6.040246	6.877381	-0.758113	-6.221391	-0.722138	6.192138	-0.125975	-0.646729	0.347412	0.381592	0.043118	0.027171	0.058989	-0.226437	0.684291	0.067428	0.689874	-75.918230	-77.080491	-79.940034
23515		3.552864	1.971723	5.603884	5.957006	-0.369806	-6.308944	-0.511008	6.257263	-0.344019	-0.655518	0.342773	0.332764	0.037291	0.019795	0.054840	-0.225493	0.662915	0.059703	0.711430	-61.965756	-75.967913	-94.587667
23516		3.548558	1.695240	5.558198	5.589363	-0.316920	-5.939242	-0.173224	6.210984	-0.583087	-0.675537	0.333984	0.288818	0.037237	0.016893	0.054429	-0.224547	0.640461	0.053936	0.732447	-50.202042	-74.244755	-106.865176
23517		4.736742	2.021368	5.847380	5.615345	-0.972536	-4.500674	0.218412	6.194218	-0.798668	-0.681885	0.318359	0.244873	0.049228	0.019957	0.056990	-0.223880	0.617091	0.050290	0.752694	-40.685691	-72.078351	-116.677315
23518		5.865739	3.039394	6.274601	5.878706	-2.205464	-3.212181	0.529545	6.243756	-0.911538	-0.690674	0.313965	0.198486	0.060716	0.029957	0.060951	-0.223491	0.592394	0.048032	0.772537	-32.994337	-69.514857	-124.503942
23519		6.358651	3.571657	6.506168	5.754483	-2.907537	-2.469502	0.718820	6.323132	-0.920472	-0.701660	0.307373	0.145508	0.065766	0.035188	0.063132	-0.223468	0.566731	0.046422	0.791658	-26.969857	-66.644436	-130.555306
23520		5.907218	2.955212	6.491460	5.131573	-2.377454	-2.480883	0.945729	6.312084	-0.897355	-0.705566	0.291748	0.099609	0.061215	0.028979	0.063143	-0.223908	0.540108	0.045595	0.809981	-22.165078	-63.556404	-135.257102
23521		5.874354	2.334813	6.711299	4.595700	-1.870431	-2.043826	1.302990	6.168777	-0.951621	-0.714355	0.282959	0.048828	0.060888	0.022632	0.065406	-0.224869	0.513270	0.046489	0.826938	-18.180319	-60.434641	-138.927219
23522		6.541476	2.214914	7.429068	4.364062	-1.856284	-0.848050	1.734188	5.980231	-1.152494	-0.709473	0.271973	-0.010742	0.067724	0.021130	0.072475	-0.225742	0.485992	0.049846	0.842833	-14.523326	-57.322734	-142.043451
23523		9.033735	2.762182	8.885404	4.039942	-2.792465	2.187986	2.135034	5.862768	-1.450295	-0.706787	0.261230	-0.056885	0.093088	0.026022	0.086435	-0.226171	0.458364	0.055702	0.857699	-11.027894	-54.239974	-144.794322
23524		12.130306	3.875537	10.418265	3.321352	-4.393919	5.688136	2.374392	5.974874	-1.768024	-0.698975	0.230225	-0.106689	0.124680	0.036452	0.100933	-0.225508	0.429221	0.063135	0.872313	-7.621423	-51.014459	-147.370244
23525		14.168315	4.347260	11.922238	2.397254	-5.067478	8.359227	2.295577	6.244691	-2.007936	-0.689209	0.206055	-0.159180	0.145740	0.040685	0.115191	-0.223520	0.398606	0.070355	0.886680	-4.543709	-47.588858	-149.698213
23526		14.586160	1.801265	13.230730	0.535646	-2.573896	9.782497	2.189076	6.536580	-2.252478	-0.677246	0.179688	-0.207031	0.150264	0.014922	0.127618	-0.219918	0.366053	0.077219	0.900932	-1.739245	-43.911074	-151.863441
23527		15.452816	1.785775	14.587840	-0.683171	-2.472539	11.353070	2.258769	6.760519	-2.446351	-0.656006	0.153564	-0.261475	0.159533	0.014318	0.140716	-0.215498	0.332019	0.084361	0.914444	0.837536	-40.059626	-153.784578
23528		18.692971	2.668387	14.994122	-3.999541	-4.257654	13.574526	2.015495	6.964717	-2.619862	-0.634766	0.122803	-0.302490	0.192319	0.022719	0.143548	-0.209488	0.296586	0.090407	0.927350	3.076691	-36.012152	-155.541373
23529		20.384427	0.425775	13.252653	-8.931766	-3.330077	12.551665	1.643349	7.119557	-3.053164	-0.613770	0.098633	-0.348145	0.208410	0.000050	0.125172	-0.200837	0.260353	0.095005	0.939604	4.993876	-31.831146	-157.294443
23530		20.931115	-8.817862	9.711122	-16.463168	3.982423	8.159231	1.554230	6.859697	-3.685902	-0.599121	0.063477	-0.380127	0.210780	-0.092769	0.089188	-0.188469	0.224561	0.100221	0.950793	6.871467	-27.697164	-159.271938
23531		25.311212	-10.559237	6.691045	-23.165617	3.801092	5.854285	1.966968	6.185226	-4.118925	-0.582031	0.026123	-0.416504	0.252743	-0.111401	0.058012	-0.174074	0.191185	0.108271	0.959908	8.889103	-23.874498	-161.325756
23532		34.567058	-3.832307	4.173330	-30.611471	-5.115654	6.413094	1.393705	5.576747	-3.700670	-0.565186	-0.007080	-0.448486	0.345858	-0.044967	0.031792	-0.160302	0.161084	0.113691	0.967176	10.340382	-20.367626	-163.040791
23533		38.502576	-3.117667	-0.358628	-36.086811	-7.538547	1.711121	0.001750	5.146736	-2.592747	-0.553467	-0.015625	-0.477051	0.384316	-0.036162	-0.013483	-0.150641	0.134761	0.111593	0.972982	10.651231	-17.209188	-164.014458
23534		36.002511	-9.889906	-6.735039	-37.851062	-1.853445	-8.091371	-0.384436	4.437201	-1.609228	-0.541748	-0.031006	-0.505371	0.357604	-0.101922	-0.075109	-0.144802	0.112559	0.107523	0.977140	10.568373	-14.543215	-164.493662
23535		34.170354	-11.245427	-13.636224	-37.782145	-1.615042	-16.867392	0.584249	3.354905	-0.849383	-0.526123	-0.032959	-0.522949	0.338868	-0.113487	-0.142393	-0.142780	0.095376	0.108387	0.979168	10.927769	-12.575744	-164.615137
23536		33.555024	-7.275736	-18.496688	-36.477299	-6.487498	-21.988366	1.486637	2.118718	0.024394	-0.516602	-0.048340	-0.529053	0.333571	-0.071321	-0.189041	-0.144696	0.084020	0.114146	0.979272	11.727212	-11.396057	-164.363899
23537		32.005643	-5.561778	-19.890670	-34.388978	-8.470166	-23.832386	1.574237	0.912770	0.628284	-0.509766	-0.050537	-0.540039	0.319312	-0.053038	-0.200789	-0.148966	0.078872	0.120903	0.978249	12.533756	-10.972219	-163.891832
23538		30.702200	-5.845877	-18.626118	-32.940666	-7.988038	-23.034700	1.182030	-0.085679	0.591988	-0.518799	-0.050537	-0.533447	0.307271	-0.056448	-0.186467	-0.152255	0.078899	0.126528	0.977028	13.148754	-11.110538	-163.569622
23539		32.531916	2.489478	-20.430904	-32.253325	-16.885903	-22.323528	-0.247430	-1.036795	0.402469	-0.516846	-0.041748	-0.522705	0.326322	0.025299	-0.202650	-0.153481	0.084511	0.125927	0.976444	12.984632	-11.753167	-163.476375
23540		4.355703	-4.131387	-5.596565	-6.198238	1.102177	-15.078035	-1.377310	-2.747907	0.273527	-0.539551	-0.031006	-0.498535	0.044375	-0.041635	-0.055074	-0.152436	0.099346	0.121243	0.975804	12.243015	-13.346981	-163.680361
23541		-15.216005	12.697072	40.869204	25.490407	3.333548	27.628770	-0.776586	-4.157776	0.161328	-0.553467	-0.017822	-0.470215	-0.160708	0.128421	0.404913	-0.150299	0.120402	0.120494	0.973856	11.899483	-15.707686	-164.100278
23542		7.056073	-1.708833	23.208219	-1.998241	6.005021	13.664945	-1.439577	-3.690291	0.044716	-0.571533	-0.018311	-0.434814	0.066265	-0.015396	0.233446	-0.147370	0.139631	0.116243	0.972251	11.196876	-17.804755	-164.521203
23543		21.437246	-15.580413	-1.047597	-24.779861	8.910715	-6.669263	-0.437920	-4.209145	-0.233884	-0.585205	-0.011719	-0.406250	0.214342	-0.156071	-0.005623	-0.143463	0.160351	0.117330	0.969505	11.147522	-20.156566	-165.152782
23544		22.485725	-6.137180	12.290115	-18.578567	3.872502	8.464932	0.449518	-4.137421	0.113532	-0.603027	-0.012207	-0.375244	0.222288	-0.061528	0.127379	-0.141851	0.180315	0.122378	0.965603	11.563983	-22.516121	-165.595035
23545		7.889078	-3.590606	9.744447	-4.956024	4.402429	1.417886	0.373880	-3.550371	0.485638	-0.605713	-0.003418	-0.351074	0.077233	-0.035901	0.098758	-0.142350	0.197561	0.126218	0.961652	11.834784	-24.576301	-165.746287
23546		12.696656	3.707354	5.874891	-7.754959	-4.455175	1.564880	0.234539	-3.889207	0.689673	-0.612549	0.000977	-0.322510	0.125663	0.037438	0.061245	-0.143447	0.216691	0.129379	0.956937	11.997992	-26.861653	-165.824478
23547		23.532057	15.821459	11.586181	-10.382296	-16.136219	14.063814	-0.431020	-3.113794	0.687800	-0.615234	0.014160	-0.309570	0.232936	0.159273	0.119158	-0.144249	0.232418	0.128762	0.953202	11.736556	-28.700443	-165.801768
23548		17.986899	9.626685	8.434359	-8.469652	-10.165968	7.857804	-1.131497	-1.968253	0.516708	-0.615234	0.016357	-0.294189	0.178781	0.097211	0.085558	-0.144161	0.243148	0.124174	0.951145	11.045932	-29.890259	-165.720026
23549		7.230672	-2.165450	9.547120	-2.606353	3.363356	1.589450	-0.977601	-1.751086	0.573241	-0.615479	0.025146	-0.290039	0.071527	-0.020980	0.096203	-0.144613	0.252625	0.120057	0.949133	10.401137	-30.948927	-165.560486
23550		10.020760	0.527321	10.131836	-3.518491	0.379660	4.001020	-0.841764	-1.394251	0.722964	-0.611328	0.031982	-0.283691	0.099477	0.006062	0.101989	-0.146182	0.260500	0.116153	0.947248	9.751122	-31.835004	-165.241418
23551		9.658370	2.213975	8.149986	-3.354632	-1.778685	2.442414	-0.957676	-1.111670	0.683532	-0.611572	0.040771	-0.288330	0.096052	0.022860	0.081926	-0.147532	0.266955	0.111510	0.945799	9.019553	-32.539024	-164.905428
23552		10.386755	-3.539679	9.643712	-5.020300	3.769130	3.378306	-0.885767	-0.829821	0.547462	-0.611816	0.045166	-0.292969	0.103561	-0.034684	0.097022	-0.148516	0.272062	0.107201	0.944687	8.353837	-33.084112	-164.616319
23553		7.937364	-2.349048	9.987030	-2.351967	3.233600	2.527160	-0.486153	-0.478888	0.330162	-0.609619	0.047607	-0.297607	0.079172	-0.023117	0.100117	-0.149167	0.274962	0.104784	0.944016	7.972872	-33.394275	-164.436532
23554		7.971225	-0.552232	9.577369	-1.895536	1.402343	2.435230	-0.289792	-0.359644	0.099488	-0.621094	0.053955	-0.297852	0.079543	-0.005344	0.095925	-0.149090	0.277162	0.103538	0.943522	7.782018	-33.634316	-164.396703
23555		6.644757	-1.004317	9.410720	-1.022553	2.071460	1.518088	-0.058146	-0.261179	-0.071150	-0.616699	0.058594	-0.302246	0.066321	-0.010039	0.094197	-0.148550	0.278502	0.103531	0.943213	7.783860	-33.788747	-164.467024
23556		5.454077	-0.340637	8.902278	-0.065169	1.591845	0.510841	0.070872	-0.274239	-0.149834	-0.623535	0.060791	-0.302490	0.054416	-0.003479	0.089096	-0.147839	0.279901	0.104263	0.942830	7.889210	-33.960918	-164.589252
23557		6.193718	-0.269677	8.589111	-0.762623	1.304652	0.671769	0.167397	-0.333016	-0.190833	-0.628174	0.062988	-0.302490	0.061791	-0.002828	0.085992	-0.147011	0.281349	0.105539	0.942386	8.070905	-34.146388	-164.749358
23558		7.112585	1.292193	7.954148	-1.258065	-0.495954	0.850249	0.174701	-0.346230	-0.188870	-0.636963	0.058350	-0.304688	0.071000	0.012785	0.079676	-0.146222	0.282988	0.106864	0.941869	8.256043	-34.355535	-164.907147
23559		6.457867	1.766994	8.087659	-0.483119	-0.726779	0.650333	0.122122	-0.329302	-0.151469	-0.634766	0.060547	-0.306885	0.064459	0.017572	0.080994	-0.145515	0.284469	0.107868	0.941418	8.398385	-34.541359	-165.041931
23560		5.908548	1.504416	8.231132	-0.031676	-0.294749	0.426343	0.106320	-0.324786	-0.109450	-0.641602	0.062744	-0.302490	0.058960	0.014968	0.082415	-0.144960	0.286109	0.108763	0.940903	8.518895	-34.745660	-165.152865
23561		5.679764	0.610040	8.148667	-0.163114	0.591202	0.119905	0.132151	-0.344396	-0.093705	-0.648438	0.064941	-0.304932	0.056660	0.006020	0.081588	-0.144531	0.287683	0.109741	0.940376	8.646812	-34.944476	-165.251000
23562		5.758645	0.843351	8.381049	0.004560	0.457029	0.380747	0.228468	-0.404536	-0.108868	-0.652832	0.064697	-0.298096	0.057421	0.008306	0.083936	-0.144138	0.289601	0.111255	0.939669	8.841067	-35.192791	-165.367454
23563		4.975166	1.301480	8.657744	0.953501	0.313094	0.207054	0.271655	-0.463107	-0.153805	-0.655273	0.066895	-0.291504	0.049561	0.012859	0.086710	-0.143560	0.291595	0.113061	0.938925	9.082460	-35.452893	-165.522450
23564		4.761874	1.715243	8.667456	1.306939	0.019999	0.138870	0.287000	-0.535836	-0.148993	-0.657471	0.066895	-0.284912	0.047399	0.016993	0.086826	-0.142997	0.294055	0.114996	0.938008	9.336977	-35.770512	-165.683356
23565		4.807816	2.246936	8.213636	1.259839	-0.577089	-0.132446	0.216127	-0.610240	-0.099194	-0.661865	0.066895	-0.276123	0.047838	0.022357	0.082307	-0.142507	0.296805	0.116564	0.937023	9.537836	-36.117846	-165.821171
23566		5.511363	1.994748	8.253542	0.702797	-0.428667	0.276763	0.181139	-0.672635	-0.042114	-0.666504	0.068848	-0.267334	0.054840	0.019861	0.082738	-0.142214	0.300032	0.117939	0.935867	9.700684	-36.521492	-165.926626
23567		6.402389	2.244740	7.650027	-0.162974	-0.983682	0.363644	0.148082	-0.697762	0.017466	-0.671143	0.071045	-0.262939	0.063754	0.022396	0.076740	-0.142114	0.303300	0.119074	0.934684	9.823565	-36.928941	-165.996706
23568		6.488468	2.174670	7.390450	-0.320430	-0.985093	0.206026	0.071296	-0.721818	0.095048	-0.666748	0.077881	-0.258789	0.064607	0.021751	0.074146	-0.142266	0.306906	0.119761	0.933395	9.871553	-37.373222	-166.013646
23569		6.450255	1.908041	7.587000	-0.200531	-0.649070	0.303981	-0.027064	-0.748949	0.169036	-0.669189	0.080078	-0.247803	0.064202	0.019145	0.076108	-0.142572	0.310620	0.119879	0.932104	9.833902	-37.824338	-165.983696
23570		5.968366	2.077431	7.963160	0.514816	-0.586187	0.323379	-0.086842	-0.761220	0.220724	-0.667236	0.086670	-0.239014	0.059357	0.020875	0.079849	-0.143077	0.314578	0.119653	0.930727	9.736254	-38.302427	-165.909558
23571		6.116899	1.402579	8.162891	0.368109	0.082321	0.476799	-0.118341	-0.821002	0.238674	-0.669678	0.093262	-0.234863	0.060816	0.014147	0.081871	-0.143516	0.318724	0.119286	0.929295	9.618754	-38.800872	-165.836032
23572		6.435246	0.010746	8.780840	0.091466	1.522068	0.966452	-0.024523	-0.869865	0.195131	-0.667236	0.088867	-0.228027	0.063970	0.000181	0.088087	-0.143956	0.323108	0.119461	0.927689	9.572599	-39.337066	-165.787252
23573		6.398173	0.023415	8.499044	0.057186	1.457781	0.724948	0.189486	-0.898109	0.123475	-0.665283	0.097656	-0.221680	0.063599	0.000193	0.085277	-0.144304	0.327307	0.120758	0.925993	9.689342	-39.867977	-165.806148
23574		6.485509	0.499403	8.365475	0.170802	1.003355	0.735093	0.303177	-0.907669	0.053452	-0.665039	0.093262	-0.221680	0.064473	0.004884	0.083955	-0.144593	0.331528	0.122701	0.924190	9.901275	-40.411472	-165.867820
23575		7.006572	0.836536	7.407267	-0.564914	0.340980	0.396290	0.360314	-0.932567	0.001840	-0.669678	0.097656	-0.219482	0.069719	0.008232	0.074413	-0.144632	0.335673	0.125008	0.922376	10.181578	-40.949555	-165.987063
23576		6.897018	0.614988	7.123536	-0.643442	0.534018	0.086393	0.383712	-0.950420	-0.047614	-0.672119	0.097656	-0.212891	0.068632	0.005996	0.071574	-0.144574	0.339946	0.127511	0.920476	10.497811	-41.505632	-166.134996
23577		7.585590	1.103139	6.567511	-1.217539	-0.162190	0.206328	0.383354	-0.974604	-0.077012	-0.671875	0.095459	-0.208252	0.075539	0.010876	0.066065	-0.144254	0.344200	0.130081	0.918584	10.843319	-42.057993	-166.329700
23578		7.440338	1.623283	6.632236	-0.804930	-0.531844	0.239606	0.337887	-0.946551	-0.088687	-0.678467	0.093018	-0.208252	0.074095	0.016087	0.066701	-0.143939	0.348439	0.132432	0.916697	11.162698	-42.605730	-166.517205
23579		7.069137	2.489961	6.712463	-0.099895	-1.182445	0.178349	0.241070	-0.947922	-0.051235	-0.683105	0.090820	-0.203857	0.070378	0.024800	0.067489	-0.143499	0.352671	0.134278	0.914877	11.421079	-43.144385	-166.699636
23580		7.178570	2.362555	7.100536	0.101574	-0.900205	0.517350	0.151628	-0.934565	0.023367	-0.685303	0.090820	-0.199463	0.071450	0.023580	0.071358	-0.143370	0.357045	0.135567	0.913009	11.582894	-43.696911	-166.808930
23581		7.381616	2.738784	6.801177	0.001374	-1.347963	0.503679	0.066102	-0.922708	0.124440	-0.687500	0.088379	-0.192627	0.073484	0.027411	0.068360	-0.143433	0.361389	0.136278	0.911182	11.650896	-44.240916	-166.857901
23582		7.173966	2.614061	6.939207	0.285192	-1.127993	0.439006	-0.068228	-0.919587	0.217673	-0.694336	0.094971	-0.192871	0.071391	0.026242	0.069712	-0.143790	0.365969	0.136204	0.909307	11.583199	-44.807374	-166.816928
23583		7.190681	2.351898	6.910649	0.260360	-0.888859	0.392004	-0.147316	-0.921731	0.275956	-0.701172	0.094971	-0.188477	0.071555	0.023669	0.069419	-0.144150	0.370547	0.135662	0.907475	11.443851	-45.368220	-166.744815
23584		6.887911	1.781975	7.122808	0.498945	-0.237800	0.239518	-0.219442	-0.921452	0.291738	-0.705811	0.099365	-0.179688	0.068524	0.017998	0.071525	-0.144566	0.375272	0.134761	0.905600	11.243021	-45.943607	-166.638621
23585		6.880616	1.274619	7.178051	0.458395	0.249754	0.198234	-0.269522	-0.965849	0.264481	-0.712402	0.096924	-0.173096	0.068441	0.012934	0.072094	-0.144608	0.380111	0.133712	0.903728	11.039597	-46.527642	-166.576136
23586		7.205399	0.344779	7.145968	-0.007355	1.047865	0.286940	-0.250272	-1.023953	0.180804	-0.712402	0.096924	-0.164063	0.071684	0.003602	0.071823	-0.144372	0.385228	0.132953	0.901709	10.894316	-47.148324	-166.572682
23587		7.866202	0.280275	6.781948	-0.593433	0.890021	0.521967	-0.192784	-1.101623	0.122599	-0.721436	0.096924	-0.157471	0.078285	0.002916	0.068249	-0.143821	0.390507	0.132612	0.899574	10.832802	-47.793220	-166.644351
23588		7.777454	-0.055983	6.924245	-0.440110	1.292857	0.510615	-0.083161	-1.215647	0.055734	-0.730469	0.101074	-0.148682	0.077352	-0.000509	0.069714	-0.143187	0.396262	0.132979	0.897101	10.885485	-48.508621	-166.779236
23589		7.137623	-0.073818	6.980232	0.128785	1.468444	0.061540	-0.015351	-1.335576	-0.027315	-0.737061	0.096680	-0.139648	0.070908	-0.000743	0.070277	-0.142146	0.402334	0.133888	0.894425	11.055567	-49.268677	-167.021785
23590		7.492150	0.107592	6.942498	0.077550	1.290730	0.319850	0.041928	-1.461122	-0.091564	-0.743896	0.098633	-0.128662	0.074412	0.001027	0.069970	-0.140918	0.408962	0.135271	0.891400	11.320488	-50.105071	-167.338285
23591		7.641047	0.461821	6.655143	0.054487	0.905758	0.290005	0.066388	-1.546068	-0.120359	-0.748291	0.096436	-0.113037	0.075896	0.004550	0.067141	-0.139469	0.415809	0.136869	0.888211	11.649306	-50.971241	-167.719922
23592		7.456153	0.822596	6.471274	0.315584	0.600564	0.070932	0.068396	-1.595617	-0.136890	-0.752441	0.087402	-0.092773	0.074048	0.008153	0.065308	-0.137976	0.422936	0.138541	0.884813	12.009130	-51.875338	-168.131025
23593		7.519105	1.473441	6.605891	0.754590	0.109755	0.275033	0.047886	-1.629979	-0.125974	-0.768066	0.084961	-0.077148	0.074659	0.014671	0.066672	-0.136387	0.430109	0.140109	0.881348	12.377954	-52.784757	-168.567193
23594		7.021789	1.767065	6.781707	1.433519	0.029404	0.003705	0.041163	-1.662089	-0.088653	-0.774658	0.082520	-0.059326	0.069659	0.017626	0.068401	-0.134933	0.437531	0.141589	0.877674	12.739847	-53.729206	-168.992829
23595		7.372711	1.682262	6.538935	1.176328	0.043816	0.114871	0.036046	-1.742323	-0.054430	-0.774658	0.080322	-0.043945	0.073158	0.016791	0.066031	-0.133534	0.445193	0.143006	0.873797	13.107050	-54.707061	-169.424764
23596		7.698370	1.331743	6.317886	0.871057	0.320484	0.191799	0.054496	-1.882312	-0.030887	-0.781250	0.077881	-0.026123	0.076387	0.013288	0.063903	-0.132161	0.453542	0.144543	0.869449	13.518358	-55.778364	-169.892083
23597		7.731452	0.921313	6.140574	0.753262	0.704760	0.049529	0.080822	-2.048895	-0.028735	-0.790527	0.084473	-0.001953	0.076681	0.009177	0.062197	-0.130730	0.462445	0.146274	0.864672	14.002972	-56.926543	-170.423222
23598		7.798053	0.675189	6.049302	0.759548	0.975256	0.001960	0.098869	-2.278013	-0.051901	-0.792480	0.075439	0.018311	0.077287	0.006702	0.061379	-0.129039	0.472362	0.148278	0.859207	14.611650	-58.209572	-171.082764
23599		7.227286	0.355743	6.942711	1.850673	1.746797	-0.113217	0.126225	-2.540411	-0.125151	-0.798828	0.068604	0.052002	0.071385	0.003468	0.070340	-0.126903	0.483156	0.150711	0.853078	15.419243	-59.608746	-171.945823
23600		6.919480	0.243490	7.332095	2.515256	2.128519	-0.282011	0.192160	-2.906608	-0.201688	-0.803223	0.061768	0.078857	0.068122	0.002295	0.074318	-0.124243	0.495430	0.153815	0.845845	16.535885	-61.203376	-173.111846
23601		6.689790	0.027389	8.359528	3.648536	2.863283	-0.163113	0.268438	-3.409364	-0.290854	-0.802979	0.057373	0.121094	0.065460	0.000065	0.084720	-0.121033	0.509477	0.157733	0.837200	18.084895	-63.030780	-174.694441
23602		6.391385	0.970134	9.989917	5.794007	2.796483	0.196266	0.371548	-4.049142	-0.414602	-0.798340	0.054932	0.158936	0.061894	0.009384	0.101184	-0.116930	0.525966	0.162715	0.826566	20.342034	-65.167996	-176.978699
23603		5.349398	1.921815	10.806458	7.643224	2.445130	-0.611440	0.547579	-4.822871	-0.456785	-0.795898	0.048340	0.203613	0.050910	0.018802	0.109365	-0.112516	0.545137	0.168916	0.813408	23.576343	-67.645718	179.831056
23604		5.632238	3.477939	11.476548	9.125926	1.487622	-0.326472	0.677224	-5.739973	-0.400430	-0.791016	0.041504	0.263672	0.053065	0.034279	0.116436	-0.107743	0.567713	0.175858	0.796974	28.286599	-70.527146	175.192921
23605		6.728642	5.010111	12.080510	10.405956	0.595273	0.560739	0.707755	-6.453393	-0.242650	-0.772949	0.039307	0.323730	0.063400	0.049590	0.123069	-0.103044	0.592616	0.182714	0.777691	35.069980	-73.617440	168.488814
23606		10.348621	5.720695	11.304083	9.727726	0.122069	3.334676	0.681943	-7.153065	0.048499	-0.757324	0.046143	0.378906	0.099338	0.056837	0.116838	-0.098548	0.619896	0.188713	0.755251	45.467913	-76.792572	158.130332
23607		19.592296	3.056494	7.286280	4.287919	2.147758	10.756213	0.903896	-7.484048	0.177382	-0.726074	0.050781	0.451904	0.192984	0.030385	0.080260	-0.094874	0.647514	0.195092	0.730523	62.248438	-79.440728	141.517129
23608		28.414736	1.606561	5.549883	2.528171	4.497997	18.714411	1.519960	-7.090744	-0.139951	-0.703613	0.052979	0.498535	0.281951	0.015395	0.065641	-0.092301	0.672246	0.204285	0.705573	85.575007	-80.522025	118.720972
23609		27.916143	6.067454	6.618388	7.107701	1.749250	18.578074	1.974621	-6.330375	-0.217938	-0.670166	0.060059	0.553711	0.276934	0.059657	0.075566	-0.091633	0.693149	0.214754	0.681930	107.767339	-79.969553	97.354845
23610		27.918342	8.027585	7.362559	10.207526	1.132311	18.335860	2.382335	-5.527063	0.287174	-0.645752	0.071289	0.584473	0.276875	0.079729	0.082251	-0.094883	0.711003	0.224262	0.659681	124.744497	-78.703688	81.469554
23611		24.917545	9.489820	8.395534	13.064791	0.354491	14.894175	2.465945	-4.700034	0.691901	-0.617188	0.087158	0.617188	0.246765	0.094662	0.090942	-0.100602	0.725929	0.232048	0.639578	136.993484	-77.230090	70.388726
23612		21.339390	9.356489	12.609449	17.466987	2.087974	9.994841	2.321045	-3.864043	0.856928	-0.597656	0.105225	0.636475	0.210492	0.092968	0.131261	-0.107241	0.738012	0.238190	0.622177	145.744938	-75.797520	62.754024
23613		14.699779	13.733612	18.637375	24.666316	-0.057441	2.168552	1.544178	-2.668415	1.100625	-0.589355	0.123047	0.646973	0.143731	0.136679	0.189363	-0.113142	0.746768	0.240296	0.609749	151.742235	-74.809010	57.465048
23614		6.102527	14.485482	18.446802	23.882393	-2.634034	-6.646771	0.007907	-1.892419	1.224224	-0.587158	0.127441	0.653320	0.058388	0.145210	0.185035	-0.114596	0.754022	0.236755	0.601886	155.764294	-74.139926	53.290276
23615		9.315710	7.653033	15.634019	18.726344	2.475573	-4.072395	-0.928009	-1.870894	1.184886	-0.571533	0.127686	0.671143	0.091233	0.077802	0.156841	-0.112411	0.761602	0.230516	0.595138	158.829365	-73.403706	49.540366
23616		7.481736	5.447418	16.080722	17.812286	3.945603	-6.438047	-1.002948	-0.842631	0.821795	-0.564453	0.121094	0.669189	0.073913	0.055586	0.160843	-0.110026	0.765638	0.224822	0.592578	160.291664	-73.111551	47.406864
23617		2.018123	3.168060	12.894287	12.974694	3.212691	-11.119105	-0.715894	-0.311036	0.628855	-0.571289	0.120850	0.664795	0.019880	0.032205	0.128859	-0.108769	0.767719	0.220428	0.591767	161.212942	-73.052646	46.011139
23618		1.457249	4.166493	11.799638	12.401136	1.649849	-11.297232	-0.532922	-0.129506	0.717609	-0.575684	0.123047	0.657959	0.014346	0.042031	0.117894	-0.108664	0.769199	0.216110	0.591457	162.271358	-73.109757	44.578064
23619		3.092235	5.595330	11.055364	12.760993	0.307527	-9.422675	-0.643503	0.215548	0.971811	-0.573730	0.132080	0.655518	0.030768	0.056458	0.110339	-0.109266	0.770017	0.210315	0.592371	163.569192	-73.381680	42.833619
23620		5.397034	6.715103	10.762716	13.491381	-0.521291	-7.026314	-0.998106	0.799409	1.302216	-0.584961	0.127441	0.646729	0.053958	0.068038	0.107073	-0.110075	0.769541	0.201845	0.595776	165.029119	-74.025518	40.708681
23621		6.445978	6.134685	10.540298	13.229210	-0.151351	-5.908944	-1.406185	1.664310	1.526898	-0.596191	0.129639	0.631104	0.064857	0.062578	0.104427	-0.110856	0.766899	0.190813	0.602634	166.467568	-75.155317	38.376950
23622		5.234556	3.986031	9.716996	11.301634	0.990285	-6.814178	-1.541957	2.516959	1.613007	-0.607666	0.134033	0.613281	0.053232	0.041031	0.096190	-0.112148	0.761593	0.178509	0.612808	167.903108	-76.770001	35.978653
23623		3.939628	2.421466	8.767849	9.540910	1.643110	-7.686391	-1.307252	3.165898	1.596301	-0.630371	0.144775	0.588379	0.040578	0.025105	0.086880	-0.114843	0.753986	0.166584	0.624953	169.684718	-78.717218	33.385372
23624		3.909631	2.500976	7.943164	8.777216	1.073532	-7.276372	-0.912990	3.659187	1.536734	-0.644043	0.149170	0.561523	0.040344	0.025677	0.078585	-0.119188	0.744179	0.155750	0.638540	172.154931	-80.932616	30.336937
23625		4.678315	3.631422	7.353138	8.684518	-0.297806	-6.121800	-0.623764	4.152201	1.479933	-0.660400	0.160156	0.525635	0.048023	0.036894	0.072428	-0.124776	0.732336	0.145706	0.653364	176.201250	-83.376369	25.888705
23626		5.494301	4.735844	6.877476	8.585892	-1.645965	-4.967545	-0.526174	4.678180	1.446805	-0.678467	0.168945	0.483154	0.056184	0.047940	0.067345	-0.130910	0.718181	0.135678	0.669828	-174.759780	-86.062293	16.503991
23627		5.934598	5.002665	6.536071	8.172471	-2.230222	-4.228194	-0.540260	5.197565	1.412777	-0.694580	0.177734	0.445068	0.060659	0.050626	0.063659	-0.137163	0.701901	0.125312	0.687618	-129.620125	-88.496115	-28.986015
23628		5.615490	4.378087	6.140880	7.301787	-2.023232	-4.246295	-0.535191	5.641204	1.362505	-0.708496	0.186523	0.400391	0.057554	0.044331	0.059680	-0.143412	0.683383	0.114731	0.706581	-40.512122	-87.010648	-118.445811
23629		4.414193	3.221234	5.665185	6.212849	-1.270794	-5.151429	-0.377890	5.935036	1.274711	-0.718018	0.199951	0.348877	0.045589	0.032605	0.055252	-0.149950	0.663185	0.104701	0.725768	-25.478643	-83.739237	-133.742825
23630		3.880320	2.354450	5.488180	5.541258	-0.653735	-5.388306	-0.022122	6.013098	1.147741	-0.724854	0.204346	0.304443	0.040293	0.023779	0.053683	-0.156973	0.641634	0.096209	0.744586	-20.199450	-80.301755	-139.099479
23631		4.807604	2.227065	5.733053	5.339848	-0.708369	-4.163818	0.417703	6.018293	0.976408	-0.731934	0.215576	0.248535	0.049664	0.022393	0.055899	-0.164762	0.619158	0.089834	0.762513	-17.154490	-76.864405	-141.964311
23632		6.024577	2.787899	6.051870	5.273515	-1.456795	-2.689423	0.789339	6.095281	0.802753	-0.734863	0.229004	0.201416	0.061943	0.027891	0.058758	-0.172833	0.595278	0.085265	0.780066	-14.726797	-73.372512	-144.016127
23633		6.186599	2.973904	6.220022	5.058046	-1.767432	-2.257706	1.012223	6.172145	0.661901	-0.730469	0.233643	0.150391	0.063651	0.029639	0.060404	-0.180969	0.570409	0.081839	0.796986	-12.750464	-69.857057	-145.490791
23634		5.831532	1.969413	6.227700	4.361167	-0.925397	-2.277937	1.271547	6.142407	0.515780	-0.732910	0.240479	0.099121	0.060143	0.019459	0.060573	-0.189064	0.544633	0.079828	0.813177	-10.933476	-66.341213	-146.663371
23635		5.912047	1.330052	6.231150	3.651660	-0.490248	-1.941698	1.610406	5.991834	0.313086	-0.730957	0.247314	0.041260	0.060933	0.012902	0.060609	-0.197022	0.518706	0.079794	0.828106	-9.136551	-62.939795	-147.634375
23636		7.087371	1.455464	6.723994	3.173541	-0.844508	-0.498682	1.946415	5.797308	0.095734	-0.719727	0.242920	0.001465	0.072778	0.013947	0.065286	-0.204732	0.492484	0.081855	0.841929	-7.252357	-59.631307	-148.505492
23637		8.594171	1.824722	7.362437	2.626025	-1.473394	1.246001	2.129329	5.627308	-0.150652	-0.717529	0.240967	-0.051758	0.087984	0.017414	0.071356	-0.211554	0.466429	0.085368	0.854635	-5.339421	-56.446805	-149.326087
23638		9.791117	1.688403	7.982432	1.816496	-1.588684	2.700149	2.129835	5.483178	-0.453588	-0.708252	0.232422	-0.095703	0.100090	0.015827	0.077272	-0.216880	0.440247	0.089692	0.866661	-3.406738	-53.320934	-150.189950
23639		9.763676	1.009526	8.623845	1.286384	-0.853275	3.160079	2.021538	5.281705	-0.808469	-0.698730	0.221436	-0.139648	0.099907	0.008840	0.083713	-0.220111	0.414725	0.094445	0.877858	-1.503741	-50.328438	-151.141554
23640		10.427733	0.197801	10.129387	0.820155	0.109489	4.700941	1.856435	4.954318	-1.178917	-0.689209	0.206055	-0.183594	0.106749	0.000429	0.098678	-0.221091	0.390122	0.099555	0.888264	0.369494	-47.483558	-152.208420
23641		14.847942	-1.213892	12.464521	-1.873325	0.722754	9.505130	1.725960	4.806346	-1.537034	-0.675049	0.184326	-0.224854	0.151311	-0.014349	0.120914	-0.219952	0.366065	0.104849	0.898122	2.202078	-44.721935	-153.383973
23642		18.100413	-2.229958	13.773324	-4.763375	0.990233	12.514341	1.679833	5.014934	-1.803978	-0.669678	0.159912	-0.266113	0.184160	-0.025081	0.132939	-0.217502	0.340507	0.110138	0.908085	3.991705	-41.784304	-154.584989
23643		18.787146	-2.440643	14.718199	-6.084207	1.224111	13.357516	1.641353	5.321920	-1.861358	-0.637451	0.135986	-0.302979	0.191449	-0.027356	0.141902	-0.214691	0.313491	0.114903	0.917839	5.609412	-38.668001	-155.638933
23644		19.272337	-2.525095	15.543442	-7.434343	1.314085	13.898334	1.532040	5.609031	-1.731211	-0.618896	0.116455	-0.344238	0.196742	-0.028104	0.149746	-0.212263	0.284886	0.118576	0.927213	6.968528	-35.354815	-156.434846
23645		20.363952	-4.183978	15.380331	-10.533470	2.177921	13.699843	1.403185	5.884747	-1.578145	-0.597900	0.096680	-0.372559	0.207696	-0.044518	0.147425	-0.210340	0.255148	0.121006	0.935956	8.070271	-31.905445	-156.978811
23646		19.888979	-9.634469	11.600554	-15.587924	5.674990	8.830861	1.534608	6.029509	-1.605892	-0.572510	0.074951	-0.411621	0.201464	-0.098811	0.109205	-0.208295	0.224154	0.123836	0.943945	9.179871	-28.344227	-157.435301
23647		19.738355	-11.045204	7.228910	-18.753005	5.388075	3.714100	1.914769	5.802162	-1.629924	-0.556152	0.057373	-0.437500	0.198437	-0.112715	0.065470	-0.206249	0.193764	0.128576	0.950466	10.449866	-24.921089	-157.828762
23648		22.691129	-8.139839	4.898619	-21.458036	0.922140	2.174044	1.651196	5.286931	-1.247471	-0.535400	0.040039	-0.465820	0.227573	-0.083184	0.042294	-0.205163	0.166038	0.132136	0.955447	11.453977	-21.808194	-157.975462
23649		25.693732	-10.054360	0.840708	-26.468398	0.059273	-1.987401	1.073139	4.748855	-0.710342	-0.514893	0.031494	-0.487549	0.256673	-0.101477	0.001767	-0.205749	0.141840	0.132924	0.959104	12.006920	-19.073199	-157.808961
23650		27.251321	-9.527190	-3.980517	-28.880024	-2.728473	-7.051449	0.744588	4.119344	-0.203833	-0.503418	0.027344	-0.509521	0.271514	-0.095386	-0.045760	-0.207935	0.121174	0.132370	0.961539	12.310166	-16.742746	-157.413462
23651		28.542709	-8.223443	-9.016570	-30.321083	-6.199486	-12.202946	0.487195	3.422587	0.431841	-0.487793	0.029785	-0.522949	0.284003	-0.081392	-0.095233	-0.212555	0.104587	0.130857	0.962683	12.397768	-14.891893	-156.724946
23652		29.438773	-9.929729	-13.635933	-32.308640	-6.845491	-17.583610	0.623051	2.753416	1.105684	-0.480957	0.027588	-0.536133	0.293012	-0.097241	-0.140705	-0.219960	0.091452	0.130325	0.962429	12.509751	-13.495185	-155.738656
23653		27.087021	-12.026483	-17.543784	-31.300714	-5.798269	-22.954327	1.190763	1.956356	1.438710	-0.469971	0.034424	-0.547363	0.269983	-0.117263	-0.178786	-0.228697	0.081764	0.133220	0.960867	12.944375	-12.595226	-154.658644
23654		25.343194	-8.149209	-19.388297	-27.825701	-9.562649	-24.605898	1.340941	0.887352	1.362454	-0.465332	0.025635	-0.544922	0.253108	-0.078460	-0.195539	-0.236373	0.076997	0.138074	0.958715	13.515356	-12.293004	-153.761909
23655		24.013801	1.310259	-18.224713	-21.869256	-17.094671	-21.645696	-0.004675	-0.282866	1.198763	-0.463379	0.036621	-0.545410	0.240311	0.014538	-0.181908	-0.241932	0.079292	0.137910	0.957164	13.369329	-12.622147	-153.115342
23656		25.582606	-4.344146	-18.840475	-26.156804	-13.226271	-22.818651	-3.193551	-1.512140	1.516127	-0.468994	0.069824	-0.513184	0.257572	-0.044474	-0.185757	-0.246853	0.091601	0.123849	0.956731	11.382102	-13.675356	-152.433808
23657		-15.960351	-0.654139	16.745080	15.590649	12.438821	1.922321	-2.381708	-3.522469	1.439007	-0.487793	0.089600	-0.491699	-0.162477	-0.005731	0.164677	-0.250417	0.112364	0.116102	0.954561	9.897796	-15.822853	-151.979629
23658		-6.418436	8.155314	43.620490	17.481556	8.156914	30.657564	-2.359413	-4.537389	2.092792	-0.506592	0.115967	-0.459473	-0.074926	0.085932	0.433590	-0.256393	0.138323	0.109307	0.950359	8.300943	-18.600318	-151.165461
23659		22.214849	-20.757149	7.080574	-27.515521	9.315328	1.611100	-1.684956	-3.271405	1.335487	-0.509277	0.129150	-0.442139	0.222308	-0.205461	0.076178	-0.259751	0.156836	0.104538	0.947103	7.150639	-20.572221	-150.625841
23660		19.374135	-14.904866	2.115444	-22.986149	4.293214	-2.387252	-0.363456	-3.831233	0.837139	-0.524902	0.128906	-0.417969	0.193907	-0.148194	0.025138	-0.261409	0.176041	0.107095	0.942977	6.850801	-22.829905	-150.396309
23661		20.772791	-1.686995	15.725735	-12.840300	-3.227741	12.688159	0.004497	-3.607325	0.574864	-0.529541	0.128662	-0.395752	0.204894	-0.016282	0.160970	-0.262161	0.193426	0.111295	0.938867	6.812519	-24.932904	-150.304962
23662		15.609422	2.234312	6.711412	-8.869589	-6.707813	3.225763	-0.401879	-3.141449	0.309008	-0.543213	0.137451	-0.375977	0.154980	0.022721	0.069509	-0.261476	0.209060	0.113183	0.935475	6.587624	-26.764873	-150.336346
23663		16.051699	0.521507	6.282069	-9.902901	-5.400759	3.230707	-0.587826	-3.343768	0.077933	-0.550049	0.139648	-0.364990	0.159435	0.005467	0.065477	-0.259308	0.225586	0.114694	0.932049	6.335650	-28.685198	-150.527038
23664		21.485403	1.644848	12.213311	-10.825057	-6.511438	11.491545	-0.710629	-2.816584	0.395281	-0.554688	0.145996	-0.352051	0.213073	0.017312	0.125082	-0.258746	0.240066	0.114557	0.928599	5.887166	-30.340127	-150.457451
23665		14.996487	-3.557269	9.464236	-9.380406	-0.205381	5.649494	-0.588258	-1.393125	0.625893	-0.554932	0.150635	-0.354248	0.149410	-0.034824	0.095788	-0.260150	0.247749	0.112859	0.926394	5.378914	-31.181272	-150.130302
23666		8.176410	0.364498	12.254980	-0.860308	0.363232	4.894306	-0.489472	-1.206401	0.386144	-0.562012	0.161621	-0.345947	0.081015	0.004103	0.123030	-0.260690	0.254435	0.111664	0.924573	4.989633	-31.918068	-149.935306
23667		8.918620	-3.853735	11.631392	-3.792315	3.382511	4.465222	-0.316856	-0.437165	0.165068	-0.555176	0.159424	-0.359131	0.088963	-0.038279	0.116569	-0.260816	0.257063	0.110545	0.923945	4.756813	-32.187236	-149.845983
23668		8.032285	-0.941563	9.161759	-2.540157	0.487001	2.131025	-0.071799	-0.335687	-0.063235	-0.564697	0.170410	-0.359619	0.080166	-0.009408	0.091756	-0.260289	0.258923	0.110710	0.923554	4.735665	-32.404374	-149.897503
23669		5.757894	-1.076021	8.985324	-0.994793	1.529883	0.756936	0.059412	-0.311602	-0.172584	-0.562256	0.166016	-0.363770	0.057430	-0.010837	0.089940	-0.259406	0.260292	0.111599	0.923311	4.836323	-32.585593	-150.028712
23670		7.813351	0.817367	7.759067	-1.972921	-1.309480	0.972133	0.125604	-0.314521	-0.177922	-0.567139	0.177002	-0.375244	0.078019	0.008055	0.077719	-0.258615	0.261733	0.112792	0.922980	4.970016	-32.785017	-150.157636
23671		6.778800	-0.624128	8.300703	-1.746805	0.560432	0.764542	0.161453	-0.272826	-0.207839	-0.569336	0.174805	-0.373047	0.067668	-0.006379	0.083094	-0.257723	0.262769	0.114148	0.922769	5.142430	-32.941802	-150.312027
23672		4.582804	-0.051253	9.527313	0.698925	1.460277	0.634958	0.262056	-0.318389	-0.240300	-0.583008	0.181396	-0.375488	0.045676	-0.000692	0.095345	-0.256819	0.264017	0.116057	0.922426	5.379309	-33.139778	-150.485437
23673		5.368924	-0.252814	9.066871	-0.165298	1.198210	0.657941	0.317018	-0.402733	-0.268236	-0.578369	0.181396	-0.371094	0.053503	-0.002744	0.090772	-0.255775	0.265414	0.118376	0.922021	5.670232	-33.366250	-150.691798
23674		5.499297	1.038961	9.004570	0.421637	0.096190	0.780546	0.347155	-0.425804	-0.276785	-0.589844	0.183350	-0.362305	0.054815	0.010157	0.090180	-0.254897	0.266970	0.120809	0.921498	5.965533	-33.615267	-150.879317
23675		6.366105	1.659884	7.999971	-0.292302	-1.080771	0.484317	0.252815	-0.410223	-0.186841	-0.589844	0.183350	-0.357910	0.063512	0.016438	0.080151	-0.254134	0.268528	0.122731	0.921003	6.192542	-33.849266	-151.034233
23676		6.529977	1.749513	7.291759	-0.643500	-1.437593	0.005165	0.139684	-0.398169	-0.092679	-0.587646	0.185791	-0.362305	0.065162	0.017414	0.073060	-0.253846	0.270328	0.123933	0.920394	6.301224	-34.092900	-151.095962
23677		6.314071	2.691866	7.449513	0.111006	-2.057134	0.105210	0.060821	-0.316393	-0.000244	-0.590088	0.194580	-0.355957	0.063023	0.026896	0.074603	-0.253739	0.271809	0.124600	0.919897	6.344188	-34.284689	-151.117294
23678		6.012669	2.020110	7.872931	0.185047	-1.203337	0.223933	-0.014314	-0.253018	0.078027	-0.592529	0.201172	-0.354004	0.060019	0.020230	0.078804	-0.254171	0.273222	0.124671	0.919350	6.290088	-34.454309	-151.043309
23679		5.539015	1.485610	8.474481	0.531974	-0.337363	0.400426	-0.048239	-0.217969	0.114530	-0.592773	0.203369	-0.345215	0.055289	0.014908	0.084802	-0.254504	0.274460	0.124555	0.918905	6.221366	-34.597227	-150.977653
23680		5.480779	1.320897	8.488685	0.523435	-0.170941	0.362686	-0.095041	-0.219229	0.139613	-0.593018	0.212158	-0.343262	0.054705	0.013288	0.084941	-0.255165	0.275845	0.124131	0.918364	6.093812	-34.750232	-150.852818
23681		5.616673	0.614563	8.371616	0.025678	0.324147	0.282007	-0.082348	-0.247466	0.154154	-0.588623	0.214600	-0.341064	0.056058	0.006223	0.083783	-0.255613	0.277285	0.123841	0.917844	5.990278	-34.912144	-150.760932
23682		5.147448	1.195738	8.794387	0.898032	0.179963	0.406330	-0.090189	-0.258674	0.158399	-0.588867	0.221191	-0.336914	0.051351	0.012038	0.088005	-0.256371	0.278845	0.123465	0.917211	5.857695	-35.087357	-150.620657
23683		5.814363	0.936435	8.279123	0.087718	-0.059550	0.346853	-0.110806	-0.296926	0.158980	-0.584473	0.227783	-0.337158	0.058013	0.009456	0.082872	-0.256770	0.280549	0.123101	0.916628	5.736757	-35.277418	-150.527666
23684		5.953310	0.809762	8.172677	-0.085635	-0.048195	0.330314	-0.095705	-0.334670	0.157123	-0.584717	0.229980	-0.326172	0.059390	0.008183	0.081822	-0.257493	0.282451	0.122801	0.915882	5.602486	-35.494389	-150.388556
23685		6.819910	0.728634	7.726685	-0.902467	-0.489964	0.467831	-0.111293	-0.367859	0.180636	-0.580322	0.234619	-0.330811	0.068050	0.007391	0.077388	-0.257944	0.284491	0.122495	0.915164	5.473765	-35.725753	-150.283648
23686		6.508446	0.815159	7.920525	-0.498441	-0.367012	0.452582	-0.162438	-0.347741	0.199849	-0.584961	0.236816	-0.330811	0.064938	0.008281	0.079312	-0.258778	0.286556	0.121849	0.914370	5.282004	-35.951494	-150.110518
23687		6.278899	1.006573	8.152907	-0.079817	-0.352153	0.520613	-0.192652	-0.319491	0.217345	-0.575928	0.239014	-0.328857	0.062648	0.010212	0.081619	-0.259308	0.288500	0.121056	0.913713	5.087552	-36.156630	-149.974252
23688		5.986622	0.840356	8.060801	0.038708	-0.136481	0.262137	-0.195680	-0.274740	0.241098	-0.582764	0.239014	-0.333252	0.059745	0.008555	0.080682	-0.260004	0.290396	0.120155	0.913034	4.872165	-36.353442	-149.809917
23689		6.115426	0.557148	8.161175	-0.116283	0.076345	0.399763	-0.178137	-0.273528	0.229122	-0.580566	0.239014	-0.326416	0.061036	0.005714	0.081690	-0.260634	0.292116	0.119350	0.912411	4.677214	-36.532103	-149.660066
23690		5.959630	0.277330	8.409828	-0.000036	0.461173	0.488114	-0.140918	-0.294534	0.174365	-0.583008	0.245605	-0.333496	0.059470	0.002884	0.084184	-0.261090	0.293988	0.118821	0.911748	4.519929	-36.736185	-149.542030
23691		5.869866	0.746164	8.374334	0.344195	0.095255	0.434940	-0.101364	-0.387754	0.174571	-0.589844	0.247803	-0.337891	0.058530	0.007555	0.083853	-0.261514	0.296093	0.118594	0.910975	4.394045	-36.976994	-149.435437
23692		6.153126	0.926703	8.201397	0.217865	-0.224842	0.477327	-0.073781	-0.463308	0.190982	-0.587402	0.245605	-0.326660	0.061332	0.009356	0.082153	-0.262041	0.298651	0.118564	0.909991	4.271563	-37.277606	-149.312805
23693		6.396127	0.709717	7.929724	-0.144400	-0.230819	0.396147	-0.048166	-0.492231	0.218157	-0.589844	0.252197	-0.329346	0.063758	0.007186	0.079453	-0.262677	0.301184	0.118649	0.908962	4.158347	-37.579587	-149.178301
23694		7.095487	0.559229	7.522157	-0.842738	-0.530174	0.495076	-0.065971	-0.464847	0.251468	-0.592285	0.252197	-0.326904	0.070773	0.005706	0.075384	-0.263485	0.303769	0.118566	0.907878	4.011099	-37.883038	-149.009452
23695		7.360381	0.380865	7.137935	-1.253194	-0.628845	0.351180	-0.095815	-0.425208	0.295750	-0.601074	0.251953	-0.326904	0.073446	0.003952	0.071534	-0.264436	0.306102	0.118227	0.906861	3.830896	-38.149196	-148.812281
23696		6.628310	-0.244644	7.739838	-0.754393	0.420187	0.343768	-0.064908	-0.422200	0.258616	-0.605713	0.254150	-0.327148	0.066123	-0.002336	0.077539	-0.265300	0.308493	0.118080	0.905817	3.676328	-38.427927	-148.632617
23697		6.165553	0.364747	8.225371	0.183924	0.293379	0.467571	-0.047596	-0.443714	0.246358	-0.610352	0.256348	-0.324951	0.061468	0.003743	0.082389	-0.266087	0.310812	0.118058	0.904796	3.543235	-38.702038	-148.469078
23698		6.044890	0.924894	8.415954	0.727578	-0.039151	0.564849	-0.077403	-0.487746	0.249540	-0.619385	0.256348	-0.320557	0.060232	0.009357	0.084303	-0.266847	0.313505	0.117953	0.903656	3.383956	-39.017114	-148.295785
23699		6.304648	0.696957	8.162938	0.362455	-0.041368	0.518550	-0.107921	-0.546825	0.266232	-0.616943	0.254150	-0.318359	0.062814	0.007097	0.081798	-0.267564	0.316377	0.117762	0.902467	3.206298	-39.350154	-148.118592
23700		6.661660	0.881803	7.920009	0.177821	-0.425501	0.563668	-0.150066	-0.582906	0.289758	-0.630615	0.260498	-0.318604	0.066372	0.008974	0.079387	-0.268589	0.319527	0.117348	0.901106	2.968762	-39.709309	-147.877168
23701		6.377080	0.971792	7.997166	0.523950	-0.347980	0.442564	-0.199107	-0.563339	0.312429	-0.635254	0.264893	-0.312012	0.063530	0.009897	0.080141	-0.269353	0.322616	0.116693	0.899861	2.712147	-40.052010	-147.660909
23702		6.626869	1.309002	7.842127	0.545515	-0.791022	0.492851	-0.253743	-0.526908	0.346856	-0.639893	0.267090	-0.307617	0.066039	0.013304	0.078579	-0.270480	0.325683	0.115650	0.898552	2.381469	-40.379607	-147.370444
23703		6.848017	1.127660	7.618908	0.257241	-0.827367	0.456859	-0.334735	-0.468686	0.387218	-0.644531	0.271484	-0.303467	0.068279	0.011537	0.076330	-0.271408	0.328565	0.114134	0.897416	2.002270	-40.667854	-147.087974
23704		7.574213	1.183780	7.106258	-0.367805	-1.393766	0.540600	-0.434731	-0.408824	0.453648	-0.651611	0.280273	-0.294922	0.075569	0.012164	0.071191	-0.272756	0.331408	0.111950	0.896237	1.507883	-40.927979	-146.709109
23705		7.567687	0.185444	6.739045	-1.047773	-0.738594	0.240925	-0.478502	-0.383528	0.488553	-0.654053	0.286865	-0.297363	0.075542	0.002201	0.067530	-0.273942	0.334151	0.109505	0.895158	0.987315	-41.165133	-146.339771
23706		6.957486	0.066393	7.215776	-0.401437	-0.242314	0.200208	-0.492681	-0.359218	0.479763	-0.663086	0.286865	-0.295166	0.069443	0.001009	0.072280	-0.275334	0.336857	0.106955	0.894024	0.438699	-41.392440	-145.931069
23707		6.100826	-0.733761	7.772592	0.051440	0.956746	0.049018	-0.427624	-0.403657	0.426885	-0.667969	0.302246	-0.280029	0.060866	-0.007041	0.077864	-0.276311	0.339577	0.104865	0.892941	-0.029211	-41.635891	-145.600613
23708		6.638216	-0.346122	7.933045	0.099160	0.447962	0.526944	-0.343159	-0.469421	0.374769	-0.677002	0.299805	-0.275635	0.066202	-0.003201	0.079492	-0.277398	0.342511	0.103315	0.891663	-0.445064	-41.922743	-145.267448
23709		6.462691	-0.926442	7.895465	-0.069561	0.973411	0.385853	-0.348861	-0.518507	0.358067	-0.683594	0.299805	-0.262207	0.064438	-0.009011	0.079138	-0.278135	0.345590	0.101851	0.890413	-0.840508	-42.228750	-144.981393
23710		6.523419	-0.951328	8.173282	0.114758	1.065025	0.633106	-0.317149	-0.619942	0.298560	-0.697266	0.301758	-0.253418	0.064994	-0.009286	0.081949	-0.278791	0.349126	0.100763	0.888951	-1.208145	-42.601530	-144.704236
23711		6.020039	-0.501120	8.527836	0.955394	1.045205	0.541546	-0.287523	-0.711995	0.246969	-0.697510	0.308350	-0.247070	0.059902	-0.004814	0.085499	-0.279033	0.352913	0.100031	0.887461	-1.520489	-43.017183	-144.492726
23712		6.382602	-0.151362	8.354837	0.932775	0.551588	0.646219	-0.278972	-0.843586	0.263984	-0.708252	0.299316	-0.229004	0.063475	-0.001313	0.083819	-0.279432	0.357370	0.099486	0.885611	-1.857841	-43.517925	-144.234934
23713		6.843342	0.150567	8.124227	0.803935	0.041015	0.780142	-0.294517	-0.969961	0.283645	-0.715332	0.308105	-0.222656	0.068036	0.001722	0.081570	-0.279682	0.362313	0.099015	0.883574	-2.209063	-44.078704	-143.976884
23714		7.398319	-0.620143	7.524751	-0.183925	0.241473	0.753679	-0.308176	-1.121700	0.311065	-0.724365	0.307861	-0.198242	0.073569	-0.005970	0.075670	-0.280022	0.368055	0.098643	0.881132	-2.605553	-44.737052	-143.667318
23715		7.260419	-0.638872	7.789746	0.176695	0.450237	0.844059	-0.317845	-1.309424	0.317401	-0.733643	0.314453	-0.183105	0.072102	-0.006150	0.078381	-0.280189	0.374516	0.098475	0.878371	-3.015116	-45.488571	-143.351758
23716		6.394393	-0.383133	8.535167	1.412029	0.932876	0.723808	-0.335714	-1.489463	0.318748	-0.744629	0.309814	-0.158447	0.063312	-0.003586	0.085831	-0.280258	0.381889	0.098474	0.875168	-3.463136	-46.355077	-143.003329
23717		5.918664	-0.546080	9.151802	2.129605	1.559495	0.775698	-0.347692	-1.720629	0.314847	-0.751709	0.320801	-0.138916	0.058405	-0.005209	0.092032	-0.280119	0.390144	0.098745	0.871533	-3.930787	-47.338268	-142.640693
23718		5.808950	-1.938031	9.292037	1.684728	2.879314	0.803754	-0.365105	-2.009783	0.279272	-0.758301	0.318359	-0.112305	0.057178	-0.019130	0.093533	-0.279599	0.399751	0.099399	0.867262	-4.425562	-48.500526	-142.267685
23719		5.484122	-2.693336	9.207159	1.587476	3.696886	0.478517	-0.263432	-2.377139	0.191335	-0.763184	0.329346	-0.088135	0.053767	-0.026760	0.092750	-0.278705	0.410591	0.101176	0.862265	-4.839593	-49.860176	-141.925177
23720		5.237291	-2.325777	9.479760	2.333160	3.730029	0.352941	-0.213583	-2.764091	0.103760	-0.767334	0.318115	-0.045654	0.051068	-0.023129	0.095534	-0.277247	0.423035	0.103851	0.856382	-5.220731	-51.457345	-141.604998
23721		4.954911	-3.462720	9.432512	2.053408	4.914446	0.043066	-0.135172	-3.183341	0.003311	-0.776611	0.324463	-0.014893	0.048040	-0.034562	0.095121	-0.275290	0.436897	0.107650	0.849557	-5.532394	-53.283956	-141.314195
23722		4.233316	-3.407075	9.642592	2.831512	5.417168	-0.585948	0.062948	-3.696732	-0.118194	-0.778320	0.315430	0.031982	0.040521	-0.034126	0.097175	-0.272909	0.452568	0.113210	0.841360	-5.715254	-55.420241	-141.053693
23723		5.509602	-0.382138	9.634950	4.261350	2.701401	0.079642	0.205647	-4.311760	-0.117231	-0.778809	0.324219	0.069336	0.053000	-0.003953	0.097503	-0.270377	0.470348	0.120180	0.831400	-5.886640	-57.895697	-140.712189
23724		4.444792	0.500601	10.950610	6.499117	3.205801	-0.465088	0.017745	-5.018225	0.086735	-0.771484	0.315430	0.136230	0.041680	0.005015	0.110576	-0.267695	0.491267	0.126750	0.819103	-6.511274	-60.769037	-139.983220
23725		3.444270	2.370489	12.166969	9.227787	2.842333	-1.313420	-0.084280	-5.992102	0.375995	-0.760986	0.330811	0.186768	0.030733	0.023817	0.122618	-0.265107	0.516026	0.133426	0.803513	-7.804135	-64.159630	-138.584666
23726		2.891245	3.799741	12.199596	10.684513	2.150311	-2.548374	-0.142016	-7.264071	0.956139	-0.749512	0.326416	0.266846	0.024276	0.038208	0.122907	-0.263568	0.545844	0.139876	0.782957	-10.660123	-68.198770	-135.561720
23727		3.992752	5.884611	12.735250	12.517318	0.758297	-2.371506	-0.430406	-8.560707	1.719911	-0.714600	0.355469	0.343506	0.033925	0.059431	0.128763	-0.262880	0.580683	0.144625	0.756826	-16.931065	-72.744072	-129.179709
23728		9.892679	7.239350	12.558259	12.897575	-1.375519	1.998522	-0.810887	-9.710455	2.398829	-0.665283	0.360352	0.434326	0.091808	0.074044	0.129858	-0.262252	0.619614	0.147121	0.725022	-30.591665	-77.325960	-115.542650
23729		20.910485	5.222460	10.323651	10.502957	-2.490770	11.496727	-1.242368	-9.951258	2.723286	-0.609619	0.376221	0.500244	0.202897	0.055699	0.113099	-0.260589	0.658549	0.147011	0.690503	-57.474605	-80.428547	-88.902252
23730		27.270803	-4.224034	6.233138	4.234862	2.793281	18.008402	-1.148499	-9.467453	2.449470	-0.553467	0.379150	0.573486	0.269832	-0.038515	0.075382	-0.257984	0.693827	0.147098	0.656057	-92.106091	-80.497268	-54.486307
23731		28.978271	-3.931411	8.528923	8.952027	4.556953	18.934715	-0.435182	-8.838391	1.897490	-0.506592	0.392822	0.617432	0.285991	-0.036384	0.098068	-0.255917	0.724130	0.150317	0.622533	-117.106984	-78.104897	-29.320128
23732		25.057290	0.243802	8.790490	12.739534	2.602272	13.333437	-0.078671	-7.998689	1.552427	-0.452637	0.391113	0.666260	0.246763	0.004401	0.097825	-0.254231	0.749776	0.154514	0.591040	-130.909384	-74.765651	-15.183125
23733		25.423758	4.352483	9.556738	17.226989	0.400230	11.620332	-0.177225	-7.151003	1.760367	-0.398926	0.398438	0.686035	0.250210	0.045829	0.104523	-0.253050	0.772049	0.156356	0.561657	-138.252043	-71.153135	-7.618299
23734		28.076755	3.718272	11.171939	20.452815	2.274118	12.617937	-0.503907	-6.038535	2.200144	-0.356445	0.398926	0.706055	0.276793	0.040538	0.120018	-0.252416	0.791027	0.153963	0.535592	-141.890483	-67.677419	-4.047034
23735		25.184236	4.133061	12.351409	21.612109	2.916661	8.301923	-0.493088	-4.198596	2.325734	-0.338623	0.405762	0.714600	0.248672	0.044548	0.128650	-0.253363	0.804516	0.148679	0.516194	-143.114099	-64.946371	-3.023932
23736		12.139359	4.280291	16.122373	19.526006	5.205631	-5.662962	-0.335956	-2.479863	1.815346	-0.327393	0.406006	0.721436	0.118986	0.044163	0.162636	-0.254804	0.812636	0.143593	0.504062	-143.346443	-63.178156	-2.984817
23737		22.879211	6.173829	19.769963	28.138417	5.320516	1.691304	0.160350	-0.238225	1.120056	-0.332275	0.416992	0.712158	0.228206	0.062859	0.198022	-0.258077	0.813886	0.139729	0.501460	-142.425944	-62.670820	-3.919763
23738		16.379888	11.431581	16.742703	25.495900	-0.750948	-4.456918	-0.058008	1.619290	1.019257	-0.352295	0.414551	0.696533	0.164561	0.115201	0.166063	-0.261496	0.810592	0.133297	0.506747	-140.441043	-63.029856	-6.193118
23739		3.815378	11.018354	13.078404	16.880584	-2.096256	-14.013390	-0.587306	2.955656	0.686617	-0.390869	0.418457	0.674316	0.039698	0.110700	0.129880	-0.262770	0.804296	0.125128	0.518076	-137.969023	-64.044244	-9.334422
23740		-2.811686	6.785123	7.702581	7.981338	-1.210258	-16.748292	-0.915383	2.977666	0.251071	-0.399658	0.414063	0.665527	-0.027055	0.068170	0.077122	-0.261546	0.797840	0.117789	0.530255	-135.813097	-65.193795	-12.305747
23741		-4.737581	2.687547	5.348587	3.580658	1.081340	-16.467165	-0.616474	2.434839	-0.195859	-0.426514	0.411621	0.643311	-0.046694	0.027087	0.053974	-0.259960	0.792078	0.113725	0.540462	-134.170502	-66.249040	-14.499324
23742		-2.073881	2.172885	5.235960	4.410546	1.186460	-13.759296	0.039884	2.019370	-0.656234	-0.444336	0.404785	0.630371	-0.020137	0.021785	0.052569	-0.259453	0.786141	0.113771	0.549292	-132.790372	-67.320979	-15.980601
23743		3.885957	3.605793	5.954370	7.891619	-0.267242	-8.714975	0.407318	2.130198	-0.961927	-0.478027	0.408691	0.603516	0.039664	0.035748	0.059197	-0.259587	0.779227	0.115881	0.558562	-131.248901	-68.537192	-17.396208
23744		8.022339	4.317810	6.747684	10.225131	-0.914826	-5.003082	0.471348	2.923834	-1.131789	-0.498291	0.408691	0.583496	0.081441	0.042562	0.066393	-0.259897	0.769679	0.117769	0.571120	-128.673981	-70.114443	-19.863876
23745		8.637362	3.968635	6.806460	10.109534	-0.734675	-3.988575	0.330113	3.993760	-1.263656	-0.533936	0.399414	0.548340	0.087958	0.039023	0.066383	-0.259835	0.757003	0.118341	0.587731	-124.400380	-72.050088	-24.184786
23746		6.263521	2.494509	6.297988	8.081983	0.414762	-5.384296	0.180068	4.824945	-1.412378	-0.560791	0.392578	0.508545	0.064304	0.024439	0.061464	-0.259109	0.741487	0.117888	0.607587	-117.862666	-74.180994	-30.911484
23747		4.877952	1.093084	5.580889	6.268670	1.290053	-5.918988	0.123723	5.290648	-1.579862	-0.594238	0.389893	0.466553	0.050317	0.010503	0.054498	-0.257772	0.724117	0.117203	0.628866	-108.631430	-76.208048	-40.387509
23748		4.724277	0.313572	4.966211	5.123882	1.538117	-5.517640	0.116496	5.562155	-1.701892	-0.620605	0.372070	0.425049	0.048623	0.002697	0.048324	-0.255961	0.705135	0.116490	0.650921	-95.883530	-77.852375	-53.400410
23749		5.015274	-0.031585	4.755915	4.562881	1.559111	-4.862121	0.107919	5.756119	-1.748100	-0.651855	0.362793	0.374268	0.051488	-0.000787	0.046090	-0.253876	0.685007	0.115566	0.673020	-79.734782	-78.732773	-69.827938
23750		5.019630	-0.703309	4.861181	4.037063	2.057226	-4.448185	0.093463	5.930927	-1.736190	-0.669434	0.351563	0.334717	0.051544	-0.007499	0.047093	-0.251456	0.663593	0.114165	0.695256	-61.953707	-78.564495	-87.926828
23751		5.438295	-1.947756	5.214607	3.402153	3.075609	-3.526989	0.226528	6.067546	-1.727964	-0.689209	0.340332	0.275146	0.055759	-0.020013	0.050446	-0.249529	0.640986	0.112980	0.717013	-45.945557	-77.310320	-104.161927
23752		6.117740	-2.320936	5.432397	2.976830	3.217108	-2.526295	0.524217	6.200329	-1.706822	-0.697998	0.329346	0.220215	0.062619	-0.023879	0.052335	-0.248335	0.616773	0.112481	0.738423	-33.248279	-75.182362	-116.933877
23753		7.077337	-1.827474	5.626232	2.806746	2.523223	-1.397846	0.827730	6.314496	-1.646155	-0.712891	0.309326	0.167725	0.072346	-0.019092	0.053917	-0.248220	0.591263	0.112692	0.759009	-23.971350	-72.457446	-126.099360
23754		7.318260	-0.684595	5.532539	2.728278	1.287590	-1.123496	1.004143	6.421031	-1.515573	-0.715088	0.304932	0.116699	0.074851	-0.007679	0.052903	-0.248855	0.564411	0.112908	0.778950	-17.289262	-69.307714	-132.566719
23755		6.607561	-0.610115	4.671743	1.706285	0.857874	-1.926841	1.105633	6.304752	-1.305430	-0.721436	0.293945	0.061768	0.067461	-0.006789	0.044569	-0.250313	0.537538	0.112973	0.797266	-12.643953	-66.018779	-136.905854
23756		6.667645	-1.160578	4.112219	0.478943	0.910352	-1.961725	1.203358	5.826043	-1.096265	-0.709961	0.283203	0.015625	0.067769	-0.012215	0.039086	-0.252331	0.511871	0.113334	0.813310	-9.328906	-62.849973	-139.818878
23757		9.376581	-1.241594	4.609571	-0.627141	0.247608	0.686219	1.287757	5.299179	-0.980422	-0.707520	0.276611	-0.030762	0.094878	-0.013165	0.043508	-0.254545	0.488042	0.114332	0.827013	-6.803093	-59.932869	-141.859008
23758		11.861212	-1.179003	6.505178	-0.779425	0.075162	3.742380	1.426466	4.995374	-0.973312	-0.700195	0.263428	-0.065918	0.120125	-0.012822	0.061975	-0.256777	0.464762	0.116169	0.839385	-4.613901	-57.128191	-143.468301
23759		13.209658	-0.744858	8.434171	-0.484833	-0.075071	5.868140	1.634528	4.885233	-1.062128	-0.688721	0.257080	-0.103271	0.134058	-0.008828	0.081015	-0.258867	0.441482	0.119166	0.850812	-2.538596	-54.383453	-144.849933
23760		14.683709	0.334114	8.655828	-1.280234	-1.556944	7.114153	1.729978	4.835763	-1.232380	-0.690186	0.232666	-0.140137	0.148887	0.001700	0.082994	-0.260245	0.417702	0.122906	0.861796	-0.513942	-51.620767	-146.144934
23761		16.228072	1.127506	8.320396	-2.735190	-3.064563	7.989185	1.684633	4.724513	-1.339011	-0.678711	0.221924	-0.181885	0.164254	0.009500	0.079424	-0.260812	0.394290	0.126756	0.872036	1.342926	-48.919565	-147.308762
23762		17.961027	0.990432	8.967623	-4.293559	-3.457601	9.514118	1.682261	4.597693	-1.360537	-0.673584	0.208740	-0.210205	0.181668	0.007942	0.085588	-0.260992	0.370995	0.130707	0.881568	3.050494	-46.248129	-148.319691
23763		21.216800	2.857616	10.085760	-5.540193	-5.896492	12.423865	1.706729	4.675506	-1.411540	-0.666016	0.182129	-0.249268	0.214642	0.026233	0.096089	-0.260908	0.347216	0.134687	0.890633	4.646600	-43.532496	-149.200624
23764		23.600163	4.090429	9.667473	-7.747768	-8.187834	13.423849	1.425763	4.985525	-1.716948	-0.654053	0.162598	-0.294922	0.238654	0.038201	0.091026	-0.258939	0.321824	0.137451	0.900271	6.109464	-40.589874	-150.168193
23765		23.066008	3.881702	7.761528	-9.719669	-8.802495	11.049424	0.993904	5.280728	-2.247938	-0.642090	0.140625	-0.334229	0.233019	0.035841	0.071666	-0.253946	0.295192	0.138632	0.910579	7.421056	-37.445106	-151.352432
23766		20.691493	1.142276	5.054141	-11.958539	-6.809179	6.480791	0.660468	5.308513	-2.803452	-0.623535	0.118652	-0.371094	0.208291	0.008354	0.045055	-0.245656	0.268086	0.138987	0.921122	8.646587	-34.205765	-152.799558
23767		18.001582	-4.152710	2.572402	-14.680189	-2.236828	1.470317	0.665561	4.977566	-3.268643	-0.604492	0.090088	-0.407715	0.179868	-0.044543	0.021101	-0.234852	0.242061	0.140242	0.930905	9.912978	-31.100655	-154.446186
23768		19.175771	-5.024211	2.134967	-16.835318	-1.881087	0.696375	0.856655	4.467718	-3.344762	-0.590088	0.063721	-0.442139	0.191291	-0.053523	0.016848	-0.223315	0.217820	0.142992	0.939275	11.213688	-28.232452	-156.080720
23769		21.493033	-3.646194	1.973236	-18.676070	-3.714960	0.978080	0.634232	4.133989	-2.842797	-0.566895	0.041992	-0.468018	0.214728	-0.039568	0.015170	-0.213550	0.195702	0.144389	0.946176	12.139086	-25.594918	-157.330339
23770		20.992876	-4.388032	1.534240	-19.230425	-2.899830	-0.646611	0.123758	3.976077	-2.042354	-0.552979	0.031006	-0.487549	0.209715	-0.046030	0.011143	-0.206806	0.175265	0.142702	0.951919	12.508777	-23.122556	-158.054439
23771		18.232415	-6.450712	0.691397	-18.340491	-0.394949	-3.653225	-0.068275	3.696996	-1.273677	-0.530029	0.018066	-0.502686	0.181995	-0.065665	0.003570	-0.203293	0.156904	0.139626	0.956325	12.567419	-20.908246	-158.325523
23772		16.720976	-6.168371	0.238355	-17.200797	-0.308050	-5.153525	0.114552	3.262530	-0.656302	-0.514160	0.011719	-0.524658	0.167015	-0.062232	-0.000378	-0.202488	0.140769	0.137360	0.959331	12.618091	-19.008879	-158.283684
23773		16.579727	-5.023202	-0.318026	-16.826158	-1.542064	-5.978235	0.394475	2.861481	-0.194601	-0.502930	0.011719	-0.540039	0.165679	-0.050384	-0.005651	-0.203789	0.126602	0.136461	0.961156	12.757225	-17.396742	-158.017920
23774		16.099422	-3.750582	-1.155194	-16.083734	-2.886552	-7.063315	0.592022	2.487744	0.111262	-0.484863	0.007568	-0.555420	0.160854	-0.037378	-0.013664	-0.206395	0.114197	0.136685	0.962121	12.980014	-16.031436	-157.620324
23775		15.688206	-3.629348	-3.076155	-15.990321	-3.577649	-9.308406	0.618353	2.062201	0.226000	-0.468994	0.005615	-0.564209	0.156594	-0.036018	-0.032489	-0.209246	0.103893	0.137379	0.962574	13.221073	-14.921817	-157.210471
23776		14.733701	-3.876025	-5.111480	-15.500698	-3.744753	-11.795808	0.550789	1.440319	0.160822	-0.468994	0.005615	-0.568604	0.146994	-0.038499	-0.052280	-0.211316	0.096609	0.138434	0.962730	13.461102	-14.153710	-156.918979
23777		14.394749	-2.952667	-6.626839	-14.949551	-4.948496	-13.257160	0.261315	0.622551	0.011594	-0.464844	0.012451	-0.571045	0.143742	-0.029431	-0.066755	-0.211942	0.093451	0.139013	0.962820	13.584326	-13.820300	-156.825357
23778		15.834538	-4.407815	-7.101379	-16.917787	-4.369861	-13.722101	-0.080434	-0.227009	-0.222518	-0.466797	0.005615	-0.568604	0.158377	-0.044283	-0.070816	-0.210706	0.094621	0.138977	0.962982	13.573758	-13.934000	-156.982111
23779		18.142910	-4.966343	-6.478011	-19.180434	-4.478297	-12.613890	-0.186744	-0.894552	-0.509106	-0.466797	0.003418	-0.555176	0.181589	-0.050185	-0.063921	-0.207556	0.098877	0.139245	0.963200	13.564486	-14.375644	-157.397557
23780		20.521711	-3.347075	-5.065927	-20.486356	-6.181308	-10.128523	-0.357747	-1.262714	-0.619528	-0.475830	0.005615	-0.559814	0.205426	-0.034196	-0.049302	-0.203549	0.105075	0.139148	0.963413	13.491842	-15.017202	-157.926544
23781		19.668129	-1.863779	-3.312682	-18.892262	-6.439820	-8.114124	-0.793784	-1.458798	-0.467085	-0.480469	0.014404	-0.544434	0.196871	-0.019225	-0.031616	-0.199873	0.112688	0.137034	0.963625	13.157660	-15.780695	-158.395398
23782		9.711239	0.564059	-0.049104	-8.444252	-3.929321	-7.005375	-1.628995	-1.979052	0.083022	-0.494385	0.027344	-0.536133	0.097109	0.005682	0.000424	-0.198032	0.124112	0.131126	0.963424	12.281421	-16.922590	-158.603048
23783		-5.364445	2.654140	22.781648	10.481568	6.294592	10.319169	-1.900602	-2.647605	0.604650	-0.508789	0.051514	-0.517090	-0.056736	0.028532	0.226814	-0.198017	0.139232	0.124182	0.962280	11.178250	-18.490091	-158.569290
23784		-12.665869	4.558194	28.175096	19.655530	8.494237	12.912912	-2.001836	-2.831099	0.832908	-0.520508	0.064697	-0.497559	-0.130822	0.047848	0.279447	-0.198899	0.155534	0.116763	0.960528	9.966872	-20.196339	-158.381284
23785		7.993512	-10.307354	10.043326	-8.546104	9.334575	0.714107	-1.436125	-3.248170	0.680058	-0.534424	0.077881	-0.478271	0.078630	-0.102074	0.102453	-0.199134	0.173038	0.112530	0.957988	9.110034	-22.107972	-158.298014
23786		20.556105	-11.129401	5.624759	-20.559032	4.597334	1.771511	-0.595945	-3.406484	0.471605	-0.550537	0.090820	-0.451904	0.204821	-0.110635	0.060071	-0.198977	0.190374	0.112630	0.954715	8.777648	-24.099765	-158.331709
23787		18.727449	-7.049828	12.261133	-14.703149	3.672472	8.105044	0.006880	-3.072038	0.440146	-0.566650	0.099609	-0.436768	0.185516	-0.070093	0.125468	-0.199344	0.205360	0.115267	0.951211	8.785897	-25.889503	-158.351059
23788		12.207675	-2.343333	11.568971	-7.040326	1.611190	5.555562	0.213486	-2.527003	0.357491	-0.582275	0.097168	-0.416748	0.120644	-0.023341	0.117195	-0.199860	0.217560	0.118388	0.948002	8.907582	-27.375289	-158.363678
23789		10.389770	1.131593	8.098398	-5.003054	-1.805753	2.291496	0.246606	-2.517566	0.002997	-0.589355	0.105713	-0.397217	0.102867	0.011217	0.082297	-0.198648	0.229335	0.122040	0.945014	9.164027	-28.811851	-158.616386
23790		13.558469	1.684939	9.921175	-6.363621	-2.538479	5.619366	0.077236	-2.346710	-0.197214	-0.607178	0.103271	-0.383789	0.134425	0.016678	0.100800	-0.196438	0.240418	0.124915	0.942341	9.382056	-30.144880	-158.981645
23791		15.302525	3.437231	12.374205	-5.745266	-3.650856	8.969149	-0.009107	-1.638288	-0.092810	-0.609375	0.105469	-0.368408	0.152021	0.034307	0.124989	-0.194970	0.248183	0.126568	0.940411	9.493990	-31.073870	-159.219318
23792		13.389658	3.009322	9.129382	-5.560291	-3.681416	5.260921	-0.165873	-0.758070	0.069834	-0.609619	0.112061	-0.366455	0.133539	0.030216	0.091775	-0.194715	0.252161	0.126402	0.939427	9.405682	-31.533603	-159.241342
23793		6.380773	3.556911	7.621115	-0.292598	-2.535847	0.430888	-0.110854	-0.595234	0.079525	-0.621338	0.120850	-0.355713	0.063566	0.035637	0.076381	-0.194582	0.255217	0.126339	0.938638	9.343710	-31.889256	-159.251640
23794		7.459809	2.412301	8.417739	-1.230204	-1.560269	1.517716	-0.192757	-0.594669	0.072978	-0.612305	0.120850	-0.346680	0.074339	0.024231	0.084375	-0.194462	0.258436	0.125878	0.937843	9.226692	-32.255942	-159.244780
23795		8.225913	0.595244	8.510527	-2.515547	-0.130581	1.767631	-0.160395	-0.394509	0.085726	-0.612549	0.132080	-0.342773	0.082088	0.006056	0.085262	-0.194417	0.260598	0.125378	0.937321	9.121838	-32.498654	-159.227816
23796		6.784688	0.999903	8.573053	-1.130916	-0.039626	1.107404	-0.105543	-0.279282	0.075036	-0.616943	0.129639	-0.340332	0.067723	0.010070	0.085820	-0.194654	0.262242	0.125013	0.936862	9.033440	-32.686162	-159.179044
23797		6.501342	1.669326	8.319749	-0.696772	-0.639455	0.835216	-0.123900	-0.256238	0.116920	-0.610840	0.143066	-0.340820	0.064897	0.016783	0.083270	-0.194888	0.263738	0.124507	0.936461	8.929506	-32.853363	-159.125330
23798		6.959513	1.284079	8.330551	-1.181483	-0.437146	1.045244	-0.138329	-0.208223	0.133603	-0.610596	0.136475	-0.336182	0.069500	0.012945	0.083369	-0.195437	0.265103	0.123838	0.936050	8.794319	-33.004429	-159.023416
23799		5.917732	1.056640	8.461220	-0.376382	0.114742	0.559073	-0.108027	-0.171190	0.126326	-0.606445	0.147705	-0.338867	0.059098	0.010649	0.084657	-0.195788	0.266190	0.123312	0.935737	8.690407	-33.124097	-158.953498
23800		5.542738	1.791366	8.546157	0.300940	-0.409157	0.517352	-0.120781	-0.169485	0.134019	-0.602051	0.152100	-0.336670	0.055343	0.018002	0.085498	-0.196408	0.267346	0.122683	0.935360	8.560938	-33.251931	-158.843234
23801		6.274128	0.963779	8.538074	-0.603912	0.097047	0.808898	-0.144772	-0.181298	0.132439	-0.608887	0.154297	-0.341309	0.062657	0.009741	0.085431	-0.196732	0.268520	0.121986	0.935047	8.433557	-33.377593	-158.769382
23802		6.765054	-0.084393	7.666116	-1.809421	0.581969	0.233689	-0.105873	-0.142272	0.101254	-0.608887	0.154297	-0.339111	0.067596	-0.000769	0.076710	-0.197285	0.269493	0.121436	0.934722	8.319909	-33.484939	-158.670595
23803		6.535165	-0.056036	8.109145	-1.395635	0.770786	0.479437	-0.051952	-0.157429	0.058074	-0.606934	0.163086	-0.343750	0.065288	-0.000520	0.081143	-0.197401	0.270418	0.121250	0.934455	8.271711	-33.590702	-158.644239
23804		6.419100	0.106814	8.373974	-1.093949	0.749351	0.655428	0.011212	-0.144514	0.017593	-0.606689	0.154297	-0.347900	0.064130	0.001069	0.083786	-0.197738	0.271227	0.121357	0.934135	8.255078	-33.691376	-158.599502
23805		5.519024	1.321589	8.592084	0.246109	0.020002	0.481444	0.049991	-0.127767	-0.014056	-0.606445	0.149902	-0.345459	0.055136	0.013191	0.085959	-0.197672	0.271868	0.121715	0.933916	8.290830	-33.774366	-158.619272
23806		5.156363	1.650517	8.359996	0.578481	-0.235147	0.127728	0.009156	-0.131696	0.021019	-0.611084	0.149902	-0.347656	0.051507	0.016507	0.083635	-0.198004	0.272623	0.121793	0.933615	8.271594	-33.867952	-158.574337
23807		5.456390	1.845982	8.242395	0.393370	-0.537644	0.220911	-0.050241	-0.128405	0.058924	-0.611328	0.156494	-0.354736	0.054506	0.018497	0.082454	-0.198142	0.273410	0.121585	0.933383	8.222180	-33.957308	-158.544302
23808		5.342807	1.444461	8.486336	0.438248	-0.068661	0.309227	-0.087522	-0.115959	0.091466	-0.613281	0.152100	-0.354492	0.053372	0.014506	0.084888	-0.198678	0.274224	0.121099	0.933093	8.119663	-34.047043	-158.449612
23809		5.488311	0.932331	8.719550	0.227455	0.416093	0.521550	-0.080965	-0.092713	0.070966	-0.617920	0.154297	-0.354492	0.054839	0.009378	0.087217	-0.198851	0.274883	0.120695	0.932915	8.045798	-34.117051	-158.407488
23810		5.322448	0.569869	8.621827	0.167782	0.751218	0.306433	-0.055602	-0.099406	0.052617	-0.624756	0.154053	-0.356689	0.053180	0.005737	0.086243	-0.199236	0.275566	0.120398	0.932670	7.976419	-34.194141	-158.340549
23811		5.659515	0.444612	8.264936	-0.297516	0.641385	0.189165	-0.009241	-0.133476	0.028952	-0.624512	0.151855	-0.356689	0.056539	0.004458	0.082687	-0.199287	0.276317	0.120427	0.932433	7.961844	-34.283871	-158.330933
23812		5.919241	0.320034	8.294574	-0.520405	0.687590	0.345864	0.036171	-0.164863	0.017411	-0.633301	0.147461	-0.356445	0.059124	0.003190	0.082995	-0.199572	0.277195	0.120675	0.932079	7.963297	-34.395480	-158.297518
23813		6.237473	0.546817	8.370352	-0.612622	0.425047	0.613811	0.071867	-0.179292	0.012875	-0.635742	0.149658	-0.356689	0.062299	0.005442	0.083761	-0.199632	0.278069	0.121150	0.931744	8.003925	-34.509929	-158.303389
23814		6.010614	0.923818	8.277569	-0.298074	0.140980	0.453291	0.104912	-0.205666	-0.013796	-0.637695	0.142822	-0.356445	0.060022	0.009191	0.082842	-0.199810	0.279055	0.121807	0.931326	8.061069	-34.642799	-158.300006
23815		5.344521	1.475257	8.533560	0.592215	-0.041249	0.346518	0.127776	-0.226742	-0.013430	-0.646729	0.142822	-0.356445	0.053349	0.014694	0.085406	-0.199796	0.280077	0.122626	0.930914	8.146921	-34.782029	-158.329002
23816		5.895710	1.886070	8.255723	0.242951	-0.650479	0.482526	0.100729	-0.231610	0.017730	-0.651123	0.140381	-0.356445	0.058860	0.018824	0.082635	-0.200064	0.281212	0.123252	0.930432	8.193134	-34.932683	-158.311675
23817		5.616250	1.784850	8.112718	0.365316	-0.510251	0.194824	0.048084	-0.222303	0.055083	-0.653564	0.144775	-0.358643	0.056067	0.017844	0.081194	-0.200260	0.282334	0.123599	0.930004	8.206205	-35.074954	-158.293180
23818		5.876766	1.373718	8.412535	0.152382	-0.112203	0.539046	0.032490	-0.203276	0.079979	-0.662354	0.142578	-0.354248	0.058677	0.013747	0.084187	-0.200725	0.283443	0.123795	0.929540	8.187942	-35.214594	-158.231772
23819		5.693511	1.178272	8.329980	0.187023	0.096618	0.343523	0.046746	-0.184643	0.086827	-0.664795	0.144775	-0.360840	0.056853	0.011788	0.083355	-0.201089	0.284410	0.124054	0.929131	8.185208	-35.338094	-158.187360
23820		5.676323	1.201949	8.258128	0.199182	0.064379	0.277810	0.083156	-0.212087	0.113216	-0.675781	0.137939	-0.356201	0.056669	0.012017	0.082646	-0.201761	0.285529	0.124451	0.928589	8.183822	-35.485451	-158.105501
23821		6.341192	1.407550	7.699331	-0.455026	-0.502604	0.237780	0.094738	-0.248575	0.136592	-0.680420	0.140137	-0.356445	0.063307	0.014082	0.077079	-0.202384	0.286774	0.124925	0.928006	8.191859	-35.649270	-158.032650
23822		6.525356	0.988889	7.179172	-1.001098	-0.358905	-0.118998	0.071057	-0.291600	0.159455	-0.696289	0.144287	-0.341064	0.065141	0.009915	0.071890	-0.203165	0.288309	0.125288	0.927311	8.171375	-35.846256	-157.931580
23823		6.150723	1.199933	7.512830	-0.429517	-0.307404	-0.043616	0.028513	-0.328489	0.200948	-0.691406	0.137695	-0.343018	0.061372	0.012050	0.075231	-0.203939	0.290031	0.125443	0.926582	8.119004	-36.060580	-157.821146
23824		6.035093	2.060852	7.861261	0.256454	-0.907263	0.265995	-0.019246	-0.351999	0.231986	-0.707275	0.137451	-0.334229	0.060188	0.020686	0.078717	-0.204854	0.291988	0.125352	0.925778	8.021538	-36.298292	-157.678805
23825		5.788797	1.739345	7.935505	0.375069	-0.521591	0.141952	-0.080639	-0.334227	0.282197	-0.709473	0.141846	-0.334229	0.057731	0.017507	0.079445	-0.205841	0.293896	0.124888	0.925018	7.871316	-36.521997	-157.510078
23826		5.758551	1.836873	8.137605	0.589380	-0.534726	0.292862	-0.152428	-0.331188	0.315036	-0.714111	0.141846	-0.316650	0.057422	0.018521	0.081457	-0.206915	0.295948	0.124045	0.924237	7.661738	-36.754418	-157.310444
23827		5.970739	1.046592	8.231499	0.168794	0.119933	0.407859	-0.163347	-0.365855	0.316266	-0.727539	0.139404	-0.318604	0.059540	0.010627	0.082415	-0.207916	0.298105	0.123179	0.923434	7.448539	-36.997722	-157.117575
23828		6.010564	0.910789	8.354883	0.192744	0.263314	0.514644	-0.110469	-0.396894	0.310550	-0.738770	0.141357	-0.303223	0.059925	0.009247	0.083663	-0.208942	0.300419	0.122610	0.922529	7.268087	-37.266691	-156.930567
23829		5.515735	1.144684	8.546010	0.813291	0.275407	0.386842	-0.084819	-0.447527	0.325685	-0.743652	0.152588	-0.299316	0.054947	0.011573	0.085578	-0.210049	0.302872	0.122176	0.921532	7.096785	-37.556088	-156.734966
23830		5.876668	1.069790	8.363981	0.485651	0.165552	0.452412	-0.086645	-0.526362	0.341793	-0.754395	0.141113	-0.278809	0.058528	0.010834	0.083789	-0.211136	0.305775	0.121804	0.920374	6.921373	-37.900196	-156.538565
23831		6.611429	0.655917	7.898318	-0.407107	0.136839	0.499430	-0.115124	-0.607117	0.333105	-0.759277	0.152100	-0.268066	0.065863	0.006715	0.079180	-0.212129	0.308993	0.121385	0.919125	6.733572	-38.279920	-156.347335
23832		6.499994	-0.120272	8.023055	-0.546074	0.907385	0.459204	-0.103209	-0.701441	0.286038	-0.772705	0.149658	-0.254883	0.064720	-0.001069	0.080458	-0.212754	0.312685	0.121204	0.917754	6.581195	-38.719630	-156.211068
23833		6.572158	-0.315762	8.354586	-0.433731	1.190960	0.745956	-0.058395	-0.791113	0.216199	-0.779785	0.156250	-0.239502	0.065394	-0.003062	0.083806	-0.213181	0.316607	0.121419	0.916281	6.484101	-39.195692	-156.116012
23834		6.196007	0.288059	8.775235	0.427413	0.959440	0.881902	0.007835	-0.894070	0.152003	-0.795410	0.158203	-0.215332	0.061565	0.002924	0.088028	-0.213196	0.320977	0.122151	0.914659	6.465385	-39.736149	-156.097120
23835		5.785819	0.621888	9.116620	1.152567	0.960127	0.898235	0.032177	-1.050650	0.095346	-0.793213	0.156006	-0.195068	0.057375	0.006232	0.091469	-0.213046	0.325903	0.123243	0.912803	6.489365	-40.352082	-156.111751
23836		6.163252	1.061424	9.358845	1.344354	0.601926	1.346569	0.032022	-1.250848	0.089286	-0.811279	0.162354	-0.166504	0.061041	0.010627	0.093973	-0.212752	0.331784	0.124556	0.910572	6.525875	-41.088609	-156.145846
23837		6.320164	1.466438	9.176130	1.467104	0.197811	1.327437	-0.001867	-1.505749	0.116396	-0.809082	0.166748	-0.142334	0.062500	0.014702	0.092233	-0.212341	0.338805	0.125932	0.907890	6.547093	-41.964960	-156.185299
23838		6.072398	1.755425	9.653420	2.209742	0.272497	1.509127	-0.018256	-1.739689	0.150065	-0.813721	0.166748	-0.106934	0.059868	0.017608	0.097056	-0.211908	0.346957	0.127418	0.904699	6.554441	-42.983274	-156.217663
23839		6.572667	1.293068	9.597269	1.822008	0.595722	1.732894	-0.053325	-1.980505	0.162773	-0.818359	0.175293	-0.076172	0.064761	0.013009	0.096614	-0.211284	0.356159	0.128966	0.901043	6.552773	-44.132887	-156.265196
23840		5.896796	0.874695	9.737406	2.374964	1.307229	1.277827	-0.094957	-2.260718	0.143264	-0.813965	0.177490	-0.029541	0.057856	0.008835	0.098028	-0.210307	0.366662	0.130643	0.896807	6.555956	-45.446850	-156.352596
23841		6.508106	0.743324	9.449156	1.997988	1.248684	1.440572	-0.070156	-2.608256	0.130913	-0.813965	0.175293	0.001465	0.063837	0.007509	0.095327	-0.209047	0.378584	0.132798	0.891817	6.610339	-46.951657	-156.488989
23842		6.463951	0.144867	9.434423	2.024958	1.912264	1.279859	-0.072164	-3.053238	0.126325	-0.809570	0.181885	0.043457	0.063188	0.001523	0.095316	-0.207436	0.392456	0.135392	0.885786	6.704940	-48.714858	-156.677886
23843		4.931732	0.407542	10.545198	4.118145	2.681750	0.747785	-0.045104	-3.616602	0.082189	-0.807617	0.188477	0.096436	0.047398	0.004119	0.106320	-0.205231	0.408609	0.138737	0.878448	6.907326	-50.789652	-156.981930
23844		4.520062	0.619250	11.394483	5.404779	3.123808	0.754020	-0.050870	-4.333716	0.097048	-0.789551	0.190674	0.151855	0.042715	0.006243	0.114887	-0.202509	0.427802	0.142703	0.869259	7.188627	-53.277315	-157.381086
23845		3.346393	1.437343	12.152212	7.402347	3.191786	-0.018664	-0.051443	-5.157772	0.145001	-0.780762	0.192871	0.205078	0.030305	0.014428	0.122327	-0.199282	0.450326	0.147320	0.857782	7.572835	-56.230385	-157.892204
23846		2.133277	2.312620	12.361619	9.065922	2.972610	-1.349228	0.016564	-6.190319	0.325836	-0.762695	0.192871	0.267090	0.017457	0.023146	0.124198	-0.196066	0.477003	0.152723	0.843032	8.047651	-59.785133	-158.446002
23847		2.180280	3.449990	13.125904	10.681458	2.529430	-1.544184	0.045260	-7.456809	0.639535	-0.738037	0.195313	0.335693	0.016780	0.034529	0.131955	-0.193034	0.508630	0.158565	0.823948	8.541997	-64.077488	-158.980849
23848		0.902944	5.551341	14.526775	13.871080	1.762044	-2.957253	0.016601	-8.843107	1.086119	-0.697998	0.206543	0.417480	0.002297	0.055526	0.145473	-0.190347	0.545497	0.164211	0.799522	8.893433	-69.194001	-159.358090
23849		4.852327	6.537166	14.754858	13.956555	0.781230	-0.412724	-0.134647	-10.057437	1.614370	-0.651123	0.215820	0.497070	0.040500	0.065821	0.149676	-0.187920	0.586519	0.168600	0.769582	8.705264	-75.041886	-159.245718
23850		13.193427	2.487018	11.716320	8.664073	2.515031	5.543674	-0.252802	-10.740782	1.918278	-0.588623	0.227539	0.567627	0.125149	0.026247	0.123975	-0.185216	0.628897	0.171804	0.735301	7.481811	-81.301664	-158.150244
23851		26.100890	-4.082916	8.048359	2.623089	6.502294	16.886258	0.236942	-10.663665	1.768704	-0.534912	0.234863	0.634033	0.256577	-0.038653	0.094200	-0.183018	0.668544	0.176707	0.698805	2.959387	-87.495066	-153.480315
23852		33.061792	4.064030	9.770271	10.748552	1.254482	23.156073	0.593546	-9.919725	1.459156	-0.474609	0.246582	0.682617	0.324924	0.042703	0.114042	-0.181090	0.703168	0.182712	0.662856	-167.390198	-86.730453	17.216136
23853		31.723393	8.257688	10.498676	16.243765	-0.968885	20.505505	0.405153	-8.824637	1.928718	-0.418457	0.251465	0.722412	0.311374	0.085368	0.118986	-0.180639	0.733156	0.185048	0.628975	-167.395451	-81.543180	17.450800
23854		27.716348	11.420128	12.453513	21.218915	-2.283909	14.635023	-0.070722	-7.754231	2.549089	-0.371582	0.260986	0.753174	0.270576	0.117725	0.135072	-0.181049	0.759407	0.182290	0.597740	-165.451976	-76.871353	15.427686
23855		27.050595	8.141032	12.768937	21.533202	0.906606	12.460728	-0.280935	-6.905394	3.037003	-0.329102	0.268066	0.770752	0.264608	0.085647	0.136776	-0.182610	0.782588	0.176013	0.568531	-163.369661	-72.580040	13.099826
23856		23.181448	7.670660	15.997386	24.166501	2.617429	6.343105	-0.091745	-5.233025	2.913622	-0.307373	0.283936	0.783447	0.226374	0.080106	0.165909	-0.185817	0.799801	0.169016	0.545183	-161.445856	-69.209920	11.003872
23857		22.680496	9.115195	24.375600	32.151357	5.270935	1.591087	0.292050	-2.954650	2.086873	-0.300781	0.288330	0.787598	0.222205	0.093127	0.247196	-0.190119	0.809279	0.164158	0.531012	-159.863638	-67.204475	9.476184
23858		21.911136	12.436768	25.086438	34.230850	2.503153	-0.535227	0.172048	-0.203006	1.527593	-0.323486	0.297119	0.771729	0.217899	0.125819	0.251194	-0.194667	0.810908	0.158586	0.528567	-157.943698	-66.777611	7.491566
23859		10.174540	11.294337	22.013326	26.724382	1.183399	-10.075751	-0.226976	1.429719	1.143681	-0.350830	0.305664	0.758301	0.102666	0.113778	0.219273	-0.197869	0.808287	0.151926	0.533327	-155.900991	-67.262623	5.127388
23860		-0.785255	9.103795	17.398421	17.887083	0.342504	-17.944365	-0.572752	2.444737	0.734612	-0.393311	0.298340	0.738525	-0.006063	0.091511	0.173804	-0.199318	0.802830	0.144966	0.542883	-153.839664	-68.352903	2.540907
23861		-5.906152	6.373929	13.025523	11.386536	0.520782	-20.547798	-0.631839	2.240704	0.418214	-0.415771	0.300293	0.727295	-0.057733	0.064030	0.130705	-0.199504	0.797690	0.139305	0.551800	-152.149800	-69.376377	0.337001
23862		-3.340245	4.115934	12.346099	10.896149	2.183674	-17.364198	-0.401229	1.873640	0.193599	-0.443115	0.309082	0.702393	-0.032284	0.041376	0.123684	-0.199699	0.793015	0.135520	0.559358	-150.719748	-70.268526	-1.437133
23863		3.549248	5.045014	13.175252	14.401006	1.662612	-11.027109	-0.018344	2.300045	-0.110633	-0.478760	0.304199	0.687012	0.037032	0.050442	0.131328	-0.200840	0.786541	0.133577	0.568484	-148.993333	-71.428491	-3.279807
23864		6.143233	6.905219	13.615290	16.408548	0.110993	-8.578915	0.032061	3.366920	-0.275785	-0.514893	0.305908	0.658203	0.063808	0.068944	0.135103	-0.202368	0.776631	0.131322	0.581933	-146.152994	-73.145644	-6.247434
23865		5.261799	6.774984	13.516340	15.974460	0.096241	-8.789688	-0.118453	4.513482	-0.449484	-0.550781	0.303467	0.613770	0.055801	0.067706	0.133888	-0.203492	0.763195	0.128097	0.599763	-141.561466	-75.376523	-11.091230
23866		3.076622	5.154952	12.458342	13.790536	1.010816	-9.745510	-0.219575	5.414574	-0.628602	-0.591309	0.305176	0.571533	0.034284	0.051582	0.123630	-0.204126	0.746474	0.124254	0.621024	-134.012562	-77.927228	-18.981662
23867		2.164881	2.906790	10.934168	11.287930	2.246921	-9.380821	-0.062146	5.978889	-0.802429	-0.631592	0.304932	0.518311	0.025020	0.029006	0.108618	-0.205008	0.727211	0.120873	0.643837	-121.369378	-80.391082	-31.889902
23868		3.105876	1.262660	9.647202	9.488433	2.938328	-7.444392	0.348234	6.382937	-0.965310	-0.662842	0.298096	0.449707	0.034176	0.012300	0.095436	-0.206883	0.705313	0.118870	0.667535	-99.882432	-82.233333	-53.420737
23869		4.689567	0.966289	8.455859	8.205390	2.394479	-5.194467	0.826679	6.761536	-1.074155	-0.689941	0.297852	0.389893	0.049768	0.009056	0.082946	-0.210095	0.680916	0.118328	0.691528	-69.945944	-82.509396	-83.138714
23870		5.922321	1.344605	7.307022	6.998498	1.269434	-3.516304	1.199784	7.131650	-1.069655	-0.712402	0.295654	0.318848	0.061849	0.012690	0.070973	-0.214525	0.653874	0.118519	0.715808	-43.507050	-80.732359	-109.159959
23871		6.121273	1.673279	6.464503	5.929009	0.436864	-2.980561	1.447495	7.413341	-0.940987	-0.726074	0.300049	0.247803	0.063631	0.015980	0.062433	-0.220117	0.624848	0.118714	0.739608	-27.517956	-77.566818	-124.590094
23872		5.970541	1.072628	5.874147	4.644637	0.572532	-2.786392	1.656847	7.540450	-0.753763	-0.734863	0.295654	0.167969	0.061903	0.010021	0.056520	-0.226750	0.594188	0.118778	0.762507	-18.390682	-73.742023	-133.032211
23873		5.700624	-0.465647	5.963116	3.497072	1.845119	-2.559798	2.028471	7.497552	-0.561837	-0.739258	0.289063	0.101807	0.059171	-0.005410	0.057387	-0.234908	0.562617	0.119568	0.783572	-12.812641	-69.697813	-137.683070
23874		7.356826	-1.026700	6.545321	2.648206	2.020684	-0.492118	2.663008	7.334760	-0.365875	-0.726074	0.293945	0.030518	0.075878	-0.011250	0.062553	-0.245205	0.530042	0.122308	0.802478	-8.861310	-65.598728	-140.300722
23875		12.158183	4.577283	7.581255	4.071931	-3.775486	4.163560	3.208390	7.310265	-0.164926	-0.714600	0.291992	-0.033691	0.124298	0.044495	0.072022	-0.257315	0.496355	0.126537	0.819395	-5.775934	-61.467025	-141.696332
23876		15.468936	-2.379528	6.628453	-2.762049	0.200655	6.952278	3.197639	7.534868	-0.088151	-0.696777	0.290283	-0.108887	0.157019	-0.024857	0.060005	-0.269561	0.460807	0.130041	0.835513	-3.290152	-57.153800	-142.445059
23877		17.349258	0.296098	6.030363	-3.714121	-3.426089	7.843662	3.737913	7.641396	-0.538428	-0.680420	0.275146	-0.174805	0.175633	0.001446	0.053656	-0.280645	0.423187	0.136462	0.850605	-0.509800	-52.799557	-143.227857
23878		18.161898	0.234029	6.070297	-5.425895	-4.131790	8.077587	3.848661	7.412946	-1.258191	-0.664063	0.255371	-0.236328	0.183707	0.000107	0.053935	-0.288421	0.384910	0.144936	0.864668	2.475976	-48.524899	-144.222533
23879		21.559715	0.629614	7.347769	-7.715526	-5.543799	10.892132	3.448103	7.048559	-2.208183	-0.640869	0.231445	-0.292969	0.218052	0.002717	0.065888	-0.290381	0.347655	0.153793	0.878159	5.479759	-44.419788	-145.643770
23880		26.061319	-1.935779	8.978799	-12.853322	-4.862310	14.151930	2.698976	6.799632	-3.346870	-0.632568	0.187256	-0.344727	0.263072	-0.024876	0.080559	-0.285548	0.310915	0.161418	0.892042	8.325533	-40.307039	-147.559792
23881		29.702760	-7.686453	8.697521	-20.779362	-2.011624	14.282732	1.952814	6.609621	-4.487246	-0.613037	0.145508	-0.396484	0.297832	-0.084322	0.076340	-0.273670	0.274876	0.167517	0.906358	10.938225	-36.154299	-149.977214
23882		31.903004	-13.203597	5.339433	-28.702761	0.285080	10.088536	1.465790	6.220367	-5.206037	-0.595703	0.099121	-0.432373	0.316878	-0.140643	0.042505	-0.257194	0.240018	0.172604	0.920027	13.238837	-32.034632	-152.579387
23883		34.198752	-13.113678	1.035917	-33.238139	-1.932811	5.467227	0.888592	5.573675	-4.945138	-0.574219	0.061768	-0.468750	0.338707	-0.139556	0.000280	-0.240151	0.208912	0.175324	0.931636	14.889874	-28.259647	-154.858882
23884		34.581024	-12.551550	-2.574162	-35.227682	-3.418547	0.528744	-0.179509	4.831789	-3.711386	-0.559814	0.033203	-0.494385	0.342648	-0.131922	-0.033929	-0.226876	0.183252	0.172425	0.940859	15.444927	-25.028307	-156.333347
23885		32.329726	-10.696684	-4.299224	-33.381892	-4.437270	-3.187814	-1.123037	4.249920	-2.003000	-0.530762	0.038086	-0.523193	0.321201	-0.110456	-0.049219	-0.220030	0.162861	0.164092	0.947701	15.002745	-22.389239	-156.843691
23886		30.123803	-10.114126	-5.287962	-31.675056	-4.446802	-6.001182	-1.418026	3.788701	-0.389283	-0.512695	0.033936	-0.540771	0.299975	-0.102124	-0.057849	-0.220089	0.146168	0.153480	0.952176	14.059915	-20.237639	-156.491551
23887		27.658525	-15.587714	-8.735009	-32.842615	-0.304969	-12.152584	-0.342036	3.284268	0.667013	-0.495117	0.042969	-0.550049	0.275622	-0.155111	-0.091616	-0.225515	0.131507	0.147713	0.953955	13.571165	-18.513408	-155.620879
23888		23.440922	-18.660405	-12.331533	-31.193302	2.238085	-18.276452	1.901508	2.376005	0.951227	-0.480957	0.027588	-0.571533	0.233788	-0.184290	-0.127855	-0.233036	0.118804	0.153448	0.952908	14.380016	-17.333719	-154.719046
23889		23.116679	-8.499007	-14.033777	-26.058197	-7.451177	-18.116632	2.873862	1.330337	0.814088	-0.471680	0.019043	-0.577881	0.230559	-0.082008	-0.143065	-0.239623	0.109833	0.165073	0.950404	15.823786	-16.731220	-154.039701
23890		25.889931	-1.104056	-14.824549	-24.652576	-15.530305	-16.318256	1.119199	0.398401	0.769666	-0.469482	0.021240	-0.578125	0.258641	-0.009213	-0.148816	-0.244234	0.107351	0.169476	0.948738	16.314711	-16.647267	-153.530438
23891		28.326056	-3.523998	-14.351404	-27.809954	-14.559320	-15.760555	-1.044689	-0.394867	0.593530	-0.465820	0.041260	-0.574219	0.283647	-0.035146	-0.142771	-0.246159	0.111108	0.164669	0.948654	15.632178	-16.970233	-153.253452
23892		32.160438	-4.422538	-18.832289	-32.270765	-16.986167	-18.675332	-2.728355	-1.131195	0.897022	-0.475586	0.061035	-0.559570	0.322862	-0.045326	-0.185886	-0.247971	0.120706	0.152606	0.949027	13.961544	-17.745532	-152.903275
23893		-8.280741	-3.963039	10.977091	6.829098	10.687405	-3.186467	-2.060954	-2.623535	0.871680	-0.487549	0.087402	-0.544922	-0.084071	-0.038869	0.109077	-0.248836	0.136463	0.145519	0.947778	12.729804	-19.335210	-152.755622
23894		-8.868291	18.961007	40.863250	25.528163	1.881029	28.298315	-2.412607	-3.233361	0.831070	-0.504150	0.111572	-0.519287	-0.096049	0.194120	0.404796	-0.248805	0.155508	0.137491	0.946049	11.309881	-21.263211	-152.660170
23895		15.101132	-15.004772	9.103064	-17.910605	9.256955	1.567803	-2.577024	-2.454125	0.076410	-0.511475	0.126953	-0.501953	0.149920	-0.148785	0.094797	-0.245448	0.170455	0.128261	0.945648	9.915861	-22.665073	-152.891286
23896		21.178597	-17.012511	1.929844	-25.375352	6.327744	-2.219039	-0.856984	-3.597573	-0.377308	-0.540771	0.133301	-0.478027	0.211063	-0.170428	0.023829	-0.240663	0.188384	0.128898	0.943387	9.663166	-24.675556	-153.495933
23897		27.947703	-0.945516	20.560539	-16.750719	-3.441943	20.389510	-0.417083	-3.091847	0.129720	-0.547852	0.142090	-0.471680	0.276260	-0.008841	0.209912	-0.238871	0.203635	0.130499	0.940449	9.525624	-26.446413	-153.739994
23898		14.339243	-3.432805	11.741600	-9.304473	1.279509	6.528686	-0.786323	-1.811026	0.530497	-0.557373	0.155273	-0.454346	0.142410	-0.033484	0.118841	-0.239525	0.213559	0.128357	0.938373	8.991746	-27.534742	-153.568865
23899		5.643341	-2.148202	6.481591	-3.280346	1.859140	-1.796888	-0.430836	-2.119266	0.216117	-0.568848	0.161621	-0.438965	0.055765	-0.021281	0.065455	-0.238715	0.224249	0.128621	0.936047	8.774849	-28.765274	-153.640574
23900		14.506429	0.855914	10.393760	-7.085284	-2.706421	6.363310	-0.384645	-1.962560	0.187016	-0.573975	0.177246	-0.424072	0.144027	0.008896	0.105337	-0.238110	0.234116	0.128864	0.933749	8.569099	-29.906059	-153.680933
23901		11.636623	-1.327241	8.808415	-6.330348	-0.216863	3.402387	-0.121675	-1.080884	0.291664	-0.578613	0.183838	-0.419922	0.115907	-0.013049	0.088719	-0.238639	0.239596	0.129223	0.932173	8.451438	-30.554984	-153.593391
23902		5.576000	2.858007	9.856551	0.994723	-1.052368	1.776689	-0.027497	-0.921204	0.180889	-0.580811	0.183594	-0.404297	0.055279	0.028644	0.098817	-0.239221	0.244108	0.129862	0.930763	8.390869	-31.100784	-153.510905
23903		6.667403	1.093928	10.050316	-0.564281	0.138854	2.283648	-0.120961	-0.768356	0.183206	-0.585938	0.201416	-0.405029	0.066277	0.011061	0.100752	-0.239434	0.248049	0.129978	0.929650	8.292100	-31.563298	-153.461685
23904		7.287809	1.417645	8.136390	-1.549340	-1.042712	1.042476	-0.125848	-0.604899	0.240636	-0.588379	0.208008	-0.398682	0.072614	0.014315	0.081575	-0.240035	0.251352	0.129804	0.928632	8.158243	-31.947442	-153.353452
23905		7.336562	2.258831	7.930882	-1.166207	-1.846096	1.006639	-0.236312	-0.543609	0.265771	-0.583984	0.212402	-0.398682	0.073120	0.022779	0.079481	-0.240627	0.254434	0.129008	0.927749	7.950401	-32.288867	-153.224471
23906		6.947250	0.719292	8.609570	-1.308997	-0.146505	1.195084	-0.286677	-0.484448	0.262469	-0.588623	0.214600	-0.392090	0.069254	0.007407	0.086253	-0.241199	0.257380	0.127915	0.926939	7.707501	-32.605871	-153.086430
23907		7.358308	-0.198871	9.465209	-1.669326	0.781642	2.035373	-0.212282	-0.383475	0.161092	-0.586670	0.218994	-0.387939	0.073403	-0.001829	0.094795	-0.241435	0.259619	0.127170	0.926356	7.540534	-32.847570	-153.009725
23908		5.213672	0.014674	9.723246	0.202266	1.514527	1.113854	-0.057544	-0.294495	0.055631	-0.584473	0.221436	-0.387939	0.051993	0.000189	0.097309	-0.241463	0.261274	0.127173	0.925883	7.493177	-33.040592	-152.991926
23909		4.813729	0.212411	9.263144	0.440444	1.344383	0.532432	-0.009333	-0.301050	0.006281	-0.586914	0.228027	-0.390381	0.047998	0.002130	0.092704	-0.241297	0.262786	0.127469	0.925457	7.494865	-33.223753	-153.011876
23910		5.220596	1.344384	9.382477	0.802258	0.292116	0.974517	0.092781	-0.373401	-0.003881	-0.593018	0.214600	-0.387695	0.052031	0.013399	0.093928	-0.241193	0.264583	0.128339	0.924852	7.559476	-33.456889	-153.041682
23911		5.405634	1.975241	8.780070	0.764224	-0.508340	0.645301	0.050870	-0.365181	0.004668	-0.586426	0.216797	-0.387939	0.053895	0.019731	0.087904	-0.241056	0.266317	0.128992	0.924299	7.599845	-33.676326	-153.068977
23912		5.304234	2.393702	8.580724	1.006949	-0.880496	0.468566	-0.048243	-0.374194	0.075366	-0.588867	0.218994	-0.385742	0.052873	0.023978	0.085900	-0.241129	0.268335	0.129104	0.923680	7.554106	-33.915696	-153.045158
23913		5.331434	2.310104	8.322299	0.875751	-0.907905	0.258560	-0.161336	-0.388177	0.178534	-0.591064	0.221191	-0.390137	0.053132	0.023216	0.083308	-0.241494	0.270540	0.128571	0.923016	7.407345	-34.161204	-152.955024
23914		6.495405	1.822692	7.782579	-0.414815	-1.134028	0.415836	-0.240020	-0.400096	0.278415	-0.597656	0.218994	-0.383545	0.064773	0.018411	0.077933	-0.242226	0.273035	0.127555	0.922230	7.173497	-34.429826	-152.792311
23915		6.446087	0.910556	7.929295	-0.729676	-0.296085	0.416416	-0.212259	-0.360611	0.294744	-0.604736	0.223389	-0.388184	0.064304	0.009285	0.079399	-0.243073	0.275245	0.126594	0.921482	6.948514	-34.667292	-152.616863
23916		6.658953	0.388467	7.801780	-1.160518	0.011737	0.385999	-0.136210	-0.330701	0.291099	-0.604980	0.229980	-0.381592	0.066455	0.004035	0.078125	-0.244046	0.277298	0.125955	0.920697	6.762848	-34.896318	-152.436196
23917		6.624122	-0.104456	7.956856	-1.278250	0.496632	0.449904	-0.065191	-0.305279	0.231041	-0.604736	0.227783	-0.392578	0.066121	-0.000942	0.079670	-0.244835	0.279031	0.125691	0.920000	6.642205	-35.097129	-152.297717
23918		5.934063	0.384741	8.357994	-0.303855	0.496782	0.428308	0.029269	-0.311096	0.182076	-0.613525	0.220947	-0.387939	0.059207	0.003889	0.083673	-0.245547	0.280721	0.125938	0.919261	6.591796	-35.307218	-152.189301
23919		6.355092	0.646063	8.060872	-0.571448	0.017040	0.456456	0.063726	-0.331330	0.179500	-0.613770	0.223145	-0.383545	0.063411	0.006492	0.080716	-0.246260	0.282381	0.126370	0.918503	6.565548	-35.519228	-152.087671
23920		6.320787	0.231149	7.947018	-0.779063	0.357525	0.307885	0.152561	-0.387649	0.171751	-0.620117	0.218750	-0.383545	0.063052	0.002305	0.079594	-0.247048	0.284262	0.127291	0.917583	6.592393	-35.772091	-151.991902
23921		6.462939	0.682007	7.855647	-0.648670	-0.086124	0.361670	0.208782	-0.440355	0.176818	-0.627197	0.223145	-0.383789	0.064450	0.006795	0.078706	-0.247883	0.286239	0.128525	0.916571	6.654613	-36.046038	-151.900624
23922		5.909274	0.447455	8.580431	-0.002592	0.629155	0.596322	0.227345	-0.472364	0.156576	-0.638184	0.216309	-0.381348	0.058886	0.004423	0.085949	-0.248650	0.288402	0.129913	0.915489	6.733918	-36.346226	-151.822480
23923		5.536953	0.565326	8.692534	0.415622	0.752185	0.473168	0.244745	-0.499596	0.121725	-0.638428	0.222900	-0.383789	0.055149	0.005580	0.087070	-0.249241	0.290565	0.131463	0.914422	6.842319	-36.650358	-151.775475
23924		5.741264	0.009747	8.520652	-0.063048	1.120228	0.400271	0.284917	-0.563091	0.074732	-0.642334	0.211670	-0.376709	0.057172	-0.000003	0.085368	-0.249653	0.293011	0.133342	0.913257	6.993861	-36.996568	-151.764128
23925		6.084080	0.292972	8.409508	-0.163123	0.764241	0.541566	0.360956	-0.646113	0.007842	-0.651611	0.213867	-0.372314	0.060569	0.002780	0.084296	-0.249792	0.295617	0.135769	0.912021	7.226441	-37.376133	-151.813161
23926		5.947114	0.639708	8.211601	0.070532	0.508872	0.333411	0.401593	-0.708202	-0.028500	-0.660400	0.209229	-0.365479	0.059181	0.006223	0.082339	-0.250089	0.298399	0.138439	0.910631	7.479825	-37.785497	-151.849751
23927		6.154037	0.578496	7.928732	-0.194617	0.440678	0.229171	0.430305	-0.759449	-0.054711	-0.669189	0.206787	-0.361084	0.061240	0.005597	0.079532	-0.249959	0.301381	0.141412	0.909226	7.790245	-38.224288	-151.959767
23928		6.307019	0.685457	7.616311	-0.342867	0.239419	0.090898	0.423154	-0.799361	-0.081976	-0.687256	0.208740	-0.349854	0.062768	0.006667	0.076429	-0.249930	0.304516	0.144384	0.907721	8.093607	-38.682466	-152.056503
23929		6.483106	1.147716	7.408269	-0.261173	-0.220534	0.092503	0.383457	-0.861337	-0.078377	-0.695801	0.199951	-0.343018	0.064516	0.011309	0.074383	-0.249539	0.307989	0.147302	0.906187	8.400854	-39.176135	-152.201974
23930		6.350820	1.841829	7.579987	0.352385	-0.605704	0.221734	0.290092	-0.907862	-0.041927	-0.704834	0.197510	-0.322998	0.063167	0.018295	0.076114	-0.249349	0.311816	0.149756	0.904527	8.627357	-39.700530	-152.296019
23931		5.822106	2.568970	7.650236	1.216817	-0.924219	0.020266	0.140578	-1.007054	0.057212	-0.711426	0.197266	-0.316406	0.057827	0.025652	0.076812	-0.249074	0.316336	0.151540	0.902734	8.748307	-40.287580	-152.364904
23932		5.777385	3.305126	7.882733	1.860363	-1.366006	0.242733	-0.079133	-1.128206	0.199582	-0.722900	0.199463	-0.296387	0.057295	0.033140	0.079138	-0.249144	0.321806	0.152234	0.900662	8.672614	-40.960165	-152.319123
23933		6.329789	3.604066	7.381241	1.518291	-1.990141	0.250664	-0.318283	-1.181811	0.351103	-0.729736	0.203613	-0.285645	0.062797	0.036269	0.074127	-0.249312	0.327888	0.151688	0.898512	8.398083	-41.671365	-152.185384
23934		6.719477	2.494638	7.209685	0.696943	-1.260329	0.251035	-0.439791	-1.204115	0.401803	-0.743408	0.208008	-0.263428	0.066709	0.025240	0.072444	-0.249582	0.334289	0.150529	0.896271	8.015619	-42.404891	-151.992245
23935		7.593224	2.495742	7.406654	0.371134	-1.470312	0.978190	-0.585098	-1.144492	0.462724	-0.754639	0.209961	-0.250244	0.075449	0.025350	0.074425	-0.249813	0.340590	0.148542	0.894163	7.513549	-43.102129	-151.752195
23936		7.460852	2.766157	7.544633	0.825650	-1.597379	1.004076	-0.674039	-1.055439	0.545801	-0.752686	0.216553	-0.228271	0.074133	0.028119	0.075744	-0.250362	0.346710	0.145901	0.892090	6.895249	-43.760759	-151.418693
23937		7.512580	2.534677	7.844212	0.979191	-1.313726	1.219466	-0.713892	-1.049749	0.625324	-0.757324	0.220947	-0.212891	0.074633	0.025861	0.078743	-0.251145	0.352834	0.142926	0.889947	6.201676	-44.410797	-151.015286
23938		7.546776	1.269969	7.880345	0.446182	-0.278026	1.159453	-0.678054	-1.147701	0.683204	-0.768799	0.229736	-0.193359	0.074969	0.013224	0.079190	-0.252167	0.359441	0.140134	0.887455	5.485421	-45.125180	-150.556052
23939		7.045250	0.883211	8.444660	1.035469	0.449831	1.162314	-0.599231	-1.341881	0.697339	-0.770996	0.229492	-0.171143	0.069852	0.009330	0.084889	-0.253238	0.366728	0.137892	0.884515	4.800271	-45.938320	-150.082520
23940		6.560870	-0.407738	8.781747	1.007592	1.851615	0.952217	-0.503895	-1.690131	0.659739	-0.778076	0.240479	-0.145020	0.064876	-0.003640	0.088377	-0.254004	0.375460	0.136578	0.880828	4.189630	-46.954667	-149.648544
23941		6.470980	-1.254443	9.064080	0.977234	2.755651	1.006347	-0.368982	-2.056752	0.542539	-0.784912	0.244629	-0.107422	0.063806	-0.012202	0.091323	-0.254283	0.385434	0.136522	0.876437	3.720881	-48.163255	-149.305108
23942		5.549991	-1.765518	9.595433	1.782002	3.807320	0.594739	-0.296275	-2.416230	0.372586	-0.791748	0.246826	-0.076416	0.054368	-0.017410	0.096642	-0.253695	0.396784	0.137555	0.871367	3.394871	-49.577420	-149.102818
23943		5.893320	-1.998936	9.648571	1.755622	4.026001	0.794970	-0.248858	-2.833385	0.227389	-0.796631	0.255615	-0.050049	0.057581	-0.019803	0.097333	-0.252218	0.409658	0.139582	0.865496	3.200350	-51.217118	-149.040453
23944		4.950396	-1.720070	10.310503	3.132321	4.542047	0.351847	-0.220037	-3.329825	0.095027	-0.801270	0.259766	-0.001465	0.047786	-0.017064	0.103929	-0.249834	0.424508	0.142596	0.858511	3.127780	-53.143619	-149.113715
23945		4.587089	-1.373673	11.076536	4.347748	4.896484	0.322409	-0.185835	-4.010681	0.015325	-0.805664	0.261719	0.047119	0.043639	-0.013630	0.111668	-0.246595	0.441978	0.146729	0.849893	3.176762	-55.450053	-149.309896
23946		4.385707	0.833989	12.320520	6.906356	3.915023	0.611641	-0.199889	-4.839023	0.052725	-0.803223	0.257324	0.104980	0.040857	0.008475	0.124210	-0.242765	0.462840	0.151659	0.838954	3.239560	-58.237629	-149.527454
23947		2.170947	2.197964	13.436243	9.894640	4.140493	-1.153946	-0.217610	-5.943523	0.264531	-0.790039	0.266113	0.166748	0.017676	0.022151	0.134904	-0.238754	0.488122	0.157261	0.824623	3.173314	-61.657641	-149.599447
23948		2.968545	4.537752	13.295721	11.263216	2.190992	-1.185490	-0.156205	-7.424567	0.724511	-0.774414	0.268311	0.242188	0.024561	0.045577	0.133897	-0.235360	0.519276	0.163569	0.805111	2.664290	-65.943517	-149.137812
23949		2.962699	6.874747	14.806258	14.326595	1.314130	-1.559648	-0.389616	-8.945101	1.422094	-0.748047	0.288574	0.319092	0.022483	0.069214	0.149040	-0.232508	0.556450	0.168643	0.779656	0.744632	-71.102659	-147.320996
23950		7.513152	6.389195	15.294336	14.106149	1.557388	1.566490	-0.574933	-10.232489	2.157387	-0.708008	0.302002	0.411865	0.066491	0.065087	0.156308	-0.230368	0.598156	0.172029	0.748028	-4.626706	-76.940179	-142.088689
23951		19.594757	1.265280	13.361941	9.217799	3.746135	11.740399	-0.712212	-10.605104	2.503171	-0.659180	0.315674	0.502441	0.188321	0.015542	0.143691	-0.228122	0.639965	0.173814	0.712878	-20.133276	-82.628136	-126.772848
23952		30.574428	-1.098544	10.685540	7.451547	4.128840	21.439400	-0.443858	-10.024128	2.138447	-0.601074	0.327393	0.564209	0.299973	-0.007497	0.122010	-0.225302	0.677293	0.176557	0.677747	-72.947387	-86.049256	-74.015467
23953		35.006342	2.660631	11.369494	13.130416	2.208841	24.590106	-0.427291	-8.921240	2.022477	-0.542969	0.336914	0.617188	0.344239	0.030373	0.129078	-0.222579	0.709147	0.178100	0.644864	-128.835219	-83.662746	-18.195686
23954		30.963047	6.276258	11.460397	17.352793	0.232582	18.956214	-0.758243	-7.814068	2.435353	-0.498047	0.339600	0.659180	0.304049	0.066952	0.126310	-0.220580	0.736824	0.175528	0.614512	-143.442008	-79.423270	-3.883811
23955		27.165659	4.836358	13.134326	19.285691	2.816943	13.715475	-1.095001	-6.858529	2.713637	-0.450928	0.340088	0.692383	0.266252	0.052753	0.140256	-0.218689	0.761039	0.169586	0.586715	-148.197537	-75.284712	0.339856
23956		25.474304	2.694105	15.216503	21.000312	5.865277	10.485307	-1.153590	-5.851242	2.707555	-0.417480	0.349365	0.720947	0.249747	0.031250	0.159349	-0.217142	0.781408	0.162170	0.562097	-150.162153	-71.600855	1.694103
23957		12.745817	3.826938	18.096656	20.720223	6.244584	-3.798930	-0.968906	-4.434657	1.963624	-0.385742	0.343018	0.730225	0.123018	0.040377	0.183535	-0.215189	0.796341	0.156517	0.543174	-151.442985	-68.822264	2.460879
23958		18.533545	2.775119	22.711751	26.297042	9.550953	-0.636901	-0.428427	-2.843654	1.037720	-0.388184	0.347412	0.732178	0.181933	0.029191	0.229659	-0.214029	0.805284	0.154220	0.530967	-152.293054	-67.098251	3.107689
23959		19.199756	8.414224	19.887059	27.226754	3.235074	-0.694110	-0.347306	-1.223411	0.704528	-0.390381	0.345215	0.729980	0.190478	0.085162	0.199892	-0.213526	0.809489	0.151743	0.525460	-152.425219	-66.278289	3.030708
23960		12.385625	8.967936	20.186459	25.065225	2.581602	-7.286223	-0.885077	0.675790	0.435024	-0.415039	0.340332	0.717041	0.124340	0.090840	0.201045	-0.211573	0.808996	0.146885	0.528382	-152.014462	-66.501647	2.023120
23961		4.199108	5.391662	14.958937	16.059486	2.699889	-12.107104	-1.310723	1.892818	0.258262	-0.432617	0.333496	0.706055	0.043331	0.054949	0.148826	-0.208305	0.805582	0.140342	0.536611	-151.258215	-67.374037	0.380799
23962		-0.400416	2.416438	11.152471	9.990439	3.245048	-14.288360	-1.222825	2.143365	0.084557	-0.461426	0.322021	0.695313	-0.002820	0.024844	0.111409	-0.205071	0.801110	0.134428	0.545984	-150.377615	-68.422379	-1.331789
23963		-1.010563	1.732179	9.630047	8.343250	3.024464	-14.055072	-0.898694	2.214942	-0.052081	-0.479492	0.324219	0.679688	-0.009034	0.017757	0.096325	-0.202781	0.795958	0.129879	0.555393	-149.311371	-69.523170	-3.029820
23964		0.948215	1.962556	8.862357	8.581861	2.353830	-11.837311	-0.585251	2.395110	-0.139130	-0.506104	0.310547	0.657959	0.010556	0.019877	0.088444	-0.201584	0.789750	0.126314	0.565424	-147.849701	-70.736653	-4.946559
23965		4.698315	3.291029	8.734710	10.291582	0.923457	-8.255995	-0.434364	2.895379	-0.114550	-0.528564	0.312500	0.635742	0.048259	0.033071	0.086583	-0.201331	0.781913	0.122582	0.577106	-145.562089	-72.148213	-7.626009
23966		7.146259	4.307261	8.691549	11.341994	-0.246701	-5.757351	-0.498678	3.866235	-0.075817	-0.562256	0.310059	0.602539	0.073140	0.043259	0.085405	-0.201473	0.771057	0.117468	0.592521	-141.637257	-73.959808	-12.033068
23967		5.698317	4.127243	7.956037	10.092998	-0.527990	-6.551500	-0.621904	4.895942	-0.078196	-0.584473	0.303223	0.567139	0.058922	0.041494	0.078005	-0.201640	0.756970	0.110935	0.611581	-135.175380	-76.080472	-19.093401
23968		2.842422	2.945372	6.704752	7.744242	0.028220	-8.501309	-0.579318	5.568635	-0.113847	-0.622559	0.302734	0.522949	0.030291	0.029629	0.066136	-0.202088	0.740151	0.103884	0.632887	-124.962003	-78.195223	-29.912568
23969		1.267178	1.793508	5.697801	6.052200	0.674428	-9.372957	-0.283868	5.858024	-0.176842	-0.647217	0.300293	0.478516	0.014348	0.018003	0.056549	-0.203420	0.721567	0.097652	0.654542	-110.021376	-79.840599	-45.296666
23970		1.422214	1.524970	5.011705	5.308338	0.531922	-8.814778	0.185466	5.961301	-0.252204	-0.667480	0.298096	0.418701	0.015727	0.015184	0.049677	-0.206063	0.701402	0.093010	0.675960	-90.431871	-80.599801	-65.066653
23971		2.184295	1.526172	4.517164	4.829022	0.150652	-7.774241	0.703766	6.023520	-0.286851	-0.681152	0.302490	0.374268	0.023213	0.015072	0.044539	-0.210257	0.679944	0.090121	0.696668	-69.765857	-80.159548	-85.616001
23972		3.701457	1.998705	4.295789	4.677772	-0.691500	-6.100577	1.210480	6.162073	-0.318128	-0.703613	0.300049	0.314453	0.038348	0.019671	0.041910	-0.215770	0.656729	0.088814	0.717121	-52.059185	-78.589500	-102.940138
23973		4.412072	3.179171	4.423324	5.025578	-1.907664	-5.314719	1.536644	6.346969	-0.272508	-0.712646	0.300049	0.263428	0.045542	0.031396	0.043045	-0.222534	0.631929	0.088300	0.737121	-39.124073	-76.147610	-115.292412
23974		4.062151	3.538078	4.503498	5.031681	-2.198071	-5.437744	1.694011	6.406589	-0.148329	-0.721680	0.300293	0.207764	0.042068	0.034974	0.044000	-0.229916	0.606009	0.087778	0.756430	-30.252587	-73.170455	-123.496002
23975		4.136960	2.580897	4.701547	4.492074	-1.373689	-4.933917	1.903795	6.320012	-0.038038	-0.717285	0.304932	0.149902	0.042837	0.025360	0.045920	-0.238184	0.579663	0.087758	0.774311	-24.161812	-69.965064	-128.767628
23976		5.229569	1.287813	5.135857	3.689434	-0.455542	-3.366921	2.296702	6.137067	-0.010334	-0.717285	0.302734	0.096924	0.053842	0.012297	0.049865	-0.247275	0.552830	0.089286	0.790735	-19.524324	-66.699131	-132.349440
23977		7.786425	0.825396	5.833236	2.897265	-0.639327	-0.511916	2.873342	5.993726	-0.084229	-0.708496	0.305176	0.039063	0.079571	0.007404	0.056075	-0.257421	0.525333	0.093398	0.805628	-15.568836	-63.448305	-134.898444
23978		11.709921	3.009760	6.261524	2.483088	-3.725243	3.044120	3.301116	6.013057	-0.179084	-0.701416	0.294434	-0.011475	0.118947	0.028992	0.059542	-0.267979	0.496436	0.099346	0.819676	-11.956548	-60.120919	-136.854802
23979		13.305275	4.816250	6.237400	2.102655	-5.995173	4.283843	3.210766	6.184632	-0.412083	-0.692139	0.288086	-0.068848	0.135009	0.046920	0.058979	-0.277168	0.466381	0.105162	0.833431	-8.717682	-56.687527	-138.500633
23980		12.418611	4.110118	6.733322	1.626361	-5.085880	3.894371	2.925075	6.116417	-0.806986	-0.684814	0.270508	-0.119385	0.126341	0.039641	0.064078	-0.283630	0.436110	0.110687	0.846824	-5.749853	-53.264421	-140.079891
23981		12.936672	2.426782	7.959323	0.384281	-3.568331	5.142034	2.685178	5.838514	-1.385057	-0.679688	0.255127	-0.169678	0.131781	0.022323	0.076078	-0.286701	0.406682	0.116721	0.859528	-2.901899	-49.999355	-141.753663
23982		15.504579	0.946067	9.566764	-1.798197	-2.848080	8.113672	2.512433	5.564808	-2.088282	-0.672119	0.230957	-0.217773	0.157708	0.006657	0.091399	-0.285864	0.377708	0.123735	0.871957	-0.013596	-46.838808	-143.691490
23983		20.363505	1.129734	11.683113	-4.441809	-4.148698	12.887648	2.317863	5.513517	-2.800712	-0.659912	0.200195	-0.265381	0.206873	0.007104	0.111256	-0.281291	0.348524	0.131167	0.884421	2.847237	-43.652056	-145.853857
23984		25.087192	0.821390	12.462548	-8.723243	-5.529109	16.232771	1.808858	5.842738	-3.509726	-0.647461	0.164795	-0.306152	0.254449	0.002686	0.117267	-0.272508	0.317606	0.137002	0.897829	5.474591	-40.164173	-148.234776
23985		25.704585	-1.508151	11.720357	-12.707563	-4.185343	15.107124	1.100097	6.217296	-4.097851	-0.628174	0.125244	-0.351318	0.260131	-0.021006	0.109043	-0.259934	0.285276	0.139865	0.911861	7.619699	-36.368414	-150.684901
