// General information: 
//  MT Manager version: 2019.2.0 
//  XDA version: 2019.2.0 build 3853 rev 94535 built on 2019-09-09
// Device information: 
//  DeviceId: 00B40AC5
//  ProductCode: MTW2-3A7G6
//  Firmware Version: 4.3.5
//  Hardware Version: 1.1.0
// Device settings: 
//  Filter Profile: human(46.1)
//  Option Flags: Orientation Smoother Disabled, AHS Disabled, ICC Disabled
// Coordinate system: ENU
PacketCounter	SampleTimeFine	Acc_X	Acc_Y	Acc_Z	FreeAcc_E	FreeAcc_N	FreeAcc_U	Gyr_X	Gyr_Y	Gyr_Z	Mag_X	Mag_Y	Mag_Z	VelInc_X	VelInc_Y	VelInc_Z	Quat_q0	Quat_q1	Quat_q2	Quat_q3	Roll	Pitch	Yaw
41146		14.693505	6.861823	12.274342	14.043007	-1.947863	4.764034	1.231908	-6.282994	2.476168	-0.611328	0.238770	0.465332	0.142117	0.069621	0.127686	0.142631	-0.707104	-0.130003	-0.680264	-143.686856	-87.596400	-14.077910
41147		9.382035	8.256975	10.749294	13.747694	-3.563989	-1.449251	1.650616	-5.858054	2.632071	-0.576660	0.270020	0.504150	0.089517	0.082861	0.110840	0.153517	-0.727239	-0.130382	-0.656168	-150.371344	-83.941013	-6.434523
41148		6.758563	9.896116	10.381523	14.260273	-4.986284	-5.007763	1.436662	-5.534554	2.719334	-0.550293	0.290283	0.523438	0.063319	0.099084	0.106319	0.163960	-0.745744	-0.129358	-0.632652	-150.974371	-80.405753	-4.999304
41149		18.747468	12.216959	15.286281	22.172968	-5.102725	4.903220	0.946035	-4.444914	2.195999	-0.521484	0.301758	0.545166	0.182657	0.123455	0.157540	0.171490	-0.760276	-0.127731	-0.613398	-151.121136	-77.557296	-4.301806
41150		30.666905	15.430728	21.545422	32.078629	-5.508680	14.340554	0.255568	-0.628659	0.454585	-0.535156	0.303955	0.542969	0.305638	0.154726	0.216614	0.173424	-0.762295	-0.127306	-0.610429	-150.750798	-77.112536	-4.535416
41151		14.887598	16.466816	17.912946	25.728337	-7.786431	-0.270568	-0.702952	2.293072	-0.829063	-0.543945	0.301514	0.529541	0.151595	0.164668	0.176823	0.169643	-0.755382	-0.126290	-0.620217	-150.075514	-78.478796	-5.642485
41152		4.470289	11.242779	14.688151	18.478018	-4.414008	-8.738282	-1.551330	3.665722	-1.247189	-0.570313	0.285645	0.505859	0.048079	0.113265	0.145144	0.162152	-0.744375	-0.123050	-0.635981	-148.489589	-80.652634	-8.162661
41153		-2.184224	4.611456	11.021640	11.523227	0.106769	-13.645695	-1.634460	4.007052	-1.342674	-0.592529	0.276611	0.486084	-0.019319	0.047151	0.110238	0.154209	-0.732010	-0.119536	-0.652758	-145.188420	-82.986249	-12.447185
41154		-4.492340	0.432498	7.910587	7.021420	2.696092	-14.947224	-1.145026	3.942237	-1.400860	-0.618896	0.260742	0.462158	-0.043319	0.005088	0.079943	0.147721	-0.718994	-0.117859	-0.668831	-138.401026	-85.268306	-19.932218
41155		-4.297437	-1.949947	6.949595	5.495322	4.492140	-14.305069	-0.284980	3.846647	-1.514092	-0.632324	0.254150	0.435791	-0.041772	-0.019080	0.070334	0.143856	-0.705366	-0.119447	-0.683738	-120.809932	-87.357213	-37.724019
41156		-3.118927	-0.042082	6.675738	6.142675	2.581426	-12.957887	0.510736	3.775255	-1.712354	-0.649658	0.236084	0.414307	-0.029925	-0.000332	0.067329	0.141987	-0.690883	-0.124486	-0.697870	-57.373824	-88.473053	-100.902412
41157		-0.779597	3.580418	6.719501	7.587722	-0.796507	-10.414316	0.724397	3.815468	-1.807985	-0.665039	0.227051	0.383545	-0.006188	0.035621	0.067453	0.140512	-0.675846	-0.130486	-0.711661	-4.587544	-86.985999	-153.309470
41158		1.500961	5.748426	7.015487	8.543797	-2.712228	-7.775814	0.377877	4.000236	-1.844907	-0.685059	0.220215	0.352783	0.016939	0.057202	0.069937	0.137760	-0.659936	-0.135218	-0.726101	8.941810	-84.632784	-166.658311
41159		3.085363	5.009854	7.003187	7.972136	-2.062598	-5.832900	-0.150267	4.264544	-1.907047	-0.695557	0.197998	0.324707	0.032813	0.049844	0.069309	0.133177	-0.643164	-0.137955	-0.741331	13.866702	-82.029864	-171.706196
41160		3.900513	2.750897	6.650696	6.468148	-0.142724	-4.798518	-0.451222	4.557818	-2.048200	-0.708496	0.184570	0.287354	0.040786	0.027246	0.065529	0.127193	-0.624902	-0.139789	-0.757482	16.358389	-79.192887	-174.496261
41161		4.223040	0.832781	6.405347	5.214821	1.514825	-4.330516	-0.457553	4.808328	-2.236739	-0.718750	0.160156	0.261719	0.043844	0.007988	0.062994	0.120601	-0.605278	-0.141901	-0.773924	17.974455	-76.192927	-176.422218
41162		4.589097	-0.020887	6.234905	4.365919	2.230409	-3.822264	-0.283614	4.992112	-2.410790	-0.729492	0.142334	0.218018	0.047422	-0.000687	0.061179	0.113868	-0.584124	-0.145030	-0.790442	19.255625	-73.030810	-177.922384
41163		5.217230	0.192897	6.224372	3.897923	2.027752	-2.980561	-0.111449	5.125875	-2.497827	-0.742188	0.122314	0.180908	0.053763	0.001298	0.060878	0.107336	-0.561965	-0.148869	-0.806544	20.241559	-69.793881	-179.033806
41164		6.004518	0.645467	6.391273	3.507153	1.678492	-1.927168	-0.054178	5.254814	-2.456535	-0.748291	0.100098	0.141846	0.061770	0.005720	0.062303	0.101105	-0.538666	-0.152661	-0.822381	20.860580	-66.469499	-179.737643
41165		6.573699	0.794144	6.584122	3.017352	1.622723	-1.127438	-0.082917	5.354792	-2.328858	-0.754150	0.077881	0.093750	0.067555	0.007189	0.064045	0.095347	-0.514769	-0.155781	-0.837648	21.120875	-63.138006	179.917829
41166		7.149679	0.628260	6.981205	2.505462	1.925175	-0.313256	-0.100756	5.404806	-2.158825	-0.747070	0.064941	0.058838	0.073410	0.005532	0.067842	0.090180	-0.490203	-0.158259	-0.852363	21.130123	-59.792052	179.837584
41167		7.731684	0.487549	7.458743	1.982951	2.222671	0.519125	-0.075911	5.417444	-2.009744	-0.744141	0.044922	0.017334	0.079343	0.004113	0.072455	0.085677	-0.465443	-0.160313	-0.866211	21.015590	-56.492610	179.916390
41168		8.289345	1.025267	8.168081	1.761585	1.962169	1.566788	-0.017491	5.384644	-1.894748	-0.739014	0.025146	-0.024170	0.085144	0.009460	0.079408	0.081678	-0.440337	-0.162256	-0.879264	20.875730	-53.211402	-179.929376
41169		9.057165	1.661696	8.841006	1.309296	1.593064	2.783435	0.019760	5.306988	-1.856430	-0.725098	0.012207	-0.061279	0.093023	0.015752	0.085965	0.077835	-0.415409	-0.164160	-0.891307	20.773290	-50.002190	-179.789465
41170		10.534174	3.392760	9.840066	0.786548	0.315473	4.970186	-0.023033	5.157225	-1.874931	-0.718018	0.001221	-0.089600	0.108144	0.032934	0.095632	0.073605	-0.390651	-0.165860	-0.902477	20.709025	-46.846449	-179.726330
41171		14.013953	4.786762	11.264482	-1.161581	-0.509951	8.748006	-0.206791	5.028967	-1.932669	-0.710938	-0.007568	-0.124756	0.143366	0.046606	0.109018	0.068627	-0.366383	-0.166752	-0.912824	20.606181	-43.770643	-179.754074
41172		18.964560	5.509617	12.375401	-4.969983	-0.837705	12.938635	-0.455923	5.058319	-2.071964	-0.699463	-0.016113	-0.146729	0.193251	0.053381	0.118773	0.062500	-0.341498	-0.166644	-0.922877	20.428059	-40.628512	-179.883527
41173		24.088651	4.378897	12.378638	-10.463954	0.194377	15.543378	-0.613946	5.273479	-2.293118	-0.687744	-0.027100	-0.181885	0.244519	0.041366	0.117241	0.055245	-0.315397	-0.165970	-0.932699	20.219847	-37.349766	179.881796
41174		28.390125	2.013756	11.454561	-16.419519	2.145439	16.009173	-0.522653	5.580044	-2.581375	-0.687256	-0.042480	-0.205566	0.287179	0.016730	0.106516	0.046965	-0.287152	-0.165955	-0.942230	20.120829	-33.828826	179.530643
41175		31.402812	-0.238314	9.126346	-22.093911	3.634045	14.015338	-0.249253	5.814140	-2.801012	-0.682129	-0.062256	-0.242676	0.316430	-0.006698	0.082093	0.038220	-0.257442	-0.167311	-0.950931	20.197802	-30.159513	179.108281
41176		33.840454	-4.529456	5.251597	-28.084396	6.622279	9.168133	0.152913	5.844851	-2.895982	-0.679199	-0.077637	-0.286377	0.339042	-0.050236	0.042576	0.029505	-0.227021	-0.170522	-0.958391	20.491285	-26.436968	178.664477
41177		34.503988	-6.615787	-0.039497	-32.178280	7.028900	2.395064	0.818940	5.690804	-2.786074	-0.673828	-0.108643	-0.334229	0.343871	-0.070925	-0.010476	0.021932	-0.197238	-0.176642	-0.964061	21.109934	-22.832990	178.296796
41178		33.876310	-2.252638	-5.941754	-33.867674	0.955815	-3.510543	1.027930	5.362951	-2.220446	-0.657471	-0.123779	-0.369141	0.336730	-0.025936	-0.068593	0.016969	-0.169237	-0.183069	-0.968275	21.716934	-19.508625	178.230656
41179		30.341344	0.965451	-12.208930	-32.382967	-4.553277	-10.808636	0.416606	4.758884	-1.091355	-0.645996	-0.132568	-0.404297	0.300442	0.008274	-0.129244	0.016400	-0.145208	-0.185512	-0.971715	21.810720	-16.755447	178.683262
41180		25.213280	-2.778436	-17.397934	-28.994428	-3.405466	-19.494561	-0.085677	3.671742	0.202642	-0.637207	-0.130127	-0.430908	0.248911	-0.027607	-0.178557	0.020734	-0.127606	-0.184567	-0.974280	21.505704	-14.850677	179.602714
41181		23.896187	-8.163762	-21.225770	-28.786277	-0.245641	-25.920071	0.295813	2.312085	1.129634	-0.628418	-0.121094	-0.448975	0.236941	-0.079979	-0.215124	0.028570	-0.117438	-0.184995	-0.975279	21.392929	-13.865316	-179.275455
41182		27.761714	-12.085435	-23.560294	-33.283496	1.792878	-28.807017	1.545359	0.961908	1.494298	-0.630859	-0.118896	-0.444580	0.277360	-0.116949	-0.237851	0.037671	-0.114018	-0.191457	-0.974128	22.028201	-13.683614	-178.246361
41183		33.766854	-9.104836	-23.510201	-38.754804	-2.110401	-26.224173	2.787032	0.027585	1.235382	-0.625977	-0.125488	-0.444336	0.338176	-0.085672	-0.236367	0.045311	-0.114623	-0.204265	-0.971125	23.459014	-13.953650	-177.568132
41184		20.431508	22.187639	-12.270136	-19.281545	-26.084649	-6.969601	1.142606	-1.135913	0.405058	-0.635254	-0.121338	-0.415771	0.204552	0.222982	-0.120268	0.046802	-0.120470	-0.209784	-0.969168	24.121060	-14.663827	-177.620083
41185		-4.280692	9.938835	-3.204788	4.859113	-10.184810	-9.968404	-1.787823	-2.845459	1.887880	-0.649658	-0.092529	-0.394531	-0.043271	0.098686	-0.033546	0.051890	-0.136729	-0.200576	-0.968701	22.997558	-16.601548	-177.267621
41186		4.891818	-0.258822	23.347827	1.467759	9.266575	12.119183	-1.738321	-3.844201	1.059240	-0.661377	-0.079590	-0.366211	0.044424	-0.000310	0.234370	0.051990	-0.157021	-0.192365	-0.967283	22.090675	-18.891075	-177.566832
41187		6.100116	7.422953	19.522735	1.272305	0.437744	11.903806	-1.037810	-2.899727	0.152772	-0.661377	-0.077393	-0.341797	0.058109	0.075289	0.195695	0.049130	-0.171537	-0.187922	-0.965840	21.684508	-20.476343	-178.138459
41188		2.353778	-9.203625	6.945155	-1.409493	11.058399	-6.044102	-1.379957	-2.728306	0.962553	-0.666504	-0.059814	-0.315918	0.023023	-0.091441	0.070400	0.050049	-0.186123	-0.181052	-0.964403	20.912256	-22.155258	-178.197037
41189		10.573250	-14.054738	10.334927	-8.409563	16.533500	-1.325054	-0.603277	-3.442859	1.589299	-0.669189	-0.044189	-0.289795	0.105038	-0.139395	0.105583	0.054036	-0.204372	-0.177456	-0.961156	20.496128	-24.333382	-178.028894
41190		21.893209	-4.692349	16.789767	-14.143632	9.709991	12.297013	0.033585	-2.926961	1.930573	-0.672119	-0.028809	-0.274902	0.216883	-0.044852	0.171074	0.060773	-0.220304	-0.176355	-0.957430	20.295366	-26.313762	-177.527586
41191		24.759681	8.059971	12.520578	-15.309287	-4.026730	14.356281	-0.138687	-1.680031	1.795318	-0.661133	-0.019775	-0.266357	0.245796	0.082899	0.127219	0.067738	-0.230048	-0.174174	-0.955067	19.888695	-27.582122	-176.814583
41192		17.984241	15.341771	5.646961	-10.206126	-13.219377	7.844117	-0.909554	-0.918499	1.251005	-0.661377	-0.010986	-0.255615	0.178617	0.154795	0.056590	0.071898	-0.236040	-0.168636	-0.954294	19.094824	-28.343248	-176.246662
41193		10.835938	1.448649	9.510002	-5.079202	1.325474	3.692749	-1.106628	-0.691025	0.912671	-0.650146	-0.010742	-0.257813	0.107961	0.015507	0.095390	0.074371	-0.240591	-0.162486	-0.954035	18.255285	-28.896730	-175.826170
41194		7.817167	-4.416156	10.900809	-3.014182	7.350605	1.862897	-0.794223	-0.466017	0.746659	-0.648193	-0.004150	-0.262451	0.078080	-0.043436	0.109364	0.076631	-0.243941	-0.157919	-0.953772	17.613015	-29.309840	-175.452843
41195		8.071367	2.265134	6.675163	-3.538052	-0.458827	0.292092	-0.558027	-0.330091	0.574815	-0.639404	0.000488	-0.264893	0.080538	0.023069	0.066821	0.078440	-0.246274	-0.154646	-0.953562	17.143199	-29.599648	-175.155885
41196		9.222729	2.201512	8.004007	-3.907793	-0.114548	1.963771	-0.517972	-0.112819	0.436075	-0.637207	0.000488	-0.273682	0.092134	0.022423	0.080034	0.079829	-0.247585	-0.151626	-0.953592	16.713313	-29.762024	-174.900038
41197		6.192871	1.033887	9.331463	-0.932948	1.591015	1.282124	-0.332993	0.006535	0.346365	-0.635010	0.004883	-0.280518	0.061914	0.010601	0.093295	0.081084	-0.248042	-0.149571	-0.953692	16.408415	-29.825934	-174.678568
41198		6.331855	2.396691	8.137037	-1.260268	-0.134816	0.696420	-0.212623	-0.001672	0.240502	-0.630371	0.000732	-0.284668	0.063289	0.024130	0.081345	0.082001	-0.248552	-0.148200	-0.953695	16.202790	-29.893636	-174.523667
41199		6.425786	3.522461	8.013287	-1.126433	-1.279018	0.911415	-0.244691	0.040453	0.264615	-0.625977	0.002930	-0.291504	0.064227	0.035408	0.080077	0.083000	-0.248749	-0.146653	-0.953797	15.970463	-29.924302	-174.347047
41200		7.507697	3.204656	7.242786	-2.465779	-1.364134	0.730184	-0.341533	0.067823	0.327505	-0.634766	-0.003906	-0.300049	0.075049	0.032293	0.072347	0.084222	-0.249044	-0.144530	-0.953937	15.656628	-29.966226	-174.123666
41201		6.887857	2.060190	7.391297	-2.122108	-0.233951	0.274925	-0.369350	0.104072	0.339896	-0.628418	0.007324	-0.302734	0.068882	0.020855	0.073839	0.085469	-0.249041	-0.142266	-0.954167	15.322902	-29.971688	-173.887362
41202		6.929368	1.465985	7.810098	-2.097390	0.402895	0.512103	-0.352952	0.073262	0.326355	-0.630615	0.005127	-0.311523	0.069298	0.014911	0.078049	0.086673	-0.249314	-0.140087	-0.954309	15.002066	-30.008564	-173.663370
41203		6.067893	1.410316	8.356770	-1.113569	0.661201	0.529776	-0.298208	0.043530	0.271101	-0.630615	0.005127	-0.313721	0.060678	0.014310	0.083533	0.087637	-0.249518	-0.138272	-0.954432	14.735980	-30.035219	-173.481166
41204		5.958386	1.826703	8.587186	-0.801448	0.310551	0.762761	-0.252581	-0.031828	0.233228	-0.637207	0.000488	-0.313477	0.059549	0.018445	0.085858	0.088448	-0.250184	-0.136732	-0.954405	14.510599	-30.115217	-173.333868
41205		5.308218	1.995056	8.437451	-0.253401	0.137761	0.349237	-0.256873	-0.080935	0.226636	-0.637207	0.002930	-0.318115	0.053025	0.020119	0.084370	0.089165	-0.250931	-0.135223	-0.954357	14.292213	-30.203320	-173.200217
41206		5.830950	2.301777	8.353921	-0.641878	-0.262762	0.608684	-0.253051	-0.128900	0.214711	-0.637451	0.005127	-0.313721	0.058231	0.023186	0.083547	0.089819	-0.252045	-0.133745	-0.954211	14.079538	-30.333608	-173.079697
41207		5.733055	1.643751	8.331454	-0.700526	0.334465	0.403978	-0.255462	-0.144590	0.221222	-0.644043	0.004883	-0.315918	0.057252	0.016607	0.083335	0.090468	-0.253090	-0.132278	-0.954077	13.867871	-30.455489	-172.958667
41208		5.102982	1.514234	8.559165	-0.059369	0.565148	0.250594	-0.201191	-0.163050	0.198749	-0.639648	0.007324	-0.309326	0.050945	0.015279	0.085618	0.091089	-0.254331	-0.131081	-0.953853	13.691713	-30.601842	-172.852569
41209		5.691882	2.225519	8.348698	-0.462216	-0.255663	0.520373	-0.151706	-0.182482	0.169373	-0.650879	0.009277	-0.302734	0.056824	0.022367	0.083522	0.091596	-0.255474	-0.130191	-0.953621	13.558535	-30.737188	-172.769849
41210		6.076333	1.643865	7.817568	-1.147110	0.079650	0.158080	-0.161756	-0.173514	0.185948	-0.648682	0.011475	-0.298584	0.060680	0.016558	0.078215	0.092197	-0.256736	-0.129203	-0.953359	13.408975	-30.887078	-172.672541
41211		6.391202	1.282358	7.850536	-1.462052	0.381264	0.278883	-0.114885	-0.175644	0.169407	-0.655518	0.013672	-0.305176	0.063832	0.012923	0.078554	0.092756	-0.257828	-0.128484	-0.953107	13.295477	-31.018275	-172.587749
41212		6.227672	1.224611	7.775811	-1.343437	0.419166	0.125433	-0.085277	-0.197524	0.162541	-0.655518	0.011475	-0.296143	0.062190	0.012330	0.077814	0.093329	-0.259154	-0.127900	-0.952770	13.198492	-31.178240	-172.508358
41213		5.683570	1.547230	8.174970	-0.590192	0.282020	0.242118	-0.035447	-0.196561	0.124075	-0.653320	0.013672	-0.300781	0.056746	0.015522	0.081803	0.093760	-0.260279	-0.127628	-0.952457	13.146752	-31.314959	-172.455598
41214		5.644682	1.989364	8.051537	-0.478433	-0.174638	0.206685	-0.026033	-0.208437	0.145819	-0.655762	0.018066	-0.291992	0.056348	0.019945	0.080572	0.094322	-0.261618	-0.127352	-0.952072	13.089468	-31.478713	-172.388090
41215		5.367459	1.835375	8.146947	-0.210459	0.025209	0.112331	-0.033793	-0.201639	0.165376	-0.660400	0.020264	-0.287598	0.053577	0.018412	0.081520	0.094949	-0.262791	-0.127035	-0.951729	13.024426	-31.623521	-172.308555
41216		5.286615	1.991554	8.250483	-0.024042	-0.089229	0.186136	-0.017128	-0.222317	0.164715	-0.655762	0.020264	-0.287598	0.052758	0.019966	0.082562	0.095604	-0.264202	-0.126783	-0.951306	12.966192	-31.797246	-172.230128
41217		5.338764	1.719187	8.309692	-0.079022	0.176085	0.210869	-0.017190	-0.225209	0.177446	-0.653564	0.018066	-0.283203	0.053279	0.017246	0.083155	0.096295	-0.265486	-0.126540	-0.950911	12.907631	-31.956622	-172.145579
41218		5.417643	1.784574	8.470219	-0.019642	0.147151	0.397997	-0.014644	-0.232386	0.161730	-0.651367	0.022461	-0.278809	0.054064	0.017896	0.084764	0.096931	-0.266938	-0.126307	-0.950471	12.851898	-32.135301	-172.069939
41219		5.959384	1.718072	7.966576	-0.703744	-0.005260	0.258907	-0.040955	-0.244741	0.174266	-0.653809	0.026855	-0.283447	0.059481	0.017249	0.079735	0.097562	-0.268324	-0.125964	-0.950062	12.781594	-32.305034	-171.989712
41220		6.037592	1.693373	7.714266	-0.864800	-0.070616	0.090696	-0.030392	-0.237707	0.150374	-0.644775	0.024902	-0.276855	0.060271	0.016991	0.077212	0.098119	-0.269800	-0.125674	-0.949624	12.720471	-32.485016	-171.921618
41221		6.597808	1.127595	7.437155	-1.582304	0.313531	0.062117	-0.044694	-0.243495	0.155990	-0.642578	0.029297	-0.274658	0.065879	0.011344	0.074449	0.098659	-0.271168	-0.125337	-0.949223	12.653626	-32.651599	-171.852561
41222		5.875503	0.953165	8.104451	-0.665296	0.756072	0.192205	-0.004620	-0.253711	0.118105	-0.642822	0.031494	-0.274902	0.058647	0.009568	0.081119	0.099088	-0.272686	-0.125219	-0.948759	12.619380	-32.836456	-171.807584
41223		5.668522	1.327054	8.564771	-0.139625	0.564921	0.527032	0.058215	-0.304172	0.055203	-0.638428	0.036133	-0.274902	0.056551	0.013261	0.085738	0.099251	-0.274227	-0.125536	-0.948256	12.652303	-33.024277	-171.814264
41224		5.854535	1.757310	8.607275	-0.122136	0.156371	0.742378	0.038370	-0.375510	0.065163	-0.642822	0.033691	-0.277100	0.058378	0.017576	0.086186	0.099410	-0.276266	-0.125754	-0.947618	12.671536	-33.270496	-171.822681
41225		5.582744	2.253226	8.592290	0.268919	-0.274537	0.671759	0.060890	-0.467832	0.074774	-0.642822	0.035889	-0.268311	0.055618	0.022527	0.086060	0.099566	-0.278591	-0.126137	-0.946870	12.712555	-33.552255	-171.841194
41226		6.171138	1.569524	8.836410	-0.209731	0.386472	1.070088	-0.015555	-0.572636	0.120644	-0.645020	0.035889	-0.268311	0.061449	0.015739	0.088539	0.099788	-0.281620	-0.126119	-0.945953	12.697056	-33.915469	-171.842452
41227		5.986330	1.735788	8.971224	0.125168	0.301196	1.106337	0.017703	-0.692381	0.118916	-0.643066	0.038086	-0.263916	0.059542	0.017385	0.089920	0.099950	-0.285052	-0.126345	-0.944877	12.716114	-34.328293	-171.865587
41228		5.992638	1.582010	9.063553	0.216507	0.489137	1.154335	0.000940	-0.848926	0.108854	-0.649902	0.042480	-0.266357	0.059532	0.015852	0.090889	0.099961	-0.289362	-0.126556	-0.943536	12.738743	-34.844277	-171.917313
41229		5.667964	1.580548	9.267877	0.689612	0.609815	1.126644	0.023623	-1.028176	0.097501	-0.656494	0.042480	-0.257568	0.056194	0.015822	0.092970	0.099815	-0.294350	-0.127004	-0.941947	12.800376	-35.442006	-172.007929
41230		6.136630	1.642042	9.249586	0.447960	0.522516	1.387043	0.047310	-1.276206	0.100505	-0.660889	0.040039	-0.250732	0.060766	0.016429	0.092889	0.099578	-0.300626	-0.127651	-0.939901	12.894336	-36.195266	-172.134519
41231		6.114125	1.770955	9.266897	0.665617	0.445555	1.401147	0.028724	-1.554150	0.109838	-0.665527	0.040039	-0.241943	0.060409	0.017730	0.093143	0.099153	-0.308067	-0.128356	-0.937437	13.008370	-37.088036	-172.304819
41232		5.752202	1.514913	9.618675	1.272515	0.874590	1.390600	-0.006649	-1.899735	0.138351	-0.670166	0.042236	-0.226318	0.056594	0.015192	0.096727	0.098601	-0.317277	-0.128985	-0.934332	13.124728	-38.193541	-172.513238
41233		5.733958	1.756273	9.713235	1.636944	0.722602	1.461281	-0.049912	-2.280319	0.153577	-0.676758	0.044189	-0.217529	0.056214	0.017631	0.097773	0.097772	-0.328123	-0.129588	-0.930582	13.261979	-39.496531	-172.784119
41234		4.742568	2.451206	10.592557	3.376216	0.477890	1.548086	-0.050323	-2.671896	0.214589	-0.692871	0.050781	-0.197998	0.045979	0.024589	0.106540	0.096980	-0.340911	-0.130233	-0.925967	13.420811	-41.041343	-173.085206
41235		5.268753	4.173292	10.050406	3.445657	-1.317094	1.701119	-0.089976	-3.183029	0.395626	-0.699707	0.054932	-0.178223	0.050997	0.041880	0.101306	0.096581	-0.355994	-0.130632	-0.920258	13.548038	-42.878541	-173.358643
41236		4.839198	3.928344	10.705386	4.503683	-0.799694	1.698810	-0.153977	-3.726468	0.659415	-0.710693	0.050293	-0.146973	0.046257	0.039521	0.107899	0.096920	-0.373792	-0.130463	-0.913162	13.578351	-45.068783	-173.538793
41237		5.428044	4.650374	11.842639	5.528469	-1.133279	2.815035	-0.140535	-4.270343	1.001990	-0.718018	0.067871	-0.120850	0.051502	0.046850	0.119513	0.098430	-0.394009	-0.129950	-0.904534	13.507738	-47.592788	-173.558120
41238		4.963339	4.374534	11.844699	6.337099	-0.797009	2.155507	-0.142734	-4.678173	1.402521	-0.729736	0.083252	-0.079346	0.046537	0.044164	0.119528	0.101449	-0.416227	-0.128743	-0.894365	13.228989	-50.411280	-173.305342
41239		4.864425	3.838846	11.873157	6.882799	-0.240969	1.671787	-0.129973	-5.296454	1.852616	-0.737061	0.096436	-0.033203	0.045120	0.038895	0.119932	0.106018	-0.441089	-0.126905	-0.882097	12.695287	-53.617583	-172.728089
41240		5.233421	3.497207	12.372410	7.634136	0.243150	1.775744	-0.149070	-5.952724	2.258405	-0.737305	0.104980	0.019775	0.048223	0.035625	0.125174	0.111840	-0.468809	-0.124298	-0.867329	11.813026	-57.248709	-171.768029
41241		8.185690	1.784793	11.358892	5.548858	1.341589	3.092508	-0.029089	-6.652203	2.511923	-0.742676	0.133789	0.073975	0.077787	0.018859	0.116219	0.118461	-0.499016	-0.121888	-0.849761	10.663784	-61.278593	-170.455922
41242		8.934868	2.313177	12.094633	6.963211	1.062425	3.667894	-0.143823	-7.480773	2.871163	-0.732178	0.151367	0.144531	0.084399	0.024456	0.124148	0.125664	-0.532389	-0.118387	-0.828707	8.758629	-65.803157	-168.427906
41243		15.113128	0.828676	14.211279	7.137318	2.725624	9.485850	0.071363	-8.033720	2.773815	-0.719482	0.180420	0.201172	0.145130	0.010276	0.148027	0.132475	-0.566863	-0.116203	-0.804744	6.363235	-70.587085	-165.810583
41244		14.514321	6.570665	12.753528	9.611863	-2.948061	7.940007	0.510360	-8.100660	2.780134	-0.699951	0.200439	0.269043	0.138889	0.067331	0.133417	0.140293	-0.600346	-0.115574	-0.778810	2.624484	-75.361459	-161.603911
41245		20.404665	7.505041	14.601935	11.964706	-3.432879	13.220797	0.604452	-7.965744	2.892052	-0.674072	0.227295	0.316895	0.196904	0.077475	0.154190	0.148632	-0.632137	-0.114694	-0.751769	-5.064523	-79.910820	-153.388846
41246		19.567843	7.016874	12.445537	11.773582	-3.488217	11.066388	0.666316	-7.334111	2.945527	-0.654297	0.245117	0.371826	0.189879	0.072563	0.131730	0.157492	-0.660514	-0.113196	-0.725331	-23.296404	-83.635400	-134.599500
41247		15.065963	5.041816	12.306567	12.660335	-1.163072	5.744865	1.054000	-6.744412	2.768986	-0.624023	0.276367	0.412842	0.145680	0.051791	0.128306	0.167080	-0.685329	-0.113073	-0.699731	-63.633382	-85.469791	-93.497024
41248		11.523704	6.980573	11.565323	13.708386	-2.696381	1.140196	1.665030	-6.152700	2.657146	-0.595703	0.298828	0.447510	0.110664	0.070311	0.119689	0.178500	-0.706651	-0.114820	-0.674980	-104.457517	-84.234728	-51.570712
41249		8.225622	10.637262	11.016543	15.129424	-5.703828	-3.438513	1.512971	-5.885940	2.998069	-0.560547	0.325928	0.482178	0.077354	0.106708	0.113297	0.190467	-0.726546	-0.114487	-0.650189	-122.651781	-81.263273	-32.368878
41250		6.653748	10.019696	12.681115	16.578704	-4.065930	-6.072017	0.942788	-5.519636	2.874434	-0.531982	0.346191	0.505859	0.061553	0.100501	0.129029	0.199968	-0.744952	-0.112276	-0.626461	-130.669353	-78.033842	-23.677679
41251		30.641474	16.955676	17.470006	28.927236	-9.958852	14.589048	0.085273	-3.680293	1.399803	-0.514404	0.353027	0.523438	0.301934	0.171604	0.180357	0.202550	-0.757100	-0.110957	-0.611115	-134.989631	-76.000749	-19.198911
41252		24.684911	19.333448	21.397092	32.421197	-9.823320	7.313924	-0.826434	0.377897	-0.821666	-0.529541	0.337402	0.519531	0.248046	0.193198	0.212704	0.197088	-0.756366	-0.111141	-0.613771	-136.242920	-76.477914	-18.400471
41253		11.838115	16.160998	17.638563	24.672650	-7.945607	-3.451043	-2.082103	2.811632	-2.010191	-0.548828	0.314941	0.511475	0.122458	0.162206	0.172996	0.184553	-0.748585	-0.109530	-0.627347	-136.186226	-78.427829	-19.684791
41254		1.354186	8.076925	14.161070	16.189174	-1.792994	-11.311214	-2.578715	3.661650	-2.357564	-0.572998	0.299072	0.489746	0.017083	0.082396	0.140264	0.169409	-0.737973	-0.106852	-0.644421	-134.928811	-80.871409	-22.468722
41255		-5.118251	1.616062	9.788606	8.971157	2.479968	-15.974557	-2.225234	3.634578	-2.375149	-0.599121	0.270020	0.475342	-0.049190	0.017847	0.098600	0.155425	-0.726728	-0.105303	-0.660773	-132.124915	-83.283852	-26.590244
41256		-5.660451	-3.205510	7.534327	5.405437	5.958878	-15.673036	-1.222902	3.400798	-2.336039	-0.618652	0.251953	0.460449	-0.055676	-0.030936	0.076487	0.144975	-0.715053	-0.107082	-0.675437	-125.999237	-85.556891	-33.451617
41257		-3.636777	-3.133706	7.642492	5.890024	5.752990	-13.508695	0.045477	3.243483	-2.424481	-0.636230	0.240723	0.434082	-0.035499	-0.030921	0.076998	0.138646	-0.702693	-0.113495	-0.688563	-109.054432	-87.662341	-50.400846
41258		-0.319079	1.894343	7.703239	7.872515	0.964202	-10.153574	0.708187	3.328537	-2.436154	-0.655762	0.222656	0.401367	-0.001679	0.018697	0.077135	0.134569	-0.689206	-0.122151	-0.701403	-35.055290	-88.589574	-124.025508
41259		2.809493	5.957832	8.267568	9.751295	-2.638712	-6.702448	0.508482	3.679704	-2.286220	-0.669189	0.216064	0.377197	0.030288	0.059031	0.082282	0.130509	-0.674473	-0.129271	-0.715083	8.843099	-86.707480	-167.664546
41260		4.472554	6.232224	8.270511	9.573852	-2.880973	-4.591147	-0.162276	4.148044	-2.123889	-0.690918	0.195801	0.349121	0.047086	0.061897	0.081694	0.124974	-0.658181	-0.133104	-0.730385	16.952616	-84.109805	-175.894986
41261		4.697338	3.412913	7.743174	7.783172	-0.462839	-4.080529	-0.666206	4.592544	-2.080672	-0.697021	0.175781	0.316650	0.049086	0.033881	0.076208	0.118191	-0.640306	-0.134568	-0.746948	19.056790	-81.249118	-178.404686
41262		4.230387	0.244999	7.098668	5.871654	2.236976	-4.441210	-0.699567	4.892933	-2.160994	-0.711914	0.157959	0.286133	0.044048	0.002226	0.069915	0.111089	-0.620736	-0.135928	-0.764114	19.941762	-78.188327	-179.714670
41263		4.416680	-0.894152	6.689894	4.789048	3.143542	-4.135408	-0.422302	5.063522	-2.302821	-0.729492	0.140137	0.244629	0.045736	-0.009322	0.065774	0.104372	-0.599899	-0.138557	-0.781044	20.664166	-75.020428	179.290135
41264		5.210336	-0.370594	6.575491	4.314898	2.620519	-3.102973	-0.140560	5.175296	-2.375640	-0.735352	0.115723	0.205566	0.053733	-0.004292	0.064381	0.098181	-0.577841	-0.142366	-0.797616	21.287672	-71.758690	178.552044
41265		6.136394	0.328813	6.643492	3.897745	2.015986	-1.899301	0.002363	5.274125	-2.336889	-0.737061	0.100098	0.172852	0.063120	0.002557	0.064786	0.092577	-0.554987	-0.146440	-0.813618	21.670687	-68.467386	178.142027
41266		7.024847	0.735156	6.928854	3.456834	1.767667	-0.713398	0.024813	5.376974	-2.209110	-0.742920	0.073486	0.125000	0.072152	0.006553	0.067366	0.087524	-0.531211	-0.150105	-0.829230	21.767049	-65.130517	178.048773
41267		7.781358	0.840096	7.250497	2.888017	1.806647	0.296170	0.007040	5.460646	-2.048741	-0.747070	0.062500	0.083252	0.079835	0.007587	0.070344	0.083107	-0.506891	-0.153082	-0.844228	21.634507	-61.800467	178.196824
41268		8.255054	0.804440	7.757416	2.459425	2.025196	1.086156	-0.000883	5.504170	-1.907240	-0.744141	0.042725	0.039551	0.084715	0.007244	0.075262	0.079202	-0.481938	-0.155541	-0.858644	21.387894	-58.458869	178.476297
41269		8.775185	0.980807	8.467449	2.146691	2.105137	2.044069	0.010474	5.495285	-1.825328	-0.739014	0.027344	0.004639	0.090118	0.008988	0.082220	0.075631	-0.456809	-0.157703	-0.872201	21.134354	-55.156323	178.781460
41270		9.423699	1.589811	9.171399	1.766730	1.774537	3.192314	0.021664	5.454572	-1.812093	-0.729736	0.016357	-0.039307	0.096830	0.015019	0.089098	0.072021	-0.431347	-0.159786	-0.884998	20.936729	-51.859465	179.037960
41271		10.180239	2.461474	10.170719	1.488305	1.301859	4.650132	-0.010157	5.341969	-1.873859	-0.722412	0.003418	-0.074219	0.104694	0.023648	0.098935	0.067948	-0.406134	-0.161755	-0.896813	20.821308	-48.628051	179.175184
41272		12.357266	3.332169	11.219045	0.125939	0.865095	7.182425	-0.098145	5.198068	-1.961302	-0.713135	-0.007568	-0.104980	0.126751	0.032143	0.108907	0.063109	-0.381063	-0.163443	-0.907797	20.754180	-45.437452	179.184750
41273		15.887313	4.405141	12.064649	-2.555392	0.187184	10.452965	-0.262577	5.115441	-2.089051	-0.697021	-0.020508	-0.131104	0.162337	0.042522	0.116467	0.057287	-0.356167	-0.164516	-0.918040	20.679056	-42.283588	179.070169
41274		20.105987	4.899471	12.698754	-6.384206	-0.000575	13.609552	-0.490064	5.148169	-2.234420	-0.687500	-0.033691	-0.157227	0.204770	0.047023	0.121631	0.050351	-0.330646	-0.164676	-0.927912	20.531700	-39.065081	178.859263
41275		24.733489	4.337160	12.726373	-11.470711	0.635378	15.883908	-0.660813	5.294593	-2.392307	-0.684814	-0.046875	-0.183350	0.251083	0.040789	0.120512	0.042504	-0.304231	-0.164123	-0.937390	20.321502	-35.754841	178.575292
41276		29.191628	2.400923	11.522952	-17.633740	2.229220	16.157980	-0.637625	5.523204	-2.590342	-0.679932	-0.057861	-0.218506	0.295229	0.020549	0.107037	0.033892	-0.276175	-0.163791	-0.946441	20.152649	-32.267263	178.216499
41277		33.104817	-0.359044	9.298520	-24.036004	4.379967	14.378595	-0.422782	5.742979	-2.785632	-0.686035	-0.077881	-0.255371	0.333445	-0.008041	0.083446	0.024822	-0.246744	-0.164540	-0.954687	20.121214	-28.639407	177.792618
41278		35.517253	-3.696013	4.585896	-30.107214	6.341814	8.869991	0.057422	5.906503	-2.937748	-0.678467	-0.104248	-0.303223	0.355726	-0.042194	0.035346	0.015712	-0.215993	-0.167574	-0.961779	20.355011	-24.881366	177.335886
41279		34.329211	-2.572135	-2.174733	-32.623400	3.253043	0.889500	0.628464	5.987876	-2.780140	-0.664307	-0.119629	-0.351563	0.342034	-0.030392	-0.032092	0.008042	-0.184799	-0.172995	-0.967397	20.831865	-21.120483	177.027143
41280		30.960860	0.658766	-8.976907	-32.058684	-2.190913	-7.218480	0.661185	5.674352	-2.066150	-0.652344	-0.143799	-0.395020	0.306945	0.003723	-0.098488	0.003571	-0.155509	-0.177742	-0.971706	21.183642	-17.667150	177.091921
41281		26.834318	-0.804109	-14.772510	-29.879154	-3.199076	-15.793380	0.314253	4.816393	-1.062543	-0.629639	-0.147705	-0.434570	0.264636	-0.009215	-0.154142	0.002945	-0.131207	-0.179915	-0.974888	21.233866	-14.885188	177.540652
41282		25.025163	-6.779731	-20.406751	-29.472578	0.030815	-24.642062	0.305577	3.552232	-0.258820	-0.618408	-0.154297	-0.454346	0.246486	-0.067802	-0.208571	0.005095	-0.113740	-0.181447	-0.976788	21.255541	-12.946983	178.158258
41283		27.440147	-13.393457	-25.677648	-32.892852	3.960853	-32.038560	1.091667	2.027957	0.105853	-0.622803	-0.154297	-0.469971	0.271845	-0.132376	-0.260267	0.008086	-0.103991	-0.186617	-0.976880	21.770691	-11.899208	178.652299
41284		31.997972	-11.702270	-28.060729	-37.506908	0.962739	-33.060691	2.066658	0.659404	0.178106	-0.628906	-0.174316	-0.462646	0.319152	-0.113823	-0.282848	0.010674	-0.101008	-0.196532	-0.975222	22.900118	-11.607471	178.895380
41285		29.572856	-4.020574	-24.300133	-33.936500	-5.371942	-27.151556	2.200477	-0.554899	0.312948	-0.624268	-0.178711	-0.446777	0.296462	-0.037072	-0.242599	0.012778	-0.103991	-0.207083	-0.972697	24.149098	-11.981505	178.933257
41286		9.913436	11.072752	-13.408978	-11.694357	-15.348543	-15.135750	-0.126637	-2.684169	0.743475	-0.642822	-0.156982	-0.421143	0.100510	0.111015	-0.132817	0.013587	-0.118037	-0.206185	-0.971273	24.126565	-13.585398	178.686460
41287		-6.574478	12.653951	9.552636	9.773287	-7.949749	1.841527	-1.311400	-4.534903	2.364525	-0.664063	-0.132813	-0.379883	-0.069370	0.126350	0.093152	0.019626	-0.142637	-0.198621	-0.969443	23.318636	-16.520140	178.887863
41288		5.140794	8.559127	25.034952	3.194503	1.836592	16.884445	-1.170778	-3.990176	1.614496	-0.675537	-0.121826	-0.349121	0.045706	0.087443	0.250791	0.022682	-0.163883	-0.192109	-0.967327	22.658988	-19.012315	178.843361
41289		4.878491	4.974664	10.401314	-0.654757	-0.659661	2.671369	-1.415324	-3.140646	1.642487	-0.685303	-0.097656	-0.323486	0.046733	0.050874	0.104400	0.026456	-0.180874	-0.184201	-0.965741	21.774415	-21.044968	179.046263
41290		5.544212	-8.413317	6.448251	-3.875494	10.235155	-4.984433	-1.228089	-3.887519	2.239367	-0.697510	-0.069092	-0.286865	0.055103	-0.083112	0.066068	0.032600	-0.202039	-0.176680	-0.962757	20.910455	-23.612466	179.460961
41291		22.430682	-3.694902	15.894918	-14.560221	9.123742	11.960153	-0.567134	-4.125198	2.527428	-0.698486	-0.044678	-0.254395	0.221403	-0.033679	0.163635	0.040550	-0.224252	-0.171978	-0.958379	20.337735	-26.345621	-179.962233
41292		36.137163	8.246695	18.804728	-22.715586	-1.594062	24.954919	-0.963046	-2.448188	2.578382	-0.694580	-0.024658	-0.241699	0.357926	0.088015	0.192028	0.049747	-0.238590	-0.164889	-0.955726	19.309641	-28.193953	-178.933341
41293		25.103885	8.333804	7.611175	-17.202573	-5.903701	10.846004	-1.540014	-0.588626	1.536936	-0.683838	-0.013428	-0.244385	0.250161	0.085849	0.076194	0.054776	-0.243130	-0.155795	-0.955832	18.028559	-28.806313	-178.106314
41294		9.238443	-3.981734	12.131733	-3.310650	7.337662	3.736278	-1.222711	-0.633191	0.990249	-0.675293	0.000000	-0.244873	0.092192	-0.038617	0.121848	0.057562	-0.247519	-0.148869	-0.955646	17.082900	-29.355031	-177.611603
41295		9.524424	-6.947133	10.364528	-4.801913	9.446276	1.767812	-0.658358	-0.599304	0.646602	-0.668457	0.000000	-0.242676	0.095156	-0.068821	0.104158	0.059401	-0.251142	-0.145056	-0.955174	16.556249	-29.801857	-177.317097
41296		11.375739	1.750359	5.134354	-7.120300	-0.569910	0.570405	-0.362649	-0.580627	0.373792	-0.661865	-0.002197	-0.238037	0.113575	0.017809	0.051641	0.060350	-0.254562	-0.142964	-0.954525	16.276571	-30.213745	-177.185995
41297		9.315699	0.482665	7.531850	-4.399014	1.419764	1.249713	-0.225125	-0.309476	0.209941	-0.650635	0.000244	-0.251465	0.093035	0.005009	0.075457	0.060856	-0.256349	-0.141678	-0.954206	16.104304	-30.428497	-177.108315
41298		7.064606	0.842458	8.650249	-1.822617	1.500035	1.135970	-0.005884	-0.269594	0.054947	-0.645752	-0.008545	-0.255615	0.070527	0.008447	0.086597	0.060961	-0.257954	-0.141599	-0.953779	16.100542	-30.618884	-177.120290
41299		5.573171	3.190153	8.386056	-0.194394	-0.743670	0.721655	0.080410	-0.219312	-0.041795	-0.638916	-0.012939	-0.255371	0.055646	0.031856	0.083934	0.060721	-0.259037	-0.142066	-0.953431	16.176336	-30.743860	-177.186499
41300		5.395471	4.659500	8.274414	0.204698	-2.159033	0.891734	0.047969	-0.120761	-0.028331	-0.641113	-0.017334	-0.266357	0.053911	0.046568	0.082788	0.060605	-0.259856	-0.142304	-0.953180	16.216753	-30.839053	-177.224445
41301		6.730298	4.398792	7.440946	-1.377880	-2.220052	0.826240	-0.066215	-0.022664	0.075522	-0.638672	-0.017334	-0.266357	0.067278	0.044038	0.074403	0.060874	-0.260130	-0.141860	-0.953154	16.151501	-30.874512	-177.179112
41302		6.748797	2.064384	7.990421	-1.563866	0.151669	0.731792	-0.151178	0.026848	0.138922	-0.638672	-0.017334	-0.275146	0.067484	0.020751	0.079879	0.061399	-0.260425	-0.140891	-0.953184	16.009208	-30.915006	-177.082599
41303		7.470742	0.734875	7.764478	-2.538808	1.300337	0.603776	-0.085826	-0.005114	0.108623	-0.640869	-0.019531	-0.286377	0.074701	0.007423	0.077644	0.061812	-0.260644	-0.140304	-0.953183	15.919987	-30.945865	-177.012591
41304		7.122236	1.321448	7.570045	-2.210677	0.687575	0.405835	-0.036794	-0.038571	0.068094	-0.640869	-0.019531	-0.290771	0.071203	0.013253	0.075712	0.062103	-0.261167	-0.139991	-0.953068	15.872385	-31.011256	-176.973292
41305		6.173416	2.222825	8.107737	-0.958459	0.027889	0.573265	0.002219	-0.070498	0.053399	-0.645508	-0.019531	-0.292969	0.061700	0.022244	0.081099	0.062322	-0.261631	-0.139917	-0.952937	15.857901	-31.069397	-176.950616
41306		5.766680	2.650000	8.149481	-0.491960	-0.351177	0.498752	-0.014128	-0.100120	0.070045	-0.647461	-0.028564	-0.288086	0.057617	0.026526	0.081522	0.062609	-0.262442	-0.139727	-0.952723	15.828203	-31.169121	-176.921137
41307		5.803031	2.526922	7.946793	-0.629125	-0.300180	0.322701	-0.019726	-0.121768	0.089750	-0.651611	-0.032959	-0.296875	0.057971	0.025303	0.079501	0.062937	-0.263183	-0.139516	-0.952528	15.793738	-31.261182	-176.884282
41308		6.039310	1.053564	7.919561	-1.108185	1.079418	0.082235	-0.033411	-0.127984	0.101690	-0.651611	-0.032959	-0.296875	0.060337	0.010580	0.079232	0.063329	-0.264154	-0.139202	-0.952279	15.744895	-31.381093	-176.839303
41309		5.642820	2.576591	8.020564	-0.408820	-0.328006	0.313267	-0.015516	-0.128884	0.066365	-0.656250	-0.032959	-0.290283	0.056368	0.025791	0.080240	0.063546	-0.264911	-0.139044	-0.952077	15.721162	-31.473403	-176.818627
41310		5.306556	2.930276	8.166400	0.037798	-0.609454	0.339320	-0.027491	-0.122152	0.074747	-0.663086	-0.030762	-0.292480	0.053005	0.029334	0.081692	0.063821	-0.265833	-0.138791	-0.951839	15.683908	-31.585835	-176.789722
41311		5.195841	2.534194	7.917102	-0.051722	-0.308260	-0.014643	-0.074199	-0.094102	0.113948	-0.656250	-0.028564	-0.294922	0.051907	0.025401	0.079186	0.064211	-0.266475	-0.138279	-0.951707	15.606904	-31.666279	-176.731693
41312		5.503802	2.960500	7.779635	-0.277529	-0.782562	0.131641	-0.086391	-0.105356	0.146311	-0.660889	-0.024170	-0.290527	0.054975	0.029679	0.077813	0.064759	-0.267383	-0.137646	-0.951507	15.509722	-31.780189	-176.653028
41313		6.047785	2.896563	7.528445	-0.857678	-0.839481	0.197451	-0.133762	-0.096053	0.185999	-0.660889	-0.026367	-0.281494	0.060415	0.029072	0.075294	0.065411	-0.268103	-0.136755	-0.951389	15.373662	-31.872527	-176.548054
41314		5.681710	2.115777	7.689570	-0.602061	-0.048725	-0.039104	-0.141291	-0.075211	0.198551	-0.663330	-0.024170	-0.281738	0.056767	0.021268	0.076902	0.066154	-0.268920	-0.135781	-0.951246	15.223735	-31.977305	-176.429406
41315		4.998874	1.950279	8.400373	0.310211	0.336692	0.144670	-0.090929	-0.104596	0.168200	-0.665527	-0.019775	-0.277344	0.049928	0.019583	0.084021	0.066772	-0.269654	-0.135120	-0.951089	15.118474	-32.071275	-176.336812
41316		5.430195	1.368755	8.268796	-0.213753	0.818084	0.138118	-0.048864	-0.143396	0.141993	-0.658936	-0.019775	-0.275146	0.054233	0.013746	0.082724	0.067323	-0.270723	-0.134684	-0.950808	15.046732	-32.204796	-176.266413
41317		5.401989	1.955224	8.752430	0.190518	0.395903	0.647539	-0.001071	-0.203252	0.104457	-0.663574	-0.015381	-0.270996	0.053921	0.019581	0.087579	0.067693	-0.271852	-0.134569	-0.950476	15.023873	-32.343697	-176.232362
41318		5.996503	0.965633	7.873567	-0.920723	1.048767	0.032914	0.020136	-0.194125	0.110954	-0.658936	-0.017578	-0.264160	0.059883	0.009682	0.078795	0.068156	-0.273116	-0.134519	-0.950088	15.006697	-32.500415	-176.190749
41319		6.241460	1.302703	7.934566	-1.004071	0.732638	0.290047	0.050474	-0.221693	0.077126	-0.661133	-0.017578	-0.259766	0.062322	0.013031	0.079418	0.068454	-0.274296	-0.134692	-0.949702	15.024543	-32.645454	-176.177725
41320		6.105142	2.079405	7.981174	-0.678822	0.017503	0.426193	0.055638	-0.222375	0.050478	-0.654541	-0.013184	-0.264404	0.060957	0.020787	0.079885	0.068660	-0.275640	-0.134900	-0.949268	15.051460	-32.808824	-176.180660
41321		6.002227	2.322096	7.894043	-0.562195	-0.227513	0.354264	0.064309	-0.217914	0.049984	-0.654297	-0.021973	-0.259521	0.059930	0.023211	0.079013	0.068850	-0.276778	-0.135174	-0.948884	15.086579	-32.947739	-176.184963
41322		6.522067	2.343653	7.404871	-1.211326	-0.416212	0.248206	0.033630	-0.242827	0.064011	-0.652344	-0.013184	-0.255371	0.065123	0.023445	0.074132	0.069075	-0.278234	-0.135266	-0.948429	15.098155	-33.124379	-176.182788
41323		6.226751	2.230925	7.542708	-0.891820	-0.249136	0.176529	0.022343	-0.211640	0.085377	-0.652344	-0.013184	-0.257568	0.062178	0.022327	0.075495	0.069379	-0.279380	-0.135289	-0.948067	15.095881	-33.265103	-176.162671
41324		6.038955	2.340816	7.895198	-0.503172	-0.239025	0.383988	0.018224	-0.214252	0.099801	-0.654541	-0.015381	-0.257568	0.060293	0.023431	0.079019	0.069772	-0.280729	-0.135249	-0.947645	15.082853	-33.431305	-176.131705
41325		5.824128	2.698459	8.053102	-0.141751	-0.523773	0.471286	-0.028457	-0.225378	0.126728	-0.652588	-0.008545	-0.257813	0.058133	0.027033	0.080593	0.070191	-0.281984	-0.134978	-0.947280	15.037487	-33.585776	-176.086422
41326		5.968043	2.653726	8.184207	-0.168653	-0.457825	0.646897	-0.049895	-0.247628	0.176214	-0.645996	-0.004150	-0.260254	0.059556	0.026610	0.081909	0.070827	-0.283565	-0.134519	-0.946826	14.960245	-33.781618	-176.010213
41327		6.096326	2.782352	8.148167	-0.229644	-0.611100	0.716936	-0.109105	-0.308774	0.230306	-0.643799	-0.004150	-0.258057	0.060805	0.027938	0.081560	0.071565	-0.285312	-0.133748	-0.946355	14.837745	-33.997417	-175.909917
41328		5.754930	2.900254	8.442763	0.279762	-0.635719	0.785818	-0.152520	-0.354314	0.283754	-0.648438	0.000244	-0.258057	0.057358	0.029148	0.084507	0.072491	-0.287502	-0.132687	-0.945770	14.670704	-34.267646	-175.779251
41329		6.838965	2.282493	7.948515	-0.949369	-0.279879	0.872822	-0.181526	-0.480927	0.329558	-0.646484	0.009277	-0.258545	0.068160	0.023010	0.079628	0.073480	-0.290151	-0.131492	-0.945052	14.484024	-34.592747	-175.640216
41330		5.742218	2.665061	8.468583	0.379407	-0.447891	0.744184	-0.164832	-0.570018	0.340554	-0.655273	0.004639	-0.256104	0.057135	0.026818	0.084827	0.074512	-0.293396	-0.130368	-0.944124	14.306477	-34.989977	-175.505630
41331		5.901803	2.098968	8.730322	0.346680	0.137214	0.925831	-0.205309	-0.737522	0.349765	-0.650879	0.011475	-0.251953	0.058659	0.021182	0.087498	0.075391	-0.297271	-0.129122	-0.943013	14.119915	-35.459704	-175.393170
41332		6.274725	1.836201	8.852735	0.158763	0.378284	1.184828	-0.231470	-0.940966	0.356233	-0.657959	0.015625	-0.251953	0.062297	0.018576	0.088800	0.076154	-0.302287	-0.127795	-0.941537	13.930421	-36.064327	-175.306646
41333		5.594454	1.313723	9.284276	0.954686	1.030816	1.015332	-0.214020	-1.187346	0.323920	-0.664795	0.020020	-0.243408	0.055371	0.013327	0.093158	0.076606	-0.308250	-0.126710	-0.939712	13.789976	-36.780157	-175.283478
41334		5.920582	1.001900	9.294234	0.789267	1.305592	1.146782	-0.164670	-1.497047	0.294511	-0.669189	0.020020	-0.236816	0.058493	0.010182	0.093374	0.076821	-0.315787	-0.125992	-0.937285	13.717368	-37.685199	-175.329927
41335		4.750883	1.351929	10.113695	2.445907	1.285021	1.098233	-0.141253	-1.794392	0.267579	-0.682861	0.026367	-0.223633	0.046581	0.013654	0.101548	0.076728	-0.324496	-0.125554	-0.934372	13.705819	-38.731226	-175.448669
41336		5.011401	1.880654	9.899178	2.462394	0.716234	1.144649	-0.110713	-2.190226	0.268787	-0.687744	0.032959	-0.215088	0.049001	0.018928	0.099522	0.076460	-0.335176	-0.125371	-0.930641	13.755014	-40.018070	-175.636278
41337		5.445400	2.544207	10.208554	2.740466	0.167769	1.710927	-0.089533	-2.601050	0.350457	-0.696533	0.028320	-0.188232	0.053076	0.025582	0.102770	0.076313	-0.347594	-0.125312	-0.926095	13.836712	-41.524132	-175.846144
41338		5.445083	3.174142	10.087544	3.144604	-0.441821	1.649742	-0.088626	-3.123049	0.522962	-0.705811	0.037109	-0.170898	0.052784	0.031926	0.101694	0.076648	-0.362620	-0.125106	-0.920316	13.903004	-43.363703	-176.028795
41339		4.864526	3.478436	10.870104	4.540018	-0.453792	1.723641	-0.107306	-3.664380	0.745938	-0.721436	0.039063	-0.137695	0.046513	0.035019	0.109548	0.077588	-0.380013	-0.124603	-0.913260	13.924336	-45.515289	-176.152865
41340		4.883988	4.152538	12.067726	5.980647	-0.735921	2.450596	-0.136230	-4.216990	1.033932	-0.728516	0.045654	-0.106934	0.046066	0.041851	0.121640	0.079436	-0.400111	-0.123561	-0.904618	13.841881	-48.032589	-176.154925
41341		6.349324	4.257993	12.868268	6.198911	-0.656146	3.793696	-0.132938	-4.779295	1.366589	-0.738037	0.062988	-0.067627	0.060102	0.043085	0.130117	0.082380	-0.422586	-0.122046	-0.894282	13.630865	-50.889409	-175.982905
41342		3.862413	4.335279	11.872354	7.699520	-0.895346	0.889402	-0.145143	-5.394860	1.742508	-0.747559	0.078369	-0.021484	0.035024	0.043755	0.119669	0.086566	-0.447877	-0.119827	-0.881790	13.206518	-54.155902	-175.560251
41343		5.036826	2.668034	12.263916	7.551112	0.764603	1.377657	-0.148041	-6.138347	2.183105	-0.750000	0.084961	0.031494	0.046279	0.027292	0.124081	0.092139	-0.476155	-0.116840	-0.866681	12.464880	-57.873839	-174.773482
41344		7.601131	0.217668	13.391793	7.292378	3.319444	3.335061	-0.029248	-7.108146	2.529948	-0.748779	0.111328	0.088135	0.071154	0.003117	0.136504	0.098835	-0.508300	-0.113820	-0.847884	11.438379	-62.184914	-173.615037
41345		7.349909	2.289771	12.322807	8.092911	1.062034	2.202702	-0.022261	-7.948298	2.851213	-0.740723	0.140137	0.162598	0.068191	0.023909	0.126006	0.106253	-0.543247	-0.110268	-0.825490	9.804031	-66.973362	-171.825708
41346		14.282758	0.169253	15.596900	9.015729	3.737072	8.941819	0.218013	-8.911413	2.832315	-0.725586	0.162354	0.228271	0.135653	0.003473	0.162124	0.113524	-0.581041	-0.108025	-0.798645	7.675019	-72.291833	-169.429775
41347		15.632023	7.439660	13.382066	10.579603	-3.750857	8.961238	0.883672	-8.719404	2.601848	-0.703857	0.180176	0.298584	0.149303	0.075758	0.140766	0.121647	-0.616220	-0.108792	-0.770480	4.671397	-77.432117	-165.801254
41348		23.055676	7.838314	13.589660	11.350840	-4.200722	15.300597	0.999445	-8.471840	2.677070	-0.668701	0.207275	0.351074	0.223447	0.080694	0.145864	0.130321	-0.649228	-0.109376	-0.741321	-3.032955	-82.341536	-157.406429
41349		21.970660	7.641618	11.151702	11.225398	-4.535184	12.958355	1.069436	-7.584219	2.743152	-0.644775	0.227295	0.407959	0.214190	0.078753	0.120128	0.139695	-0.677670	-0.109249	-0.713662	-30.083601	-86.179388	-129.627781
41350		18.662348	5.767117	12.001736	13.155356	-2.094718	8.839197	1.434243	-6.860324	2.528755	-0.620850	0.249756	0.449219	0.181611	0.059096	0.126726	0.149735	-0.702178	-0.110461	-0.687258	-100.195317	-86.595297	-58.591131
41351		13.786818	7.473597	12.683272	15.388405	-2.893335	2.894348	2.059072	-5.960797	2.447475	-0.588135	0.281250	0.483643	0.133075	0.075045	0.131619	0.161983	-0.722135	-0.113307	-0.662906	-129.343883	-83.785019	-28.172973
41352		10.133184	11.747523	10.989268	15.842957	-6.989829	-1.972221	1.803968	-5.436189	2.759629	-0.555420	0.305908	0.505127	0.096653	0.117817	0.113624	0.174473	-0.739989	-0.113623	-0.639582	-136.987136	-80.475719	-19.421728
41353		5.450204	13.216730	14.814005	19.536311	-6.293628	-8.241408	0.887339	-4.507683	2.559416	-0.529053	0.323975	0.531006	0.049445	0.132159	0.149879	0.183304	-0.754892	-0.110851	-0.619878	-139.703107	-77.559900	-16.142315
41354		36.947331	15.380729	19.501607	31.489179	-8.137876	20.586675	-0.122760	-1.803244	1.026819	-0.529053	0.326172	0.528809	0.366899	0.155816	0.198237	0.184992	-0.761203	-0.108212	-0.612077	-140.705190	-76.376948	-15.190696
41355		16.938496	16.019756	19.599995	27.461402	-7.597961	0.948984	-0.811568	1.790200	-0.714405	-0.549072	0.321533	0.524414	0.171699	0.160376	0.193819	0.180661	-0.756112	-0.106754	-0.619887	-139.720455	-77.416748	-16.683299
41356		5.274810	12.617556	15.541809	19.864785	-5.709333	-8.666536	-1.594868	3.311396	-1.415980	-0.569092	0.312500	0.500488	0.056198	0.127015	0.153496	0.171938	-0.746439	-0.104140	-0.634367	-137.521491	-79.371409	-19.865247
41357		-2.753777	5.799451	11.575194	12.323804	-0.787488	-14.574849	-1.739782	3.665604	-1.643451	-0.588867	0.296631	0.485352	-0.024933	0.059213	0.115713	0.162087	-0.735341	-0.101547	-0.650145	-133.828779	-81.523548	-24.624062
41358		-5.894503	1.416379	7.907056	7.161785	1.906788	-16.470916	-1.304803	3.455998	-1.752207	-0.612549	0.271973	0.470703	-0.057438	0.015191	0.079975	0.153274	-0.724155	-0.100920	-0.664772	-128.228768	-83.581957	-31.028862
41359		-5.107967	-1.478830	6.690223	5.337734	4.022388	-15.138058	-0.466026	3.228963	-1.871265	-0.627930	0.260742	0.444580	-0.050125	-0.014159	0.067750	0.146958	-0.712777	-0.103619	-0.677949	-118.572859	-85.493732	-40.999551
41360		-2.879167	0.037641	6.692591	6.160333	2.449469	-12.833903	0.359382	3.124864	-2.068932	-0.647949	0.253906	0.420410	-0.027736	0.000546	0.067366	0.142782	-0.700749	-0.109887	-0.690282	-97.355168	-87.202665	-62.054721
41361		-0.089839	3.685146	6.922262	7.777614	-0.990750	-9.972115	0.576073	3.219185	-2.160027	-0.656250	0.236084	0.394287	0.000614	0.036651	0.069327	0.139076	-0.687978	-0.117088	-0.702591	-45.954093	-87.860616	-113.170406
41362		2.470760	5.769984	7.457348	8.934293	-2.806169	-7.110852	0.208824	3.498331	-2.180986	-0.673828	0.220459	0.365967	0.026634	0.057339	0.074179	0.134115	-0.674138	-0.122857	-0.715862	-4.625185	-86.497740	-154.426530
41363		4.147687	5.115384	7.500812	8.484197	-2.218295	-5.046807	-0.388530	3.870928	-2.210334	-0.688965	0.204834	0.346680	0.043480	0.050825	0.074081	0.127229	-0.659092	-0.126254	-0.730391	9.555075	-84.219780	-168.877573
41364		4.797199	2.643318	7.163744	6.987382	-0.061451	-4.113878	-0.786452	4.285090	-2.286820	-0.697266	0.184814	0.311768	0.049791	0.026149	0.070480	0.118913	-0.642308	-0.128148	-0.746243	15.166590	-81.537396	-174.988764
41365		4.728617	0.141186	6.843281	5.568729	2.149576	-4.019070	-0.810280	4.622353	-2.427730	-0.712158	0.164551	0.279297	0.048865	0.001099	0.067311	0.110166	-0.623842	-0.130091	-0.762733	17.993936	-78.611882	-178.333494
41366		4.989932	-1.069808	6.551548	4.552107	3.182568	-3.639859	-0.579141	4.874798	-2.574016	-0.727295	0.142334	0.240234	0.051335	-0.011165	0.064308	0.101635	-0.603654	-0.133167	-0.779447	19.804168	-75.489674	179.465756
41367		5.558015	-0.859615	6.352136	3.951784	2.937178	-2.904631	-0.332396	5.064337	-2.660170	-0.735352	0.117920	0.212158	0.057045	-0.009244	0.062104	0.093590	-0.582150	-0.137233	-0.795933	21.046770	-72.249246	177.970296
41368		5.940222	-0.350370	6.289357	3.535309	2.473784	-2.307432	-0.209264	5.215600	-2.623925	-0.739258	0.100098	0.166260	0.060963	-0.004232	0.061321	0.086045	-0.559434	-0.141525	-0.812158	21.801953	-68.915801	177.039064
41369		6.209723	0.023342	6.300138	3.118893	2.165400	-1.824169	-0.179855	5.301162	-2.481142	-0.747559	0.082520	0.133545	0.063735	-0.000495	0.061327	0.079178	-0.536074	-0.145352	-0.827785	22.129813	-65.578143	176.567554
41370		6.733873	0.184757	6.570182	2.701656	2.143166	-1.058744	-0.201565	5.331205	-2.266192	-0.746826	0.055908	0.094727	0.069073	0.001136	0.063874	0.073072	-0.512203	-0.148402	-0.842785	22.119806	-62.256542	176.446075
41371		7.329550	0.530640	7.066659	2.413567	2.010729	-0.114935	-0.238582	5.337887	-2.025689	-0.746338	0.044922	0.043945	0.075195	0.004634	0.068671	0.067854	-0.488172	-0.150532	-0.856986	21.856791	-58.997033	176.586265
41372		8.266646	0.928863	7.855210	2.092179	1.918818	1.269364	-0.274083	5.332071	-1.827219	-0.741211	0.027344	0.002441	0.084802	0.008626	0.076298	0.063318	-0.463829	-0.151926	-0.870501	21.455435	-55.767933	176.871725
41373		9.098137	1.436522	8.615061	1.695128	1.694246	2.567705	-0.295449	5.340481	-1.689785	-0.738770	0.016357	-0.032715	0.093355	0.013708	0.083658	0.059311	-0.439301	-0.152768	-0.883266	20.997519	-52.576083	177.222523
41374		10.062374	2.249255	9.550200	1.278704	1.229884	4.127145	-0.301920	5.282726	-1.662053	-0.731445	0.000977	-0.072021	0.103281	0.021783	0.092764	0.055299	-0.414599	-0.153433	-0.895270	20.593149	-49.404803	177.515205
41375		12.448616	3.652320	10.671219	0.014211	0.299154	6.980825	-0.343059	5.207251	-1.686218	-0.721924	-0.012207	-0.111328	0.127509	0.035636	0.103357	0.051018	-0.390027	-0.153855	-0.906424	20.242677	-46.282634	177.717204
41376		16.115104	4.837311	11.575852	-2.661818	-0.467245	10.428037	-0.452605	5.213644	-1.766618	-0.698975	-0.027344	-0.141846	0.164513	0.047185	0.111391	0.046103	-0.364981	-0.153832	-0.917060	19.905469	-43.125899	177.822324
41377		20.185491	5.602507	12.042849	-6.393424	-0.969000	13.466046	-0.610119	5.347863	-1.889704	-0.689453	-0.040527	-0.170166	0.205494	0.054451	0.114798	0.040425	-0.339092	-0.153147	-0.927323	19.538382	-39.887139	177.842474
41378		24.439321	5.261400	11.841017	-11.261507	-0.606770	15.441133	-0.679683	5.576257	-2.065662	-0.673584	-0.051270	-0.203125	0.248092	0.050451	0.111353	0.033935	-0.311625	-0.152273	-0.937311	19.190047	-36.477961	177.769868
41379		28.064085	3.731189	10.439013	-16.756625	0.567246	15.268862	-0.541469	5.827253	-2.295454	-0.664307	-0.055420	-0.240723	0.283926	0.034333	0.096053	0.026762	-0.282601	-0.152208	-0.946706	18.980060	-32.903642	177.586496
41380		30.884977	1.792756	7.957588	-22.219728	1.887914	13.051675	-0.218687	6.012348	-2.515076	-0.661377	-0.077637	-0.275391	0.311248	0.014103	0.070225	0.019105	-0.252117	-0.153810	-0.955204	18.996493	-29.177876	177.304635
41381		32.641915	-1.258603	3.783716	-27.395159	3.809396	7.963659	0.236844	6.020274	-2.669714	-0.651855	-0.090576	-0.312500	0.327153	-0.016987	0.027977	0.011284	-0.221249	-0.157607	-0.962331	19.290058	-25.428595	176.951917
41382		32.144968	-3.686973	-2.644402	-30.748427	4.321089	-0.358215	0.854719	5.794851	-2.638826	-0.630859	-0.114746	-0.349365	0.319978	-0.040959	-0.035900	0.004098	-0.191178	-0.164192	-0.967717	19.911582	-21.799363	176.613443
41383		29.804082	-3.630634	-9.096957	-31.275685	2.145147	-8.724323	1.348350	5.217459	-2.236283	-0.625732	-0.136719	-0.386230	0.295103	-0.038968	-0.098951	-0.001139	-0.164084	-0.172636	-0.971222	20.740174	-18.562044	176.439877
41384		27.006916	-2.938789	-14.351040	-30.169159	-0.581949	-15.582485	1.373149	4.230416	-1.454513	-0.606934	-0.156494	-0.412109	0.266732	-0.030324	-0.149382	-0.003408	-0.142355	-0.180431	-0.973226	21.492894	-16.013069	176.540349
41385		25.656264	-3.711036	-18.091104	-29.655652	-1.578182	-20.642030	1.114501	2.984775	-0.442351	-0.600098	-0.160645	-0.427490	0.253741	-0.036651	-0.184917	-0.002062	-0.127526	-0.186157	-0.974207	22.019360	-14.341764	176.953129
41386		26.993173	-7.592060	-21.205828	-31.632593	0.497403	-25.143854	1.087762	1.716451	0.504245	-0.600098	-0.160645	-0.438721	0.268285	-0.074080	-0.214772	0.002711	-0.119797	-0.191101	-0.974229	22.479927	-13.559471	177.612037
41387		31.607997	-10.342047	-23.393704	-36.671877	1.744538	-27.287418	1.537936	0.611468	1.113981	-0.597900	-0.158447	-0.436523	0.315924	-0.099853	-0.235680	0.009655	-0.117949	-0.197869	-0.973058	23.182888	-13.495204	178.356592
41388		24.750396	4.707094	-16.414799	-27.405217	-10.242878	-16.754972	1.573640	-0.091942	1.203395	-0.602539	-0.151855	-0.427734	0.247285	0.049848	-0.163649	0.016384	-0.119724	-0.204767	-0.971323	23.931967	-13.844689	178.984832
41389		15.982478	4.595988	-20.287904	-19.864376	-12.039638	-22.002751	-1.413900	-2.221761	2.022312	-0.608154	-0.125488	-0.404297	0.161602	0.046161	-0.201416	0.023093	-0.132777	-0.196806	-0.971135	22.972244	-15.484615	179.559479
41390		-1.542182	4.886447	9.775467	4.657299	-0.837049	0.156833	-2.325794	-4.407588	2.942550	-0.622314	-0.101318	-0.376465	-0.018290	0.049739	0.096798	0.031527	-0.157544	-0.183961	-0.969713	21.452251	-18.490343	-179.807908
41391		5.496099	5.159220	28.563413	4.373596	5.463937	18.885513	-1.395163	-3.676423	1.279583	-0.634033	-0.088135	-0.343750	0.049363	0.053915	0.286205	0.033255	-0.176825	-0.176692	-0.967681	20.674675	-20.730481	-179.885237
41392		7.099626	3.075897	11.684349	-2.176638	1.163953	3.981526	-1.334497	-2.784948	1.015545	-0.636963	-0.072754	-0.328613	0.069202	0.031896	0.117605	0.034558	-0.191644	-0.169746	-0.966056	19.910462	-22.458244	-179.894091
41393		5.439632	-12.921894	5.112683	-4.840366	13.869107	-7.183654	-1.076970	-3.642983	1.700130	-0.641846	-0.057129	-0.295898	0.054539	-0.128474	0.052813	0.038650	-0.210920	-0.163470	-0.962962	19.193193	-24.762118	-179.654288
41394		22.257637	-9.033384	15.383632	-15.036558	13.408214	10.378381	-0.273207	-3.930842	2.074328	-0.651611	-0.035156	-0.276855	0.220414	-0.087826	0.158304	0.045163	-0.231792	-0.160639	-0.958346	18.841622	-27.308620	-179.220095
41395		35.050466	4.994325	18.312702	-22.025515	0.646861	23.401442	-0.288055	-2.137049	2.020239	-0.640869	-0.023926	-0.266113	0.347992	0.053734	0.186779	0.052799	-0.243786	-0.157345	-0.955523	18.294841	-28.848900	-178.417807
41396		20.041044	13.495072	7.235626	-11.784047	-11.019827	9.572962	-0.895431	-0.484308	1.194267	-0.638672	-0.019531	-0.270752	0.199424	0.136467	0.072231	0.057074	-0.247549	-0.151672	-0.955226	17.459609	-29.356634	-177.768007
41397		8.021821	4.215641	8.889458	-2.099656	-1.515429	2.614520	-1.110083	-0.701627	0.851170	-0.634277	-0.015137	-0.264160	0.079724	0.042990	0.088938	0.059242	-0.251947	-0.145475	-0.954908	16.620877	-29.894844	-177.366195
41398		9.810203	-7.698545	11.395074	-4.601817	10.375248	2.698507	-0.791096	-0.432684	0.673910	-0.634521	-0.010498	-0.273193	0.098112	-0.076203	0.114465	0.061187	-0.255026	-0.140922	-0.954651	15.986978	-30.276041	-177.016590
41399		7.943235	1.860926	6.983915	-3.195387	-0.063063	0.440026	-0.414617	-0.305577	0.512706	-0.632568	-0.003906	-0.280273	0.079277	0.018958	0.069921	0.062902	-0.257063	-0.138344	-0.954370	15.606831	-30.535403	-176.742890
41400		7.772920	1.380865	7.698501	-2.762804	0.555592	0.847984	-0.404778	-0.052778	0.369518	-0.627930	-0.003906	-0.289063	0.077683	0.014108	0.076977	0.064151	-0.257993	-0.135892	-0.954389	15.251051	-30.656265	-176.512304
41401		5.403692	2.727004	8.947164	0.141447	-0.291132	0.984685	-0.274736	0.004569	0.341456	-0.630615	0.005127	-0.291504	0.053992	0.027485	0.089433	0.065441	-0.258383	-0.134101	-0.954449	14.976387	-30.715657	-176.290508
41402		8.005536	3.010166	7.505625	-2.702879	-1.168626	1.178796	-0.259555	0.016086	0.306743	-0.632324	-0.006104	-0.293457	0.080015	0.030322	0.075011	0.066623	-0.258893	-0.132398	-0.954467	14.716935	-30.787207	-176.086977
41403		6.050255	3.051668	7.846916	-0.846353	-1.039651	0.468121	-0.284642	0.076013	0.303989	-0.628418	0.005127	-0.304932	0.060486	0.030720	0.078403	0.067768	-0.258918	-0.130584	-0.954629	14.442025	-30.799797	-175.876489
41404		6.602257	2.717215	7.456797	-1.560386	-0.910880	0.351572	-0.317582	0.092044	0.340648	-0.630615	0.005127	-0.304932	0.066010	0.027403	0.074494	0.069084	-0.259106	-0.128534	-0.954762	14.131206	-30.832433	-175.637912
41405		5.836341	2.073682	8.297003	-0.626456	-0.056202	0.522085	-0.312749	0.094263	0.320564	-0.635254	0.011719	-0.311768	0.058369	0.020960	0.082910	0.070282	-0.259062	-0.126556	-0.954951	13.832938	-30.835285	-175.413519
41406		5.868856	1.007274	8.329041	-0.841543	0.928450	0.349037	-0.267224	0.033717	0.304779	-0.630859	0.013916	-0.311768	0.058687	0.010273	0.083267	0.071453	-0.259486	-0.124813	-0.954978	13.567261	-30.893448	-175.207176
41407		6.159473	0.620360	8.663388	-0.997072	1.335894	0.703938	-0.182772	-0.050360	0.242806	-0.642090	0.011719	-0.307373	0.061565	0.006358	0.086644	0.072357	-0.260035	-0.123606	-0.954918	13.380548	-30.964793	-175.055554
41408		5.721675	0.931783	9.262971	-0.249307	1.211308	1.044520	-0.089980	-0.156831	0.182955	-0.635498	0.016113	-0.296387	0.057136	0.009412	0.092670	0.073058	-0.261227	-0.122933	-0.954626	13.271160	-31.111907	-174.956978
41409		5.010130	1.694031	9.131718	0.476690	0.488162	0.717926	-0.030757	-0.241969	0.126447	-0.644531	0.018311	-0.303223	0.049980	0.016986	0.091375	0.073486	-0.262563	-0.122673	-0.954260	13.225082	-31.274323	-174.909881
41410		5.199081	1.691795	9.051320	0.315097	0.452231	0.747384	-0.002954	-0.326281	0.097403	-0.644531	0.018311	-0.296387	0.051835	0.016945	0.090598	0.073788	-0.264476	-0.122586	-0.953719	13.207138	-31.504336	-174.892412
41411		6.498452	0.977710	8.100631	-1.358504	0.782247	0.499851	0.030264	-0.364671	0.087602	-0.648926	0.015869	-0.289795	0.064832	0.009793	0.081126	0.074035	-0.266349	-0.122713	-0.953162	13.218784	-31.730082	-174.889298
41412		6.694961	1.442610	7.822031	-1.520559	0.253438	0.468914	0.081199	-0.381945	0.057927	-0.640137	0.018311	-0.285400	0.066796	0.014414	0.078354	0.074227	-0.268469	-0.123099	-0.952503	13.267038	-31.985859	-174.906266
41413		6.620538	1.410790	7.674562	-1.496113	0.262255	0.307266	0.118139	-0.398744	0.052151	-0.644531	0.018066	-0.278809	0.066049	0.014080	0.076886	0.074401	-0.270448	-0.123703	-0.951851	13.344452	-32.225933	-174.932208
41414		6.193585	1.628827	7.780386	-0.993441	0.130078	0.214475	0.138651	-0.395072	0.041965	-0.646729	0.015869	-0.278564	0.061779	0.016247	0.077937	0.074586	-0.272597	-0.124387	-0.951134	13.432875	-32.486977	-174.962503
41415		5.775372	1.473475	8.131696	-0.458443	0.425739	0.250062	0.166553	-0.408219	0.040607	-0.646729	0.020264	-0.272217	0.057585	0.014679	0.081447	0.074764	-0.274593	-0.125239	-0.950434	13.543712	-32.730716	-174.998636
41416		5.607173	1.484990	8.288832	-0.189827	0.493404	0.290314	0.212001	-0.433489	0.017310	-0.649170	0.020264	-0.265625	0.055891	0.014767	0.083025	0.074908	-0.276878	-0.126318	-0.949616	13.687301	-33.009664	-175.052692
41417		5.668943	1.504339	8.191958	-0.244379	0.472768	0.248360	0.270491	-0.443668	-0.038960	-0.637939	0.024902	-0.261230	0.056510	0.014921	0.082065	0.074829	-0.278950	-0.127786	-0.948820	13.890985	-33.262099	-175.149222
41418		5.963082	1.798478	7.991637	-0.483027	0.149234	0.306763	0.304401	-0.451645	-0.061798	-0.642090	0.015869	-0.256592	0.059456	0.017845	0.080078	0.074715	-0.281230	-0.129418	-0.947934	14.119917	-33.539685	-175.261330
41419		5.805723	1.896568	8.069826	-0.250358	0.128219	0.303938	0.329134	-0.440249	-0.082384	-0.642334	0.018066	-0.254395	0.057887	0.018809	0.080857	0.074513	-0.283231	-0.131221	-0.947105	14.375346	-33.783443	-175.389262
41420		5.667454	2.358387	8.197910	0.075031	-0.225771	0.426008	0.306889	-0.456207	-0.091438	-0.637695	0.015869	-0.251953	0.056498	0.023432	0.082144	0.074258	-0.285508	-0.132906	-0.946207	14.620011	-34.058363	-175.525302
41421		6.538647	1.633321	7.574719	-1.083075	0.264643	0.264746	0.270829	-0.476753	-0.077112	-0.631104	0.020508	-0.252197	0.065212	0.016205	0.075925	0.073974	-0.287702	-0.134437	-0.945348	14.846491	-34.322206	-175.659423
41422		6.495089	1.958727	7.450611	-0.993695	-0.043122	0.214518	0.271362	-0.478805	-0.084382	-0.639893	0.015869	-0.249756	0.064780	0.019459	0.074688	0.073687	-0.290097	-0.135952	-0.944421	15.073529	-34.609660	-175.798165
41423		6.648573	2.324568	7.494700	-0.972064	-0.350131	0.420097	0.275553	-0.490805	-0.078229	-0.633301	0.018311	-0.252197	0.066311	0.023116	0.075142	0.073393	-0.292350	-0.137510	-0.943523	15.307646	-34.880211	-175.939058
41424		6.511387	2.197497	7.378032	-0.900314	-0.221492	0.227365	0.236705	-0.478951	-0.060491	-0.644531	0.018066	-0.252197	0.064944	0.021868	0.073962	0.073168	-0.294769	-0.138824	-0.942595	15.508897	-35.170484	-176.065255
41425		6.160668	2.549231	7.510712	-0.421497	-0.464963	0.210742	0.208455	-0.470532	-0.035816	-0.644531	0.018066	-0.252197	0.061434	0.025403	0.075278	0.072989	-0.296976	-0.139994	-0.941743	15.688829	-35.435551	-176.176966
41426		6.522349	2.184379	7.444771	-0.782329	-0.131936	0.292138	0.164320	-0.467518	-0.013192	-0.642334	0.018066	-0.252197	0.065051	0.021778	0.074618	0.072887	-0.299396	-0.140892	-0.940850	15.831572	-35.726179	-176.271888
41427		6.084114	2.238990	7.873091	-0.137076	-0.005024	0.385158	0.153714	-0.460493	0.000448	-0.646729	0.015869	-0.254150	0.060660	0.022329	0.078888	0.072804	-0.301597	-0.141744	-0.940025	15.966896	-35.990924	-176.359489
41428		6.115403	2.676048	7.820854	-0.041971	-0.415917	0.461074	0.145915	-0.485048	0.018325	-0.646484	0.013672	-0.249756	0.060962	0.026709	0.078376	0.072809	-0.304123	-0.142513	-0.939094	16.090642	-36.295719	-176.438623
41429		5.573452	2.584496	8.326276	0.702700	-0.122943	0.510137	0.134822	-0.518336	0.025296	-0.649170	0.020264	-0.254395	0.055515	0.025796	0.083424	0.072772	-0.306616	-0.143259	-0.938173	16.213831	-36.595942	-176.522796
41430		5.258564	2.751975	8.659644	1.238913	-0.141331	0.611327	0.133323	-0.587815	0.059753	-0.655762	0.018066	-0.245605	0.052323	0.027478	0.086769	0.072878	-0.309651	-0.143941	-0.937063	16.327836	-36.963366	-176.596295
41431		6.128502	2.648921	8.181291	0.321908	-0.215627	0.739955	0.112778	-0.690259	0.105211	-0.660156	0.015625	-0.251953	0.060988	0.026475	0.082039	0.073057	-0.313009	-0.144520	-0.935843	16.428374	-37.370738	-176.662477
41432		6.704687	2.176949	7.793589	-0.375705	0.101122	0.688738	0.092384	-0.831208	0.135942	-0.664307	0.009033	-0.242920	0.066707	0.021779	0.078224	0.073277	-0.317240	-0.144978	-0.934329	16.519612	-37.883693	-176.735477
41433		6.105139	2.226458	8.046928	0.348874	0.181635	0.523041	0.094786	-0.984430	0.155649	-0.675781	0.013184	-0.247559	0.060637	0.022274	0.080779	0.073449	-0.322004	-0.145495	-0.932604	16.628436	-38.460671	-176.830257
41434		5.848178	2.104344	8.548890	0.931326	0.490312	0.704149	0.070814	-1.191577	0.162168	-0.680176	0.013184	-0.231934	0.057954	0.021060	0.085843	0.073492	-0.327924	-0.145935	-0.930466	16.746946	-39.175305	-176.964426
41435		5.926312	1.884050	8.648143	1.017409	0.752883	0.763573	0.062326	-1.435111	0.168805	-0.687256	0.021973	-0.225586	0.058625	0.018863	0.086910	0.073338	-0.334783	-0.146433	-0.927954	16.898113	-40.001307	-177.151970
41436		5.700892	2.070250	9.033505	1.637972	0.737992	0.918564	0.053979	-1.728055	0.200087	-0.693604	0.010742	-0.218750	0.056205	0.020735	0.090829	0.073129	-0.343188	-0.146912	-0.924820	17.074291	-41.015300	-177.384921
41437		5.757086	2.456442	9.126527	1.949264	0.431586	1.072228	0.026158	-2.059047	0.283920	-0.705078	0.014893	-0.201172	0.056592	0.024633	0.091854	0.072978	-0.352979	-0.147252	-0.921085	17.255694	-42.201456	-177.641637
41438		5.494908	2.504317	9.249441	2.478009	0.465028	0.941620	0.011979	-2.392179	0.339303	-0.718506	0.014648	-0.178955	0.053795	0.025130	0.093144	0.072835	-0.364481	-0.147505	-0.916565	17.461989	-43.600692	-177.943250
41439		5.598534	2.965812	9.747925	3.121562	0.222543	1.383708	0.049792	-2.771449	0.419806	-0.725342	0.019043	-0.161377	0.054565	0.029749	0.098249	0.072804	-0.377527	-0.147924	-0.911203	17.731350	-45.197986	-178.293234
41440		5.734179	3.805271	9.826589	3.625673	-0.510594	1.611167	0.046426	-3.162394	0.584466	-0.740967	0.018799	-0.130371	0.055667	0.038194	0.099164	0.073244	-0.392557	-0.148098	-0.904766	17.996566	-47.057563	-178.632016
41441		6.346784	3.955677	9.639987	3.514110	-0.685447	1.850200	0.079102	-3.604353	0.816239	-0.746094	0.031982	-0.102051	0.061555	0.039772	0.097536	0.074415	-0.409457	-0.148109	-0.897146	18.258059	-49.176677	-178.927768
41442		6.258978	4.186262	9.972554	4.336822	-0.756084	1.881248	0.143000	-4.125552	1.131724	-0.757324	0.038330	-0.060059	0.060277	0.042136	0.101015	0.076747	-0.428897	-0.147869	-0.887858	18.489191	-51.655711	-179.128153
41443		5.176287	4.316765	10.986142	6.320429	-0.503192	1.407344	0.138882	-4.706564	1.471710	-0.764648	0.055908	-0.020752	0.048839	0.043457	0.111064	0.080077	-0.450779	-0.147051	-0.876790	18.642895	-54.491476	-179.225917
41444		5.369608	4.002798	12.347237	7.781529	0.272738	1.876180	0.204282	-5.388510	1.805051	-0.769531	0.062500	0.032227	0.049980	0.040363	0.124894	0.084487	-0.475690	-0.145911	-0.863302	18.767890	-57.777548	-179.241473
41445		5.739783	3.620349	12.604936	8.390042	0.751436	1.759144	0.205015	-6.133478	2.116983	-0.770020	0.082275	0.082520	0.053110	0.036650	0.127760	0.089593	-0.503452	-0.144236	-0.847175	18.854938	-61.506141	-179.210900
41446		7.171133	2.252633	12.281437	7.857530	1.952735	2.090457	0.120537	-7.059551	2.414711	-0.761963	0.104492	0.145996	0.067040	0.023280	0.125250	0.094997	-0.534890	-0.141665	-0.827526	18.915403	-65.809251	-179.206660
41447		10.599337	1.609434	14.556698	9.284767	3.350767	5.327142	0.172097	-7.976941	2.463914	-0.751221	0.122070	0.214111	0.099870	0.017222	0.149647	0.099914	-0.569163	-0.139414	-0.804136	19.428158	-70.600828	-179.656615
41448		15.661691	3.119081	14.548618	9.539335	2.051993	9.453424	0.666064	-8.297462	2.269901	-0.729492	0.142090	0.282227	0.150039	0.032420	0.151910	0.105082	-0.603413	-0.139580	-0.778054	21.217144	-75.537371	178.869116
41449		17.909937	8.690193	14.541017	12.581211	-2.954180	11.171095	0.799193	-8.467844	2.491915	-0.709961	0.166748	0.347900	0.171627	0.088470	0.153135	0.111166	-0.637147	-0.139443	-0.749828	24.329464	-80.575884	176.154765
41450		23.280909	8.788636	12.879671	12.210870	-3.362147	15.172273	0.901550	-7.991415	2.705070	-0.674805	0.187012	0.409424	0.226196	0.090367	0.138328	0.118524	-0.668062	-0.138458	-0.721440	30.956416	-85.381865	169.999923
41451		23.495268	8.551403	12.331292	13.634234	-3.176382	14.287643	0.886141	-7.371856	2.799122	-0.644043	0.209473	0.452881	0.228966	0.088174	0.132214	0.126370	-0.695604	-0.136526	-0.693921	110.123878	-89.165903	91.303403
41452		18.585898	5.889263	12.135643	14.099776	-0.687855	8.295026	1.321643	-6.629057	2.529607	-0.608887	0.229736	0.492188	0.180936	0.060372	0.127805	0.135141	-0.719164	-0.136356	-0.667793	-170.279219	-85.835425	12.430485
41453		11.649928	5.846316	10.704036	13.267709	-1.074455	0.540179	2.199609	-5.984738	2.451687	-0.578613	0.263428	0.524414	0.112497	0.058652	0.111091	0.147061	-0.738975	-0.138812	-0.642666	-163.414635	-82.161516	6.794600
41454		9.014699	11.132225	9.556565	14.581883	-6.151862	-3.035122	2.408759	-5.558898	2.705029	-0.550293	0.292480	0.547607	0.085915	0.111322	0.099334	0.160710	-0.756637	-0.140517	-0.618004	-159.352614	-78.629590	4.072538
41455		14.453493	10.545009	14.538542	20.418187	-3.175909	0.402366	2.031525	-4.506725	2.537777	-0.521729	0.310547	0.562500	0.139854	0.105739	0.149645	0.172990	-0.770483	-0.140727	-0.597182	-156.535065	-75.679143	2.373189
41456		35.799998	15.398639	20.802867	33.714591	-4.499095	18.375310	1.015550	-0.836595	1.453425	-0.531494	0.328369	0.557617	0.355997	0.155514	0.210308	0.180630	-0.773170	-0.138838	-0.591866	-153.847538	-74.880222	0.191965
41457		15.758775	15.336252	17.798694	25.982316	-5.916838	-0.314139	0.143947	2.295096	0.261022	-0.544922	0.328125	0.537598	0.159417	0.153442	0.176275	0.183521	-0.766442	-0.136142	-0.600294	-150.919782	-75.965516	-2.751973
41458		5.069181	11.988434	14.451471	18.911018	-4.478327	-9.072282	-0.757110	3.722570	-0.229050	-0.560303	0.321289	0.515625	0.053502	0.120368	0.143081	0.182404	-0.755721	-0.131285	-0.615125	-147.130593	-77.855351	-7.091405
41459		-1.658901	6.621905	10.673617	11.935342	-1.304016	-13.856931	-1.033717	4.023265	-0.484068	-0.584961	0.318848	0.489014	-0.014281	0.066807	0.106695	0.179593	-0.743875	-0.126206	-0.631244	-142.101508	-79.887183	-12.823641
41460		-4.316111	3.786678	7.286387	7.448446	-0.168191	-15.339097	-0.915329	3.900870	-0.705436	-0.602783	0.314209	0.464844	-0.041597	0.038351	0.073511	0.176354	-0.731823	-0.122398	-0.646803	-135.372650	-81.833878	-20.173188
41461		-4.426137	1.276386	5.932742	5.389110	1.522494	-14.817678	-0.510781	3.667520	-0.940408	-0.622559	0.298584	0.443115	-0.043103	0.013121	0.060092	0.173642	-0.719773	-0.120898	-0.661180	-125.967885	-83.608739	-29.951972
41462		-2.910674	1.164497	5.679627	5.419845	1.427260	-13.079136	0.021387	3.485894	-1.302109	-0.642578	0.291748	0.412354	-0.028034	0.011824	0.057292	0.171461	-0.707349	-0.122594	-0.674707	-111.730320	-85.236976	-44.246686
41463		-0.774616	3.789803	5.785498	6.789387	-1.047618	-10.924214	0.235115	3.459256	-1.647113	-0.651123	0.282715	0.392578	-0.006431	0.037886	0.058018	0.168812	-0.694410	-0.126192	-0.688021	-86.478813	-86.507387	-69.429285
41464		0.947139	5.693174	6.131687	7.920069	-2.748212	-9.026705	-0.032332	3.556339	-1.884290	-0.664063	0.264893	0.364502	0.011095	0.056842	0.061120	0.164397	-0.680896	-0.129583	-0.701828	-46.981035	-86.707957	-109.013186
41465		1.976035	5.077769	6.187610	7.628432	-2.253094	-7.645805	-0.486566	3.716514	-2.070634	-0.683594	0.247070	0.336182	0.021429	0.050711	0.061365	0.157834	-0.666832	-0.131806	-0.716276	-15.935655	-85.471261	-140.409218
41466		2.681116	3.342790	5.987687	6.576408	-0.831728	-6.608823	-0.809173	3.882280	-2.267473	-0.698730	0.226807	0.310303	0.028343	0.033353	0.059202	0.149500	-0.651912	-0.133361	-0.731352	0.073265	-83.428008	-156.959325
41467		3.399622	1.718345	5.871383	5.588508	0.535528	-5.634584	-0.904232	4.038820	-2.451132	-0.707031	0.209229	0.277588	0.035381	0.017019	0.057931	0.140231	-0.636074	-0.134951	-0.746682	8.522717	-81.018223	-166.011967
41468		4.496709	0.900490	5.969322	4.980014	1.255435	-4.310182	-0.837524	4.200524	-2.607884	-0.721924	0.180176	0.254395	0.046321	0.008654	0.058693	0.130588	-0.619025	-0.137120	-0.762203	13.581157	-78.366439	-171.643084
41469		5.860493	0.885003	6.205504	4.617331	1.305959	-2.699517	-0.745686	4.436626	-2.694077	-0.728027	0.164551	0.219482	0.060076	0.008275	0.060702	0.121004	-0.600624	-0.139636	-0.777888	16.707109	-75.518955	-175.293669
41470		6.895094	1.137162	6.367645	4.200979	1.109832	-1.417313	-0.726746	4.728967	-2.686980	-0.740479	0.137939	0.193604	0.070576	0.010658	0.061981	0.111597	-0.580567	-0.141951	-0.793938	18.548127	-72.468513	-177.644999
41471		7.217916	0.991668	6.456422	3.671594	1.273587	-0.888488	-0.744938	5.013399	-2.587929	-0.742188	0.117920	0.152344	0.073889	0.009204	0.062691	0.102670	-0.559094	-0.143613	-0.810092	19.461582	-69.280495	-179.067433
41472		7.138811	0.356231	6.435343	2.980753	1.855458	-0.859890	-0.724862	5.221438	-2.434953	-0.743652	0.098145	0.113037	0.073073	0.002908	0.062449	0.094460	-0.536324	-0.144725	-0.826128	19.796745	-65.991791	-179.882555
41473		7.074554	-0.079216	6.568447	2.485220	2.297886	-0.772756	-0.608771	5.328081	-2.271107	-0.752197	0.080322	0.071533	0.072448	-0.001412	0.063773	0.087260	-0.512820	-0.145683	-0.841533	19.837246	-62.689617	179.681120
41474		7.615377	0.107303	7.050928	2.162888	2.272003	0.079410	-0.440390	5.363271	-2.111286	-0.744629	0.060547	0.039063	0.078014	0.000408	0.068432	0.081095	-0.488680	-0.146820	-0.856189	19.758066	-59.385950	179.479066
41475		8.667346	1.112525	7.776838	1.897683	1.553800	1.623566	-0.314924	5.390207	-1.958305	-0.748535	0.042725	-0.006836	0.088831	0.010382	0.075377	0.075866	-0.464182	-0.147971	-0.869991	19.599190	-56.111096	179.448720
41476		9.889312	1.840760	8.635898	1.384918	1.134393	3.321742	-0.263149	5.422421	-1.849105	-0.741211	0.022949	-0.048340	0.101350	0.017589	0.083610	0.071174	-0.439119	-0.148973	-0.883128	19.391189	-52.825860	179.514328
41477		11.141497	2.073525	9.667222	0.667256	1.236747	5.014728	-0.183873	5.441926	-1.866901	-0.734131	0.014404	-0.090088	0.114177	0.019765	0.093572	0.066554	-0.413673	-0.150222	-0.895477	19.253561	-49.540534	179.550486
41478		13.267007	2.826927	10.598401	-0.784672	0.833237	7.361060	-0.066703	5.477454	-1.984821	-0.722168	-0.005371	-0.127197	0.135777	0.026966	0.102284	0.061600	-0.387486	-0.152112	-0.907150	19.253945	-46.199656	179.493212
41479		16.144686	4.489432	11.207217	-3.068514	-0.498769	10.102703	-0.013582	5.552147	-2.166768	-0.705811	-0.025146	-0.164063	0.164948	0.043127	0.107522	0.055946	-0.360580	-0.154431	-0.918152	19.359557	-42.797915	179.325701
41480		19.194933	5.994879	11.742443	-5.924099	-1.667336	12.642257	-0.119989	5.654299	-2.356856	-0.691895	-0.040283	-0.205811	0.195854	0.057724	0.111888	0.049238	-0.332652	-0.156444	-0.928678	19.458144	-39.291060	179.064933
41481		22.302430	6.222275	11.755700	-9.719690	-1.757293	14.198326	-0.296635	5.748843	-2.538392	-0.675537	-0.055664	-0.238525	0.227045	0.059526	0.110979	0.041438	-0.303977	-0.157756	-0.938613	19.493341	-35.711732	178.721339
41482		25.642595	5.077085	10.841428	-14.672340	-0.783370	14.367696	-0.359330	5.808867	-2.695410	-0.659424	-0.070801	-0.275635	0.260082	0.047467	0.100808	0.032795	-0.274507	-0.158850	-0.947806	19.514938	-32.058057	178.306620
41483		28.929206	2.893180	8.792120	-20.320495	0.904436	12.737458	-0.216865	5.833461	-2.817045	-0.651855	-0.090576	-0.310303	0.292061	0.024920	0.079400	0.023774	-0.244613	-0.160609	-0.955931	19.620271	-28.379131	177.842536
41484		31.778390	0.264464	5.618906	-25.931310	2.744165	9.192165	0.087611	5.767902	-2.896799	-0.628906	-0.103516	-0.338623	0.319221	-0.001994	0.046995	0.014654	-0.214612	-0.163767	-0.962760	19.889002	-24.710860	177.345279
41485		32.871074	-1.453405	-0.158268	-30.415632	2.838762	2.398952	0.480566	5.576188	-2.776682	-0.612549	-0.125488	-0.373291	0.328252	-0.019075	-0.010782	0.006375	-0.185453	-0.168531	-0.968072	20.327758	-21.174692	176.916079
41486		31.235835	-2.271638	-6.952134	-31.844766	1.441029	-6.244649	0.869631	5.200631	-2.235462	-0.600586	-0.143066	-0.410400	0.310131	-0.025865	-0.077714	0.000751	-0.158373	-0.174538	-0.971830	20.875405	-17.943897	176.756637
41487		28.089036	-3.547335	-13.064504	-30.795338	0.279665	-14.676278	1.114299	4.413279	-1.339109	-0.586914	-0.149414	-0.443359	0.277671	-0.036588	-0.136998	-0.001010	-0.135806	-0.180907	-0.974078	21.450918	-15.319801	176.962656
41488		26.101282	-5.221192	-18.122252	-30.009155	-0.431487	-21.479532	1.286959	3.257860	-0.196394	-0.572998	-0.162598	-0.449707	0.257961	-0.051281	-0.185773	0.001875	-0.119882	-0.187256	-0.974967	22.033224	-13.559998	177.568588
41489		29.881298	-10.106788	-22.624852	-34.677581	1.919673	-27.150815	1.664942	1.994354	0.837428	-0.566162	-0.169189	-0.469238	0.296946	-0.097917	-0.230040	0.008835	-0.111011	-0.194796	-0.974502	22.778138	-12.697430	178.471085
41490		36.726521	-12.439049	-26.228595	-42.134946	1.802770	-30.129269	2.354579	1.054538	1.296379	-0.563965	-0.169189	-0.460449	0.366653	-0.118898	-0.265642	0.017518	-0.107212	-0.205439	-0.972622	23.917562	-12.459592	179.414696
41491		35.119533	-7.106494	-25.300397	-39.939222	-3.939153	-27.510603	2.550736	0.239599	1.482747	-0.559326	-0.168945	-0.458252	0.351389	-0.065223	-0.254282	0.026352	-0.107429	-0.216969	-0.969891	25.189972	-12.698708	-179.735781
41492		6.736510	21.125641	-8.709361	-6.131430	-22.878294	-7.260733	-0.559749	-1.596834	1.517587	-0.564697	-0.144775	-0.443604	0.066456	0.211519	-0.087152	0.031723	-0.117152	-0.213593	-0.969354	24.770000	-13.926355	-179.323698
41493		-9.169122	12.590218	10.313964	12.803344	-7.077940	1.800101	-2.649926	-3.438267	3.299160	-0.586182	-0.111816	-0.418213	-0.095501	0.125685	0.099853	0.042487	-0.137808	-0.199248	-0.969280	22.994268	-16.503909	-178.359628
41494		-1.805927	-2.484869	23.958813	7.826296	11.680987	9.826276	-1.846344	-3.735648	1.559359	-0.595459	-0.100830	-0.391846	-0.022349	-0.022801	0.239414	0.045073	-0.158083	-0.189953	-0.967934	21.932395	-18.853572	-178.352980
41495		4.417065	6.308250	10.523621	0.006251	-2.006308	3.071732	-1.497203	-3.280640	1.001494	-0.600586	-0.085449	-0.370361	0.042123	0.064086	0.105461	0.045624	-0.175314	-0.182585	-0.966357	21.126724	-20.823628	-178.518884
41496		4.585661	-11.067903	5.207965	-4.212386	12.083533	-7.189555	-1.564900	-4.017468	1.786449	-0.616699	-0.070068	-0.342041	0.045770	-0.109853	0.053861	0.049236	-0.196913	-0.174298	-0.963546	20.168159	-23.367836	-178.362057
41497		19.213958	-13.223200	15.230793	-13.890221	17.190945	7.141269	-0.597649	-4.341847	2.181524	-0.621826	-0.052490	-0.316162	0.190191	-0.129686	0.156841	0.055369	-0.219911	-0.170250	-0.958952	19.670385	-26.143521	-178.001052
41498		31.275369	-0.307659	18.591968	-20.071984	5.599587	20.011669	-0.351685	-3.128650	2.617513	-0.624756	-0.030273	-0.299072	0.309796	0.001324	0.190782	0.064899	-0.237450	-0.166459	-0.954828	19.039506	-28.362859	-177.076327
41499		28.896032	18.274468	10.985322	-16.577378	-14.851107	18.368478	-1.015105	-1.482376	2.069148	-0.625244	-0.019287	-0.290771	0.286225	0.186277	0.111042	0.072342	-0.246649	-0.159585	-0.953133	17.980579	-29.555621	-176.099049
41500		16.136583	7.868249	6.485745	-9.303200	-6.275572	5.628229	-1.575766	-0.674779	1.236826	-0.630127	-0.006104	-0.293457	0.160654	0.080188	0.064772	0.075790	-0.251699	-0.150733	-0.952986	16.748989	-30.170801	-175.450442
41501		11.867370	-11.530573	13.335059	-6.619842	14.305964	4.439352	-1.153115	-0.486453	0.908539	-0.623779	0.005127	-0.300537	0.118868	-0.113994	0.134299	0.078310	-0.255224	-0.144239	-0.952850	15.836571	-30.595297	-174.960780
41502		9.173082	-2.295736	7.329760	-4.954363	3.752244	0.410595	-0.434679	-0.240651	0.552562	-0.628174	0.002930	-0.304688	0.091705	-0.022544	0.073457	0.080258	-0.257240	-0.141495	-0.952557	15.419918	-30.849405	-174.646207
41503		9.301975	1.693632	7.168819	-4.203027	-0.147088	1.282343	-0.371164	-0.144515	0.353769	-0.619385	0.005127	-0.302734	0.092938	0.017234	0.071724	0.081374	-0.258419	-0.139294	-0.952468	15.098421	-30.993546	-174.442315
41504		6.400926	0.681684	9.153295	-0.993987	1.618492	1.215082	-0.219990	-0.077815	0.288700	-0.632813	0.007324	-0.307129	0.063964	0.007010	0.091550	0.082456	-0.259388	-0.137839	-0.952323	14.873768	-31.116109	-174.265529
41505		5.737041	3.427817	8.282093	-0.192520	-1.224383	0.757100	-0.148794	-0.060528	0.210171	-0.630371	0.000732	-0.313477	0.057309	0.034400	0.082813	0.083234	-0.259975	-0.136847	-0.952238	14.718672	-31.191295	-174.138377
41506		4.754444	4.048009	8.508499	0.913081	-1.684643	0.565841	-0.209226	-0.008013	0.231924	-0.635010	0.002930	-0.313721	0.047494	0.040624	0.085044	0.084106	-0.260566	-0.135487	-0.952195	14.511968	-31.265871	-173.985437
41507		5.521058	3.847051	8.141929	0.053428	-1.708409	0.610903	-0.289082	0.045267	0.277602	-0.637451	0.009521	-0.316162	0.055175	0.038665	0.081351	0.085093	-0.260752	-0.133694	-0.952309	14.243959	-31.291137	-173.796076
41508		6.050693	2.838347	8.006857	-0.680253	-0.883177	0.557170	-0.315152	0.071730	0.305547	-0.637451	0.007324	-0.309326	0.060492	0.028602	0.080002	0.086228	-0.261054	-0.131702	-0.952402	13.944666	-31.330198	-173.581763
41509		6.787830	0.529295	7.806655	-1.931354	1.137908	0.300350	-0.281327	0.055693	0.292047	-0.635498	0.016113	-0.316406	0.067892	0.005502	0.078040	0.087300	-0.261194	-0.129921	-0.952511	13.674950	-31.350032	-173.380916
41510		7.538237	0.384042	7.533357	-2.718268	1.084437	0.442014	-0.208580	-0.004264	0.242828	-0.640137	0.018311	-0.316406	0.075376	0.004011	0.075331	0.088224	-0.261769	-0.128549	-0.952454	13.463628	-31.421364	-173.219050
41511		6.973730	0.587559	8.070331	-1.922932	1.077319	0.639587	-0.130731	-0.079467	0.182311	-0.640137	0.020508	-0.307617	0.069700	0.005992	0.080727	0.088883	-0.262414	-0.127688	-0.952331	13.328018	-31.500726	-173.110518
41512		5.542322	1.171615	8.947944	-0.130325	0.907577	0.737905	-0.059457	-0.162535	0.132997	-0.637939	0.024902	-0.305664	0.055343	0.011780	0.089521	0.089378	-0.263607	-0.127237	-0.952016	13.251412	-31.645418	-173.044159
41513		4.932062	1.626104	9.040652	0.562977	0.560765	0.583051	-0.004606	-0.235189	0.091315	-0.635742	0.020508	-0.301025	0.049207	0.016286	0.090464	0.089669	-0.264879	-0.127165	-0.951645	13.231357	-31.799438	-173.018761
41514		5.352365	1.345139	8.972705	0.143351	0.768379	0.692340	0.038336	-0.282127	0.063462	-0.642334	0.018311	-0.294189	0.053393	0.013451	0.089805	0.089887	-0.266550	-0.127323	-0.951136	13.244009	-32.001374	-173.016067
41515		5.498260	1.622648	8.569779	-0.076915	0.382126	0.490368	0.083030	-0.296594	0.025279	-0.644775	0.024902	-0.292236	0.054853	0.016198	0.085786	0.089941	-0.268031	-0.127782	-0.950653	13.302184	-32.180963	-173.043669
41516		5.420772	2.120205	8.431335	0.075868	-0.109618	0.431803	0.105899	-0.311551	0.013166	-0.640137	0.022705	-0.285645	0.054075	0.021161	0.084409	0.089991	-0.269775	-0.128340	-0.950080	13.373820	-32.392423	-173.079008
41517		5.903328	2.079206	7.733548	-0.649756	-0.310120	0.110100	0.083871	-0.284916	0.029317	-0.640381	0.027100	-0.283447	0.058920	0.020768	0.077428	0.090072	-0.271202	-0.128792	-0.949605	13.430536	-32.565986	-173.102702
41518		6.273163	2.103496	7.516877	-1.027606	-0.422590	0.139503	0.083578	-0.267323	0.016554	-0.637939	0.022705	-0.278809	0.062629	0.021009	0.075261	0.090136	-0.272745	-0.129220	-0.949098	13.485033	-32.753043	-173.129441
41519		6.697240	1.485487	7.300908	-1.611363	0.069683	0.074757	0.081664	-0.253824	0.032370	-0.631348	0.029541	-0.281250	0.066877	0.014836	0.073100	0.090249	-0.274026	-0.129642	-0.948661	13.537087	-32.909655	-173.146644
41520		6.825623	1.225071	7.182077	-1.810912	0.282577	0.001222	0.134822	-0.259343	-0.009882	-0.631104	0.022705	-0.274414	0.068164	0.012199	0.071917	0.090262	-0.275491	-0.130346	-0.948139	13.630305	-33.088732	-173.190205
41521		6.197499	1.595980	7.802161	-0.864895	0.197980	0.239304	0.195602	-0.265648	-0.060353	-0.633789	0.029541	-0.279053	0.061876	0.015865	0.078119	0.090084	-0.276714	-0.131441	-0.947648	13.782887	-33.239287	-173.271685
41522		5.565910	2.257709	8.115892	0.004979	-0.247908	0.281010	0.220485	-0.251678	-0.080735	-0.624512	0.025146	-0.276855	0.055566	0.022465	0.081254	0.089885	-0.278056	-0.132643	-0.947107	13.951221	-33.404252	-173.362204
41523		5.110236	2.008016	8.657755	0.615579	0.224300	0.418344	0.211045	-0.244460	-0.088407	-0.624268	0.020752	-0.278809	0.051005	0.019966	0.086661	0.089609	-0.279152	-0.133840	-0.946642	14.122112	-33.538736	-173.460175
41524		5.129713	2.206959	8.658392	0.673792	0.059205	0.468110	0.172876	-0.228043	-0.056276	-0.626709	0.022949	-0.276611	0.051205	0.021980	0.086661	0.089476	-0.280415	-0.134772	-0.946149	14.253156	-33.693302	-173.531698
41525		5.814751	1.937397	7.953244	-0.295190	0.055915	0.223677	0.153420	-0.214097	-0.021931	-0.624512	0.025146	-0.287842	0.058064	0.019307	0.079609	0.089453	-0.281437	-0.135589	-0.945731	14.364503	-33.819952	-173.581199
41526		6.102572	2.156899	7.930035	-0.466620	-0.168509	0.411445	0.135696	-0.194944	-0.017492	-0.624512	0.022949	-0.287842	0.060950	0.021510	0.079374	0.089474	-0.282583	-0.136276	-0.945288	14.457458	-33.961191	-173.621972
41527		6.486444	2.445822	7.389861	-0.969919	-0.630120	0.253505	0.105486	-0.147938	0.011442	-0.626709	0.025146	-0.281250	0.064808	0.024423	0.073959	0.089587	-0.283335	-0.136789	-0.944978	14.522983	-34.055795	-173.638328
41528		6.285814	2.106936	7.394926	-0.866862	-0.280691	0.076970	0.084307	-0.117681	0.038744	-0.626709	0.022949	-0.294434	0.062811	0.021050	0.073995	0.089852	-0.284176	-0.137120	-0.944653	14.558352	-34.162143	-173.628507
41529		6.781392	1.875750	7.330572	-1.351494	-0.122149	0.257146	0.061367	-0.101207	0.052726	-0.633789	0.029541	-0.292480	0.067772	0.018753	0.073346	0.090130	-0.284755	-0.137345	-0.944419	14.578617	-34.236764	-173.609234
41530		6.415701	2.033449	7.560586	-0.877481	-0.164015	0.270056	0.045246	-0.077614	0.067600	-0.628906	0.022949	-0.298828	0.064121	0.020339	0.075635	0.090503	-0.285444	-0.137432	-0.944163	14.576801	-34.325084	-173.573116
41531		5.655985	2.540561	8.165898	0.195930	-0.383500	0.431386	0.044153	-0.095517	0.072280	-0.638184	0.031738	-0.301514	0.056512	0.025408	0.081692	0.090853	-0.286017	-0.137545	-0.943939	14.579170	-34.399372	-173.539691
41532		5.151905	2.503785	8.483499	0.784036	-0.201982	0.391492	0.022961	-0.141972	0.097335	-0.638184	0.029541	-0.303467	0.051447	0.025053	0.084874	0.091290	-0.287039	-0.137513	-0.943591	14.559553	-34.527523	-173.494765
41533		5.102349	2.275381	8.593964	0.846429	0.052009	0.402416	-0.003869	-0.198429	0.138367	-0.644775	0.024902	-0.305664	0.050922	0.022791	0.085990	0.091811	-0.288164	-0.137352	-0.943221	14.519135	-34.668374	-173.434640
41534		5.178144	2.293359	8.860932	0.963910	0.109769	0.658583	0.000775	-0.317613	0.155116	-0.645020	0.031494	-0.303711	0.051623	0.022973	0.088691	0.092368	-0.290059	-0.137213	-0.942606	14.481681	-34.901809	-173.381037
41535		5.315384	1.879748	8.853288	0.788097	0.487052	0.642405	0.000680	-0.449167	0.154491	-0.651611	0.029297	-0.303467	0.052940	0.018838	0.088652	0.092799	-0.292373	-0.137164	-0.941856	14.462087	-35.184015	-173.353309
41536		5.094913	2.049824	9.232093	1.276636	0.470867	0.842804	-0.012650	-0.663548	0.149558	-0.658447	0.029297	-0.305664	0.050627	0.020542	0.092488	0.093071	-0.295893	-0.137128	-0.940734	14.453448	-35.608146	-173.363526
41537		5.286060	2.598908	9.067414	1.262785	-0.107962	0.925452	-0.024054	-0.908031	0.177220	-0.665283	0.031250	-0.292480	0.052425	0.026047	0.090910	0.093256	-0.300385	-0.137138	-0.939290	14.457475	-36.148183	-173.400843
41538		6.176352	2.101579	8.910363	0.457604	0.242250	1.218585	-0.068462	-1.180805	0.223366	-0.673828	0.022217	-0.287842	0.061213	0.021115	0.089459	0.093432	-0.306394	-0.136965	-0.937355	14.441556	-36.869382	-173.452143
41539		6.060677	1.510204	9.430088	0.834902	0.991532	1.423700	-0.074879	-1.502908	0.245410	-0.683105	0.031006	-0.279297	0.059877	0.015211	0.094747	0.093445	-0.313723	-0.136900	-0.934935	14.453548	-37.749232	-173.549410
41540		5.447696	1.569978	9.998322	1.848739	1.192146	1.468523	-0.065235	-1.866959	0.261334	-0.687500	0.026367	-0.259033	0.053520	0.015803	0.100481	0.093323	-0.322924	-0.136986	-0.931797	14.502793	-38.856159	-173.700656
41541		5.250312	2.380613	10.168186	2.548343	0.529085	1.582278	-0.041847	-2.261949	0.311970	-0.705566	0.032959	-0.241699	0.051311	0.023908	0.102262	0.093162	-0.333765	-0.137298	-0.927939	14.599538	-40.166398	-173.896776
41542		5.106271	2.704017	10.892415	3.467931	0.503519	2.008521	-0.076779	-2.708946	0.365599	-0.719482	0.039307	-0.221924	0.049532	0.027174	0.109592	0.092902	-0.346860	-0.137513	-0.923118	14.710213	-41.754129	-174.143287
41543		4.949817	3.387767	10.600030	3.932213	-0.179725	1.712544	-0.052544	-3.205573	0.501048	-0.723877	0.041504	-0.193115	0.047706	0.034027	0.106766	0.092915	-0.362068	-0.137836	-0.917210	14.851046	-43.614158	-174.401387
41544		4.692408	3.858963	11.232924	5.061109	-0.357622	1.905958	-0.075767	-3.763058	0.699149	-0.746582	0.047607	-0.164551	0.044665	0.038791	0.113169	0.093412	-0.380034	-0.137879	-0.909856	14.963247	-45.832887	-174.631828
41545		4.362268	3.859922	12.389048	6.549268	0.083293	2.207563	-0.055779	-4.338663	0.959179	-0.757813	0.049561	-0.122559	0.040736	0.038834	0.124784	0.094661	-0.400452	-0.137758	-0.900944	15.047354	-48.387194	-174.795756
41546		5.545123	3.451675	12.925312	6.625880	0.626431	3.047542	-0.021887	-4.977598	1.231444	-0.767334	0.064941	-0.081055	0.051998	0.034858	0.130572	0.096739	-0.423841	-0.137438	-0.890006	15.095722	-51.355280	-174.883416
41547		3.896348	3.962189	12.167384	7.889773	0.046525	0.986630	0.015419	-5.558868	1.590374	-0.770020	0.080322	-0.023926	0.035246	0.039903	0.122691	0.099992	-0.449569	-0.136730	-0.877037	15.029563	-54.678560	-174.794657
41548		4.936691	3.102634	12.234475	7.769933	0.874015	1.254216	-0.029960	-6.327870	2.060124	-0.777344	0.095703	0.033203	0.045141	0.031524	0.123813	0.104607	-0.478709	-0.134989	-0.861205	14.679746	-58.514645	-174.403342
41549		6.261683	0.183365	12.759634	7.403745	3.787058	1.711226	0.082924	-7.328268	2.419132	-0.771240	0.115479	0.103516	0.057860	0.002499	0.129776	0.110198	-0.511572	-0.133251	-0.841662	14.193473	-62.937363	-173.796493
41550		8.800427	3.282375	12.300731	7.893702	0.664277	3.477400	0.027680	-8.269061	2.763936	-0.765137	0.135254	0.178223	0.082357	0.033971	0.126496	0.116313	-0.547897	-0.130659	-0.818051	13.288402	-67.943024	-172.790992
41551		13.889911	0.667017	15.361855	9.220920	4.045836	8.288325	0.185325	-9.237589	2.787085	-0.745850	0.159912	0.257324	0.131502	0.008391	0.159815	0.122045	-0.586820	-0.128964	-0.790010	12.282457	-73.469066	-171.618274
41552		15.986582	8.917141	13.434228	11.528639	-4.215444	9.279465	0.753595	-9.038706	2.665275	-0.719482	0.179932	0.325195	0.152369	0.090711	0.141683	0.128844	-0.623284	-0.129422	-0.760373	10.814706	-78.874301	-169.668979
41553		23.839764	9.562396	14.567880	13.415799	-4.405831	16.110331	0.680750	-8.632805	2.858304	-0.684326	0.204590	0.382080	0.230415	0.098436	0.156074	0.136101	-0.656930	-0.128492	-0.730349	4.881161	-84.016414	-163.284651
41554		21.878360	7.990814	12.528603	13.297934	-3.417244	12.783056	0.654445	-7.739338	2.950886	-0.653564	0.224854	0.436768	0.212507	0.082646	0.133859	0.143949	-0.686209	-0.126285	-0.701746	-37.647269	-88.093756	-120.317506
41555		18.531884	6.552565	12.950251	14.839790	-1.647437	8.377507	1.017331	-6.935845	2.671835	-0.620850	0.251953	0.480225	0.179783	0.067271	0.136141	0.152320	-0.711081	-0.125555	-0.674832	-132.221631	-86.348271	-25.103526
41556		15.526233	8.204064	13.236020	16.734542	-2.739930	4.181100	1.538698	-6.086684	2.556815	-0.590332	0.276611	0.510498	0.150070	0.082936	0.137616	0.162510	-0.731755	-0.126166	-0.649775	-144.288551	-82.728846	-12.106678
41557		11.364169	11.864496	11.241227	16.651826	-6.545783	-1.093927	1.402557	-5.457823	2.808063	-0.557373	0.299072	0.536377	0.108831	0.119389	0.116262	0.173225	-0.749819	-0.124787	-0.626253	-146.375200	-79.229971	-9.185462
41558		5.594507	11.842905	14.509487	18.877040	-4.833320	-8.299598	0.648127	-4.458610	2.600775	-0.535400	0.314941	0.560303	0.051145	0.118641	0.146655	0.180946	-0.764678	-0.120844	-0.606567	-146.774853	-76.261244	-8.401009
41559		40.456346	13.889714	20.886060	33.898115	-5.211672	23.195672	-0.002174	-1.555556	1.184896	-0.531250	0.323975	0.553223	0.402090	0.141287	0.211993	0.183566	-0.770141	-0.117677	-0.599449	-146.488058	-75.132757	-8.702442
41560		16.390187	15.628567	20.050238	27.955511	-6.406225	-0.204473	-0.545424	2.101770	-0.329410	-0.551270	0.316895	0.535645	0.166251	0.156556	0.198337	0.181679	-0.764165	-0.115348	-0.608062	-144.764986	-76.223514	-10.807806
41561		4.508021	12.954248	15.457737	19.876997	-5.650665	-9.885401	-1.275854	3.526531	-0.807355	-0.575684	0.305664	0.518311	0.048311	0.130331	0.152915	0.176334	-0.754063	-0.111298	-0.622823	-141.839537	-78.110428	-14.561610
41562		-3.203870	5.958250	11.160411	11.812648	-0.851019	-15.293137	-1.432701	3.807413	-0.885159	-0.595459	0.296631	0.500977	-0.029646	0.060517	0.111752	0.170220	-0.742853	-0.106780	-0.638587	-137.343216	-80.098205	-19.980153
41563		-5.937299	1.248242	8.056393	6.999272	2.307063	-16.696760	-0.943145	3.580735	-0.920623	-0.604248	0.289795	0.474609	-0.057859	0.013134	0.081548	0.165645	-0.731664	-0.104088	-0.652989	-130.936025	-81.898884	-27.017449
41564		-4.903857	-0.743353	7.051816	5.705811	3.664883	-15.135655	-0.054262	3.349279	-1.107654	-0.628662	0.278564	0.441650	-0.047889	-0.007147	0.071329	0.163513	-0.720112	-0.105160	-0.666066	-121.836359	-83.551868	-36.225156
41565		-2.105833	2.224949	6.919054	7.076337	0.695671	-12.399877	0.631950	3.301840	-1.373958	-0.644287	0.278320	0.417236	-0.019759	0.022169	0.069594	0.162911	-0.707829	-0.109461	-0.678570	-107.582012	-85.061068	-50.188463
41566		0.101088	5.636366	7.030481	8.641672	-2.525277	-10.188854	0.663507	3.481057	-1.549081	-0.659668	0.267090	0.388672	0.002672	0.056114	0.070454	0.161847	-0.694518	-0.114326	-0.691650	-82.186065	-86.141697	-75.278441
41567		1.455856	6.469119	6.943075	8.888874	-3.396902	-8.542781	0.249699	3.743442	-1.690130	-0.672852	0.256104	0.358154	0.016401	0.064471	0.069216	0.158964	-0.680331	-0.117970	-0.705665	-46.984802	-86.094455	-110.416351
41568		2.038861	5.042619	6.631677	7.957219	-2.255711	-7.543951	-0.183809	3.980228	-1.851095	-0.685791	0.240479	0.325439	0.022168	0.050287	0.065841	0.154081	-0.665189	-0.120419	-0.720613	-20.068579	-84.743809	-137.523097
41569		2.515407	2.741038	6.225028	6.543068	-0.347670	-6.706338	-0.348647	4.170159	-2.074405	-0.703125	0.226807	0.290283	0.026727	0.027246	0.061656	0.147908	-0.649078	-0.122782	-0.736033	-5.059094	-82.660881	-152.825214
41570		3.260845	1.463352	6.036674	5.632207	0.696902	-5.689681	-0.277409	4.331476	-2.322092	-0.709473	0.209229	0.264404	0.034073	0.014327	0.059619	0.141039	-0.631722	-0.126051	-0.751762	3.809542	-80.185853	-161.955782
41571		4.372136	1.414960	6.099205	5.256165	0.701329	-4.318442	-0.137700	4.490411	-2.518462	-0.726563	0.188965	0.229492	0.045249	0.013628	0.059978	0.133915	-0.613224	-0.130243	-0.767502	9.467558	-77.470595	-167.805833
41572		5.771875	1.684067	6.291247	4.903408	0.471823	-2.640047	-0.078996	4.698679	-2.632303	-0.732422	0.164551	0.197266	0.059390	0.016091	0.061524	0.126547	-0.593303	-0.134810	-0.783456	13.237074	-74.530696	-171.739351
41573		6.784114	1.775219	6.430903	4.372003	0.424391	-1.373817	-0.090682	4.937582	-2.658375	-0.740723	0.144531	0.153564	0.069629	0.016863	0.062597	0.119139	-0.572077	-0.139127	-0.799486	15.687017	-71.421034	-174.359164
41574		7.289299	1.715923	6.581561	3.826551	0.544772	-0.624171	-0.117652	5.167329	-2.623329	-0.742432	0.126953	0.118652	0.074777	0.016225	0.063890	0.111826	-0.549412	-0.143014	-0.815591	17.258029	-68.152324	-176.107771
41575		7.664389	1.488570	6.683059	3.150910	0.805323	-0.065112	-0.133026	5.340235	-2.542347	-0.748291	0.102539	0.086182	0.078573	0.013939	0.064740	0.104860	-0.525738	-0.146369	-0.831372	18.222056	-64.805044	-177.246244
41576		8.038288	1.461444	6.941032	2.607848	0.931113	0.542344	-0.111160	5.441837	-2.455460	-0.750000	0.084961	0.042480	0.082403	0.013649	0.067179	0.098265	-0.501125	-0.149432	-0.846692	18.835758	-61.397833	-178.008944
41577		8.579989	1.678421	7.457958	2.202586	0.914125	1.426927	-0.073706	5.478714	-2.364679	-0.747070	0.067139	0.005371	0.087990	0.015779	0.072183	0.092119	-0.476066	-0.152248	-0.861217	19.228858	-57.999473	-178.517655
41578		9.400669	2.195345	8.106723	1.735047	0.658434	2.654106	-0.038309	5.472705	-2.294205	-0.744141	0.042969	-0.031250	0.096421	0.020872	0.078447	0.086245	-0.450538	-0.154942	-0.874969	19.506590	-54.601175	-178.881340
41579		10.385521	2.734592	8.880887	1.136790	0.426696	4.068128	-0.017658	5.429155	-2.272623	-0.739014	0.023193	-0.086182	0.106516	0.026153	0.085939	0.080433	-0.424930	-0.157537	-0.887776	19.732929	-51.244839	-179.182684
41580		11.683649	3.680781	9.819375	0.403965	-0.122540	5.878966	-0.038072	5.350308	-2.319370	-0.729248	0.005615	-0.125244	0.119823	0.035448	0.095008	0.074211	-0.399161	-0.160061	-0.899746	19.955520	-47.905862	-179.507511
41581		14.010466	4.606992	10.840981	-1.185483	-0.611641	8.440307	-0.090669	5.247789	-2.417197	-0.721924	-0.014160	-0.160156	0.143427	0.044398	0.104655	0.067329	-0.373579	-0.162424	-0.910782	20.180581	-44.617383	-179.896397
41582		17.211626	5.421485	11.696191	-3.843219	-1.019500	11.317732	-0.226853	5.187030	-2.573740	-0.707764	-0.036133	-0.199219	0.175750	0.052098	0.112375	0.059345	-0.347760	-0.164367	-0.921154	20.377772	-41.314326	179.619447
41583		20.870442	4.996960	11.705794	-7.964777	-0.493130	13.289651	-0.379343	5.187633	-2.790916	-0.688965	-0.055664	-0.238525	0.212317	0.047238	0.111490	0.050075	-0.321629	-0.165823	-0.930887	20.536953	-37.981533	179.023130
41584		24.233166	3.012661	11.037032	-12.769082	1.373102	13.703102	-0.397003	5.193047	-3.040771	-0.668213	-0.075439	-0.266602	0.245509	0.026620	0.103967	0.039547	-0.294874	-0.167470	-0.939915	20.734516	-34.580138	178.300170
41585		27.875118	0.261429	9.482846	-18.422075	3.833440	12.829908	-0.196276	5.131915	-3.321643	-0.656494	-0.088623	-0.299316	0.281054	-0.001953	0.087636	0.027936	-0.267972	-0.170312	-0.947842	21.088725	-31.165054	177.433233
41586		32.396015	-2.080640	6.939163	-25.130119	5.822928	11.072965	0.118137	5.033627	-3.592380	-0.641846	-0.119385	-0.324707	0.325125	-0.026678	0.061203	0.015332	-0.240924	-0.174872	-0.954537	21.642449	-27.729845	176.438121
41587		35.556878	-3.464315	1.745621	-31.458137	6.108015	6.061925	0.491297	5.015904	-3.678857	-0.618652	-0.143311	-0.361572	0.355138	-0.041207	0.008449	0.002755	-0.213710	-0.181137	-0.959953	22.348572	-24.286558	175.461150
41588		34.942030	-1.835010	-4.088405	-33.842498	3.019596	-0.527076	0.677433	5.004521	-3.341799	-0.604492	-0.163086	-0.387451	0.347881	-0.024014	-0.049678	-0.008025	-0.186617	-0.187766	-0.964289	23.007836	-20.909431	174.744980
41589		31.552442	3.153077	-10.282292	-32.994183	-3.874526	-7.102361	0.180579	4.811719	-2.381938	-0.583740	-0.178467	-0.413574	0.313276	0.027888	-0.110352	-0.014809	-0.161217	-0.190944	-0.968158	23.168711	-17.849125	174.559856
41590		27.322514	0.575691	-15.525054	-30.676978	-3.818686	-15.475050	-0.663538	4.231326	-0.845089	-0.570068	-0.182617	-0.446777	0.269879	0.004084	-0.161000	-0.015377	-0.139960	-0.188642	-0.971900	22.636218	-15.441430	175.078516
41591		25.635463	-9.361337	-19.689991	-30.117926	3.511256	-24.407436	-0.571174	3.279602	0.424705	-0.557129	-0.171143	-0.464844	0.253282	-0.093643	-0.200803	-0.010605	-0.124454	-0.185754	-0.974625	22.059741	-13.806951	176.049278
41592		28.684208	-16.286268	-23.221351	-33.851130	8.370015	-30.091430	0.754349	2.170152	1.006830	-0.548096	-0.173340	-0.462402	0.285108	-0.160539	-0.235922	-0.003186	-0.115018	-0.188866	-0.975239	22.250656	-12.893386	177.079857
41593		30.055093	-11.871832	-23.589077	-35.010723	3.340839	-28.883416	2.098909	1.087159	1.179819	-0.543457	-0.177734	-0.468994	0.299942	-0.114452	-0.238738	0.004814	-0.110948	-0.198384	-0.973813	23.253819	-12.591367	177.965669
41594		18.417771	6.394332	-15.041199	-20.780903	-11.289746	-16.669218	1.978572	0.017659	1.133568	-0.541016	-0.177734	-0.458008	0.183792	0.066470	-0.149779	0.011493	-0.112169	-0.207327	-0.971752	24.247729	-12.871594	178.579012
41595		3.814811	7.455520	-12.195386	-5.896335	-11.632661	-16.796679	-1.099527	-2.777368	2.008148	-0.557861	-0.149170	-0.445557	0.039094	0.074275	-0.121824	0.017763	-0.127884	-0.200947	-0.971056	23.513267	-14.803433	178.998547
41596		-7.620990	10.154843	11.858841	11.452306	-4.895475	2.296002	-2.121619	-4.658398	3.185934	-0.574707	-0.118408	-0.406738	-0.080545	0.101526	0.115669	0.027223	-0.154090	-0.188902	-0.969449	22.104272	-18.001977	179.672721
41597		0.866627	5.641745	22.365474	6.814296	3.004735	12.032502	-1.271946	-4.711913	1.849852	-0.588379	-0.107422	-0.378418	0.002870	0.057883	0.223403	0.030761	-0.178888	-0.181852	-0.966428	21.376784	-20.913216	179.656206
41598		9.841378	5.209512	9.352907	-5.109903	-1.486008	3.719247	-1.372236	-4.196412	1.672708	-0.604736	-0.089844	-0.350342	0.095984	0.053554	0.095196	0.033823	-0.201088	-0.174289	-0.963350	20.574202	-23.529771	179.692073
41599		16.985634	-8.885300	7.252621	-13.792283	10.888303	0.732532	-1.141749	-4.400771	2.037110	-0.618896	-0.070313	-0.317627	0.169089	-0.086698	0.076752	0.038652	-0.224281	-0.167394	-0.959262	19.811139	-26.310098	179.940480
41600		27.532471	-5.553570	17.117936	-17.821329	10.869468	15.603489	-0.594023	-3.904488	2.435499	-0.617432	-0.052490	-0.300537	0.272556	-0.051686	0.176676	0.046423	-0.245354	-0.162481	-0.954592	19.169324	-28.914983	-179.417475
41601		38.905500	7.753704	20.248534	-23.087725	-1.319737	28.250653	-0.904450	-1.823408	2.332130	-0.622314	-0.037109	-0.296631	0.386243	0.082977	0.205648	0.054967	-0.256224	-0.155669	-0.952415	18.116534	-30.343052	-178.344570
41602		17.659171	6.931683	5.949840	-11.107365	-5.209329	5.832651	-1.285083	0.011679	1.164036	-0.622559	-0.034668	-0.301270	0.176186	0.070723	0.059037	0.058912	-0.257706	-0.147995	-0.953003	16.999132	-30.572425	-177.603064
41603		8.719434	-1.769821	12.398472	-1.896700	5.150884	4.426317	-1.114074	-0.616817	0.865757	-0.632080	-0.017090	-0.301758	0.086885	-0.016630	0.124348	0.061155	-0.261699	-0.141711	-0.952729	16.132685	-31.063535	-177.165716
41604		8.421989	-8.676833	8.454900	-4.767201	10.423325	-0.521332	-0.591410	-0.355446	0.618776	-0.629883	-0.017090	-0.297363	0.084337	-0.086257	0.084954	0.063117	-0.264307	-0.138136	-0.952406	15.614118	-31.392106	-176.829891
41605		11.605866	3.180400	6.053116	-6.309675	-1.810249	1.950044	-0.276754	-0.316873	0.365895	-0.629883	-0.012695	-0.306396	0.115904	0.032100	0.060671	0.064286	-0.266247	-0.136397	-0.952038	15.356655	-31.633962	-176.648461
41606		6.280870	0.289516	8.583499	-1.067670	1.918272	0.598355	-0.212450	-0.099846	0.263575	-0.632324	-0.012695	-0.304199	0.062762	0.003069	0.085863	0.065236	-0.267275	-0.135003	-0.951884	15.146037	-31.765501	-176.491667
41607		6.991901	2.235201	8.442174	-1.339400	-0.042339	1.293945	-0.076161	-0.095436	0.179592	-0.630127	-0.010498	-0.304199	0.069859	0.022447	0.084447	0.065936	-0.267967	-0.134395	-0.951727	15.044809	-31.856003	-176.390118
41608		5.166612	3.902775	8.391325	0.530689	-1.565834	0.656620	-0.039850	-0.015865	0.121174	-0.641113	-0.012695	-0.308594	0.051636	0.039076	0.083910	0.066495	-0.268443	-0.133983	-0.951612	14.973132	-31.919401	-176.310385
41609		5.107954	4.448378	8.322704	0.663198	-2.117242	0.686079	-0.102224	0.007090	0.152027	-0.641113	-0.012695	-0.306396	0.051049	0.044565	0.083202	0.067097	-0.268637	-0.133253	-0.951617	14.856625	-31.948802	-176.208531
41610		6.846230	2.357088	7.991294	-1.376662	-0.333143	0.877555	-0.131000	0.017828	0.179078	-0.641357	-0.010498	-0.304443	0.068448	0.023685	0.079891	0.067830	-0.269019	-0.132321	-0.951588	14.709790	-32.001412	-176.085210
41611		6.074098	1.338175	8.444999	-0.695455	0.795026	0.622236	-0.105920	-0.016498	0.171434	-0.643555	-0.006104	-0.304443	0.060722	0.013479	0.084448	0.068504	-0.269338	-0.131555	-0.951555	14.586301	-32.046298	-175.974438
41612		7.187947	0.818076	7.938667	-1.974517	1.064549	0.690943	-0.063385	-0.112177	0.143161	-0.643799	-0.003906	-0.293457	0.071829	0.008257	0.079424	0.069070	-0.270291	-0.131037	-0.951316	14.501880	-32.165408	-175.896305
41613		6.809027	0.997674	7.987623	-1.574455	0.923562	0.571358	0.019605	-0.176976	0.082962	-0.645996	-0.001709	-0.293457	0.068015	0.009997	0.079937	0.069387	-0.271272	-0.131042	-0.951013	14.495222	-32.286377	-175.870374
41614		5.827019	1.235703	8.560173	-0.383495	0.925004	0.567819	0.081811	-0.261870	0.030364	-0.648193	-0.001709	-0.293457	0.058156	0.012331	0.085683	0.069516	-0.272813	-0.131417	-0.950511	14.546551	-32.472435	-175.891297
41615		5.809878	1.116196	8.605394	-0.338940	1.068764	0.569804	0.146859	-0.349824	-0.016242	-0.645996	-0.001709	-0.282471	0.057949	0.011094	0.086164	0.069421	-0.274505	-0.132221	-0.949919	14.663856	-32.674947	-175.960437
41616		5.749949	1.469280	8.423587	-0.265651	0.706904	0.463842	0.210895	-0.413431	-0.053562	-0.643799	-0.001709	-0.278076	0.057329	0.014589	0.084370	0.069228	-0.276662	-0.133374	-0.949145	14.833801	-32.932517	-176.063689
41617		6.012998	1.986490	8.079649	-0.512822	0.127640	0.439314	0.221245	-0.445297	-0.057750	-0.650635	-0.001953	-0.278076	0.059956	0.019758	0.080952	0.068975	-0.278751	-0.134621	-0.948376	15.019288	-33.181429	-176.178790
41618		5.535893	2.189762	8.274743	0.072858	0.047735	0.380681	0.217216	-0.423486	-0.061549	-0.643799	0.000488	-0.271484	0.055190	0.021791	0.082888	0.068747	-0.280943	-0.135816	-0.947575	15.198837	-33.442683	-176.291440
41619		5.589415	2.916337	7.992002	0.072467	-0.703163	0.342056	0.197388	-0.405711	-0.050154	-0.641602	0.000488	-0.264893	0.055739	0.029070	0.080062	0.068522	-0.282854	-0.136924	-0.946863	15.366133	-33.670259	-176.396844
41620		6.254223	2.679206	7.552423	-0.713685	-0.618734	0.308588	0.156413	-0.382738	-0.020693	-0.641357	-0.006348	-0.264648	0.062400	0.026726	0.075665	0.068429	-0.284896	-0.137759	-0.946136	15.493833	-33.914478	-176.477196
41621		5.951649	3.086912	7.690649	-0.270038	-0.931583	0.343905	0.111929	-0.347736	0.010853	-0.637207	0.002686	-0.264893	0.059381	0.030829	0.077027	0.068411	-0.286602	-0.138354	-0.945536	15.585139	-34.119020	-176.533033
41622		5.506712	3.107349	7.737012	0.164652	-0.903275	0.137074	0.064061	-0.309891	0.061197	-0.639404	0.000488	-0.264893	0.054938	0.031066	0.077465	0.068622	-0.288384	-0.138612	-0.944940	15.623019	-34.335359	-176.546536
41623		5.888914	2.786927	7.694114	-0.208068	-0.625517	0.247682	0.019303	-0.271768	0.102495	-0.637207	0.004883	-0.262695	0.058770	0.027892	0.077024	0.068956	-0.289824	-0.138611	-0.944476	15.619247	-34.512054	-176.527484
41624		5.906243	2.940817	7.565024	-0.224047	-0.813096	0.189829	-0.006239	-0.229992	0.131731	-0.641602	0.002686	-0.264893	0.058956	0.029449	0.075717	0.069454	-0.291299	-0.138407	-0.944015	15.581810	-34.694969	-176.478921
41625		6.194035	2.682474	7.486611	-0.528612	-0.612381	0.235028	-0.061683	-0.207063	0.172929	-0.633057	0.011719	-0.267334	0.061840	0.026901	0.074922	0.070047	-0.292509	-0.137898	-0.943672	15.497433	-34.846735	-176.400060
41626		6.640572	2.072402	7.199530	-1.147129	-0.155114	0.131419	-0.096296	-0.158022	0.210862	-0.637451	0.009277	-0.265137	0.066327	0.020829	0.072038	0.070835	-0.293728	-0.137129	-0.943346	15.369693	-35.001725	-176.284147
41627		6.495842	1.863156	7.399396	-0.945001	0.094632	0.163101	-0.094638	-0.118326	0.204113	-0.635498	0.016113	-0.276367	0.064896	0.018733	0.074024	0.071588	-0.294551	-0.136388	-0.943140	15.244014	-35.108904	-176.166812
41628		5.762001	2.325980	7.814629	-0.002026	-0.198912	0.169279	-0.092494	-0.072170	0.187169	-0.639893	0.013916	-0.276367	0.057570	0.023350	0.078156	0.072328	-0.295346	-0.135640	-0.942943	15.117514	-35.212455	-176.050061
41629		5.912337	2.961980	7.712212	-0.027335	-0.862110	0.309726	-0.112571	-0.047753	0.202907	-0.637695	0.016113	-0.283203	0.059075	0.029723	0.077120	0.073096	-0.295841	-0.134790	-0.942850	14.973792	-35.279967	-175.919818
41630		5.931087	2.527463	7.655090	-0.150312	-0.488703	0.182550	-0.164645	-0.030220	0.215383	-0.642334	0.022705	-0.287842	0.059272	0.025401	0.076539	0.073889	-0.296481	-0.133645	-0.942750	14.789847	-35.363735	-175.775651
41631		6.038710	2.309818	7.756844	-0.217120	-0.284316	0.278986	-0.193132	-0.041413	0.236089	-0.642578	0.029297	-0.292480	0.060344	0.023244	0.077559	0.074698	-0.296996	-0.132363	-0.942705	14.585522	-35.431887	-175.620957
41632		5.949220	1.663201	8.057869	-0.104597	0.397398	0.332250	-0.197239	-0.050811	0.248271	-0.642578	0.027100	-0.292480	0.059451	0.016785	0.080577	0.075582	-0.297765	-0.131023	-0.942580	14.371180	-35.530789	-175.457203
41633		5.611945	1.698724	8.205767	0.273560	0.402323	0.260914	-0.160181	-0.093619	0.209052	-0.646973	0.024902	-0.294434	0.056063	0.017112	0.082070	0.076278	-0.298495	-0.129955	-0.942441	14.200819	-35.623220	-175.329112
41634		6.117724	2.058329	8.117768	-0.077375	-0.020979	0.558182	-0.133129	-0.185472	0.200196	-0.646973	0.027100	-0.299072	0.061081	0.020699	0.081221	0.076943	-0.299838	-0.129039	-0.942086	14.054613	-35.789162	-175.220271
41635		5.948643	1.555175	8.257299	0.055692	0.494177	0.470331	-0.110128	-0.285955	0.217286	-0.651855	0.031494	-0.296875	0.059351	0.015662	0.082649	0.077627	-0.301459	-0.128267	-0.941618	13.927692	-35.989128	-175.118329
41636		5.913674	1.927221	8.484775	0.341758	0.193444	0.700289	-0.100465	-0.447896	0.219966	-0.653809	0.029297	-0.283691	0.058925	0.019380	0.084970	0.078264	-0.304034	-0.127575	-0.940831	13.816871	-36.303147	-175.039008
41637		5.742618	1.823964	8.818609	0.703218	0.390768	0.837418	-0.083250	-0.605806	0.243526	-0.667725	0.035645	-0.290527	0.057136	0.018346	0.088352	0.078907	-0.307161	-0.127013	-0.939837	13.724913	-36.684366	-174.971420
41638		5.289054	1.868092	9.052960	1.291300	0.442313	0.749329	-0.088621	-0.792018	0.235213	-0.671875	0.031250	-0.288086	0.052509	0.018783	0.090730	0.079412	-0.311348	-0.126485	-0.938487	13.647394	-37.191484	-174.937734
41639		5.678714	1.993318	9.242709	1.219981	0.347306	1.143532	-0.114855	-0.992634	0.241006	-0.678711	0.033203	-0.279297	0.056303	0.020054	0.092696	0.079745	-0.316290	-0.125926	-0.936880	13.576119	-37.787622	-174.935426
41640		5.335957	1.503729	9.532406	1.673884	0.921676	1.047675	-0.131649	-1.209092	0.239447	-0.689941	0.033203	-0.268311	0.052764	0.015164	0.095634	0.079935	-0.322430	-0.125348	-0.934846	13.514178	-38.527077	-174.967736
41641		5.568578	1.751120	9.666024	1.781425	0.713404	1.314875	-0.107601	-1.497847	0.229319	-0.703369	0.032959	-0.254883	0.054940	0.017627	0.097064	0.079902	-0.329699	-0.125033	-0.932352	13.506087	-39.403102	-175.059367
41642		5.332628	1.655383	9.988914	2.325414	0.925039	1.353724	-0.119765	-1.800913	0.248342	-0.705811	0.035156	-0.243896	0.052403	0.016679	0.100354	0.079772	-0.338556	-0.124717	-0.929227	13.514010	-40.472888	-175.188600
41643		5.400700	1.380253	9.928550	2.396725	1.185906	1.254969	-0.083075	-2.157078	0.257356	-0.714844	0.039307	-0.219727	0.052914	0.013912	0.099854	0.079487	-0.348841	-0.124711	-0.925440	13.588622	-41.719823	-175.380691
41644		5.822674	1.450830	9.796035	2.285695	1.085923	1.392662	-0.044526	-2.555160	0.266249	-0.730469	0.039063	-0.204102	0.056950	0.014607	0.098690	0.079080	-0.361083	-0.124981	-0.920731	13.734198	-43.210984	-175.643404
41645		5.963787	2.503514	9.639399	2.643629	0.066356	1.489927	-0.050471	-3.003804	0.339559	-0.735352	0.047852	-0.173584	0.058139	0.025159	0.097268	0.078674	-0.375190	-0.125271	-0.915068	13.915115	-44.939557	-175.950871
41646		5.493531	2.832737	10.165594	3.775328	-0.031484	1.468897	-0.036853	-3.477303	0.497026	-0.753174	0.045410	-0.142334	0.053086	0.028480	0.102584	0.078726	-0.391621	-0.125453	-0.908128	14.097046	-46.973453	-176.241679
41647		5.252114	3.316829	10.819855	4.940487	-0.253870	1.639860	-0.039258	-4.039891	0.744611	-0.766846	0.051758	-0.102783	0.050198	0.033379	0.109222	0.079486	-0.410451	-0.125341	-0.899723	14.239737	-49.333051	-176.468833
41648		6.247992	3.689526	11.715453	5.561078	-0.350184	2.789670	-0.003595	-4.543807	1.044773	-0.778320	0.060303	-0.062988	0.059603	0.037214	0.118530	0.081343	-0.431675	-0.124888	-0.889631	14.302899	-52.034438	-176.560419
41649		4.749422	4.626576	11.724137	7.317743	-1.151890	1.434514	0.019205	-5.081884	1.446821	-0.785400	0.069092	-0.012451	0.044159	0.046582	0.118396	0.084623	-0.455108	-0.123835	-0.877713	14.190301	-55.071495	-176.411863
41650		4.674866	3.763904	11.755117	7.784916	-0.291661	0.839124	0.000051	-5.728328	1.937535	-0.783936	0.091064	0.040039	0.042990	0.038068	0.118818	0.089569	-0.481457	-0.121730	-0.863342	13.743280	-58.553697	-175.884304
41651		5.539629	2.381463	12.195233	8.017639	1.147887	1.114758	0.061997	-6.562047	2.324412	-0.780029	0.106445	0.103760	0.051075	0.024387	0.123683	0.095705	-0.510955	-0.119228	-0.845902	13.018323	-62.530590	-175.016088
41652		8.440060	2.401262	11.686420	7.144049	0.887369	2.901047	0.115891	-7.438272	2.629897	-0.769775	0.135254	0.171631	0.079654	0.025012	0.119900	0.102639	-0.543720	-0.116402	-0.824793	11.896875	-67.044556	-173.709870
41653		9.652997	1.099756	13.849024	9.291049	2.775763	4.042792	0.107418	-8.484241	2.789068	-0.754639	0.155273	0.244141	0.090378	0.012211	0.142418	0.109389	-0.579802	-0.113462	-0.799369	10.241531	-72.133464	-171.884078
41654		17.831953	2.957779	14.174429	9.241084	0.900302	11.188908	0.736040	-8.805263	2.488173	-0.737061	0.170898	0.316650	0.171468	0.031199	0.149509	0.116378	-0.615554	-0.113823	-0.771100	8.484644	-77.369080	-169.633059
41655		19.971710	8.908227	15.258446	13.690101	-4.215550	12.667478	0.907402	-8.767928	2.640510	-0.699707	0.193359	0.382568	0.191573	0.090929	0.161514	0.124229	-0.649744	-0.114137	-0.741197	3.426640	-82.539397	-163.977954
41656		24.728839	10.212457	14.515536	15.006619	-5.599131	16.060373	1.096026	-7.869899	2.797402	-0.669189	0.218018	0.432617	0.239858	0.104682	0.155262	0.133567	-0.679385	-0.113838	-0.712487	-20.716519	-86.877115	-139.125367
41657		22.154379	9.030854	12.982476	15.246593	-4.720351	12.228529	1.018874	-7.061502	2.786620	-0.627441	0.245117	0.482666	0.215487	0.092650	0.137974	0.142826	-0.705012	-0.112597	-0.685479	-112.460203	-87.083416	-46.722239
41658		20.265324	7.213929	13.866182	16.886313	-2.434820	9.257300	1.531864	-6.192046	2.601275	-0.603271	0.265381	0.515381	0.197270	0.073632	0.145386	0.153568	-0.726300	-0.112983	-0.660409	-137.488649	-83.726359	-20.750198
41659		12.181188	10.283862	11.342986	15.865901	-5.659108	0.133267	1.968437	-5.339149	2.792551	-0.568604	0.296875	0.540771	0.117268	0.103353	0.117617	0.166828	-0.743695	-0.113349	-0.637368	-141.830799	-80.344719	-15.233178
41660		2.555882	10.653205	13.217678	16.526652	-4.569769	-10.610914	1.555553	-4.742362	2.828037	-0.540283	0.323730	0.553223	0.020903	0.105814	0.133534	0.178853	-0.758898	-0.111660	-0.616131	-142.866270	-77.187932	-13.273978
41661		32.863903	10.150419	17.125132	26.890769	-3.879170	17.353612	1.184806	-3.050434	2.052550	-0.529541	0.341553	0.561523	0.324913	0.103815	0.176837	0.187919	-0.768304	-0.110196	-0.601874	-142.692584	-75.074235	-12.757844
41662		20.628822	15.440238	21.182603	29.994491	-6.162950	3.416017	0.942740	0.624929	0.353899	-0.547607	0.343750	0.543701	0.206678	0.153769	0.211906	0.192919	-0.765788	-0.111058	-0.603339	-140.737735	-75.219235	-14.226377
41663		9.091102	16.111831	16.273604	23.030128	-8.132718	-6.569818	0.048589	2.519119	-0.566838	-0.554199	0.339111	0.523926	0.093407	0.160817	0.161609	0.192762	-0.757828	-0.110906	-0.613383	-137.972743	-76.515970	-17.052929
41664		-0.065443	11.062628	12.721585	15.783630	-4.593120	-13.551827	-0.721133	3.253480	-0.967966	-0.576416	0.332275	0.497314	0.001947	0.111079	0.126798	0.188793	-0.747937	-0.109200	-0.626915	-134.438681	-78.242408	-21.102469
41665		-4.462853	5.908157	9.618876	10.243158	-1.044649	-16.240578	-0.902235	3.255602	-1.232611	-0.593994	0.321045	0.484619	-0.042691	0.059784	0.096626	0.183288	-0.737858	-0.107859	-0.640575	-130.284902	-80.012785	-25.862088
41666		-5.551965	1.597779	7.604243	6.768305	2.038025	-16.233686	-0.570190	3.047790	-1.541697	-0.620850	0.312012	0.456055	-0.054226	0.016617	0.076829	0.177815	-0.727706	-0.108908	-0.653426	-125.420689	-81.783171	-31.123283
41667		-3.991426	0.328457	7.207544	6.293864	2.869622	-14.299916	0.102617	2.895798	-1.937185	-0.634033	0.305176	0.427246	-0.038831	0.003627	0.072645	0.173397	-0.717058	-0.113668	-0.665463	-119.090967	-83.601228	-37.448756
41668		-1.775610	2.776361	7.220017	7.583664	0.473417	-12.103310	0.526145	2.905738	-2.281459	-0.649170	0.291748	0.403320	-0.016387	0.027765	0.072518	0.169269	-0.705532	-0.121054	-0.677435	-108.375617	-85.477035	-47.912769
41669		0.429786	5.068988	7.428391	8.849705	-1.652496	-9.770614	0.399684	3.092678	-2.442555	-0.673340	0.275879	0.379639	0.006064	0.050475	0.074300	0.164233	-0.693175	-0.128349	-0.689973	-83.154401	-87.080530	-72.957788
41670		1.774709	5.102568	7.510553	8.921477	-1.707400	-8.059524	-0.039923	3.370833	-2.533007	-0.688477	0.258057	0.344727	0.019654	0.050800	0.074775	0.157436	-0.679809	-0.134191	-0.703610	-32.419711	-87.304044	-123.772807
41671		2.348356	3.215640	7.271249	7.828050	-0.115702	-7.088083	-0.445086	3.626722	-2.610716	-0.701416	0.238037	0.318848	0.025214	0.031996	0.072194	0.149121	-0.665553	-0.138575	-0.718052	0.387998	-85.660050	-156.895425
41672		2.952218	1.017022	6.883835	6.419226	1.707094	-6.206022	-0.584608	3.844255	-2.726447	-0.709229	0.208984	0.291016	0.030974	0.009955	0.068223	0.139960	-0.650109	-0.142642	-0.733091	13.398393	-83.268708	-170.304051
41673		3.772416	-0.077665	6.770679	5.615924	2.646563	-5.172875	-0.518733	4.041230	-2.844894	-0.719971	0.193359	0.256104	0.039067	-0.001152	0.066929	0.130676	-0.633508	-0.147079	-0.748304	19.497655	-80.593194	-176.766756
41674		4.994853	-0.132413	6.785589	5.161681	2.705800	-3.727101	-0.423335	4.253631	-2.910402	-0.734619	0.162354	0.232666	0.051351	-0.001923	0.066777	0.121484	-0.615507	-0.151879	-0.763758	22.797086	-77.714054	179.623845
41675		6.071817	0.048455	6.876995	4.751886	2.604608	-2.411211	-0.392089	4.500583	-2.877559	-0.740723	0.140137	0.189209	0.062245	-0.000271	0.067381	0.112655	-0.596234	-0.156412	-0.779326	24.508438	-74.701099	177.626826
41676		6.745347	0.031245	6.998526	4.270872	2.705935	-1.512216	-0.416810	4.741411	-2.756861	-0.751221	0.122314	0.156494	0.069084	-0.000489	0.068361	0.104294	-0.575592	-0.160265	-0.795067	25.231437	-71.567726	176.617863
41677		7.290433	-0.275164	7.151818	3.665906	3.081728	-0.789621	-0.421857	4.960860	-2.582341	-0.743652	0.098145	0.117432	0.074606	-0.003559	0.069688	0.096743	-0.553880	-0.163331	-0.810667	25.328165	-68.376669	176.253396
41678		7.748852	-0.365199	7.504587	3.257155	3.320258	-0.074274	-0.388307	5.147537	-2.378412	-0.745361	0.080322	0.087158	0.079336	-0.004445	0.073028	0.090155	-0.531010	-0.165771	-0.826087	25.052946	-65.122854	176.306243
41679		8.425693	-0.063934	7.889532	2.824491	3.200325	0.910568	-0.322936	5.293953	-2.167625	-0.753906	0.067139	0.043213	0.086293	-0.001442	0.076631	0.084691	-0.507362	-0.167698	-0.841004	24.573131	-61.859409	176.630934
41680		8.928040	0.507254	8.381476	2.531696	2.848466	1.834357	-0.295237	5.415871	-1.980172	-0.750977	0.047119	0.006104	0.091551	0.004295	0.081349	0.080090	-0.482809	-0.169095	-0.855505	23.978709	-58.558818	177.115895
41681		9.513539	1.132191	9.006365	2.212537	2.479042	2.908008	-0.276181	5.480749	-1.833953	-0.745850	0.029541	-0.037598	0.097654	0.010556	0.087395	0.076177	-0.457813	-0.170035	-0.869306	23.359123	-55.271834	177.661389
41682		10.403870	1.713657	9.658742	1.599509	2.152373	4.230859	-0.271958	5.493066	-1.801278	-0.738525	0.014160	-0.076904	0.106787	0.016312	0.093657	0.072338	-0.432279	-0.170786	-0.882459	22.812531	-51.966099	178.141248
41683		12.061097	2.779847	10.541486	0.653907	1.463709	6.363765	-0.286133	5.461740	-1.847103	-0.733398	-0.005615	-0.116211	0.123679	0.026813	0.102026	0.068204	-0.406619	-0.171430	-0.894774	22.373290	-48.681283	178.493453
41684		14.812849	3.581899	11.362398	-1.390699	1.012460	9.115997	-0.321665	5.432007	-1.972297	-0.721680	-0.023193	-0.157715	0.151485	0.034514	0.109483	0.063332	-0.380525	-0.172046	-0.906416	22.044451	-45.366858	178.684927
41685		18.183039	4.522217	11.710660	-4.474651	0.277974	11.819979	-0.395227	5.469448	-2.163170	-0.705322	-0.038330	-0.203613	0.185416	0.043454	0.111981	0.057458	-0.353930	-0.172524	-0.917424	21.794833	-42.007941	178.712482
41686		22.116915	5.169747	11.612402	-8.674618	-0.308391	14.170455	-0.486371	5.534565	-2.363152	-0.691162	-0.060303	-0.238281	0.224859	0.049327	0.109813	0.050489	-0.326447	-0.172772	-0.927919	21.584252	-38.555891	178.600199
