// General information: 
//  MT Manager version: 2019.2.0 
//  XDA version: 2019.2.0 build 3853 rev 94535 built on 2019-09-09
// Device information: 
//  DeviceId: 00B40ACF
//  ProductCode: MTW2-3A7G6
//  Firmware Version: 4.6.0
//  Hardware Version: 1.1.0
// Device settings: 
//  Filter Profile: human(46.1)
//  Option Flags: Orientation Smoother Disabled, AHS Disabled, ICC Disabled
// Coordinate system: ENU
PacketCounter	SampleTimeFine	Acc_X	Acc_Y	Acc_Z	FreeAcc_E	FreeAcc_N	FreeAcc_U	Gyr_X	Gyr_Y	Gyr_Z	Mag_X	Mag_Y	Mag_Z	VelInc_X	VelInc_Y	VelInc_Z	Quat_q0	Quat_q1	Quat_q2	Quat_q3	Roll	Pitch	Yaw
52023		12.027450	0.880334	-0.287678	0.000000	-0.000000	2.250256	0.379767	0.858666	1.225017	-0.787109	0.467529	-0.880859	0.120204	0.009546	-0.003375	0.660052	-0.176275	-0.694923	-0.224367	109.473031	-85.185225	-142.417110
52024		13.743305	0.689146	-0.443954	-0.000000	0.000000	3.954896	0.419250	0.960573	1.296042	-0.771729	0.476807	-0.885254	0.137361	0.007792	-0.005084	0.660796	-0.180652	-0.697013	-0.211864	123.121473	-86.125187	-155.368540
52025		15.666843	0.228575	-0.638146	-0.325809	-0.763653	5.846617	0.407353	1.074143	1.376348	-0.769775	0.488037	-0.896240	0.156610	0.003378	-0.007217	0.663570	-0.179799	-0.693575	-0.215176	114.074963	-86.240602	-146.528539
52026		17.589904	-0.114994	-2.107020	0.913375	-1.804453	7.787238	0.425788	1.170574	1.500380	-0.752197	0.497314	-0.907227	0.175773	0.000215	-0.022100	0.669595	-0.182321	-0.688767	-0.209764	108.838353	-87.287213	-141.039451
52027		19.417528	1.749813	-2.534357	2.509572	-0.334250	9.683502	0.645205	1.256710	1.637195	-0.743652	0.508545	-0.920410	0.193859	0.019170	-0.026502	0.675244	-0.185231	-0.684478	-0.203041	101.467901	-88.374385	-133.341556
52028		19.392590	2.505379	-0.198856	1.308498	1.714712	9.622356	0.842770	1.315091	1.858589	-0.732666	0.522217	-0.940430	0.193664	0.026866	-0.003152	0.682362	-0.187397	-0.679122	-0.195085	51.451584	-89.324010	-82.834947
52029		20.469481	4.256424	0.868012	1.592943	3.916690	10.680527	0.953463	1.390046	2.114242	-0.726074	0.526855	-0.951172	0.204285	0.044688	0.007469	0.688045	-0.188707	-0.675170	-0.187426	-21.106242	-88.951627	-9.743850
52030		20.833234	5.709025	1.145158	2.548900	5.560000	10.935627	0.944215	1.496376	2.304217	-0.704102	0.538574	-0.959961	0.207736	0.059436	0.010173	0.696074	-0.191815	-0.668662	-0.177704	-42.388760	-87.501656	12.088197
52031		21.520367	6.940467	0.258732	4.120901	5.754840	11.663587	0.935570	1.566218	2.518169	-0.687012	0.561035	-0.975586	0.214320	0.072099	0.001240	0.701612	-0.184217	-0.663945	-0.181610	-18.957181	-86.940205	-11.037127
52032		21.685496	7.896838	-0.124204	5.448766	6.743425	11.575016	0.832056	1.593493	2.718311	-0.671631	0.568115	-0.990967	0.215738	0.081915	-0.002627	0.710043	-0.188851	-0.656519	-0.170756	-33.421878	-85.420620	3.935926
52033		20.751197	5.918640	-1.286176	5.085171	3.261079	10.942136	0.664676	1.571788	2.876157	-0.654297	0.586182	-1.004150	0.206523	0.062207	-0.014284	0.709548	-0.168313	-0.656844	-0.191749	9.210412	-85.324968	-38.735576
52034		19.639400	3.105804	-2.487343	5.199077	0.660665	9.527338	0.579793	1.557748	2.836950	-0.632324	0.604492	-1.017334	0.195725	0.033912	-0.026304	0.717776	-0.174057	-0.649397	-0.181065	-8.708503	-84.428163	-20.413013
52035		18.087938	2.248958	-2.930746	4.346570	-1.098561	8.095250	0.117207	1.464680	2.704065	-0.615234	0.624756	-1.019531	0.180332	0.024948	-0.030615	0.708120	-0.155491	-0.658425	-0.202150	28.528999	-84.474433	-57.861056
52036		13.890162	0.585522	-3.039265	3.800947	-1.999286	3.754186	-0.615706	1.279392	2.525875	-0.597656	0.638428	-1.026123	0.138615	0.007512	-0.031301	0.714332	-0.164677	-0.651240	-0.196207	11.750740	-84.282533	-41.357331
52037		10.696238	-2.026136	-3.270352	1.995678	-4.287162	0.523777	-0.918323	1.098649	2.358207	-0.587402	0.658691	-1.024170	0.107011	-0.019151	-0.033202	0.698581	-0.159815	-0.665706	-0.208037	40.626938	-85.269639	-70.806502
52038		8.033853	-3.696331	-2.654699	0.703140	-5.085280	-2.138298	-1.075581	0.889466	2.269883	-0.572510	0.681152	-1.030762	0.080634	-0.036193	-0.026709	0.702981	-0.170187	-0.659608	-0.204381	22.880615	-85.523576	-53.621902
52039		6.169655	-7.602128	-1.655769	-2.445433	-7.619345	-3.933823	-0.879249	0.779887	2.105348	-0.550537	0.697021	-1.019775	0.062428	-0.075439	-0.016468	0.688818	-0.179205	-0.673563	-0.199320	37.295101	-87.954307	-68.349983
52040		4.721238	-10.695090	-1.850366	-3.827859	-10.245462	-5.287938	0.101935	0.735388	1.818982	-0.539551	0.699463	-1.028564	0.048114	-0.106507	-0.018734	0.693166	-0.184238	-0.669469	-0.193361	5.567341	-87.942444	-36.544458
52041		4.550232	-4.061428	-0.710413	-1.335003	-3.668742	-5.073319	1.072784	0.683192	1.250798	-0.532959	0.704102	-1.043945	0.045730	-0.040289	-0.007477	0.687672	-0.200602	-0.678199	-0.164048	-90.419383	-86.939860	60.523889
52042		3.411596	2.618615	-3.133230	4.118206	0.894107	-6.564034	1.118288	0.435893	0.835326	-0.535156	0.701904	-1.048340	0.033938	0.026503	-0.031259	0.690939	-0.199226	-0.676762	-0.157816	-85.732050	-86.452836	56.470599
52043		2.656504	4.675014	-2.053943	4.093396	3.353992	-7.548600	0.792614	0.203088	0.462154	-0.530518	0.699951	-1.054932	0.026436	0.046892	-0.020381	0.683882	-0.208524	-0.685379	-0.138130	-105.425241	-84.292502	77.011261
52044		1.979996	3.569958	-0.076639	1.799922	3.284862	-8.187638	0.474477	-0.040571	0.249946	-0.528076	0.699951	-1.061523	0.019755	0.035726	-0.000678	0.684407	-0.207785	-0.685582	-0.135607	-105.003707	-84.148212	76.860818
52045		1.325356	2.567998	0.379835	0.868810	2.578608	-8.767985	0.236974	-0.288350	0.011699	-0.528320	0.702148	-1.054932	0.013247	0.025676	0.003848	0.675507	-0.208430	-0.694920	-0.131656	-118.127757	-83.579941	90.253773
52046		0.440625	2.840469	-0.193751	1.497629	2.455072	-9.640426	0.015560	-0.521179	-0.269546	-0.541504	0.695313	-1.057129	0.004450	0.028399	-0.001924	0.673532	-0.207783	-0.696969	-0.131968	-121.101479	-83.566636	93.255263
52047		-0.154333	3.399871	-0.684531	2.206789	2.652374	-10.195384	-0.273561	-0.759968	-0.586572	-0.550781	0.699463	-1.048340	-0.001417	0.033994	-0.006897	0.664393	-0.205223	-0.705521	-0.136769	-135.014816	-83.525760	106.980593
52048		-0.279234	3.432863	-0.910640	2.437679	2.557335	-10.270262	-0.531567	-0.964288	-0.912818	-0.554932	0.694824	-1.037354	-0.002591	0.034316	-0.009210	0.659805	-0.204423	-0.709279	-0.140684	-141.966378	-83.458529	113.670594
52049		-0.209172	2.986128	-0.910814	2.249304	2.160659	-10.062182	-0.706106	-1.141031	-1.220030	-0.568604	0.694580	-1.026367	-0.001857	0.029841	-0.009225	0.648476	-0.199685	-0.718617	-0.152294	-160.393426	-83.136811	131.517208
52050		-0.198807	2.258166	-0.999136	1.985625	1.473588	-9.963439	-0.739402	-1.347450	-1.500645	-0.588379	0.683105	-1.021973	-0.001751	0.022558	-0.010087	0.641716	-0.197705	-0.723880	-0.158463	-169.088201	-82.616917	139.852345
52051		0.076647	1.734175	-0.926102	1.645265	1.057320	-9.598435	-0.648094	-1.468444	-1.781368	-0.597168	0.676025	-1.004395	0.000989	0.017303	-0.009310	0.628676	-0.190961	-0.733910	-0.172269	175.145639	-81.331336	155.001388
52052		0.390896	1.276316	-0.635638	1.120459	0.815062	-9.296987	-0.515863	-1.513933	-2.036977	-0.619385	0.671143	-0.987061	0.004087	0.012706	-0.006359	0.620821	-0.186396	-0.740108	-0.179105	168.464718	-80.304793	161.469172
52053		0.993431	0.919388	-0.354896	0.575480	0.653244	-8.717193	-0.398301	-1.552705	-2.270268	-0.632080	0.653076	-0.975830	0.010065	0.009073	-0.003489	0.607495	-0.177842	-0.749822	-0.192584	158.821703	-78.385884	170.648495
52054		1.789723	0.859823	0.286954	-0.190351	0.932717	-8.046813	-0.220087	-1.534217	-2.505433	-0.645264	0.641602	-0.969238	0.017980	0.008377	0.002998	0.599069	-0.170576	-0.756417	-0.199634	154.260789	-77.006968	175.187116
52055		2.400652	0.825078	1.073586	-1.076999	1.267643	-7.615150	-0.060374	-1.516666	-2.711150	-0.669189	0.618896	-0.953857	0.024033	0.007928	0.010916	0.586638	-0.160068	-0.765021	-0.212078	148.351579	-74.900350	-179.138766
52056		2.976450	0.145999	1.563312	-2.037526	0.888810	-7.286387	0.099813	-1.497777	-2.868454	-0.688721	0.605225	-0.945068	0.029663	0.001026	0.015856	0.577870	-0.150371	-0.771716	-0.218883	145.232601	-73.281562	-175.836495
52057		3.787908	-0.133244	2.648623	-3.393699	1.116396	-6.877376	0.247023	-1.459885	-3.011399	-0.701172	0.576172	-0.931885	0.037658	-0.001934	0.026760	0.567215	-0.138584	-0.778487	-0.230258	141.215655	-71.255315	-171.871096
52058		4.374603	-0.263358	3.651494	-4.558507	1.416098	-6.689826	0.135853	-1.453211	-3.139023	-0.722900	0.553467	-0.920654	0.043430	-0.003342	0.036829	0.557954	-0.127633	-0.784823	-0.237590	138.926116	-69.462036	-169.357809
52059		5.409483	-0.907943	3.616798	-5.279616	0.683180	-5.962568	-0.001496	-1.476416	-3.203616	-0.735352	0.531006	-0.907471	0.053671	-0.009941	0.036565	0.549229	-0.116949	-0.788819	-0.249869	135.648573	-67.657572	-166.309876
52060		5.813800	-0.976619	4.176184	-6.029541	0.784055	-5.911365	-0.187166	-1.531858	-3.226767	-0.752686	0.508301	-0.892090	0.057649	-0.010660	0.042214	0.538959	-0.106632	-0.794553	-0.258533	133.962438	-65.727121	-164.590959
52061		6.706732	-2.486314	4.115294	-7.094359	-0.707066	-5.658017	-0.373459	-1.605759	-3.298295	-0.762695	0.479248	-0.876465	0.066313	-0.025883	0.041735	0.531707	-0.098072	-0.796190	-0.271573	131.179571	-64.151020	-162.290715
52062		7.999170	-6.008529	4.727811	-9.804754	-3.569048	-6.130754	-0.529961	-1.584267	-3.354066	-0.775635	0.461182	-0.858887	0.078592	-0.061285	0.048066	0.520493	-0.088264	-0.801186	-0.281775	129.776533	-62.099877	-161.058456
52063		9.337670	-10.524395	4.553714	-12.290555	-7.638218	-6.768564	-0.600902	-1.560894	-3.273214	-0.788086	0.436279	-0.845703	0.091278	-0.106610	0.046574	0.516347	-0.081814	-0.800629	-0.292721	127.553272	-61.009730	-159.303722
52064		11.537116	-14.025359	3.639758	-14.199641	-11.421735	-6.504748	-0.522310	-1.543140	-3.121434	-0.796387	0.418457	-0.830078	0.112877	-0.141931	0.037644	0.505308	-0.072913	-0.805001	-0.302193	126.607176	-59.049795	-158.557192
52065		14.121954	-15.602617	3.117860	-15.586457	-13.602029	-4.852830	-0.298809	-1.445480	-2.901154	-0.808838	0.391357	-0.823486	0.138706	-0.158003	0.032422	0.507280	-0.068185	-0.803640	-0.303614	125.702097	-58.952956	-157.370590
52066		15.933157	-18.286041	3.316064	-17.816751	-16.124101	-5.145732	0.105611	-1.195049	-2.535285	-0.810303	0.371338	-0.805664	0.156795	-0.184877	0.034005	0.498615	-0.059538	-0.807616	-0.309183	125.301726	-57.372744	-156.828137
52067		16.145889	-18.479093	4.195239	-18.224030	-16.209246	-4.824144	0.521779	-0.905295	-2.098011	-0.818604	0.353516	-0.799072	0.159317	-0.186580	0.042192	0.509797	-0.055672	-0.805427	-0.297144	125.741393	-58.681830	-155.774153
52068		14.309022	-15.946141	5.703121	-17.516466	-13.109956	-6.229071	0.651832	-0.659973	-1.615129	-0.820557	0.340088	-0.801270	0.141607	-0.160795	0.056978	0.504899	-0.048484	-0.808492	-0.298440	125.738156	-57.709837	-155.330894
52069		12.012401	-13.875712	6.950184	-16.192362	-10.686422	-6.856195	0.298891	-0.559954	-1.115441	-0.818115	0.337891	-0.796875	0.119152	-0.139527	0.069628	0.522894	-0.049034	-0.803728	-0.279642	126.693615	-60.221550	-154.523761
52070		9.827336	-12.279514	7.372504	-14.978443	-8.687575	-8.439072	-0.322458	-0.580737	-0.683955	-0.815430	0.329102	-0.792236	0.097638	-0.123010	0.074207	0.519519	-0.047940	-0.804954	-0.282580	126.566305	-59.708563	-154.590115
52071		11.056179	-13.071750	4.586970	-13.217630	-11.161414	-5.957460	-1.082451	-0.679697	-0.302269	-0.820068	0.326660	-0.779053	0.110206	-0.130632	0.046952	0.538837	-0.056078	-0.797255	-0.266261	127.313336	-62.753260	-154.440744
52072		20.817748	-35.725819	-3.686929	-19.437015	-36.099486	-3.312744	-2.210212	-0.957210	0.578884	-0.818115	0.335449	-0.777100	0.209372	-0.357024	-0.031923	0.535131	-0.065610	-0.796668	-0.273223	127.282669	-62.684808	-155.831080
52073		19.662452	-11.135008	-0.843690	-10.827989	-13.174173	5.036754	-1.193990	0.010937	0.439497	-0.815674	0.333496	-0.779297	0.196868	-0.110965	-0.007784	0.558805	-0.076727	-0.787512	-0.248344	129.541647	-66.670229	-156.690394
52074		28.782982	30.781902	13.548946	-9.566258	28.535618	22.649025	0.256808	0.758421	0.123307	-0.811523	0.337891	-0.785889	0.288152	0.307823	0.134792	0.562039	-0.075553	-0.785658	-0.247277	129.007147	-67.000067	-155.948976
52075		36.938881	29.629801	17.849911	-15.105272	28.997388	28.813506	-0.480076	0.878081	0.528564	-0.811523	0.342529	-0.796875	0.369380	0.297699	0.176164	0.585612	-0.082951	-0.773239	-0.228647	129.255051	-70.659794	-155.085466
52076		14.575254	14.819613	12.210167	-8.948651	16.605165	5.198232	-1.007289	0.429182	0.890094	-0.802979	0.353760	-0.796875	0.145350	0.149455	0.121039	0.587856	-0.088850	-0.770442	-0.230107	129.058021	-71.210601	-155.487621
52077		4.406627	0.090159	6.836466	-7.059778	2.591734	-6.713718	-1.935186	0.084055	1.000871	-0.803711	0.369141	-0.792480	0.044088	0.001783	0.068332	0.605529	-0.097755	-0.757162	-0.224688	126.754428	-73.924123	-153.379609
52078		6.975013	-11.495546	0.107655	-6.739454	-10.862616	-5.642718	-1.775751	-0.037311	0.838740	-0.804199	0.380127	-0.783936	0.070231	-0.114646	0.002108	0.605434	-0.106344	-0.754833	-0.228841	126.807984	-74.296324	-154.493134
52079		6.048436	-11.979214	-4.058887	-2.888111	-13.098002	-5.731094	-0.842108	-0.077885	0.646220	-0.800049	0.389160	-0.779541	0.060887	-0.119765	-0.040061	0.618671	-0.109290	-0.746155	-0.220351	125.359962	-76.267169	-152.516695
52080		8.346764	-10.492459	-4.617169	-2.284918	-12.265298	-3.073276	-0.027619	0.059953	0.502250	-0.797852	0.393555	-0.783936	0.083717	-0.104721	-0.046182	0.619432	-0.111183	-0.745662	-0.218932	125.921618	-76.521160	-153.110840
52081		10.805005	-3.020531	-1.128822	-2.285633	-4.252093	0.377564	0.666948	0.193332	0.364311	-0.806396	0.382324	-0.783936	0.108094	-0.029970	-0.011493	0.629502	-0.110343	-0.740742	-0.207009	125.969895	-78.036857	-152.049744
52082		10.822056	2.754596	2.236160	-2.793350	2.405139	0.963099	0.538810	0.117312	0.276419	-0.795166	0.384766	-0.786133	0.108196	0.027635	0.022372	0.630517	-0.109549	-0.740774	-0.204207	126.465685	-78.204465	-152.240904
52083		10.797260	1.819608	1.018117	-1.944262	1.100892	0.954678	-0.061837	-0.072734	0.248597	-0.802490	0.395752	-0.779541	0.107946	0.018333	0.010215	0.636607	-0.110289	-0.737290	-0.197413	126.505233	-79.195437	-151.752852
52084		10.233758	0.027888	-0.403645	-1.320811	-1.043673	0.289770	-0.294763	-0.177435	0.219225	-0.802246	0.391357	-0.783936	0.102341	0.000385	-0.003946	0.636006	-0.112210	-0.737440	-0.197703	127.158844	-79.235157	-152.590128
52085		10.465436	-1.079801	-0.945831	-1.220237	-2.239500	0.438240	-0.225374	-0.197858	0.184271	-0.800293	0.398193	-0.788330	0.104674	-0.010712	-0.009343	0.639836	-0.112889	-0.735218	-0.193185	127.359005	-79.884217	-152.456829
52086		10.236574	-1.614762	-0.603130	-1.725620	-2.534449	0.104845	-0.058609	-0.153279	0.112533	-0.800049	0.393555	-0.786133	0.102379	-0.016092	-0.005948	0.639349	-0.113638	-0.735587	-0.192953	127.935868	-79.881764	-153.076904
52087		10.325478	-2.086441	-0.479894	-1.963536	-2.879245	0.139875	0.050913	-0.118477	0.046615	-0.800293	0.397949	-0.779541	0.103262	-0.020839	-0.004743	0.642116	-0.113501	-0.734171	-0.189203	128.163169	-80.331208	-152.971752
52088		10.110250	-1.107969	-1.570399	-0.556301	-2.438314	0.170100	0.081332	-0.052483	-0.063483	-0.806885	0.395752	-0.781738	0.101103	-0.011105	-0.015682	0.641910	-0.113057	-0.734452	-0.189078	128.216512	-80.284172	-152.978583
52089		10.451340	-1.321149	-1.281513	-0.897095	-2.513362	0.458459	0.117007	-0.009953	-0.136758	-0.807129	0.397949	-0.783936	0.104505	-0.013275	-0.012818	0.643901	-0.112742	-0.733328	-0.186844	128.081368	-80.578820	-152.625867
52090		10.005053	-1.283612	-0.247745	-1.753251	-2.026398	-0.084896	0.143432	0.022050	-0.166759	-0.809082	0.391113	-0.779541	0.100040	-0.012918	-0.002498	0.643907	-0.111648	-0.733484	-0.186867	127.751165	-80.511356	-152.207795
52091		10.026471	-1.051015	-0.195663	-1.672914	-1.786073	-0.030852	0.102667	-0.003281	-0.198928	-0.811035	0.386719	-0.786133	0.100254	-0.010609	-0.001960	0.645168	-0.111701	-0.732664	-0.185697	127.598454	-80.704740	-151.958743
52092		9.927183	-0.828596	0.136955	-1.876786	-1.457478	-0.137581	0.101691	0.004677	-0.214423	-0.806641	0.391357	-0.788330	0.099263	-0.008393	0.001363	0.645044	-0.110584	-0.732862	-0.186018	127.190332	-80.608917	-151.486077
52093		9.952402	-0.257655	0.108854	-1.601896	-0.949249	-0.032026	0.099673	-0.011677	-0.235238	-0.815674	0.386719	-0.788330	0.099521	-0.002694	0.001093	0.645892	-0.110622	-0.732266	-0.185398	126.993970	-80.732748	-151.239145
52094		10.030246	-0.845174	0.300074	-2.030435	-1.429575	-0.053394	0.116479	0.007178	-0.217883	-0.810791	0.377930	-0.783936	0.100293	-0.008563	0.002992	0.645781	-0.109442	-0.732471	-0.185678	126.584897	-80.635396	-150.756964
52095		9.683668	0.147002	-0.122322	-1.183434	-0.676168	-0.223514	0.106280	-0.004875	-0.230327	-0.817627	0.379883	-0.786133	0.096838	0.001359	-0.001220	0.646482	-0.109355	-0.731977	-0.185238	126.345364	-80.727229	-150.472043
52096		10.093989	-0.104283	-0.618636	-0.901750	-1.160281	0.193449	0.096309	-0.026482	-0.209715	-0.822021	0.382080	-0.788330	0.100940	-0.001146	-0.006174	0.646244	-0.108302	-0.732265	-0.185548	126.043032	-80.621465	-150.109733
52097		10.060098	0.383303	-0.528020	-0.772126	-0.674200	0.216299	0.143570	-0.024863	-0.167013	-0.826416	0.377686	-0.783936	0.100605	0.003753	-0.005265	0.646752	-0.108320	-0.731955	-0.184988	126.008199	-80.702346	-150.028437
52098		9.892789	0.100658	-0.310738	-1.066550	-0.839939	-0.008050	0.207456	-0.025634	-0.134336	-0.819580	0.373291	-0.790527	0.098929	0.000943	-0.003094	0.646646	-0.107182	-0.732302	-0.184648	125.924350	-80.631595	-149.822995
52099		9.692471	0.236514	-0.233284	-1.044805	-0.661354	-0.193678	0.248137	-0.038156	-0.116346	-0.823975	0.373291	-0.790527	0.096927	0.002312	-0.002311	0.647072	-0.106998	-0.732194	-0.183689	126.081032	-80.705993	-149.883423
52100		9.944740	0.194630	-0.331521	-1.015028	-0.765826	0.057919	0.302918	-0.045682	-0.075181	-0.823975	0.373291	-0.792725	0.099449	0.001914	-0.003290	0.646998	-0.105785	-0.732658	-0.182798	126.228527	-80.655946	-149.856999
52101		9.837286	0.148450	-0.050105	-1.264405	-0.673144	-0.078988	0.320311	-0.038057	-0.035194	-0.828369	0.370850	-0.797119	0.098373	0.001468	-0.000480	0.647458	-0.105568	-0.732632	-0.181393	126.577115	-80.749864	-150.069298
52102		9.650332	0.546414	-0.123821	-1.021198	-0.325417	-0.205708	0.293465	-0.031128	-0.021495	-0.834961	0.368652	-0.794922	0.096504	0.005456	-0.001215	0.647480	-0.104568	-0.733009	-0.180370	126.787887	-80.729513	-150.112479
52103		9.891351	0.158674	-0.168174	-1.153024	-0.704978	-0.011370	0.256520	-0.006300	-0.023242	-0.834961	0.368652	-0.792725	0.098914	0.001577	-0.001677	0.648026	-0.104363	-0.732853	-0.179159	126.993049	-80.826421	-150.198466
52104		9.942258	-0.798250	-0.288580	-1.416880	-1.633381	-0.071359	0.262499	0.038427	-0.007993	-0.828369	0.373291	-0.797119	0.099422	-0.007983	-0.002915	0.648297	-0.103449	-0.732966	-0.178242	127.017475	-80.836199	-150.070850
52105		9.605080	-0.148866	-0.597186	-0.821558	-1.123783	-0.289111	0.244129	0.060850	0.007646	-0.830566	0.370850	-0.797119	0.096049	-0.001478	-0.006003	0.649027	-0.103455	-0.732589	-0.177126	127.119960	-80.964004	-150.079153
52106		10.002647	-0.277546	-0.529729	-0.977748	-1.246427	0.081807	0.194753	0.094309	0.031659	-0.834717	0.362061	-0.799316	0.100024	-0.002754	-0.005347	0.649502	-0.102856	-0.732438	-0.176358	127.028716	-81.011239	-149.873777
52107		10.232396	0.087518	-0.188299	-1.158219	-0.781723	0.325975	0.176426	0.143509	0.056121	-0.835205	0.370850	-0.801514	0.102322	0.000906	-0.001956	0.650422	-0.103398	-0.731739	-0.175549	127.008241	-81.182575	-149.828515
52108		10.299333	0.037978	-0.055714	-1.289154	-0.779339	0.376105	0.125121	0.177413	0.098058	-0.833008	0.375488	-0.808105	0.102993	0.000431	-0.000648	0.651222	-0.103195	-0.731220	-0.174863	126.771398	-81.288719	-149.516327
52109		10.122347	0.927880	-0.352174	-0.623393	-0.047017	0.338963	0.088891	0.191682	0.164362	-0.830322	0.366455	-0.810303	0.101212	0.009364	-0.003615	0.652374	-0.104274	-0.730240	-0.174025	126.765458	-81.521634	-149.526829
52110		10.430798	0.926329	-0.437289	-0.558285	-0.092304	0.652998	0.067760	0.209867	0.251775	-0.833008	0.377686	-0.810303	0.104292	0.009396	-0.004479	0.653395	-0.104790	-0.729481	-0.173065	126.736263	-81.709361	-149.458064
52111		10.463747	0.499303	-0.192698	-0.902882	-0.360829	0.619516	0.063662	0.256636	0.357236	-0.837646	0.379639	-0.810303	0.104626	0.005181	-0.002060	0.654961	-0.106330	-0.728189	-0.171642	126.906683	-82.042955	-149.633497
52112		10.425164	1.060662	-0.460277	-0.396403	0.081107	0.668578	0.063071	0.309793	0.448137	-0.826660	0.386719	-0.816895	0.104220	0.010842	-0.004761	0.656506	-0.107490	-0.726986	-0.170108	127.034912	-82.355042	-149.726438
52113		10.531691	0.956404	-0.482165	-0.362737	0.012179	0.767084	0.134024	0.407921	0.540660	-0.833740	0.393066	-0.819092	0.105280	0.009852	-0.005030	0.658827	-0.109133	-0.725166	-0.167841	127.174936	-82.817334	-149.808798
52114		10.488748	0.645051	-0.553692	-0.343710	-0.258793	0.701626	0.155512	0.487841	0.639626	-0.822510	0.395752	-0.825684	0.104852	0.006790	-0.005788	0.661213	-0.110531	-0.723333	-0.165434	127.256388	-83.278440	-149.801080
52115		10.326743	-0.469587	-0.232185	-0.957018	-1.099094	0.424077	0.156392	0.577380	0.744306	-0.829590	0.402100	-0.830078	0.103277	-0.004310	-0.002623	0.664289	-0.112592	-0.720859	-0.162497	127.349021	-83.884560	-149.814530
52116		10.051234	0.397038	-0.702248	-0.083856	-0.414226	0.261962	0.139425	0.615684	0.837887	-0.816406	0.413574	-0.832275	0.100472	0.004396	-0.007329	0.667259	-0.114648	-0.718445	-0.159555	127.545177	-84.480392	-149.931389
52117		10.733475	0.012926	-0.692619	-0.188881	-0.727830	0.916742	0.125938	0.659958	0.954327	-0.814453	0.420410	-0.845703	0.107309	0.000646	-0.007280	0.670663	-0.117673	-0.715518	-0.156198	128.165504	-85.207503	-150.517735
52118		11.026246	0.153812	-0.570439	-0.157816	-0.490053	1.217291	0.169822	0.732834	1.052277	-0.814697	0.424805	-0.850098	0.110230	0.002123	-0.006107	0.674193	-0.120294	-0.712559	-0.152489	128.869472	-85.940933	-151.126192
52119		11.219152	0.055739	-0.289389	-0.333327	-0.389422	1.398530	0.230302	0.802812	1.151252	-0.801514	0.436035	-0.854492	0.112173	0.001207	-0.003343	0.678175	-0.123721	-0.709066	-0.148316	130.379171	-86.800083	-152.568930
52120		11.124851	0.461492	-0.348623	0.014622	0.055661	1.326934	0.306017	0.853644	1.234056	-0.799805	0.449463	-0.863281	0.111201	0.005307	-0.003953	0.682287	-0.126423	-0.705613	-0.143569	132.673252	-87.654040	-154.690086
52121		11.353632	0.322245	-0.114065	-0.110800	0.117190	1.544822	0.388558	0.906472	1.337887	-0.793213	0.456299	-0.874268	0.113505	0.003985	-0.001648	0.686774	-0.129817	-0.701693	-0.138260	139.564827	-88.610992	-161.420589
52122		12.672287	-0.103590	0.197964	-0.421241	-0.059818	2.854266	0.552358	0.993485	1.434790	-0.784668	0.465576	-0.887451	0.126734	-0.000131	0.001349	0.691582	-0.132263	-0.697701	-0.132034	171.376678	-89.503834	167.080915
52123		14.085755	0.254829	-0.713953	0.760577	0.085146	4.272456	0.704412	1.119144	1.542939	-0.769287	0.474609	-0.891846	0.140789	0.003662	-0.007916	0.697062	-0.134966	-0.693014	-0.124976	-78.533435	-89.126579	57.349618
52124		18.543198	1.781911	-1.220439	2.094929	1.570891	8.670964	0.832683	1.263776	1.706232	-0.762939	0.486084	-0.907227	0.185189	0.019454	-0.013296	0.703025	-0.137179	-0.687933	-0.116988	-63.577270	-87.957324	42.866680
52125		20.937464	4.009279	-1.928216	3.965909	3.720997	10.889382	0.822717	1.393333	1.838895	-0.752197	0.501953	-0.922607	0.208853	0.042098	-0.020568	0.709463	-0.140177	-0.682053	-0.108698	-59.092724	-86.617403	38.812227
52126		20.964185	5.098389	-1.012520	3.874050	5.354081	10.749859	0.910110	1.534305	2.017446	-0.736816	0.510986	-0.931396	0.209028	0.053145	-0.011492	0.716366	-0.142983	-0.675629	-0.099503	-56.746776	-85.170703	36.983226
52127		21.192016	5.290684	-0.599603	3.970512	6.011996	10.815318	0.850532	1.608118	2.288439	-0.721680	0.529297	-0.947021	0.211240	0.055356	-0.007464	0.723590	-0.146085	-0.668680	-0.089128	-55.637572	-83.586122	36.459314
52128		21.731004	5.739236	-0.446107	4.464312	6.906586	11.108754	0.781100	1.645933	2.578153	-0.708740	0.540527	-0.960205	0.216501	0.060208	-0.006014	0.730723	-0.151128	-0.661106	-0.078380	-55.623805	-81.834238	36.896615
52129		22.531013	6.709261	-1.250062	6.032877	8.074934	11.461156	0.748380	1.612207	2.834011	-0.689453	0.563232	-0.979980	0.224220	0.070326	-0.014052	0.737898	-0.154576	-0.653718	-0.065319	-55.656228	-80.046008	37.697603
52130		21.816134	6.825828	-1.603724	6.753357	8.504714	10.364540	0.750559	1.542096	3.032843	-0.671875	0.579102	-0.990967	0.216961	0.071618	-0.017449	0.744397	-0.161194	-0.645829	-0.052858	-56.456072	-78.110761	38.950046
52131		20.723908	4.203888	-1.305370	5.894105	6.496310	9.471237	0.813927	1.464815	3.156468	-0.652344	0.593018	-1.001953	0.206439	0.045358	-0.014388	0.750762	-0.163639	-0.638900	-0.037216	-56.720935	-76.289091	40.272295
52132		19.893024	1.687841	-2.144549	6.274937	4.267609	8.776365	0.974944	1.397329	3.098775	-0.632813	0.611084	-1.008545	0.198480	0.020065	-0.022741	0.756484	-0.169593	-0.631200	-0.023607	-57.290279	-74.363692	41.438169
52133		17.633326	1.430507	-2.663856	6.535812	3.945086	6.366589	0.492881	1.175991	2.927568	-0.606445	0.631592	-1.021729	0.175938	0.016950	-0.027634	0.760871	-0.172184	-0.625569	-0.009489	-57.717372	-72.789420	42.786803
52134		13.390797	-0.438857	-3.207553	5.941534	1.536916	2.521016	-0.579037	0.896685	2.604268	-0.597900	0.642822	-1.015137	0.133805	-0.002740	-0.032666	0.763226	-0.182474	-0.619826	-0.002163	-59.108854	-71.248984	43.900820
52135		9.543193	-4.977092	-3.774505	4.695221	-3.479145	-0.017944	-0.613470	0.713237	2.391079	-0.578613	0.665527	-1.021973	0.095884	-0.048743	-0.037936	0.764541	-0.188425	-0.616390	0.006027	-60.220933	-70.091819	45.172438
52136		7.735483	-6.931175	-2.772271	2.978097	-5.256705	-0.921215	-0.255340	0.563697	2.265133	-0.568115	0.683350	-1.019775	0.078055	-0.068466	-0.027854	0.765917	-0.196387	-0.612066	0.013369	-61.306128	-68.801353	46.175100
52137		5.867456	-10.102927	-1.336939	0.541542	-8.105912	-1.310951	0.069946	0.555918	2.114863	-0.559326	0.690186	-1.030762	0.059701	-0.100397	-0.013570	0.766798	-0.201934	-0.608960	0.020284	-62.135968	-67.775088	47.092744
52138		5.174303	-13.608370	-1.566835	0.022782	-11.442099	-0.675692	1.255953	0.568741	1.833291	-0.548096	0.692871	-1.046143	0.052940	-0.135499	-0.016670	0.769562	-0.202746	-0.604760	0.030562	-61.904835	-66.694419	47.622498
52139		4.093839	-4.236042	-1.883187	2.041837	-3.183627	-4.919456	1.916846	0.456835	1.288088	-0.543213	0.684082	-1.059082	0.041166	-0.041912	-0.019329	0.771700	-0.202694	-0.601689	0.036943	-61.527731	-66.017606	47.764552
52140		4.020696	2.836282	-2.350442	3.831272	3.209971	-7.632820	1.701548	0.263980	0.921860	-0.536621	0.684326	-1.065674	0.040044	0.028747	-0.023314	0.774012	-0.198941	-0.599392	0.045351	-60.823885	-65.481793	48.061872
52141		3.706254	4.336515	0.574914	1.238360	5.263511	-7.906414	1.110941	0.082905	0.617013	-0.527588	0.686768	-1.078857	0.036931	0.043446	0.005975	0.774285	-0.200085	-0.598543	0.046853	-60.930092	-65.249098	48.192403
52142		3.384248	3.030980	2.630153	-1.048723	4.499102	-7.319522	0.552451	-0.120390	0.473070	-0.529785	0.686768	-1.072266	0.033755	0.030317	0.026406	0.774361	-0.199333	-0.598402	0.050459	-61.027632	-65.045403	48.648745
52143		2.428329	1.960291	2.482303	-1.356597	3.186275	-7.835664	0.115792	-0.316731	0.272151	-0.532227	0.688721	-1.070068	0.024217	0.019622	0.024873	0.772730	-0.200908	-0.600022	0.049977	-61.731015	-65.125047	49.182333
52144		1.026180	2.467190	1.257965	-0.505089	2.897865	-9.548482	-0.284116	-0.521244	-0.033578	-0.541016	0.686523	-1.067871	0.010233	0.024688	0.012571	0.770886	-0.201775	-0.602137	0.049519	-62.445505	-65.281723	49.790077
52145		0.236442	3.099482	0.570866	0.053298	3.052030	-10.631722	-0.685597	-0.746809	-0.376870	-0.543457	0.690674	-1.061523	0.002402	0.031010	0.005611	0.767460	-0.202870	-0.606417	0.045905	-63.600911	-65.807779	50.565369
52146		-0.098638	3.106660	0.163088	0.383236	2.848388	-11.007408	-1.018258	-0.941992	-0.698758	-0.552734	0.697021	-1.041748	-0.000885	0.031078	0.001468	0.763709	-0.204437	-0.610955	0.041091	-64.888852	-66.402784	51.335925
52147		-0.228091	2.181320	-0.377474	0.724122	1.824123	-10.861864	-1.165919	-1.116010	-0.982899	-0.566162	0.694580	-1.037354	-0.002152	0.021801	-0.003914	0.758812	-0.204354	-0.617433	0.034931	-66.441743	-67.332201	52.405573
52148		-0.414658	0.895368	-1.020626	1.061243	0.417926	-10.657870	-1.128638	-1.230701	-1.249555	-0.579834	0.696533	-1.013184	-0.004028	0.008921	-0.010282	0.754037	-0.204552	-0.623542	0.027962	-68.002241	-68.265238	53.392540
52149		-0.537639	0.166515	-1.151242	1.020326	-0.318597	-10.519468	-0.937326	-1.320864	-1.494634	-0.593262	0.693848	-1.004639	-0.005288	0.001651	-0.011555	0.748680	-0.201798	-0.631127	0.020852	-69.638188	-69.489494	54.696076
52150		-0.419460	-0.228272	-0.889490	0.715026	-0.573811	-10.235438	-0.718547	-1.384859	-1.712945	-0.608398	0.680176	-0.991455	-0.004152	-0.002279	-0.008916	0.743714	-0.198925	-0.638071	0.013569	-71.205622	-70.680057	55.925245
52151		-0.145069	-0.498698	-0.151390	0.001265	-0.540976	-9.814232	-0.437912	-1.408709	-1.925081	-0.628174	0.668701	-0.984863	-0.001488	-0.004976	-0.001513	0.738371	-0.193326	-0.646061	0.006173	-72.868350	-72.115706	57.470761
52152		0.272907	-0.256079	0.859734	-0.842804	0.068489	-9.407522	-0.125456	-1.396772	-2.134531	-0.638916	0.655029	-0.971436	0.002641	-0.002584	0.008618	0.733744	-0.186836	-0.653231	-0.000762	-74.305141	-73.515028	58.899343
52153		0.723104	0.270819	1.471704	-1.248441	0.821112	-9.085191	0.134016	-1.376038	-2.333952	-0.658691	0.641357	-0.962646	0.007160	0.002614	0.014768	0.728841	-0.177810	-0.661145	-0.007818	-75.892829	-75.132093	60.679508
52154		1.361570	0.879861	2.317306	-1.854624	1.735711	-8.569534	0.315582	-1.342196	-2.502957	-0.674072	0.627686	-0.949463	0.013568	0.008592	0.023278	0.724513	-0.168421	-0.668206	-0.014701	-77.373070	-76.705230	62.391876
52155		1.683059	0.969110	3.191938	-2.684614	2.063553	-8.233258	0.323963	-1.316275	-2.656181	-0.688965	0.607422	-0.945068	0.016746	0.009416	0.032045	0.719825	-0.156839	-0.675855	-0.021750	-79.262196	-78.469302	64.678478
52156		2.052521	0.633367	3.463522	-3.040437	1.824021	-7.803180	0.388265	-1.291967	-2.789404	-0.703857	0.584961	-0.936279	0.020386	0.005981	0.034779	0.715375	-0.146138	-0.682653	-0.029461	-81.493128	-80.169110	67.174862
52157		2.615927	0.558686	3.860046	-3.469710	1.842169	-7.239394	0.317477	-1.276414	-2.899890	-0.723145	0.560059	-0.927246	0.025989	0.005148	0.038775	0.710743	-0.132520	-0.689889	-0.036548	-84.623128	-82.035695	70.857591
52158		3.262362	0.618553	4.511917	-4.121088	2.052936	-6.621459	0.097177	-1.291487	-3.007733	-0.735596	0.537598	-0.916260	0.032419	0.005675	0.045332	0.705708	-0.122018	-0.696396	-0.046040	-89.847430	-83.794534	76.177526
52159		3.980393	-0.121073	4.995175	-4.830557	1.379109	-5.866538	-0.256902	-1.313639	-3.081261	-0.750488	0.510742	-0.907471	0.039450	-0.001756	0.050214	0.700569	-0.108525	-0.703149	-0.054845	-99.389926	-85.644337	86.113057
52160		4.425150	-2.744886	5.191077	-5.708150	-1.187428	-5.333038	-0.586703	-1.320707	-3.118888	-0.765625	0.494629	-0.885498	0.043473	-0.027978	0.052281	0.694649	-0.099961	-0.709202	-0.067107	-120.678024	-87.088075	107.104617
52161		4.799876	-6.131842	5.165640	-6.548225	-4.636039	-5.022893	-0.890457	-1.345189	-3.159228	-0.775879	0.472168	-0.876465	0.046675	-0.061831	0.052248	0.689104	-0.087658	-0.715119	-0.077820	-166.005470	-87.746185	152.563677
52162		6.782385	-9.230869	3.786704	-6.171656	-8.039642	-3.269912	-1.111658	-1.331824	-3.214718	-0.786621	0.454102	-0.856689	0.066074	-0.093166	0.038827	0.682490	-0.080498	-0.720565	-0.092273	155.794685	-86.770230	-169.834709
52163		9.635652	-11.415306	2.369816	-5.639673	-10.749687	-0.791332	-1.097186	-1.268419	-3.177834	-0.794678	0.434082	-0.843506	0.094373	-0.115529	0.024932	0.676883	-0.070256	-0.725251	-0.104424	137.660761	-85.200128	-151.863596
52164		12.242294	-13.364991	1.854311	-6.098286	-13.096132	1.287156	-0.857925	-1.157942	-3.017581	-0.802734	0.407227	-0.830078	0.120277	-0.135392	0.019822	0.670713	-0.062812	-0.729680	-0.117326	129.917757	-83.489506	-144.577621
52165		14.286103	-15.428188	2.169689	-7.351849	-15.398323	2.662847	-0.393645	-0.996513	-2.747306	-0.811279	0.393555	-0.821289	0.140613	-0.156180	0.022707	0.665901	-0.055027	-0.733065	-0.127137	125.547146	-82.008662	-140.385066
52166		15.715445	-17.251470	2.163754	-8.157079	-17.565876	3.383674	0.040471	-0.785678	-2.392525	-0.810547	0.373779	-0.821045	0.154989	-0.174382	0.022214	0.661459	-0.046619	-0.736306	-0.134728	122.954889	-80.621898	-137.739480
52167		15.823705	-17.698682	2.760682	-9.098598	-17.993648	3.020020	0.335260	-0.613821	-1.983190	-0.816406	0.353516	-0.812256	0.156386	-0.178590	0.027790	0.657997	-0.043329	-0.738378	-0.141281	121.841855	-79.719060	-136.904254
52168		14.702303	-15.530519	4.293148	-9.936530	-15.600206	1.749084	0.386232	-0.516033	-1.509906	-0.822754	0.340088	-0.810059	0.145734	-0.156492	0.043007	0.655087	-0.036848	-0.740651	-0.144705	121.013620	-78.826729	-135.836078
52169		13.630107	-14.012869	5.292058	-10.625152	-13.642972	0.728536	0.054559	-0.503746	-1.003116	-0.820068	0.333496	-0.807861	0.135462	-0.140824	0.053224	0.652200	-0.041785	-0.741782	-0.150494	121.636940	-78.567085	-137.344028
52170		12.684060	-13.351901	5.120123	-10.238120	-12.985504	-0.224679	-0.318313	-0.507977	-0.547331	-0.817871	0.333496	-0.805664	0.126344	-0.133783	0.051735	0.649833	-0.041176	-0.743307	-0.153351	121.854914	-78.147376	-137.752780
52171		13.606176	-16.118658	1.077567	-7.691465	-16.611703	0.722461	-0.822315	-0.556071	-0.092158	-0.815674	0.331299	-0.798828	0.135956	-0.161202	0.011817	0.647126	-0.054474	-0.743435	-0.159890	123.651579	-78.410413	-141.178618
52172		20.445665	-27.117805	-5.222974	-6.368411	-29.661403	6.320866	-1.668353	-0.728075	0.539406	-0.817871	0.333496	-0.792480	0.205371	-0.271044	-0.049222	0.644368	-0.062457	-0.744276	-0.164140	125.227866	-78.429545	-143.763392
52173		17.446050	-3.501481	12.717260	-15.751690	-0.538257	5.351311	0.119249	0.545301	0.270738	-0.818115	0.337891	-0.796875	0.174854	-0.034854	0.126675	0.644968	-0.078793	-0.741172	-0.168737	126.801268	-79.312923	-147.051018
52174		15.189517	28.720581	2.796905	4.608234	26.176066	9.081575	0.331737	0.248669	-0.113017	-0.811035	0.329102	-0.803223	0.152092	0.287073	0.028256	0.645924	-0.077095	-0.740692	-0.167969	126.179188	-79.345815	-146.224563
52175		35.265825	23.755569	17.627717	-13.071051	25.167824	26.442557	-0.988091	0.836222	-0.063501	-0.806641	0.331543	-0.814209	0.353463	0.238306	0.173624	0.648528	-0.089158	-0.735501	-0.174644	124.702518	-80.106139	-146.285295
52176		30.350385	17.898072	11.669919	-8.483578	18.053804	21.488180	-1.163611	0.476193	0.576079	-0.809326	0.344727	-0.812256	0.303260	0.180527	0.114930	0.650249	-0.094633	-0.732666	-0.177262	123.803013	-80.532806	-146.049117
52177		7.878067	8.018974	1.624639	0.520077	7.308961	-1.134362	-1.688972	0.176574	0.671898	-0.809814	0.353760	-0.810059	0.078524	0.080587	0.015498	0.653496	-0.102949	-0.728279	-0.178754	123.088179	-81.363589	-146.134209
52178		7.826275	-8.536874	1.136036	-5.318114	-7.973206	-3.212397	-1.156367	0.224012	0.661484	-0.803467	0.364746	-0.805664	0.078557	-0.085042	0.011765	0.654295	-0.108935	-0.726156	-0.180913	123.095426	-81.751529	-146.811326
52179		7.796242	-10.821812	-1.633371	-3.639928	-11.103388	-3.177475	-0.369201	0.132513	0.601394	-0.803711	0.369385	-0.805664	0.078277	-0.108013	-0.016186	0.657955	-0.112432	-0.723127	-0.177597	123.143043	-82.526887	-146.862718
52180		5.957500	-8.352328	-3.593492	-0.676833	-9.482762	-4.541508	0.032237	0.053352	0.426141	-0.801270	0.364990	-0.807861	0.059743	-0.083390	-0.035964	0.658545	-0.113820	-0.722738	-0.176107	124.009531	-82.747606	-147.717766
52181		8.938038	-5.583971	-1.633378	-1.618502	-6.301445	-1.362290	0.432987	0.009880	0.328046	-0.805664	0.366943	-0.807861	0.089471	-0.055657	-0.016459	0.661099	-0.116592	-0.720913	-0.172159	125.307197	-83.380974	-148.909893
52182		10.912134	0.876076	0.838734	-1.496568	0.498302	1.052744	0.467622	-0.042028	0.200259	-0.805664	0.366943	-0.807861	0.109111	0.008850	0.008431	0.661392	-0.115806	-0.721334	-0.169784	126.326826	-83.460366	-149.666558
52183		11.328009	1.626265	1.828991	-2.074395	1.638434	1.471200	0.093521	-0.125898	0.143169	-0.801025	0.362793	-0.807861	0.113257	0.016335	0.018369	0.662902	-0.119549	-0.719785	-0.167867	127.912074	-83.949674	-151.397471
52184		10.488872	-0.362075	0.069785	-1.183025	-0.822906	0.583256	-0.169465	-0.167908	0.126115	-0.805664	0.366943	-0.810059	0.104890	-0.003554	0.000789	0.662304	-0.120707	-0.720121	-0.167956	128.949988	-83.946977	-152.538819
52185		10.283694	-1.561953	-1.156911	-0.472211	-2.340453	0.377100	-0.180962	-0.166944	0.062622	-0.812744	0.373535	-0.801514	0.102851	-0.015598	-0.011469	0.663519	-0.124481	-0.718581	-0.166997	130.417947	-84.360908	-154.235671
52186		10.003286	-2.062117	-0.445766	-1.312581	-2.488777	0.015836	-0.073979	-0.149776	-0.019636	-0.808105	0.369141	-0.805664	0.100034	-0.020633	-0.004375	0.662921	-0.124783	-0.719026	-0.167232	130.957745	-84.296981	-154.820696
52187		10.002218	-1.830382	-0.030877	-1.560430	-2.058365	0.022137	-0.076103	-0.125295	-0.119606	-0.812500	0.364746	-0.801270	0.100011	-0.018364	-0.000239	0.663978	-0.127893	-0.717603	-0.166801	131.995987	-84.629712	-156.077725
52188		9.911272	-1.494171	-0.425917	-1.076181	-1.920163	-0.024837	-0.199328	-0.107711	-0.222243	-0.810303	0.369141	-0.801270	0.099098	-0.015056	-0.004191	0.663281	-0.127850	-0.717933	-0.168182	131.476069	-84.494213	-155.670154
52189		10.160471	-0.943550	-0.735511	-0.559386	-1.524704	0.288239	-0.313648	-0.073832	-0.258126	-0.816895	0.366699	-0.803467	0.101595	-0.009578	-0.007303	0.664116	-0.131369	-0.716276	-0.169237	131.734689	-84.775431	-156.305473
52190		10.338695	-1.007940	-0.518666	-0.817113	-1.521671	0.443547	-0.369957	-0.033055	-0.263285	-0.819336	0.368896	-0.799072	0.103374	-0.010225	-0.005151	0.663534	-0.131685	-0.716241	-0.171411	130.604714	-84.650066	-155.383518
52191		10.040235	-1.169418	-0.235214	-1.082435	-1.509516	0.126066	-0.345109	-0.006759	-0.260979	-0.825684	0.362061	-0.801270	0.100387	-0.011829	-0.002328	0.664423	-0.135348	-0.714404	-0.172773	130.577896	-84.938985	-155.771280
52192		9.801741	-0.037308	-0.675334	-0.201576	-0.689981	-0.013973	-0.310315	-0.009979	-0.283166	-0.825684	0.362061	-0.803467	0.098017	-0.000522	-0.006748	0.663935	-0.135379	-0.714356	-0.174812	129.288680	-84.811621	-154.655372
52193		10.134585	-0.224810	-0.157908	-0.735836	-0.626354	0.279461	-0.269009	0.005620	-0.265362	-0.825684	0.362061	-0.799072	0.101343	-0.002385	-0.001579	0.664794	-0.138742	-0.712617	-0.176003	129.205291	-85.086140	-154.948068
52194		9.821244	-0.044907	-0.148474	-0.653436	-0.472315	-0.023367	-0.277096	0.000688	-0.246645	-0.827881	0.359863	-0.799072	0.098212	-0.000572	-0.001484	0.664389	-0.138787	-0.712537	-0.177807	128.029299	-84.976739	-153.926973
52195		10.015917	-0.003515	-0.028671	-0.718069	-0.365506	0.170807	-0.279155	0.008214	-0.225004	-0.830322	0.362061	-0.803467	0.100159	-0.000148	-0.000291	0.665224	-0.142140	-0.710825	-0.178890	128.002004	-85.253080	-154.266266
52196		9.993603	0.671619	-0.238836	-0.238660	0.127044	0.202655	-0.253151	0.014261	-0.189453	-0.830078	0.357666	-0.805664	0.099942	0.006618	-0.002404	0.664928	-0.142299	-0.710681	-0.180426	126.991289	-85.172758	-153.397531
52197		10.334546	0.246028	-0.246616	-0.399459	-0.242188	0.517170	-0.208291	0.027954	-0.112764	-0.839111	0.355225	-0.803467	0.103346	0.002399	-0.002483	0.665942	-0.145537	-0.708964	-0.180858	127.258947	-85.488417	-153.967917
52198		9.945692	0.722389	-0.128382	-0.263885	0.239126	0.153671	-0.114879	0.057716	-0.060781	-0.828125	0.362061	-0.796875	0.099459	0.007193	-0.001317	0.666012	-0.145655	-0.708709	-0.181506	126.594138	-85.481325	-153.367028
52199		9.961048	1.261855	-0.318224	0.197815	0.665599	0.208983	-0.080126	0.024275	-0.017217	-0.832764	0.366455	-0.803711	0.099611	0.012609	-0.003199	0.667156	-0.148548	-0.707127	-0.181129	127.325547	-85.820666	-154.305080
52200		10.172678	0.557593	-0.025313	-0.390752	0.163605	0.366482	0.023476	0.050492	0.028306	-0.839111	0.357422	-0.805664	0.101726	0.005590	-0.000278	0.667382	-0.148527	-0.706955	-0.180985	127.158359	-85.852013	-154.123926
52201		9.887303	0.536637	0.146224	-0.482667	0.270153	0.074788	0.092898	0.049295	0.081579	-0.837158	0.364258	-0.803711	0.098871	0.005406	0.001440	0.668815	-0.150848	-0.705453	-0.179631	128.325185	-86.224139	-155.368274
52202		9.892037	0.759536	-0.307906	0.030156	0.268686	0.109560	0.103738	0.044445	0.115102	-0.834961	0.364258	-0.801514	0.098915	0.007654	-0.003097	0.669158	-0.150872	-0.705306	-0.178909	128.709335	-86.292572	-155.693642
52203		10.253214	-0.067379	-0.220075	-0.388577	-0.393453	0.428189	0.175960	0.074543	0.163838	-0.837158	0.366455	-0.810303	0.102532	-0.000588	-0.002240	0.670800	-0.152902	-0.703799	-0.176962	130.408635	-86.690428	-157.396941
52204		10.025551	-0.181698	-0.007531	-0.599835	-0.380811	0.189306	0.267361	0.111741	0.213349	-0.837158	0.368652	-0.808105	0.100257	-0.001710	-0.000134	0.671590	-0.152661	-0.703492	-0.175386	131.117166	-86.825834	-157.953135
52205		10.116592	0.196136	-0.130156	-0.262135	-0.055041	0.303094	0.339459	0.142185	0.236548	-0.843994	0.366455	-0.814697	0.101163	0.002083	-0.001370	0.673610	-0.154212	-0.701886	-0.172695	133.459890	-87.262572	-160.198226
52206		10.070608	-0.095511	-0.463932	-0.066567	-0.450606	0.258754	0.373986	0.202872	0.229880	-0.837158	0.368652	-0.816895	0.100702	-0.000831	-0.004743	0.674812	-0.153588	-0.701342	-0.170759	133.824945	-87.439159	-160.349121
52207		10.233638	-0.642692	-0.260548	-0.427229	-0.809219	0.403515	0.413879	0.257932	0.252072	-0.834961	0.368652	-0.816895	0.102341	-0.006292	-0.002751	0.677243	-0.154733	-0.699437	-0.167891	136.150860	-87.909217	-162.529293
52208		10.017605	-0.115849	-0.476137	0.046840	-0.419192	0.208014	0.422067	0.310156	0.267310	-0.835205	0.375488	-0.819092	0.100170	-0.001014	-0.004919	0.678880	-0.153982	-0.698527	-0.165744	136.024958	-88.144545	-162.161302
52209		10.070541	0.478469	-0.456591	0.369205	0.162890	0.271467	0.423711	0.358914	0.294873	-0.830566	0.373291	-0.834473	0.100690	0.004943	-0.004736	0.681615	-0.155142	-0.696280	-0.162867	139.227030	-88.656891	-165.218833
52210		10.328038	0.296834	-0.331000	0.220745	0.067345	0.522326	0.461016	0.426536	0.344814	-0.832764	0.373291	-0.832275	0.103268	0.003154	-0.003523	0.683739	-0.154427	-0.694925	-0.160411	138.992754	-88.972079	-164.720263
52211		10.290699	0.518226	-0.336424	0.417066	0.308689	0.483458	0.425402	0.492496	0.430227	-0.831055	0.382324	-0.834473	0.102887	0.005411	-0.003606	0.686969	-0.155809	-0.692156	-0.157219	152.003702	-89.564454	-177.579830
52212		10.125566	0.855166	-0.440093	0.724563	0.590533	0.315387	0.349374	0.553557	0.506426	-0.828857	0.388916	-0.847656	0.101221	0.008816	-0.004666	0.689554	-0.155930	-0.690123	-0.154695	-127.427887	-89.889826	102.051570
52213		10.267980	0.576261	-0.610543	0.867333	0.319532	0.447977	0.281035	0.575686	0.628484	-0.826904	0.393555	-0.852051	0.102643	0.006094	-0.006393	0.693027	-0.158252	-0.686835	-0.151415	-60.484301	-89.252572	35.186941
52214		10.323454	0.649150	-0.470521	0.858106	0.485547	0.494763	0.270375	0.628699	0.751329	-0.829346	0.397949	-0.858643	0.103194	0.006886	-0.005021	0.695966	-0.159422	-0.684253	-0.148373	-55.902226	-88.695238	30.759172
52215		10.627434	0.437730	-0.400192	0.839587	0.399510	0.790539	0.324503	0.694480	0.869085	-0.820557	0.406982	-0.858643	0.106239	0.004846	-0.004363	0.699936	-0.162213	-0.680413	-0.144272	-55.099774	-87.851501	30.062680
52216		10.881969	0.707564	-0.612478	1.264951	0.617572	1.018289	0.387812	0.750272	0.960496	-0.814209	0.413818	-0.871826	0.108760	0.007610	-0.006518	0.703487	-0.163584	-0.677269	-0.140191	-54.147328	-87.152635	29.331805
52217		11.480739	-0.089787	0.180653	0.394398	0.333204	1.658123	0.409926	0.816269	1.080384	-0.805664	0.425049	-0.880615	0.114816	-0.000281	0.001337	0.707943	-0.166584	-0.672889	-0.135227	-54.143163	-86.188283	29.484462
52218		11.431176	0.355765	0.183793	0.714960	0.814825	1.573915	0.402171	0.869338	1.190054	-0.799316	0.436279	-0.885254	0.114294	0.004235	0.001349	0.711993	-0.168577	-0.669067	-0.130376	-53.881513	-85.342588	29.453210
52219		11.745521	0.307120	0.254438	0.833241	0.921294	1.873648	0.353886	0.905351	1.291452	-0.790283	0.441162	-0.895996	0.117442	0.003826	0.002019	0.716711	-0.172235	-0.664120	-0.124920	-54.121820	-84.265447	29.832106
52220		12.374529	0.278951	0.285416	1.015686	1.038821	2.482592	0.421763	0.977443	1.375777	-0.781982	0.454590	-0.909424	0.123734	0.003636	0.002256	0.721157	-0.174680	-0.659665	-0.119421	-53.967806	-83.297218	29.920318
52221		13.328098	0.609227	0.714633	1.077572	1.700963	3.395677	0.590474	1.112462	1.456373	-0.775391	0.463623	-0.918213	0.133269	0.007043	0.006425	0.726707	-0.177674	-0.653923	-0.112750	-53.612355	-82.090812	29.853704
52222		16.051945	2.585867	1.016886	2.146041	3.941691	5.847304	0.635028	1.265791	1.563529	-0.771240	0.472656	-0.931396	0.160371	0.027082	0.009238	0.732256	-0.179761	-0.648250	-0.106105	-52.942927	-80.937756	29.544818
52223		18.939048	3.013744	-1.535785	5.368409	3.728981	8.281216	0.542248	1.353106	1.704820	-0.751709	0.486328	-0.940186	0.189015	0.031794	-0.016553	0.738523	-0.183064	-0.641350	-0.098697	-52.505755	-79.558246	29.424216
52224		20.506782	2.403744	-1.156836	5.406855	3.684504	9.803998	0.583308	1.468211	1.907915	-0.738525	0.500000	-0.951172	0.204734	0.026028	-0.012998	0.744655	-0.186295	-0.634414	-0.091111	-52.181395	-78.177512	29.434325
52225		20.985996	3.847157	-0.678362	6.031628	5.519568	9.905364	0.697625	1.574927	2.111239	-0.730225	0.518066	-0.968750	0.209377	0.040711	-0.008294	0.751557	-0.189940	-0.626382	-0.082035	-51.927890	-76.578180	29.597077
52226		21.513237	4.644950	-1.026602	7.184521	6.475232	9.983036	0.657370	1.696216	2.331922	-0.708252	0.529541	-0.975342	0.214475	0.048990	-0.011929	0.758373	-0.194062	-0.617988	-0.072809	-51.791047	-74.925740	29.844548
52227		21.377990	6.076645	-2.598242	9.545152	7.514182	8.977813	0.582673	1.731830	2.564459	-0.686279	0.543457	-0.990723	0.212742	0.063578	-0.027645	0.765372	-0.198889	-0.608891	-0.062458	-51.851741	-73.117095	30.316708
52228		21.580618	5.686572	-3.055200	10.334418	7.398459	8.783301	0.526664	1.717680	2.831370	-0.671143	0.561523	-1.003906	0.214700	0.059994	-0.032244	0.771906	-0.204934	-0.599574	-0.051712	-52.239843	-71.231222	31.041343
52229		21.164220	5.076012	-2.500224	9.957778	7.408221	8.238773	0.493522	1.647411	3.008491	-0.654053	0.584229	-1.017334	0.210631	0.053998	-0.026609	0.778046	-0.210975	-0.590371	-0.039962	-52.731664	-69.314382	31.949049
52230		20.135312	2.927173	-1.443416	8.461628	6.091264	7.718415	0.573990	1.584561	3.023409	-0.631836	0.593506	-1.028076	0.200757	0.032354	-0.015936	0.783820	-0.217323	-0.581036	-0.028165	-53.205366	-67.383268	32.812514
52231		19.227607	2.140436	-2.229621	9.021376	5.296924	6.612203	0.432562	1.505235	2.889040	-0.612305	0.609375	-1.037109	0.191765	0.024227	-0.023690	0.788826	-0.222891	-0.572523	-0.017040	-53.577133	-65.621415	33.586247
52232		16.473371	1.181071	-2.484160	8.370287	4.051172	4.059726	-0.234874	1.309397	2.699192	-0.594971	0.623047	-1.043701	0.164387	0.014001	-0.025934	0.792457	-0.231412	-0.564258	-0.008517	-54.355172	-63.928047	34.297512
52233		11.912326	-2.371151	-2.878268	6.313845	-0.151116	0.953691	-0.607438	1.092902	2.533786	-0.584473	0.647705	-1.048096	0.119252	-0.022290	-0.029365	0.794561	-0.240095	-0.557696	-0.001683	-55.323541	-62.505440	35.049268
52234		8.994884	-4.664364	-2.849953	4.728104	-2.746545	-0.819140	-0.555480	0.888635	2.366659	-0.565186	0.665771	-1.048096	0.090366	-0.045656	-0.028773	0.796329	-0.248878	-0.551265	0.005110	-56.277927	-61.096354	35.771040
52235		5.847185	-6.259805	-2.040702	2.444959	-4.571341	-2.694983	-0.542955	0.724563	2.231445	-0.549805	0.679443	-1.050293	0.059092	-0.061997	-0.020451	0.797064	-0.257220	-0.546276	0.010473	-57.275627	-59.933693	36.459337
52236		4.706219	-12.185814	-1.522286	0.090443	-9.706882	-0.940119	0.099192	0.711673	2.048585	-0.547852	0.684082	-1.052734	0.048252	-0.121360	-0.015453	0.798984	-0.262447	-0.540760	0.017999	-57.702609	-58.723386	37.021874
52237		3.909335	-9.225589	-1.556430	0.674341	-7.327142	-2.836191	1.246589	0.754646	1.516181	-0.523193	0.688965	-1.072266	0.039730	-0.091856	-0.016287	0.801901	-0.262943	-0.535939	0.024183	-57.310233	-57.867702	37.072478
52238		4.239941	0.273364	-1.526570	3.212372	1.013341	-6.806757	1.598165	0.625875	1.022639	-0.525146	0.682373	-1.081055	0.042336	0.003073	-0.015375	0.805519	-0.259343	-0.531857	0.031748	-56.425835	-57.179742	37.109632
52239		3.363715	3.251728	-1.380838	3.397252	3.373604	-8.878749	1.199784	0.430195	0.717580	-0.518311	0.682617	-1.089844	0.033490	0.032720	-0.013685	0.807484	-0.258378	-0.529172	0.034472	-55.967483	-56.801792	36.948582
52240		3.143843	2.836380	1.279245	0.868506	3.976963	-8.082170	0.731877	0.168802	0.557292	-0.513916	0.682617	-1.094238	0.031370	0.028404	0.012870	0.808774	-0.256929	-0.527631	0.038446	-55.698971	-56.482003	37.129213
52241		2.777955	1.515523	2.476021	-0.615895	3.170961	-7.423086	0.216653	-0.068518	0.432565	-0.511475	0.678223	-1.094238	0.027738	0.015188	0.024786	0.808239	-0.258543	-0.527658	0.038508	-55.986411	-56.411869	37.280037
52242		1.943470	1.383692	1.720796	-0.356852	2.497944	-8.300821	-0.270576	-0.296951	0.219058	-0.514160	0.689209	-1.087646	0.019394	0.013881	0.017218	0.807064	-0.260161	-0.528619	0.039069	-56.459385	-56.400882	37.661788
52243		1.117269	2.161461	0.999655	0.086638	2.618452	-9.576662	-0.701167	-0.519371	-0.064238	-0.520996	0.691406	-1.087646	0.011154	0.021646	0.009950	0.804310	-0.263509	-0.531376	0.035885	-57.318201	-56.706535	37.975589
52244		0.761706	2.695683	0.434118	0.562228	2.736338	-10.293994	-1.133943	-0.742065	-0.377810	-0.527832	0.693359	-1.070068	0.007652	0.026967	0.004217	0.800896	-0.266931	-0.535041	0.032335	-58.343284	-57.114917	38.423681
52245		0.594253	2.155169	-0.210102	0.959217	1.954721	-10.361255	-1.397228	-0.939483	-0.671927	-0.537354	0.701904	-1.057129	0.006025	0.021516	-0.002223	0.796159	-0.270929	-0.540427	0.025841	-59.638768	-57.836144	38.857092
52246		0.326913	1.004195	-0.652796	0.965669	0.696526	-10.164415	-1.426984	-1.090411	-0.939488	-0.552979	0.701660	-1.041748	0.003352	0.009979	-0.006581	0.791363	-0.273921	-0.546190	0.019726	-60.901131	-58.612207	39.380293
52247		0.158273	0.046126	-1.015888	0.964838	-0.332706	-9.945233	-1.288407	-1.191428	-1.195047	-0.564209	0.701416	-1.030762	0.001646	0.000386	-0.010152	0.785983	-0.275843	-0.553171	0.011934	-62.175528	-59.653203	39.878526
52248		0.088630	-0.154250	-1.034921	0.895969	-0.540058	-9.903590	-1.076618	-1.257906	-1.441490	-0.584473	0.698730	-1.017822	0.000940	-0.001605	-0.010335	0.781061	-0.276000	-0.560127	0.005031	-63.249167	-60.716465	40.405001
52249		0.214697	-0.232155	-0.667831	0.592458	-0.416311	-9.665524	-0.836112	-1.314016	-1.675330	-0.591309	0.698486	-1.002441	0.002171	-0.002368	-0.006654	0.775750	-0.274865	-0.568024	-0.003294	-64.282423	-62.018504	40.892491
52250		0.481277	-0.081311	0.037187	0.107335	0.092181	-9.344080	-0.585426	-1.344406	-1.903753	-0.608643	0.682373	-0.995850	0.004802	-0.000858	0.000407	0.771043	-0.271736	-0.575797	-0.010488	-65.061981	-63.332823	41.392400
52251		0.750896	0.130781	0.727266	-0.353530	0.643507	-9.057205	-0.356119	-1.364512	-2.108673	-0.623779	0.668701	-0.982666	0.007472	0.001242	0.007321	0.765972	-0.267460	-0.584287	-0.019010	-65.801181	-64.858736	41.844745
52252		1.190489	0.341691	1.524950	-0.869271	1.279349	-8.601475	-0.130703	-1.357435	-2.305375	-0.639160	0.659668	-0.967285	0.011839	0.003290	0.015328	0.761547	-0.261335	-0.592497	-0.026399	-66.259790	-66.380572	42.266038
52253		1.584628	0.378071	1.985315	-1.181873	1.590368	-8.178931	0.093488	-1.336518	-2.493488	-0.660889	0.639160	-0.962646	0.015759	0.003575	0.019960	0.756855	-0.253907	-0.601239	-0.034838	-66.614753	-68.093216	42.608844
52254		2.226413	0.305896	2.430215	-1.476647	1.838115	-7.489591	0.338359	-1.313272	-2.648718	-0.677979	0.618896	-0.956055	0.022141	0.002724	0.024453	0.752795	-0.244870	-0.609557	-0.042168	-66.651068	-69.783709	42.855533
52255		2.773941	-0.060504	2.379419	-1.493552	1.561511	-6.864777	0.500316	-1.300767	-2.769973	-0.693115	0.598389	-0.945068	0.027571	-0.001048	0.023972	0.748401	-0.234598	-0.618347	-0.050071	-66.589381	-71.629004	43.058470
52256		3.444790	0.272655	3.338119	-2.164999	2.314473	-6.201803	0.604811	-1.300016	-2.863175	-0.708008	0.575928	-0.936279	0.034263	0.002134	0.033611	0.744282	-0.223783	-0.626636	-0.057378	-66.330207	-73.429391	43.150111
52257		4.148075	0.179280	4.517199	-3.233193	2.734158	-5.372826	0.460322	-1.325154	-2.965961	-0.722656	0.551270	-0.927246	0.041200	0.001076	0.045449	0.739434	-0.212533	-0.635414	-0.065690	-66.127487	-75.378988	43.247020
52258		4.640802	-0.123575	5.458431	-4.232264	2.799860	-4.753759	0.185157	-1.349951	-3.059894	-0.742188	0.530762	-0.916260	0.046012	-0.001992	0.054894	0.734238	-0.202546	-0.643623	-0.074965	-66.003010	-77.294174	43.228147
52259		5.167919	-0.733132	6.217631	-5.210963	2.487775	-4.106767	-0.320267	-1.417097	-3.082780	-0.754639	0.503906	-0.905273	0.051117	-0.008022	0.062552	0.728040	-0.193073	-0.652204	-0.085497	-66.228579	-79.319616	43.407593
52260		6.216114	-4.337396	5.528122	-5.961110	-1.044940	-2.644736	-0.813471	-1.414581	-3.128966	-0.765137	0.485840	-0.887451	0.061081	-0.044109	0.055894	0.721195	-0.186410	-0.659920	-0.098155	-66.869911	-81.285832	43.585347
52261		8.044128	-7.616543	5.458564	-7.197074	-4.030659	-0.622650	-1.074714	-1.363952	-3.199226	-0.784668	0.463135	-0.876465	0.078836	-0.077138	0.055540	0.714201	-0.178686	-0.667563	-0.111117	-67.230498	-83.343682	43.540076
52262		10.445458	-9.730072	4.640578	-7.411280	-6.249055	1.646653	-1.181732	-1.281205	-3.152885	-0.786377	0.451904	-0.858887	0.102604	-0.098649	0.047647	0.707006	-0.173070	-0.674185	-0.125153	-67.775023	-85.292557	43.406856
52263		12.543274	-13.240485	3.448970	-8.003249	-10.039874	3.590896	-1.094133	-1.188119	-2.981590	-0.792236	0.425049	-0.841064	0.123232	-0.134059	0.035957	0.700432	-0.166170	-0.680360	-0.137455	-67.447820	-87.160894	42.644796
52264		14.396370	-16.805034	2.885210	-9.341504	-13.658616	5.158305	-0.803343	-1.034425	-2.682522	-0.804932	0.406982	-0.830078	0.141540	-0.169840	0.030268	0.694328	-0.160555	-0.685579	-0.148703	-66.196573	-88.806275	40.932392
52265		15.369047	-18.751161	2.792971	-10.418907	-15.680019	5.716894	-0.394993	-0.815793	-2.280857	-0.808594	0.386963	-0.827881	0.151423	-0.189191	0.028923	0.689772	-0.154280	-0.689802	-0.156798	77.973864	-89.795917	-103.387942
52266		15.390319	-17.745648	3.445644	-10.852017	-14.703802	5.341733	-0.120324	-0.609157	-1.855316	-0.810791	0.380371	-0.825684	0.152142	-0.178852	0.035029	0.686095	-0.148770	-0.693202	-0.163130	103.590100	-88.701718	-129.074084
52267		13.873408	-15.586985	5.100429	-11.577462	-12.156026	3.589744	-0.096371	-0.458086	-1.381746	-0.812256	0.364746	-0.816650	0.137536	-0.156798	0.051396	0.683514	-0.145482	-0.695341	-0.167766	105.156505	-87.955680	-130.754913
52268		11.920777	-13.680082	6.152612	-11.794264	-10.006617	1.494999	-0.392262	-0.431697	-0.902650	-0.812256	0.360352	-0.816650	0.118456	-0.137215	0.062051	0.680965	-0.144048	-0.697129	-0.171894	107.221979	-87.390925	-133.046959
52269		10.926546	-12.956755	5.241978	-10.766376	-9.662559	0.456803	-0.861166	-0.482375	-0.494569	-0.814453	0.357910	-0.810059	0.108817	-0.129609	0.053241	0.678549	-0.147003	-0.697813	-0.176122	110.275060	-87.170714	-136.698903
52270		20.076714	-39.360484	-4.164373	-14.936616	-37.520923	8.589762	-2.159948	-0.874730	0.474311	-0.810547	0.371338	-0.799072	0.201868	-0.393540	-0.036512	0.674284	-0.156750	-0.698476	-0.181388	120.638612	-87.201889	-148.313891
52271		22.381386	-22.858925	11.085947	-21.333677	-15.412914	11.486783	-0.075861	0.251206	0.592416	-0.812500	0.366943	-0.805664	0.224629	-0.227883	0.110664	0.675644	-0.162101	-0.696165	-0.180504	124.092503	-87.766390	-152.137676
52272		6.259679	18.528282	3.124293	5.631284	17.733543	-3.026777	1.206222	0.347018	0.016190	-0.807617	0.358154	-0.814453	0.062637	0.185095	0.032251	0.677836	-0.157771	-0.696050	-0.176523	120.489640	-87.881665	-147.840564
52273		22.271411	24.515681	9.309866	2.507202	25.637009	12.994408	-0.337804	0.295467	-0.057625	-0.810059	0.362549	-0.816650	0.222922	0.245249	0.092355	0.678930	-0.160854	-0.693866	-0.178131	116.972586	-88.149387	-144.713760
52274		37.447919	18.014761	15.782565	-6.389126	22.604797	27.925333	-0.567446	0.562583	0.298100	-0.807861	0.366943	-0.821045	0.374651	0.181151	0.156259	0.680690	-0.163317	-0.691199	-0.179533	108.914669	-88.434163	-136.977522
52275		22.886898	16.878636	2.074010	5.809440	15.493969	13.407545	-1.156913	0.232890	0.599124	-0.803711	0.373779	-0.816650	0.228385	0.169586	0.019495	0.682310	-0.168474	-0.688260	-0.179912	103.218888	-88.955302	-131.742832
52276		3.422830	-0.272556	2.120767	-2.024145	0.743921	-6.401385	-1.064959	0.158138	0.524719	-0.803711	0.375977	-0.814453	0.034252	-0.002523	0.021194	0.682423	-0.173772	-0.686302	-0.181911	100.919502	-89.269452	-130.053383
52277		9.162851	-11.666580	1.555359	-7.046240	-9.514988	-0.740722	-0.518806	0.121742	0.620338	-0.799805	0.387207	-0.816895	0.091999	-0.116340	0.015800	0.684304	-0.176178	-0.684428	-0.179577	77.525260	-89.724434	-106.664609
52278		6.103436	-9.564909	-2.201117	-2.737825	-9.442705	-3.736193	-0.029140	0.019755	0.428804	-0.802246	0.391602	-0.814697	0.061237	-0.095521	-0.022003	0.684735	-0.177732	-0.683949	-0.178220	17.275353	-89.925037	-46.431193
52279		6.769127	-7.653279	-2.532779	-1.455243	-7.914496	-3.026553	0.227262	-0.095363	0.276755	-0.802490	0.398193	-0.819092	0.067809	-0.076410	-0.025382	0.686008	-0.177425	-0.683657	-0.174719	-63.435221	-89.709606	34.598045
52280		10.713671	-2.745478	-0.527318	-0.809596	-2.620164	0.914740	0.572537	-0.091411	0.179626	-0.799805	0.387207	-0.816895	0.107164	-0.027343	-0.005303	0.686363	-0.176159	-0.684302	-0.172058	-77.577234	-89.628104	49.068384
52281		11.623906	1.430597	0.919587	-0.056041	1.776232	1.799774	0.465272	-0.124503	0.117658	-0.799805	0.391602	-0.821289	0.116225	0.014353	0.009302	0.687411	-0.175034	-0.684397	-0.168612	-78.924832	-89.425146	50.797776
52282		10.793125	1.217182	0.336609	0.337729	1.325980	0.967575	0.125586	-0.197784	0.100661	-0.804443	0.393799	-0.814697	0.107922	0.012224	0.003480	0.686935	-0.175119	-0.685088	-0.167657	-90.127527	-89.377066	62.073090
52283		11.062082	-0.730160	-1.051064	0.662126	-1.008824	1.257603	-0.013221	-0.218326	0.095194	-0.802002	0.387207	-0.816895	0.110636	-0.007250	-0.010389	0.687209	-0.175482	-0.685167	-0.165820	-92.035898	-89.199836	64.104257
52284		10.274800	-1.327517	-0.385868	-0.224973	-1.216203	0.480656	0.070412	-0.200599	0.076664	-0.815674	0.393555	-0.814697	0.102757	-0.013234	-0.003760	0.686653	-0.175675	-0.685841	-0.165133	-99.539810	-89.143286	71.649353
52285		10.150148	-1.718862	-0.008742	-0.728896	-1.363123	0.365262	0.117068	-0.194188	0.045488	-0.813477	0.393555	-0.812500	0.101505	-0.017166	0.000001	0.686991	-0.175533	-0.686003	-0.163189	-99.283314	-88.996549	71.566641
52286		9.972360	-1.504429	-0.131122	-0.536714	-1.224288	0.184387	0.062384	-0.182432	-0.032627	-0.811279	0.391357	-0.814697	0.099722	-0.015060	-0.001225	0.686400	-0.175362	-0.686702	-0.162920	-105.232699	-88.991558	77.552747
52287		10.286851	-2.036936	-0.565579	-0.390663	-1.879144	0.512256	-0.062883	-0.162708	-0.101799	-0.808838	0.391357	-0.812500	0.102863	-0.020423	-0.005566	0.686510	-0.175403	-0.686747	-0.162226	-104.844735	-88.932056	77.219192
52288		10.026012	-1.855384	-0.743520	-0.171354	-1.809813	0.247699	-0.121024	-0.140843	-0.160765	-0.820313	0.393311	-0.812500	0.100250	-0.018639	-0.007353	0.685796	-0.175387	-0.687266	-0.163062	-110.647998	-88.994281	82.954110
52289		9.864604	-1.849231	-0.006239	-0.820063	-1.462922	0.082636	-0.111320	-0.109977	-0.193310	-0.817871	0.388916	-0.810303	0.098628	-0.018588	0.000002	0.685889	-0.175403	-0.687174	-0.163039	-109.779670	-88.992714	82.086398
52290		9.741182	-0.758226	0.062251	-0.394415	-0.480308	-0.061631	-0.128104	-0.108702	-0.238847	-0.820068	0.391113	-0.810303	0.097402	-0.007698	0.000680	0.685215	-0.175117	-0.687644	-0.164195	-116.421196	-89.093424	88.655499
52291		9.969227	-0.365443	0.068442	-0.217169	-0.131387	0.160238	-0.162811	-0.098041	-0.263075	-0.820068	0.386719	-0.810303	0.099687	-0.003785	0.000736	0.685206	-0.175113	-0.687542	-0.164665	-116.509250	-89.132476	88.704787
52292		9.891443	-0.149517	-0.142913	0.049130	-0.059613	0.080612	-0.240746	-0.093049	-0.286374	-0.824463	0.384521	-0.805908	0.098913	-0.001638	-0.001381	0.684445	-0.175036	-0.687905	-0.166384	-125.766035	-89.244983	97.824604
52293		9.855183	-0.342504	-0.055830	-0.120253	-0.200783	0.045822	-0.322059	-0.072393	-0.311560	-0.828857	0.382080	-0.810303	0.098547	-0.003579	-0.000517	0.684309	-0.175384	-0.687649	-0.167631	-127.345419	-89.316004	99.270957
52294		9.758124	-0.175181	0.104480	-0.201576	-0.002389	-0.054517	-0.302354	-0.026818	-0.298459	-0.833252	0.382080	-0.805908	0.097578	-0.001896	0.001061	0.683708	-0.175421	-0.687740	-0.169660	-139.115458	-89.430253	110.868509
52295		9.774825	0.234104	0.017885	0.073036	0.304747	-0.040069	-0.265897	0.006061	-0.257481	-0.833496	0.386475	-0.805908	0.097751	0.002215	0.000173	0.683904	-0.175688	-0.687236	-0.170633	-137.570331	-89.509386	109.219871
52296		10.066375	-0.123067	0.048370	-0.132584	-0.013542	0.253672	-0.230273	0.037564	-0.199080	-0.831055	0.382080	-0.808105	0.100663	-0.001330	0.000466	0.683668	-0.175766	-0.687078	-0.172130	-147.401646	-89.596090	118.919607
52297		9.882259	0.180797	-0.171742	0.220855	0.141782	0.069233	-0.163198	0.056756	-0.113635	-0.837891	0.381836	-0.801514	0.098823	0.001750	-0.001747	0.684224	-0.176109	-0.686386	-0.172330	-134.025528	-89.647196	105.498149
52298		9.892448	1.197512	-0.927536	1.371335	0.663998	0.078391	-0.103456	0.038521	-0.051078	-0.831299	0.388672	-0.803711	0.098926	0.011945	-0.009301	0.684229	-0.176262	-0.686201	-0.172885	-134.580125	-89.683160	105.993547
52299		10.272363	0.599888	-0.031409	0.318560	0.575377	0.456185	0.008028	0.060297	0.009804	-0.837891	0.384277	-0.810303	0.102723	0.006004	-0.000345	0.685012	-0.176435	-0.685565	-0.172135	-111.604082	-89.648684	83.065772
52300		10.024796	0.799939	-0.158617	0.532506	0.689081	0.207453	-0.013928	0.050949	0.053765	-0.835938	0.390869	-0.810303	0.100245	0.008026	-0.001612	0.685229	-0.176631	-0.685323	-0.172035	-105.449140	-89.627576	76.902798
52301		10.071402	0.210192	-0.304281	0.403648	0.114759	0.256761	-0.009400	0.069076	0.095726	-0.835938	0.390869	-0.810303	0.100712	0.002150	-0.003078	0.686075	-0.177106	-0.684592	-0.171079	-90.434617	-89.497151	61.928339
52302		10.013902	0.185160	-0.533518	0.604780	-0.011246	0.198869	0.001848	0.079435	0.114136	-0.840332	0.390869	-0.812500	0.100136	0.001909	-0.005375	0.686454	-0.177429	-0.684212	-0.170744	-85.711295	-89.428594	57.205941
52303		10.171629	-0.964009	-0.210640	-0.195241	-0.850086	0.369401	0.061693	0.116932	0.150256	-0.840576	0.395264	-0.814697	0.101722	-0.009563	-0.002169	0.687533	-0.177819	-0.683348	-0.169454	-77.638655	-89.242156	49.208271
52304		9.921196	-0.410153	-0.110434	-0.001867	-0.310644	0.112735	0.104681	0.151352	0.157439	-0.838379	0.395264	-0.814697	0.099214	-0.004023	-0.001182	0.688284	-0.177876	-0.682767	-0.168681	-73.221374	-89.131134	44.850604
52305		10.006145	-0.550878	0.145560	-0.255662	-0.297730	0.201978	0.124981	0.186081	0.162791	-0.843018	0.401855	-0.819336	0.100067	-0.005428	0.001359	0.689627	-0.178068	-0.681714	-0.167247	-67.955487	-88.913739	39.688014
52306		9.963655	-0.424998	0.222714	-0.238374	-0.146365	0.158589	0.216627	0.214749	0.165865	-0.838623	0.404297	-0.825928	0.099642	-0.004170	0.002116	0.690699	-0.177715	-0.680997	-0.166119	-64.153060	-88.774938	36.009033
52307		10.035051	0.102952	0.002195	0.247737	0.228065	0.217237	0.226829	0.233624	0.165827	-0.833984	0.399902	-0.821289	0.100350	0.001113	-0.000094	0.692272	-0.177522	-0.679867	-0.164395	-60.613585	-88.536521	32.628948
52308		10.165049	0.190449	-0.050626	0.368920	0.286638	0.343528	0.255644	0.266690	0.188167	-0.838623	0.402100	-0.827881	0.101648	0.002001	-0.000639	0.693568	-0.177065	-0.678977	-0.163102	-57.660557	-88.363542	29.821446
52309		10.174803	0.174983	-0.245338	0.582392	0.195253	0.348022	0.297786	0.309742	0.211044	-0.834229	0.406494	-0.830322	0.101742	0.001861	-0.002608	0.695468	-0.176700	-0.677610	-0.161075	-55.005390	-88.077219	27.364907
52310		10.164476	-0.308647	-0.054836	0.232013	-0.138980	0.353015	0.315258	0.374719	0.267030	-0.827637	0.408936	-0.834473	0.101647	-0.002950	-0.000744	0.697238	-0.176214	-0.676313	-0.159400	-52.515690	-87.824814	25.054442
52311		9.981825	0.753565	-0.656370	1.309172	0.539829	0.118574	0.250497	0.410851	0.320457	-0.830078	0.417725	-0.839111	0.099792	0.007704	-0.006759	0.699484	-0.176308	-0.674463	-0.157281	-50.896362	-87.452720	23.602134
52312		10.361885	0.414992	-0.689651	1.255520	0.246773	0.501328	0.192616	0.452475	0.437920	-0.828125	0.422363	-0.845703	0.103593	0.004384	-0.007127	0.701530	-0.176762	-0.672632	-0.155489	-49.951968	-87.092089	22.767236
52313		10.167946	0.813401	-0.813755	1.614962	0.573417	0.275600	0.134921	0.479997	0.566037	-0.825928	0.426758	-0.852295	0.101636	0.008427	-0.008376	0.704037	-0.178047	-0.670235	-0.153022	-50.059318	-86.591622	22.969839
52314		10.468658	0.727165	-0.874424	1.720381	0.511776	0.563433	0.067690	0.503843	0.691898	-0.821777	0.435791	-0.850098	0.104638	0.007637	-0.009005	0.706318	-0.179749	-0.667881	-0.150797	-50.513403	-86.100122	23.463786
52315		10.553034	0.126233	-0.689583	1.385407	0.115300	0.671797	0.104457	0.579902	0.804456	-0.817383	0.437988	-0.858887	0.105504	0.001690	-0.007201	0.709235	-0.181877	-0.664889	-0.147747	-51.071700	-85.464592	24.093290
52316		11.150818	-0.594605	-0.459346	1.003071	-0.350293	1.312737	0.235411	0.690752	0.908280	-0.811279	0.453857	-0.867676	0.111517	-0.005434	-0.004985	0.712413	-0.183556	-0.661766	-0.144360	-51.158193	-84.808929	24.315541
52317		11.345201	-0.424247	-0.228363	1.025293	-0.022074	1.496256	0.423244	0.807550	0.989302	-0.811523	0.464844	-0.870117	0.113461	-0.003676	-0.002750	0.716412	-0.185034	-0.657990	-0.139874	-51.004094	-84.014009	24.403012
52318		11.246725	0.053193	0.162944	1.016045	0.637139	1.371137	0.503702	0.860339	1.072502	-0.793701	0.469727	-0.883057	0.112468	0.001132	0.001148	0.720449	-0.186160	-0.654240	-0.135158	-50.764237	-83.224094	24.452143
52319		11.359400	-0.107866	0.423551	0.878880	0.690127	1.499958	0.484690	0.898122	1.182766	-0.789551	0.476563	-0.887451	0.113615	-0.000416	0.003724	0.724824	-0.187975	-0.649941	-0.129892	-50.818204	-82.315300	24.780444
52320		11.750191	0.282368	0.392256	1.279464	1.128623	1.822899	0.410666	0.933371	1.304234	-0.778809	0.492188	-0.898682	0.117497	0.003583	0.003381	0.729074	-0.190121	-0.645567	-0.124693	-50.977919	-81.395925	25.179551
52321		13.095206	0.333920	-0.080205	2.093027	1.157799	3.066635	0.451970	1.000060	1.387454	-0.770264	0.499268	-0.914063	0.130919	0.004250	-0.001448	0.733756	-0.192588	-0.640607	-0.118888	-51.120809	-80.364118	25.581989
52322		15.338485	0.100424	0.370980	2.147249	1.425980	5.312333	0.604893	1.075339	1.486519	-0.763916	0.510498	-0.916260	0.153389	0.002135	0.002890	0.738641	-0.194491	-0.635549	-0.112516	-51.084021	-79.312163	25.896796
52323		18.385529	1.609351	0.507094	3.443204	3.246017	8.033090	0.606243	1.210698	1.589470	-0.752686	0.515137	-0.936035	0.183746	0.017541	0.004010	0.744085	-0.196858	-0.629612	-0.105704	-50.951372	-78.121599	26.108776
52324		19.226171	3.853515	-1.007326	6.179020	4.883495	8.172490	0.568295	1.286452	1.749814	-0.744385	0.533203	-0.947021	0.191845	0.040246	-0.011195	0.749581	-0.199569	-0.623353	-0.098654	-50.896367	-76.876443	26.386031
52325		19.209268	3.438077	-0.039381	5.491143	5.141787	8.193138	0.668225	1.390469	1.987651	-0.724854	0.549072	-0.962402	0.191730	0.036291	-0.001609	0.755613	-0.202698	-0.616279	-0.090347	-50.938224	-75.457856	26.823080
52326		20.643248	5.570694	0.409039	6.608797	7.671707	9.023123	0.773957	1.547960	2.210642	-0.704834	0.556152	-0.971191	0.205825	0.057972	0.002717	0.762099	-0.205875	-0.608468	-0.081160	-50.897478	-73.913271	27.240679
52327		20.614820	6.275455	-0.395308	7.987652	8.269221	8.416288	0.782797	1.691224	2.403450	-0.689697	0.572266	-0.984375	0.205332	0.065245	-0.005440	0.769018	-0.209426	-0.599740	-0.071164	-50.826152	-72.218628	27.656354
52328		20.807496	6.635758	-1.148102	9.257693	8.643053	8.015903	0.703299	1.721161	2.653723	-0.674072	0.579102	-0.997559	0.207062	0.069154	-0.013026	0.775766	-0.214048	-0.590504	-0.060633	-50.995441	-70.414421	28.260484
52329		21.749131	5.185761	-1.580353	9.851453	7.692603	8.792192	0.631384	1.691578	2.873278	-0.652832	0.606201	-1.008545	0.216573	0.055027	-0.017468	0.782227	-0.219241	-0.581061	-0.049217	-51.344435	-68.532249	29.064174
52330		21.074165	4.031096	-1.887590	9.976531	6.829710	8.011772	0.545535	1.616362	3.038677	-0.628174	0.613525	-1.021729	0.209935	0.043559	-0.020459	0.788157	-0.225513	-0.571442	-0.037501	-51.892106	-66.590143	29.994865
52331		19.537772	2.895839	-2.079228	9.666664	5.846510	6.520375	0.412578	1.517542	3.060246	-0.604248	0.629639	-1.028320	0.194739	0.031986	-0.022208	0.793375	-0.231932	-0.562224	-0.025863	-52.484076	-64.703032	30.949254
52332		18.910451	0.646219	-3.060458	10.010406	3.706939	6.106054	0.143299	1.439507	2.972806	-0.593506	0.647461	-1.032715	0.188754	0.009292	-0.031958	0.797869	-0.239510	-0.552996	-0.015323	-53.157788	-62.845233	31.791790
52333		15.313363	-0.453774	-3.549129	9.044006	1.999084	2.895310	-0.287375	1.289394	2.785514	-0.572021	0.667969	-1.043701	0.152944	-0.002459	-0.036473	0.801094	-0.247924	-0.544736	-0.006677	-53.973030	-61.173110	32.548054
52334		11.463013	-2.799627	-4.102056	7.529530	-1.037157	0.101371	-0.591128	1.055209	2.626581	-0.559082	0.683594	-1.039551	0.114767	-0.026612	-0.041546	0.803245	-0.257392	-0.537164	0.000937	-54.984398	-59.594746	33.321811
52335		9.240748	-4.957115	-3.846587	5.922317	-3.231305	-0.910950	-0.634122	0.802156	2.528666	-0.539551	0.701904	-1.041748	0.092871	-0.048521	-0.038683	0.804315	-0.266671	-0.530945	0.007840	-56.089588	-58.202164	34.148891
52336		6.947535	-8.172292	-2.782685	3.271042	-6.034037	-1.113032	-0.445904	0.675552	2.400086	-0.533203	0.715332	-1.048340	0.070356	-0.080944	-0.027882	0.805361	-0.274848	-0.524990	0.015417	-57.028164	-56.839161	34.958660
52337		5.987603	-11.748219	-3.482335	2.645790	-9.505575	-0.398051	0.524306	0.637251	2.171410	-0.515381	0.718018	-1.057129	0.061034	-0.116732	-0.035323	0.807308	-0.278847	-0.519554	0.023677	-57.319128	-55.657127	35.547746
52338		5.365583	-6.684892	-2.239781	2.793053	-4.793386	-2.905294	1.785077	0.628651	1.649173	-0.501709	0.716064	-1.074707	0.054131	-0.066199	-0.023160	0.811176	-0.275986	-0.514453	0.034103	-56.602621	-54.666504	35.921006
52339		4.960868	2.093656	-3.518726	5.805330	2.036265	-7.935151	2.067838	0.438623	1.228569	-0.499268	0.709473	-1.092041	0.049400	0.021603	-0.035075	0.814652	-0.271663	-0.510637	0.042328	-55.742429	-53.996858	36.107363
52340		3.967643	5.225424	-1.820051	4.489679	5.118533	-9.766789	1.758215	0.262076	0.870599	-0.494385	0.698730	-1.100830	0.039425	0.052584	-0.017791	0.817489	-0.266774	-0.507978	0.050016	-54.953396	-53.499045	36.378227
52341		3.074155	4.780627	0.875216	1.611034	5.502849	-9.372609	1.244453	-0.000901	0.661266	-0.496582	0.700684	-1.103027	0.030583	0.047852	0.009050	0.818730	-0.264140	-0.506902	0.054411	-54.601285	-53.253338	36.620761
52342		1.968671	3.800171	1.772578	0.082150	4.619369	-9.475717	0.747991	-0.264665	0.436122	-0.494141	0.691895	-1.107422	0.019580	0.037978	0.017894	0.818925	-0.262116	-0.507189	0.058451	-54.531530	-53.135594	37.068991
52343		0.915119	4.180346	1.264211	0.061034	4.376179	-10.682322	0.309852	-0.514543	0.115582	-0.502930	0.691895	-1.103027	0.009094	0.041789	0.012730	0.817775	-0.261494	-0.509273	0.059209	-54.777827	-53.319165	37.443803
52344		-0.094109	4.794108	0.614386	0.241481	4.297050	-12.014240	-0.103385	-0.796179	-0.254364	-0.509766	0.693848	-1.098633	-0.000904	0.047945	0.006115	0.815685	-0.261039	-0.512875	0.058956	-55.229311	-53.698167	37.931791
52345		-0.547650	4.905052	-0.090934	0.694864	3.971817	-12.660389	-0.483755	-1.044683	-0.626835	-0.521240	0.697998	-1.094238	-0.005317	0.049065	-0.001056	0.812335	-0.261355	-0.518375	0.055616	-55.945797	-54.401566	38.368192
52346		-0.663716	3.889636	-0.554425	0.909683	2.892675	-12.397605	-0.780535	-1.253774	-0.959483	-0.527832	0.693359	-1.078857	-0.006415	0.038905	-0.005737	0.808305	-0.261687	-0.524906	0.051342	-56.809935	-55.255136	38.878292
52347		-0.614286	2.366111	-0.904184	0.999637	1.477571	-11.712858	-0.947710	-1.453826	-1.268507	-0.548096	0.690674	-1.065918	-0.005926	0.023656	-0.009198	0.803317	-0.261900	-0.532987	0.044896	-57.839266	-56.387186	39.391661
52348		-0.497912	1.366634	-1.136732	1.087286	0.576609	-11.188525	-0.939790	-1.594746	-1.571446	-0.563721	0.687988	-1.046143	-0.004781	0.013651	-0.011470	0.798134	-0.261117	-0.541610	0.038175	-58.847861	-57.631216	39.952193
52349		-0.132520	0.959710	-0.968738	1.027538	0.417745	-10.616806	-0.819945	-1.681994	-1.863139	-0.585938	0.680908	-1.035156	-0.001154	0.009569	-0.009737	0.792569	-0.259078	-0.551192	0.030014	-59.813694	-59.110948	40.465875
52350		0.540619	0.949678	-0.683034	1.047414	0.741643	-9.928767	-0.658385	-1.735005	-2.127025	-0.601318	0.669434	-1.019775	0.005566	0.009416	-0.006814	0.787180	-0.255546	-0.560856	0.022024	-60.634963	-60.660545	40.979202
52351		1.447917	1.456393	-0.030083	0.923992	1.711461	-9.152869	-0.459838	-1.753003	-2.364892	-0.621094	0.657959	-1.006592	0.014652	0.014391	-0.000206	0.781604	-0.250582	-0.571082	0.012980	-61.346022	-62.401544	41.421058
52352		2.249581	1.809384	0.898948	0.436728	2.596568	-8.326328	-0.279048	-1.737869	-2.581657	-0.649658	0.639648	-0.995605	0.022648	0.017815	0.009161	0.776370	-0.244165	-0.581047	0.004279	-61.847981	-64.174480	41.804014
52353		2.920994	1.728157	1.825846	-0.254678	3.028163	-7.442654	-0.036935	-1.684210	-2.770917	-0.666992	0.623535	-0.982422	0.029291	0.016880	0.018502	0.771135	-0.236172	-0.591225	-0.005114	-62.137914	-66.098614	42.051048
52354		3.515846	1.713595	2.562553	-0.822806	3.389804	-6.698975	0.173732	-1.651419	-2.925289	-0.681885	0.603271	-0.973633	0.035191	0.016599	0.025931	0.766280	-0.226872	-0.600958	-0.013919	-62.164784	-68.020788	42.188375
52355		4.230111	1.592123	3.115418	-1.265419	3.574989	-5.843973	0.222039	-1.621269	-3.071275	-0.705566	0.576172	-0.962402	0.042284	0.015237	0.031514	0.761090	-0.216662	-0.610937	-0.023573	-62.061422	-70.080216	42.198373
52356		5.024305	1.349174	3.757793	-1.847608	3.656088	-4.872909	0.124873	-1.607356	-3.200735	-0.718506	0.560303	-0.947021	0.050146	0.012665	0.037989	0.755822	-0.206572	-0.620428	-0.033618	-61.844859	-72.130027	42.045196
52357		5.732122	0.497754	3.939621	-2.263825	2.948109	-3.913057	-0.142346	-1.602966	-3.317331	-0.732910	0.526611	-0.927246	0.057075	0.004058	0.039851	0.749812	-0.196601	-0.630156	-0.045102	-61.632257	-74.308242	41.762965
52358		6.170889	-0.709945	3.820992	-2.608713	1.724660	-3.224863	-0.423125	-1.608832	-3.403352	-0.752441	0.503906	-0.911621	0.061267	-0.008063	0.038720	0.743431	-0.187799	-0.639316	-0.057596	-61.416130	-76.460137	41.289187
52359		6.649558	-1.893968	3.426482	-2.737275	0.396675	-2.609323	-0.697788	-1.624008	-3.477351	-0.765137	0.485840	-0.896240	0.065873	-0.019968	0.034870	0.736288	-0.179059	-0.648651	-0.071200	-61.148352	-78.720940	40.662728
52360		7.852211	-2.817100	3.741823	-3.387585	-0.370749	-1.329044	-0.905747	-1.619359	-3.557849	-0.780273	0.465576	-0.880859	0.077699	-0.029386	0.038181	0.728817	-0.171402	-0.657337	-0.085762	-60.659650	-80.951808	39.639198
52361		9.686288	-4.876249	3.891093	-4.317570	-2.265077	0.625437	-1.050199	-1.600098	-3.601185	-0.790283	0.436523	-0.861084	0.095650	-0.050284	0.039941	0.720860	-0.163308	-0.665976	-0.100832	-59.485023	-83.257812	37.917959
52362		11.398228	-8.045084	3.560843	-5.366581	-5.447255	2.386626	-1.036232	-1.523552	-3.564266	-0.802979	0.411621	-0.849854	0.112249	-0.082273	0.036891	0.713006	-0.155917	-0.673714	-0.115856	-56.643650	-85.452020	34.466759
52363		12.874114	-11.981264	2.839790	-6.502224	-9.586665	3.720109	-0.881642	-1.421582	-3.424073	-0.815674	0.391357	-0.830078	0.126458	-0.121861	0.029836	0.705356	-0.147660	-0.681049	-0.129775	-47.662389	-87.554577	25.030268
52364		14.442871	-14.182598	2.053486	-7.010685	-12.188016	4.891709	-0.717561	-1.278800	-3.198678	-0.814697	0.369141	-0.816650	0.141999	-0.144033	0.021962	0.698294	-0.140112	-0.687343	-0.142527	0.907008	-89.091340	-23.964873
52365		16.008715	-15.376497	1.620977	-7.485659	-13.783221	5.976265	-0.460875	-1.067942	-2.890479	-0.818115	0.340088	-0.810059	0.157752	-0.156017	0.017414	0.692078	-0.132266	-0.692807	-0.153468	80.311922	-88.280954	-103.627654
52366		15.869990	-15.587668	2.364610	-8.604016	-13.974301	5.388757	-0.195381	-0.868992	-2.502292	-0.828857	0.324463	-0.798828	0.156628	-0.157821	0.024483	0.686964	-0.124936	-0.697251	-0.162208	93.710031	-86.866581	-117.148640
52367		14.029485	-14.840527	3.488295	-9.564129	-12.977893	3.199643	-0.147747	-0.759837	-2.033877	-0.828613	0.315430	-0.790039	0.138642	-0.149795	0.035522	0.682413	-0.119196	-0.700993	-0.169449	98.505113	-85.657675	-122.076241
52368		11.852891	-13.903780	3.983900	-9.757931	-11.919832	0.787721	-0.329983	-0.765650	-1.581453	-0.830078	0.295410	-0.787842	0.117271	-0.139902	0.040520	0.678173	-0.115429	-0.704234	-0.175531	101.556639	-84.690039	-125.328184
52369		10.424459	-12.545694	3.852398	-9.211769	-10.660876	-0.735912	-0.624807	-0.821484	-1.215309	-0.832031	0.293213	-0.779053	0.103320	-0.125965	0.039343	0.673716	-0.114574	-0.707089	-0.181673	104.334926	-83.924848	-128.553072
52370		19.164582	-21.138351	-5.581302	-5.100120	-23.044847	7.162290	-1.821860	-1.167993	-0.684869	-0.830078	0.297607	-0.768066	0.191233	-0.212529	-0.052763	0.667885	-0.119350	-0.709709	-0.189733	108.074303	-83.362279	-133.365748
52371		36.159694	-56.606095	0.325408	-28.024412	-53.099677	20.296322	-2.794449	-0.974785	1.378101	-0.826172	0.313232	-0.763672	0.365438	-0.563416	0.012914	0.663741	-0.135704	-0.709227	-0.195011	113.943415	-83.940924	-141.029752
52372		42.178077	5.211538	28.136721	-25.780582	14.596710	31.660998	0.425470	1.653365	0.762391	-0.821289	0.304443	-0.785645	0.423887	0.053135	0.277981	0.670614	-0.135383	-0.703600	-0.192079	106.788474	-84.683211	-133.594620
52373		15.355430	52.297875	15.302879	8.739540	52.437572	9.653711	1.114972	1.128964	0.215951	-0.819336	0.313477	-0.792236	0.153862	0.522284	0.155074	0.675519	-0.132676	-0.700379	-0.188523	100.855648	-85.045176	-127.136107
52374		15.849419	13.116956	13.727480	-7.130669	16.821729	6.856612	-1.527219	0.624016	1.077858	-0.813232	0.324707	-0.787842	0.158206	0.133063	0.135770	0.677682	-0.141021	-0.696076	-0.190628	96.772208	-85.711999	-123.917249
52375		8.338085	-1.289891	10.289555	-10.022130	3.152547	-1.647312	-1.751265	0.190227	1.390918	-0.813721	0.342285	-0.792480	0.083562	-0.011417	0.102920	0.678842	-0.151222	-0.692575	-0.191430	94.828208	-86.556700	-122.884762
52376		5.897171	-13.374407	-1.475035	-5.276001	-12.702575	-4.652408	-1.953498	0.074682	1.003309	-0.812012	0.355713	-0.785889	0.059637	-0.133582	-0.013467	0.678551	-0.161253	-0.689644	-0.194826	93.695863	-87.134620	-122.871621
52377		5.265588	-12.039424	-5.315501	-1.372898	-13.297745	-5.099621	-0.698217	0.103403	0.574958	-0.812012	0.355713	-0.783691	0.052975	-0.120427	-0.052762	0.679396	-0.165159	-0.687951	-0.194594	91.465626	-87.515997	-120.946856
52378		8.576585	-8.433179	-5.601680	0.579832	-10.388959	-1.579367	0.457787	0.138995	0.622013	-0.810303	0.366943	-0.788086	0.085988	-0.083936	-0.056269	0.680860	-0.165614	-0.687398	-0.191012	89.826758	-87.874781	-119.044104
52379		11.218450	-2.421223	0.189874	-1.493142	-2.366549	1.319306	1.178114	0.349189	0.551408	-0.812256	0.362305	-0.792480	0.112254	-0.023913	0.001561	0.683868	-0.163381	-0.686601	-0.184962	82.957152	-88.237341	-111.479777
52380		9.343723	3.454927	5.580795	-3.361169	5.434885	-0.349521	0.543669	0.135189	0.376907	-0.807861	0.364746	-0.794678	0.093410	0.034574	0.055839	0.685129	-0.162697	-0.686322	-0.181908	79.449719	-88.440367	-107.659184
52381		10.636954	1.849372	2.653248	-1.535839	2.633060	0.879026	-0.298564	-0.119735	0.327761	-0.810303	0.369141	-0.790283	0.106323	0.018708	0.026568	0.685140	-0.165028	-0.685942	-0.181198	78.666328	-88.688164	-107.010481
52382		10.894297	-0.166510	-0.415815	0.214704	-0.565548	1.074015	-0.387906	-0.129428	0.293657	-0.810547	0.375732	-0.792725	0.108948	-0.001513	-0.004085	0.684648	-0.167488	-0.685781	-0.181407	80.370173	-88.868479	-108.936951
52383		10.434335	-1.980571	-1.647264	0.444514	-2.700826	0.580549	-0.301758	-0.096659	0.291180	-0.808350	0.375732	-0.788330	0.104380	-0.019679	-0.016392	0.684706	-0.169615	-0.685357	-0.180815	78.978952	-89.090956	-107.673620
52384		9.662621	-2.858435	-2.298999	0.596561	-3.747744	-0.199115	-0.170894	-0.063170	0.195959	-0.812744	0.373535	-0.790527	0.096661	-0.028509	-0.022935	0.684530	-0.170936	-0.685244	-0.180668	79.799353	-89.209370	-108.591971
52385		10.345794	-2.166909	-1.553241	0.286926	-2.771858	0.501282	0.034456	0.022240	0.100691	-0.810791	0.377930	-0.801514	0.103467	-0.021614	-0.015548	0.685044	-0.171312	-0.684865	-0.179798	74.419658	-89.312224	-103.170755
52386		10.075308	-0.156509	-0.823708	0.623361	-0.651818	0.257137	0.062412	0.075593	0.021807	-0.817383	0.373291	-0.790527	0.100750	-0.001552	-0.008276	0.685384	-0.171113	-0.684635	-0.179566	70.577185	-89.312377	-99.292177
52387		10.272588	-0.221771	-0.287973	0.139612	-0.451919	0.455441	-0.037454	0.107755	-0.026254	-0.815186	0.377930	-0.794922	0.102724	-0.002232	-0.002935	0.685976	-0.171306	-0.684005	-0.179523	62.143382	-89.315278	-90.870970
52388		10.097104	-0.795390	-0.192794	-0.211905	-0.916227	0.273786	-0.113768	0.116185	-0.062909	-0.812988	0.375732	-0.792725	0.100967	-0.007987	-0.001982	0.686229	-0.171385	-0.683549	-0.180218	58.728664	-89.252008	-87.521109
52389		10.047897	-0.384567	-0.310477	0.103692	-0.616961	0.227886	-0.096899	0.098208	-0.073646	-0.817383	0.375488	-0.794922	0.100476	-0.003884	-0.003152	0.686677	-0.171650	-0.682941	-0.180561	52.832558	-89.217069	-81.675939
52390		9.992122	-0.205504	-0.341142	0.220670	-0.484995	0.173162	-0.085522	0.074989	-0.079073	-0.817139	0.371094	-0.799316	0.099919	-0.002096	-0.003448	0.686797	-0.171614	-0.682665	-0.181180	52.189275	-89.155693	-81.081529
52391		9.842999	-0.150598	-0.247189	0.175379	-0.393041	0.025157	-0.027926	0.062037	-0.071486	-0.819336	0.371094	-0.799316	0.098429	-0.001542	-0.002502	0.687166	-0.171703	-0.682246	-0.181277	48.349592	-89.127789	-77.257422
52392		9.990405	-0.002552	-0.386517	0.371350	-0.341772	0.172445	0.001342	0.054619	-0.070391	-0.819580	0.377686	-0.794922	0.099903	-0.000061	-0.003892	0.687299	-0.171417	-0.682111	-0.181551	48.437368	-89.077453	-77.344371
52393		9.878177	0.053343	-0.121750	0.176486	-0.165017	0.063429	0.064362	0.059069	-0.053471	-0.823975	0.375488	-0.794922	0.098782	0.000507	-0.001247	0.687737	-0.171265	-0.681776	-0.181295	44.835567	-89.054597	-73.708453
52394		10.018748	-0.250888	0.039222	-0.107163	-0.362300	0.202154	0.077118	0.060237	-0.031323	-0.825928	0.366699	-0.801514	0.100187	-0.002525	0.000361	0.687990	-0.170847	-0.681656	-0.181181	44.079163	-89.017866	-72.907682
52395		9.899403	0.251306	0.061714	0.127284	0.092987	0.088842	0.084748	0.052642	0.014475	-0.819336	0.371094	-0.801514	0.098994	0.002520	0.000592	0.688475	-0.170865	-0.681307	-0.180631	39.332138	-89.018418	-68.116105
52396		10.025080	0.285344	-0.141621	0.327582	0.022280	0.212077	0.088920	0.040669	0.014176	-0.821533	0.368896	-0.803467	0.100250	0.002861	-0.001435	0.688712	-0.170579	-0.681226	-0.180304	38.043650	-89.005575	-66.776401
52397		9.975714	-0.048016	0.150306	-0.075241	-0.122304	0.163241	0.202346	0.057892	0.055986	-0.821777	0.373291	-0.803711	0.099758	-0.000454	0.001474	0.689344	-0.170321	-0.680936	-0.179226	32.333812	-89.007669	-60.954818
52398		9.683830	0.374249	-0.298080	0.525121	0.042317	-0.131369	0.243005	0.028193	0.077835	-0.828369	0.371094	-0.803711	0.096836	0.003784	-0.002990	0.689726	-0.169733	-0.680980	-0.178144	29.641931	-89.016759	-58.123215
52399		9.926793	0.450133	-0.785952	1.006634	-0.113637	0.103729	0.288068	0.039997	0.097933	-0.828369	0.373291	-0.808105	0.099264	0.004561	-0.007873	0.690396	-0.169334	-0.680796	-0.176627	23.063263	-89.023085	-51.384417
52400		10.166674	0.170943	-0.457122	0.598858	-0.197803	0.346135	0.395802	0.094656	0.118207	-0.823975	0.371094	-0.808105	0.101664	0.001779	-0.004616	0.691166	-0.168295	-0.680707	-0.174941	18.383560	-88.995866	-46.477135
52401		9.930607	-0.263766	-0.263553	0.245570	-0.475723	0.110484	0.506025	0.160056	0.120421	-0.828613	0.375488	-0.816895	0.099305	-0.002571	-0.002722	0.692425	-0.167128	-0.680278	-0.172736	10.877932	-88.915951	-38.690041
52402		9.891616	0.190871	-0.453381	0.649108	-0.156885	0.068610	0.535613	0.217901	0.147437	-0.830566	0.371094	-0.810303	0.098910	0.001994	-0.004636	0.693748	-0.165596	-0.679850	-0.170574	5.956829	-88.803772	-33.460953
52403		10.268592	0.045122	-0.025434	0.245312	-0.082090	0.452772	0.500856	0.264070	0.185795	-0.828369	0.373291	-0.819092	0.102685	0.000547	-0.000389	0.695387	-0.164588	-0.678994	-0.168270	-0.956382	-88.638552	-26.271943
52404		10.275768	-0.193617	0.440351	-0.242836	-0.076654	0.471176	0.436036	0.288712	0.218173	-0.826172	0.375488	-0.823486	0.102766	-0.001833	0.004251	0.696918	-0.163579	-0.678164	-0.166257	-5.362446	-88.464985	-21.614498
52405		10.148989	0.155753	0.228844	0.144505	0.151841	0.337906	0.349537	0.293484	0.244560	-0.830566	0.371094	-0.825684	0.101491	0.001678	0.002142	0.698566	-0.163262	-0.677023	-0.164290	-10.661793	-88.252334	-16.125620
52406		10.353495	0.081662	0.179288	0.200578	0.071331	0.540486	0.298810	0.308155	0.274900	-0.828613	0.380127	-0.827881	0.103536	0.000956	0.001635	0.700087	-0.162905	-0.675955	-0.162558	-14.131848	-88.044277	-12.482395
52407		10.396550	-0.148689	0.269904	0.067154	-0.078069	0.587910	0.266373	0.329701	0.290064	-0.831055	0.386719	-0.832275	0.103972	-0.001340	0.002526	0.701813	-0.162990	-0.674576	-0.160748	-17.942988	-87.785465	-8.528695
52408		10.258537	-0.627471	0.143213	0.008131	-0.551067	0.451224	0.253054	0.350260	0.307339	-0.822021	0.384521	-0.836670	0.102597	-0.006119	0.001245	0.703456	-0.162867	-0.673287	-0.159089	-20.300751	-87.536186	-6.023793
52409		10.249745	-0.352196	-0.207728	0.498994	-0.442476	0.423497	0.241248	0.370589	0.324467	-0.826660	0.386719	-0.845459	0.102499	-0.003353	-0.002271	0.705308	-0.163124	-0.671708	-0.157287	-22.954347	-87.236437	-3.243185
52410		10.378552	-0.542515	0.006011	0.284607	-0.504748	0.563854	0.256909	0.433802	0.385214	-0.822266	0.391357	-0.847656	0.103796	-0.005225	-0.000172	0.707285	-0.163180	-0.670052	-0.155406	-24.817075	-86.917671	-1.230579
52411		10.125341	0.126971	-0.211928	0.828491	0.023754	0.281678	0.252242	0.500236	0.449132	-0.822266	0.393555	-0.852051	0.101244	0.001500	-0.002371	0.709650	-0.163728	-0.667910	-0.153256	-27.042696	-86.512493	1.125723
52412		10.278991	0.615705	-0.501403	1.381706	0.360276	0.397537	0.209594	0.565551	0.547602	-0.820313	0.400391	-0.854248	0.102758	0.006444	-0.005298	0.712135	-0.164389	-0.665598	-0.151062	-28.876573	-86.076893	3.083836
52413		10.675229	0.375778	-0.014873	0.956213	0.394216	0.818936	0.160585	0.613993	0.674063	-0.813965	0.407227	-0.865234	0.106738	0.004118	-0.000473	0.714934	-0.165925	-0.662779	-0.148532	-31.300197	-85.544019	5.585649
52414		10.718300	0.244463	0.110678	0.885076	0.373739	0.865790	0.090962	0.649398	0.818603	-0.809814	0.418457	-0.869629	0.107175	0.002883	0.000760	0.717771	-0.167839	-0.659825	-0.145829	-33.626324	-84.975854	7.972094
52415		10.779754	0.881703	0.015638	1.359826	0.966082	0.873614	0.058953	0.671850	0.927197	-0.807861	0.425049	-0.876221	0.107755	0.009317	-0.000203	0.720812	-0.170518	-0.656480	-0.142785	-36.136250	-84.321263	10.505336
52416		11.185934	0.205996	0.271280	0.994045	0.539953	1.321037	0.074128	0.715691	1.039283	-0.797119	0.436523	-0.883057	0.111855	0.002640	0.002313	0.723962	-0.173159	-0.653043	-0.139391	-38.249586	-83.632047	12.673139
52417		11.595597	0.182900	0.310271	1.128537	0.625300	1.716445	0.127987	0.778875	1.130833	-0.801758	0.440918	-0.891846	0.115954	0.002483	0.002653	0.727487	-0.176152	-0.649137	-0.135481	-40.189037	-82.842403	14.678378
52418		11.811806	0.359531	0.150289	1.517695	0.806164	1.879818	0.194782	0.852204	1.240274	-0.786377	0.452148	-0.898438	0.118098	0.004327	0.001004	0.731254	-0.178898	-0.645046	-0.131071	-41.712992	-82.005210	16.328363
52419		12.848661	0.763532	-0.288068	2.389928	1.123748	2.787940	0.283477	0.932961	1.344713	-0.782227	0.461182	-0.902832	0.128416	0.008504	-0.003468	0.735459	-0.181881	-0.640420	-0.126018	-43.060990	-81.058222	17.832949
52420		15.139688	0.707207	-0.194986	2.827528	1.343501	5.017755	0.429735	1.059434	1.495204	-0.769043	0.472656	-0.918213	0.151325	0.008209	-0.002735	0.740162	-0.184425	-0.635394	-0.120088	-44.036000	-80.025333	19.071033
52421		18.192579	3.398594	-1.247652	5.652010	3.664977	7.469910	0.608640	1.225838	1.634572	-0.762939	0.486084	-0.927002	0.181559	0.035511	-0.013484	0.745624	-0.186917	-0.629516	-0.113213	-44.718666	-78.838842	20.094718
52422		20.428547	4.476268	-0.723821	6.358331	5.210253	9.430315	0.632377	1.459531	1.791179	-0.745605	0.501953	-0.935791	0.203814	0.046615	-0.008581	0.751779	-0.189369	-0.622700	-0.105887	-45.016160	-77.519447	20.768873
52423		21.008646	4.791215	-1.127976	7.360990	5.608708	9.679001	0.655223	1.572650	1.987290	-0.730225	0.515869	-0.955566	0.209500	0.050036	-0.012767	0.758321	-0.192497	-0.615071	-0.097884	-45.382391	-76.055092	21.505531
52424		21.094294	5.178776	-0.654715	7.526651	6.435790	9.529477	0.716308	1.654584	2.239969	-0.714844	0.527344	-0.970947	0.210282	0.054173	-0.008097	0.765126	-0.195852	-0.606916	-0.088757	-45.813512	-74.472095	22.375701
52425		21.391828	6.440047	-0.756858	8.602040	7.886756	9.251053	0.692923	1.696967	2.492378	-0.699463	0.536377	-0.979736	0.213020	0.067089	-0.009149	0.771977	-0.200172	-0.598137	-0.078833	-46.425042	-72.757113	23.404720
52426		21.940405	6.158741	-1.525986	9.781323	7.757355	9.311795	0.677883	1.675483	2.750244	-0.675537	0.559082	-0.997314	0.218392	0.064651	-0.016877	0.778654	-0.205104	-0.589090	-0.067843	-47.193644	-70.948372	24.622232
52427		22.324657	5.740499	-2.266189	10.861152	7.563318	9.194161	0.743533	1.616533	2.971435	-0.665039	0.574951	-1.008545	0.222168	0.060799	-0.024239	0.785048	-0.210479	-0.579898	-0.055827	-48.050734	-69.066656	25.970845
52428		20.662415	5.468265	-2.479701	10.841253	7.433031	7.221326	0.689231	1.457603	3.122004	-0.640869	0.591064	-1.012939	0.205549	0.057985	-0.026102	0.790757	-0.216397	-0.570980	-0.043086	-49.047028	-67.170174	27.469944
52429		19.879819	1.806469	-2.213305	9.563167	4.548371	7.251523	0.430235	1.308813	3.173657	-0.621582	0.615967	-1.028320	0.198327	0.021264	-0.023389	0.795466	-0.223496	-0.562432	-0.030897	-50.184241	-65.312682	28.962299
52430		18.307550	0.051776	-3.693452	10.126822	2.508540	5.677182	0.054225	1.163219	3.003585	-0.604004	0.627441	-1.030518	0.182821	0.003275	-0.037998	0.799165	-0.231529	-0.554370	-0.020080	-51.350211	-63.555287	30.289170
52431		14.214053	-1.796793	-4.176796	8.721601	0.091939	2.296164	-0.185208	0.989123	2.808433	-0.591553	0.649902	-1.039307	0.142166	-0.016011	-0.042456	0.801789	-0.240044	-0.547170	-0.010851	-52.527912	-61.962475	31.455602
52432		10.450902	-4.803477	-4.395631	6.766200	-3.313675	-0.073731	-0.187461	0.768514	2.644453	-0.580811	0.665527	-1.041748	0.104962	-0.046690	-0.044315	0.803740	-0.247977	-0.540839	-0.001670	-53.651651	-60.483734	32.615094
52433		8.100879	-7.199627	-3.228517	4.283183	-5.359467	-0.823424	-0.079102	0.583994	2.532457	-0.561035	0.679199	-1.043945	0.081817	-0.070976	-0.032495	0.805046	-0.255405	-0.535369	0.006994	-54.715421	-59.139702	33.717097
52434		6.349302	-12.682363	-2.269522	1.470339	-10.042972	0.349687	0.463957	0.542908	2.348805	-0.545410	0.681885	-1.050293	0.064914	-0.126013	-0.023163	0.806956	-0.259835	-0.530112	0.017010	-55.293523	-57.856100	34.706922
52435		6.046286	-13.229221	-1.750539	1.041272	-10.256069	0.596425	1.767632	0.591744	2.008143	-0.534180	0.682129	-1.067871	0.061732	-0.131514	-0.018851	0.810439	-0.258595	-0.524903	0.028187	-54.914468	-56.743682	35.334918
52436		5.210804	-2.343330	-1.832013	3.439402	-1.046223	-5.009131	2.212965	0.472265	1.500679	-0.529541	0.677979	-1.083252	0.052237	-0.022836	-0.018698	0.814259	-0.253619	-0.520674	0.039476	-54.065652	-55.883934	35.838700
52437		4.737658	1.759293	-1.159895	3.511493	2.677163	-7.094694	1.947322	0.356825	1.193363	-0.524658	0.671387	-1.094238	0.047249	0.017987	-0.011509	0.817244	-0.249569	-0.517234	0.047922	-53.351182	-55.234547	36.165765
52438		4.235147	2.855320	1.157732	1.438147	4.338947	-7.256375	1.415842	0.156577	0.975937	-0.515869	0.676025	-1.100830	0.042221	0.028677	0.011747	0.819156	-0.246346	-0.515004	0.055388	-52.916755	-54.730728	36.625906
52439		3.737996	1.582559	2.911429	-0.548898	3.681852	-6.481598	0.863845	-0.025417	0.852698	-0.517822	0.671631	-1.111572	0.037309	0.015859	0.029187	0.819793	-0.245632	-0.513794	0.060167	-52.898809	-54.375519	37.063807
52440		2.863612	1.106033	2.729018	-0.885246	2.903452	-7.045486	0.373537	-0.203737	0.663666	-0.511230	0.673828	-1.107178	0.028571	0.011104	0.027340	0.819527	-0.245754	-0.513684	0.064110	-53.132662	-54.139397	37.615672
52441		1.744420	1.898620	2.042767	-0.696010	2.968595	-8.578330	-0.037090	-0.405657	0.393448	-0.518311	0.680420	-1.103027	0.017365	0.019024	0.020459	0.818210	-0.247309	-0.514887	0.065290	-53.637791	-54.123076	38.087805
52442		1.153252	3.137304	1.368146	-0.200512	3.605301	-9.890657	-0.431073	-0.629783	0.079763	-0.522949	0.684814	-1.096436	0.011477	0.031407	0.013650	0.816028	-0.249081	-0.517488	0.065298	-54.327284	-54.295730	38.633380
52443		0.736188	2.750499	0.502952	0.323852	2.822430	-10.350420	-0.881664	-0.799387	-0.210599	-0.525146	0.680176	-1.089844	0.007371	0.027519	0.004938	0.812815	-0.252285	-0.521330	0.062439	-55.293984	-54.684870	39.096533
52444		0.268079	1.373869	0.102797	0.258641	1.320190	-10.212858	-1.115393	-0.966285	-0.461960	-0.536621	0.688721	-1.081055	0.002708	0.013738	0.000964	0.809014	-0.255315	-0.526159	0.058884	-56.374488	-55.212255	39.635795
52445		-0.208879	0.128584	-0.097852	0.019021	0.000426	-10.076080	-1.093302	-1.095130	-0.706119	-0.541504	0.697510	-1.065918	-0.002079	0.001288	-0.000997	0.804810	-0.257909	-0.531844	0.053902	-57.478180	-55.920738	40.122556
52446		-0.496090	-0.558700	-0.203404	-0.137424	-0.732491	-10.022911	-0.875991	-1.203193	-0.946252	-0.557129	0.690430	-1.052734	-0.004975	-0.005572	-0.002040	0.800710	-0.258594	-0.538108	0.049327	-58.425649	-56.743579	40.657937
52447		-0.492431	-0.300535	0.031335	-0.291224	-0.422007	-10.078930	-0.607567	-1.267310	-1.176790	-0.572754	0.687988	-1.043945	-0.004944	-0.002975	0.000291	0.796658	-0.257902	-0.544875	0.043988	-59.230940	-57.722095	41.111313
52448		-0.415568	0.232432	0.649911	-0.694491	0.292093	-10.098097	-0.375855	-1.309860	-1.394065	-0.579102	0.678955	-1.032959	-0.004182	0.002366	0.006467	0.792878	-0.255311	-0.551934	0.039111	-59.837440	-58.788606	41.571286
52449		-0.152046	0.601772	1.574411	-1.334994	1.040088	-9.809361	-0.158636	-1.324337	-1.602650	-0.601563	0.676025	-1.024170	-0.001576	0.006043	0.015729	0.789172	-0.251599	-0.559275	0.033412	-60.300771	-59.987460	41.918477
52450		0.135511	1.038267	2.269672	-1.757177	1.763408	-9.588013	0.029221	-1.325283	-1.802024	-0.612061	0.660400	-1.015381	0.001298	0.010367	0.022707	0.785760	-0.246219	-0.566719	0.028061	-60.552101	-61.257759	42.226127
52451		0.397105	1.721071	2.743396	-1.937616	2.610498	-9.535323	0.106961	-1.330636	-1.985180	-0.627441	0.651123	-1.013184	0.003959	0.017157	0.027470	0.782225	-0.240257	-0.574396	0.021696	-60.724287	-62.646403	42.420008
52452		0.743406	2.268526	3.121180	-2.042221	3.325301	-9.351936	0.077575	-1.321573	-2.159619	-0.647217	0.637451	-1.000000	0.007472	0.022593	0.031270	0.778699	-0.233600	-0.582092	0.015070	-60.792187	-64.093578	42.545714
52453		1.146484	2.572517	3.277041	-1.991423	3.758033	-9.049419	0.047383	-1.308296	-2.331086	-0.659912	0.614990	-0.991211	0.011549	0.025583	0.032852	0.774941	-0.226684	-0.589938	0.007282	-60.797749	-65.648561	42.533606
52454		1.394486	2.393723	3.415311	-2.106208	3.697378	-8.702727	-0.097576	-1.304417	-2.493521	-0.681885	0.601074	-0.978027	0.014019	0.023779	0.034233	0.771003	-0.219648	-0.597752	-0.001177	-60.749804	-67.257913	42.420360
52455		1.877551	1.530514	3.370114	-2.179936	3.002778	-7.953560	-0.195074	-1.302881	-2.639164	-0.694824	0.585205	-0.968994	0.018756	0.015090	0.033809	0.766697	-0.212532	-0.605715	-0.010742	-60.658640	-68.965737	42.177937
52456		2.542306	1.525371	4.062819	-2.683599	3.353797	-7.196095	-0.302248	-1.304745	-2.782036	-0.702881	0.565186	-0.953613	0.025367	0.014962	0.040771	0.762189	-0.205321	-0.613574	-0.020922	-60.471716	-70.719018	41.794402
52457		2.896199	1.679257	4.310096	-2.828229	3.609436	-6.853374	-0.615919	-1.335593	-2.951566	-0.724854	0.549072	-0.940430	0.028918	0.016499	0.043243	0.756968	-0.198633	-0.621666	-0.032802	-60.318718	-72.591019	41.259618
52458		3.591383	0.742474	4.406910	-3.094719	2.870700	-5.933077	-1.113254	-1.370983	-3.102146	-0.733154	0.533203	-0.922852	0.035723	0.007116	0.044274	0.750978	-0.193409	-0.629644	-0.046624	-60.285246	-74.521845	40.559735
52459		4.385496	-0.589294	4.185136	-3.232927	1.645868	-4.920544	-1.472017	-1.394134	-3.247034	-0.757080	0.508301	-0.909668	0.043462	-0.006291	0.042201	0.744223	-0.188775	-0.637685	-0.062085	-60.227399	-76.556400	39.649521
52460		5.753278	-2.614904	3.850505	-3.495704	-0.218289	-3.294069	-1.552836	-1.360164	-3.381210	-0.765381	0.490234	-0.887451	0.056819	-0.026812	0.039100	0.737232	-0.184169	-0.645320	-0.078309	-59.783684	-78.621686	38.284344
52461		7.888657	-6.331124	2.125297	-3.129606	-4.160278	-0.884354	-1.563855	-1.293489	-3.498914	-0.777832	0.465576	-0.872070	0.077623	-0.064505	0.022259	0.730083	-0.178813	-0.652677	-0.094962	-58.487589	-80.743221	36.089114
52462		10.160441	-10.159656	0.981141	-3.567372	-8.109647	1.540572	-1.341348	-1.205185	-3.518698	-0.786377	0.449707	-0.854492	0.099733	-0.103291	0.011105	0.723146	-0.172774	-0.659448	-0.111076	-55.688196	-82.809685	32.484670
52463		12.192806	-13.337301	0.672327	-4.731485	-11.279692	3.504372	-0.951565	-1.097984	-3.422565	-0.805664	0.425049	-0.847900	0.119581	-0.135397	0.008025	0.716662	-0.165327	-0.665800	-0.125589	-49.883350	-84.768174	26.116194
52464		14.027287	-15.417166	1.085115	-6.213461	-13.257599	5.060729	-0.436680	-0.975174	-3.226437	-0.813721	0.398193	-0.836670	0.137706	-0.156382	0.011867	0.710934	-0.156750	-0.671582	-0.137769	-37.776437	-86.459204	13.724411
52465		15.626083	-15.713927	2.273695	-7.684380	-13.379015	6.255460	0.136423	-0.845217	-2.956916	-0.810547	0.373779	-0.827637	0.153817	-0.159441	0.023282	0.706043	-0.146965	-0.676928	-0.147219	-11.509224	-87.640597	-12.508613
52466		16.330729	-15.396786	3.721355	-9.126434	-12.883045	6.567353	0.413957	-0.730083	-2.610174	-0.811768	0.351563	-0.823242	0.161142	-0.156158	0.037483	0.701897	-0.137203	-0.681656	-0.154471	28.562207	-87.844017	-52.371269
52467		15.966401	-13.946354	5.023583	-9.972198	-11.343318	5.888489	0.310427	-0.676787	-2.165459	-0.822266	0.331299	-0.816406	0.157970	-0.141258	0.050554	0.698043	-0.129531	-0.685669	-0.160673	56.485269	-87.284494	-80.175018
52468		15.246938	-12.864931	5.509150	-10.197650	-10.351929	4.923672	-0.126703	-0.692287	-1.654669	-0.821777	0.320068	-0.812012	0.151206	-0.129869	0.055698	0.694239	-0.124862	-0.689019	-0.166416	70.949248	-86.605953	-94.731776
52469		14.139963	-13.260417	4.910097	-10.022777	-10.974499	3.565785	-0.601634	-0.720761	-1.135015	-0.823975	0.317871	-0.805420	0.140465	-0.133254	0.050009	0.690402	-0.124044	-0.691623	-0.172094	79.360899	-86.104591	-103.549578
52470		18.404613	-27.402227	-2.622139	-9.414103	-27.146052	6.647003	-1.600791	-0.933938	-0.375798	-0.823975	0.317871	-0.792236	0.183644	-0.274561	-0.023167	0.685835	-0.129079	-0.693663	-0.178329	86.469460	-85.958428	-111.594526
52471		30.307918	-45.829419	0.588940	-21.108515	-42.806785	17.412173	-1.278385	-0.740354	0.757006	-0.817383	0.317871	-0.796631	0.304779	-0.457088	0.009940	0.683042	-0.137491	-0.694392	-0.179912	92.002818	-86.441201	-117.955253
52472		16.067857	2.103806	4.297750	-3.379688	2.877571	6.354241	0.649108	0.515492	0.242521	-0.821777	0.317871	-0.801025	0.160763	0.021094	0.042632	0.685500	-0.135662	-0.693034	-0.177172	87.502102	-86.581062	-113.073567
52473		21.590280	44.621600	16.751292	3.619589	46.189737	14.502580	0.631397	0.679206	-0.240340	-0.814941	0.313721	-0.809814	0.217009	0.445425	0.168184	0.688005	-0.133118	-0.691193	-0.176581	81.539944	-86.468194	-106.851653
52474		38.175013	23.913023	17.060097	-5.622313	26.672097	29.900964	-0.953877	0.556776	0.465998	-0.810791	0.324707	-0.812012	0.381661	0.240826	0.168392	0.689703	-0.137527	-0.688104	-0.178631	74.849811	-86.666448	-100.697024
52475		17.303260	14.759505	7.847166	-0.637838	15.751361	8.361458	-1.454545	0.305668	0.802763	-0.813721	0.338135	-0.805664	0.172555	0.148852	0.077128	0.690635	-0.145107	-0.685035	-0.180814	67.758624	-87.071051	-94.415911
52476		3.186481	-4.130255	2.526488	-4.139269	-2.671843	-6.759382	-1.750011	0.084166	0.689690	-0.815918	0.342529	-0.805664	0.032017	-0.040969	0.025611	0.690256	-0.153441	-0.682623	-0.184467	62.350205	-87.410789	-90.005072
52477		7.323570	-13.351196	-1.060411	-5.273524	-12.605715	-3.008399	-0.657819	0.051129	0.565676	-0.804932	0.347168	-0.805664	0.073610	-0.133338	-0.010184	0.690691	-0.157475	-0.681279	-0.184407	56.744223	-87.688143	-84.729384
52478		6.820211	-9.691234	-4.527612	-0.512634	-10.936443	-3.404431	0.063940	0.054290	0.443259	-0.809814	0.355957	-0.807861	0.068404	-0.096746	-0.045326	0.691344	-0.158725	-0.680790	-0.182689	52.259557	-87.878168	-80.204687
52479		6.875583	-7.556086	-3.688537	-0.210608	-8.636160	-3.228959	0.410797	0.020713	0.378988	-0.816162	0.349121	-0.810059	0.068895	-0.075354	-0.037047	0.692276	-0.158708	-0.680633	-0.179735	47.175750	-88.052389	-74.872120
52480		9.509850	-2.407278	0.197191	-1.196893	-2.343860	-0.360449	0.611657	0.007580	0.266966	-0.807129	0.347168	-0.812256	0.095131	-0.023952	0.001895	0.693034	-0.157504	-0.680930	-0.176722	44.126157	-88.159623	-71.470199
52481		11.383609	1.799908	1.920599	-0.757842	2.145322	1.647599	0.408084	-0.019566	0.158774	-0.807373	0.353760	-0.814453	0.113820	0.018050	0.019254	0.693588	-0.156900	-0.681059	-0.174576	41.114037	-88.244344	-68.228459
52482		11.579500	3.195495	0.908435	0.776691	2.938053	1.844320	0.087209	-0.105666	0.140547	-0.816406	0.351318	-0.812256	0.115768	0.032032	0.009159	0.693429	-0.157180	-0.681381	-0.173696	40.357521	-88.343420	-67.421600
52483		11.136163	1.255147	-0.631855	1.262252	0.548704	1.327078	-0.083271	-0.121314	0.170610	-0.814209	0.355713	-0.814453	0.111355	0.012644	-0.006256	0.693272	-0.158339	-0.681432	-0.173068	37.651015	-88.468712	-64.758975
52484		10.343062	-0.739566	-1.507265	1.120966	-1.585870	0.484214	-0.007646	-0.100120	0.140198	-0.814453	0.357910	-0.810059	0.103443	-0.007324	-0.015021	0.693057	-0.158942	-0.681651	-0.172516	36.403975	-88.563382	-63.515880
52485		10.235516	-1.715888	-1.382478	0.571123	-2.376596	0.368025	0.266639	-0.042008	0.088211	-0.816650	0.357910	-0.807861	0.102366	-0.017095	-0.013826	0.693358	-0.158563	-0.681797	-0.171073	33.775714	-88.619764	-60.735556
52486		9.996905	-0.827794	-0.991109	0.629264	-1.397088	0.150135	0.397999	0.033475	-0.009877	-0.816406	0.351318	-0.812256	0.099967	-0.008263	-0.009944	0.693788	-0.157133	-0.682017	-0.169763	33.648148	-88.601019	-60.379831
52487		10.101391	-0.841921	-0.523772	0.219905	-1.201571	0.263479	0.357679	0.081108	-0.058445	-0.818604	0.353516	-0.810059	0.101009	-0.008439	-0.005294	0.694434	-0.155879	-0.681923	-0.168652	32.326522	-88.551254	-58.861417
52488		10.145393	-0.613399	-0.236171	0.071527	-0.880779	0.315497	0.162300	0.082952	-0.113846	-0.821045	0.355713	-0.816650	0.101449	-0.006190	-0.002409	0.694758	-0.154871	-0.681850	-0.168545	33.430471	-88.476245	-59.872697
52489		10.044163	-1.341661	0.108512	-0.555318	-1.386373	0.210616	0.041562	0.069739	-0.122354	-0.820557	0.346924	-0.816650	0.100434	-0.013478	0.001047	0.695054	-0.154525	-0.681577	-0.168743	33.317094	-88.412614	-59.747221
52490		10.006960	-1.226603	0.003622	-0.409774	-1.343901	0.170790	0.033338	0.064791	-0.142248	-0.822998	0.351318	-0.818848	0.100061	-0.012337	0.000002	0.695192	-0.153883	-0.681479	-0.169160	34.882520	-88.336563	-61.294152
52491		9.938704	-1.037787	0.183378	-0.481972	-1.104267	0.108842	0.108763	0.076074	-0.138323	-0.825439	0.351074	-0.810059	0.099381	-0.010448	0.001790	0.695542	-0.153262	-0.681252	-0.169200	34.938888	-88.265454	-61.302436
52492		9.800048	0.188777	0.151089	0.090686	-0.033133	-0.010134	0.117567	0.079654	-0.166519	-0.820801	0.349121	-0.821045	0.098003	0.001805	0.001473	0.695773	-0.152232	-0.681190	-0.169425	36.548117	-88.173151	-62.845033
52493		9.935746	0.081163	0.121855	0.075986	-0.159342	0.122568	0.050500	0.076491	-0.157727	-0.822754	0.344482	-0.816650	0.099359	0.000733	0.001181	0.696060	-0.151750	-0.680928	-0.169737	36.784416	-88.095326	-63.067425
52494		9.775681	0.049695	-0.112463	0.269081	-0.303053	-0.044638	-0.003820	0.057330	-0.158131	-0.822754	0.344482	-0.821045	0.097757	0.000420	-0.001153	0.696129	-0.151190	-0.680833	-0.170329	38.224950	-88.014683	-64.510965
52495		9.965940	0.249267	-0.398590	0.620326	-0.266675	0.141459	0.016712	0.046744	-0.121784	-0.829346	0.340088	-0.823242	0.099660	0.002432	-0.004009	0.696314	-0.150973	-0.680621	-0.170613	38.226996	-87.962842	-64.518881
52496		10.274082	0.309764	-0.043409	0.333880	-0.076904	0.460443	0.095346	0.061487	-0.093263	-0.834229	0.346680	-0.818848	0.102742	0.003050	-0.000464	0.696528	-0.150286	-0.680547	-0.170645	38.751814	-87.902657	-64.989365
52497		10.129826	0.105564	0.269265	-0.030519	-0.121882	0.320487	0.145270	0.088394	-0.041426	-0.829346	0.337891	-0.825439	0.101300	0.001033	0.002649	0.697013	-0.149862	-0.680241	-0.170254	37.478545	-87.860491	-63.648420
52498		9.967190	0.359354	0.078441	0.257436	0.020740	0.157942	0.109114	0.102084	-0.012659	-0.833740	0.340088	-0.829834	0.099673	0.003587	0.000735	0.697443	-0.149366	-0.679976	-0.169988	36.681896	-87.810043	-62.788629
52499		10.067743	0.328220	0.127642	0.216234	0.012014	0.258885	0.110703	0.117148	0.036971	-0.833984	0.342285	-0.825439	0.100678	0.003300	0.001219	0.698064	-0.149300	-0.679484	-0.169464	34.314084	-87.778105	-60.371884
52500		10.003193	0.282890	-0.016172	0.337879	-0.091273	0.188395	0.086835	0.143365	0.044219	-0.831543	0.340088	-0.832031	0.100031	0.002851	-0.000232	0.698665	-0.149040	-0.679012	-0.169107	32.593989	-87.723942	-58.600664
52501		9.984114	0.121254	-0.133382	0.392508	-0.285971	0.161236	0.080958	0.176775	0.034860	-0.841064	0.351074	-0.834229	0.099840	0.001231	-0.001422	0.699459	-0.149016	-0.678290	-0.168741	29.989082	-87.655344	-55.963684
52502		9.823686	-0.258494	-0.219376	0.318430	-0.663892	-0.010770	0.100314	0.197124	0.035673	-0.836182	0.344482	-0.827637	0.098235	-0.002566	-0.002292	0.700245	-0.148635	-0.677646	-0.168407	28.225780	-87.566777	-54.141317
52503		10.063034	-0.531462	0.213266	-0.158282	-0.729784	0.238925	0.131303	0.227133	0.047838	-0.840820	0.344238	-0.834229	0.100634	-0.005292	0.002015	0.701249	-0.148444	-0.676781	-0.167873	25.523431	-87.468107	-51.379202
52504		9.784401	0.102651	-0.018455	0.343402	-0.255632	-0.037103	0.113015	0.246322	0.067427	-0.829590	0.344482	-0.843018	0.097843	0.001060	-0.000304	0.702235	-0.148084	-0.675949	-0.167421	23.445118	-87.355586	-49.233943
52505		9.971198	0.175146	0.045861	0.352339	-0.168008	0.152509	0.105962	0.246969	0.090170	-0.836426	0.348877	-0.840820	0.099712	0.001796	0.000336	0.703317	-0.148112	-0.674960	-0.166846	20.579349	-87.245850	-46.323308
52506		10.261499	-0.050620	0.567603	-0.176015	-0.156002	0.461926	0.133456	0.284569	0.147271	-0.841064	0.351074	-0.847412	0.102623	-0.000434	0.005530	0.704510	-0.147917	-0.673948	-0.166072	17.879426	-87.119288	-43.543559
52507		10.073006	0.672170	0.359947	0.355944	0.418176	0.274193	0.108836	0.310656	0.182931	-0.836914	0.360107	-0.849609	0.100729	0.006812	0.003447	0.705879	-0.148191	-0.672666	-0.165211	14.324209	-86.975658	-39.940349
52508		10.215508	0.382242	0.182368	0.436018	0.080289	0.401972	0.128949	0.362483	0.238952	-0.825439	0.358154	-0.858398	0.102154	0.003943	0.001641	0.707402	-0.148255	-0.671302	-0.164185	11.041543	-86.802280	-36.578850
52509		10.256159	0.050518	0.102432	0.419434	-0.241627	0.432667	0.152848	0.422811	0.323944	-0.830078	0.357910	-0.854004	0.102562	0.000671	0.000808	0.709285	-0.148746	-0.669550	-0.162762	6.699849	-86.585345	-32.161050
52510		10.183426	0.392327	-0.563674	1.222307	-0.199625	0.318430	0.163945	0.486239	0.453092	-0.827881	0.364746	-0.862793	0.101811	0.004159	-0.005881	0.711413	-0.149300	-0.667605	-0.160950	2.213413	-86.326346	-27.571924
52511		10.193475	1.259421	-0.854106	1.929157	0.489742	0.299708	0.127026	0.542872	0.572540	-0.821533	0.375977	-0.871582	0.101874	0.012891	-0.008810	0.713853	-0.150619	-0.665207	-0.158831	-3.065207	-86.001673	-22.229281
52512		10.612799	0.790704	-0.375954	1.406591	0.295454	0.738685	0.075738	0.608652	0.712004	-0.819580	0.382813	-0.878174	0.106087	0.008286	-0.004079	0.716505	-0.152248	-0.662538	-0.156477	-8.137403	-85.612634	-17.100011
52513		10.715377	0.492763	-0.190176	1.219539	0.154078	0.844993	0.032021	0.658279	0.854079	-0.815430	0.391602	-0.878418	0.107124	0.005385	-0.002254	0.719434	-0.154747	-0.659412	-0.153768	-13.546602	-85.134424	-11.677628
52514		10.653214	1.084795	-0.387371	1.750616	0.665080	0.737641	0.006999	0.702933	0.975849	-0.811279	0.400635	-0.882813	0.106463	0.011368	-0.004248	0.722507	-0.157412	-0.656108	-0.150758	-18.323220	-84.590881	-6.877798
52515		11.102288	1.184358	-0.392461	1.961656	0.819795	1.155245	0.005735	0.759804	1.087832	-0.805176	0.414063	-0.889404	0.110940	0.012447	-0.004346	0.725863	-0.160686	-0.652367	-0.147378	-22.863308	-83.945126	-2.336112
52516		11.539604	0.407665	-0.141656	1.588867	0.301217	1.621082	0.017649	0.839066	1.202343	-0.801025	0.425293	-0.904785	0.115361	0.004770	-0.001900	0.729493	-0.163937	-0.648338	-0.143609	-26.645404	-83.217000	1.479918
52517		11.696958	0.649798	-0.057227	1.789865	0.647909	1.746641	0.068807	0.926183	1.284315	-0.799072	0.434326	-0.906982	0.116920	0.007249	-0.001111	0.733494	-0.167482	-0.643809	-0.139449	-29.921021	-82.380641	4.794932
52518		12.536683	0.189283	-0.585681	2.354624	0.112033	2.515598	0.210820	1.022064	1.365199	-0.786133	0.447998	-0.915771	0.125318	0.002755	-0.006495	0.737897	-0.170401	-0.639026	-0.134596	-32.397050	-81.471606	7.417654
52519		14.088126	0.982644	-0.756995	3.276336	0.903788	3.915275	0.437237	1.150086	1.463075	-0.775146	0.454834	-0.926758	0.140758	0.010874	-0.008357	0.742926	-0.172990	-0.633678	-0.128794	-34.390800	-80.439828	9.660811
52520		16.998963	0.690250	-1.612032	4.657533	0.504318	6.621516	0.497458	1.217086	1.574209	-0.766602	0.470703	-0.940186	0.169826	0.008281	-0.017135	0.748198	-0.175353	-0.628068	-0.122398	-35.996384	-79.346852	11.581123
52521		19.075824	2.057989	-1.943105	6.198583	1.870167	8.352228	0.646252	1.314462	1.650060	-0.755615	0.473145	-0.951172	0.190447	0.022217	-0.020613	0.753865	-0.177632	-0.621945	-0.115411	-37.275247	-78.160361	13.226950
52522		18.521635	3.136172	-0.351825	5.415481	3.687116	7.796223	0.753537	1.350326	1.829506	-0.742920	0.493408	-0.959961	0.184890	0.033070	-0.004645	0.759746	-0.179705	-0.615605	-0.107344	-38.446406	-76.902842	14.868474
52523		19.377813	4.697580	0.642562	5.650337	5.802236	8.418316	0.724899	1.405538	2.038049	-0.729492	0.498291	-0.981934	0.193326	0.048927	0.005241	0.765739	-0.182785	-0.608673	-0.098750	-39.724465	-75.527631	16.571785
52524		19.356085	5.594112	1.251437	5.783782	7.129028	8.165692	0.566234	1.469871	2.204956	-0.714355	0.511719	-0.986328	0.193014	0.058038	0.011257	0.771758	-0.186601	-0.601238	-0.089899	-40.943697	-74.064513	18.171302
52525		19.447103	4.839501	0.754863	6.349612	6.541924	8.049036	0.448839	1.503942	2.398608	-0.699219	0.532227	-0.995117	0.193922	0.050708	0.006201	0.777674	-0.191647	-0.593265	-0.080820	-42.245888	-72.498820	19.764375
52526		19.936144	4.965101	0.020996	7.571230	6.738638	8.057423	0.437418	1.516864	2.520665	-0.677490	0.548096	-1.012695	0.198709	0.052160	-0.001187	0.783535	-0.196805	-0.585047	-0.071146	-43.414705	-70.876096	21.259375
52527		19.619971	3.755293	-1.831094	9.094326	5.214847	7.288959	0.375632	1.478192	2.642477	-0.664307	0.559570	-1.019287	0.195538	0.040176	-0.019684	0.789041	-0.202722	-0.576681	-0.061296	-44.603815	-69.212359	22.721192
52528		18.401240	3.402090	-2.505723	9.536671	4.807733	5.755524	0.227801	1.398664	2.656638	-0.642578	0.575439	-1.025879	0.183358	0.036489	-0.026300	0.794038	-0.209047	-0.568459	-0.051549	-45.750326	-67.564263	24.094623
52529		17.497379	0.212797	-2.971917	8.948204	1.913103	5.395311	-0.031808	1.326408	2.636803	-0.629883	0.597900	-1.032715	0.174723	0.004428	-0.030879	0.798306	-0.216510	-0.560358	-0.042786	-46.937633	-65.951483	25.328062
52530		15.999033	-0.483861	-3.116101	8.613023	1.259519	3.975966	-0.365626	1.230749	2.495252	-0.610352	0.616211	-1.034912	0.159839	-0.002902	-0.032138	0.801822	-0.224692	-0.552594	-0.035159	-48.112736	-64.417278	26.391769
52531		12.557445	-2.498441	-3.359588	7.114963	-1.075083	1.297323	-0.646216	1.096351	2.373931	-0.599854	0.634033	-1.045898	0.125674	-0.023603	-0.034207	0.804379	-0.233885	-0.545372	-0.029004	-49.366192	-62.991486	27.323332
52532		10.047162	-4.915636	-3.008009	5.245718	-3.409345	-0.065330	-0.568968	0.894867	2.330782	-0.591553	0.652100	-1.043701	0.100901	-0.048068	-0.030393	0.806434	-0.242395	-0.538903	-0.022206	-50.582770	-61.635570	28.328945
52533		7.882988	-6.670088	-2.105759	3.182418	-4.898889	-1.041426	-0.337751	0.772069	2.204212	-0.573975	0.663574	-1.045898	0.079477	-0.065863	-0.021252	0.808183	-0.249934	-0.533037	-0.015631	-51.616180	-60.388553	29.216440
52534		6.316004	-11.263361	-1.850084	1.127925	-9.042343	-0.478038	0.504461	0.761308	2.001233	-0.560791	0.672607	-1.063477	0.064211	-0.111947	-0.019027	0.810957	-0.253170	-0.527449	-0.007130	-51.958589	-59.214283	29.946972
52535		5.457319	-6.185542	-1.135024	1.745249	-4.446904	-2.993032	1.569630	0.712855	1.516530	-0.546875	0.659668	-1.074463	0.054998	-0.061347	-0.012029	0.814709	-0.251222	-0.522623	0.001673	-51.456805	-58.291117	30.316876
52536		5.090563	2.268715	-1.378383	4.072313	2.804673	-6.895453	1.704123	0.546372	1.149395	-0.542236	0.659912	-1.083252	0.050736	0.023096	-0.013727	0.818227	-0.247290	-0.518892	0.010142	-50.753138	-57.578546	30.638663
52537		3.968926	4.504281	-0.160130	3.032932	4.988095	-8.403286	1.233634	0.329071	0.862564	-0.542236	0.662109	-1.089844	0.039492	0.045222	-0.001388	0.820426	-0.244976	-0.516370	0.015838	-50.348859	-57.090136	30.895938
52538		3.508856	3.273222	2.272190	0.423271	4.738049	-7.454605	0.768959	0.120262	0.694660	-0.540039	0.662109	-1.094238	0.034988	0.032766	0.022827	0.821617	-0.243637	-0.514941	0.020546	-50.218907	-56.736527	31.266636
52539		2.561544	2.753229	2.191575	-0.080628	3.987225	-8.069049	0.279173	-0.123065	0.501858	-0.544434	0.657715	-1.094238	0.025533	0.027566	0.021970	0.821481	-0.244184	-0.514800	0.022899	-50.454719	-56.575614	31.649290
52540		1.622807	3.318378	1.229530	0.415134	3.853298	-9.443060	-0.216467	-0.367021	0.220515	-0.542480	0.664307	-1.094238	0.016169	0.033215	0.012289	0.820250	-0.245613	-0.516045	0.023716	-50.948412	-56.607634	32.092071
52541		1.018010	3.714658	0.163787	1.144560	3.617370	-10.495651	-0.676589	-0.606859	-0.085898	-0.555908	0.666260	-1.083252	0.010191	0.037148	0.001543	0.817754	-0.248442	-0.518726	0.021847	-51.732963	-56.879746	32.487452
52542		0.747362	3.526965	-0.469675	1.546800	3.120926	-10.854682	-1.005550	-0.823968	-0.385747	-0.558350	0.670654	-1.072266	0.007561	0.035231	-0.004843	0.814397	-0.251473	-0.522656	0.018705	-52.678090	-57.340329	32.926804
52543		0.560275	2.830446	-0.745979	1.572444	2.335599	-10.789460	-1.125134	-1.013717	-0.671543	-0.565186	0.672607	-1.063477	0.005736	0.028243	-0.007590	0.810264	-0.254503	-0.527740	0.013824	-53.720947	-58.014405	33.326463
52544		0.433648	2.054772	-1.307298	1.837795	1.387578	-10.716098	-1.080595	-1.162632	-0.945753	-0.578857	0.672363	-1.046143	0.004510	0.020456	-0.013158	0.805857	-0.256309	-0.533690	0.008640	-54.705235	-58.840135	33.754968
52545		0.359206	1.357754	-1.586893	1.888633	0.635229	-10.533911	-0.884550	-1.251477	-1.210559	-0.594482	0.669678	-1.039551	0.003773	0.013485	-0.015905	0.801284	-0.256868	-0.540329	0.002536	-55.563470	-59.838409	34.094948
52546		0.497110	0.925685	-1.261272	1.557516	0.425719	-10.108718	-0.596643	-1.294857	-1.460491	-0.607910	0.665039	-1.026367	0.005120	0.009182	-0.012607	0.797003	-0.255298	-0.547356	-0.003244	-56.160983	-60.944001	34.388913
52547		0.668981	0.820456	-0.444770	0.889008	0.711886	-9.666610	-0.314456	-1.327473	-1.701500	-0.623047	0.651367	-1.017578	0.006789	0.008140	-0.004416	0.792767	-0.252198	-0.554818	-0.009663	-56.543400	-62.197017	34.550192
52548		0.953188	0.886768	0.318770	0.343358	1.153031	-9.221833	-0.046414	-1.341533	-1.938939	-0.638428	0.644287	-1.002197	0.009596	0.008776	0.003250	0.788845	-0.247067	-0.562524	-0.015766	-56.629763	-63.544272	34.617273
52549		1.306739	1.237186	0.857077	0.090595	1.758231	-8.878308	0.183226	-1.346978	-2.157283	-0.653564	0.624023	-0.997803	0.013142	0.012222	0.008670	0.784914	-0.240649	-0.570517	-0.022548	-56.479630	-65.021368	34.501807
52550		1.963048	1.653619	1.095024	0.208842	2.359004	-8.336803	0.349030	-1.358469	-2.350323	-0.677490	0.605713	-0.991211	0.019748	0.016285	0.011113	0.781127	-0.232722	-0.578647	-0.029120	-56.057924	-66.570230	34.258672
52551		2.851425	2.006236	1.570225	0.142977	3.024595	-7.477777	0.455081	-1.366066	-2.529470	-0.685791	0.587891	-0.984375	0.028656	0.019664	0.015943	0.777115	-0.224056	-0.586991	-0.036507	-55.423465	-68.229736	33.795402
52552		3.448685	1.994754	2.240703	-0.345633	3.343979	-6.715856	0.460823	-1.393767	-2.688125	-0.700684	0.565186	-0.975586	0.034593	0.019431	0.022693	0.772966	-0.214621	-0.595420	-0.044015	-54.561107	-69.946189	33.154904
52553		4.169400	1.651338	2.682492	-0.735265	3.261369	-5.796751	0.332989	-1.432752	-2.820884	-0.719727	0.535889	-0.962402	0.041727	0.015880	0.027151	0.768199	-0.205429	-0.604058	-0.052751	-53.583006	-71.758800	32.272574
52554		4.935125	1.547993	3.020228	-0.979403	3.326300	-4.929270	0.030725	-1.482011	-2.959319	-0.734863	0.520020	-0.948975	0.049347	0.014745	0.030570	0.762877	-0.196752	-0.612702	-0.062477	-52.473236	-73.621067	31.128675
52555		5.632096	1.433438	3.113632	-1.057434	3.247295	-4.173167	-0.440637	-1.555452	-3.072949	-0.754395	0.499512	-0.929199	0.056289	0.013539	0.031544	0.756466	-0.189620	-0.621514	-0.074321	-51.352829	-75.579479	29.666455
52556		6.723474	-0.203036	2.800310	-1.258729	1.636538	-2.825467	-0.963913	-1.608314	-3.194157	-0.760498	0.483887	-0.918213	0.066964	-0.002965	0.028555	0.749246	-0.183922	-0.630148	-0.087841	-50.039890	-77.576534	27.749023
52557		7.666224	-2.246909	3.063393	-2.274153	-0.184558	-1.567018	-1.308576	-1.585890	-3.344479	-0.784424	0.463379	-0.902832	0.076028	-0.023540	0.031390	0.741299	-0.179041	-0.638555	-0.103283	-47.966419	-79.642242	24.839745
52558		9.097450	-4.134395	2.684755	-2.695684	-2.116842	-0.050280	-1.513600	-1.543993	-3.436777	-0.792480	0.436523	-0.880615	0.090036	-0.042688	0.027865	0.733097	-0.174455	-0.646429	-0.119431	-44.437184	-81.674387	20.384768
52559		11.086937	-6.991949	1.513064	-2.882188	-5.301845	1.920096	-1.445807	-1.447763	-3.430461	-0.796143	0.411865	-0.867432	0.109534	-0.071690	0.016441	0.724831	-0.169582	-0.653810	-0.135627	-38.035732	-83.618100	13.069712
52560		12.775485	-9.964704	0.840724	-3.782545	-8.474444	3.493697	-1.238380	-1.367247	-3.320442	-0.809082	0.398193	-0.849854	0.126014	-0.101691	0.009898	0.716939	-0.164129	-0.660612	-0.150507	-26.460820	-85.303026	0.729236
52561		14.171768	-12.587122	0.450885	-4.945334	-11.258540	4.617489	-0.920854	-1.273104	-3.139142	-0.819336	0.369141	-0.834229	0.139684	-0.128049	0.005989	0.709365	-0.158150	-0.667010	-0.163972	-5.346069	-86.535242	-20.998369
