// General information: 
//  MT Manager version: 2019.2.0 
//  XDA version: 2019.2.0 build 3853 rev 94535 built on 2019-09-09
// Device information: 
//  DeviceId: 00B40A40
//  ProductCode: MTW2-3A7G6
//  Firmware Version: 4.6.0
//  Hardware Version: 1.1.0
// Device settings: 
//  Filter Profile: human(46.1)
//  Option Flags: Orientation Smoother Disabled, AHS Disabled, ICC Disabled
// Coordinate system: ENU
PacketCounter	SampleTimeFine	Acc_X	Acc_Y	Acc_Z	FreeAcc_E	FreeAcc_N	FreeAcc_U	Gyr_X	Gyr_Y	Gyr_Z	Mag_X	Mag_Y	Mag_Z	VelInc_X	VelInc_Y	VelInc_Z	Quat_q0	Quat_q1	Quat_q2	Quat_q3	Roll	Pitch	Yaw
52023		7.817704	0.382636	5.817580	0.000000	0.000000	-0.060408	0.155817	0.463734	0.312284	-1.067627	0.123047	-0.064209	0.078306	0.003903	0.057997	0.088926	-0.445138	-0.067075	-0.888507	3.850309	-53.412411	-170.506747
52024		8.463903	0.363323	6.123253	-0.000000	-0.000000	0.640238	0.245292	0.494905	0.389791	-1.067871	0.129639	-0.075684	0.084783	0.003723	0.061027	0.096045	-0.450902	-0.069083	-0.884698	3.491439	-54.202924	-169.395371
52025		9.674402	0.308206	6.841397	-0.200943	0.094483	2.038229	0.338659	0.424984	0.461535	-1.065674	0.129639	-0.080322	0.096882	0.003190	0.068214	0.098122	-0.447009	-0.070278	-0.886350	3.571877	-53.726718	-169.175412
52026		10.564701	-0.081854	7.588794	-0.264400	0.501221	3.183009	0.451400	0.270148	0.543961	-1.059082	0.134277	-0.082764	0.105751	-0.000702	0.075743	0.101636	-0.445778	-0.070930	-0.886522	3.394862	-53.591155	-168.634574
52027		9.646765	-0.826667	7.342820	-0.130541	1.251016	2.273598	0.490153	0.142444	0.600827	-1.066406	0.145264	-0.081299	0.096545	-0.008157	0.073339	0.105235	-0.444936	-0.071744	-0.886459	3.233991	-53.507622	-168.090408
52028		8.654247	-1.313125	6.511309	-0.332118	1.633869	0.968664	0.467202	0.064077	0.600892	-1.057861	0.154297	-0.081787	0.086603	-0.013023	0.065055	0.108960	-0.444619	-0.072444	-0.886112	3.034407	-53.489787	-167.509112
52029		9.651315	-1.371798	6.487147	-0.938512	1.467503	1.766534	0.433019	-0.031627	0.540789	-1.060059	0.156494	-0.088623	0.096540	-0.013597	0.064857	0.113275	-0.444818	-0.070476	-0.885629	2.317945	-53.499742	-166.590968
52030		10.822953	-1.329471	6.207302	-1.810874	1.179575	2.547073	0.444605	-0.181047	0.483663	-1.058105	0.163330	-0.082275	0.108205	-0.013171	0.062142	0.116341	-0.445536	-0.071471	-0.884791	2.203232	-53.614325	-166.131707
52031		11.185562	-1.253566	5.897828	-2.111053	0.811639	2.691602	0.501593	-0.178743	0.417238	-1.058105	0.163330	-0.082275	0.111829	-0.012450	0.059047	0.121694	-0.449235	-0.066367	-0.882595	0.761762	-54.011855	-164.687082
52032		11.029642	-1.164267	5.813622	-2.051606	0.719257	2.519396	0.579367	-0.087070	0.413207	-1.061035	0.176758	-0.083252	0.110295	-0.011583	0.058151	0.124789	-0.449401	-0.068049	-0.881950	0.768344	-54.064900	-164.285097
52033		10.361267	-1.157806	5.797955	-1.437664	0.629497	2.013111	0.614203	0.006081	0.411648	-1.056396	0.176758	-0.083252	0.103638	-0.011543	0.057941	0.131314	-0.457368	-0.061405	-0.877382	-1.234045	-54.954962	-162.334085
52034		9.552382	-1.202765	5.658178	-1.127489	0.773385	1.270645	0.591879	0.048252	0.385563	-1.049805	0.179199	-0.083252	0.095561	-0.012011	0.056523	0.134373	-0.456884	-0.063088	-0.877052	-1.208789	-54.922613	-161.950637
52035		8.725438	-1.167377	5.363111	-0.664975	0.656816	0.453051	0.593874	0.004426	0.349289	-1.054688	0.185791	-0.085938	0.087276	-0.011681	0.053595	0.140717	-0.465822	-0.056074	-0.871817	-3.407266	-55.894209	-159.854322
52036		8.087518	-1.150158	4.956313	-0.653034	0.672790	-0.303916	0.624308	-0.087063	0.308820	-1.050049	0.185791	-0.088135	0.080871	-0.011531	0.049562	0.143492	-0.465846	-0.058137	-0.871216	-3.314914	-55.933633	-159.533927
52037		7.886807	-1.029241	4.676780	-0.551566	0.409670	-0.611532	0.638872	-0.176294	0.260050	-1.052490	0.190186	-0.086182	0.078840	-0.010339	0.046804	0.149189	-0.473657	-0.052369	-0.866400	-5.294821	-56.759670	-157.597746
52038		8.162482	-1.088954	4.435338	-0.894497	0.365885	-0.509455	0.642949	-0.262959	0.231103	-1.048096	0.194824	-0.084229	0.081579	-0.010938	0.044426	0.151643	-0.474374	-0.054803	-0.865431	-5.149144	-56.897657	-157.331681
52039		8.622546	-1.308339	4.273542	-1.152849	0.350939	-0.175730	0.644885	-0.341173	0.203745	-1.052490	0.190186	-0.081787	0.086166	-0.013134	0.042840	0.156354	-0.481578	-0.051041	-0.860831	-6.736719	-57.680075	-155.698364
52040		9.132758	-1.534830	4.302334	-1.427471	0.477751	0.287166	0.645526	-0.402552	0.196473	-1.048340	0.194824	-0.079834	0.091256	-0.015398	0.043157	0.158650	-0.482852	-0.053661	-0.859537	-6.586800	-57.896105	-155.438412
52041		9.520791	-1.807974	4.330261	-1.482685	0.586789	0.681245	0.625278	-0.401955	0.176035	-1.050781	0.199219	-0.075684	0.095137	-0.018132	0.043437	0.163057	-0.490492	-0.051057	-0.854531	-8.055968	-58.752160	-153.854008
52042		9.858568	-2.076184	4.545293	-1.527465	0.835291	1.102011	0.611841	-0.377184	0.161613	-1.043945	0.199463	-0.068848	0.098517	-0.020822	0.045575	0.165151	-0.491643	-0.053582	-0.853312	-7.906791	-58.953321	-153.618705
52043		10.096524	-2.258337	4.747578	-1.321874	0.934997	1.454865	0.599270	-0.348177	0.165063	-1.043945	0.199463	-0.066650	0.100901	-0.022643	0.047584	0.168270	-0.499094	-0.050267	-0.848566	-9.446891	-59.762409	-152.131273
52044		9.974062	-2.370771	4.841524	-1.208806	1.110156	1.405562	0.573064	-0.316043	0.198084	-1.048340	0.199219	-0.071045	0.099688	-0.023748	0.048505	0.170460	-0.499999	-0.052470	-0.847461	-9.362186	-59.922510	-151.849497
52045		9.646217	-2.264585	4.692771	-0.981653	0.963532	1.064255	0.572140	-0.287357	0.229982	-1.052734	0.197021	-0.064209	0.096421	-0.022669	0.047001	0.175444	-0.505979	-0.049505	-0.843062	-11.019630	-60.518383	-150.046736
52046		9.287327	-2.063982	4.676548	-0.760008	0.869120	0.725414	0.572253	-0.251129	0.253900	-1.043945	0.201660	-0.062256	0.092841	-0.020656	0.046823	0.177899	-0.506595	-0.051495	-0.842058	-10.993627	-60.631849	-149.700153
52047		9.045814	-1.731336	4.600577	-0.475351	0.509403	0.458833	0.573239	-0.242541	0.272291	-1.042236	0.212891	-0.060791	0.090426	-0.017322	0.046066	0.190121	-0.511104	-0.053094	-0.836545	-12.603296	-61.081909	-146.936235
52048		8.938813	-1.372390	4.585828	-0.297595	0.208474	0.320605	0.556631	-0.235565	0.289563	-1.039795	0.208496	-0.053711	0.089354	-0.013722	0.045925	0.192691	-0.511634	-0.054906	-0.835515	-12.631482	-61.177381	-146.539860
52049		8.693053	-1.085575	4.470831	-0.147067	-0.041369	0.021570	0.520557	-0.239679	0.303766	-1.044678	0.217285	-0.061035	0.086893	-0.010840	0.044784	0.187531	-0.513532	-0.050025	-0.835832	-13.120422	-61.308193	-146.910391
52050		8.517544	-0.850869	4.332389	-0.089404	-0.247840	-0.222449	0.486532	-0.239726	0.300882	-1.040527	0.221924	-0.054443	0.085136	-0.008486	0.043405	0.189976	-0.514150	-0.051510	-0.834808	-13.206250	-61.402684	-146.494959
52051		8.406281	-0.738824	4.157070	-0.031227	-0.415615	-0.414873	0.467970	-0.229599	0.280527	-1.047119	0.221680	-0.054443	0.084025	-0.007368	0.041650	0.187013	-0.519428	-0.045453	-0.832559	-14.570438	-61.873542	-145.917008
52052		8.301386	-0.689045	4.043652	-0.051719	-0.461758	-0.564823	0.456198	-0.212499	0.253840	-1.042725	0.226318	-0.057129	0.082980	-0.006877	0.040509	0.189206	-0.519941	-0.046891	-0.831663	-14.630343	-61.954703	-145.552840
52053		8.163332	-0.630937	4.039314	0.119002	-0.501157	-0.697382	0.440460	-0.175833	0.217421	-1.038086	0.221924	-0.047852	0.081605	-0.006310	0.040451	0.190424	-0.524139	-0.045180	-0.828840	-15.607849	-62.382412	-144.635635
52054		7.994640	-0.641240	4.027492	0.179835	-0.444868	-0.850774	0.395985	-0.152064	0.188414	-1.040771	0.230713	-0.055176	0.079922	-0.006417	0.040323	0.192208	-0.524433	-0.046471	-0.828170	-15.624838	-62.437258	-144.360475
52055		7.895006	-0.730256	4.016471	0.170219	-0.330547	-0.932474	0.381537	-0.131834	0.163236	-1.038574	0.233154	-0.048584	0.078930	-0.007315	0.040203	0.191907	-0.524236	-0.046935	-0.828339	-15.473808	-62.437303	-144.497738
52056		7.859519	-0.813028	3.948271	0.101857	-0.258561	-0.984060	0.341968	-0.119980	0.143554	-1.036377	0.235352	-0.053223	0.078577	-0.008141	0.039516	0.193369	-0.524438	-0.048090	-0.827805	-15.465086	-62.481618	-144.286605
52057		7.899995	-0.799936	3.863132	0.044579	-0.298057	-0.987565	0.291389	-0.100732	0.118893	-1.038574	0.228516	-0.050537	0.078985	-0.008009	0.038659	0.183517	-0.526550	-0.041966	-0.829039	-15.633516	-62.680813	-145.478748
52058		7.916176	-0.733589	3.767866	-0.015534	-0.385360	-1.023372	0.244481	-0.076278	0.095491	-1.043213	0.232910	-0.048340	0.079151	-0.007344	0.037700	0.184540	-0.526661	-0.042798	-0.828698	-15.618373	-62.708161	-145.338152
52059		7.922044	-0.681686	3.622639	-0.130605	-0.457344	-1.087965	0.212983	-0.043063	0.053147	-1.036377	0.235352	-0.050781	0.079214	-0.006834	0.036236	0.186689	-0.526175	-0.045467	-0.828384	-15.321372	-62.713587	-145.227902
52060		7.888068	-0.664150	3.704540	-0.041383	-0.438172	-1.083849	0.173631	-0.025102	0.026352	-1.038818	0.235107	-0.055420	0.078877	-0.006663	0.037050	0.187250	-0.526123	-0.046140	-0.828253	-15.257532	-62.723484	-145.187803
52061		7.815124	-0.758936	3.596985	-0.117896	-0.366926	-1.184715	0.123390	-0.005077	-0.007019	-1.036133	0.228516	-0.045898	0.078150	-0.007614	0.035967	0.193291	-0.526502	-0.049489	-0.826429	-15.442342	-62.793490	-144.211057
52062		7.856977	-0.828204	3.577719	-0.178332	-0.314932	-1.147406	0.087546	0.006663	-0.039012	-1.038574	0.230713	-0.046143	0.078569	-0.008313	0.035771	0.193362	-0.526380	-0.049947	-0.826463	-15.348355	-62.795732	-144.260339
52063		8.024546	-0.882914	3.416840	-0.411851	-0.331463	-1.062363	0.062841	0.023914	-0.076855	-1.040771	0.232910	-0.050781	0.080246	-0.008871	0.034156	0.194533	-0.525759	-0.052677	-0.826414	-14.898346	-62.808468	-144.380409
52064		8.320094	-0.899552	3.419789	-0.531735	-0.386517	-0.796260	0.032690	0.044073	-0.108582	-1.045410	0.230713	-0.048340	0.083204	-0.009046	0.034178	0.194181	-0.525517	-0.053055	-0.826626	-14.750045	-62.800000	-144.526094
52065		8.577538	-0.976375	3.369202	-0.686830	-0.373806	-0.578647	0.003339	0.073055	-0.129834	-1.036133	0.228516	-0.050537	0.085781	-0.009820	0.033661	0.192728	-0.526357	-0.053484	-0.826404	-14.579500	-62.946641	-144.789791
52066		8.768001	-0.975425	3.346164	-0.789324	-0.423300	-0.419931	-0.042126	0.128496	-0.161666	-1.041016	0.235107	-0.052979	0.087694	-0.009818	0.033407	0.191984	-0.525824	-0.053612	-0.826908	-14.392235	-62.898571	-145.027227
52067		8.911921	-1.026182	3.376014	-0.842266	-0.379279	-0.272271	-0.088955	0.200948	-0.201710	-1.040527	0.226318	-0.054688	0.089143	-0.010337	0.033675	0.186885	-0.526085	-0.051441	-0.828048	-14.176601	-62.932761	-145.859908
52068		8.914953	-1.047831	3.462995	-0.801731	-0.328451	-0.230623	-0.142088	0.269240	-0.229673	-1.042725	0.223877	-0.056885	0.089184	-0.010556	0.034517	0.185629	-0.525043	-0.051205	-0.829005	-13.935804	-62.815118	-146.221952
52069		8.809142	-0.975290	3.639374	-0.595758	-0.297525	-0.254776	-0.196962	0.361367	-0.269550	-1.040283	0.219482	-0.061035	0.088144	-0.009836	0.036244	0.182908	-0.524784	-0.050706	-0.829804	-13.647895	-62.808667	-146.782075
52070		8.614696	-0.834429	3.897189	-0.290425	-0.304773	-0.330074	-0.253707	0.443424	-0.318858	-1.046875	0.214844	-0.065430	0.086220	-0.008432	0.038791	0.181031	-0.523094	-0.050084	-0.831320	-13.334199	-62.604281	-147.298659
52071		8.369658	-0.644498	4.175809	0.084637	-0.327565	-0.443094	-0.303801	0.515068	-0.352194	-1.046631	0.212646	-0.069580	0.083792	-0.006529	0.041552	0.182361	-0.521857	-0.052161	-0.831678	-12.964374	-62.505936	-147.376011
52072		8.108238	-0.611990	4.078366	0.066219	-0.320962	-0.721839	-0.373556	0.551157	-0.384130	-1.051270	0.210449	-0.069580	0.081183	-0.006200	0.040572	0.179931	-0.519802	-0.051107	-0.833558	-12.634640	-62.246803	-147.989746
52073		8.155131	-0.426794	4.396631	0.357909	-0.400651	-0.553647	-0.423320	0.588340	-0.422853	-1.046387	0.206055	-0.078125	0.081671	-0.004348	0.043735	0.175496	-0.519153	-0.049854	-0.834983	-12.245001	-62.185877	-148.858263
52074		8.733842	-0.145087	4.844428	0.548084	-0.686283	0.137079	-0.469875	0.558347	-0.487774	-1.052979	0.203613	-0.084717	0.087470	-0.001551	0.048204	0.172377	-0.517108	-0.048669	-0.836969	-11.872931	-61.931501	-149.584190
52075		10.640352	0.291983	5.863834	0.743512	-1.257587	2.251817	-0.479716	0.410445	-0.553616	-1.048096	0.190186	-0.088623	0.106531	0.002765	0.058413	0.164011	-0.517061	-0.045901	-0.838833	-11.355913	-61.946933	-151.043363
52076		12.387398	0.568407	7.416446	1.388891	-1.515280	4.489379	-0.514848	0.167559	-0.587546	-1.052490	0.190186	-0.086182	0.123952	0.005511	0.074046	0.160253	-0.516642	-0.045123	-0.839859	-10.996637	-61.918102	-151.784848
52077		11.714056	0.734494	7.008901	1.362279	-1.549746	3.701220	-0.587559	-0.034832	-0.577673	-1.049805	0.178955	-0.087891	0.117149	0.007212	0.070088	0.157781	-0.517375	-0.046761	-0.839786	-10.430167	-62.095096	-152.428381
52078		9.633362	0.991844	5.298265	0.834030	-1.727157	1.058295	-0.329859	-0.036767	-0.553309	-1.056641	0.178955	-0.085449	0.096351	0.009739	0.052984	0.154595	-0.517659	-0.046836	-0.840200	-10.036076	-62.172275	-153.087970
52079		9.137410	1.713397	5.100391	1.092622	-2.272223	0.487068	-0.038470	-0.065310	-0.560066	-1.058594	0.174561	-0.083008	0.091405	0.016888	0.051030	0.153316	-0.517986	-0.050929	-0.839995	-9.085364	-62.353498	-153.807942
52080		10.507743	2.212561	5.665569	1.154326	-2.834930	1.936234	-0.042492	-0.225159	-0.560487	-1.053711	0.165771	-0.078125	0.105075	0.021843	0.056769	0.150792	-0.518820	-0.052375	-0.839848	-8.539270	-62.530319	-154.451400
52081		11.697208	2.212841	5.097135	0.114527	-3.100286	2.760178	-0.201213	-0.302390	-0.518406	-1.060059	0.156738	-0.075195	0.116952	0.021877	0.051126	0.138883	-0.520689	-0.050066	-0.840885	-7.602573	-62.821262	-156.596173
52082		11.208629	1.841442	4.471998	-0.318993	-2.754402	2.075729	-0.325558	-0.148202	-0.427450	-1.064453	0.154297	-0.072754	0.112092	0.018248	0.044773	0.136200	-0.521430	-0.049913	-0.840874	-7.336295	-62.937475	-157.104942
52083		10.220855	1.760796	4.655975	0.109487	-2.359738	1.307743	-0.363536	0.024098	-0.373589	-1.062256	0.154297	-0.074951	0.102247	0.017502	0.046516	0.114204	-0.522389	-0.041685	-0.843996	-6.198484	-63.038242	-160.784244
52084		9.809842	1.777813	4.798111	0.394143	-2.272811	1.008330	-0.346292	0.098523	-0.348030	-1.066650	0.149902	-0.072510	0.098153	0.017690	0.047902	0.111849	-0.522098	-0.041077	-0.844521	-5.995150	-63.003521	-161.235073
52085		9.426588	1.596830	5.122522	0.642490	-1.921122	0.843162	-0.308819	0.098221	-0.285260	-1.062012	0.147705	-0.074707	0.094314	0.015913	0.051154	0.082648	-0.522352	-0.028840	-0.848225	-4.725641	-62.988036	-165.973490
52086		9.291985	1.433780	5.439240	0.939698	-1.697092	0.874636	-0.306168	0.020473	-0.233322	-1.061768	0.143311	-0.076660	0.092942	0.014313	0.054361	0.080859	-0.522359	-0.028144	-0.848417	-4.637189	-62.987451	-166.269684
52087		9.436693	1.251710	5.378042	0.787514	-1.470502	0.992808	-0.350564	-0.076195	-0.211051	-1.068115	0.134277	-0.071533	0.094360	0.012512	0.053794	0.082440	-0.522113	-0.032629	-0.848255	-3.883651	-63.018128	-166.516648
52088		9.631861	0.979881	5.256924	0.553171	-1.239260	1.120126	-0.369972	-0.114889	-0.199050	-1.061523	0.138916	-0.067383	0.096298	0.009800	0.052606	0.080608	-0.522720	-0.031629	-0.848095	-3.879834	-63.091703	-166.758724
52089		9.757161	0.823115	5.372567	0.516736	-1.030631	1.296541	-0.406591	-0.120378	-0.175485	-1.064209	0.145508	-0.065430	0.097546	0.008255	0.053768	0.070483	-0.521933	-0.028721	-0.849584	-3.126726	-62.986607	-168.599103
52090		9.598857	0.821626	5.440199	0.656198	-1.011755	1.185250	-0.421574	-0.100673	-0.151416	-1.070313	0.134277	-0.060303	0.095967	0.008258	0.054433	0.068722	-0.522487	-0.027363	-0.849433	-3.203404	-63.049168	-168.784097
52091		9.223513	1.010223	5.437472	0.805069	-1.143033	0.850575	-0.406475	-0.060706	-0.156276	-1.065918	0.132080	-0.057861	0.092227	0.010141	0.054382	0.055163	-0.522501	-0.021632	-0.850577	-2.634480	-63.029687	-170.963166
52092		8.747346	1.081045	5.398803	0.993797	-1.191191	0.406179	-0.405327	-0.034579	-0.147664	-1.065674	0.129883	-0.060059	0.087472	0.010855	0.053981	0.053469	-0.522744	-0.020306	-0.850569	-2.701322	-63.053569	-171.148703
52093		8.364632	1.065030	5.302391	1.022647	-1.153512	0.028060	-0.435892	-0.016096	-0.125793	-1.068115	0.132080	-0.057861	0.083649	0.010713	0.053007	0.045658	-0.521379	-0.016807	-0.851937	-2.383734	-62.860557	-172.407709
52094		8.077347	0.891562	5.127531	0.978932	-0.990923	-0.305335	-0.440270	-0.003254	-0.091137	-1.063477	0.129883	-0.057861	0.080777	0.008992	0.051257	0.044117	-0.521485	-0.015173	-0.851984	-2.533114	-62.864828	-172.523286
52095		7.841596	0.712449	4.969525	0.900990	-0.807672	-0.580665	-0.441285	0.016033	-0.055831	-1.068115	0.134277	-0.053711	0.078422	0.007212	0.049673	0.040174	-0.520578	-0.013391	-0.852764	-2.376006	-62.739735	-173.156798
52096		7.508073	0.574011	4.836706	0.920469	-0.678576	-0.936505	-0.424391	0.026856	-0.020652	-1.072754	0.134277	-0.058105	0.075088	0.005835	0.048345	0.038978	-0.520547	-0.011633	-0.852864	-2.593587	-62.725062	-173.185546
52097		7.285164	0.643257	4.693288	0.881280	-0.738174	-1.199165	-0.402568	0.033291	-0.009290	-1.065918	0.132080	-0.057861	0.072860	0.006524	0.046908	0.033207	-0.520149	-0.009312	-0.853379	-2.328573	-62.671192	-174.125257
52098		7.098714	0.759555	4.660390	0.940892	-0.865246	-1.383338	-0.390256	0.032060	-0.007043	-1.068115	0.129883	-0.051025	0.070995	0.007684	0.046578	0.032159	-0.520076	-0.007663	-0.853480	-2.541537	-62.653181	-174.137200
52099		6.998455	0.926019	4.552506	0.877535	-1.037094	-1.523204	-0.376809	0.027421	-0.027189	-1.065918	0.134277	-0.058105	0.069992	0.009336	0.045498	0.028827	-0.519273	-0.005848	-0.854102	-2.479685	-62.543543	-174.627698
52100		7.015844	1.014128	4.558808	0.875136	-1.139424	-1.507924	-0.343048	0.030120	-0.049880	-1.070557	0.138672	-0.056152	0.070168	0.010202	0.045560	0.027719	-0.519193	-0.004512	-0.854196	-2.618443	-62.527775	-174.692805
52101		7.105833	1.085874	4.549330	0.828265	-1.198778	-1.431441	-0.320636	0.029496	-0.073360	-1.065918	0.134277	-0.055908	0.071069	0.010906	0.045465	0.027002	-0.519195	-0.005343	-0.854212	-2.350026	-62.535201	-174.951729
52102		7.105162	1.007308	4.533640	0.805532	-1.129433	-1.438478	-0.309128	0.022792	-0.093702	-1.070313	0.132080	-0.055664	0.071062	0.010110	0.045313	0.025795	-0.519138	-0.004266	-0.854291	-2.421670	-62.524587	-175.070579
52103		7.227626	0.978187	4.539236	0.742758	-1.089810	-1.323829	-0.285530	0.031779	-0.114772	-1.072510	0.131836	-0.055664	0.072289	0.009805	0.045367	0.024388	-0.518756	-0.004666	-0.854562	-2.149111	-62.479540	-175.426900
52104		7.257546	1.024736	4.632266	0.807745	-1.138639	-1.255177	-0.280569	0.038390	-0.129449	-1.067871	0.127686	-0.053223	0.072591	0.010265	0.046294	0.023104	-0.518624	-0.003802	-0.854682	-2.164894	-62.460563	-175.590359
52105		7.335150	1.075385	4.719873	0.832993	-1.171686	-1.142546	-0.264160	0.045972	-0.141471	-1.070313	0.129883	-0.055664	0.073370	0.010764	0.047168	0.020584	-0.517965	-0.003780	-0.855146	-1.836597	-62.378086	-176.130391
52106		7.444518	1.177379	4.896316	0.935001	-1.274031	-0.964885	-0.247636	0.055671	-0.145516	-1.070313	0.132080	-0.051270	0.074467	0.011780	0.048928	0.019317	-0.517750	-0.003095	-0.855308	-1.816214	-62.349088	-176.313535
52107		7.592353	1.182813	5.141611	1.070421	-1.259745	-0.716190	-0.240905	0.069347	-0.148284	-1.067871	0.127686	-0.057617	0.075950	0.011834	0.051376	0.016954	-0.517352	-0.003109	-0.855599	-1.506699	-62.300417	-176.818882
52108		7.701563	1.106024	5.238860	1.093264	-1.184777	-0.572336	-0.234058	0.081803	-0.150135	-1.072266	0.125244	-0.050781	0.077045	0.011064	0.052344	0.015704	-0.517021	-0.002492	-0.855825	-1.473857	-62.256054	-177.007465
52109		7.709323	1.053141	5.333236	1.152403	-1.113118	-0.516500	-0.225475	0.098850	-0.145909	-1.072266	0.123047	-0.052979	0.077127	0.010535	0.053282	0.013730	-0.516293	-0.002620	-0.856298	-1.189139	-62.162277	-177.445952
52110		7.673537	1.005398	5.488365	1.291996	-1.062739	-0.473659	-0.225369	0.121862	-0.153308	-1.070068	0.125244	-0.057617	0.076776	0.010057	0.054826	0.012490	-0.515787	-0.002044	-0.856624	-1.148647	-62.094555	-177.637826
52111		7.727005	0.955591	5.579879	1.322563	-0.994948	-0.377874	-0.223244	0.149364	-0.146981	-1.072021	0.116455	-0.056885	0.077319	0.009561	0.055730	0.010449	-0.514805	-0.002177	-0.857241	-0.856598	-61.966018	-178.088949
52112		7.795813	0.859831	5.578688	1.269600	-0.901616	-0.314743	-0.213428	0.175010	-0.141417	-1.067383	0.116455	-0.059326	0.078013	0.008603	0.055709	0.009292	-0.514066	-0.001619	-0.857699	-0.823580	-61.867280	-178.264983
52113		7.773231	0.741672	5.636795	1.294109	-0.768952	-0.300558	-0.205611	0.205639	-0.126144	-1.067627	0.118652	-0.059326	0.077795	0.007426	0.056280	0.007784	-0.512514	-0.001731	-0.858642	-0.604311	-61.661525	-178.600558
52114		7.940501	0.769073	5.743005	1.286314	-0.799756	-0.100279	-0.198582	0.223628	-0.107317	-1.069580	0.114014	-0.061279	0.079473	0.007705	0.057334	0.006813	-0.511563	-0.001146	-0.859218	-0.601148	-61.534442	-178.733516
52115		8.026103	0.788492	5.781804	1.245151	-0.812062	-0.001499	-0.196792	0.214957	-0.080355	-1.069580	0.116211	-0.068115	0.080326	0.007909	0.057724	0.005610	-0.510141	-0.001003	-0.860072	-0.477734	-61.345549	-178.969229
52116		7.979344	0.865038	5.780838	1.244452	-0.894419	-0.040911	-0.196549	0.224869	-0.053595	-1.062744	0.114258	-0.068115	0.079861	0.008686	0.057710	0.004876	-0.509183	-0.000290	-0.860645	-0.531572	-61.217465	-179.036277
52117		7.807788	0.875430	5.724971	1.245673	-0.895103	-0.213195	-0.199351	0.249029	-0.027620	-1.074219	0.116211	-0.072754	0.078150	0.008801	0.057144	0.005369	-0.507625	-0.000932	-0.861561	-0.454630	-61.010623	-179.018027
52118		7.671790	0.857811	5.526806	1.111801	-0.887006	-0.425737	-0.145888	0.279760	0.009264	-1.064941	0.114258	-0.072510	0.076795	0.008622	0.055154	0.005037	-0.506427	-0.000274	-0.862268	-0.544681	-60.850834	-179.010671
52119		7.566827	0.743805	5.319176	0.940899	-0.762435	-0.612846	-0.059293	0.319450	0.044704	-1.069580	0.116211	-0.077148	0.075751	0.007471	0.053069	0.005377	-0.504463	-0.001150	-0.863416	-0.401368	-60.590741	-179.051860
52120		7.468493	0.632413	5.190417	0.844608	-0.656805	-0.758742	0.045339	0.371937	0.085758	-1.067383	0.118408	-0.083984	0.074779	0.006344	0.051767	0.005861	-0.502860	-0.001120	-0.864348	-0.458876	-60.377858	-178.955972
52121		7.346086	0.498354	5.057853	0.744463	-0.507616	-0.925437	0.138827	0.397782	0.119947	-1.067383	0.116211	-0.086182	0.073558	0.004993	0.050436	0.007410	-0.500581	-0.002872	-0.865653	-0.281068	-60.077529	-178.856591
52122		7.347591	0.506881	5.061773	0.712086	-0.517658	-0.919408	0.234751	0.421939	0.164843	-1.065186	0.118408	-0.097656	0.073578	0.005070	0.050469	0.008715	-0.498751	-0.003460	-0.866695	-0.307369	-59.835907	-178.670884
52123		7.902710	0.573630	5.283360	0.575953	-0.569576	-0.323774	0.323013	0.455939	0.221719	-1.065430	0.123047	-0.100098	0.079141	0.005739	0.052663	0.011612	-0.496140	-0.005971	-0.868144	-0.130252	-59.494598	-178.392978
52124		9.185324	0.617238	5.992516	0.495304	-0.617536	1.143342	0.427899	0.419163	0.286317	-1.070068	0.127197	-0.106934	0.091970	0.006176	0.059746	0.013926	-0.494306	-0.007095	-0.869147	-0.160820	-59.254629	-178.072599
52125		11.197114	0.574820	6.496884	-0.149388	-0.574398	3.131924	0.523737	0.209495	0.384516	-1.067871	0.129639	-0.107178	0.112028	0.005794	0.064867	0.017876	-0.492772	-0.010241	-0.869915	0.022367	-59.059840	-177.658280
52126		11.471192	-0.066870	6.746330	-0.116554	0.055825	3.494790	0.638955	0.036621	0.531894	-1.070557	0.138428	-0.112305	0.114726	-0.000579	0.067440	0.021764	-0.492583	-0.011707	-0.869915	-0.119502	-59.039171	-177.066030
52127		9.482470	-0.887312	7.133087	1.167496	0.958740	1.989992	0.709344	0.057274	0.665182	-1.061768	0.143066	-0.112549	0.094874	-0.008810	0.071272	0.026945	-0.491695	-0.014817	-0.870224	-0.078676	-58.933441	-176.408546
52128		8.466941	-1.584924	7.619586	2.050144	1.700737	1.374964	0.619599	-0.005894	0.686842	-1.063965	0.143066	-0.114746	0.084721	-0.015794	0.076149	0.031456	-0.491687	-0.015825	-0.870060	-0.376946	-58.935775	-175.645938
52129		9.350330	-2.195611	7.031772	1.023990	2.245623	1.832216	0.520687	-0.194550	0.635164	-1.066650	0.154053	-0.110840	0.093504	-0.021842	0.070352	0.036544	-0.491891	-0.018093	-0.869702	-0.498023	-58.972320	-174.906208
52130		10.107511	-2.200848	6.036187	-0.200515	2.125630	1.972153	0.498351	-0.308469	0.558714	-1.058105	0.160889	-0.106934	0.101043	-0.021877	0.060463	0.040171	-0.493191	-0.018942	-0.868787	-0.749758	-59.146028	-174.279840
52131		10.248256	-1.806940	5.184621	-0.967034	1.651132	1.655121	0.557368	-0.201107	0.512265	-1.062744	0.169678	-0.107422	0.102476	-0.017952	0.051899	0.044351	-0.493431	-0.021136	-0.868396	-0.789693	-59.189036	-173.704162
52132		9.865891	-1.365007	4.887548	-0.978658	1.189920	1.174282	0.694868	-0.063751	0.495585	-1.058105	0.165527	-0.100342	0.098677	-0.013575	0.048860	0.048210	-0.493605	-0.022944	-0.868046	-0.869078	-59.221900	-173.148312
52133		9.350604	-1.081069	5.021925	-0.590665	0.944560	0.797739	0.758774	0.021599	0.478022	-1.054199	0.176758	-0.103271	0.093537	-0.010778	0.050168	0.052543	-0.492945	-0.025631	-0.868094	-0.815959	-59.152926	-172.609502
52134		8.738346	-0.664703	5.170833	-0.111894	0.580415	0.345493	0.687477	0.001282	0.430580	-1.049561	0.172363	-0.103027	0.087398	-0.006637	0.051685	0.056107	-0.492814	-0.027552	-0.867887	-0.835479	-59.149131	-172.128014
52135		8.558286	-0.567792	5.085788	-0.085285	0.482877	0.146802	0.623291	-0.102052	0.402841	-1.054443	0.181152	-0.101318	0.085568	-0.005664	0.050884	0.060278	-0.492923	-0.029662	-0.867475	-0.890523	-59.179138	-171.544526
52136		8.660424	-0.467718	5.067843	-0.127586	0.374175	0.224664	0.651505	-0.198411	0.379865	-1.052246	0.185547	-0.106201	0.086563	-0.004678	0.050749	0.063503	-0.493645	-0.031609	-0.866766	-0.886347	-59.290059	-171.115047
52137		8.910393	-0.507731	4.993837	-0.309028	0.388391	0.402248	0.662950	-0.262939	0.354167	-1.050293	0.190186	-0.102051	0.089047	-0.005085	0.050039	0.067271	-0.494371	-0.034070	-0.865974	-0.844999	-59.407479	-170.634033
52138		9.199594	-0.605332	5.048196	-0.397417	0.473738	0.680206	0.656331	-0.312304	0.329115	-1.050537	0.194580	-0.106689	0.091927	-0.006068	0.050606	0.070267	-0.495560	-0.036201	-0.864969	-0.794127	-59.584441	-170.256727
52139		9.490858	-0.632311	5.339613	-0.274213	0.522493	1.079483	0.594075	-0.367735	0.284429	-1.052734	0.196777	-0.097900	0.094819	-0.006347	0.053552	0.074063	-0.496731	-0.038908	-0.863863	-0.723224	-59.766301	-169.783930
52140		9.966786	-0.855484	5.487619	-0.385341	0.733201	1.566963	0.524139	-0.379489	0.209385	-1.050781	0.201416	-0.095947	0.099573	-0.008595	0.055043	0.076198	-0.498221	-0.040790	-0.862732	-0.635218	-59.983082	-169.538604
52141		10.412985	-1.188584	5.586782	-0.549089	1.050700	2.004652	0.517280	-0.378494	0.159874	-1.048340	0.199219	-0.089111	0.104033	-0.011947	0.056034	0.078971	-0.499443	-0.043293	-0.861653	-0.492500	-60.172952	-169.241538
52142		10.412098	-1.698785	5.670934	-0.535385	1.584706	2.047293	0.523550	-0.352910	0.152507	-1.048340	0.197021	-0.084473	0.104034	-0.017057	0.056848	0.080864	-0.500794	-0.045303	-0.860589	-0.349705	-60.375390	-169.060705
52143		10.125741	-2.121018	5.636618	-0.481211	2.033533	1.781877	0.528946	-0.324081	0.166090	-1.053223	0.205811	-0.084961	0.101184	-0.021275	0.056474	0.083669	-0.501930	-0.047520	-0.859539	-0.268128	-60.552807	-168.723948
52144		9.790097	-2.341776	5.607676	-0.365680	2.294236	1.473528	0.528536	-0.296352	0.180885	-1.050781	0.203613	-0.087158	0.097839	-0.023478	0.056160	0.085708	-0.503032	-0.049457	-0.858584	-0.152427	-60.723294	-168.509441
52145		9.516796	-2.139477	5.437119	-0.331688	2.103895	1.149640	0.499904	-0.262391	0.192391	-1.048828	0.208008	-0.082764	0.095117	-0.021439	0.054442	0.088421	-0.503769	-0.051510	-0.857756	-0.084778	-60.847983	-168.179210
52146		9.228762	-1.701444	5.315181	-0.192711	1.691773	0.837047	0.447373	-0.256534	0.218826	-1.051025	0.210205	-0.083008	0.092238	-0.017033	0.053232	0.090427	-0.504735	-0.052986	-0.856889	-0.056454	-60.995966	-167.918557
52147		8.885496	-1.177104	5.113794	-0.078719	1.177273	0.438961	0.424369	-0.266825	0.262681	-1.046875	0.214844	-0.078857	0.088802	-0.011763	0.051231	0.093377	-0.505546	-0.054492	-0.855999	-0.133061	-61.124489	-167.470445
52148		8.445754	-0.806969	4.941806	0.084681	0.831242	-0.029783	0.409465	-0.296881	0.296689	-1.042480	0.217285	-0.072266	0.084396	-0.008046	0.049527	0.095609	-0.506715	-0.055627	-0.854988	-0.211401	-61.295302	-167.113622
52149		8.105619	-0.440890	4.753909	0.190059	0.468575	-0.419108	0.415209	-0.339165	0.305619	-1.044434	0.212646	-0.065186	0.080982	-0.004384	0.047667	0.099055	-0.507937	-0.057028	-0.853778	-0.389736	-61.477293	-166.532537
52150		7.893537	-0.163220	4.606247	0.256363	0.194868	-0.677683	0.410231	-0.356290	0.290369	-1.042725	0.223877	-0.068115	0.078856	-0.001612	0.046200	0.101244	-0.509346	-0.058210	-0.852600	-0.468218	-61.681567	-166.176360
52151		7.720435	-0.055035	4.422469	0.236894	0.068995	-0.918565	0.380381	-0.361628	0.271265	-1.042725	0.226074	-0.061523	0.077125	-0.000530	0.044363	0.104254	-0.510745	-0.059456	-0.851314	-0.640004	-61.885313	-165.652684
52152		7.614323	-0.021990	4.217596	0.149120	0.010132	-1.109578	0.348876	-0.350922	0.242813	-1.040283	0.221680	-0.065674	0.076069	-0.000201	0.042309	0.106085	-0.512141	-0.060494	-0.850175	-0.709746	-62.086335	-165.347634
52153		7.597886	-0.117150	4.005603	-0.019121	0.057451	-1.223001	0.330122	-0.329182	0.207914	-1.040771	0.230713	-0.059570	0.075914	-0.001159	0.040179	0.108739	-0.513345	-0.061747	-0.849023	-0.836265	-62.265345	-164.898002
52154		7.606367	-0.216485	3.816320	-0.183428	0.116449	-1.302651	0.314732	-0.309352	0.168275	-1.040527	0.226318	-0.054688	0.076006	-0.002161	0.038277	0.110177	-0.514553	-0.062809	-0.848028	-0.849096	-62.442912	-164.680357
52155		7.682434	-0.368321	3.785730	-0.258264	0.247559	-1.247690	0.295145	-0.282153	0.132756	-1.038574	0.230713	-0.055176	0.076773	-0.003688	0.037960	0.112404	-0.515560	-0.064099	-0.847027	-0.910517	-62.597572	-164.328044
52156		7.709120	-0.464447	3.748037	-0.305970	0.335460	-1.240182	0.255448	-0.257779	0.099536	-1.036377	0.235352	-0.050781	0.077045	-0.004654	0.037574	0.113414	-0.516555	-0.065059	-0.846213	-0.883543	-62.746279	-164.194110
52157		7.801737	-0.532706	3.657459	-0.423847	0.368922	-1.198042	0.223464	-0.225618	0.089147	-1.038574	0.232910	-0.052979	0.077978	-0.005333	0.036657	0.115416	-0.517342	-0.066178	-0.845374	-0.945975	-62.869631	-163.873154
52158		7.980907	-0.596190	3.656851	-0.503123	0.412804	-1.037762	0.190470	-0.194923	0.070032	-1.036621	0.237549	-0.051025	0.079775	-0.005969	0.036641	0.116154	-0.518096	-0.066903	-0.844753	-0.923965	-62.982715	-163.775806
52159		8.105853	-0.573778	3.604216	-0.584083	0.361607	-0.949701	0.145011	-0.163717	0.049720	-1.043457	0.237549	-0.039795	0.081030	-0.005744	0.036104	0.117593	-0.518605	-0.067675	-0.844181	-0.974928	-63.063456	-163.541496
52160		8.124107	-0.562662	3.518029	-0.651748	0.332539	-0.971937	0.106320	-0.119258	0.023355	-1.041016	0.235107	-0.052979	0.081221	-0.005636	0.035226	0.117942	-0.519072	-0.068121	-0.843809	-0.948167	-63.133688	-163.503716
52161		8.185056	-0.494495	3.536548	-0.636767	0.263184	-0.909199	0.074408	-0.085097	0.001146	-1.043213	0.232910	-0.041748	0.081836	-0.004958	0.035398	0.118752	-0.519306	-0.068622	-0.843511	-0.961246	-63.173662	-163.381697
52162		8.261617	-0.471625	3.523085	-0.669944	0.232091	-0.846853	0.036156	-0.050604	-0.022724	-1.041016	0.235107	-0.046387	0.082607	-0.004732	0.035251	0.118749	-0.519509	-0.068850	-0.843367	-0.921593	-63.205114	-163.403467
52163		8.416818	-0.459072	3.547682	-0.709427	0.206631	-0.697116	0.004239	-0.033419	-0.050498	-1.043457	0.237549	-0.041992	0.084161	-0.004613	0.035491	0.119038	-0.519604	-0.069114	-0.843246	-0.908751	-63.222555	-163.370374
52164		8.628701	-0.486727	3.484602	-0.862231	0.195589	-0.536258	-0.030485	0.007594	-0.076336	-1.041016	0.235352	-0.037354	0.086286	-0.004895	0.034843	0.118656	-0.519584	-0.069165	-0.843309	-0.845505	-63.221228	-163.461360
52165		8.788788	-0.530876	3.579827	-0.863801	0.240977	-0.350364	-0.075454	0.052190	-0.102200	-1.043213	0.232910	-0.046143	0.087894	-0.005340	0.035777	0.118713	-0.519393	-0.069271	-0.843410	-0.822014	-63.197791	-163.470413
52166		9.013925	-0.650424	3.657791	-0.934642	0.349990	-0.114375	-0.141911	0.112079	-0.135056	-1.047607	0.230713	-0.048340	0.090155	-0.006539	0.036532	0.117831	-0.518978	-0.068943	-0.843815	-0.754962	-63.137176	-163.637297
52167		9.066613	-0.785197	3.764529	-0.916960	0.498183	-0.019697	-0.213327	0.183059	-0.154764	-1.045166	0.226318	-0.048096	0.090694	-0.007882	0.037571	0.116835	-0.518226	-0.068254	-0.844472	-0.734671	-63.024892	-163.795537
52168		9.094157	-0.947246	3.901894	-0.874655	0.683255	0.066272	-0.284399	0.276508	-0.185835	-1.040527	0.224121	-0.043457	0.090987	-0.009502	0.038907	0.115425	-0.517181	-0.067358	-0.845378	-0.691692	-62.870336	-164.027390
52169		9.058034	-0.989313	4.098540	-0.727356	0.769873	0.122247	-0.334254	0.355260	-0.218462	-1.045166	0.226318	-0.050293	0.090642	-0.009924	0.040841	0.114028	-0.515870	-0.066311	-0.846451	-0.672795	-62.677795	-164.245746
52170		9.042118	-0.929291	4.263592	-0.596822	0.748163	0.181593	-0.383608	0.410374	-0.240949	-1.040527	0.226318	-0.052490	0.090497	-0.009320	0.042468	0.112172	-0.514291	-0.065059	-0.847755	-0.627886	-62.446862	-164.544641
52171		8.826344	-0.960132	4.295614	-0.518216	0.802993	0.003881	-0.424127	0.459760	-0.263412	-1.044922	0.219482	-0.056641	0.088349	-0.009627	0.042774	0.110478	-0.512538	-0.063671	-0.849144	-0.628394	-62.190735	-164.795268
52172		8.499728	-0.899222	4.410105	-0.299624	0.802560	-0.233076	-0.466859	0.522426	-0.288961	-1.047119	0.221680	-0.065674	0.085099	-0.009012	0.043900	0.108239	-0.510505	-0.062125	-0.850770	-0.584355	-61.895862	-165.148625
52173		8.425822	-0.873794	4.786426	0.017192	0.856212	-0.120718	-0.526498	0.550573	-0.325982	-1.046875	0.214844	-0.069824	0.084375	-0.008750	0.047655	0.105824	-0.508363	-0.060288	-0.852487	-0.578382	-61.582707	-165.502863
52174		8.799097	-0.886735	5.224153	0.170706	0.906138	0.417258	-0.581873	0.505043	-0.353409	-1.046631	0.208252	-0.076172	0.088107	-0.008871	0.052045	0.103009	-0.506429	-0.058423	-0.854111	-0.540910	-61.298039	-165.925784
52175		9.780678	-0.648436	5.758937	0.181146	0.657037	1.535563	-0.600205	0.439368	-0.406888	-1.046387	0.206055	-0.078125	0.097920	-0.006511	0.057394	0.099798	-0.504734	-0.056402	-0.855630	-0.499980	-61.043661	-166.399762
52176		11.388439	-0.319300	6.360527	-0.025960	0.271509	3.232630	-0.604663	0.254855	-0.444122	-1.048340	0.197021	-0.075439	0.113958	-0.003254	0.063470	0.096462	-0.503839	-0.054792	-0.856644	-0.392055	-60.902302	-166.920087
52177		11.992025	0.150612	6.064577	-0.475869	-0.303742	3.614587	-0.693269	-0.032369	-0.472577	-1.055176	0.199219	-0.068848	0.119914	0.001433	0.060660	0.092657	-0.504212	-0.052836	-0.856967	-0.339621	-60.924261	-167.458373
52178		10.793264	0.438904	5.652815	-0.194433	-0.517110	2.366650	-0.599844	-0.108326	-0.497468	-1.059082	0.187988	-0.068115	0.107913	0.004290	0.056574	0.089003	-0.504841	-0.051553	-0.857063	-0.176659	-60.990299	-168.038572
52179		9.503342	0.770972	5.310157	0.198532	-0.747683	1.073411	-0.253332	-0.108126	-0.478053	-1.054688	0.187988	-0.063721	0.095023	0.007550	0.053143	0.086437	-0.505382	-0.051729	-0.856996	0.153431	-61.064349	-168.571704
52180		9.957907	1.373091	5.156714	-0.020118	-1.369371	1.401643	-0.013103	-0.218041	-0.428916	-1.061035	0.178955	-0.067627	0.099552	0.013521	0.051675	0.084528	-0.506233	-0.052835	-0.856616	0.586973	-61.190509	-169.076063
52181		11.588686	2.194224	5.164582	-0.602773	-2.277354	2.845720	-0.075549	-0.272517	-0.382770	-1.061035	0.176758	-0.065186	0.115858	0.021740	0.051795	0.082737	-0.507406	-0.053603	-0.856049	0.933659	-61.354070	-169.512959
52182		11.906909	2.398141	4.532234	-1.240733	-2.578047	2.831714	-0.255874	-0.197794	-0.344064	-1.058594	0.172363	-0.062744	0.119065	0.023835	0.045410	0.080580	-0.508288	-0.053447	-0.855742	1.146463	-61.466728	-169.922991
52183		10.946519	2.210188	4.534932	-0.824428	-2.289981	1.992104	-0.343420	0.024830	-0.289260	-1.060791	0.174561	-0.058350	0.109503	0.022021	0.045298	0.078424	-0.508303	-0.052673	-0.855981	1.252944	-61.456761	-170.275303
52184		10.063719	1.698765	4.607895	-0.465363	-1.696056	1.246412	-0.374276	0.218086	-0.266948	-1.062988	0.169922	-0.058105	0.100710	0.016939	0.045937	0.076405	-0.507468	-0.051648	-0.856721	1.307853	-61.331367	-170.582822
52185		9.440576	1.249715	4.816433	-0.100805	-1.166924	0.794496	-0.289711	0.230862	-0.232946	-1.062744	0.165527	-0.062256	0.094476	0.012457	0.048037	0.074958	-0.506644	-0.051092	-0.857370	1.386972	-61.213687	-170.827478
52186		9.177917	1.110521	5.164109	0.275797	-0.951785	0.730246	-0.288254	0.115350	-0.200962	-1.064941	0.163330	-0.062012	0.091820	0.011087	0.051572	0.073413	-0.506229	-0.050306	-0.857795	1.422224	-61.147834	-171.056952
52187		9.191155	1.050161	5.106118	0.202929	-0.901825	0.713382	-0.386201	-0.017102	-0.177823	-1.057861	0.156738	-0.054932	0.091917	0.010518	0.051049	0.071811	-0.506512	-0.049306	-0.857821	1.407578	-61.172521	-171.261467
52188		9.175662	1.072796	4.989322	0.113641	-0.946016	0.643370	-0.444641	-0.049881	-0.189784	-1.062500	0.161133	-0.059814	0.091754	0.010752	0.049892	0.069876	-0.506862	-0.047881	-0.857855	1.345919	-61.201589	-171.482597
52189		9.058460	1.179180	5.054865	0.250372	-1.032661	0.573301	-0.439814	-0.068929	-0.214024	-1.062500	0.158936	-0.055176	0.090580	0.011806	0.050554	0.068157	-0.507417	-0.046918	-0.857719	1.348804	-61.263254	-171.712064
52190		9.136904	0.961691	5.218966	0.323688	-0.801547	0.718134	-0.393469	-0.094669	-0.196019	-1.064697	0.156738	-0.050537	0.091354	0.009630	0.052214	0.066312	-0.507935	-0.045744	-0.857620	1.324991	-61.318088	-171.942714
52191		8.946965	0.714142	5.181525	0.352799	-0.549148	0.530443	-0.376139	-0.084410	-0.162181	-1.064697	0.158936	-0.052979	0.089454	0.007166	0.051840	0.065049	-0.508534	-0.044974	-0.857402	1.311792	-61.388645	-172.101534
52192		8.407490	0.588372	5.146213	0.563396	-0.400109	0.038103	-0.360198	-0.035656	-0.141049	-1.064697	0.156738	-0.050537	0.084070	0.005917	0.051466	0.063537	-0.508798	-0.043785	-0.857421	1.248775	-61.410629	-172.265604
52193		7.889284	0.579355	5.141126	0.806031	-0.363777	-0.419839	-0.374366	0.018388	-0.130303	-1.066650	0.152100	-0.052490	0.078901	0.005838	0.051393	0.062360	-0.508911	-0.042813	-0.857489	1.191916	-61.415405	-172.389031
52194		7.574906	0.598344	5.221018	1.023955	-0.363216	-0.657590	-0.402630	0.051607	-0.120022	-1.066650	0.152100	-0.045654	0.075766	0.006043	0.052179	0.060848	-0.508816	-0.041361	-0.857726	1.080566	-61.387937	-172.525756
52195		7.365442	0.530195	5.140042	1.040396	-0.303828	-0.880939	-0.421213	0.067801	-0.095006	-1.066650	0.149902	-0.050049	0.073674	0.005375	0.051364	0.059756	-0.508746	-0.040171	-0.857900	0.971563	-61.367133	-172.607700
52196		7.194850	0.455564	4.976946	0.963711	-0.258499	-1.109366	-0.452357	0.078946	-0.057802	-1.059814	0.150146	-0.050049	0.071969	0.004647	0.049731	0.058389	-0.508558	-0.038339	-0.858190	0.766077	-61.324973	-172.669711
52197		7.084427	0.383242	4.705224	0.765810	-0.231122	-1.337123	-0.458917	0.094424	-0.027040	-1.066650	0.149902	-0.050049	0.070867	0.003931	0.047010	0.057443	-0.508364	-0.036758	-0.858438	0.561190	-61.285050	-172.675889
52198		6.880669	0.530477	4.556515	0.746589	-0.403834	-1.586734	-0.454990	0.113534	-0.014966	-1.062256	0.154541	-0.045898	0.068833	0.005403	0.045514	0.056259	-0.508032	-0.034795	-0.858794	0.309620	-61.223582	-172.687126
52199		6.801738	0.860069	4.493880	0.766402	-0.750408	-1.685708	-0.461123	0.117427	-0.036981	-1.066650	0.152100	-0.045654	0.068045	0.008692	0.044879	0.055400	-0.507736	-0.033285	-0.859085	0.110888	-61.171205	-172.686112
52200		6.754097	1.086126	4.451259	0.770943	-0.995236	-1.748797	-0.443507	0.109048	-0.062157	-1.062012	0.149902	-0.056885	0.067569	0.010939	0.044452	0.054041	-0.507408	-0.031492	-0.859433	-0.084258	-61.112473	-172.754295
52201		6.692140	1.246874	4.468867	0.826983	-1.162236	-1.795489	-0.440650	0.089063	-0.091321	-1.071533	0.160889	-0.052979	0.066947	0.012537	0.044631	0.052845	-0.507176	-0.030135	-0.859693	-0.211971	-61.070575	-172.839961
52202		6.722117	1.325755	4.603735	0.929919	-1.242548	-1.705273	-0.437265	0.061513	-0.120544	-1.069092	0.154297	-0.050293	0.067243	0.013318	0.045988	0.051242	-0.507038	-0.028529	-0.859926	-0.342932	-61.039492	-172.977471
52203		6.842518	1.291084	4.615059	0.870369	-1.223800	-1.594994	-0.442249	0.034440	-0.168913	-1.068848	0.152100	-0.056885	0.068444	0.012955	0.046110	0.049718	-0.506975	-0.027311	-0.860092	-0.405849	-61.022080	-173.144128
52204		7.042438	1.273373	4.668736	0.813322	-1.220662	-1.394672	-0.436102	-0.012443	-0.214367	-1.068359	0.140869	-0.049561	0.070435	0.012760	0.046664	0.047705	-0.507137	-0.025966	-0.860152	-0.439746	-61.034008	-173.391875
52205		7.354419	1.276671	4.839146	0.807988	-1.226063	-1.038941	-0.417023	-0.021600	-0.254071	-1.071045	0.147705	-0.054443	0.073555	0.012774	0.048373	0.045695	-0.507289	-0.025094	-0.860198	-0.377453	-61.048647	-173.695878
52206		7.577791	1.170612	5.037308	0.858799	-1.115314	-0.747024	-0.378798	-0.023202	-0.275277	-1.070801	0.140869	-0.049561	0.075788	0.011697	0.050360	0.043563	-0.507470	-0.024152	-0.860229	-0.315119	-61.066828	-174.016001
52207		7.725265	1.092236	5.226979	0.941434	-1.023871	-0.525093	-0.366966	-0.017724	-0.274110	-1.072998	0.138672	-0.044922	0.077263	0.010912	0.052257	0.041571	-0.507557	-0.023512	-0.860293	-0.206748	-61.074676	-174.344998
52208		7.888738	0.990723	5.329930	0.939388	-0.920477	-0.331540	-0.361964	-0.000447	-0.279453	-1.066162	0.138916	-0.044922	0.078901	0.009893	0.053282	0.039467	-0.507631	-0.022648	-0.860372	-0.130039	-61.079370	-174.670465
52209		7.969714	0.907280	5.372606	0.926114	-0.830311	-0.238907	-0.339935	0.019462	-0.277766	-1.072754	0.134277	-0.044678	0.079715	0.009053	0.053703	0.037826	-0.507599	-0.022336	-0.860473	0.004599	-61.073407	-174.968540
52210		8.027322	0.861636	5.457381	0.961770	-0.778144	-0.146623	-0.323849	0.046972	-0.262442	-1.070068	0.127441	-0.051025	0.080297	0.008599	0.054541	0.035896	-0.507459	-0.021584	-0.860657	0.085324	-61.050458	-175.273702
52211		7.981424	0.799924	5.501369	1.007439	-0.704925	-0.164049	-0.296565	0.077813	-0.238483	-1.081543	0.129639	-0.048828	0.079845	0.007986	0.054971	0.034320	-0.507122	-0.021237	-0.860929	0.207884	-61.003589	-175.556798
52212		7.920158	0.728481	5.416900	0.946346	-0.636384	-0.257489	-0.273520	0.112775	-0.213544	-1.074463	0.125244	-0.048584	0.079240	0.007274	0.054114	0.032735	-0.506692	-0.020566	-0.861260	0.265622	-60.942606	-175.802955
52213		7.914638	0.660277	5.405805	0.918726	-0.564686	-0.266104	-0.246308	0.146387	-0.172587	-1.074463	0.123047	-0.043945	0.079192	0.006601	0.053992	0.031566	-0.506035	-0.020245	-0.861697	0.346296	-60.853397	-176.007503
52214		7.967079	0.609733	5.498589	0.954313	-0.512410	-0.173845	-0.221845	0.166917	-0.125850	-1.067627	0.120850	-0.050537	0.079720	0.006108	0.054913	0.030495	-0.505370	-0.019565	-0.862142	0.341758	-60.761516	-176.148805
52215		7.979036	0.592063	5.480387	0.913916	-0.496725	-0.170686	-0.213791	0.181981	-0.069102	-1.076416	0.118408	-0.050293	0.079842	0.005952	0.054725	0.030036	-0.504603	-0.019250	-0.862614	0.338868	-60.658138	-176.209801
52216		7.961361	0.560818	5.412104	0.842896	-0.479220	-0.218497	-0.205942	0.198227	-0.013213	-1.076904	0.125244	-0.050781	0.079668	0.005659	0.054036	0.029494	-0.503810	-0.018349	-0.863116	0.227945	-60.548802	-176.218827
52217		7.958791	0.651302	5.359683	0.784433	-0.581017	-0.245045	-0.180409	0.228839	0.045142	-1.070068	0.123047	-0.057373	0.079648	0.006579	0.053500	0.029596	-0.502826	-0.017860	-0.863696	0.126325	-60.416303	-176.148407
52218		8.037306	0.698863	5.364252	0.729684	-0.647201	-0.173678	-0.130196	0.280850	0.104603	-1.074463	0.123047	-0.059570	0.080445	0.007066	0.053525	0.029761	-0.501675	-0.016977	-0.864377	-0.058979	-60.259772	-176.021921
52219		8.043147	0.692981	5.364152	0.696486	-0.655402	-0.167387	-0.055377	0.330769	0.161349	-1.070068	0.127441	-0.064453	0.080514	0.007010	0.053506	0.030482	-0.500191	-0.016572	-0.865220	-0.208674	-60.061345	-175.843892
52220		8.051381	0.595118	5.335137	0.629243	-0.577899	-0.173571	0.048592	0.369499	0.218073	-1.070313	0.129639	-0.066895	0.080606	0.006026	0.053204	0.031593	-0.498635	-0.016164	-0.866085	-0.400165	-59.853335	-175.591438
52221		8.117667	0.509289	5.434970	0.639095	-0.502267	-0.064152	0.151313	0.400072	0.263819	-1.063721	0.138672	-0.076416	0.081278	0.005159	0.054191	0.033259	-0.496806	-0.016344	-0.867070	-0.532757	-59.611902	-175.301487
52222		8.815110	0.407955	5.746219	0.509440	-0.426554	0.696831	0.264316	0.420420	0.299866	-1.068115	0.134033	-0.080566	0.088265	0.004136	0.057282	0.035265	-0.494996	-0.016659	-0.868020	-0.673778	-59.373582	-174.962948
52223		10.093047	0.306106	6.286290	0.269505	-0.360973	2.073339	0.375979	0.389468	0.367159	-1.068359	0.138672	-0.085205	0.101047	0.003129	0.062672	0.037732	-0.493117	-0.017388	-0.868971	-0.780986	-59.128465	-174.584370
52224		10.885878	-0.119418	6.954082	0.361540	0.052122	3.100186	0.494369	0.289057	0.444989	-1.063721	0.138672	-0.089844	0.108962	-0.001123	0.069381	0.040925	-0.491836	-0.018368	-0.869531	-0.923857	-58.963369	-174.088387
52225		10.663467	-0.811080	7.296560	0.669305	0.764550	3.093689	0.563764	0.190523	0.516903	-1.064209	0.147461	-0.083496	0.106725	-0.008040	0.072841	0.044462	-0.490807	-0.019637	-0.869912	-1.049526	-58.833098	-173.556481
52226		10.464319	-1.415749	7.377475	0.757503	1.366610	2.973709	0.571551	0.101575	0.547322	-1.064453	0.154297	-0.090820	0.104719	-0.014082	0.073681	0.048270	-0.490321	-0.020742	-0.869957	-1.243002	-58.772879	-172.948355
52227		10.033411	-1.727308	7.155499	0.739341	1.671404	2.496409	0.525082	-0.016985	0.543955	-1.057861	0.158691	-0.093262	0.100375	-0.017188	0.071518	0.052119	-0.490251	-0.021971	-0.869744	-1.423825	-58.768191	-172.339595
52228		9.991731	-1.707759	6.713035	0.382170	1.597043	2.233862	0.482672	-0.059758	0.496538	-1.058105	0.163330	-0.095703	0.099940	-0.016991	0.067119	0.055470	-0.490471	-0.022854	-0.869390	-1.623218	-58.799117	-171.783972
52229		10.223012	-1.646380	5.973958	-0.361809	1.434382	2.049873	0.530913	-0.091681	0.465721	-1.065186	0.169922	-0.091797	0.102241	-0.016384	0.059743	0.058666	-0.490628	-0.024071	-0.869059	-1.741130	-58.825327	-171.294554
52230		9.948962	-1.579690	5.358396	-0.736559	1.313737	1.497540	0.601317	-0.058718	0.446906	-1.058594	0.176514	-0.096680	0.099509	-0.015736	0.053566	0.062091	-0.490790	-0.025590	-0.868686	-1.826786	-58.855183	-170.792723
52231		9.625261	-1.458031	5.433368	-0.504368	1.217797	1.257794	0.632303	0.050708	0.423195	-1.058838	0.178955	-0.096680	0.096297	-0.014548	0.054263	0.065416	-0.490289	-0.027286	-0.868673	-1.851963	-58.800863	-170.343306
52232		9.090553	-1.293956	5.030254	-0.564077	1.049295	0.589078	0.625831	0.048009	0.387069	-1.056641	0.183350	-0.092529	0.090943	-0.012921	0.050240	0.068652	-0.489959	-0.029025	-0.868553	-1.862933	-58.770339	-169.912082
52233		8.622437	-1.046878	5.148631	-0.201822	0.858199	0.245818	0.583716	0.015194	0.346064	-1.056885	0.187744	-0.101807	0.086246	-0.010470	0.051449	0.071621	-0.489644	-0.030750	-0.868432	-1.847573	-58.743045	-169.530879
52234		8.466395	-1.022773	5.070088	-0.188859	0.839094	0.071237	0.584211	-0.062863	0.334409	-1.054688	0.190186	-0.099609	0.084665	-0.010234	0.050698	0.074509	-0.489789	-0.032476	-0.868044	-1.835735	-58.777033	-169.154103
52235		8.483296	-1.037564	4.933782	-0.313228	0.834966	0.015322	0.559189	-0.175864	0.331365	-1.054932	0.194580	-0.099854	0.084807	-0.010373	0.049383	0.077136	-0.490255	-0.034043	-0.867491	-1.835511	-58.852176	-168.802069
52236		8.749026	-1.058057	4.794483	-0.555522	0.810922	0.171589	0.534411	-0.221075	0.301478	-1.052734	0.194580	-0.093262	0.087453	-0.010577	0.048013	0.079731	-0.491089	-0.035693	-0.866718	-1.827765	-58.977335	-168.454436
52237		9.134864	-1.167107	4.591990	-0.924540	0.852702	0.400654	0.526471	-0.274150	0.255901	-1.050537	0.197021	-0.088867	0.091301	-0.011675	0.046014	0.082071	-0.492017	-0.037421	-0.865900	-1.781168	-59.117019	-168.161097
52238		9.487320	-1.193264	4.560384	-1.110273	0.842789	0.689083	0.523002	-0.295584	0.208780	-1.052734	0.194580	-0.086426	0.094818	-0.011953	0.045713	0.084221	-0.493151	-0.039279	-0.864966	-1.696206	-59.286723	-167.912006
52239		9.963701	-1.262474	4.806515	-1.129532	0.907929	1.226856	0.534529	-0.298356	0.167694	-1.050781	0.203613	-0.084717	0.099576	-0.012670	0.048180	0.086405	-0.494239	-0.041438	-0.864028	-1.556240	-59.455415	-167.689837
52240		10.142295	-1.457996	4.996237	-1.070181	1.124732	1.480847	0.531597	-0.300950	0.152304	-1.051025	0.210205	-0.085205	0.101359	-0.014636	0.050076	0.088330	-0.495372	-0.043474	-0.863084	-1.413141	-59.629641	-167.503361
52241		9.963977	-1.659239	5.043415	-0.960466	1.361708	1.353922	0.523380	-0.283908	0.164467	-1.050781	0.203613	-0.080322	0.099582	-0.016643	0.050532	0.090479	-0.496368	-0.045450	-0.862187	-1.303553	-59.785594	-167.269091
52242		9.684362	-1.701812	5.065836	-0.792470	1.450781	1.124081	0.514034	-0.271626	0.190242	-1.053223	0.205811	-0.084961	0.096791	-0.017056	0.050746	0.092529	-0.497380	-0.047302	-0.861286	-1.208397	-59.942944	-167.039438
52243		9.428502	-1.568447	5.078476	-0.612197	1.360424	0.907482	0.483831	-0.250594	0.198424	-1.048584	0.205811	-0.084961	0.094237	-0.015714	0.050865	0.094572	-0.498249	-0.048962	-0.860469	-1.146581	-60.079284	-166.792810
52244		9.295682	-1.366222	5.095996	-0.472935	1.189008	0.799005	0.443161	-0.219426	0.204954	-1.044434	0.210449	-0.073975	0.092915	-0.013680	0.051032	0.096520	-0.499065	-0.050447	-0.859693	-1.107393	-60.206820	-166.546091
52245		9.063282	-1.005984	5.083343	-0.278318	0.865733	0.587721	0.400707	-0.200106	0.211372	-1.053467	0.214844	-0.076416	0.090593	-0.010066	0.050904	0.098403	-0.499757	-0.051644	-0.859007	-1.114157	-60.314064	-166.282619
52246		8.745787	-0.644574	4.953294	-0.139028	0.530013	0.244107	0.360033	-0.199176	0.207083	-1.042480	0.219482	-0.074463	0.087415	-0.006444	0.049608	0.100157	-0.500521	-0.052756	-0.858291	-1.126407	-60.429976	-166.032084
52247		8.446489	-0.528016	4.793638	-0.087379	0.422422	-0.095957	0.347144	-0.213503	0.199793	-1.046875	0.214844	-0.072021	0.084419	-0.005279	0.048017	0.101980	-0.501298	-0.053765	-0.857560	-1.168915	-60.546185	-165.754280
52248		8.220661	-0.594539	4.663266	-0.086711	0.493206	-0.356050	0.347758	-0.222483	0.191267	-1.044678	0.219482	-0.072266	0.082160	-0.005948	0.046714	0.103629	-0.502158	-0.054875	-0.856789	-1.175112	-60.675532	-165.519367
52249		8.105547	-0.663505	4.646204	-0.044078	0.573381	-0.464073	0.335560	-0.233797	0.197347	-1.044922	0.221680	-0.067871	0.081008	-0.006633	0.046546	0.105355	-0.503033	-0.055869	-0.856000	-1.215330	-60.805119	-165.253780
52250		8.068045	-0.779406	4.461655	-0.191038	0.656256	-0.585553	0.310892	-0.233754	0.200919	-1.047119	0.223877	-0.077148	0.080636	-0.007782	0.044699	0.106949	-0.503959	-0.056802	-0.855197	-1.255405	-60.940684	-165.004876
52251		7.940033	-0.907578	4.361490	-0.230134	0.775791	-0.744304	0.310147	-0.217288	0.187358	-1.049805	0.230469	-0.063965	0.079361	-0.009069	0.043687	0.108388	-0.504719	-0.057545	-0.854517	-1.309889	-61.051645	-164.769837
52252		7.880463	-1.033358	4.231328	-0.327406	0.879900	-0.857676	0.315345	-0.204546	0.200223	-1.040527	0.226318	-0.068359	0.078772	-0.010321	0.042378	0.109999	-0.505512	-0.058482	-0.853779	-1.348681	-61.170240	-164.520055
52253		7.758836	-1.099487	4.196792	-0.302679	0.950067	-0.979386	0.305772	-0.189376	0.202215	-1.045166	0.228271	-0.059326	0.077560	-0.010981	0.042025	0.111681	-0.506196	-0.059241	-0.853102	-1.429181	-61.271368	-164.237010
52254		7.677530	-0.973749	4.045288	-0.348927	0.805306	-1.124378	0.264409	-0.170506	0.207508	-1.040771	0.230713	-0.061768	0.076751	-0.009711	0.040505	0.113203	-0.506870	-0.059922	-0.852454	-1.506497	-61.370065	-163.977095
52255		7.684859	-0.920939	3.846418	-0.495890	0.704957	-1.212847	0.239150	-0.135436	0.198095	-1.045654	0.239502	-0.060059	0.076832	-0.009179	0.038505	0.114813	-0.507401	-0.060482	-0.851883	-1.614429	-61.447605	-163.688813
52256		7.659691	-0.841126	3.782891	-0.507599	0.613001	-1.265454	0.218599	-0.117068	0.192309	-1.039063	0.241943	-0.058105	0.076583	-0.008379	0.037865	0.116170	-0.507865	-0.060976	-0.851387	-1.702606	-61.515573	-163.446823
52257		7.771359	-0.886910	3.681664	-0.648146	0.611550	-1.213781	0.213783	-0.086338	0.164925	-1.039063	0.241943	-0.060303	0.077705	-0.008844	0.036841	0.117657	-0.508177	-0.061401	-0.850966	-1.814645	-61.561778	-163.175132
52258		7.831967	-0.778225	3.715591	-0.611953	0.501941	-1.145247	0.178219	-0.066668	0.149298	-1.034668	0.244141	-0.060303	0.078313	-0.007757	0.037175	0.118744	-0.508435	-0.061802	-0.850631	-1.880320	-61.601329	-162.985284
52259		7.823153	-0.741879	3.620958	-0.673826	0.438979	-1.197776	0.147522	-0.047143	0.121407	-1.041260	0.244141	-0.058105	0.078227	-0.007398	0.036223	0.119733	-0.508582	-0.061928	-0.850396	-1.984808	-61.620924	-162.787448
52260		7.768429	-0.706489	3.557476	-0.689750	0.394989	-1.276208	0.122796	-0.032060	0.092757	-1.043701	0.244141	-0.060303	0.077682	-0.007051	0.035583	0.120451	-0.508708	-0.062216	-0.850198	-2.021831	-61.641535	-162.666355
52261		7.784917	-0.645177	3.465287	-0.756194	0.307408	-1.306039	0.085984	-0.026115	0.060821	-1.039307	0.248535	-0.058350	0.077847	-0.006443	0.034660	0.121046	-0.508802	-0.062284	-0.850053	-2.086549	-61.653793	-162.546134
52262		7.880001	-0.593576	3.411225	-0.828711	0.231844	-1.248652	0.065722	-0.030876	0.008500	-1.039063	0.244141	-0.053711	0.078795	-0.005944	0.034122	0.121261	-0.508930	-0.062542	-0.849926	-2.067164	-61.675406	-162.526330
52263		8.120802	-0.494157	3.322366	-0.983291	0.080688	-1.080198	0.031945	-0.019973	-0.031889	-1.039063	0.244141	-0.055908	0.081204	-0.004960	0.033231	0.121477	-0.509045	-0.062694	-0.849815	-2.068713	-61.693118	-162.494319
52264		8.409058	-0.446715	3.244384	-1.167058	-0.019336	-0.864200	-0.000824	0.005536	-0.078711	-1.043701	0.244141	-0.055908	0.084090	-0.004500	0.032442	0.121165	-0.509032	-0.062869	-0.849855	-1.993591	-61.695707	-162.581158
52265		8.604382	-0.504474	3.262022	-1.258786	0.016048	-0.683292	-0.037929	0.063101	-0.118234	-1.039063	0.241943	-0.055664	0.086051	-0.005089	0.032594	0.120814	-0.508817	-0.062906	-0.850031	-1.932082	-61.668927	-162.668151
52266		8.727473	-0.664962	3.350530	-1.292790	0.180416	-0.531894	-0.085720	0.140647	-0.159750	-1.041016	0.235107	-0.052979	0.087293	-0.006705	0.033447	0.119984	-0.508256	-0.062844	-0.850488	-1.815330	-61.595590	-162.857652
52267		8.830288	-0.778680	3.480365	-1.274618	0.309928	-0.380162	-0.146799	0.215927	-0.196290	-1.043213	0.237305	-0.055420	0.088333	-0.007848	0.034714	0.119146	-0.507478	-0.062634	-0.851086	-1.718482	-61.490766	-163.039326
52268		8.819282	-0.927128	3.723065	-1.126714	0.515570	-0.275122	-0.207554	0.293291	-0.232670	-1.045166	0.228271	-0.061523	0.088236	-0.009335	0.037111	0.117744	-0.506316	-0.062147	-0.852009	-1.592407	-61.330947	-163.319366
52269		8.705725	-1.015115	3.943260	-0.938804	0.669305	-0.271199	-0.272238	0.365923	-0.276813	-1.045166	0.228271	-0.068359	0.087115	-0.010218	0.039287	0.116230	-0.504946	-0.061521	-0.853074	-1.474069	-61.141501	-163.611849
52270		8.584998	-1.019149	4.108231	-0.779089	0.729665	-0.300647	-0.332701	0.426128	-0.304924	-1.045166	0.230469	-0.068604	0.085922	-0.010254	0.040916	0.114243	-0.503263	-0.060604	-0.854402	-1.346748	-60.906107	-163.976339
52271		8.676861	-0.936580	4.418704	-0.576566	0.705798	-0.073113	-0.378713	0.463089	-0.344603	-1.047607	0.230469	-0.072998	0.086854	-0.009432	0.044004	0.112000	-0.501461	-0.059465	-0.855837	-1.232661	-60.651846	-164.367453
52272		9.234759	-0.795572	4.968667	-0.382452	0.615652	0.679018	-0.432564	0.450233	-0.384074	-1.044678	0.217041	-0.078857	0.092444	-0.008026	0.049496	0.109429	-0.499696	-0.058304	-0.857281	-1.090125	-60.402801	-164.816921
52273		9.983672	-0.710583	5.515655	-0.298438	0.552255	1.598136	-0.476462	0.389282	-0.422159	-1.051514	0.217041	-0.081055	0.099929	-0.007186	0.054979	0.106597	-0.498232	-0.056969	-0.858578	-0.967642	-60.191069	-165.284521
52274		10.821644	-0.603832	6.204961	-0.131412	0.491258	2.665911	-0.479925	0.271130	-0.447314	-1.053467	0.214844	-0.081055	0.108287	-0.006132	0.061917	0.103581	-0.497230	-0.055858	-0.859600	-0.800576	-60.044127	-165.795423
52275		12.043587	0.009227	6.922099	0.003536	-0.099401	4.078086	-0.498859	0.074575	-0.478571	-1.057861	0.208008	-0.080566	0.120462	-0.000023	0.069176	0.100410	-0.497114	-0.054777	-0.860114	-0.642111	-60.014127	-166.311946
52276		12.020370	0.286198	7.149606	0.267501	-0.299845	4.170393	-0.504939	-0.113734	-0.495998	-1.048340	0.199219	-0.073242	0.120170	0.002745	0.071557	0.097015	-0.497754	-0.053875	-0.860190	-0.447378	-60.086467	-166.871676
52277		10.517232	0.258002	6.244755	0.242316	-0.245927	2.416638	-0.340638	-0.190649	-0.457688	-1.059570	0.198975	-0.075439	0.105118	0.002446	0.062544	0.094390	-0.498743	-0.053707	-0.859919	-0.205973	-60.215094	-167.352395
52278		9.632792	0.631803	5.384316	0.040176	-0.641683	1.222131	-0.132088	-0.247564	-0.412256	-1.061768	0.194580	-0.068604	0.096274	0.006155	0.053958	0.092246	-0.499795	-0.054263	-0.859507	0.124010	-60.361686	-167.820573
52279		9.953145	1.372808	5.299812	-0.004598	-1.375651	1.463175	-0.053841	-0.303264	-0.412380	-1.061279	0.185791	-0.061279	0.099479	0.013537	0.053145	0.090516	-0.501128	-0.055262	-0.858850	0.489712	-60.550786	-168.253201
52280		10.643417	2.098383	5.040470	-0.381549	-2.159329	1.946709	-0.168739	-0.321900	-0.430957	-1.059082	0.185791	-0.061279	0.106398	0.020797	0.050558	0.088178	-0.502503	-0.055741	-0.858259	0.827678	-60.737061	-168.753008
52281		10.613883	2.195808	4.706598	-0.606611	-2.277849	1.766237	-0.303924	-0.251964	-0.374756	-1.063477	0.183350	-0.054443	0.106120	0.021831	0.047166	0.086161	-0.503783	-0.055720	-0.857714	1.033525	-60.904020	-169.134925
52282		10.083216	2.105465	4.529759	-0.513149	-2.150799	1.220610	-0.366473	-0.150453	-0.320112	-1.058594	0.174561	-0.053955	0.100832	0.020976	0.045335	0.083846	-0.504534	-0.054998	-0.857549	1.148527	-60.991547	-169.507828
52283		9.612946	1.813787	4.666566	-0.223117	-1.786525	0.875340	-0.372233	-0.057129	-0.269412	-1.063232	0.176758	-0.047119	0.096141	0.018095	0.046659	0.082193	-0.505040	-0.054368	-0.857451	1.209097	-61.048766	-169.761962
52284		9.145999	1.485408	4.824603	0.069022	-1.391105	0.540698	-0.340100	-0.054384	-0.224238	-1.060791	0.170166	-0.051270	0.091464	0.014834	0.048246	0.080381	-0.505390	-0.053476	-0.857473	1.239701	-61.082131	-170.020769
52285		9.277831	1.190005	4.812173	-0.049963	-1.109519	0.647605	-0.372794	-0.144637	-0.217216	-1.065186	0.167725	-0.048828	0.092756	0.011889	0.048167	0.079012	-0.506302	-0.052828	-0.857102	1.254547	-61.193716	-170.208072
52286		9.604948	0.952494	4.756088	-0.285094	-0.908819	0.905306	-0.388671	-0.185771	-0.211175	-1.064941	0.165527	-0.046631	0.096015	0.009516	0.047632	0.077096	-0.507235	-0.051748	-0.856791	1.248445	-61.302583	-170.456331
52287		9.782888	0.651000	4.850532	-0.321422	-0.606657	1.104500	-0.440310	-0.202742	-0.191512	-1.062500	0.161133	-0.037354	0.097786	0.006523	0.048590	0.075472	-0.508385	-0.050714	-0.856316	1.212536	-61.441717	-170.646979
52288		9.728011	0.486412	5.082950	-0.105499	-0.404099	1.166052	-0.480105	-0.170795	-0.189640	-1.062744	0.163574	-0.035156	0.097241	0.004894	0.050901	0.073418	-0.509288	-0.049182	-0.856047	1.133043	-61.542515	-170.870779
52289		9.483689	0.465318	5.226656	0.152238	-0.343054	1.019391	-0.450173	-0.129372	-0.178924	-1.069336	0.163330	-0.035156	0.094807	0.004686	0.052317	0.072115	-0.510200	-0.048240	-0.855668	1.082154	-61.652203	-171.010799
52290		9.179167	0.506213	5.118990	0.220659	-0.382789	0.700266	-0.413995	-0.094093	-0.161660	-1.064941	0.161133	-0.035156	0.091772	0.005094	0.051223	0.070367	-0.510753	-0.046892	-0.855559	1.010531	-61.709757	-171.200146
52291		8.772858	0.524289	4.997928	0.321122	-0.394627	0.284755	-0.371106	-0.055974	-0.113904	-1.064697	0.156738	-0.025879	0.087718	0.005286	0.049994	0.069399	-0.511276	-0.045937	-0.855377	0.923201	-61.768579	-171.275347
52292		8.373012	0.639512	4.981563	0.517478	-0.492491	-0.075032	-0.373041	-0.022730	-0.075791	-1.069092	0.156738	-0.030273	0.083727	0.006456	0.049813	0.068138	-0.511527	-0.044520	-0.855404	0.782586	-61.786397	-171.359614
52293		7.952121	0.578818	4.952395	0.685574	-0.417333	-0.461042	-0.368509	0.025220	-0.041585	-1.067383	0.165527	-0.028564	0.079529	0.005863	0.049503	0.067703	-0.511773	-0.043561	-0.855341	0.633280	-61.809082	-171.327689
52294		7.526182	0.569251	4.914358	0.848630	-0.399840	-0.855104	-0.344248	0.040270	-0.004124	-1.067139	0.161133	-0.028320	0.075272	0.005776	0.049119	0.066834	-0.511759	-0.042063	-0.855492	0.431933	-61.791578	-171.324340
52295		7.210300	0.677184	4.817283	0.931068	-0.513949	-1.180065	-0.337562	0.046410	0.015880	-1.069336	0.158936	-0.032715	0.072114	0.006859	0.048145	0.066661	-0.511869	-0.040905	-0.855496	0.211413	-61.794339	-171.215386
52296		6.933094	0.806596	4.645423	0.928194	-0.663981	-1.506310	-0.328169	0.061661	0.024947	-1.071533	0.158936	-0.028076	0.069344	0.008151	0.046420	0.065962	-0.511763	-0.039394	-0.855684	-0.011618	-61.764728	-171.176998
52297		6.715356	1.008699	4.588510	1.010293	-0.870072	-1.726269	-0.315867	0.069390	0.001197	-1.064941	0.163330	-0.032959	0.067169	0.010160	0.045846	0.065621	-0.511727	-0.038352	-0.855779	-0.183749	-61.749250	-171.120394
52298		6.541053	1.135048	4.453115	0.988278	-1.014586	-1.945169	-0.305988	0.048287	-0.035072	-1.064941	0.163574	-0.026123	0.065423	0.011407	0.044498	0.064718	-0.511659	-0.037095	-0.855944	-0.329706	-61.727442	-171.155083
52299		6.492260	1.193576	4.305803	0.890437	-1.097748	-2.059232	-0.314108	0.032589	-0.080405	-1.067139	0.163330	-0.028564	0.064934	0.011977	0.043029	0.064021	-0.511750	-0.036199	-0.855981	-0.429929	-61.730632	-171.188385
52300		6.677214	1.209434	4.241758	0.746048	-1.143024	-1.927427	-0.330622	0.025297	-0.131708	-1.071533	0.156738	-0.025879	0.066785	0.012120	0.042389	0.062637	-0.511768	-0.035090	-0.856118	-0.487178	-61.722589	-171.339847
52301		6.915144	1.122286	4.370017	0.733774	-1.060829	-1.657198	-0.336337	0.010707	-0.168374	-1.071533	0.158936	-0.028076	0.069163	0.011238	0.043678	0.061597	-0.511961	-0.034449	-0.856104	-0.494508	-61.742496	-171.473713
52302		7.046944	1.099085	4.451913	0.737742	-1.040393	-1.502437	-0.367275	-0.025587	-0.208784	-1.071533	0.156738	-0.023438	0.070475	0.010999	0.044508	0.059779	-0.512194	-0.033396	-0.856136	-0.490863	-61.764143	-171.718118
52303		7.157368	1.139736	4.578757	0.805535	-1.072010	-1.345466	-0.377748	-0.052429	-0.251376	-1.075928	0.154297	-0.023438	0.071576	0.011394	0.045785	0.058259	-0.512640	-0.032797	-0.855997	-0.434741	-61.818774	-171.952662
52304		7.411107	1.151861	4.649708	0.750808	-1.090467	-1.088110	-0.349062	-0.058586	-0.280365	-1.069092	0.152344	-0.020996	0.074114	0.011496	0.046499	0.056175	-0.512993	-0.032016	-0.855954	-0.343451	-61.859503	-172.284464
52305		7.636312	1.098876	4.857520	0.824938	-1.021390	-0.790906	-0.299018	-0.053214	-0.272964	-1.069092	0.152344	-0.023193	0.076365	0.010957	0.048579	0.054782	-0.513412	-0.031824	-0.855801	-0.216777	-61.914088	-172.544597
52306		7.828705	0.922330	5.134709	0.955713	-0.821305	-0.489779	-0.276998	-0.032725	-0.268046	-1.070801	0.141113	-0.013672	0.078291	0.009189	0.051347	0.052940	-0.513632	-0.031313	-0.855803	-0.095985	-61.939453	-172.862783
52307		7.907472	0.797804	5.315620	1.064991	-0.673957	-0.334714	-0.269911	-0.013676	-0.255789	-1.077637	0.145508	-0.020508	0.079081	0.007949	0.053151	0.051693	-0.513873	-0.031207	-0.855739	0.034562	-61.970816	-173.107015
52308		7.942631	0.690655	5.354534	1.067652	-0.560471	-0.284864	-0.271351	0.011312	-0.255170	-1.072754	0.132080	-0.017578	0.079438	0.006878	0.053532	0.049926	-0.513903	-0.030675	-0.855845	0.145377	-61.970429	-173.410116
52309		7.978992	0.770723	5.531734	1.212472	-0.615590	-0.168551	-0.278115	0.053294	-0.259210	-1.074951	0.132080	-0.012939	0.079815	0.007681	0.055285	0.048521	-0.513818	-0.030487	-0.855983	0.284046	-61.957328	-173.681875
52310		8.120912	0.788448	5.755387	1.334863	-0.614823	0.063317	-0.284353	0.094197	-0.249171	-1.070557	0.138916	-0.029297	0.081246	0.007865	0.057504	0.046759	-0.513494	-0.029864	-0.856298	0.380083	-61.908950	-173.976783
52311		8.222728	0.769785	5.847086	1.353754	-0.588620	0.198062	-0.279687	0.120669	-0.228916	-1.072754	0.134277	-0.024414	0.082271	0.007685	0.058410	0.045319	-0.513073	-0.029427	-0.856642	0.475271	-61.849047	-174.228152
52312		8.363349	0.667311	5.805194	1.225132	-0.498074	0.303742	-0.274870	0.147013	-0.200983	-1.070068	0.125488	-0.021729	0.083683	0.006669	0.057981	0.043795	-0.512525	-0.028709	-0.857074	0.523149	-61.770288	-174.462596
52313		8.350257	0.651458	5.790195	1.199092	-0.483472	0.287112	-0.261572	0.185816	-0.167179	-1.079102	0.125244	-0.023926	0.083562	0.006520	0.057816	0.042606	-0.511808	-0.028144	-0.857581	0.562687	-61.670339	-174.647537
52314		8.119464	0.692426	5.879874	1.369523	-0.510957	0.129211	-0.245187	0.231473	-0.134594	-1.076904	0.125244	-0.030518	0.081267	0.006942	0.058696	0.041454	-0.510898	-0.027364	-0.858205	0.554468	-61.543478	-174.799326
52315		7.940508	0.759321	5.818525	1.382257	-0.580420	-0.053800	-0.230278	0.272970	-0.097039	-1.076660	0.120850	-0.032471	0.079488	0.007622	0.058068	0.040630	-0.509789	-0.026739	-0.858923	0.539412	-61.391558	-174.903641
52316		7.811585	0.821512	5.776899	1.385816	-0.649782	-0.183279	-0.187855	0.300002	-0.059066	-1.074463	0.125244	-0.035156	0.078205	0.008246	0.057644	0.039958	-0.508580	-0.025998	-0.859694	0.482940	-61.225901	-174.963404
52317		7.673568	0.844285	5.620586	1.288046	-0.688180	-0.375807	-0.136779	0.316602	-0.002405	-1.081299	0.125244	-0.046387	0.076825	0.008480	0.056078	0.039683	-0.507245	-0.025458	-0.860511	0.420924	-61.045101	-174.967510
52318		7.669229	0.746171	5.459007	1.110681	-0.615377	-0.455219	-0.082621	0.340060	0.053109	-1.074463	0.125244	-0.039551	0.076783	0.007505	0.054456	0.039765	-0.505855	-0.024877	-0.861342	0.308822	-60.856978	-174.894864
52319		7.731745	0.544274	5.385178	0.964284	-0.434032	-0.434098	-0.006021	0.363933	0.104248	-1.072021	0.120850	-0.048340	0.077412	0.005485	0.053711	0.040194	-0.504263	-0.024536	-0.862265	0.207719	-60.643880	-174.783764
52320		7.803185	0.335301	5.413353	0.900883	-0.238281	-0.355519	0.087015	0.393799	0.149047	-1.079102	0.127441	-0.055420	0.078136	0.003388	0.053981	0.041124	-0.502615	-0.024433	-0.863186	0.097713	-60.424958	-174.601585
52321		8.190912	0.224258	5.516538	0.750394	-0.145248	0.035623	0.192724	0.406538	0.187245	-1.074951	0.134033	-0.053467	0.082019	0.002266	0.055001	0.042356	-0.500792	-0.024734	-0.864177	0.037630	-60.185686	-174.409821
52322		8.928381	0.210618	6.080796	0.833366	-0.127724	0.958825	0.284733	0.378484	0.230602	-1.070068	0.127441	-0.062256	0.089396	0.002123	0.060642	0.044132	-0.499173	-0.025284	-0.865008	-0.036313	-59.975271	-174.137710
52323		10.618836	0.118080	6.799850	0.564797	-0.065828	2.784461	0.363754	0.270134	0.286958	-1.076904	0.129639	-0.062256	0.106278	0.001210	0.067857	0.046313	-0.497934	-0.026137	-0.865583	-0.099650	-59.817354	-173.817313
52324		11.207198	-0.433575	6.762418	0.156396	0.433906	3.275734	0.463023	0.125668	0.409107	-1.068359	0.138672	-0.069580	0.112123	-0.004263	0.067544	0.049273	-0.497384	-0.027071	-0.865707	-0.243889	-59.751067	-173.344814
52325		9.786477	-0.899820	6.855340	0.876002	0.974473	2.097957	0.544658	0.110704	0.518927	-1.075439	0.147461	-0.067871	0.097926	-0.008931	0.068475	0.052824	-0.496798	-0.028157	-0.865799	-0.423297	-59.681142	-172.774431
52326		9.852213	-1.101129	7.395123	1.264317	1.210494	2.430784	0.525578	0.108182	0.488693	-1.064209	0.149902	-0.070313	0.098589	-0.010965	0.073869	0.056280	-0.496306	-0.029167	-0.865830	-0.606824	-59.623018	-172.214227
52327		10.408634	-1.110683	7.064721	0.692363	1.136868	2.745645	0.538273	-0.083352	0.449019	-1.066895	0.158691	-0.070801	0.104082	-0.011063	0.070661	0.059517	-0.496537	-0.030404	-0.865439	-0.734912	-59.662322	-171.710406
52328		10.497451	-1.029663	6.361552	0.064661	0.962238	2.467212	0.500858	-0.111978	0.400432	-1.067139	0.163330	-0.068848	0.104959	-0.010246	0.063649	0.062496	-0.496980	-0.031589	-0.864932	-0.849434	-59.729641	-171.246776
52329		10.601677	-0.938206	5.865311	-0.394089	0.796379	2.307054	0.551482	-0.074915	0.385064	-1.069336	0.160889	-0.066406	0.106013	-0.009340	0.058667	0.065495	-0.497144	-0.032991	-0.864563	-0.918804	-59.762645	-170.807747
52330		10.291315	-0.890728	5.398957	-0.628709	0.710398	1.804255	0.604317	-0.041299	0.362452	-1.062744	0.165527	-0.073486	0.102918	-0.008884	0.053984	0.068577	-0.497231	-0.034695	-0.864208	-0.937177	-59.789247	-170.387156
52331		9.759804	-0.926095	5.214491	-0.533586	0.763263	1.252350	0.619653	0.018796	0.339705	-1.062744	0.167725	-0.073730	0.097619	-0.009257	0.052107	0.071530	-0.496954	-0.036512	-0.864052	-0.910155	-59.770176	-170.012167
52332		9.085300	-0.952395	5.098016	-0.309261	0.832074	0.610916	0.604008	0.003243	0.300034	-1.058594	0.174561	-0.073975	0.090868	-0.009542	0.050950	0.074347	-0.496826	-0.038354	-0.863809	-0.866533	-59.771938	-169.663505
52333		8.538563	-1.070611	4.964661	-0.176113	0.982705	0.071866	0.527765	-0.080509	0.250554	-1.061035	0.176758	-0.072021	0.085379	-0.010730	0.049653	0.076603	-0.496966	-0.039958	-0.863459	-0.812880	-59.807429	-169.392891
52334		8.092159	-1.177967	4.513809	-0.351581	1.069665	-0.540292	0.518451	-0.188163	0.231177	-1.061035	0.178955	-0.072021	0.080893	-0.011803	0.045184	0.078871	-0.497673	-0.041673	-0.862766	-0.754029	-59.919669	-169.118838
52335		8.124011	-1.055932	4.250188	-0.556350	0.913822	-0.645680	0.518288	-0.286872	0.210668	-1.061279	0.183350	-0.067871	0.081190	-0.010584	0.042591	0.080964	-0.498712	-0.043434	-0.861884	-0.676048	-60.077087	-168.876066
52336		8.559203	-0.926863	4.347144	-0.639451	0.769819	-0.220237	0.537551	-0.342509	0.195029	-1.058838	0.178955	-0.065430	0.085527	-0.009302	0.043593	0.083089	-0.500059	-0.045382	-0.860800	-0.574316	-60.278335	-168.639684
52337		9.201067	-0.891910	4.212700	-1.029064	0.662713	0.272138	0.555089	-0.425187	0.194713	-1.061279	0.183350	-0.063232	0.091930	-0.008947	0.042298	0.085204	-0.501682	-0.047419	-0.859539	-0.462726	-60.518051	-168.407826
52338		9.791267	-0.944570	4.508018	-1.031923	0.716992	0.934603	0.527522	-0.443438	0.207976	-1.056885	0.183594	-0.061035	0.097822	-0.009463	0.045272	0.087335	-0.503458	-0.049333	-0.858177	-0.383406	-60.777470	-168.153417
52339		9.999187	-1.079815	4.617625	-1.023701	0.857602	1.173149	0.475501	-0.445840	0.215803	-1.056885	0.185791	-0.054443	0.099900	-0.010800	0.046373	0.089253	-0.505178	-0.050940	-0.856874	-0.340634	-61.026287	-167.906133
52340		10.157513	-1.363900	4.925066	-0.850468	1.182251	1.464298	0.457658	-0.431169	0.228270	-1.052734	0.192627	-0.052734	0.101484	-0.013636	0.049438	0.091296	-0.506926	-0.052496	-0.855532	-0.326292	-61.278769	-167.624477
52341		10.007689	-1.713623	5.104658	-0.661173	1.579035	1.421958	0.444235	-0.402989	0.227912	-1.059570	0.194580	-0.048340	0.099993	-0.017136	0.051210	0.093235	-0.508483	-0.053905	-0.854310	-0.325901	-61.504753	-167.349501
52342		9.932828	-1.897915	5.117472	-0.619293	1.776197	1.363770	0.438751	-0.381176	0.226344	-1.055176	0.199219	-0.039551	0.099252	-0.018979	0.051322	0.095233	-0.510014	-0.055361	-0.853083	-0.324823	-61.728589	-167.066319
52343		9.777224	-1.952199	4.896215	-0.718468	1.808063	1.123160	0.452981	-0.358774	0.229074	-1.055176	0.199219	-0.039551	0.097707	-0.019521	0.049093	0.097317	-0.511402	-0.056806	-0.851922	-0.334568	-61.933895	-166.765674
52344		9.583422	-1.785048	4.808637	-0.639915	1.653865	0.911423	0.462831	-0.316801	0.241741	-1.050781	0.201660	-0.039795	0.095780	-0.017846	0.048197	0.099459	-0.512641	-0.058293	-0.850828	-0.340391	-62.120764	-166.460143
52345		9.198029	-1.576929	4.783134	-0.416514	1.490074	0.559148	0.461352	-0.275522	0.261456	-1.050781	0.199463	-0.035156	0.091935	-0.015760	0.047922	0.101660	-0.513655	-0.059601	-0.849865	-0.385630	-62.275359	-166.124477
52346		8.876070	-1.229923	4.679898	-0.256304	1.168703	0.225597	0.424491	-0.280122	0.275293	-1.051270	0.212891	-0.035889	0.088712	-0.012277	0.046897	0.103856	-0.514758	-0.060820	-0.848846	-0.454222	-62.440848	-165.773814
52347		8.593895	-0.917868	4.486111	-0.197095	0.855087	-0.114614	0.405218	-0.317583	0.291206	-1.048828	0.208496	-0.029053	0.085881	-0.009145	0.044979	0.106021	-0.515978	-0.061813	-0.847765	-0.573488	-62.618445	-165.394444
52348		8.385664	-0.732046	4.278439	-0.208052	0.653926	-0.395188	0.396877	-0.353728	0.293588	-1.053955	0.219482	-0.025146	0.083792	-0.007283	0.042918	0.108199	-0.517404	-0.062905	-0.846539	-0.685242	-62.825372	-165.014174
52349		8.307007	-0.610522	4.113848	-0.252729	0.506783	-0.540036	0.397658	-0.363528	0.303459	-1.046875	0.215088	-0.024902	0.083004	-0.006061	0.041277	0.110494	-0.518856	-0.063909	-0.845278	-0.836370	-63.034268	-164.592288
52350		8.187959	-0.628564	4.028049	-0.246881	0.517363	-0.683928	0.346276	-0.348206	0.296582	-1.047119	0.219727	-0.020752	0.081819	-0.006234	0.040412	0.112554	-0.520277	-0.064775	-0.844066	-0.988609	-63.237149	-164.200542
52351		8.121629	-0.572206	3.801060	-0.370285	0.415287	-0.844594	0.323398	-0.310409	0.267042	-1.044922	0.219727	-0.018555	0.081165	-0.005675	0.038127	0.114430	-0.521504	-0.065501	-0.843000	-1.141537	-63.411833	-163.834401
52352		8.157829	-0.578071	3.624873	-0.513151	0.373922	-0.889635	0.313546	-0.279361	0.226121	-1.045166	0.224121	-0.014160	0.081534	-0.005745	0.036354	0.116129	-0.522624	-0.066373	-0.842005	-1.237474	-63.575246	-163.527755
52353		8.131196	-0.723003	3.559453	-0.574312	0.499976	-0.939754	0.314037	-0.242000	0.196931	-1.045166	0.226318	-0.012207	0.081276	-0.007206	0.035682	0.117730	-0.523554	-0.067231	-0.841136	-1.316632	-63.713576	-163.246505
52354		8.015602	-0.901007	3.579691	-0.536963	0.691315	-1.031480	0.295041	-0.210118	0.171910	-1.040771	0.228760	-0.010010	0.080126	-0.008994	0.035868	0.119174	-0.524370	-0.068125	-0.840353	-1.362596	-63.837695	-163.008137
52355		7.893828	-1.020883	3.564992	-0.515916	0.817790	-1.144993	0.270151	-0.169129	0.155721	-1.045166	0.228516	-0.010010	0.078916	-0.010196	0.035703	0.120566	-0.525021	-0.068871	-0.839687	-1.426623	-63.937185	-162.767745
52356		7.893789	-1.095693	3.543052	-0.543731	0.884255	-1.153120	0.233772	-0.139918	0.140431	-1.040771	0.228760	-0.005615	0.078921	-0.010943	0.035473	0.121741	-0.525564	-0.069548	-0.839122	-1.471180	-64.021363	-162.570428
52357		7.952267	-1.108180	3.575471	-0.533754	0.894925	-1.085442	0.192267	-0.108689	0.115921	-1.041016	0.235352	-0.014893	0.079510	-0.011070	0.035787	0.122770	-0.526001	-0.070062	-0.838655	-1.526071	-64.088405	-162.388126
52358		8.041650	-1.053916	3.642147	-0.490895	0.845779	-0.975958	0.164916	-0.070444	0.120231	-1.038818	0.235352	-0.010498	0.080410	-0.010521	0.036441	0.123703	-0.526286	-0.070461	-0.838306	-1.585424	-64.132964	-162.218447
52359		8.026213	-0.989071	3.679061	-0.430493	0.789023	-0.973799	0.136699	-0.034571	0.114607	-1.043457	0.239746	-0.012939	0.080261	-0.009870	0.036798	0.124462	-0.526369	-0.070518	-0.838136	-1.684197	-64.143776	-162.051444
52360		7.943396	-0.901660	3.606919	-0.431367	0.694492	-1.080449	0.109094	-0.005870	0.090930	-1.038818	0.235352	-0.012695	0.079437	-0.009000	0.036067	0.125148	-0.526406	-0.070719	-0.837994	-1.739247	-64.151608	-161.922133
52361		7.994136	-0.857868	3.458316	-0.569757	0.603043	-1.099834	0.111298	0.025461	0.066217	-1.039063	0.239990	-0.008545	0.079949	-0.008571	0.034568	0.125646	-0.526232	-0.070760	-0.838025	-1.791413	-64.128246	-161.823933
52362		8.041988	-0.835644	3.458725	-0.586215	0.573585	-1.057004	0.098007	0.057319	0.026445	-1.036621	0.235596	-0.012695	0.080431	-0.008363	0.034560	0.126056	-0.525988	-0.071044	-0.838092	-1.774352	-64.100922	-161.781792
52363		8.240331	-0.900381	3.497818	-0.659488	0.616619	-0.860965	0.068809	0.075870	-0.018637	-1.043457	0.237549	-0.010498	0.082416	-0.009024	0.034944	0.126187	-0.525642	-0.071164	-0.838280	-1.748345	-64.057103	-161.785235
52364		8.459433	-1.089188	3.389034	-0.906631	0.741574	-0.709832	0.028991	0.101809	-0.044930	-1.041504	0.244385	-0.013184	0.084609	-0.010916	0.033846	0.126132	-0.525230	-0.071319	-0.838533	-1.685359	-64.005531	-161.838130
52365		8.629360	-1.198428	3.429499	-0.985141	0.831852	-0.539012	0.000711	0.151895	-0.064721	-1.036621	0.239990	-0.015137	0.086316	-0.012012	0.034229	0.125974	-0.524601	-0.071223	-0.838958	-1.651069	-63.920117	-161.890877
52366		8.860631	-1.248108	3.551077	-1.008294	0.879157	-0.279110	-0.052122	0.228703	-0.098936	-1.038818	0.237549	-0.015137	0.088641	-0.012516	0.035413	0.125526	-0.523688	-0.071098	-0.839607	-1.568073	-63.796684	-162.017911
52367		9.051745	-1.332158	3.604127	-1.090580	0.943488	-0.085464	-0.115609	0.304763	-0.121588	-1.041016	0.235352	-0.019531	0.090564	-0.013356	0.035911	0.124859	-0.522471	-0.070549	-0.840510	-1.531785	-63.624494	-162.150593
52368		8.997582	-1.303854	3.668170	-1.034798	0.936992	-0.108918	-0.176831	0.381891	-0.145444	-1.045410	0.232910	-0.026123	0.090036	-0.013072	0.036521	0.123943	-0.520972	-0.069926	-0.841627	-1.464472	-63.413898	-162.340307
52369		8.952945	-1.239854	3.817742	-0.906695	0.912071	-0.085741	-0.230142	0.462512	-0.175036	-1.045410	0.235352	-0.026123	0.089607	-0.012433	0.037985	0.122707	-0.519114	-0.068927	-0.843038	-1.418621	-63.148557	-162.565225
52370		8.661247	-1.064974	3.975260	-0.639944	0.815495	-0.279623	-0.306590	0.529842	-0.209593	-1.040527	0.224121	-0.030029	0.086706	-0.010680	0.039539	0.121233	-0.517042	-0.067831	-0.844612	-1.354164	-62.853906	-162.836035
52371		8.526073	-1.045733	4.262441	-0.376836	0.873531	-0.270644	-0.373741	0.592280	-0.240929	-1.044922	0.224121	-0.038818	0.085374	-0.010481	0.042391	0.119469	-0.514735	-0.066382	-0.846385	-1.318906	-62.522249	-163.130557
52372		9.229113	-0.656525	4.913772	-0.078757	0.549395	0.648879	-0.380112	0.592379	-0.304507	-1.044922	0.219482	-0.047607	0.092426	-0.006613	0.048877	0.117422	-0.512399	-0.065181	-0.848181	-1.199127	-62.192695	-163.512955
52373		11.352739	-0.138102	5.947464	-0.069155	0.004519	3.004136	-0.375617	0.451730	-0.384682	-1.051270	0.214844	-0.045166	0.113659	-0.001488	0.059221	0.114798	-0.510556	-0.064106	-0.849732	-1.007923	-61.932063	-164.007102
52374		13.481630	0.227231	6.391372	-0.597433	-0.509739	5.088278	-0.438074	0.084154	-0.416833	-1.046875	0.212891	-0.042725	0.134848	0.002131	0.063852	0.111959	-0.510362	-0.063238	-0.850292	-0.819492	-61.893574	-164.506526
52375		12.574585	0.293428	5.806647	-0.674452	-0.566443	4.012928	-0.531080	-0.080014	-0.427809	-1.053223	0.206055	-0.042236	0.125729	0.002820	0.058109	0.108758	-0.510928	-0.062052	-0.850455	-0.681226	-61.950281	-165.015995
52376		10.199332	0.719932	5.235620	0.023443	-0.790203	1.647303	-0.417450	-0.063495	-0.464461	-1.051025	0.203857	-0.044434	0.101993	0.007072	0.052374	0.105720	-0.511326	-0.061475	-0.850641	-0.430588	-61.995190	-165.572244
52377		9.473322	1.414385	5.123221	0.423297	-1.370280	0.954611	-0.153502	-0.117670	-0.517149	-1.055176	0.197021	-0.034912	0.094739	0.013938	0.051277	0.103016	-0.511780	-0.062109	-0.850654	0.027407	-62.066401	-166.206434
52378		11.247293	2.484117	5.566260	0.258197	-2.459751	2.738737	-0.021622	-0.283169	-0.563283	-1.054932	0.190430	-0.036865	0.112463	0.024530	0.055819	0.100500	-0.512866	-0.063582	-0.850192	0.618303	-62.232824	-166.890106
52379		12.502640	2.616388	4.938523	-0.802048	-2.791019	3.570777	-0.258851	-0.315440	-0.521177	-1.063721	0.187988	-0.032227	0.125016	0.025902	0.049549	0.097546	-0.514252	-0.063973	-0.849669	1.037767	-62.420354	-167.530449
52380		11.445377	2.173991	3.932178	-1.289351	-2.419209	2.173546	-0.420560	-0.078539	-0.470751	-1.054199	0.172607	-0.024658	0.114489	0.021553	0.039321	0.094462	-0.514685	-0.063412	-0.849797	1.306192	-62.465908	-168.106393
52381		9.760693	2.164668	3.959779	-0.529049	-2.214274	0.697007	-0.453513	0.205911	-0.491773	-1.056641	0.177002	-0.024902	0.097701	0.021496	0.039448	0.091300	-0.513969	-0.062728	-0.850626	1.588886	-62.355753	-168.708971
52382		9.154710	1.914333	4.363383	-0.001943	-1.816400	0.346692	-0.470066	0.282668	-0.490343	-1.058594	0.174805	-0.031494	0.091655	0.019021	0.043460	0.088117	-0.512872	-0.061836	-0.851689	1.835767	-62.191623	-169.293535
52383		8.883895	1.370572	4.577670	0.159941	-1.204611	0.201322	-0.402608	0.126961	-0.442687	-1.058350	0.167969	-0.031006	0.088898	0.013601	0.045693	0.085395	-0.512503	-0.061251	-0.852230	2.067992	-62.128994	-169.801749
52384		9.061174	1.364356	4.481886	-0.019913	-1.216092	0.315212	-0.486334	-0.052079	-0.426369	-1.062500	0.158936	-0.028320	0.090629	0.013559	0.044809	0.082338	-0.512848	-0.060269	-0.852394	2.244608	-62.155853	-170.318107
52385		9.393603	1.258841	4.157681	-0.475349	-1.182026	0.458028	-0.541683	-0.103993	-0.427545	-1.064697	0.158936	-0.025879	0.093941	0.012500	0.041592	0.079189	-0.513502	-0.059189	-0.852374	2.407215	-62.222676	-170.837346
52386		9.378684	1.348244	4.070965	-0.526622	-1.264513	0.408558	-0.489916	-0.108615	-0.457540	-1.066650	0.152344	-0.025635	0.093795	0.013368	0.040728	0.075971	-0.514069	-0.058294	-0.852387	2.620873	-62.279648	-171.397379
52387		9.374752	1.379630	4.245139	-0.364930	-1.239525	0.489783	-0.464846	-0.137693	-0.466921	-1.066406	0.145752	-0.018311	0.093750	0.013676	0.042484	0.072859	-0.514816	-0.057665	-0.852250	2.875681	-62.363382	-171.967863
52388		9.148635	1.208079	4.705291	0.110143	-0.954188	0.501095	-0.449559	-0.129372	-0.452837	-1.064209	0.143555	-0.018311	0.091483	0.011979	0.047085	0.069756	-0.515447	-0.056937	-0.852178	3.112529	-62.430228	-172.527242
52389		8.595684	0.940773	4.657739	0.283374	-0.646732	-0.016423	-0.453036	-0.136301	-0.396836	-1.066162	0.141113	-0.018066	0.085944	0.009343	0.046615	0.067052	-0.516241	-0.056261	-0.851959	3.308974	-62.520615	-173.008940
52390		8.314688	0.766742	4.645415	0.378959	-0.449806	-0.275609	-0.461573	-0.142521	-0.366553	-1.061768	0.141357	-0.015869	0.083128	0.007622	0.046496	0.064280	-0.516946	-0.055264	-0.851810	3.449109	-62.596227	-173.466306
52391		8.265245	0.756992	4.794568	0.539593	-0.405858	-0.251343	-0.463492	-0.109530	-0.326393	-1.070557	0.134521	-0.010986	0.082639	0.007546	0.047973	0.061806	-0.517587	-0.054215	-0.851672	3.541537	-62.664062	-173.855016
52392		8.148256	0.594288	4.919218	0.681051	-0.218028	-0.302977	-0.466328	-0.062318	-0.270099	-1.065674	0.127930	-0.015137	0.081475	0.005948	0.049204	0.059454	-0.517970	-0.052922	-0.851687	3.569205	-62.696626	-174.188368
52393		7.974439	0.497821	5.049645	0.861923	-0.097859	-0.400677	-0.454992	0.022858	-0.201039	-1.070068	0.125488	-0.008301	0.079755	0.005013	0.050476	0.057533	-0.518068	-0.051604	-0.851841	3.537357	-62.692959	-174.427355
52394		7.865376	0.539338	5.034402	0.900303	-0.147805	-0.503132	-0.464073	0.075268	-0.129186	-1.069824	0.118896	-0.007813	0.078676	0.005459	0.050302	0.055821	-0.517896	-0.049916	-0.852160	3.400994	-62.651991	-174.574652
52395		7.746005	0.831282	4.735599	0.731061	-0.488199	-0.738290	-0.496006	0.099540	-0.065919	-1.070068	0.125488	-0.005859	0.077486	0.008405	0.047297	0.054461	-0.517768	-0.048208	-0.852424	3.214620	-62.618785	-174.644240
52396		7.467695	1.071104	4.322577	0.520867	-0.791609	-1.169747	-0.451953	0.109665	-0.009735	-1.063477	0.125732	-0.005859	0.074701	0.010805	0.043160	0.053297	-0.517470	-0.046252	-0.852787	2.951588	-62.562357	-174.641167
52397		7.169908	1.211334	4.268530	0.624458	-0.941821	-1.456956	-0.334978	0.102411	0.007477	-1.067871	0.127930	-0.010498	0.071720	0.012187	0.042628	0.052815	-0.517345	-0.045027	-0.852958	2.754888	-62.536269	-174.586712
52398		7.057534	1.360573	4.315632	0.728996	-1.093605	-1.532760	-0.273226	0.097617	-0.006124	-1.067871	0.127930	-0.006104	0.070597	0.013662	0.043103	0.052124	-0.517049	-0.043827	-0.853242	2.591733	-62.486936	-174.580818
52399		7.008386	1.402419	4.398861	0.825571	-1.133614	-1.538174	-0.283912	0.085782	-0.025669	-1.067871	0.123291	-0.010254	0.070105	0.014078	0.043939	0.051604	-0.516943	-0.042856	-0.853388	2.453874	-62.464974	-174.567252
52400		6.920807	1.556538	4.441645	0.916758	-1.288806	-1.593983	-0.322927	0.040620	-0.071059	-1.067871	0.125488	-0.010498	0.069223	0.015612	0.044377	0.050495	-0.516888	-0.041626	-0.853548	2.336611	-62.446793	-174.645251
52401		6.939162	1.620413	4.466048	0.936435	-1.357148	-1.566201	-0.353755	-0.010865	-0.123466	-1.070068	0.125488	-0.014893	0.069399	0.016240	0.044636	0.049266	-0.517157	-0.040651	-0.853504	2.285965	-62.473405	-174.779411
52402		7.026541	1.723200	4.463049	0.904733	-1.469996	-1.489162	-0.386334	-0.062058	-0.178008	-1.070068	0.123291	-0.008057	0.070267	0.017256	0.044619	0.047515	-0.517531	-0.039452	-0.853433	2.254687	-62.511733	-174.995306
52403		7.325783	1.685998	4.460862	0.763212	-1.447609	-1.226016	-0.385401	-0.096172	-0.213781	-1.069824	0.121094	-0.005615	0.073254	0.016868	0.044611	0.045735	-0.518099	-0.038510	-0.853228	2.280412	-62.577681	-175.249570
52404		7.710450	1.551287	4.464522	0.576858	-1.329365	-0.885789	-0.393360	-0.107255	-0.222604	-1.072021	0.114258	-0.005371	0.077098	0.015515	0.044656	0.043765	-0.518654	-0.037407	-0.853043	2.297391	-62.640874	-175.524129
52405		8.115567	1.296048	4.528927	0.426659	-1.081812	-0.501351	-0.405573	-0.105902	-0.206283	-1.072021	0.116699	-0.003174	0.081145	0.012969	0.045306	0.042042	-0.519313	-0.036478	-0.852769	2.319445	-62.719834	-175.768832
52406		8.390119	1.049658	4.537591	0.286438	-0.847766	-0.258377	-0.407138	-0.075353	-0.185090	-1.067383	0.112305	-0.005127	0.083894	0.010511	0.045386	0.040201	-0.519737	-0.035213	-0.852653	2.286926	-62.765670	-175.996274
52407		8.346776	0.972010	4.520576	0.287058	-0.772536	-0.306381	-0.406519	-0.032607	-0.178508	-1.074219	0.114258	-0.002930	0.083469	0.009737	0.045200	0.038534	-0.520042	-0.034122	-0.852588	2.269843	-62.797145	-176.209977
52408		8.303574	1.011305	4.621636	0.398097	-0.804405	-0.298169	-0.376535	0.017501	-0.176002	-1.069580	0.112305	-0.000732	0.083049	0.010127	0.046190	0.036827	-0.520062	-0.032945	-0.852698	2.241092	-62.790161	-176.421843
52409		8.529719	1.024075	4.702041	0.362679	-0.819598	-0.060214	-0.333105	0.073447	-0.130646	-1.069336	0.107666	-0.007080	0.085321	0.010263	0.046972	0.035619	-0.519911	-0.032004	-0.852877	2.198027	-62.762961	-176.557927
52410		8.508020	0.900256	4.676874	0.328508	-0.705501	-0.093410	-0.274551	0.110866	-0.068371	-1.073730	0.105469	-0.000244	0.085109	0.009038	0.046709	0.034651	-0.519529	-0.030965	-0.853188	2.103800	-62.705064	-176.630512
52411		8.574620	0.838838	4.635622	0.243644	-0.656622	-0.054296	-0.214342	0.164825	-0.019865	-1.069092	0.101074	0.000000	0.085785	0.008429	0.046277	0.034133	-0.518955	-0.030254	-0.853584	2.021791	-62.623993	-176.650110
52412		8.624489	0.812075	4.716827	0.272042	-0.635804	0.026592	-0.171366	0.219754	0.024598	-1.069336	0.109863	-0.011719	0.086296	0.008172	0.047066	0.033846	-0.518102	-0.029396	-0.854143	1.880067	-62.505711	-176.602682
52413		8.422559	0.833380	4.830912	0.446728	-0.652890	-0.099509	-0.156013	0.266895	0.062035	-1.073975	0.107666	-0.007080	0.084287	0.008398	0.048190	0.033850	-0.517102	-0.028722	-0.854772	1.741453	-62.368964	-176.518418
52414		8.292737	0.932099	4.807431	0.468629	-0.766181	-0.223999	-0.136640	0.311539	0.095559	-1.071777	0.114258	-0.009766	0.082998	0.009393	0.047939	0.033969	-0.515860	-0.027813	-0.855547	1.541223	-62.199205	-176.382312
52415		8.321536	1.106574	4.971427	0.587997	-0.943276	-0.119808	-0.071739	0.354672	0.136962	-1.069336	0.107666	-0.018311	0.083296	0.011141	0.049563	0.034677	-0.514526	-0.027305	-0.856338	1.353176	-62.019804	-176.175574
52416		8.284483	1.158007	5.104928	0.695614	-1.000677	-0.089078	0.017020	0.365385	0.188080	-1.073975	0.109863	-0.022949	0.082927	0.011654	0.050899	0.035595	-0.513037	-0.026805	-0.857209	1.144432	-61.819996	-175.929576
52417		8.239907	1.029867	5.230770	0.783761	-0.876542	-0.069232	0.077670	0.376333	0.243269	-1.065186	0.116699	-0.027832	0.082485	0.010379	0.052157	0.036869	-0.511487	-0.026605	-0.858087	0.957392	-61.613819	-175.650319
52418		8.282407	0.872160	5.233061	0.717564	-0.741350	-0.031113	0.116942	0.417064	0.284991	-1.069824	0.121094	-0.030273	0.082920	0.008809	0.052163	0.038465	-0.509767	-0.026277	-0.859050	0.709451	-61.384387	-175.293601
52419		8.336982	0.676561	5.353466	0.740701	-0.557200	0.074847	0.196681	0.445652	0.297304	-1.067627	0.121094	-0.039307	0.083479	0.006837	0.053355	0.040317	-0.507886	-0.026336	-0.860077	0.516191	-61.135710	-174.937236
52420		8.374462	0.560856	5.400103	0.712071	-0.456932	0.131722	0.279628	0.462546	0.314252	-1.065430	0.121094	-0.043945	0.083860	0.005665	0.053815	0.042458	-0.505934	-0.026623	-0.861115	0.340145	-60.879147	-174.554454
52421		9.238625	0.606526	5.820743	0.617017	-0.517845	1.093825	0.364669	0.483182	0.341726	-1.068115	0.134277	-0.049072	0.092516	0.006117	0.057995	0.044764	-0.503792	-0.027277	-0.862233	0.225730	-60.600048	-174.188034
52422		10.935027	0.545101	6.714469	0.511166	-0.475605	3.011835	0.511931	0.389499	0.426834	-1.065918	0.132080	-0.051270	0.109469	0.005513	0.066946	0.047965	-0.502107	-0.028298	-0.863010	0.078297	-60.384586	-173.683253
52423		11.304206	-0.169370	7.230739	0.657144	0.247333	3.588962	0.630118	0.260546	0.534435	-1.065918	0.136475	-0.062744	0.113141	-0.001619	0.072155	0.051881	-0.500916	-0.029647	-0.863431	-0.089961	-60.237340	-173.070646
52424		10.135091	-1.076375	7.040640	0.932897	1.177437	2.483350	0.660202	0.151524	0.636366	-1.062012	0.145508	-0.061035	0.101438	-0.010673	0.070294	0.056322	-0.500234	-0.030841	-0.863506	-0.355227	-60.156129	-172.330673
52425		9.419562	-1.735821	6.622331	0.817917	1.810880	1.661114	0.612988	0.053424	0.674728	-1.064453	0.149902	-0.061279	0.094272	-0.017243	0.066145	0.060543	-0.499847	-0.031743	-0.863412	-0.656537	-60.110809	-171.597957
52426		9.562730	-1.968170	6.249692	0.383332	1.960659	1.606023	0.588323	-0.030490	0.653349	-1.055908	0.161133	-0.062012	0.095682	-0.019553	0.062454	0.064847	-0.499953	-0.032637	-0.863004	-0.978938	-60.129857	-170.839007
52427		10.146913	-1.835076	5.788833	-0.286952	1.699607	1.886324	0.598500	-0.068445	0.622197	-1.060547	0.165527	-0.062256	0.101506	-0.018208	0.057868	0.068919	-0.500130	-0.033685	-0.862546	-1.246863	-60.159372	-170.141160
52428		10.225432	-1.730914	5.084983	-0.915852	1.469419	1.607230	0.642209	-0.046730	0.620136	-1.056396	0.174561	-0.062744	0.102296	-0.017155	0.050818	0.073208	-0.500263	-0.034898	-0.862067	-1.507212	-60.184460	-169.418531
52429		9.764802	-1.506010	4.801131	-0.908853	1.221805	1.066255	0.717953	0.064991	0.608555	-1.054443	0.181396	-0.063232	0.097709	-0.014935	0.047926	0.077561	-0.499799	-0.036407	-0.861893	-1.699915	-60.134176	-168.731545
52430		9.220406	-1.258981	4.738966	-0.673711	0.996819	0.560889	0.756408	0.163714	0.582231	-1.050293	0.192627	-0.068359	0.092279	-0.012500	0.047267	0.082007	-0.498954	-0.038127	-0.861897	-1.848699	-60.036893	-168.061502
52431		8.634828	-1.046666	4.743609	-0.369258	0.827809	0.053209	0.733970	0.154461	0.533918	-1.052490	0.190186	-0.072754	0.086413	-0.010410	0.047331	0.086183	-0.498069	-0.039774	-0.861927	-1.977201	-59.934588	-167.439992
52432		8.392438	-1.042784	4.605057	-0.383703	0.814815	-0.225415	0.652237	0.057421	0.470092	-1.055176	0.198975	-0.077881	0.083962	-0.010381	0.045993	0.089862	-0.497684	-0.041369	-0.861698	-2.073942	-59.898943	-166.897909
52433		8.471839	-1.126140	4.409885	-0.613477	0.844612	-0.252477	0.670102	-0.054613	0.452067	-1.048584	0.203613	-0.069092	0.084732	-0.011218	0.044084	0.093289	-0.497613	-0.042997	-0.861295	-2.146076	-59.906203	-166.399730
52434		8.788911	-1.255064	4.379638	-0.816304	0.919248	0.010245	0.642234	-0.149549	0.426276	-1.048828	0.206055	-0.071533	0.087883	-0.012504	0.043822	0.096707	-0.498099	-0.044752	-0.860548	-2.213412	-59.989206	-165.898388
52435		9.180502	-1.331870	4.324590	-1.057761	0.928059	0.325231	0.590687	-0.214609	0.378092	-1.051270	0.212646	-0.074219	0.091784	-0.013273	0.043305	0.099837	-0.498854	-0.046400	-0.859665	-2.280437	-60.107236	-165.431776
52436		9.519910	-1.388717	4.497679	-1.067781	0.967255	0.709221	0.548551	-0.282317	0.333832	-1.044678	0.214844	-0.072021	0.095159	-0.013852	0.045073	0.102591	-0.499922	-0.048046	-0.858630	-2.319002	-60.267843	-165.026655
52437		9.967335	-1.411749	4.737302	-1.060002	0.974086	1.219552	0.500956	-0.330245	0.278156	-1.042236	0.212891	-0.065186	0.099615	-0.014098	0.047502	0.104897	-0.501086	-0.049487	-0.857590	-2.351878	-60.439379	-164.682819
52438		10.316238	-1.545428	4.929224	-1.063216	1.098753	1.622897	0.481911	-0.338430	0.244372	-1.042480	0.217285	-0.063232	0.103098	-0.015447	0.049430	0.107086	-0.502395	-0.051099	-0.856458	-2.345647	-60.633975	-164.374380
52439		10.233412	-1.752956	4.939983	-1.033346	1.317742	1.562491	0.475981	-0.346137	0.244893	-1.040527	0.223877	-0.063721	0.102270	-0.017522	0.049535	0.109252	-0.503702	-0.052641	-0.855323	-2.352732	-60.827762	-164.060657
52440		10.015911	-1.912670	5.102247	-0.803649	1.539312	1.456488	0.478649	-0.309948	0.250807	-1.040771	0.228516	-0.057129	0.100104	-0.019123	0.051132	0.111466	-0.504883	-0.054206	-0.854242	-2.358072	-61.005867	-163.742253
52441		9.697167	-1.932734	4.983959	-0.739358	1.577825	1.122309	0.460430	-0.258214	0.245096	-1.035889	0.219727	-0.054443	0.096931	-0.019323	0.049920	0.113700	-0.505795	-0.055520	-0.853324	-2.406726	-61.144396	-163.398853
52442		9.658903	-1.837344	4.993872	-0.672293	1.495539	1.092374	0.421693	-0.208338	0.228130	-1.040771	0.228516	-0.054932	0.096558	-0.018369	0.050001	0.115701	-0.506559	-0.056841	-0.852514	-2.420425	-61.264695	-163.109013
52443		9.439023	-1.614528	5.150142	-0.368422	1.344896	0.970695	0.401723	-0.162878	0.231464	-1.042969	0.230713	-0.055176	0.094367	-0.016140	0.051546	0.117684	-0.507124	-0.057993	-0.851829	-2.458292	-61.355994	-162.809725
52444		8.733589	-1.254585	5.080479	0.001841	1.082211	0.311029	0.346707	-0.179909	0.246623	-1.038574	0.232910	-0.055176	0.087306	-0.012526	0.050862	0.119580	-0.507809	-0.058930	-0.851092	-2.535581	-61.459347	-162.496951
52445		8.149368	-1.020469	4.997240	0.273575	0.920410	-0.246918	0.333181	-0.203772	0.225488	-1.039063	0.241943	-0.055664	0.081454	-0.010196	0.050038	0.121327	-0.508534	-0.059751	-0.850354	-2.621605	-61.566128	-162.198029
52446		7.885980	-0.802589	4.677193	0.196492	0.680317	-0.636223	0.334848	-0.230153	0.193634	-1.038818	0.235352	-0.050781	0.078814	-0.008028	0.046849	0.122951	-0.509419	-0.060802	-0.849517	-2.655112	-61.699231	-161.943388
52447		7.828326	-0.635172	4.449585	0.091891	0.478444	-0.798944	0.313678	-0.240425	0.155812	-1.032227	0.242188	-0.051270	0.078235	-0.006361	0.044580	0.124367	-0.510269	-0.061692	-0.848736	-2.695057	-61.825285	-161.713423
52448		7.913093	-0.586838	4.433577	0.072657	0.423031	-0.733383	0.315067	-0.235599	0.137748	-1.032227	0.239990	-0.042236	0.079083	-0.005884	0.044420	0.125701	-0.511167	-0.062804	-0.847917	-2.683095	-61.962855	-161.523783
52449		7.981673	-0.640543	4.300404	-0.067379	0.438095	-0.734451	0.317477	-0.235298	0.133323	-1.034668	0.244385	-0.046875	0.079770	-0.006421	0.043088	0.127117	-0.512035	-0.063806	-0.847107	-2.703588	-62.094198	-161.303994
52450		7.928047	-0.795955	4.213017	-0.143909	0.581652	-0.819472	0.297434	-0.216250	0.130688	-1.034912	0.248779	-0.040527	0.079240	-0.007970	0.042204	0.128383	-0.512855	-0.064849	-0.846341	-2.695146	-62.220854	-161.122252
52451		7.816268	-1.042604	4.094180	-0.250923	0.808214	-0.968073	0.283017	-0.182387	0.131179	-1.034668	0.246582	-0.038086	0.078132	-0.010433	0.040998	0.129758	-0.513512	-0.065652	-0.845670	-2.742319	-62.320738	-160.894877
52452		7.828694	-1.302801	4.012938	-0.388438	1.039504	-0.988972	0.272870	-0.157381	0.132808	-1.034912	0.250977	-0.051758	0.078264	-0.013031	0.040173	0.130989	-0.514096	-0.066547	-0.845055	-2.748989	-62.413560	-160.712299
52453		7.854292	-1.352074	3.994030	-0.421579	1.076515	-0.973363	0.255563	-0.138426	0.144077	-1.039307	0.250977	-0.040527	0.078525	-0.013515	0.039977	0.132233	-0.514511	-0.067106	-0.844565	-2.818275	-62.476712	-160.493297
52454		7.896836	-1.264283	3.872580	-0.507786	0.955231	-0.993108	0.231899	-0.139954	0.169200	-1.034912	0.250977	-0.036133	0.078952	-0.012621	0.038766	0.133518	-0.515057	-0.067722	-0.843980	-2.889029	-62.558305	-160.265170
52455		7.903700	-1.064938	3.822857	-0.482346	0.745996	-1.013391	0.215302	-0.147979	0.179295	-1.039551	0.255371	-0.034180	0.079018	-0.010620	0.038276	0.134914	-0.515642	-0.068136	-0.843367	-3.019311	-62.640075	-159.985275
52456		7.913779	-0.870967	3.796144	-0.439148	0.548903	-1.020473	0.187148	-0.135295	0.178738	-1.037598	0.260010	-0.034424	0.079120	-0.008675	0.038007	0.136125	-0.516199	-0.068535	-0.842800	-3.128133	-62.718299	-159.743489
52457		7.979086	-0.715721	3.831926	-0.376876	0.391677	-0.948926	0.164058	-0.112393	0.171098	-1.035156	0.257813	-0.034180	0.079775	-0.007120	0.038358	0.137483	-0.516706	-0.068747	-0.842252	-3.293189	-62.784826	-159.448569
52458		8.092819	-0.562856	3.862230	-0.342427	0.230722	-0.837341	0.132214	-0.099200	0.152369	-1.028809	0.266846	-0.034912	0.080913	-0.005592	0.038659	0.138454	-0.517137	-0.068958	-0.841810	-3.403922	-62.842770	-159.240309
52459		8.166648	-0.596891	3.842410	-0.390145	0.237397	-0.779086	0.105201	-0.090402	0.118906	-1.028809	0.264404	-0.036865	0.081653	-0.005941	0.038458	0.139419	-0.517532	-0.068970	-0.841407	-3.553549	-62.891056	-159.009973
52460		8.188337	-0.674585	3.822435	-0.431540	0.300138	-0.766217	0.082730	-0.069928	0.073056	-1.035400	0.260010	-0.034424	0.081872	-0.006732	0.038250	0.139940	-0.517846	-0.069157	-0.841112	-3.603371	-62.934708	-158.902146
52461		8.277596	-0.774097	3.766776	-0.541223	0.361443	-0.708684	0.036789	-0.058988	0.033334	-1.030762	0.260010	-0.034424	0.082766	-0.007734	0.037691	0.140231	-0.518074	-0.069062	-0.840931	-3.676177	-62.961133	-158.813724
52462		8.468141	-0.856103	3.726482	-0.675453	0.398884	-0.554521	0.010596	-0.057835	-0.013771	-1.026367	0.262451	-0.036865	0.084670	-0.008569	0.037289	0.140205	-0.518357	-0.069162	-0.840753	-3.669676	-63.000940	-158.815562
52463		8.633024	-0.958382	3.685549	-0.807499	0.459090	-0.422903	-0.016891	-0.052008	-0.050669	-1.031006	0.262207	-0.027832	0.086318	-0.009603	0.036879	0.139933	-0.518541	-0.069035	-0.840695	-3.671165	-63.023197	-158.848472
52464		8.775511	-0.981525	3.635814	-0.913633	0.449820	-0.317685	-0.065138	-0.018626	-0.085235	-1.030518	0.255615	-0.027344	0.087748	-0.009841	0.036370	0.139423	-0.518687	-0.068974	-0.840695	-3.625022	-63.043138	-158.943454
52465		8.909942	-0.967440	3.520653	-1.062448	0.387981	-0.250330	-0.126307	0.024349	-0.126916	-1.033203	0.262207	-0.030029	0.089098	-0.009709	0.035202	0.138726	-0.518734	-0.068680	-0.840805	-3.595947	-63.045071	-159.056196
52466		9.104448	-1.180674	3.589724	-1.155279	0.583434	-0.040482	-0.171740	0.092632	-0.165417	-1.028320	0.253418	-0.031738	0.091051	-0.011851	0.035865	0.137641	-0.518458	-0.068301	-0.841184	-3.513099	-63.004190	-159.260912
52467		9.344122	-1.470230	3.670583	-1.285697	0.844921	0.216293	-0.226770	0.160941	-0.201108	-1.037354	0.253174	-0.031738	0.093456	-0.014755	0.036647	0.136346	-0.517907	-0.067605	-0.841791	-3.451952	-62.920337	-159.486811
52468		9.340609	-1.695837	3.771008	-1.282217	1.091566	0.262416	-0.293755	0.242398	-0.234975	-1.032715	0.253418	-0.029541	0.093432	-0.017013	0.037622	0.134703	-0.517059	-0.066790	-0.842641	-3.353104	-62.795903	-159.788364
52469		9.275220	-1.806568	3.952638	-1.152980	1.254493	0.287490	-0.376268	0.325262	-0.268824	-1.037109	0.248779	-0.035889	0.092792	-0.018116	0.039410	0.132826	-0.515936	-0.065586	-0.843722	-3.290057	-62.627356	-160.105029
52470		9.076335	-1.820932	4.045868	-1.019471	1.324150	0.150842	-0.409644	0.394983	-0.303351	-1.034668	0.246582	-0.042480	0.090815	-0.018264	0.040317	0.130644	-0.514491	-0.064355	-0.845038	-3.177541	-62.417451	-160.497749
52471		8.900253	-1.760012	4.128311	-0.888443	1.312054	0.028256	-0.450104	0.457171	-0.336942	-1.041260	0.241943	-0.046875	0.089067	-0.017657	0.041119	0.128203	-0.512753	-0.062857	-0.846580	-3.074867	-62.164161	-160.923623
52472		9.230797	-1.507916	4.542903	-0.648387	1.119353	0.504575	-0.473204	0.477358	-0.378342	-1.039063	0.244141	-0.051514	0.092387	-0.015147	0.045244	0.125564	-0.510965	-0.061494	-0.848155	-2.922093	-61.908597	-161.404899
52473		9.879724	-1.170426	4.967844	-0.525126	0.796573	1.266477	-0.498641	0.403900	-0.414979	-1.040771	0.230713	-0.048340	0.098873	-0.011786	0.049508	0.122608	-0.509389	-0.059968	-0.849643	-2.779679	-61.678959	-161.917382
52474		11.402157	-0.683592	5.506061	-0.658715	0.236344	2.848407	-0.490571	0.265587	-0.459513	-1.038330	0.228516	-0.052734	0.114079	-0.006963	0.054926	0.119513	-0.508472	-0.058868	-0.850710	-2.571611	-61.545443	-162.474712
52475		12.488561	-0.295606	6.305406	-0.390020	-0.095102	4.174751	-0.524021	0.010780	-0.504602	-1.042969	0.226318	-0.048096	0.124881	-0.003106	0.063055	0.115974	-0.508622	-0.057803	-0.851183	-2.354939	-61.554179	-163.079683
52476		11.560129	-0.132661	6.768449	0.471824	0.003291	3.575493	-0.546319	-0.101425	-0.521907	-1.040283	0.217285	-0.049805	0.115563	-0.001443	0.067747	0.112361	-0.509267	-0.056840	-0.851347	-2.130271	-61.630169	-163.692307
52477		9.743242	0.098921	5.705547	0.459418	-0.176436	1.467895	-0.305242	-0.140782	-0.472909	-1.046875	0.217285	-0.042969	0.097394	0.000846	0.057123	0.109518	-0.509938	-0.056699	-0.851325	-1.833420	-61.722684	-164.243356
52478		9.646974	0.787752	4.678499	-0.193620	-1.008045	0.888676	-0.035802	-0.271490	-0.429439	-1.046631	0.210693	-0.038086	0.096423	0.007679	0.046915	0.107549	-0.511041	-0.057765	-0.850843	-1.413865	-61.891405	-164.743987
52479		10.704165	1.856239	4.167644	-0.829418	-2.235700	1.576230	-0.007094	-0.351387	-0.424904	-1.046631	0.206299	-0.033447	0.107007	0.018337	0.041864	0.105742	-0.512522	-0.058943	-0.850097	-1.001339	-62.110696	-165.216067
52480		11.080261	2.461267	3.557126	-1.359389	-2.946062	1.630902	-0.158939	-0.265990	-0.441565	-1.055176	0.199463	-0.028320	0.110809	0.024396	0.035699	0.103406	-0.513656	-0.059515	-0.849660	-0.627460	-62.273029	-165.743049
52481		10.352954	2.428974	3.434705	-1.136460	-2.817352	0.941459	-0.236983	-0.115438	-0.406649	-1.054932	0.190430	-0.032471	0.103559	0.024120	0.034378	0.101172	-0.514305	-0.059631	-0.849528	-0.339682	-62.362475	-166.211446
52482		9.779934	2.085558	3.801586	-0.651267	-2.318902	0.610710	-0.247962	0.029275	-0.324913	-1.054932	0.194824	-0.028076	0.097839	0.020744	0.037976	0.099190	-0.514260	-0.059373	-0.849807	-0.136720	-62.352920	-166.602292
52483		9.648078	1.560386	4.141890	-0.435090	-1.710935	0.654348	-0.268770	0.134194	-0.237868	-1.057373	0.194824	-0.025879	0.096527	0.015545	0.041333	0.097537	-0.513852	-0.058792	-0.850286	-0.031968	-62.289750	-166.893026
52484		9.196130	1.267618	4.522291	0.013226	-1.297513	0.431483	-0.275764	0.117053	-0.209931	-1.057129	0.190430	-0.030029	0.092001	0.012642	0.045152	0.095997	-0.513477	-0.058076	-0.850737	0.028324	-62.229170	-167.141037
52485		9.066495	1.203575	4.734297	0.232033	-1.179415	0.415637	-0.353328	0.044380	-0.206743	-1.052490	0.186035	-0.027588	0.090688	0.012026	0.047302	0.094438	-0.513564	-0.057119	-0.850924	0.025505	-62.226410	-167.349535
52486		9.095877	1.071407	4.556076	0.030107	-1.087856	0.358664	-0.385546	-0.007505	-0.222489	-1.056885	0.183594	-0.027588	0.090969	0.010701	0.045544	0.092526	-0.513765	-0.056028	-0.851085	0.036265	-62.237175	-167.612734
52487		9.111041	0.996570	4.463055	-0.072279	-1.030528	0.329101	-0.372013	-0.036010	-0.239445	-1.059082	0.185791	-0.027588	0.091114	0.009940	0.044628	0.090660	-0.514178	-0.055133	-0.851094	0.075793	-62.279278	-167.885105
52488		9.330973	0.911313	4.869573	0.162081	-0.888200	0.713239	-0.380386	-0.053388	-0.250708	-1.056641	0.179199	-0.027100	0.093308	0.009089	0.048703	0.088628	-0.514560	-0.054157	-0.851141	0.121074	-62.316205	-168.183813
52489		9.332920	0.815949	5.073238	0.321567	-0.756284	0.809532	-0.443996	-0.039157	-0.230224	-1.063232	0.177002	-0.024902	0.093329	0.008165	0.050733	0.086613	-0.514975	-0.052894	-0.851176	0.103404	-62.354089	-168.442081
52490		8.971169	0.794116	5.139194	0.538530	-0.692222	0.519525	-0.429736	0.004210	-0.218427	-1.054199	0.177002	-0.022705	0.089721	0.007954	0.051373	0.084605	-0.515136	-0.051600	-0.851360	0.085628	-62.358079	-168.701372
52491		8.526323	0.925069	4.976816	0.624294	-0.812240	0.050028	-0.406509	0.026993	-0.206218	-1.060791	0.172607	-0.020020	0.085279	0.009264	0.049738	0.082810	-0.515272	-0.050435	-0.851524	0.068275	-62.360788	-168.932265
52492		8.196774	0.882888	4.912870	0.704696	-0.757862	-0.271622	-0.401132	0.054619	-0.191258	-1.060791	0.170166	-0.020020	0.081990	0.008849	0.049089	0.081004	-0.515208	-0.049170	-0.851810	0.037045	-62.336032	-169.157893
52493		7.782933	0.811185	4.752701	0.735583	-0.683972	-0.712615	-0.388185	0.090622	-0.163678	-1.058594	0.174805	-0.020264	0.077858	0.008140	0.047476	0.079489	-0.515118	-0.048013	-0.852074	-0.008692	-62.309398	-169.335468
52494		7.643273	0.668298	4.592171	0.625282	-0.566720	-0.910883	-0.389451	0.075423	-0.138275	-1.065186	0.167969	-0.026367	0.076455	0.006719	0.045880	0.077942	-0.514970	-0.046654	-0.852382	-0.091387	-62.272941	-169.495542
52495		7.600934	0.656825	4.706359	0.736444	-0.544343	-0.895471	-0.380843	0.090588	-0.102015	-1.063232	0.172363	-0.020020	0.076034	0.006619	0.047017	0.076686	-0.514822	-0.045291	-0.852658	-0.212006	-62.236930	-169.593536
52496		7.448719	0.764439	4.534376	0.670019	-0.677562	-1.110945	-0.395595	0.046245	-0.073077	-1.062988	0.167969	-0.019775	0.074500	0.007707	0.045311	0.075394	-0.514812	-0.043748	-0.852860	-0.369427	-62.217339	-169.673232
52497		7.269868	0.913307	4.578490	0.816925	-0.816739	-1.250372	-0.404367	0.019506	-0.061896	-1.074219	0.170166	-0.013184	0.072706	0.009203	0.045759	0.074339	-0.515045	-0.042265	-0.852887	-0.551114	-62.231159	-169.704472
52498		7.181074	1.149815	4.584614	0.901568	-1.056565	-1.328619	-0.422656	0.007142	-0.078865	-1.067383	0.165771	-0.019531	0.071817	0.011567	0.045819	0.072944	-0.515207	-0.040636	-0.852989	-0.718008	-62.234287	-169.790993
52499		7.219742	1.281612	4.343962	0.698261	-1.236970	-1.409144	-0.433080	-0.008690	-0.101136	-1.065430	0.172363	-0.022217	0.072202	0.012874	0.043415	0.071702	-0.515601	-0.039232	-0.852922	-0.863873	-62.271269	-169.867502
52500		7.322369	1.340829	4.202072	0.535209	-1.334802	-1.386290	-0.420935	-0.018967	-0.128327	-1.062744	0.163574	-0.017334	0.073228	0.013450	0.041999	0.070093	-0.515860	-0.037747	-0.852966	-0.976192	-62.290090	-170.014543
52501		7.357545	1.386051	4.114764	0.449405	-1.402661	-1.397435	-0.403948	-0.010315	-0.141207	-1.062500	0.159180	-0.010254	0.073583	0.013892	0.041123	0.068622	-0.516130	-0.036436	-0.852979	-1.070088	-62.312773	-170.153973
52502		7.358676	1.374135	4.142933	0.468633	-1.393789	-1.384165	-0.409839	-0.010629	-0.171502	-1.062744	0.165771	-0.006104	0.073596	0.013763	0.041405	0.066859	-0.516337	-0.035107	-0.853049	-1.128651	-62.327531	-170.354482
52503		7.330609	1.416180	4.164306	0.508831	-1.433628	-1.400159	-0.406565	-0.004179	-0.201366	-1.062500	0.159180	-0.012451	0.073319	0.014173	0.041616	0.065346	-0.516747	-0.034130	-0.852958	-1.150678	-62.373312	-170.541653
52504		7.479636	1.388130	4.194115	0.457841	-1.415580	-1.254126	-0.378242	0.001923	-0.223966	-1.066895	0.156738	-0.016846	0.074812	0.013877	0.041914	0.063441	-0.516877	-0.033067	-0.853065	-1.133043	-62.381660	-170.807653
52505		7.560249	1.305064	4.240350	0.446470	-1.331232	-1.159965	-0.296576	0.014140	-0.225766	-1.066895	0.154541	-0.014404	0.075620	0.013028	0.042379	0.061866	-0.517003	-0.032494	-0.853126	-1.054507	-62.394445	-171.066088
52506		7.687309	1.067960	4.387134	0.479054	-1.084248	-0.976562	-0.220191	0.024954	-0.203411	-1.066895	0.156738	-0.012451	0.076889	0.010650	0.043850	0.060461	-0.516986	-0.032044	-0.853255	-0.968187	-62.389147	-171.307375
52507		7.876765	0.904920	4.470544	0.440224	-0.920503	-0.767968	-0.177016	0.042310	-0.186914	-1.064697	0.154541	-0.012207	0.078786	0.009015	0.044681	0.059418	-0.516963	-0.031867	-0.853348	-0.870962	-62.385446	-171.506642
52508		8.041316	0.699965	4.519234	0.374335	-0.718855	-0.597521	-0.176778	0.051891	-0.155991	-1.062256	0.152588	-0.007568	0.080430	0.006977	0.045165	0.058332	-0.516823	-0.031473	-0.853522	-0.811439	-62.364023	-171.689647
52509		8.055912	0.637594	4.657630	0.478022	-0.640269	-0.519717	-0.191472	0.078998	-0.135788	-1.066406	0.145752	-0.013916	0.080582	0.006366	0.046538	0.057594	-0.516718	-0.031121	-0.853649	-0.788450	-62.347244	-171.803424
52510		8.132644	0.662982	4.766513	0.532431	-0.658757	-0.400905	-0.203141	0.111825	-0.131271	-1.066406	0.145752	-0.016113	0.081357	0.006625	0.047613	0.056555	-0.516333	-0.030533	-0.853973	-0.770614	-62.291266	-171.956506
52511		8.294290	0.801760	4.851480	0.539734	-0.798021	-0.218588	-0.204275	0.137207	-0.104392	-1.072998	0.141113	-0.011475	0.082980	0.008024	0.048450	0.055713	-0.515900	-0.030020	-0.854308	-0.761487	-62.229340	-172.077926
52512		8.383951	0.885802	4.932215	0.564891	-0.883581	-0.101756	-0.169837	0.173559	-0.055900	-1.068604	0.143311	-0.011475	0.083885	0.008876	0.049242	0.055090	-0.515252	-0.029362	-0.854762	-0.806216	-62.137438	-172.138885
52513		8.492325	0.999509	4.997936	0.573382	-1.001325	0.024309	-0.123397	0.203798	0.006375	-1.070801	0.138916	-0.018066	0.084974	0.010029	0.049887	0.055105	-0.514632	-0.029037	-0.855146	-0.862617	-62.051664	-172.107109
52514		8.471999	1.031017	5.211566	0.754284	-1.020550	0.106368	-0.065564	0.236429	0.083792	-1.064209	0.145752	-0.013916	0.084777	0.010363	0.052012	0.055357	-0.513707	-0.028448	-0.855706	-0.996875	-61.922599	-171.999111
52515		8.446927	1.066520	5.404469	0.920996	-1.045865	0.175014	-0.015977	0.274689	0.143994	-1.059570	0.143555	-0.022705	0.084536	0.010730	0.053928	0.056203	-0.512749	-0.028180	-0.856233	-1.136953	-61.791515	-171.808652
52516		8.462448	1.119072	5.549752	1.021693	-1.101013	0.257512	0.061211	0.324770	0.197035	-1.066650	0.149902	-0.034424	0.084703	0.011257	0.055363	0.057277	-0.511425	-0.027818	-0.856966	-1.314606	-61.610267	-171.568597
52517		8.475618	1.030042	5.577381	0.998247	-1.027364	0.284449	0.102442	0.376261	0.240128	-1.071289	0.154297	-0.032471	0.084848	0.010374	0.055620	0.058632	-0.509871	-0.027614	-0.857806	-1.486117	-61.399587	-171.297307
52518		8.680845	0.801540	5.749508	0.988853	-0.817643	0.551186	0.166257	0.380166	0.291275	-1.062256	0.154541	-0.043701	0.086906	0.008094	0.057337	0.060385	-0.508287	-0.027445	-0.858629	-1.694796	-61.184397	-170.952316
52519		9.338967	0.607744	6.119991	0.937848	-0.655663	1.310728	0.239338	0.360521	0.340699	-1.062500	0.158936	-0.039307	0.093489	0.006164	0.061039	0.062529	-0.506738	-0.027547	-0.859388	-1.892732	-60.975777	-170.562586
52520		10.092679	0.299332	6.371581	0.721659	-0.405838	2.097946	0.337815	0.303666	0.402111	-1.069580	0.165527	-0.048828	0.101017	0.003089	0.063568	0.065182	-0.505438	-0.027858	-0.859947	-2.112018	-60.800978	-170.091585
52521		9.937963	-0.319648	6.330155	0.647231	0.191570	1.955084	0.411874	0.216488	0.478776	-1.062988	0.167969	-0.048828	0.099456	-0.003089	0.063187	0.068410	-0.504501	-0.028433	-0.860227	-2.353020	-60.675588	-169.529022
52522		9.428545	-1.002855	6.452691	0.875776	0.901289	1.587356	0.469472	0.186605	0.541891	-1.065674	0.178955	-0.051758	0.094373	-0.009924	0.064416	0.071978	-0.503668	-0.028995	-0.860405	-2.636946	-60.562355	-168.896017
52523		9.849149	-1.274043	6.923153	1.018022	1.160910	2.194594	0.457461	0.100561	0.575581	-1.059082	0.185791	-0.052246	0.098563	-0.012615	0.069153	0.075732	-0.503210	-0.029540	-0.860332	-2.955219	-60.496976	-168.215204
52524		10.775018	-1.594874	6.794723	0.404973	1.335688	2.949160	0.428073	-0.067929	0.597163	-1.059082	0.185791	-0.052246	0.107774	-0.015772	0.067950	0.079396	-0.503482	-0.029879	-0.859831	-3.328179	-60.524134	-167.506473
52525		11.175363	-1.731964	6.551528	-0.010234	1.359300	3.185890	0.454350	-0.127018	0.616130	-1.057373	0.197021	-0.052979	0.111765	-0.017124	0.065547	0.083301	-0.504010	-0.030382	-0.859135	-3.708176	-60.585063	-166.757188
52526		11.166111	-1.773662	6.471134	-0.072786	1.352134	3.143771	0.516614	-0.087200	0.632384	-1.055176	0.201416	-0.062256	0.111689	-0.017551	0.064715	0.087333	-0.504318	-0.031019	-0.858530	-4.070340	-60.617326	-166.003240
52527		10.679662	-1.737595	6.302510	0.019694	1.315461	2.639829	0.605593	-0.039644	0.632248	-1.046631	0.208252	-0.055908	0.106839	-0.017229	0.062994	0.091529	-0.504280	-0.031971	-0.858080	-4.375676	-60.607510	-165.264702
52528		9.912460	-1.635227	6.024254	0.158580	1.241894	1.834414	0.650400	0.005082	0.608217	-1.049072	0.212646	-0.056152	0.099176	-0.016247	0.060187	0.095806	-0.504110	-0.033201	-0.857667	-4.629758	-60.584146	-164.546763
52529		9.051464	-1.459270	5.795105	0.396135	1.126515	0.967653	0.627411	-0.017553	0.554921	-1.049316	0.219482	-0.056641	0.090550	-0.014523	0.057913	0.099762	-0.503984	-0.034458	-0.857240	-4.842460	-60.568716	-163.894935
52530		8.435716	-1.282660	5.488601	0.458783	0.976505	0.275287	0.594918	-0.087386	0.478632	-1.042969	0.226318	-0.054688	0.084364	-0.012788	0.054885	0.103325	-0.504198	-0.035821	-0.856636	-5.004609	-60.601903	-163.318935
52531		7.943871	-1.134791	5.105853	0.400164	0.832368	-0.346453	0.566395	-0.176751	0.409796	-1.047607	0.230713	-0.052734	0.079417	-0.011330	0.051097	0.106565	-0.504785	-0.037284	-0.855831	-5.129010	-60.688040	-162.800788
52532		7.759282	-1.042867	4.829958	0.284740	0.722282	-0.646459	0.535203	-0.254839	0.345986	-1.047363	0.228271	-0.050293	0.077549	-0.010424	0.048371	0.109376	-0.505709	-0.038813	-0.854862	-5.209404	-60.822416	-162.358645
52533		7.850637	-1.068914	4.599117	0.060114	0.697244	-0.678293	0.505470	-0.317852	0.291787	-1.041016	0.235107	-0.048584	0.078449	-0.010691	0.046089	0.111978	-0.506947	-0.040461	-0.853715	-5.260755	-61.002116	-161.954512
52534		8.365490	-1.174706	4.436151	-0.314822	0.698832	-0.301996	0.473822	-0.376711	0.248146	-1.045654	0.237305	-0.051025	0.083586	-0.011749	0.044491	0.114189	-0.508394	-0.042042	-0.852484	-5.292888	-61.210796	-161.609165
52535		8.975021	-1.314458	4.501815	-0.537397	0.761425	0.270787	0.440045	-0.423484	0.212699	-1.038818	0.237549	-0.046631	0.089669	-0.013148	0.045179	0.116192	-0.510039	-0.043596	-0.851151	-5.319368	-61.446656	-161.290245
52536		9.463282	-1.447736	4.546698	-0.713105	0.833975	0.728562	0.380140	-0.457713	0.174536	-1.041504	0.246338	-0.035889	0.094541	-0.014481	0.045656	0.117831	-0.511859	-0.045011	-0.849759	-5.341889	-61.705307	-161.018394
52537		9.824284	-1.639648	4.534704	-0.889697	0.971712	1.051593	0.356258	-0.453825	0.141303	-1.036865	0.244385	-0.035645	0.098151	-0.016408	0.045541	0.119371	-0.513684	-0.046401	-0.848367	-5.360313	-61.965312	-160.761298
52538		9.795158	-1.847619	4.555288	-0.869961	1.194099	1.046715	0.356573	-0.439626	0.129812	-1.039063	0.241943	-0.031006	0.097863	-0.018494	0.045735	0.120762	-0.515422	-0.047819	-0.847036	-5.351835	-62.215989	-160.541103
52539		9.410363	-1.964069	4.459342	-0.775632	1.358441	0.668303	0.366779	-0.406389	0.131786	-1.041504	0.248779	-0.026855	0.094026	-0.019661	0.044748	0.122255	-0.517027	-0.049248	-0.845761	-5.348413	-62.449510	-160.305954
52540		9.006268	-2.094123	4.444695	-0.614632	1.556017	0.309294	0.386778	-0.375402	0.132936	-1.039307	0.248779	-0.027100	0.089993	-0.020968	0.044575	0.123751	-0.518466	-0.050746	-0.844573	-5.323224	-62.663428	-160.086019
52541		8.676408	-2.100135	4.429078	-0.460170	1.620293	0.009237	0.389750	-0.356611	0.139081	-1.041504	0.248779	-0.020264	0.086700	-0.021028	0.044404	0.125392	-0.519833	-0.052202	-0.843401	-5.323275	-62.866574	-159.832064
52542		8.590974	-1.934281	4.375503	-0.401349	1.473706	-0.098864	0.354993	-0.330004	0.117640	-1.039307	0.248779	-0.020264	0.085849	-0.019370	0.043862	0.126751	-0.521089	-0.053577	-0.842336	-5.297785	-63.055453	-159.633705
52543		8.631832	-1.739701	4.138223	-0.546363	1.236847	-0.177771	0.308355	-0.325920	0.117457	-1.039307	0.248779	-0.013428	0.086261	-0.017410	0.041496	0.128057	-0.522378	-0.054755	-0.841264	-5.309898	-63.244926	-159.418841
52544		8.579854	-1.492419	4.146701	-0.424070	1.016886	-0.230287	0.282848	-0.317944	0.140380	-1.037354	0.255615	-0.013916	0.085743	-0.014923	0.041582	0.129325	-0.523629	-0.055759	-0.840225	-5.353359	-63.425692	-159.190235
52545		8.362433	-1.286481	4.015343	-0.362224	0.828447	-0.491169	0.254361	-0.328349	0.141104	-1.037354	0.255615	-0.011719	0.083567	-0.012857	0.040274	0.130623	-0.524983	-0.056646	-0.839119	-5.434388	-63.617281	-158.931736
52546		8.266250	-1.125568	3.684453	-0.535950	0.617693	-0.729509	0.239626	-0.343047	0.138461	-1.030518	0.253418	-0.004883	0.082607	-0.011243	0.036973	0.131763	-0.526362	-0.057489	-0.838020	-5.507537	-63.812239	-158.698395
52547		8.194390	-1.042386	3.761939	-0.387577	0.571670	-0.762289	0.228001	-0.307824	0.124052	-1.033203	0.260254	-0.002930	0.081892	-0.010416	0.037734	0.132889	-0.527628	-0.058271	-0.836990	-5.586391	-63.991278	-158.465007
52548		8.152947	-1.089953	3.737973	-0.380568	0.623248	-0.807263	0.224853	-0.279802	0.114920	-1.035645	0.264648	0.003418	0.081483	-0.010895	0.037482	0.133908	-0.528740	-0.059072	-0.836070	-5.637466	-64.151252	-158.266334
52549		7.983897	-1.175565	3.700093	-0.345240	0.726618	-0.971417	0.234041	-0.272368	0.101979	-1.035156	0.255615	0.001709	0.079794	-0.011758	0.037096	0.135145	-0.529896	-0.059928	-0.835077	-5.712373	-64.317163	-158.021104
52550		7.936723	-1.292066	3.667467	-0.368469	0.844657	-1.022802	0.237433	-0.251535	0.074325	-1.035400	0.260010	0.001465	0.079326	-0.012935	0.036759	0.136036	-0.530866	-0.060869	-0.834249	-5.707857	-64.463222	-157.876623
52551		8.001415	-1.426438	3.568980	-0.501853	0.946154	-1.000883	0.240549	-0.217005	0.051138	-1.031006	0.260254	0.005859	0.079979	-0.014287	0.035759	0.136864	-0.531705	-0.061847	-0.833506	-5.677445	-64.593769	-157.759733
52552		8.214782	-1.597672	3.495772	-0.686752	1.065841	-0.832267	0.237951	-0.196301	0.025999	-1.031006	0.264648	0.007813	0.082116	-0.016008	0.035019	0.137571	-0.532426	-0.062880	-0.832852	-5.609102	-64.711142	-157.685872
52553		8.434996	-1.700990	3.460541	-0.821886	1.126959	-0.643592	0.225599	-0.166094	0.031668	-1.037842	0.264648	0.003418	0.084324	-0.017036	0.034656	0.138396	-0.533086	-0.063790	-0.832224	-5.580522	-64.816600	-157.572296
52554		8.570096	-1.661873	3.489298	-0.828382	1.081848	-0.510701	0.199359	-0.136761	0.039308	-1.035645	0.264648	0.010254	0.085680	-0.016637	0.034935	0.139074	-0.533588	-0.064586	-0.831728	-5.543771	-64.899347	-157.488093
52555		8.499553	-1.627298	3.472861	-0.796026	1.059703	-0.582594	0.186293	-0.108115	0.038329	-1.031006	0.262451	0.008057	0.084980	-0.016289	0.034759	0.139813	-0.533991	-0.065259	-0.831292	-5.535449	-64.965578	-157.380004
52556		8.497050	-1.592311	3.423888	-0.820906	1.018070	-0.606821	0.169795	-0.083076	0.042704	-1.031006	0.260254	0.012695	0.084960	-0.015934	0.034261	0.140444	-0.534290	-0.065886	-0.830944	-5.513865	-65.017548	-157.297847
52557		8.506448	-1.417943	3.424283	-0.766162	0.852440	-0.604958	0.173172	-0.049007	0.049627	-1.033447	0.264648	0.014648	0.085060	-0.014188	0.034251	0.141151	-0.534490	-0.066447	-0.830651	-5.510165	-65.054278	-157.196309
52558		8.486720	-1.110044	3.527964	-0.571894	0.590999	-0.591690	0.123569	-0.026487	0.043138	-1.033447	0.266846	0.012207	0.084865	-0.011104	0.035284	0.141678	-0.534586	-0.066840	-0.830468	-5.509158	-65.073977	-157.120726
52559		8.462223	-0.899685	3.466510	-0.547631	0.377815	-0.647934	0.084899	-0.005471	0.024862	-1.028809	0.267090	0.007813	0.084622	-0.009001	0.034664	0.142185	-0.534698	-0.067098	-0.830288	-5.536175	-65.092442	-157.030162
52560		8.513678	-0.825648	3.297569	-0.691731	0.254726	-0.675128	0.053819	0.019868	0.004203	-1.029053	0.269287	0.007568	0.085140	-0.008264	0.032965	0.142380	-0.534638	-0.067272	-0.830280	-5.521984	-65.087878	-157.013209
52561		8.574881	-0.866651	3.234968	-0.784950	0.265530	-0.644370	0.041933	0.052767	-0.022681	-1.029053	0.269287	0.007568	0.085756	-0.008683	0.032325	0.142504	-0.534440	-0.067335	-0.830381	-5.511027	-65.062476	-157.007617
52562		8.793628	-0.979821	3.265707	-0.884734	0.346984	-0.429211	0.033305	0.093569	-0.054602	-1.031006	0.264648	0.007813	0.087949	-0.009828	0.032614	0.142425	-0.534068	-0.067528	-0.830618	-5.427957	-65.019090	-157.079588
52563		9.013762	-1.039630	3.133413	-1.113712	0.333790	-0.284035	0.014898	0.130255	-0.086157	-1.035645	0.269043	0.005371	0.090154	-0.010437	0.031275	0.142240	-0.533562	-0.067618	-0.830968	-5.342045	-64.955741	-157.171353
52564		9.361021	-1.266996	3.084710	-1.376982	0.483292	0.016847	-0.029492	0.188529	-0.107625	-1.035645	0.266846	0.005615	0.093632	-0.012716	0.030761	0.141806	-0.532822	-0.067624	-0.831516	-5.220435	-64.860877	-157.325683
