// General information: 
//  MT Manager version: 2019.2.0 
//  XDA version: 2019.2.0 build 3853 rev 94535 built on 2019-09-09
// Device information: 
//  DeviceId: 00B40ACF
//  ProductCode: MTW2-3A7G6
//  Firmware Version: 4.3.5
//  Hardware Version: 1.1.0
// Device settings: 
//  Filter Profile: human(46.1)
//  Option Flags: Orientation Smoother Disabled, AHS Disabled, ICC Disabled
// Coordinate system: ENU
PacketCounter	SampleTimeFine	Acc_X	Acc_Y	Acc_Z	FreeAcc_E	FreeAcc_N	FreeAcc_U	Gyr_X	Gyr_Y	Gyr_Z	Mag_X	Mag_Y	Mag_Z	VelInc_X	VelInc_Y	VelInc_Z	Quat_q0	Quat_q1	Quat_q2	Quat_q3	Roll	Pitch	Yaw
53393		14.668447	0.262714	-2.663215	2.103127	1.136174	4.904506	0.718719	0.042541	2.783916	-0.420410	0.873047	-0.344482	0.146622	0.004764	-0.026649	0.604920	-0.386619	-0.653973	-0.238575	-134.742217	-77.337137	81.922177
53394		16.020973	0.234525	-2.002898	2.099050	2.191038	6.046399	0.991774	0.140928	2.998328	-0.384521	0.880615	-0.362061	0.160135	0.004846	-0.020122	0.610792	-0.393305	-0.648812	-0.226467	-129.036609	-76.100796	76.638798
53395		17.722490	0.884690	-0.920678	2.487978	4.104251	7.294426	1.211168	0.284446	3.237430	-0.355713	0.889893	-0.370850	0.177037	0.011770	-0.009393	0.617683	-0.399854	-0.642796	-0.213068	-123.589344	-74.683277	71.725693
53396		19.324122	1.790261	-0.366280	3.500414	5.789578	8.379330	1.442023	0.459241	3.494197	-0.328857	0.897217	-0.394775	0.192880	0.021302	-0.003961	0.625643	-0.406165	-0.635772	-0.198481	-118.402648	-73.090347	67.182162
53397		21.234411	3.323657	0.125957	5.174689	7.951427	9.472161	1.715917	0.563913	3.772571	-0.299805	0.902344	-0.407959	0.211670	0.037225	0.000970	0.634533	-0.412261	-0.627855	-0.182228	-113.553882	-71.269571	63.120131
53398		22.970165	6.678820	0.881849	8.086808	11.438962	9.595837	2.020906	0.604404	4.059958	-0.268799	0.911865	-0.429932	0.228311	0.071343	0.008833	0.644116	-0.418032	-0.619207	-0.164159	-109.138442	-69.216523	59.654112
53399		24.130003	9.171502	2.125842	9.897552	14.694789	9.079253	2.382716	0.605324	4.192592	-0.252930	0.912354	-0.447266	0.239376	0.096490	0.021663	0.654220	-0.422826	-0.610211	-0.144418	-105.179017	-67.006946	56.855534
53400		24.071226	12.890828	3.605789	11.977394	18.507359	6.695649	2.880003	0.698519	4.187438	-0.230957	0.924072	-0.471436	0.238079	0.133382	0.037123	0.665231	-0.425631	-0.600915	-0.123318	-101.429213	-64.752025	54.550009
53401		23.953435	16.748595	4.696786	14.100936	22.084340	3.959868	2.968032	1.070984	4.229503	-0.215088	0.924561	-0.495605	0.236187	0.171795	0.048225	0.677136	-0.427748	-0.589921	-0.102527	-97.697950	-62.452202	52.278462
53402		21.549664	19.370824	4.147635	15.717522	22.805047	-0.346235	2.362031	1.642322	4.082881	-0.190674	0.933838	-0.510986	0.211833	0.197564	0.042045	0.688891	-0.430910	-0.576621	-0.085169	-94.195858	-60.210729	49.824322
53403		16.830740	15.832040	2.014605	13.785642	17.564893	-3.539540	1.200714	1.492343	3.953365	-0.179932	0.945313	-0.517578	0.165285	0.161488	0.019868	0.697292	-0.437496	-0.563293	-0.071289	-91.881385	-57.988021	47.922358
53404		14.242325	3.106657	-2.248627	8.709722	6.052345	0.435691	0.177539	0.741348	4.147590	-0.157959	0.954590	-0.519775	0.141653	0.034030	-0.022983	0.701067	-0.448286	-0.551539	-0.057883	-91.045917	-55.611482	47.039416
53405		14.940427	-2.148979	-5.946364	8.997326	0.961555	3.651620	-0.083983	0.228440	3.991621	-0.149170	0.963623	-0.510986	0.149726	-0.018529	-0.059626	0.702516	-0.459479	-0.541624	-0.044653	-90.859138	-53.324643	46.743014
53406		15.640421	1.451771	-5.409654	11.254972	4.030508	1.721996	0.090406	0.007516	3.556150	-0.135986	0.972656	-0.517578	0.156111	0.017320	-0.054095	0.703399	-0.468805	-0.533326	-0.031872	-90.772007	-51.275701	46.691744
53407		15.848985	2.038406	-3.342878	10.431461	6.171037	1.123549	0.112959	-0.198390	3.185019	-0.129883	0.983887	-0.517578	0.158171	0.022924	-0.033259	0.703536	-0.476916	-0.526488	-0.019941	-90.817664	-49.448946	46.826099
53408		11.321493	-2.492003	-7.253734	9.065117	-0.874399	0.387753	0.776031	-0.353337	2.884420	-0.118896	0.990967	-0.530762	0.113684	-0.023001	-0.072429	0.704634	-0.481846	-0.520834	-0.006851	-90.587248	-47.782255	47.104632
53409		8.427403	6.477479	-4.645530	10.533158	4.521566	-8.035679	2.103221	-0.142039	2.203780	-0.116943	1.000000	-0.552734	0.083583	0.066182	-0.045705	0.709302	-0.480165	-0.516031	0.006683	-89.474821	-46.520909	47.220610
53410		6.203126	14.864612	-3.456452	12.557073	8.932176	-15.635673	2.191200	-0.201275	0.702252	-0.127686	0.993164	-0.581299	0.061542	0.149229	-0.032870	0.713940	-0.474252	-0.514916	0.015367	-88.355738	-46.109197	47.401957
53411		-0.957234	14.699171	-2.637183	8.304161	5.979279	-20.731379	2.033878	-0.226244	-0.407182	-0.152588	0.997314	-0.601074	-0.009244	0.147269	-0.024886	0.718143	-0.465936	-0.516517	0.019616	-87.323803	-46.351373	47.574725
53412		-1.815403	11.884755	-1.352025	5.529752	5.027213	-19.326611	1.796277	-0.276613	-1.105849	-0.166016	0.999268	-0.618652	-0.017478	0.119061	-0.012476	0.721649	-0.456662	-0.519848	0.020985	-86.433932	-46.981136	47.759065
53413		-0.403129	8.955817	0.091873	3.711762	5.147423	-16.145250	1.451244	-0.384884	-1.627312	-0.188477	1.001221	-0.634277	-0.003305	0.089577	0.001562	0.724055	-0.447159	-0.524792	0.019681	-85.781566	-47.932386	47.989571
53414		0.716427	6.525238	1.367444	2.124786	5.173461	-13.511386	1.211391	-0.472952	-2.131158	-0.217529	0.996338	-0.645264	0.007825	0.065087	0.014087	0.725644	-0.437187	-0.531078	0.016258	-85.294440	-49.159370	48.258716
53415		1.857603	6.064906	2.762315	1.300236	6.389021	-12.125939	1.055728	-0.527195	-2.690856	-0.253174	0.989014	-0.658447	0.019315	0.060245	0.027992	0.726657	-0.426149	-0.538757	0.010357	-84.899413	-50.728563	48.520229
53416		2.761807	6.202874	3.755306	0.926003	7.565483	-11.264331	0.743254	-0.565029	-3.281244	-0.288574	0.977295	-0.660645	0.028522	0.061425	0.037862	0.726754	-0.414608	-0.547655	0.001697	-84.674549	-52.618800	48.769761
53417		3.802130	5.459440	3.877681	0.880721	7.649376	-9.747227	0.300297	-0.609476	-3.873465	-0.324463	0.972168	-0.663086	0.038950	0.053788	0.038976	0.725566	-0.402847	-0.557817	-0.010397	-84.704628	-54.869448	49.007969
53418		4.931725	4.645192	3.447674	1.230128	7.308055	-8.121928	-0.068589	-0.608271	-4.377501	-0.372803	0.948975	-0.667480	0.050213	0.045371	0.034613	0.723300	-0.390912	-0.568674	-0.025184	-84.933593	-57.387382	49.230024
53419		5.482475	4.973776	3.235089	1.696015	7.565584	-7.546046	-0.385661	-0.581620	-4.875870	-0.421875	0.937012	-0.660889	0.055922	0.048446	0.032418	0.720026	-0.378415	-0.580108	-0.042887	-85.318082	-60.209061	49.408748
53420		5.849614	5.689364	3.068642	2.250304	8.016814	-7.232729	-0.699661	-0.547663	-5.360736	-0.468262	0.913818	-0.647705	0.059911	0.055408	0.030654	0.715677	-0.365458	-0.591831	-0.063108	-85.873194	-63.284101	49.577718
53421		7.117057	5.466489	2.574905	2.817242	7.839781	-5.600093	-0.948770	-0.492469	-5.781726	-0.523438	0.888428	-0.647949	0.072650	0.052701	0.025674	0.710318	-0.351753	-0.603618	-0.085810	-86.557384	-66.619400	49.720101
53422		8.268405	4.689160	2.290168	2.764848	7.200809	-3.806222	-1.054096	-0.409262	-6.137500	-0.578369	0.858398	-0.639160	0.084026	0.044447	0.022834	0.704234	-0.337077	-0.615093	-0.109973	-87.288199	-70.131905	49.850658
53423		8.956867	4.273819	1.820997	2.826727	6.451919	-2.590687	-1.128182	-0.354412	-6.465985	-0.628418	0.815186	-0.632324	0.090858	0.039917	0.018140	0.697269	-0.321183	-0.626293	-0.135700	-88.104893	-73.854488	50.016310
53424		10.185709	4.151653	1.162030	3.191502	5.795297	-0.951553	-1.204739	-0.285540	-6.759204	-0.680420	0.765381	-0.625732	0.103167	0.038114	0.011531	0.689433	-0.304324	-0.636930	-0.162446	-89.080464	-77.718464	50.304779
53425		11.936708	3.857544	0.671703	3.227009	5.003095	1.246638	-1.107870	-0.116468	-7.019405	-0.725586	0.715820	-0.616699	0.120619	0.034393	0.006589	0.681195	-0.285694	-0.646710	-0.190050	-89.883684	-81.754651	50.461845
53426		13.639752	3.687779	0.819435	2.645337	4.469635	3.349814	-0.888797	0.083717	-7.278731	-0.777100	0.652588	-0.618652	0.137623	0.031919	0.007988	0.672820	-0.265020	-0.655518	-0.217657	-89.901718	-85.913333	49.962602
53427		15.767702	3.315642	0.773479	1.894486	3.417401	5.834080	-0.661530	0.240150	-7.564601	-0.810303	0.585449	-0.622803	0.158790	0.027189	0.007448	0.663959	-0.241999	-0.663533	-0.245600	63.083097	-89.706164	-103.420553
53428		18.733518	3.144153	0.916833	0.870997	2.308301	9.039363	-0.352386	0.406020	-7.829577	-0.841553	0.520508	-0.629150	0.188393	0.024095	0.008740	0.654760	-0.216618	-0.670692	-0.273016	85.499763	-85.249915	-126.049161
53429		21.885642	3.248864	0.351419	0.231732	0.506888	12.302624	-0.216065	0.455245	-8.006920	-0.869873	0.440186	-0.635254	0.219930	0.023700	0.002986	0.644533	-0.189678	-0.677024	-0.300395	86.008711	-80.640045	-126.701288
53430		25.026369	1.951858	-1.464485	-0.689411	-3.541072	15.065414	-0.389276	0.274795	-8.010877	-0.880615	0.375732	-0.639160	0.250756	0.009450	-0.015014	0.632558	-0.163361	-0.682587	-0.327504	86.482890	-76.061375	-127.418077
53431		27.718279	0.004793	-2.717419	-2.710800	-7.872315	16.757333	-0.759357	-0.086615	-7.826204	-0.888916	0.295654	-0.640869	0.276911	-0.010896	-0.027027	0.618269	-0.139069	-0.687461	-0.354684	87.077906	-71.572103	-128.505465
53432		31.079858	-6.921964	-3.277370	-8.773608	-15.461611	16.797150	-1.034205	-0.389029	-7.506489	-0.895508	0.235596	-0.631836	0.307968	-0.080982	-0.031774	0.602478	-0.117164	-0.691537	-0.380880	87.609328	-67.297687	-129.711003
53433		31.907991	-12.139976	-0.328443	-15.824638	-18.533734	14.087223	-0.457871	-0.344451	-7.029863	-0.895020	0.166748	-0.633545	0.314556	-0.132517	-0.002445	0.587039	-0.095156	-0.695387	-0.403445	88.118335	-63.280567	-130.610019
53434		29.039816	-15.684558	-2.218502	-16.884197	-22.026662	8.176486	-0.739057	-0.643607	-6.362414	-0.891113	0.120361	-0.622314	0.285281	-0.166054	-0.020659	0.571339	-0.076562	-0.698437	-0.424142	88.565151	-59.658965	-131.606205
53435		23.957992	-20.276308	-4.606735	-17.078079	-24.950792	-0.227838	-1.459966	-1.010850	-5.331118	-0.889160	0.073730	-0.622070	0.234281	-0.209379	-0.043362	0.555605	-0.064407	-0.699979	-0.444055	88.775047	-56.618276	-132.867062
53436		21.872372	-26.910842	-5.614143	-20.190932	-28.613080	-7.066645	-1.780187	-1.103091	-3.766318	-0.885986	0.049316	-0.610840	0.213895	-0.273645	-0.052530	0.542710	-0.058710	-0.700126	-0.460264	88.741891	-54.486158	-134.070019
53437		21.872779	-34.555932	-7.037767	-24.220322	-33.579007	-12.603987	-1.224897	-0.943486	-2.133546	-0.887939	0.040527	-0.617432	0.215344	-0.348287	-0.067229	0.534077	-0.056804	-0.700406	-0.470072	88.810666	-53.277792	-135.036120
53438		19.993254	-37.863200	-7.219021	-25.562367	-34.437774	-16.599683	-0.278392	-0.751879	-0.497000	-0.881104	0.040527	-0.602051	0.199259	-0.379227	-0.070913	0.530223	-0.057677	-0.701875	-0.472132	89.229595	-53.012126	-135.765577
53439		17.808673	-36.703039	-5.127849	-25.517745	-31.308520	-17.504459	0.207257	-0.472002	0.961168	-0.885986	0.044922	-0.597656	0.179969	-0.366115	-0.051235	0.530923	-0.061711	-0.703307	-0.468691	89.700642	-53.576574	-136.211215
53440		19.531102	-31.978571	-2.381133	-25.433157	-27.471353	-12.673347	0.225888	-0.197002	2.219573	-0.884521	0.069336	-0.600098	0.198867	-0.317565	-0.023976	0.535500	-0.069479	-0.703612	-0.461891	89.979409	-54.860269	-136.401753
53441		19.133718	-15.377461	-3.133702	-14.812189	-18.498875	-2.689723	0.692923	-0.003060	2.705569	-0.883301	0.093750	-0.600098	0.193393	-0.151058	-0.031861	0.542003	-0.077270	-0.704192	-0.452080	90.384847	-56.430154	-136.413783
53442		10.047756	26.118830	0.629355	11.233703	12.072293	12.805074	1.682365	0.536895	2.337383	-0.886230	0.111328	-0.606934	0.097437	0.262275	0.008232	0.549797	-0.079823	-0.705542	-0.439956	90.894543	-57.784356	-135.879064
53443		8.208913	42.765573	7.945665	16.842148	28.436282	19.633942	0.408821	0.354277	1.413523	-0.884521	0.126953	-0.611328	0.079206	0.428059	0.080189	0.554375	-0.083046	-0.704865	-0.434669	90.821051	-58.617949	-135.519361
53444		11.666166	8.324905	8.837490	-5.419860	7.149711	4.434916	-2.005327	-0.428246	1.866971	-0.885254	0.144775	-0.602783	0.115684	0.085214	0.087775	0.556064	-0.096211	-0.700832	-0.436315	90.095747	-59.697277	-136.018938
53445		20.972140	-10.668816	3.691646	-16.744782	-10.848351	3.193408	-2.009079	-0.408031	2.760798	-0.884277	0.175781	-0.600586	0.211087	-0.103400	0.038396	0.559663	-0.112479	-0.696121	-0.435364	89.340310	-61.297351	-136.479358
53446		21.033868	-0.602669	-0.617624	-7.124884	-7.540086	8.504415	-1.362749	-0.479839	3.083058	-0.889648	0.199951	-0.596436	0.210413	-0.002823	-0.005645	0.563881	-0.128155	-0.692640	-0.431120	89.031497	-63.079230	-137.018922
53447		14.673143	0.389878	-0.533894	-4.129070	-4.524651	3.536471	-1.295446	-0.725455	2.994259	-0.882080	0.233398	-0.583496	0.146670	0.006063	-0.004841	0.566990	-0.143851	-0.689840	-0.426556	89.076622	-64.821398	-137.898051
53448		11.493292	-5.763641	-2.268928	-6.048775	-8.270229	-1.721702	-1.507564	-0.951749	3.067971	-0.885254	0.257568	-0.570557	0.115906	-0.056029	-0.021713	0.569100	-0.160817	-0.686982	-0.422277	89.367266	-66.598229	-139.170265
53449		11.233301	-7.072287	-7.104799	-3.808631	-12.395830	-2.163971	-1.937803	-1.264010	2.990180	-0.886475	0.286377	-0.568359	0.113823	-0.069708	-0.069653	0.569496	-0.179364	-0.683922	-0.419229	89.975508	-68.337039	-141.030825
53450		14.930239	-4.193780	-0.736357	-6.787840	-6.288845	2.653129	-1.782385	-1.041449	2.954761	-0.882813	0.308594	-0.553223	0.149935	-0.039785	-0.006223	0.570458	-0.196799	-0.680363	-0.415878	90.544886	-70.039069	-142.737962
53451		10.370649	-1.685545	-0.583775	-3.650428	-3.455917	-0.568469	-1.247917	-0.960763	2.702037	-0.879639	0.337402	-0.531494	0.103948	-0.015486	-0.005239	0.571629	-0.211590	-0.677735	-0.411273	91.486497	-71.598634	-144.483061
53452		9.094093	-4.148998	-0.634160	-5.071892	-4.449635	-2.410655	-1.071293	-0.917734	2.249540	-0.871582	0.359619	-0.522705	0.091427	-0.040495	-0.005704	0.571980	-0.224246	-0.675684	-0.407435	92.661635	-72.879384	-146.366946
53453		12.928063	-4.839778	-0.586172	-6.476887	-5.221936	1.217967	-0.331547	-0.596776	2.120871	-0.870117	0.379639	-0.522949	0.129801	-0.047032	-0.005396	0.574007	-0.233612	-0.674265	-0.401632	93.853271	-74.095008	-147.796177
53454		11.325509	-2.657455	-0.045416	-4.591243	-3.130358	0.407309	0.479793	-0.366826	1.933687	-0.870850	0.401855	-0.514404	0.113506	-0.025477	-0.000308	0.577201	-0.239580	-0.673956	-0.393983	95.215988	-75.194348	-148.929640
53455		9.401481	-1.506939	-0.018639	-3.160011	-2.073410	-1.073569	0.942968	-0.256857	1.696831	-0.866943	0.415039	-0.512207	0.094138	-0.014270	-0.000134	0.580932	-0.243086	-0.674463	-0.385393	96.721396	-76.167916	-149.908527
53456		10.158114	-1.586340	-0.242965	-3.130857	-2.292773	-0.288947	1.082893	-0.238349	1.515437	-0.867676	0.432861	-0.512207	0.101700	-0.015080	-0.002392	0.584354	-0.245602	-0.675338	-0.377000	98.399267	-77.021992	-151.000910
53457		10.617533	-0.324111	0.292680	-2.465952	-1.061782	0.468981	1.066349	-0.320913	1.346710	-0.859131	0.446289	-0.508057	0.106189	-0.002542	0.003082	0.587223	-0.247690	-0.676572	-0.368874	100.395119	-77.777041	-152.407530
53458		10.359729	0.059525	0.776777	-2.343189	-0.315154	0.303629	0.809703	-0.407584	1.141646	-0.864258	0.463867	-0.503662	0.103576	0.001155	0.007983	0.588951	-0.250022	-0.677799	-0.362235	102.575797	-78.382627	-154.167443
53459		10.480355	1.143621	0.218588	-1.136669	0.005732	0.670653	0.512103	-0.477186	0.915974	-0.855957	0.475098	-0.494873	0.104744	0.011910	0.002466	0.589711	-0.252621	-0.678929	-0.357042	104.843382	-78.853551	-156.177903
53460		10.588096	1.064699	-0.541495	-0.709448	-0.545014	0.804910	0.290656	-0.521036	0.755899	-0.851807	0.484131	-0.488525	0.105853	0.011055	-0.005123	0.589664	-0.255359	-0.679990	-0.353131	107.126954	-79.198372	-158.339699
53461		10.948720	0.916763	-0.429959	-0.926624	-0.477300	1.133208	0.217124	-0.499026	0.658548	-0.852295	0.499512	-0.477539	0.109466	0.009533	-0.004016	0.589452	-0.258056	-0.680939	-0.349680	109.391680	-79.493742	-160.523121
53462		10.029307	1.478468	0.130504	-0.671129	0.450565	0.293547	0.110084	-0.520496	0.552883	-0.852539	0.506104	-0.473145	0.100248	0.015061	0.001574	0.588795	-0.260624	-0.681916	-0.346967	111.608075	-79.696233	-162.717765
53463		9.945081	1.503848	-0.379776	-0.309416	0.150815	0.246713	0.083436	-0.518155	0.460986	-0.851074	0.523926	-0.466797	0.099425	0.015269	-0.003534	0.587946	-0.263138	-0.682911	-0.344544	113.840258	-79.851662	-164.951446
53464		10.327957	1.775848	-1.150749	0.318398	-0.228273	0.722525	0.260761	-0.428472	0.416947	-0.849121	0.530518	-0.455811	0.103267	0.017989	-0.011263	0.587552	-0.264635	-0.684035	-0.341829	115.839383	-79.975029	-166.835526
53465		10.106865	2.014245	-1.648203	0.858875	-0.387111	0.581282	0.396053	-0.355288	0.413224	-0.843018	0.543945	-0.451416	0.101056	0.020384	-0.016262	0.587544	-0.265846	-0.685123	-0.338711	117.841171	-80.119913	-168.659533
53466		10.006936	1.182258	-1.489978	0.157040	-0.719666	0.346723	0.356069	-0.334671	0.468504	-0.838867	0.554932	-0.444824	0.100066	0.012083	-0.014711	0.587670	-0.267073	-0.686051	-0.335634	119.804351	-80.271856	-170.450091
53467		9.778412	0.957492	-1.065617	-0.221953	-0.460823	0.056849	0.268521	-0.322416	0.493156	-0.826172	0.570801	-0.442871	0.097777	0.009830	-0.010485	0.587690	-0.268942	-0.686691	-0.332785	121.907867	-80.443680	-172.458630
53468		9.444401	1.299085	-1.270671	0.241108	-0.337298	-0.204006	0.244607	-0.289761	0.489452	-0.819824	0.584229	-0.434082	0.094430	0.013237	-0.012554	0.587844	-0.270488	-0.687256	-0.330082	123.838120	-80.597757	-174.278828
53469		9.128271	2.244629	-1.697921	1.302404	-0.002388	-0.349596	0.246724	-0.248192	0.482724	-0.813721	0.597656	-0.427490	0.091249	0.022687	-0.016838	0.588026	-0.272327	-0.687625	-0.327468	125.847825	-80.765394	-176.212461
53470		9.266886	2.652419	-1.792648	1.672659	0.236722	-0.155048	0.200690	-0.225322	0.507378	-0.809814	0.610840	-0.423340	0.092621	0.026777	-0.017795	0.588361	-0.273952	-0.687890	-0.324944	127.733756	-80.928967	-178.011552
53471		9.537884	2.683184	-1.752963	1.657799	0.343654	0.105824	0.177253	-0.210095	0.556903	-0.792236	0.624512	-0.416748	0.095322	0.027113	-0.017406	0.588662	-0.276231	-0.687907	-0.322425	129.915987	-81.121007	179.834879
53472		9.407301	2.766895	-1.955505	1.901386	0.298769	-0.000851	0.175623	-0.207843	0.603517	-0.783691	0.635742	-0.412354	0.094009	0.027970	-0.019433	0.589166	-0.278227	-0.687932	-0.319722	132.121513	-81.311184	177.699696
53473		9.216072	2.693600	-1.789911	1.806056	0.439987	-0.224183	0.141215	-0.230750	0.649432	-0.770996	0.651611	-0.412354	0.092093	0.027248	-0.017774	0.589468	-0.280976	-0.687798	-0.317040	134.769739	-81.505752	175.052302
53474		9.248245	2.513499	-1.321930	1.402936	0.746239	-0.269643	0.074297	-0.286763	0.687403	-0.757813	0.660645	-0.405762	0.092414	0.025458	-0.013077	0.589678	-0.283676	-0.687758	-0.314319	137.564188	-81.666587	172.265193
53475		9.541859	1.798793	-1.641865	1.056356	0.117276	-0.022472	-0.026252	-0.338443	0.742735	-0.742676	0.676514	-0.401367	0.095379	0.018340	-0.016260	0.589696	-0.286992	-0.687606	-0.311596	140.784587	-81.812800	168.996585
53476		10.080500	0.968815	-1.944462	0.580257	-0.554907	0.467909	-0.026870	-0.355318	0.864582	-0.731934	0.689941	-0.395020	0.100796	0.010121	-0.019267	0.589782	-0.290696	-0.687331	-0.308592	144.466113	-81.957185	165.257000
53477		10.417427	1.022531	-1.644564	0.440641	-0.186062	0.772355	0.016833	-0.348599	1.012949	-0.712158	0.701416	-0.390625	0.104149	0.010754	-0.016263	0.590215	-0.294815	-0.686855	-0.304895	148.890282	-82.120732	160.800337
53478		10.206884	1.658499	-1.461902	0.904369	0.452694	0.581741	0.067365	-0.349237	1.153287	-0.701660	0.719238	-0.392822	0.101996	0.017178	-0.014435	0.590867	-0.299206	-0.686242	-0.300706	153.937550	-82.265054	155.739576
53479		10.177147	1.790598	-1.498962	1.110355	0.618669	0.551202	0.086614	-0.358635	1.291375	-0.677490	0.730713	-0.386230	0.101680	0.018569	-0.014799	0.591743	-0.304065	-0.685436	-0.295910	159.811866	-82.373887	149.863012
53480		10.681933	1.447829	-1.506109	0.884693	0.550804	1.021516	0.134536	-0.352689	1.469421	-0.657959	0.746826	-0.388428	0.106735	0.015273	-0.014863	0.592899	-0.309318	-0.684390	-0.290522	166.453547	-82.426233	143.235076
53481		10.853054	1.825656	-1.087015	1.003820	1.268212	1.127348	0.218256	-0.332536	1.672354	-0.635986	0.762695	-0.381836	0.108391	0.019175	-0.010669	0.594550	-0.315015	-0.683032	-0.284154	174.101890	-82.401310	135.646218
53482		10.851755	2.281101	-0.509832	1.116640	2.154935	1.019185	0.280355	-0.340507	1.890977	-0.618896	0.785156	-0.390869	0.108304	0.023843	-0.004881	0.596489	-0.321210	-0.681397	-0.276990	-177.574968	-82.236949	127.404783
53483		11.507880	1.894538	-0.484670	0.900942	2.173753	1.620307	0.351425	-0.336688	2.097179	-0.594727	0.799072	-0.390869	0.114880	0.020159	-0.004618	0.598815	-0.327901	-0.679429	-0.268846	-168.800201	-81.896070	118.749301
53484		11.986758	1.364564	-0.424421	0.598600	2.137325	2.052867	0.536883	-0.305478	2.298909	-0.570313	0.808350	-0.390625	0.119706	0.015033	-0.004022	0.601705	-0.334591	-0.677213	-0.259583	-160.109450	-81.367845	110.271079
53485		12.692219	0.290410	-0.434996	-0.045376	1.759917	2.767382	0.763421	-0.224876	2.472991	-0.551025	0.830811	-0.397461	0.126878	0.004489	-0.004192	0.605414	-0.341074	-0.674631	-0.249028	-151.692285	-80.657805	102.192774
53486		13.359902	-0.075902	-0.225742	-0.239072	2.020981	3.393057	0.901983	-0.098459	2.640017	-0.517822	0.844971	-0.406250	0.133595	0.001014	-0.002190	0.609845	-0.347439	-0.671449	-0.237765	-143.870581	-79.793829	94.775487
53487		14.106954	0.110056	0.221964	-0.118881	2.856550	4.003262	0.919406	0.002315	2.818581	-0.489258	0.861084	-0.415039	0.141035	0.003078	0.002229	0.614764	-0.354197	-0.667507	-0.225932	-136.695672	-78.744460	88.009496
53488		14.888407	0.941513	-0.181304	1.096371	3.518879	4.643549	0.887877	0.099715	2.985416	-0.453857	0.872803	-0.423584	0.148720	0.011644	-0.001839	0.619960	-0.361375	-0.662799	-0.213903	-130.352685	-77.532009	82.043163
53489		16.029595	1.530189	-0.652136	2.252170	4.098635	5.608759	0.817351	0.184189	3.199003	-0.429688	0.891113	-0.427979	0.160018	0.017890	-0.006599	0.625410	-0.369331	-0.657170	-0.201457	-124.703608	-76.122170	76.722487
53490		18.140553	1.981727	-0.631030	3.127985	5.239300	7.395933	0.845317	0.289764	3.462117	-0.398438	0.894043	-0.445557	0.181017	0.022980	-0.006480	0.631301	-0.377811	-0.650581	-0.188316	-119.637653	-74.519144	71.981534
53491		19.843282	4.488049	-0.872367	5.779063	7.502134	8.213169	0.937764	0.375216	3.698398	-0.365234	0.907959	-0.452148	0.197541	0.048580	-0.008873	0.637678	-0.386587	-0.643109	-0.174149	-115.108737	-72.715409	67.820539
53492		21.070604	6.801741	-1.286728	8.425917	9.456778	8.391653	1.005482	0.377509	3.924973	-0.333984	0.915283	-0.462891	0.209292	0.072199	-0.012907	0.644107	-0.395690	-0.635025	-0.159054	-111.247854	-70.720792	64.356322
53493		23.112923	7.358896	-0.444035	9.125038	11.506221	9.495741	1.329884	0.383264	4.084879	-0.316406	0.924561	-0.469482	0.229553	0.078318	-0.004371	0.651064	-0.404097	-0.626556	-0.142300	-107.806791	-68.569533	61.497166
53494		23.868177	10.918025	1.360936	11.007700	15.800795	8.070739	1.998459	0.459014	4.124655	-0.287354	0.929688	-0.498047	0.236397	0.113932	0.014188	0.659284	-0.410174	-0.617948	-0.123458	-104.471477	-66.360320	59.120812
53495		23.466040	15.192288	2.685751	13.249885	19.814552	5.032828	2.365660	0.606768	4.231456	-0.262695	0.932617	-0.511230	0.231465	0.156516	0.027985	0.668428	-0.415054	-0.608486	-0.103341	-101.210936	-64.058631	57.019164
53496		22.211356	16.842149	3.211567	13.902622	21.234322	2.146776	2.371681	0.871476	4.301635	-0.240479	0.939697	-0.526367	0.218572	0.172759	0.033190	0.677994	-0.419728	-0.597648	-0.083479	-98.089277	-61.700431	55.033431
53497		19.514757	15.783407	1.844117	13.760901	18.965808	-0.637156	1.964765	1.174311	4.243749	-0.218262	0.951172	-0.537354	0.191853	0.161744	0.018884	0.687199	-0.425215	-0.585356	-0.065638	-95.279102	-59.353961	53.093591
53498		16.152612	8.300689	0.389968	9.701911	12.170473	-0.449484	1.050670	1.118629	3.966763	-0.202881	0.958252	-0.541748	0.159858	0.086170	0.003450	0.693828	-0.432842	-0.573258	-0.051247	-93.374741	-57.124052	51.556090
53499		12.839032	-2.017477	-1.663048	4.623271	3.242677	2.009572	0.747222	0.638396	3.732762	-0.187256	0.965332	-0.554932	0.128682	-0.017711	-0.017110	0.698098	-0.440765	-0.563006	-0.037536	-92.248144	-55.000444	50.707568
53500		14.046473	-3.304988	-3.179619	5.865407	2.289353	3.554033	0.799248	0.277171	3.453918	-0.176270	0.969971	-0.557129	0.140962	-0.030490	-0.032117	0.701150	-0.447665	-0.554454	-0.023782	-91.490368	-53.016004	50.330614
53501		15.183862	-1.475970	-4.288571	8.440240	3.501446	3.133351	0.700079	0.004452	3.195062	-0.167480	0.976807	-0.561523	0.152046	-0.012182	-0.042935	0.703008	-0.454063	-0.547260	-0.010661	-91.035943	-51.181632	50.255810
53502		12.864895	-0.357716	-5.162331	8.994302	2.766803	0.371439	0.636228	-0.196373	2.929302	-0.154541	0.990479	-0.568115	0.128732	-0.001528	-0.051504	0.703961	-0.459889	-0.541238	0.001878	-90.782529	-49.490005	50.393360
53503		7.523532	-0.381034	-9.534343	10.300427	-2.498199	-3.871181	1.763354	-0.135525	2.610398	-0.150146	0.992676	-0.585693	0.075334	-0.001987	-0.095315	0.707522	-0.460739	-0.535605	0.016126	-89.854908	-47.991421	50.495002
53504		7.248723	19.099952	-4.073886	15.041128	12.279073	-17.356760	2.389292	-0.066971	1.164753	-0.163574	0.994873	-0.614258	0.071385	0.191886	-0.038426	0.712658	-0.455446	-0.532885	0.026853	-88.545989	-47.313057	50.569168
53505		2.504654	18.498660	-2.518605	11.213094	10.674670	-20.542334	1.783568	-0.228012	-0.222816	-0.177002	0.992432	-0.625244	0.025280	0.185173	-0.023507	0.716088	-0.448495	-0.533939	0.031290	-87.667702	-47.444992	50.754095
53506		-4.007835	12.474698	-1.820261	5.094391	4.349551	-21.219550	1.883943	-0.078870	-0.996776	-0.192627	0.992432	-0.649414	-0.039449	0.125109	-0.017041	0.720184	-0.439138	-0.536101	0.032982	-86.614801	-48.006101	50.782856
53507		-1.569996	10.552658	-0.684132	4.327616	5.344582	-17.997657	1.640585	-0.121473	-1.606489	-0.215088	0.991943	-0.651855	-0.014848	0.105700	-0.005984	0.723651	-0.428916	-0.539767	0.031802	-85.690755	-48.931572	50.793055
53508		0.122877	8.146177	-0.460156	3.819048	4.997311	-15.011294	1.134561	-0.323261	-2.134767	-0.239258	0.980469	-0.671631	0.002105	0.081467	-0.004136	0.725465	-0.419055	-0.545266	0.027888	-85.151488	-50.154130	50.931787
53509		1.589658	7.677323	0.333357	3.577084	6.007329	-13.375221	0.708611	-0.409690	-2.783375	-0.277344	0.977539	-0.676025	0.016956	0.076530	0.003639	0.726116	-0.408833	-0.552441	0.020511	-84.870617	-51.767091	51.081540
53510		3.175914	7.203750	1.427987	3.112896	7.163102	-11.548615	0.267487	-0.450398	-3.432952	-0.310791	0.968018	-0.673828	0.032957	0.071459	0.014449	0.725631	-0.398362	-0.560956	0.009760	-84.832644	-53.737831	51.219773
53511		4.762444	5.888298	2.045483	2.626239	7.364712	-9.185181	-0.160828	-0.494063	-3.965113	-0.354980	0.953857	-0.678467	0.048729	0.057941	0.020527	0.723944	-0.387753	-0.570557	-0.004176	-85.048682	-56.031113	51.359703
53512		6.380473	4.392318	1.954998	2.550901	6.909195	-6.718881	-0.423337	-0.502075	-4.446668	-0.399414	0.937500	-0.669678	0.064712	0.042533	0.019621	0.721389	-0.376606	-0.580816	-0.020449	-85.418140	-58.582519	51.504178
53513		7.230847	3.931670	1.481289	2.904504	6.518286	-5.453743	-0.490222	-0.485498	-4.877559	-0.448242	0.923340	-0.667480	0.073203	0.037575	0.014896	0.718309	-0.364174	-0.591538	-0.038641	-85.816849	-61.397003	51.628546
53514		7.325015	4.570935	1.328255	3.244159	6.755644	-5.325635	-0.505404	-0.467139	-5.277419	-0.492188	0.895752	-0.667480	0.074391	0.043790	0.013343	0.714711	-0.350437	-0.602493	-0.058171	-86.229498	-64.420540	51.760772
53515		7.899741	4.937331	1.115824	3.611117	6.885584	-4.563475	-0.633416	-0.460374	-5.676354	-0.544922	0.868164	-0.663086	0.080331	0.047141	0.011190	0.710238	-0.335616	-0.613661	-0.079643	-86.743571	-67.691062	51.914071
53516		9.252647	4.350677	0.930047	3.568583	6.441638	-2.661158	-0.699168	-0.415665	-6.038064	-0.593262	0.835938	-0.652100	0.093765	0.040721	0.009349	0.705040	-0.319682	-0.624682	-0.102442	-87.312544	-71.146779	52.088115
53517		10.075780	3.919156	0.695644	3.408563	5.789078	-1.315944	-0.707299	-0.365435	-6.351720	-0.640625	0.788574	-0.649902	0.101922	0.035991	0.007011	0.699117	-0.302381	-0.635446	-0.126529	-87.912793	-74.801221	52.279391
53518		11.105088	3.839916	0.406852	3.414181	5.291994	0.113108	-0.747138	-0.313394	-6.634771	-0.695313	0.747559	-0.643066	0.112237	0.034704	0.004110	0.692394	-0.284045	-0.645721	-0.151499	-88.631094	-78.594766	52.571902
53519		12.694460	3.427603	-0.081907	3.324328	4.327578	2.147960	-0.769513	-0.219399	-6.880568	-0.740479	0.695557	-0.645264	0.128024	0.029880	-0.000800	0.684923	-0.264509	-0.655284	-0.177535	-89.435605	-82.549442	52.927124
53520		14.148872	3.025884	-0.382727	2.908934	3.254037	3.984203	-0.664338	-0.105474	-7.093513	-0.776367	0.639404	-0.645020	0.142445	0.025205	-0.003842	0.676965	-0.243575	-0.663999	-0.203703	-90.430964	-86.602190	53.538795
53521		15.683872	3.342327	-0.734141	2.802245	2.510453	5.789368	-0.475022	-0.014013	-7.300237	-0.816406	0.570068	-0.644531	0.157919	0.027654	-0.007401	0.668402	-0.220813	-0.672005	-0.229977	92.880157	-89.202118	-130.056610
53522		17.714694	3.523510	-1.164053	2.498301	1.374465	8.056155	-0.272261	0.048219	-7.517702	-0.843262	0.507324	-0.648682	0.178301	0.028531	-0.011725	0.659151	-0.196362	-0.679336	-0.255860	90.071420	-84.907384	-127.407549
53523		19.951613	3.438854	-1.385712	1.632625	-0.152049	10.409148	-0.088964	0.047509	-7.677026	-0.864746	0.429199	-0.650391	0.200636	0.026694	-0.013918	0.648859	-0.170388	-0.686096	-0.281464	89.833395	-80.496572	-127.232991
53524		21.850980	2.694487	-2.665848	1.019410	-3.048829	12.124818	-0.136396	-0.148750	-7.746846	-0.875732	0.362549	-0.647949	0.219354	0.018440	-0.026510	0.636857	-0.144449	-0.692454	-0.306684	90.170581	-76.069579	-127.662245
53525		24.109827	1.311449	-3.637129	-0.490175	-6.502156	13.712224	-0.472525	-0.436128	-7.675537	-0.890625	0.286865	-0.651855	0.241441	0.003766	-0.035861	0.622698	-0.119957	-0.698139	-0.332354	90.651250	-71.658198	-128.458054
53526		26.590638	-2.503029	-4.326630	-3.897402	-11.738012	14.244219	-0.908111	-0.779087	-7.394898	-0.892822	0.226807	-0.640625	0.264900	-0.035032	-0.042089	0.606729	-0.098293	-0.702987	-0.357809	91.150023	-67.426192	-129.550845
53527		29.713419	-10.745755	-1.569157	-12.830945	-18.065664	12.757429	-0.689207	-0.827982	-6.922584	-0.894775	0.162354	-0.635742	0.293238	-0.117704	-0.014078	0.590423	-0.078026	-0.707264	-0.380907	91.618375	-63.458523	-130.571146
53528		28.622974	-11.734520	1.687148	-16.668319	-17.258868	9.778064	-0.102762	-0.705541	-6.299298	-0.892822	0.109131	-0.631104	0.282284	-0.126270	0.017935	0.575621	-0.057467	-0.711240	-0.399369	92.091415	-59.849631	-131.181215
53529		23.472444	-14.277057	-1.844044	-14.448423	-19.825090	2.685286	-0.817643	-1.139000	-5.455196	-0.888916	0.067139	-0.624023	0.230811	-0.149172	-0.016517	0.560062	-0.042946	-0.714181	-0.417651	92.484529	-56.703759	-132.231060
53530		19.786233	-19.198667	-3.630156	-15.005494	-22.748496	-4.293916	-1.596623	-1.472498	-4.260165	-0.885498	0.036133	-0.610840	0.193962	-0.196420	-0.033308	0.545434	-0.035374	-0.715669	-0.434821	92.634928	-54.239055	-133.530258
53531		19.621799	-26.092732	-3.579964	-19.208523	-26.636080	-9.497867	-1.777129	-1.353732	-2.802979	-0.875488	0.009521	-0.612793	0.192759	-0.263942	-0.032151	0.534046	-0.033252	-0.715868	-0.448579	92.561702	-52.602811	-134.724100
53532		19.006738	-29.781030	-3.938611	-21.154918	-28.396771	-12.929849	-1.440803	-1.121550	-1.400146	-0.879883	0.009521	-0.601807	0.188184	-0.299400	-0.036174	0.526647	-0.034706	-0.715803	-0.457236	92.515959	-51.784441	-135.717684
53533		17.701693	-29.613343	-3.975214	-20.881792	-27.413206	-14.119886	-1.013157	-0.858958	-0.085996	-0.877930	0.011719	-0.604004	0.177054	-0.296403	-0.037491	0.523205	-0.039128	-0.715733	-0.460925	92.554513	-51.722560	-136.513979
53534		17.878698	-27.482735	-2.178973	-21.411226	-24.774279	-12.546044	-0.785589	-0.555363	1.127036	-0.880615	0.027100	-0.595215	0.180390	-0.273895	-0.020213	0.523678	-0.046601	-0.715119	-0.460645	92.546891	-52.365059	-137.081821
53535		19.634775	-22.652383	-0.022154	-21.275261	-21.018607	-7.763706	-0.709351	-0.361159	2.129877	-0.883789	0.051514	-0.597656	0.198744	-0.224414	0.000934	0.527148	-0.057022	-0.713876	-0.457433	92.485470	-53.591307	-137.517510
53536		17.312082	-11.976129	-2.872362	-12.317422	-15.760107	-2.653043	-0.715811	-0.382213	2.600456	-0.880371	0.073730	-0.595703	0.174713	-0.117597	-0.027967	0.531508	-0.069164	-0.712420	-0.452960	92.468361	-55.081965	-138.007699
53537		13.056097	12.984405	1.352849	1.218149	3.675251	8.239307	0.135806	0.176637	2.728199	-0.885742	0.095947	-0.600098	0.128786	0.131600	0.013503	0.538397	-0.078246	-0.711233	-0.445145	92.498002	-56.669240	-137.949451
53538		11.560678	35.657185	9.649207	9.876395	23.912105	18.976465	-0.209576	0.372738	1.986124	-0.890625	0.111328	-0.604736	0.112237	0.357798	0.095906	0.544061	-0.085144	-0.708930	-0.440643	92.116171	-57.826444	-137.644479
53539		12.348012	13.956053	10.983820	-3.808413	11.894168	7.847305	-2.445584	-0.434002	2.031999	-0.882813	0.138184	-0.604736	0.121808	0.142135	0.108376	0.545957	-0.100066	-0.703743	-0.443468	91.172055	-59.001328	-138.183559
53540		20.737087	-11.414074	5.197479	-18.584641	-9.684922	2.355516	-2.655076	-0.521929	2.979679	-0.881592	0.166992	-0.596191	0.208894	-0.110328	0.054000	0.549315	-0.119039	-0.697626	-0.444299	90.199542	-60.716461	-138.824216
53541		21.874742	-4.597760	-1.166906	-10.131746	-10.315698	7.272057	-1.551322	-0.512906	3.475959	-0.885254	0.197754	-0.594238	0.219532	-0.042252	-0.010769	0.554314	-0.136646	-0.693352	-0.439690	89.852108	-62.727013	-139.439466
53542		15.875216	0.996808	-1.440486	-3.775907	-5.060922	4.856946	-1.134063	-0.765510	3.303101	-0.884033	0.229004	-0.585693	0.158613	0.012509	-0.013864	0.558083	-0.153004	-0.690587	-0.433845	90.085962	-64.631500	-140.431079
53543		10.968472	-4.712053	-2.809645	-5.090217	-7.729821	-1.767202	-1.678652	-1.162122	3.287578	-0.883057	0.259766	-0.570557	0.110601	-0.045538	-0.027069	0.559930	-0.171605	-0.687506	-0.429378	90.608024	-66.531268	-142.055222
53544		13.314825	-11.554639	-7.223961	-8.060594	-15.332604	-1.883315	-1.946819	-1.456719	3.375279	-0.884277	0.284180	-0.550781	0.135597	-0.113961	-0.070143	0.560399	-0.191850	-0.684332	-0.425249	91.597234	-68.460689	-144.338800
53545		16.723196	-6.765296	0.039751	-9.904380	-7.135595	3.468358	-1.065463	-1.048755	3.398355	-0.881104	0.321777	-0.544434	0.168343	-0.064792	0.001629	0.563071	-0.208677	-0.681599	-0.418126	92.776366	-70.404250	-146.235069
53546		8.168327	0.746663	-1.083439	-1.004926	-1.871689	-1.816782	-0.872533	-1.137941	3.017699	-0.877441	0.341797	-0.529297	0.081619	0.008652	-0.010406	0.564532	-0.223869	-0.679703	-0.411327	94.521144	-72.100111	-148.610837
53547		6.014113	-3.446131	-1.541294	-3.321736	-4.078030	-5.042622	-1.174160	-1.176618	2.385329	-0.874023	0.366211	-0.516357	0.060636	-0.033828	-0.014857	0.564260	-0.237627	-0.677850	-0.407019	96.415898	-73.416278	-151.273831
53548		11.879154	-3.827512	-0.984213	-5.343225	-4.447717	0.598500	-0.408463	-0.862797	2.266355	-0.874756	0.388428	-0.511963	0.119256	-0.036945	-0.009252	0.565437	-0.248300	-0.676676	-0.400922	98.491508	-74.651250	-153.681448
53549		10.906537	-0.833171	-0.870674	-2.682803	-2.372702	0.559055	0.209005	-0.654429	2.031940	-0.866699	0.406250	-0.505615	0.109170	-0.007214	-0.008358	0.567760	-0.255739	-0.676380	-0.393391	100.723585	-75.755335	-155.830176
53550		9.014512	0.450512	-1.086238	-1.000368	-1.482098	-0.899524	0.444566	-0.553616	1.765273	-0.862793	0.424072	-0.496826	0.090130	0.005324	-0.010602	0.569918	-0.261626	-0.676504	-0.386118	103.109007	-76.690606	-158.029303
53551		9.548679	0.818425	-0.635986	-0.980054	-0.819543	-0.293372	0.329292	-0.529738	1.519908	-0.861328	0.441650	-0.492676	0.095437	0.008920	-0.006093	0.571706	-0.266696	-0.676640	-0.379714	105.500223	-77.478798	-160.251648
53552		10.583699	0.493252	-0.430467	-1.479423	-0.780478	0.658384	0.154183	-0.553312	1.386248	-0.861572	0.450439	-0.479492	0.105811	0.005669	-0.004008	0.572669	-0.272090	-0.676613	-0.374449	108.077327	-78.158347	-162.803040
53553		9.568548	0.836218	0.048476	-1.203446	-0.006170	-0.283315	-0.044864	-0.610768	1.234973	-0.853516	0.468506	-0.477295	0.095629	0.008953	0.000775	0.573045	-0.277440	-0.676577	-0.369986	110.818689	-78.729803	-165.595793
53554		10.708714	-1.040003	-0.046574	-2.807437	-1.091428	0.516197	-0.213126	-0.656677	1.079961	-0.849609	0.486084	-0.457764	0.107142	-0.009822	-0.000103	0.572526	-0.283015	-0.676518	-0.366661	113.707818	-79.170042	-168.669214
53555		11.184794	0.305597	-0.057050	-1.759032	-0.223285	1.234970	-0.256873	-0.702296	0.963910	-0.845215	0.486084	-0.448975	0.111833	0.003595	-0.000182	0.571721	-0.288254	-0.676669	-0.363545	116.774527	-79.519605	-171.913704
53556		9.839952	1.341598	0.117055	-0.743161	0.658230	0.069205	-0.491616	-0.744551	0.790305	-0.852539	0.501465	-0.435791	0.098340	0.013808	0.001503	0.569930	-0.293783	-0.676717	-0.361836	119.751086	-79.725783	-175.231421
53557		10.282817	-0.202502	-1.109249	-1.362929	-1.135375	0.378504	-0.358828	-0.658587	0.666203	-0.839600	0.517334	-0.431641	0.102870	-0.001702	-0.010751	0.568530	-0.298246	-0.676938	-0.359969	122.488796	-79.878702	-178.200640
53558		11.157497	-0.458879	-2.389055	-0.992037	-2.253023	1.338410	0.117494	-0.452302	0.635509	-0.840088	0.523926	-0.420654	0.111642	-0.004220	-0.023641	0.568324	-0.300976	-0.677446	-0.357055	124.957399	-80.046233	179.355436
53559		10.678750	1.156321	-1.597886	0.005482	-0.608276	1.029608	0.430942	-0.312523	0.656482	-0.833740	0.537354	-0.422852	0.106773	0.011948	-0.015787	0.569214	-0.302575	-0.678083	-0.353055	127.395778	-80.264594	177.147784
53560		10.513427	1.148124	-0.409269	-0.596904	0.434789	0.745345	0.296746	-0.275056	0.601470	-0.838867	0.548096	-0.407471	0.105105	0.011803	-0.003931	0.569797	-0.304354	-0.678439	-0.349886	129.601026	-80.444030	175.078061
53561		10.078100	0.431466	-0.609444	-0.959402	-0.084635	0.247024	0.244487	-0.243377	0.493385	-0.830322	0.563721	-0.403320	0.100777	0.004571	-0.005966	0.570292	-0.305885	-0.678762	-0.347106	131.592086	-80.587001	173.207812
53562		9.628441	0.560819	-1.354344	-0.335749	-0.581953	-0.096514	0.304977	-0.207295	0.424124	-0.826172	0.568359	-0.401123	0.096286	0.005833	-0.013435	0.570798	-0.306915	-0.679195	-0.344511	133.345808	-80.693237	171.602211
53563		9.713112	0.471958	-1.541325	-0.288802	-0.738026	0.001318	0.314590	-0.189805	0.387427	-0.815430	0.581787	-0.403320	0.097136	0.004932	-0.015313	0.571335	-0.307893	-0.679615	-0.341908	135.110841	-80.793638	169.990240
53564		10.115473	0.356250	-1.095990	-0.672721	-0.386057	0.338623	0.309054	-0.204014	0.421325	-0.811523	0.599609	-0.394531	0.101158	0.003792	-0.010851	0.571844	-0.308891	-0.680038	-0.339306	136.924268	-80.883746	168.327435
53565		9.981250	0.535491	-0.914059	-0.581476	-0.087280	0.207373	0.334115	-0.227074	0.462076	-0.809814	0.608398	-0.388184	0.099810	0.005601	-0.009018	0.572362	-0.310204	-0.680452	-0.336393	139.081473	-80.978961	166.320645
53566		9.797793	1.278960	-1.100082	0.180424	0.238186	0.124772	0.408602	-0.219592	0.479166	-0.799316	0.626465	-0.383789	0.097959	0.013047	-0.010867	0.573059	-0.311134	-0.680984	-0.333256	141.219946	-81.064140	164.387355
53567		9.808771	1.657032	-1.021313	0.470570	0.581043	0.159346	0.447600	-0.197253	0.516730	-0.786133	0.635498	-0.383789	0.098054	0.016846	-0.010079	0.573876	-0.312365	-0.681373	-0.329887	143.645375	-81.165986	162.161271
53568		9.808820	1.373088	-1.162937	0.357912	0.357358	0.146958	0.492547	-0.210200	0.580360	-0.779541	0.640137	-0.381592	0.098060	0.014044	-0.011492	0.574889	-0.313374	-0.681840	-0.326180	146.200787	-81.263500	159.855782
53569		9.697731	2.125963	-1.121195	0.994647	0.897500	0.088194	0.551911	-0.214396	0.654268	-0.766846	0.660400	-0.377197	0.096919	0.021607	-0.011049	0.575996	-0.314835	-0.682196	-0.322050	149.265054	-81.366784	157.038714
53570		9.245716	2.788478	-1.306452	1.734956	1.187842	-0.297223	0.540254	-0.264773	0.712294	-0.754150	0.678223	-0.377441	0.092374	0.028249	-0.012866	0.577090	-0.316233	-0.682663	-0.317703	152.490005	-81.436724	154.084878
53571		8.974219	2.697770	-1.976276	2.131652	0.659553	-0.499220	0.375936	-0.362627	0.736007	-0.740967	0.685059	-0.366455	0.089678	0.027345	-0.019549	0.577670	-0.318391	-0.683083	-0.313564	155.999347	-81.441645	150.755757
53572		9.256942	1.904736	-2.539027	1.830998	-0.163873	-0.200945	0.229693	-0.436547	0.767275	-0.721436	0.703369	-0.368652	0.092550	0.019431	-0.025166	0.577746	-0.321131	-0.683439	-0.309832	159.523527	-81.378928	147.319415
53573		9.844077	0.150130	-2.870451	0.597355	-1.346571	0.336054	0.255937	-0.447201	0.838741	-0.710693	0.716797	-0.364258	0.098497	0.001951	-0.028482	0.577977	-0.324102	-0.683720	-0.305660	163.367693	-81.294074	143.581130
53574		10.284436	-0.077408	-2.560087	0.230971	-1.101674	0.725884	0.381999	-0.423065	0.947135	-0.693115	0.728271	-0.364258	0.102900	-0.000238	-0.025384	0.578591	-0.326979	-0.683944	-0.300893	167.465552	-81.196950	139.651147
53575		10.674397	0.491964	-2.067304	0.413987	-0.220786	1.060994	0.481305	-0.386783	1.068064	-0.680420	0.743896	-0.360107	0.106755	0.005539	-0.020454	0.579703	-0.329970	-0.683976	-0.295365	172.030840	-81.088816	135.311964
53576		10.754627	1.398364	-1.721255	0.995689	0.726738	1.098722	0.524385	-0.367152	1.182882	-0.649170	0.753418	-0.366455	0.107492	0.014664	-0.016977	0.581049	-0.333131	-0.683811	-0.289496	176.798205	-80.944331	130.784329
53577		10.989381	2.315609	-1.569183	1.697699	1.560550	1.290068	0.531589	-0.325693	1.314672	-0.641113	0.775635	-0.362305	0.109764	0.023919	-0.015450	0.582756	-0.336697	-0.683266	-0.283156	-178.042578	-80.762378	125.869248
53578		11.217332	2.349557	-1.534345	1.787283	1.772948	1.472819	0.513534	-0.300146	1.490401	-0.618652	0.778320	-0.366455	0.112017	0.024370	-0.015113	0.584687	-0.340808	-0.682300	-0.276510	-172.603860	-80.518041	120.650145
53579		11.527101	2.302882	-1.317476	1.720227	2.105908	1.698844	0.497211	-0.277759	1.698801	-0.594971	0.803223	-0.368896	0.115088	0.024039	-0.012956	0.586955	-0.345669	-0.680824	-0.269213	-166.710797	-80.178233	114.963304
53580		11.640894	2.645427	-0.996998	1.932129	2.740568	1.687502	0.443227	-0.238284	1.890373	-0.572754	0.810303	-0.371094	0.116164	0.027575	-0.009771	0.589425	-0.351209	-0.678782	-0.261697	-160.744372	-79.737825	109.156829
53581		11.578056	1.878233	-1.173926	1.609393	2.289579	1.638069	0.360623	-0.232015	2.061021	-0.557861	0.830566	-0.373291	0.115592	0.019995	-0.011570	0.591972	-0.357570	-0.676226	-0.253832	-154.821436	-79.154978	103.343704
53582		11.980407	0.720636	-1.085366	0.813975	1.896866	2.060000	0.324932	-0.212193	2.218958	-0.529053	0.840088	-0.375488	0.119726	0.008552	-0.010713	0.594611	-0.364458	-0.673219	-0.245734	-149.209796	-78.442889	97.807812
53583		12.641960	-0.802439	-1.004776	-0.232640	1.353739	2.819734	0.345161	-0.172109	2.385205	-0.502686	0.856201	-0.377686	0.126512	-0.006499	-0.009951	0.597580	-0.371787	-0.669701	-0.237008	-143.810942	-77.589561	92.492116
53584		13.449429	-1.154982	-1.019212	-0.258503	1.518178	3.636403	0.433591	-0.098054	2.557521	-0.480225	0.858887	-0.384033	0.134632	-0.009807	-0.010149	0.601032	-0.379240	-0.665659	-0.227676	-138.694089	-76.618741	87.492690
53585		13.993855	0.104225	-1.319095	1.203473	2.419449	3.980937	0.550467	-0.018239	2.738649	-0.456055	0.872559	-0.390625	0.139908	0.002994	-0.013172	0.605102	-0.386824	-0.661021	-0.217417	-133.779718	-75.506120	82.755323
53586		14.986680	1.224103	-1.596816	2.600117	3.388947	4.692020	0.633162	0.017271	2.912143	-0.420654	0.886719	-0.401611	0.149666	0.014472	-0.015938	0.609473	-0.394569	-0.655913	-0.206485	-129.276850	-74.252579	78.461739
53587		16.481176	2.031868	-1.758916	3.777024	4.440155	5.834909	0.766607	0.056449	3.102335	-0.396484	0.900391	-0.403809	0.164465	0.022939	-0.017551	0.614317	-0.402433	-0.650265	-0.194467	-125.074672	-72.834806	74.538742
53588		18.357860	3.233131	-1.668126	5.209270	6.089812	7.098591	0.972660	0.130187	3.295550	-0.369873	0.912109	-0.421387	0.183001	0.035431	-0.016633	0.619800	-0.410071	-0.644044	-0.181375	-121.129804	-71.282149	70.972990
53589		19.923061	4.935385	-1.788835	7.218327	7.864880	7.807753	1.245673	0.211752	3.501172	-0.338623	0.919434	-0.427979	0.198306	0.052942	-0.017776	0.626117	-0.417350	-0.637163	-0.166794	-117.340243	-69.570070	67.708391
53590		21.296468	7.476573	-1.578739	9.655109	10.393011	7.812107	1.569166	0.248239	3.698988	-0.311768	0.922363	-0.449707	0.211513	0.078809	-0.015443	0.633125	-0.424025	-0.629808	-0.150658	-113.772117	-67.707446	64.837385
53591		23.309687	9.288551	-0.469073	11.060809	13.439610	8.264780	2.077500	0.315568	3.819578	-0.294189	0.933838	-0.467285	0.231259	0.097358	-0.004061	0.641254	-0.429254	-0.622063	-0.132556	-110.274424	-65.727663	62.324034
53592		23.770395	12.670264	0.840574	13.067097	17.078861	6.427459	2.759550	0.439942	3.939447	-0.267334	0.936768	-0.489258	0.235169	0.131224	0.009676	0.650950	-0.432337	-0.613807	-0.112205	-106.676332	-63.654706	60.087742
53593		22.483311	15.593283	1.885268	14.289020	19.603807	2.978498	3.140204	0.548732	4.059879	-0.245117	0.946289	-0.511230	0.221666	0.160139	0.020734	0.661479	-0.434224	-0.604745	-0.090436	-103.135846	-61.472871	58.122546
53594		20.804016	14.311288	2.416116	12.799900	18.991839	1.088788	3.181635	0.767132	4.191170	-0.218262	0.951416	-0.546143	0.205083	0.147031	0.025689	0.672344	-0.435966	-0.594298	-0.068542	-99.725418	-59.194228	56.290267
53595		17.643541	9.550637	1.533532	9.804030	14.545070	0.042760	3.414217	1.017287	4.173456	-0.200684	0.960693	-0.563721	0.174476	0.098890	0.016114	0.683978	-0.436457	-0.582679	-0.046533	-96.309282	-56.897848	54.564484
53596		14.637638	5.444068	-0.472977	8.239168	9.681075	-0.730713	2.661816	1.025018	3.922462	-0.184814	0.961182	-0.587891	0.145246	0.057360	-0.004726	0.693457	-0.438505	-0.571028	-0.027538	-93.643009	-54.697980	53.178886
53597		13.772215	4.598496	-1.691389	8.666865	8.211013	-1.379317	1.515639	0.815929	3.475352	-0.176270	0.970215	-0.587891	0.136824	0.048497	-0.017112	0.699448	-0.443043	-0.560640	-0.012942	-92.006955	-52.725667	52.219889
53598		13.868499	2.079331	-1.663964	7.608005	6.953714	-0.159935	0.790648	0.267041	3.039030	-0.162842	0.974854	-0.596680	0.138325	0.022963	-0.016737	0.702028	-0.448813	-0.552923	-0.000634	-91.302676	-50.977861	51.893786
53599		15.960300	-0.458424	-2.668855	8.167022	6.096574	2.764101	1.057160	-0.025660	2.894466	-0.152100	0.984131	-0.607666	0.159649	-0.002133	-0.026684	0.704243	-0.453108	-0.546424	0.012493	-90.683152	-49.315278	51.868019
53600		11.156777	-3.054584	-5.105271	7.125269	0.852010	0.597014	1.442236	-0.235642	2.449008	-0.143066	0.988770	-0.623047	0.111988	-0.028808	-0.051133	0.706609	-0.454747	-0.541527	0.025644	-90.007924	-47.899652	52.062498
53601		6.063457	-2.986719	-10.659887	9.683332	-4.969311	-3.421914	2.651514	-0.176089	2.379616	-0.145264	0.986572	-0.647217	0.061067	-0.027726	-0.106922	0.711725	-0.451781	-0.536293	0.041604	-88.619959	-46.534982	52.232438
53602		13.273272	20.699090	-5.263716	18.371811	16.493628	-14.580663	3.131419	-0.226607	0.289092	-0.156250	0.984375	-0.675781	0.132490	0.207971	-0.049236	0.718008	-0.441396	-0.535698	0.051592	-86.976892	-46.362894	52.433691
53603		0.285253	26.698424	-0.069086	10.654691	16.503048	-27.895475	2.083993	-0.410664	-0.991619	-0.183350	0.988281	-0.686768	0.004174	0.266954	0.002099	0.721685	-0.431172	-0.538788	0.054476	-86.002373	-46.944620	52.724514
53604		-7.070115	14.517732	0.425675	2.367511	5.561433	-24.792362	0.872526	-0.568456	-1.731338	-0.205811	0.985840	-0.699951	-0.069454	0.145762	0.004693	0.722435	-0.423270	-0.544279	0.051859	-85.787404	-47.945901	53.104226
53605		-1.373879	9.304455	0.634743	2.550645	5.613246	-16.943247	0.369206	-0.631929	-2.396445	-0.241211	0.976318	-0.704346	-0.012643	0.093189	0.006478	0.722034	-0.415260	-0.551505	0.045477	-85.880365	-49.344592	53.498182
53606		1.357065	6.555316	-0.264339	3.342814	4.872335	-12.969657	-0.020689	-0.859643	-2.873321	-0.270508	0.977783	-0.697998	0.014522	0.065349	-0.002589	0.720160	-0.407258	-0.560490	0.036883	-86.356659	-51.008982	54.096004
53607		2.974106	5.836311	0.254081	3.248261	5.558309	-11.046542	-0.185432	-0.874215	-3.369230	-0.308105	0.963867	-0.695801	0.030707	0.057854	0.002620	0.717817	-0.398300	-0.570459	0.025931	-86.966792	-52.969421	54.723478
53608		4.604338	5.484341	1.378693	2.721917	6.742075	-9.257440	-0.331409	-0.785206	-3.901527	-0.348389	0.956299	-0.687256	0.047047	0.053955	0.013880	0.715250	-0.388272	-0.580951	0.012596	-87.641082	-55.212000	55.314927
53609		5.565123	5.949286	2.338676	2.401885	8.004978	-8.407170	-0.498910	-0.680215	-4.451804	-0.399414	0.939697	-0.687256	0.056878	0.058294	0.023432	0.712374	-0.377019	-0.591919	-0.003545	-88.390152	-57.780070	55.858012
53610		6.531629	6.497217	2.790499	2.519397	8.996315	-7.496218	-0.695846	-0.562781	-4.997145	-0.441650	0.925537	-0.676270	0.066835	0.063412	0.027869	0.709053	-0.364691	-0.603115	-0.022287	-89.239851	-60.637689	56.376660
53611		7.522740	6.573426	2.896514	2.674597	9.383721	-6.212544	-0.886099	-0.466520	-5.491256	-0.496826	0.900146	-0.671875	0.076929	0.063765	0.028858	0.705114	-0.351216	-0.614455	-0.043673	-90.235402	-63.792197	56.915207
53612		8.419502	6.351316	3.062045	2.543147	9.436082	-4.805992	-1.074216	-0.387248	-5.910679	-0.547363	0.870361	-0.658691	0.085967	0.061154	0.030453	0.700407	-0.336868	-0.625662	-0.067058	-91.456675	-67.163471	57.574808
53613		10.128046	5.425450	2.980776	2.317321	8.929346	-2.345714	-1.212570	-0.299184	-6.257071	-0.604004	0.829102	-0.654297	0.102871	0.051232	0.029644	0.694945	-0.321496	-0.636524	-0.092349	-92.963269	-70.748176	58.430917
53614		11.416040	4.179919	2.826369	1.725247	7.796966	-0.222649	-1.199353	-0.184276	-6.518839	-0.652344	0.794922	-0.643311	0.115419	0.038219	0.028133	0.689025	-0.304927	-0.646716	-0.118418	-94.804117	-74.455869	59.633509
53615		11.975000	3.419475	2.435371	1.339743	6.555712	0.966767	-1.157832	-0.067829	-6.773308	-0.704102	0.745117	-0.638672	0.120811	0.030255	0.024212	0.682592	-0.286896	-0.656201	-0.145462	-97.328253	-78.321813	61.532878
53616		13.183943	3.063895	1.875612	1.276256	5.512815	2.622328	-1.088037	0.103091	-7.010788	-0.747070	0.688721	-0.634277	0.132817	0.026095	0.018538	0.675834	-0.267457	-0.664679	-0.172966	-101.455221	-82.284508	65.079494
53617		14.785788	2.733622	1.371814	1.058382	4.354332	4.602482	-0.926905	0.283987	-7.224950	-0.784912	0.623779	-0.635986	0.148737	0.022036	0.013397	0.668804	-0.246175	-0.672122	-0.200875	-112.626582	-86.318929	75.750980
53618		16.297128	3.026727	0.834610	1.078266	3.425614	6.387006	-0.651229	0.439444	-7.440538	-0.820557	0.561035	-0.631348	0.163965	0.024205	0.007901	0.661539	-0.222843	-0.678666	-0.228297	143.730638	-88.543574	179.060763
53619		18.455858	3.488670	0.294718	1.013322	2.354401	8.791907	-0.365627	0.557039	-7.704750	-0.840088	0.485107	-0.644287	0.185727	0.027750	0.002376	0.653690	-0.197125	-0.684461	-0.255627	99.050660	-84.641970	-136.436279
53620		20.964520	4.002734	-0.079610	0.603199	1.060786	11.490141	-0.152363	0.618079	-7.921506	-0.864502	0.422607	-0.643799	0.211007	0.031685	-0.001473	0.645023	-0.169680	-0.689495	-0.282402	92.816058	-80.169086	-130.244733
53621		23.977298	3.995177	-2.197976	0.945393	-2.146660	14.474941	-0.091625	0.487197	-7.951913	-0.870605	0.347168	-0.656494	0.241053	0.030373	-0.022581	0.634835	-0.141758	-0.693967	-0.308707	90.777155	-75.611160	-128.230584
53622		27.062106	3.592111	-4.154340	0.627303	-5.900708	17.148898	-0.362678	0.143053	-7.772883	-0.885742	0.273682	-0.649658	0.271712	0.025298	-0.041790	0.622613	-0.115723	-0.697922	-0.334465	90.172710	-71.170072	-127.822561
53623		30.759774	-2.870484	-5.469332	-4.153569	-14.130379	17.880814	-1.072477	-0.354418	-7.468085	-0.887939	0.213623	-0.649170	0.306329	-0.040452	-0.053954	0.607537	-0.094068	-0.701054	-0.361348	90.095264	-66.899224	-128.473115
53624		32.454053	-16.392882	-3.644299	-15.017167	-24.567602	12.674965	-0.690918	-0.539156	-6.626794	-0.881104	0.158203	-0.642334	0.318966	-0.174683	-0.034987	0.593034	-0.073970	-0.704156	-0.383410	90.331210	-63.112816	-129.175775
53625		29.439486	-16.863668	0.048483	-18.310135	-22.341397	7.973149	-0.141210	-0.628830	-5.868688	-0.881348	0.104980	-0.639648	0.289275	-0.177175	0.001523	0.579031	-0.055341	-0.707626	-0.401155	90.863951	-59.754620	-129.932572
53626		24.083370	-19.314246	-1.725171	-17.297214	-23.436473	0.547830	-1.152593	-1.108747	-5.041912	-0.880127	0.071777	-0.624023	0.235949	-0.199222	-0.014798	0.564502	-0.043151	-0.709660	-0.419354	91.148812	-56.866614	-131.049416
53627		21.089448	-25.384019	-3.051331	-19.164983	-26.843818	-6.592786	-1.963672	-1.254427	-3.609760	-0.876953	0.047363	-0.619629	0.206440	-0.257868	-0.026690	0.551862	-0.038671	-0.709680	-0.436243	91.021704	-54.788603	-132.279922
53628		20.833040	-32.262588	-3.711633	-22.960944	-30.943657	-11.768217	-2.165284	-1.070799	-2.106703	-0.871826	0.031738	-0.610596	0.205096	-0.325166	-0.032501	0.543008	-0.039607	-0.708214	-0.449451	90.605391	-53.584568	-133.302892
53629		19.134587	-35.849879	-5.040349	-23.916709	-32.692336	-15.803845	-1.783144	-0.830386	-0.628088	-0.874268	0.033936	-0.612793	0.190416	-0.359523	-0.046409	0.538284	-0.044202	-0.706520	-0.457303	90.215336	-53.229934	-134.102192
53630		16.381045	-35.082862	-5.742662	-22.388912	-31.158252	-17.558258	-1.235861	-0.617827	0.672531	-0.879150	0.047119	-0.608643	0.165162	-0.350619	-0.054751	0.537381	-0.051420	-0.705172	-0.459685	89.982905	-53.626308	-134.701006
53631		17.536240	-31.320821	-4.359881	-22.112857	-28.310771	-13.935621	-0.753952	-0.413358	1.864625	-0.873291	0.067383	-0.608643	0.178361	-0.311715	-0.042055	0.540044	-0.061099	-0.704008	-0.457157	89.873132	-54.711565	-135.105080
53632		20.395763	-23.398018	-4.401202	-18.834552	-24.811251	-6.286897	-0.293591	-0.321392	2.579644	-0.876221	0.087158	-0.602295	0.207023	-0.231387	-0.043340	0.544703	-0.071806	-0.703338	-0.451063	89.967234	-56.201511	-135.429899
53633		13.615705	0.037034	-4.490163	-2.119056	-8.378038	1.626585	0.413896	-0.133744	2.587510	-0.877197	0.111572	-0.602539	0.136166	0.002225	-0.044807	0.550259	-0.080226	-0.703623	-0.442372	90.326357	-57.707319	-135.577587
53634		8.895955	36.547105	3.298505	16.244781	21.085636	16.967173	1.112013	0.496185	1.911425	-0.875244	0.120605	-0.611328	0.085547	0.366109	0.034804	0.556671	-0.082894	-0.703887	-0.433346	90.515210	-58.816188	-135.056650
53635		11.662132	30.147053	10.543232	6.572320	21.614644	15.595733	-1.061265	-0.007888	1.549001	-0.875977	0.135986	-0.609131	0.114275	0.302915	0.103832	0.559609	-0.091461	-0.700913	-0.432659	89.919184	-59.725146	-135.073836
53636		18.300929	-3.823722	8.471866	-14.721185	-2.560466	4.258739	-2.830816	-0.606295	2.422843	-0.874756	0.164795	-0.600586	0.183186	-0.034809	0.085783	0.561357	-0.109271	-0.695233	-0.435418	88.881989	-61.128544	-135.752245
53637		22.689674	-9.128646	-0.176157	-13.495328	-12.936079	5.956214	-1.909583	-0.631683	3.235852	-0.873779	0.193604	-0.600830	0.228336	-0.087607	-0.000194	0.565137	-0.127371	-0.690916	-0.432472	88.380768	-63.010950	-136.427342
53638		19.468783	-3.384966	-7.962773	-3.261671	-13.788719	6.096449	-1.577556	-1.064137	3.197087	-0.872559	0.218018	-0.587646	0.195621	-0.031349	-0.078335	0.567296	-0.145255	-0.688332	-0.428106	88.623845	-64.869853	-137.709848
53639		17.341991	-10.125382	-6.132807	-8.358490	-15.355308	1.814320	-1.436164	-1.042825	3.326962	-0.871582	0.253418	-0.574707	0.175391	-0.098780	-0.059702	0.569793	-0.163083	-0.685641	-0.422654	89.039572	-66.809784	-139.063438
53640		16.396503	-7.502009	-0.703496	-9.595798	-8.964201	2.562256	-0.505146	-0.972006	3.922835	-0.872803	0.284424	-0.561768	0.165425	-0.071801	-0.006049	0.574242	-0.180093	-0.683975	-0.412299	90.081901	-69.073447	-140.505789
53641		8.606515	0.518232	1.767163	-3.037873	-0.147985	-1.554123	-0.339370	-1.213305	3.546302	-0.876465	0.317627	-0.548828	0.085846	0.006736	0.018182	0.577140	-0.195710	-0.683413	-0.401938	91.896416	-71.116064	-142.629089
53642		4.162769	-2.907737	0.502465	-3.503701	-2.109644	-6.761949	-1.067432	-1.273489	2.987198	-0.866211	0.342041	-0.531494	0.042022	-0.028423	0.005444	0.577681	-0.211630	-0.681891	-0.395629	93.786065	-72.801291	-145.264915
53643		7.811377	-3.407727	-1.368158	-3.567038	-4.328238	-3.252240	-1.106736	-1.102332	2.629580	-0.867188	0.364258	-0.529297	0.078627	-0.033119	-0.013064	0.578030	-0.225989	-0.679992	-0.390412	95.700029	-74.273976	-147.907605
53644		10.367670	-0.432463	-0.190049	-2.531890	-1.792185	0.091039	-0.589963	-0.890744	2.318997	-0.863525	0.386475	-0.518555	0.103725	-0.003127	-0.001428	0.578830	-0.237401	-0.678708	-0.384645	97.829945	-75.544928	-150.468956
53645		10.862937	-0.484536	-0.560718	-2.329735	-1.971156	0.638846	-0.183537	-0.771268	2.097620	-0.853271	0.408691	-0.511963	0.108693	-0.003710	-0.005184	0.580178	-0.246472	-0.678035	-0.378039	100.243813	-76.683868	-153.038600
53646		10.521092	0.906319	-0.375554	-1.175429	-0.772955	0.659797	0.200784	-0.647526	1.908514	-0.853760	0.421875	-0.503418	0.105129	0.010070	-0.003405	0.581822	-0.253673	-0.677874	-0.370972	102.937537	-77.691783	-155.688377
53647		10.290309	0.845917	-1.289524	-0.514729	-1.348646	0.491782	0.167628	-0.614030	1.724440	-0.852051	0.435303	-0.499023	0.102864	0.009357	-0.012572	0.583310	-0.260108	-0.677739	-0.364367	105.823119	-78.583153	-158.512547
53648		10.686348	-1.585750	-1.379922	-2.321774	-2.751620	0.466018	0.171592	-0.526031	1.643840	-0.845947	0.453125	-0.490479	0.107025	-0.014967	-0.013531	0.584735	-0.266228	-0.677390	-0.358260	108.867570	-79.403092	-161.519135
53649		9.629293	-0.098110	-0.234358	-1.571865	-0.745977	-0.338580	0.163785	-0.498194	1.472066	-0.844238	0.466553	-0.486084	0.096302	-0.000271	-0.002104	0.586059	-0.271577	-0.677145	-0.352499	112.090417	-80.115206	-164.672976
53650		10.324014	0.104516	-0.604854	-1.229139	-0.829464	0.422631	0.018884	-0.470311	1.213119	-0.835938	0.482178	-0.481689	0.103245	0.001672	-0.005806	0.586629	-0.276554	-0.676862	-0.348200	115.239077	-80.653696	-167.860792
53651		11.194984	0.013095	-0.727162	-1.297881	-0.896044	1.294419	-0.081711	-0.488789	1.050569	-0.838867	0.497559	-0.470947	0.111964	0.000716	-0.006998	0.586835	-0.281188	-0.676670	-0.344493	118.484002	-81.086051	-171.172739
53652		10.726169	-0.575025	-0.497958	-1.772948	-0.947158	0.750825	-0.125900	-0.510801	0.930582	-0.830078	0.501953	-0.462158	0.107299	-0.005254	-0.004702	0.586534	-0.285684	-0.676600	-0.341431	121.840774	-81.409154	-174.647317
53653		10.078256	-0.661915	-0.261708	-1.845255	-0.704196	0.095706	-0.216907	-0.487355	0.791126	-0.830566	0.515381	-0.453369	0.100814	-0.006223	-0.002365	0.586045	-0.289877	-0.676492	-0.338941	125.045704	-81.654892	-177.997741
53654		9.910773	-0.619271	-0.917356	-1.366485	-1.119593	0.001955	-0.158683	-0.405145	0.669476	-0.830811	0.517578	-0.442383	0.099146	-0.005868	-0.008968	0.585583	-0.293392	-0.676401	-0.336892	127.867016	-81.833651	179.054248
53655		10.107035	0.081946	-0.939057	-0.796133	-0.646419	0.286256	-0.010082	-0.306326	0.580776	-0.829346	0.537354	-0.442627	0.101082	0.001113	-0.009236	0.585609	-0.295999	-0.676387	-0.334585	130.421560	-82.001031	176.478417
53656		10.334477	-0.411565	-1.108686	-1.090057	-1.019902	0.481548	0.043939	-0.239060	0.491453	-0.829346	0.541748	-0.436035	0.103368	-0.003859	-0.010964	0.585694	-0.298033	-0.676396	-0.332608	132.582995	-82.128500	174.316213
53657		10.417578	-0.065119	-0.676092	-1.055644	-0.415412	0.565181	0.106418	-0.180865	0.412673	-0.825439	0.555176	-0.427246	0.104183	-0.000433	-0.006667	0.585997	-0.299578	-0.676436	-0.330599	134.540748	-82.246879	172.404650
53658		10.079023	-0.495365	-0.772926	-1.272035	-0.719627	0.201975	0.001779	-0.143895	0.332236	-0.823486	0.564209	-0.427490	0.100804	-0.004786	-0.007657	0.586068	-0.301036	-0.676327	-0.329369	136.036023	-82.328914	170.891463
53659		9.902229	-0.234081	-0.736326	-1.044287	-0.504549	0.051690	-0.095503	-0.109157	0.261492	-0.823975	0.575195	-0.420898	0.099029	-0.002215	-0.007308	0.586011	-0.302634	-0.676026	-0.328622	137.322752	-82.402801	169.529877
53660		10.111930	0.528360	-0.662701	-0.494552	0.041476	0.322553	0.020593	-0.081945	0.236754	-0.810791	0.582031	-0.420898	0.101116	0.005404	-0.006585	0.586161	-0.303610	-0.675906	-0.327700	138.399561	-82.465249	168.450223
53661		10.226208	0.218558	-0.947332	-0.569448	-0.342022	0.438129	0.043224	-0.102560	0.228192	-0.806885	0.597656	-0.403320	0.102264	0.002304	-0.009420	0.586246	-0.304745	-0.675847	-0.326616	139.706021	-82.521301	167.141058
53662		10.364841	0.171993	-1.012225	-0.570941	-0.391454	0.579849	0.106544	-0.125017	0.254688	-0.804932	0.602051	-0.403320	0.103652	0.001857	-0.010056	0.586408	-0.305598	-0.675963	-0.325284	141.048544	-82.564993	165.843360
53663		10.067071	0.855245	-0.848459	-0.069811	0.175895	0.324439	0.178121	-0.142301	0.284995	-0.794434	0.619873	-0.396973	0.100664	0.008703	-0.008405	0.586587	-0.306725	-0.676121	-0.323568	142.819699	-82.612836	164.127248
53664		9.646047	1.657766	-0.724575	0.560036	0.777342	-0.045322	0.154425	-0.197081	0.285921	-0.794678	0.624268	-0.392578	0.096444	0.016721	-0.007138	0.586625	-0.307659	-0.676474	-0.321870	144.520289	-82.624120	162.496377
53665		9.220794	2.803827	-0.905925	1.640805	1.349898	-0.368610	0.002903	-0.331464	0.272796	-0.777344	0.640137	-0.381592	0.092184	0.028164	-0.008906	0.585823	-0.309654	-0.676893	-0.320534	146.664754	-82.563010	160.290118
53666		9.528475	1.961823	-1.643143	1.375286	0.311665	-0.047863	-0.112298	-0.396660	0.305080	-0.770752	0.646973	-0.379395	0.095287	0.019754	-0.016254	0.584799	-0.311752	-0.677365	-0.319371	148.728061	-82.468750	158.138900
53667		9.638465	1.303914	-2.135299	1.136317	-0.417784	0.071326	-0.055266	-0.394711	0.380941	-0.764648	0.660400	-0.368408	0.096401	0.013217	-0.021166	0.583837	-0.314414	-0.677685	-0.317840	151.289916	-82.384985	155.471548
53668		9.804681	1.430162	-2.061308	1.185427	-0.217171	0.235865	0.060716	-0.378862	0.482343	-0.747070	0.671631	-0.366455	0.098051	0.014544	-0.020423	0.583418	-0.316573	-0.678090	-0.315595	153.975553	-82.322709	152.791634
53669		10.042016	1.624485	-1.743069	1.148451	0.237986	0.441253	0.143620	-0.385119	0.594440	-0.738525	0.680664	-0.359863	0.100405	0.016556	-0.017226	0.583108	-0.319388	-0.678330	-0.312800	157.339254	-82.259993	149.423901
53670		10.060101	2.123083	-1.765241	1.589167	0.596937	0.480357	0.208333	-0.393893	0.712351	-0.718750	0.694336	-0.355469	0.100559	0.021607	-0.017432	0.583218	-0.321912	-0.678625	-0.309351	160.922684	-82.196653	145.922450
53671		10.091144	1.848806	-1.940343	1.514608	0.384443	0.510659	0.223074	-0.427764	0.867227	-0.710449	0.709961	-0.344482	0.100871	0.018947	-0.019167	0.583516	-0.325017	-0.678762	-0.305213	165.213615	-82.111069	141.722331
53672		10.372428	1.757786	-1.938082	1.465555	0.455697	0.773930	0.222434	-0.437069	1.043275	-0.688721	0.725830	-0.342285	0.103673	0.018140	-0.019134	0.583980	-0.328671	-0.678633	-0.300665	169.989297	-81.995167	137.023779
53673		10.538147	2.224935	-1.775583	1.797460	0.997737	0.907738	0.238002	-0.433518	1.223361	-0.675781	0.739502	-0.337891	0.105281	0.022914	-0.017501	0.584778	-0.332925	-0.678181	-0.295408	175.432892	-81.837042	131.665606
53674		10.531951	3.248444	-1.454343	2.508492	1.993741	0.832486	0.207912	-0.439838	1.400290	-0.649170	0.753174	-0.342285	0.105120	0.033236	-0.014278	0.585686	-0.337807	-0.677388	-0.289834	-178.807367	-81.606707	125.960409
53675		10.693850	2.268216	-1.034567	1.567435	1.891442	0.889474	0.177414	-0.456533	1.631399	-0.634277	0.769043	-0.333740	0.106772	0.023563	-0.010081	0.586828	-0.343612	-0.676151	-0.283520	-172.475668	-81.268447	119.662310
53676		11.030943	2.313979	-0.324290	1.278238	2.678229	1.065295	0.231715	-0.472478	1.887168	-0.605713	0.787354	-0.335938	0.110092	0.024183	-0.002955	0.588276	-0.350066	-0.674553	-0.276339	-165.867534	-80.794380	113.101713
53677		11.768158	0.762335	-0.272066	0.117254	2.074612	1.798580	0.321095	-0.449788	2.104370	-0.585938	0.798828	-0.331543	0.117598	0.008865	-0.002443	0.590234	-0.356966	-0.672543	-0.268113	-159.145771	-80.173928	106.474685
53678		11.942795	0.972425	-0.018928	0.302821	2.625805	1.874192	0.526810	-0.390643	2.311124	-0.562012	0.819336	-0.340332	0.119305	0.011103	0.000072	0.592914	-0.363781	-0.670190	-0.258768	-152.585682	-79.420397	100.110908
53679		12.703000	0.521764	-0.585464	0.476559	2.266333	2.701675	0.683396	-0.283305	2.474219	-0.538086	0.837402	-0.342529	0.126960	0.006808	-0.005653	0.596396	-0.370525	-0.667301	-0.248460	-146.247991	-78.542602	94.054860
53680		13.686500	0.103080	-1.395576	0.885553	1.814165	3.795817	0.818525	-0.126085	2.656142	-0.511475	0.849121	-0.344727	0.136843	0.002905	-0.013860	0.600729	-0.377166	-0.663670	-0.237514	-140.187364	-77.563613	88.334494
53681		14.754738	0.227554	-1.741850	1.521955	2.109576	4.816235	0.937613	0.001781	2.866058	-0.482910	0.869629	-0.355713	0.147494	0.004471	-0.017402	0.605869	-0.383955	-0.659237	-0.225627	-134.354402	-76.430049	82.900891
53682		16.488639	0.236757	-1.974514	2.111462	2.628243	6.448932	0.985189	0.134883	3.120528	-0.454346	0.881348	-0.373291	0.164808	0.005037	-0.019836	0.611636	-0.391151	-0.653822	-0.213117	-128.855545	-75.133081	77.805734
53683		17.825239	2.484374	-1.637562	4.166954	4.898045	7.075349	1.018372	0.276099	3.385189	-0.420898	0.893066	-0.373291	0.177774	0.027939	-0.016484	0.618065	-0.398882	-0.647277	-0.199803	-123.668519	-73.640643	73.026998
53684		18.864998	4.134996	-1.643301	6.024747	6.514533	7.418327	1.011113	0.344768	3.592151	-0.390137	0.907227	-0.388428	0.187837	0.044812	-0.016537	0.624666	-0.407066	-0.639905	-0.186042	-119.071558	-71.974036	68.816626
53685		20.779737	5.232114	-1.219726	7.352947	8.428349	8.503965	1.131289	0.365387	3.811024	-0.359131	0.921143	-0.397217	0.206727	0.056337	-0.012265	0.631573	-0.415432	-0.631868	-0.171099	-114.971606	-70.102209	65.167030
53686		22.784383	7.940678	-0.604143	9.842213	11.556449	8.950267	1.449567	0.395043	3.980556	-0.332275	0.926270	-0.421387	0.226191	0.083963	-0.005892	0.639079	-0.423094	-0.623411	-0.154689	-111.250440	-68.081152	62.067728
53687		23.242353	9.991655	-0.274619	11.763015	13.647327	7.947100	1.910060	0.417004	4.010954	-0.308105	0.942383	-0.432373	0.230352	0.104573	-0.002244	0.647368	-0.429181	-0.614852	-0.136658	-107.803437	-65.975725	59.511206
53688		22.632582	13.572518	0.886267	13.814863	16.899754	5.042703	2.480743	0.479991	4.092027	-0.283691	0.951660	-0.456543	0.223511	0.140198	0.010045	0.656757	-0.433372	-0.605997	-0.116732	-104.432358	-63.787576	57.352719
53689		21.865201	16.823859	1.959147	15.358798	19.805536	1.879507	2.642443	0.624563	4.151629	-0.265869	0.956543	-0.476074	0.215166	0.172457	0.021176	0.666593	-0.436877	-0.596248	-0.096340	-101.219742	-61.532358	55.437317
53690		21.035204	15.594018	1.929763	14.561787	19.136813	0.723904	2.295453	0.904098	4.184546	-0.245850	0.961670	-0.498047	0.207121	0.160068	0.020178	0.676098	-0.441229	-0.584987	-0.077449	-98.296268	-59.245200	53.582050
53691		18.491460	10.203707	1.542638	11.000487	14.902047	0.448494	1.846829	1.128549	4.034733	-0.223633	0.968750	-0.506836	0.182895	0.105599	0.015355	0.684851	-0.446314	-0.572783	-0.060848	-95.751675	-57.019622	51.826466
53692		13.278825	0.675796	0.261226	4.865061	6.376044	0.794185	1.887614	0.878014	3.965744	-0.203369	0.971436	-0.526611	0.132630	0.009368	0.002110	0.692586	-0.450919	-0.561322	-0.043757	-93.660865	-54.784481	50.601731
53693		13.859640	-1.581758	-2.303598	6.075362	3.826108	2.366111	1.409313	0.579752	3.704281	-0.190186	0.978516	-0.539795	0.138788	-0.013083	-0.023537	0.698053	-0.456285	-0.551114	-0.028263	-92.253930	-52.674683	49.851698
53694		16.033661	-1.389475	-3.078157	7.975633	4.721390	3.698637	1.104383	0.168657	3.241703	-0.181641	0.989746	-0.546387	0.160506	-0.011123	-0.030983	0.701364	-0.461360	-0.543170	-0.014232	-91.430352	-50.809677	49.602119
53695		15.101246	0.916052	-3.385581	9.305335	5.689237	1.204246	0.746644	-0.145708	3.021899	-0.170410	0.992188	-0.550781	0.150874	0.011567	-0.033706	0.702806	-0.466965	-0.536661	-0.001270	-91.060317	-49.071095	49.670064
53696		8.943251	-2.653124	-9.208936	9.502312	-2.968186	-1.285643	1.132091	-0.244351	2.708545	-0.161621	0.996826	-0.570557	0.089889	-0.024795	-0.092123	0.704703	-0.470292	-0.531109	0.011912	-90.551648	-47.505718	49.850576
53697		7.083983	15.246519	-6.269215	15.070827	8.206908	-15.050357	2.514509	0.085883	1.865304	-0.159180	0.997070	-0.601074	0.069383	0.153889	-0.060793	0.710624	-0.466394	-0.526183	0.024950	-89.067456	-46.432516	49.782212
53698		8.105485	23.039445	-2.240418	15.659999	15.976668	-19.863960	1.871356	-0.177872	0.112721	-0.182129	1.005615	-0.616699	0.080944	0.230636	-0.020175	0.714441	-0.460084	-0.526262	0.030744	-88.111658	-46.358859	49.935727
53699		-1.268602	12.226686	-1.368235	5.822659	5.613076	-19.169909	1.993335	-0.125629	-0.735547	-0.192871	0.999023	-0.636475	-0.012228	0.122441	-0.012470	0.718741	-0.451034	-0.528062	0.033611	-87.033574	-46.782627	50.013046
53700		-1.795768	9.305286	-0.433816	3.483242	4.393621	-17.465110	2.270923	-0.017112	-1.221410	-0.215088	0.994141	-0.656250	-0.017388	0.093201	-0.003282	0.723930	-0.439694	-0.530422	0.035310	-85.703531	-47.470145	49.966474
53701		-0.485249	8.840827	-0.703549	3.999277	4.826063	-16.105624	1.851062	-0.253635	-1.849511	-0.241699	0.987061	-0.678223	-0.004026	0.088508	-0.006222	0.727562	-0.428054	-0.535037	0.034032	-84.713038	-48.539374	50.049620
53702		0.322812	9.191011	-0.152777	4.014978	5.969092	-15.543845	1.306893	-0.433594	-2.583071	-0.270752	0.984375	-0.689209	0.004417	0.091866	-0.000919	0.729529	-0.416358	-0.541836	0.029113	-84.092783	-50.025135	50.212331
53703		1.629790	8.047404	1.264934	2.941862	6.837985	-13.500271	0.703757	-0.558793	-3.266820	-0.306396	0.972656	-0.687012	0.017573	0.080149	0.012980	0.729821	-0.404845	-0.550503	0.020204	-83.847892	-51.922655	50.404755
53704		3.505021	6.064209	2.236497	2.068072	7.022422	-10.494389	0.146267	-0.669745	-3.856756	-0.346436	0.963135	-0.691650	0.036135	0.059936	0.022529	0.728494	-0.393641	-0.560608	0.007942	-83.969229	-54.149295	50.654896
53705		5.660898	4.605793	2.066776	2.348451	6.873477	-7.630315	-0.193165	-0.717469	-4.391772	-0.395264	0.948730	-0.696045	0.057528	0.044821	0.020829	0.726067	-0.381949	-0.571742	-0.007259	-84.308336	-56.698284	50.920776
53706		6.838004	4.479369	1.830010	2.806676	7.052260	-6.270424	-0.266508	-0.696165	-4.860909	-0.439209	0.925781	-0.689453	0.069378	0.043140	0.018482	0.723147	-0.369024	-0.583344	-0.024279	-84.680076	-59.497407	51.172498
53707		6.944413	5.364596	1.871918	3.106867	7.621821	-6.242543	-0.345042	-0.688540	-5.304216	-0.487793	0.900391	-0.687256	0.070770	0.051813	0.018871	0.719568	-0.354790	-0.595376	-0.043271	-85.106648	-62.564760	51.422288
53708		7.517240	5.938594	2.004016	3.317763	8.160461	-5.550306	-0.571980	-0.691075	-5.701313	-0.542725	0.872803	-0.680664	0.076756	0.057270	0.020138	0.714943	-0.339975	-0.607580	-0.064187	-85.722346	-65.841128	51.736085
53709		8.957062	5.174898	1.750412	3.331325	7.649026	-3.453743	-0.783127	-0.674857	-6.062357	-0.595459	0.836182	-0.671875	0.091026	0.049073	0.017614	0.709247	-0.324448	-0.619762	-0.087162	-86.546124	-69.339542	52.129310
53710		10.389454	4.082641	1.589611	2.929691	6.746353	-1.268765	-0.857901	-0.619644	-6.392326	-0.643066	0.792969	-0.665283	0.105080	0.037549	0.016055	0.702763	-0.307883	-0.631606	-0.111385	-87.536637	-73.004011	52.650501
53711		11.749778	3.682951	1.305439	2.818197	6.099236	0.585805	-0.861109	-0.508914	-6.639218	-0.690674	0.745605	-0.662842	0.118601	0.032961	0.013208	0.695701	-0.290084	-0.642778	-0.136704	-88.648572	-76.823821	53.277788
53712		13.270032	3.294371	0.767041	2.786713	5.149848	2.563736	-0.882489	-0.375014	-6.870210	-0.736084	0.697998	-0.651855	0.133713	0.028396	0.007789	0.688094	-0.271259	-0.653034	-0.162760	-90.025420	-80.750854	54.159888
53713		14.974447	3.079629	0.588823	2.409199	4.347047	4.653392	-0.813874	-0.224426	-7.068125	-0.769531	0.635254	-0.653564	0.150702	0.025505	0.005946	0.680029	-0.251021	-0.662311	-0.189456	-92.111111	-84.807163	55.777518
53714		16.407923	3.198314	0.309310	2.127082	3.506254	6.392395	-0.651914	-0.109741	-7.245801	-0.807861	0.583496	-0.653564	0.165092	0.026023	0.003092	0.671533	-0.229289	-0.670701	-0.215940	-104.782910	-88.916229	68.080854
53715		17.989547	3.658918	-0.069548	1.968315	2.660547	8.240225	-0.493408	-0.037693	-7.449220	-0.834229	0.509766	-0.657471	0.181091	0.029856	-0.000741	0.662284	-0.205874	-0.678357	-0.242547	95.172762	-86.755152	-132.161123
53716		20.316788	3.750166	-0.290673	1.244597	1.334878	10.763569	-0.358528	-0.007118	-7.622293	-0.854004	0.442871	-0.650635	0.204400	0.029721	-0.002957	0.652172	-0.181177	-0.685279	-0.268774	92.109625	-82.406604	-129.298017
53717		22.555893	3.212972	-1.912734	1.020541	-1.626763	12.964636	-0.262579	-0.086367	-7.666802	-0.866943	0.371582	-0.658936	0.226577	0.023431	-0.019064	0.640801	-0.155776	-0.691634	-0.294534	91.446426	-78.004019	-128.792791
53718		24.576930	2.101831	-2.651197	-0.439718	-4.675658	14.541385	-0.473181	-0.308026	-7.584150	-0.873535	0.304932	-0.651855	0.246369	0.011620	-0.026168	0.627751	-0.131517	-0.697315	-0.319976	91.444384	-73.667143	-129.075644
53719		27.355902	-3.403610	-4.288976	-4.111411	-11.857921	15.096386	-0.980598	-0.700074	-7.243640	-0.884521	0.244873	-0.649414	0.272230	-0.044120	-0.041735	0.612595	-0.110401	-0.702219	-0.345583	91.734234	-69.497546	-129.987830
53720		29.960693	-12.897413	-3.358975	-12.217193	-20.120090	13.007849	-0.999464	-0.952710	-6.661010	-0.884521	0.187012	-0.637939	0.295241	-0.139018	-0.031498	0.596856	-0.091767	-0.706666	-0.368733	92.170116	-65.676116	-131.084070
53721		29.399212	-15.538407	2.171522	-18.989420	-19.172414	9.730819	-0.344865	-0.782154	-6.038022	-0.887207	0.140381	-0.633301	0.289036	-0.164122	0.023130	0.582336	-0.073222	-0.710813	-0.387644	92.609902	-62.206296	-131.841074
53722		24.818236	-15.737909	0.701250	-17.394595	-19.168775	4.111726	-1.185771	-0.993096	-5.277105	-0.883545	0.102783	-0.626465	0.243874	-0.163802	0.009189	0.567950	-0.059924	-0.713056	-0.406684	92.693264	-59.171133	-132.721717
53723		20.870069	-20.803901	-2.136236	-17.400589	-22.908449	-3.091177	-2.306511	-1.199820	-4.094039	-0.880127	0.071533	-0.617676	0.204495	-0.212472	-0.017694	0.554430	-0.054444	-0.712774	-0.426143	92.304828	-56.800311	-133.843253
53724		20.129524	-29.000453	-3.913049	-21.081463	-28.576652	-9.247521	-2.654435	-1.122974	-2.706333	-0.881592	0.053711	-0.610840	0.197543	-0.293170	-0.034137	0.543859	-0.054645	-0.710814	-0.442690	91.656912	-55.239946	-134.902339
53725		19.062140	-33.278010	-5.105617	-22.926487	-30.965976	-13.312882	-2.155685	-0.940347	-1.350749	-0.876953	0.044922	-0.606445	0.188592	-0.334576	-0.046566	0.536894	-0.057881	-0.708879	-0.453746	91.155163	-54.460274	-135.810114
53726		16.782580	-32.888620	-5.102062	-22.343866	-29.338786	-15.225967	-1.445823	-0.769446	-0.039842	-0.875000	0.051758	-0.602051	0.167949	-0.329274	-0.047995	0.533671	-0.063470	-0.707635	-0.458716	90.941029	-54.441001	-136.571544
53727		17.065771	-30.739872	-4.237687	-22.227345	-27.311467	-13.573379	-0.918285	-0.544787	1.096062	-0.877686	0.067139	-0.599854	0.172452	-0.306646	-0.040500	0.534004	-0.071154	-0.706591	-0.458809	90.867631	-55.078481	-137.130504
53728		19.232648	-26.222715	-2.021448	-22.231816	-23.793110	-8.713647	-0.509695	-0.369435	1.982993	-0.880859	0.087158	-0.602295	0.194950	-0.260353	-0.019191	0.537067	-0.080469	-0.705646	-0.455135	90.909180	-56.222861	-137.540893
53729		16.250497	-15.899429	-4.330478	-13.260041	-18.299174	-4.821942	-0.088376	-0.317331	2.481147	-0.877197	0.107178	-0.602295	0.164529	-0.156981	-0.042975	0.541612	-0.090289	-0.705220	-0.448518	91.175689	-57.661681	-137.918016
53730		12.404632	14.972335	1.305246	3.479966	5.404139	8.583388	1.189172	0.423713	2.435975	-0.879883	0.122559	-0.604736	0.122240	0.151139	0.013688	0.549083	-0.094804	-0.705553	-0.437853	91.514870	-59.074310	-137.522301
53731		12.249997	38.368283	9.776003	12.299287	25.965892	20.057465	0.419705	0.482955	1.654665	-0.873779	0.140381	-0.609131	0.119558	0.384474	0.098275	0.554694	-0.098531	-0.704311	-0.431918	91.322598	-60.050700	-137.016331
53732		13.892073	13.358278	9.305433	-3.013429	10.170391	8.774301	-2.193959	-0.379583	1.934444	-0.872559	0.162598	-0.600586	0.137438	0.135929	0.091834	0.556419	-0.112341	-0.699575	-0.434019	90.481399	-61.167103	-137.499655
53733		21.560793	-11.788738	3.410836	-17.491962	-11.265250	3.697843	-2.403399	-0.561114	2.991845	-0.871582	0.193848	-0.600830	0.217236	-0.114220	0.036104	0.559576	-0.130804	-0.694074	-0.433621	89.710139	-62.899956	-138.187073
53734		20.923532	-3.221666	-2.114346	-7.702667	-9.580855	7.550384	-1.443942	-0.693386	3.428262	-0.879395	0.222412	-0.594482	0.209819	-0.028771	-0.020201	0.563582	-0.148324	-0.690492	-0.428480	89.670653	-64.878029	-139.070252
53735		14.400286	1.810976	-4.302498	-0.469818	-6.034984	4.061855	-1.533091	-1.096547	3.227496	-0.878174	0.249023	-0.583496	0.143923	0.020106	-0.042385	0.565595	-0.166186	-0.687745	-0.423664	90.177520	-66.749069	-140.582974
53736		10.637527	-8.312780	-5.983238	-5.388883	-11.998395	-3.102037	-2.050434	-1.424282	3.332160	-0.875000	0.282227	-0.561768	0.108166	-0.081938	-0.058222	0.565951	-0.186526	-0.684485	-0.419986	91.042834	-68.661396	-142.793399
53737		14.581162	-10.184557	-2.458350	-10.123836	-10.796469	0.350056	-1.517451	-1.245455	3.569059	-0.878662	0.315430	-0.553223	0.147746	-0.099398	-0.022907	0.567796	-0.205635	-0.681323	-0.413666	92.250474	-70.705866	-144.994035
53738		10.020266	0.510987	-0.521634	-1.924140	-1.883536	-0.133890	-1.008947	-1.177918	3.282382	-0.872803	0.339600	-0.531494	0.100130	0.006729	-0.004658	0.569461	-0.222186	-0.679063	-0.406475	94.014911	-72.558773	-147.467536
53739		4.985600	-1.081340	-0.749116	-1.624099	-1.961676	-5.329498	-1.617501	-1.276103	2.599059	-0.869385	0.364014	-0.522705	0.050037	-0.010222	-0.007088	0.568725	-0.238122	-0.676411	-0.402886	95.927842	-73.998897	-150.407473
53740		9.838534	-6.399975	-1.750255	-6.334141	-6.241795	-1.955853	-1.241213	-1.066408	2.301490	-0.863281	0.381836	-0.511963	0.099204	-0.062966	-0.016582	0.568237	-0.251661	-0.674103	-0.399198	98.011574	-75.245363	-153.311412
53741		13.572515	-3.140755	-0.768653	-5.062214	-3.811689	2.617310	-0.310608	-0.728630	2.165464	-0.864014	0.399658	-0.507568	0.136081	-0.029947	-0.007144	0.569921	-0.261113	-0.672786	-0.392899	100.216890	-76.421995	-155.730731
53742		11.325914	-1.676476	-1.009788	-3.125261	-2.771410	0.894964	0.284399	-0.556976	2.002020	-0.858154	0.421875	-0.503418	0.113447	-0.015616	-0.009805	0.572335	-0.268218	-0.672247	-0.385456	102.728921	-77.493909	-158.147270
53743		9.289014	-0.292032	-0.400166	-1.819530	-1.179943	-0.766931	0.499291	-0.514186	1.787105	-0.849609	0.433105	-0.492432	0.092921	-0.002081	-0.003769	0.574991	-0.273498	-0.672276	-0.377662	105.476751	-78.431419	-160.612181
53744		10.206460	-0.998158	-0.829829	-2.209822	-1.860524	0.061998	0.401501	-0.495292	1.589701	-0.845947	0.448730	-0.496826	0.102160	-0.009153	-0.008064	0.576869	-0.278714	-0.672225	-0.371018	108.450048	-79.230592	-163.413649
53745		10.547946	-0.690201	-0.070827	-2.352716	-0.956077	0.448360	0.494272	-0.462142	1.438441	-0.846680	0.468506	-0.483887	0.105527	-0.006142	-0.000480	0.578936	-0.282716	-0.672475	-0.364257	111.581567	-79.932161	-166.258992
53746		9.769437	0.672734	0.596090	-1.427552	0.523798	-0.120623	0.356235	-0.512720	1.230007	-0.840332	0.477539	-0.483887	0.097635	0.007317	0.006224	0.579953	-0.286849	-0.672818	-0.358732	114.995015	-80.473429	-169.521089
53747		10.364433	0.959227	0.097966	-0.944580	0.375855	0.546677	0.245839	-0.541120	1.044674	-0.833740	0.484375	-0.475098	0.103589	0.010132	0.001272	0.580587	-0.290442	-0.673331	-0.353819	118.459262	-80.888446	-172.847303
53748		10.950405	1.539903	-0.321864	-0.277356	0.473447	1.236473	0.175004	-0.580912	0.926447	-0.838867	0.495361	-0.466553	0.109440	0.015909	-0.002887	0.580525	-0.294178	-0.673936	-0.349657	122.124002	-81.188048	-176.461093
53749		10.490751	0.159372	-0.736821	-1.032278	-0.557060	0.639457	0.065027	-0.580933	0.808335	-0.837158	0.508545	-0.457764	0.104921	0.002020	-0.007063	0.580284	-0.297591	-0.674546	-0.345973	125.678185	-81.406713	-179.982018
53750		10.567071	-1.140719	-0.649974	-2.102553	-1.149569	0.562460	0.200275	-0.499219	0.761493	-0.831055	0.526367	-0.455811	0.105729	-0.010998	-0.006247	0.580218	-0.300540	-0.675165	-0.342308	129.139439	-81.587565	176.629007
53751		10.323675	-0.466214	-1.101551	-1.224288	-1.037979	0.455326	0.416744	-0.422423	0.710968	-0.831055	0.528564	-0.444824	0.103275	-0.004272	-0.010807	0.580802	-0.302402	-0.676020	-0.337962	132.522313	-81.757004	173.479030
53752		10.046455	0.152522	-2.229639	0.006084	-1.511006	0.367785	0.541162	-0.356414	0.649056	-0.827148	0.541992	-0.442627	0.100498	0.001911	-0.022112	0.581514	-0.303725	-0.676946	-0.333672	135.716378	-81.888749	170.560122
53753		10.087983	1.012832	-1.506642	0.305984	-0.344321	0.426968	0.503612	-0.280609	0.595819	-0.825439	0.552979	-0.438232	0.100870	0.010466	-0.014899	0.582449	-0.304776	-0.677668	-0.329592	138.671288	-82.020381	167.885509
53754		9.908266	0.318283	-1.121824	-0.415931	-0.393306	0.147509	0.388299	-0.248612	0.532013	-0.823486	0.562012	-0.431641	0.099088	0.003468	-0.011089	0.583078	-0.305958	-0.678182	-0.326312	141.295066	-82.113187	165.455720
53755		9.955752	-0.063491	-1.150031	-0.676922	-0.589615	0.169171	0.308182	-0.202823	0.464551	-0.819580	0.575195	-0.427490	0.099570	-0.000386	-0.011400	0.583698	-0.307097	-0.678519	-0.323419	143.689501	-82.197818	163.223436
53756		9.883316	0.658704	-0.860269	-0.238633	0.118375	0.126264	0.310532	-0.161598	0.418453	-0.819580	0.577393	-0.427490	0.098826	0.006807	-0.008512	0.584308	-0.307972	-0.678812	-0.320861	145.767791	-82.265684	161.300176
53757		9.827469	1.195752	-0.852222	0.216190	0.490085	0.109418	0.250795	-0.144302	0.381621	-0.808838	0.586426	-0.418701	0.098258	0.012156	-0.008436	0.584855	-0.308980	-0.678986	-0.318518	147.809462	-82.327974	159.381684
53758		10.007653	0.991011	-0.935890	0.103912	0.347104	0.280859	0.179297	-0.162390	0.374493	-0.807129	0.602051	-0.418701	0.100065	0.010106	-0.009269	0.585182	-0.310086	-0.679131	-0.316528	149.713554	-82.363935	157.558839
53759		10.202353	0.275785	-1.218988	-0.292361	-0.257887	0.458527	0.159680	-0.183760	0.386013	-0.801025	0.617676	-0.410156	0.102029	0.002964	-0.012094	0.585413	-0.311519	-0.679241	-0.314451	151.875920	-82.387970	155.455724
53760		10.235205	0.316605	-1.011656	-0.364634	-0.022677	0.470766	0.171184	-0.207170	0.435772	-0.792480	0.628906	-0.412354	0.102355	0.003398	-0.010008	0.585664	-0.312924	-0.679400	-0.312236	154.123242	-82.398969	153.282115
53761		10.145719	0.455876	-0.943800	-0.256372	0.163348	0.382485	0.188254	-0.219600	0.476349	-0.788574	0.642334	-0.401367	0.101456	0.004809	-0.009322	0.585901	-0.314736	-0.679483	-0.309781	156.762636	-82.401002	150.701090
53762		10.013226	1.006600	-1.199357	0.375903	0.341296	0.309481	0.244220	-0.233639	0.508690	-0.777832	0.657959	-0.401367	0.100120	0.010335	-0.011864	0.586281	-0.316210	-0.679707	-0.307057	159.383688	-82.388041	148.192660
53763		9.622946	1.721710	-1.314390	1.084611	0.720629	-0.035317	0.263786	-0.260378	0.533963	-0.767090	0.669189	-0.397217	0.096200	0.017491	-0.012996	0.586533	-0.318139	-0.679897	-0.304148	162.354368	-82.344715	145.309253
53764		9.912068	1.684568	-1.671801	1.268559	0.500099	0.287908	0.241457	-0.297208	0.585764	-0.751709	0.676270	-0.390625	0.099095	0.017156	-0.016550	0.586798	-0.319974	-0.680164	-0.301101	165.313542	-82.275794	142.457544
53765		10.248510	1.268956	-1.593850	0.894686	0.407700	0.589972	0.234612	-0.317018	0.685121	-0.748047	0.693848	-0.381836	0.102466	0.013059	-0.015761	0.587006	-0.322613	-0.680202	-0.297776	168.837494	-82.178866	138.992422
53766		10.330049	1.807329	-1.793483	1.473971	0.667818	0.702712	0.265255	-0.324878	0.772617	-0.725830	0.703125	-0.379639	0.103259	0.018496	-0.017743	0.587476	-0.325044	-0.680262	-0.294045	172.446179	-82.066936	135.497516
53767		10.197449	1.999189	-1.946892	1.783301	0.743341	0.581613	0.271884	-0.344121	0.884147	-0.712891	0.714600	-0.377441	0.101918	0.020469	-0.019266	0.587901	-0.328321	-0.680064	-0.289985	176.589487	-81.905107	131.419451
53768		10.462008	1.807496	-1.869715	1.617970	0.808557	0.814813	0.288840	-0.355359	0.980933	-0.695557	0.732666	-0.377441	0.104563	0.018615	-0.018485	0.588582	-0.331419	-0.679871	-0.285497	-179.232027	-81.712545	127.359838
53769		11.270666	1.203812	-1.819632	1.115976	0.677666	1.592655	0.354624	-0.330592	1.138895	-0.682617	0.743896	-0.370850	0.112665	0.012712	-0.017988	0.589709	-0.334863	-0.679399	-0.280227	-174.509299	-81.482488	122.793819
53770		11.742044	1.051112	-1.352823	0.767137	1.127061	1.974995	0.363432	-0.280756	1.350869	-0.665283	0.761963	-0.375488	0.117365	0.011328	-0.013343	0.591242	-0.338866	-0.678421	-0.274497	-169.343986	-81.210527	117.774442
53771		11.641874	1.818986	-1.014332	1.289049	1.989257	1.773894	0.397928	-0.236720	1.588373	-0.643311	0.778076	-0.373291	0.116281	0.019134	-0.009968	0.593318	-0.343539	-0.676900	-0.267883	-163.553311	-80.855348	112.145403
53772		11.721210	2.383115	-0.796396	1.733337	2.666928	1.744955	0.396575	-0.187771	1.829411	-0.616943	0.793945	-0.377686	0.116995	0.024918	-0.007805	0.595786	-0.348891	-0.674779	-0.260744	-157.497070	-80.397978	106.232376
53773		11.510921	2.543600	-0.879065	2.085597	2.830160	1.473561	0.335408	-0.170684	2.052194	-0.601807	0.807617	-0.375488	0.114847	0.026630	-0.008649	0.598478	-0.355165	-0.672053	-0.253034	-151.349140	-79.787178	100.188645
53774		11.882092	1.585648	-1.150755	1.682759	2.265540	1.894232	0.300580	-0.154066	2.261880	-0.577881	0.823730	-0.377686	0.118640	0.017216	-0.011391	0.601313	-0.362137	-0.668797	-0.244928	-145.477358	-79.024295	94.385208
53775		12.356906	0.546063	-1.040786	1.014242	1.990524	2.396973	0.354919	-0.115831	2.452219	-0.553711	0.841797	-0.377686	0.123496	0.006994	-0.010325	0.604559	-0.369526	-0.665031	-0.235992	-139.862192	-78.100780	88.865584
53776		12.680309	0.619238	-1.005525	1.292873	2.336390	2.639022	0.468695	-0.065729	2.616518	-0.520508	0.855957	-0.386475	0.126711	0.007874	-0.009996	0.608234	-0.376953	-0.660852	-0.226344	-134.683060	-77.045456	83.832193
53777		13.319047	0.740420	-0.947462	1.638055	2.820932	3.156134	0.598944	-0.002841	2.765068	-0.498779	0.869629	-0.382080	0.133071	0.009273	-0.009447	0.612450	-0.384371	-0.656202	-0.215783	-129.865391	-75.851102	79.231042
53778		14.439681	0.803867	-0.983786	2.072924	3.342799	4.138351	0.707763	0.101015	2.944664	-0.472412	0.887939	-0.397461	0.144252	0.010198	-0.009877	0.617240	-0.391810	-0.650883	-0.204574	-125.373416	-74.538654	74.999265
53779		16.140837	1.052136	-1.085217	2.818859	4.133039	5.606799	0.764171	0.160624	3.178337	-0.447998	0.899414	-0.399658	0.161205	0.013126	-0.010935	0.622450	-0.399712	-0.644794	-0.192426	-121.197278	-73.044797	71.107257
53780		18.461487	2.019443	-1.096496	4.226913	5.672092	7.392919	0.907150	0.275821	3.412204	-0.416992	0.908936	-0.415039	0.184219	0.023390	-0.011118	0.628326	-0.407658	-0.637849	-0.179362	-117.261924	-71.403871	67.515445
53781		20.453314	5.097881	-1.760199	7.729695	7.995422	8.178901	1.143675	0.385714	3.665756	-0.386230	0.925293	-0.419434	0.203518	0.054816	-0.017689	0.635071	-0.415461	-0.630008	-0.164821	-113.483255	-69.578934	64.202160
53782		21.736293	8.409434	-2.210824	11.210317	10.473402	7.868822	1.386930	0.381607	3.894217	-0.359375	0.932373	-0.443359	0.215627	0.088457	-0.021917	0.642212	-0.423015	-0.621676	-0.148801	-110.060381	-67.575788	61.373865
53783		23.473978	9.111705	-1.347082	12.009601	12.587624	8.438228	1.981038	0.383236	4.022064	-0.330566	0.944336	-0.463135	0.232817	0.095942	-0.012984	0.650426	-0.428880	-0.613193	-0.130393	-106.763556	-65.439011	59.015596
53784		24.225761	14.004492	0.013028	15.102456	17.309556	6.162004	2.744911	0.478150	4.140211	-0.308594	0.958008	-0.480713	0.239292	0.145005	0.001523	0.660256	-0.432295	-0.604321	-0.109453	-103.361034	-63.207469	56.980167
53785		22.469958	17.060266	0.923902	16.333492	19.683981	2.122093	2.851692	0.565841	4.221653	-0.281494	0.956543	-0.502686	0.221064	0.175146	0.011086	0.670217	-0.435286	-0.594633	-0.088013	-100.197162	-60.890182	55.245054
53786		20.863814	15.558756	1.766944	14.497000	19.174738	0.314651	2.478809	0.821556	4.277325	-0.255127	0.972656	-0.524658	0.205326	0.159774	0.018785	0.679703	-0.439290	-0.583440	-0.068023	-97.346051	-58.527890	53.582531
53787		18.113612	10.253033	1.223769	11.063559	14.767840	-0.108069	1.796424	0.972282	3.993971	-0.241699	0.977539	-0.539795	0.179102	0.106010	0.012305	0.687662	-0.444476	-0.571779	-0.051295	-95.064885	-56.302605	52.091350
53788		13.141713	0.756137	-0.463196	5.427456	6.017558	0.570005	1.667372	0.641879	3.834727	-0.217285	0.984619	-0.559570	0.131224	0.010119	-0.004976	0.694005	-0.449532	-0.561314	-0.034707	-93.356152	-54.126581	51.167951
53789		13.945839	-0.505201	-2.677370	7.019030	4.433134	1.718386	1.661975	0.363785	3.574601	-0.201660	0.985107	-0.570557	0.139467	-0.002335	-0.027054	0.699233	-0.453716	-0.552154	-0.018437	-92.001747	-52.082780	50.658384
53790		15.484148	-0.055655	-2.569567	8.078647	5.794911	2.332142	1.387047	-0.000538	3.103603	-0.195068	0.991943	-0.583740	0.154823	0.002024	-0.025687	0.702534	-0.457458	-0.545129	-0.003699	-91.153949	-50.293515	50.583625
53791		15.691915	-0.030288	-1.899466	7.905970	6.648358	2.150619	1.271134	-0.217797	2.910773	-0.183838	0.994385	-0.588135	0.156921	0.002101	-0.018816	0.704796	-0.460937	-0.539157	0.010490	-90.546563	-48.618189	50.734937
53792		8.942311	-6.217579	-8.999985	7.837167	-4.602095	1.004214	1.818439	-0.378535	2.642245	-0.170410	0.999268	-0.620850	0.090398	-0.060165	-0.090383	0.707703	-0.461658	-0.534202	0.025629	-89.747536	-47.092096	51.055467
53793		9.150150	11.861882	-7.148543	14.796127	7.346934	-11.424026	3.346146	-0.123822	1.894073	-0.172852	1.003906	-0.649414	0.090409	0.120652	-0.069422	0.714698	-0.454839	-0.529719	0.041544	-87.934346	-46.003826	51.189695
53794		7.284045	26.272298	-3.919292	17.125697	17.143901	-22.904775	2.663794	-0.499210	-0.177476	-0.192871	0.996826	-0.665039	0.073166	0.263147	-0.035508	0.719370	-0.444791	-0.531274	0.049154	-86.707609	-46.107222	51.598384
53795		-4.341589	17.851641	-1.360658	6.341476	7.710282	-25.295181	1.845000	-0.612713	-1.089436	-0.215088	0.994385	-0.687012	-0.042404	0.178865	-0.012089	0.722039	-0.435138	-0.535413	0.051461	-85.984784	-46.751799	52.048516
53796		-3.655475	10.963062	0.274639	2.515700	5.045907	-19.903860	1.563009	-0.539252	-1.679370	-0.239746	0.993896	-0.697998	-0.035641	0.109907	0.003508	0.724343	-0.424918	-0.540546	0.050809	-85.352268	-47.723124	52.399643
53797		0.129680	7.976811	0.377261	2.816100	5.406866	-14.972212	1.148020	-0.738917	-2.261522	-0.272949	0.979980	-0.711182	0.002183	0.079723	0.004237	0.725266	-0.414474	-0.547694	0.047239	-85.055790	-49.050600	52.871198
53798		2.016829	7.352118	0.592618	3.129273	6.228659	-12.955846	0.960841	-0.812001	-2.846069	-0.299316	0.970703	-0.715576	0.021186	0.073195	0.006363	0.725586	-0.403043	-0.556217	0.041283	-84.894674	-50.704340	53.373583
53799		3.670701	7.428323	2.130934	2.465524	8.037503	-11.396256	0.676786	-0.815228	-3.454772	-0.339355	0.956787	-0.722168	0.037894	0.073562	0.021712	0.725246	-0.390795	-0.565915	0.032208	-84.881525	-52.719656	53.838952
53800		5.361353	6.449761	3.294716	1.651643	8.829160	-9.100031	0.206421	-0.838341	-4.004039	-0.379150	0.940430	-0.717773	0.054751	0.063375	0.033241	0.723740	-0.378592	-0.576602	0.019960	-85.155533	-55.035433	54.318017
53801		6.711763	5.522202	3.776128	1.242691	8.995791	-7.106825	-0.194465	-0.813902	-4.509910	-0.421387	0.928467	-0.720215	0.068186	0.053729	0.037985	0.721257	-0.366158	-0.587960	0.004539	-85.662915	-57.652165	54.781533
53802		7.745076	5.329351	3.806584	1.351011	9.198871	-5.760815	-0.502956	-0.760597	-5.010757	-0.474609	0.909668	-0.713623	0.078610	0.051430	0.038232	0.717954	-0.353200	-0.599673	-0.013563	-86.353725	-60.535025	55.244470
53803		8.045982	5.943723	3.685711	1.694903	9.543846	-5.377508	-0.756018	-0.697295	-5.468476	-0.525146	0.879883	-0.707031	0.081918	0.057350	0.036922	0.713852	-0.339469	-0.611554	-0.034317	-87.216236	-63.690981	55.717610
53804		8.649286	5.917209	3.310541	2.022354	9.322936	-4.358480	-1.027305	-0.630057	-5.886369	-0.568848	0.847900	-0.687256	0.088083	0.056765	0.033086	0.708829	-0.325190	-0.623318	-0.057329	-88.316255	-67.063587	56.273977
53805		10.126182	4.935347	2.784561	2.121638	8.429903	-2.128320	-1.185066	-0.505967	-6.223986	-0.621094	0.806885	-0.685059	0.102665	0.046338	0.027824	0.703157	-0.310011	-0.634574	-0.082340	-89.581884	-70.641350	56.889524
53806		10.981296	4.457110	2.547826	1.968135	7.725289	-0.683242	-1.252497	-0.363839	-6.526591	-0.666748	0.766113	-0.673828	0.111146	0.041117	0.025415	0.696970	-0.293787	-0.645080	-0.108597	-91.037233	-74.368019	57.656851
53807		11.962953	4.248208	1.967425	2.152009	6.919151	0.792290	-1.357607	-0.242384	-6.830501	-0.711914	0.716309	-0.665039	0.120966	0.038498	0.019550	0.690034	-0.276474	-0.654819	-0.136483	-92.950072	-78.282979	58.810273
53808		13.678794	3.696487	1.351060	2.118928	5.749491	3.031417	-1.397150	-0.069258	-7.093858	-0.752441	0.659912	-0.660400	0.137981	0.032178	0.013322	0.682577	-0.258041	-0.663461	-0.165297	-95.812752	-82.321395	60.895376
53809		15.298915	2.899502	0.666561	1.803624	4.060920	5.122431	-1.261280	0.125071	-7.297801	-0.795166	0.599365	-0.653564	0.153916	0.023430	0.006410	0.674831	-0.237888	-0.670935	-0.194573	-102.675057	-86.475502	67.045535
53810		16.748694	2.694279	-0.154117	1.758234	2.518381	6.867639	-0.975738	0.274423	-7.475210	-0.822021	0.543213	-0.657715	0.168335	0.020652	-0.001883	0.666839	-0.215776	-0.677454	-0.223208	126.916540	-88.950030	-163.085827
53811		18.591414	3.247938	-0.857255	1.889501	1.399974	8.928091	-0.645620	0.399725	-7.697043	-0.841553	0.469727	-0.657227	0.186962	0.025268	-0.009035	0.658368	-0.191281	-0.683175	-0.251465	94.136919	-84.723494	-130.665556
53812		20.903123	3.469030	-1.334213	1.418726	-0.177654	11.364583	-0.409761	0.436930	-7.868171	-0.856934	0.398438	-0.656982	0.210149	0.026408	-0.013860	0.649072	-0.165167	-0.688198	-0.278942	90.605865	-80.239277	-127.348664
53813		23.351500	2.484788	-3.515606	1.349285	-4.057916	13.537919	-0.303342	0.267892	-7.872213	-0.867432	0.327148	-0.660889	0.234203	0.015583	-0.035498	0.638212	-0.138594	-0.692846	-0.305680	89.649052	-75.718954	-126.564519
53814		25.536746	1.122050	-5.007511	0.316630	-7.964530	14.978379	-0.428842	-0.079785	-7.684156	-0.869385	0.260742	-0.660400	0.255564	0.001295	-0.049983	0.625439	-0.113474	-0.697243	-0.331364	89.650560	-71.328280	-126.827728
53815		28.422784	-4.350875	-6.390317	-3.525608	-15.119612	15.211339	-0.803457	-0.552636	-7.300737	-0.876465	0.209473	-0.655762	0.282556	-0.054099	-0.062918	0.610320	-0.091805	-0.701308	-0.356719	90.077147	-67.152525	-127.834335
53816		31.357914	-14.757675	-2.825338	-14.134312	-22.622494	12.482580	-0.402717	-0.660152	-6.693856	-0.880859	0.149414	-0.646484	0.308497	-0.158015	-0.026918	0.595559	-0.070797	-0.705266	-0.378018	90.615880	-63.326558	-128.687107
53817		29.414298	-17.001537	0.143247	-18.160010	-22.529596	7.979428	-0.106864	-0.740323	-5.953164	-0.872314	0.103027	-0.646240	0.288902	-0.178666	0.002602	0.581212	-0.051848	-0.709070	-0.395884	91.250132	-59.916042	-129.524017
53818		24.409522	-20.688577	-2.384633	-17.302758	-25.084240	0.222178	-0.944850	-1.096540	-4.930011	-0.877686	0.067383	-0.628418	0.239018	-0.212925	-0.021530	0.567157	-0.039376	-0.711419	-0.413117	91.617211	-57.088018	-130.595389
53819		21.782880	-26.218205	-4.353253	-18.399917	-28.804087	-6.283075	-1.477342	-1.185054	-3.413704	-0.870117	0.042969	-0.630615	0.213554	-0.266157	-0.040302	0.555442	-0.034011	-0.712250	-0.427817	91.694803	-55.117663	-131.728719
53820		19.794104	-32.304687	-5.655350	-20.425499	-32.307344	-12.328127	-1.538530	-1.076190	-1.988149	-0.867188	0.029785	-0.614990	0.195006	-0.325412	-0.053002	0.547073	-0.033608	-0.712207	-0.438570	91.630609	-53.972689	-132.738517
53821		17.601470	-33.481917	-5.706701	-20.644568	-31.736512	-15.288220	-1.217263	-0.886632	-0.614603	-0.876465	0.031738	-0.608398	0.175229	-0.335694	-0.054248	0.542357	-0.036809	-0.712026	-0.444424	91.610468	-53.616242	-133.588220
53822		16.181091	-31.722697	-4.702874	-20.292075	-29.104261	-15.418676	-1.040791	-0.716856	0.589448	-0.867920	0.042969	-0.608643	0.162909	-0.316985	-0.044796	0.540940	-0.043427	-0.711517	-0.446365	91.585754	-53.953982	-134.303214
53823		17.665933	-28.736755	-2.959346	-20.904536	-26.540614	-12.093430	-0.855042	-0.563766	1.727768	-0.875488	0.064941	-0.610840	0.179214	-0.285948	-0.027866	0.542626	-0.053281	-0.710710	-0.444533	91.586083	-54.951865	-134.911184
53824		18.768491	-23.755072	-1.524326	-19.851557	-22.806042	-7.662284	-0.710041	-0.509683	2.644742	-0.871826	0.089355	-0.602295	0.190841	-0.235092	-0.013922	0.546480	-0.065838	-0.709724	-0.439678	91.668821	-56.469893	-135.510053
53825		14.556241	-5.777395	-1.741156	-7.752385	-10.226188	-0.669101	-0.282230	-0.451795	2.621431	-0.872559	0.109375	-0.608887	0.146342	-0.055883	-0.017002	0.550572	-0.077067	-0.709400	-0.433225	91.986353	-57.986690	-136.082465
53826		7.490644	31.905032	4.755803	12.598465	20.298839	13.118910	0.154665	0.067893	2.020371	-0.868408	0.118408	-0.609131	0.071695	0.319749	0.047780	0.555247	-0.083761	-0.708715	-0.427093	92.077414	-59.156504	-136.091475
53827		8.349497	38.617553	12.350016	11.364564	29.617564	16.779497	-1.508708	0.038711	1.253222	-0.871338	0.133789	-0.611328	0.081093	0.387606	0.120564	0.557480	-0.092443	-0.704810	-0.428852	91.211492	-59.896715	-136.090339
53828		14.929669	3.991390	11.881516	-11.099819	5.881214	5.092343	-3.544502	-0.527611	1.829658	-0.872559	0.166992	-0.604980	0.148598	0.043377	0.118459	0.557818	-0.109987	-0.697672	-0.435885	89.727028	-60.954119	-136.724652
53829		24.703104	-14.656328	2.235207	-19.636915	-14.948539	5.049597	-2.896897	-0.549677	2.934778	-0.866699	0.187256	-0.598389	0.249076	-0.142568	0.025119	0.560658	-0.129600	-0.691092	-0.437331	88.603673	-62.658928	-137.336272
53830		24.354715	-3.641322	-4.408585	-7.598552	-12.736592	10.332723	-1.360387	-0.722339	3.249116	-0.867920	0.215820	-0.589844	0.244256	-0.032744	-0.042973	0.564319	-0.146302	-0.687901	-0.432357	88.563457	-64.541933	-138.167391
53831		15.859530	-0.861608	-4.122625	-2.914033	-7.994626	4.217233	-1.302203	-1.127922	3.042663	-0.871338	0.244629	-0.581299	0.158934	-0.006464	-0.040284	0.566094	-0.162939	-0.685900	-0.427234	89.146464	-66.318874	-139.623564
53832		13.612439	-12.013441	-7.056627	-8.246815	-15.777438	-1.911122	-1.772147	-1.409108	3.419947	-0.865723	0.275635	-0.566162	0.138647	-0.118391	-0.068541	0.567027	-0.182762	-0.683146	-0.422364	90.027827	-68.296076	-141.684915
53833		16.370503	-7.288351	-0.151041	-9.853481	-7.846769	2.932292	-0.756637	-1.042341	3.598956	-0.864746	0.306641	-0.555420	0.164985	-0.069925	-0.000384	0.570426	-0.199383	-0.681062	-0.413540	91.227899	-70.372445	-143.415017
53834		8.149277	-0.950233	1.088391	-3.500711	-1.210511	-2.411918	-0.430765	-1.029832	3.204010	-0.858887	0.326660	-0.544434	0.081573	-0.008172	0.011322	0.573051	-0.213725	-0.679787	-0.404752	92.920292	-72.197504	-145.467759
53835		5.184076	-3.382377	-1.357847	-3.022986	-3.885856	-5.822960	-0.860005	-1.024045	2.553627	-0.862061	0.348877	-0.538086	0.052336	-0.033215	-0.013168	0.573960	-0.226847	-0.678162	-0.399007	94.627543	-73.638350	-147.742438
53836		10.366344	-2.481974	-0.805617	-3.833628	-3.545278	-0.485341	-0.435925	-0.711508	2.226792	-0.864990	0.368652	-0.527344	0.103959	-0.023680	-0.007634	0.575472	-0.237154	-0.676729	-0.393227	96.253186	-74.881389	-149.696245
53837		11.258584	-2.191137	-1.221290	-3.438104	-3.648399	0.575390	-0.007561	-0.546920	2.014348	-0.859131	0.386475	-0.527344	0.112832	-0.020776	-0.011904	0.577779	-0.244902	-0.675856	-0.386540	97.966854	-76.005598	-151.434632
53838		10.594959	-1.519258	-0.719422	-2.937036	-2.617259	0.167237	0.533606	-0.346026	1.926109	-0.853027	0.402100	-0.522949	0.106102	-0.014152	-0.007049	0.580971	-0.250627	-0.675461	-0.378696	99.814880	-77.076565	-153.025786
53839		9.377014	0.200628	-0.948392	-1.089938	-1.536438	-0.575959	0.587453	-0.301756	1.700188	-0.853516	0.417725	-0.520996	0.093763	0.002831	-0.009335	0.584141	-0.255019	-0.675296	-0.371106	101.705894	-78.018471	-154.574152
53840		10.236766	0.088390	-1.044443	-1.168392	-1.632709	0.279724	0.541077	-0.289780	1.577871	-0.852051	0.435547	-0.518799	0.102371	0.001720	-0.010292	0.586773	-0.259397	-0.675078	-0.364255	103.801942	-78.874573	-156.402413
53841		9.856357	1.739548	-0.130176	-0.264013	0.238129	0.190434	0.406422	-0.339393	1.450440	-0.850098	0.446533	-0.518799	0.098436	0.018112	-0.001098	0.589002	-0.263567	-0.674912	-0.357915	106.135959	-79.646603	-158.503805
53842		9.347867	2.153149	-0.250618	0.296183	0.538908	-0.236567	0.013397	-0.433706	1.204792	-0.843750	0.455566	-0.514648	0.093352	0.022094	-0.002302	0.589711	-0.268466	-0.674579	-0.353709	108.671125	-80.241611	-161.076009
53843		9.603882	1.884163	-0.186977	0.067235	0.511821	-0.037609	-0.402945	-0.569005	0.985628	-0.846436	0.466553	-0.499268	0.095949	0.019311	-0.001635	0.589194	-0.273855	-0.674209	-0.351136	111.407390	-80.680333	-164.049570
53844		10.507124	1.042911	-0.650454	-0.412463	-0.306524	0.753553	-0.650335	-0.641557	0.842823	-0.835693	0.475586	-0.490479	0.105046	0.010851	-0.006202	0.587619	-0.279835	-0.673756	-0.349926	114.333213	-80.992461	-167.395929
53845		10.414941	1.122646	-0.671504	-0.293409	-0.178164	0.678439	-0.703996	-0.625242	0.707443	-0.833984	0.490967	-0.481934	0.104129	0.011572	-0.006430	0.585942	-0.285298	-0.673356	-0.349098	117.138110	-81.222491	-170.613343
53846		10.123395	0.429497	-0.248217	-1.026994	-0.155466	0.269461	-0.611377	-0.564631	0.658892	-0.836426	0.490967	-0.473145	0.101226	0.004621	-0.002210	0.584320	-0.290391	-0.672959	-0.348382	119.872433	-81.409153	-173.739019
53847		10.308726	-0.156218	-0.522961	-1.338426	-0.642784	0.403114	-0.412566	-0.522940	0.634188	-0.839111	0.504150	-0.462158	0.103105	-0.001246	-0.004957	0.583239	-0.294571	-0.672836	-0.346917	122.650880	-81.584348	-176.758473
53848		10.783054	-0.594605	-1.009583	-1.455259	-1.214956	0.866852	-0.165197	-0.480591	0.630313	-0.832764	0.515381	-0.455566	0.107872	-0.005614	-0.009832	0.582477	-0.298106	-0.672981	-0.344890	125.544701	-81.737554	-179.784164
53849		10.709926	-0.445062	-1.274150	-1.141084	-1.262974	0.846878	0.179906	-0.390407	0.631834	-0.835693	0.528564	-0.442627	0.107137	-0.004101	-0.012536	0.582677	-0.300350	-0.673472	-0.341633	128.478911	-81.911569	177.380468
53850		10.073723	0.358465	-0.877268	-0.602816	-0.402868	0.279480	0.398750	-0.316987	0.623654	-0.826904	0.537598	-0.440430	0.100739	0.003916	-0.008605	0.583278	-0.301929	-0.674099	-0.337960	131.388136	-82.076607	174.668043
53851		9.908774	0.479005	-0.543506	-0.641707	0.000700	0.101771	0.450254	-0.269561	0.586080	-0.827148	0.544189	-0.442627	0.099080	0.005092	-0.005290	0.584145	-0.303115	-0.674727	-0.334125	134.253450	-82.236191	172.049553
53852		9.886341	1.054982	-0.574737	-0.128530	0.375845	0.138440	0.480516	-0.240896	0.539039	-0.827637	0.550781	-0.431641	0.098841	0.010830	-0.005603	0.584965	-0.304032	-0.675376	-0.330528	136.941983	-82.360349	169.609083
53853		9.581283	1.598158	-1.168039	0.723891	0.275496	-0.059781	0.412998	-0.241199	0.492245	-0.817139	0.568604	-0.429688	0.095787	0.016241	-0.011532	0.585674	-0.305001	-0.675973	-0.327140	139.610962	-82.461020	167.163252
53854		9.817895	1.829144	-1.057120	0.837373	0.565828	0.178943	0.289614	-0.253648	0.496806	-0.817383	0.577637	-0.429688	0.098146	0.018550	-0.010420	0.586075	-0.306347	-0.676394	-0.324284	142.224055	-82.533384	164.689679
53855		9.837894	1.815775	-1.050691	0.848221	0.622226	0.191222	0.216084	-0.260076	0.503698	-0.818115	0.595215	-0.416504	0.098346	0.018417	-0.010359	0.586377	-0.308050	-0.676674	-0.321526	145.017228	-82.597154	161.994262
53856		9.906366	1.391292	-1.121177	0.571468	0.369160	0.230501	0.129507	-0.277649	0.532745	-0.809326	0.602051	-0.409912	0.099042	0.014184	-0.011065	0.586497	-0.310019	-0.676837	-0.319063	147.812274	-82.638177	159.245396
53857		10.013698	0.515192	-1.228546	-0.041790	-0.177687	0.287570	0.080925	-0.301485	0.589431	-0.801025	0.615479	-0.412354	0.100140	0.005452	-0.012132	0.586526	-0.312564	-0.676856	-0.316476	151.051563	-82.668827	156.010821
53858		9.963174	0.189603	-1.340697	-0.195677	-0.401895	0.232113	0.052757	-0.324134	0.645219	-0.790039	0.624512	-0.405762	0.099646	0.002221	-0.013245	0.586534	-0.315205	-0.676842	-0.313862	154.382332	-82.676694	152.677832
53859		9.828990	0.569267	-1.446426	0.221958	-0.193071	0.134083	0.070320	-0.318017	0.702478	-0.786133	0.640137	-0.401367	0.098292	0.006043	-0.014306	0.586637	-0.318211	-0.676685	-0.310960	158.128998	-82.674889	148.921710
53860		9.874810	0.895884	-1.657753	0.643615	-0.089901	0.219249	0.110736	-0.308328	0.756829	-0.775391	0.651367	-0.396973	0.098739	0.009342	-0.016420	0.586946	-0.321025	-0.676516	-0.307838	161.914476	-82.659000	145.163719
53861		9.868823	1.028831	-1.762689	0.860701	-0.015218	0.228106	0.151122	-0.307385	0.812790	-0.767334	0.671387	-0.381836	0.098672	0.010703	-0.017467	0.587339	-0.324184	-0.676239	-0.304367	166.119356	-82.614684	140.985697
53862		10.044772	1.535545	-1.569655	1.183007	0.537350	0.386828	0.194681	-0.296867	0.875566	-0.747559	0.682861	-0.381836	0.100402	0.015810	-0.015532	0.587980	-0.327122	-0.675943	-0.300618	170.356457	-82.550687	136.820070
53863		10.267355	1.376841	-1.451385	1.025829	0.643934	0.577349	0.206898	-0.309152	0.958190	-0.741455	0.700684	-0.377441	0.102628	0.014275	-0.014341	0.588614	-0.330665	-0.675465	-0.296550	175.054614	-82.433664	132.165688
53864		10.569538	1.464988	-1.314610	1.055198	0.928066	0.846279	0.232836	-0.293734	1.062163	-0.719727	0.716553	-0.377441	0.105635	0.015226	-0.012973	0.589574	-0.334098	-0.674871	-0.292112	179.861104	-82.290806	127.445532
53865		10.791132	1.462813	-1.396817	1.168156	0.991362	1.058858	0.279798	-0.269453	1.193525	-0.708740	0.725830	-0.375244	0.107840	0.015291	-0.013802	0.590759	-0.338159	-0.673931	-0.287174	-174.801912	-82.089004	122.181229
53866		11.305136	1.364196	-1.617467	1.282623	0.931388	1.578914	0.331560	-0.250214	1.338961	-0.689209	0.746094	-0.375488	0.112977	0.014425	-0.016010	0.592386	-0.342143	-0.672829	-0.281636	-169.294997	-81.836908	116.806337
53867		11.879684	1.104003	-1.272948	0.952907	1.247596	2.082630	0.313557	-0.226395	1.541268	-0.665283	0.761963	-0.371094	0.118721	0.011975	-0.012577	0.594355	-0.346855	-0.671234	-0.275461	-163.302764	-81.490955	110.934243
53868		11.710987	0.984825	-1.166876	0.945894	1.378544	1.878325	0.327112	-0.211990	1.778284	-0.648193	0.782227	-0.368896	0.117028	0.010908	-0.011527	0.596635	-0.352229	-0.669165	-0.268663	-157.084720	-81.024840	104.827618
53869		11.529257	1.496491	-1.037948	1.443485	1.919470	1.609569	0.307076	-0.192044	1.989264	-0.624023	0.796143	-0.366699	0.115146	0.016126	-0.010245	0.599213	-0.358353	-0.666563	-0.261192	-150.808530	-80.409505	98.648807
53870		11.636763	0.986313	-0.916050	1.143362	1.887976	1.691611	0.298494	-0.173642	2.185852	-0.597656	0.812256	-0.373291	0.116258	0.011148	-0.009044	0.601984	-0.365048	-0.663477	-0.253284	-144.860882	-79.649566	92.778565
53871		11.948289	0.789159	-1.114654	1.312082	1.851697	1.997037	0.375543	-0.133682	2.360897	-0.577881	0.823730	-0.373291	0.119386	0.009322	-0.011050	0.605205	-0.372035	-0.659946	-0.244516	-139.214007	-78.737401	87.250885
53872		12.762464	0.477175	-1.620576	1.620630	1.628036	2.854136	0.496198	-0.075681	2.522486	-0.551514	0.844238	-0.379883	0.127557	0.006421	-0.016143	0.608907	-0.379018	-0.655996	-0.235046	-134.006193	-77.702511	82.216441
53873		13.357261	0.405782	-1.712278	1.911533	1.859161	3.393034	0.698172	-0.011014	2.687036	-0.527588	0.862305	-0.379883	0.133502	0.005912	-0.017097	0.613320	-0.385821	-0.651640	-0.224381	-129.104908	-76.524320	77.600623
53874		14.765669	0.293509	-1.581254	2.128889	2.453693	4.680167	0.923435	0.071565	2.858151	-0.499268	0.883057	-0.395264	0.147588	0.005118	-0.015845	0.618464	-0.392275	-0.646830	-0.212681	-124.528642	-75.226458	73.422280
53875		16.791575	1.155845	-1.018121	2.968911	4.174657	6.251671	1.094278	0.210573	3.099958	-0.474609	0.887939	-0.404053	0.167698	0.014215	-0.010285	0.624523	-0.398775	-0.641118	-0.199793	-120.078443	-73.766604	69.456018
53876		18.893030	1.860711	-0.891200	4.095270	5.564057	7.891488	1.297398	0.347700	3.358844	-0.446045	0.906250	-0.415039	0.188566	0.021835	-0.009105	0.631467	-0.405175	-0.634487	-0.185766	-115.811603	-72.147789	65.765761
53877		21.057299	3.754090	-0.645327	6.175471	7.872238	9.101810	1.542811	0.440360	3.665839	-0.406250	0.920410	-0.428223	0.209823	0.041442	-0.006606	0.639280	-0.411572	-0.626917	-0.170015	-111.740392	-70.304532	62.400013
53878		22.393762	6.601836	-0.028703	8.652754	10.886457	8.938547	1.779774	0.437637	3.972120	-0.384033	0.932129	-0.450195	0.222567	0.070450	-0.000161	0.647523	-0.417959	-0.618669	-0.152557	-108.050467	-68.237566	59.540082
53879		23.865581	8.976657	1.214208	10.355724	14.202257	8.696426	2.189683	0.434248	4.124279	-0.343994	0.944092	-0.467529	0.236766	0.094526	0.012644	0.656413	-0.423300	-0.610084	-0.133179	-104.647073	-66.019478	57.207165
53880		24.068131	12.629957	2.214711	12.684130	17.749627	6.547598	2.804954	0.489129	4.162148	-0.322021	0.960205	-0.498291	0.238044	0.130950	0.023378	0.666385	-0.426424	-0.601306	-0.111911	-101.318176	-63.746603	55.300455
53881		23.253644	15.715878	3.252746	14.047764	20.618018	3.444398	3.173767	0.715777	4.238692	-0.299805	0.962891	-0.520264	0.229265	0.161507	0.034243	0.677434	-0.428143	-0.591387	-0.089650	-97.937107	-61.404231	53.537335
53882		21.400532	17.497580	2.628258	15.214891	21.059880	-0.018031	3.028517	1.117757	4.291796	-0.277344	0.965820	-0.544434	0.210344	0.179103	0.027792	0.688878	-0.430012	-0.579524	-0.068471	-94.626013	-59.018043	51.716232
53883		17.429947	15.758346	0.385929	14.681572	17.206356	-3.441669	2.021830	1.275574	4.197710	-0.250977	0.981934	-0.559814	0.170969	0.161153	0.004379	0.698150	-0.434733	-0.566577	-0.050837	-92.085209	-56.648371	50.078361
53884		14.149588	6.949846	-1.596638	10.243498	9.265974	-2.051256	0.354620	0.908796	3.870741	-0.237793	0.990967	-0.562012	0.140041	0.072247	-0.016478	0.702314	-0.444232	-0.554934	-0.038233	-91.043025	-54.433850	49.054683
53885		13.086153	-1.300186	-2.621614	6.373698	3.341988	1.501088	-0.347434	0.362679	3.423216	-0.217773	0.993652	-0.561768	0.131011	-0.010806	-0.026434	0.703087	-0.454884	-0.545864	-0.027964	-90.919197	-52.468652	48.645981
53886		15.397833	-3.625992	-3.288832	6.855139	2.881101	4.531039	0.364266	0.021694	3.124901	-0.206787	1.002686	-0.563965	0.154516	-0.033788	-0.032968	0.704296	-0.462160	-0.538629	-0.015975	-90.671202	-50.666876	48.589161
53887		17.419435	-1.912527	-2.603380	8.393567	5.609673	4.745055	0.654180	-0.071206	2.951723	-0.193115	1.000732	-0.574951	0.174460	-0.016467	-0.026028	0.705756	-0.467823	-0.532012	-0.003648	-90.330827	-48.968985	48.626701
53888		11.774798	-6.084129	-6.387657	6.969572	-1.718326	3.029505	0.975124	-0.282577	2.731337	-0.188965	1.007568	-0.592529	0.118652	-0.058913	-0.064000	0.707228	-0.471689	-0.526546	0.009301	-89.956253	-47.391983	48.866759
53889		7.661430	5.580233	-8.393187	12.444764	1.618037	-8.147281	2.855649	0.030414	2.364071	-0.179688	1.005859	-0.621094	0.075926	0.057893	-0.083127	0.713790	-0.467798	-0.520613	0.025103	-88.328232	-46.032298	48.869384
53890		6.628477	22.827403	-4.044496	16.213308	13.893755	-21.012933	2.596004	-0.164460	0.205142	-0.195557	1.007813	-0.640869	0.066082	0.228841	-0.037423	0.719314	-0.459092	-0.520317	0.033032	-86.951158	-45.907184	49.015539
53891		-1.768193	18.425520	-1.872359	8.501955	8.678523	-23.902421	1.802911	-0.358791	-0.879077	-0.215576	1.003174	-0.658447	-0.016840	0.184489	-0.017092	0.722599	-0.450295	-0.523292	0.035359	-86.107267	-46.420347	49.267198
53892		-3.790869	11.301140	-0.771827	3.636755	4.347316	-20.327072	1.558316	-0.342340	-1.407570	-0.235352	0.993896	-0.680420	-0.037100	0.113330	-0.006900	0.725387	-0.440983	-0.527362	0.035177	-85.367408	-47.227698	49.469811
53893		-1.343321	7.503513	-0.060701	2.568137	3.906747	-15.833532	1.176065	-0.530381	-1.913479	-0.268555	0.984375	-0.682617	-0.012714	0.075161	-0.000200	0.726841	-0.431602	-0.533262	0.032467	-84.932872	-48.345576	49.781837
53894		0.572579	5.630331	-0.169888	2.711992	3.759444	-13.063389	0.965579	-0.685932	-2.485404	-0.288818	0.986328	-0.693604	0.006430	0.056234	-0.001406	0.727398	-0.421402	-0.540882	0.027544	-84.691357	-49.787895	50.187516
53895		1.910111	6.408310	1.101931	2.560682	5.756645	-12.308548	0.803734	-0.711100	-3.128522	-0.330811	0.969971	-0.707031	0.020060	0.063729	0.011346	0.727470	-0.409915	-0.549878	0.019787	-84.528891	-51.611421	50.561447
53896		3.172677	6.623994	2.354469	2.119521	7.293920	-11.149485	0.472859	-0.746220	-3.727077	-0.368652	0.958252	-0.704834	0.032864	0.065578	0.023821	0.726593	-0.397889	-0.560057	0.009114	-84.559496	-53.766461	50.933943
53897		4.616490	5.573606	2.829091	1.786130	7.524641	-9.062308	0.086111	-0.791818	-4.255813	-0.410400	0.937500	-0.707031	0.047224	0.054726	0.028500	0.724542	-0.385579	-0.571268	-0.004592	-84.841871	-56.238285	51.327485
53898		6.104088	4.365575	2.659704	1.830218	7.165604	-6.865347	-0.147900	-0.759034	-4.728429	-0.454834	0.923340	-0.700439	0.061949	0.042218	0.026799	0.721746	-0.372609	-0.582940	-0.020624	-85.250959	-58.963491	51.705291
53899		6.768516	4.269475	2.595697	1.936247	7.202080	-5.920823	-0.246521	-0.691158	-5.147605	-0.500977	0.895752	-0.700439	0.068664	0.040968	0.026142	0.718470	-0.358488	-0.594803	-0.038697	-85.685214	-61.938167	52.030470
53900		7.189045	4.733132	2.507895	2.215427	7.482604	-5.401438	-0.377831	-0.655138	-5.563623	-0.549316	0.865967	-0.689453	0.073088	0.045357	0.025230	0.714464	-0.343381	-0.606796	-0.058563	-86.212760	-65.132974	52.371889
53901		8.354425	4.742735	2.372042	2.456318	7.570589	-3.935292	-0.530900	-0.616582	-5.934936	-0.595215	0.831787	-0.691650	0.084830	0.044986	0.023859	0.709595	-0.327343	-0.618758	-0.080378	-86.868921	-68.553137	52.742560
53902		9.461194	4.419769	2.102601	2.518662	7.172228	-2.352736	-0.632978	-0.543024	-6.283182	-0.647461	0.792969	-0.682861	0.095882	0.041265	0.021152	0.703982	-0.310304	-0.630379	-0.103646	-87.631280	-72.152391	53.161053
53903		10.422241	4.276843	1.992614	2.405752	6.816481	-0.947639	-0.693307	-0.441914	-6.582041	-0.688232	0.743408	-0.676025	0.105512	0.039379	0.020018	0.697685	-0.292099	-0.641434	-0.128359	-88.471471	-75.936003	53.608845
53904		11.970675	4.046753	1.465530	2.553878	6.106825	1.047554	-0.816752	-0.342322	-6.850737	-0.727051	0.698242	-0.673584	0.120975	0.036398	0.014707	0.690573	-0.273127	-0.651704	-0.154249	-89.555075	-79.852409	54.232569
53905		13.947517	3.546937	0.916565	2.436612	4.988935	3.493035	-0.833672	-0.191787	-7.083542	-0.776123	0.635254	-0.666748	0.140606	0.030540	0.009166	0.682873	-0.252938	-0.660970	-0.181178	-90.928485	-83.917736	55.123353
53906		15.629802	3.325241	0.617588	2.063385	3.948167	5.542198	-0.680707	-0.026037	-7.256761	-0.796387	0.579346	-0.664307	0.157367	0.027575	0.006096	0.674898	-0.231243	-0.669160	-0.208003	-94.228163	-88.060258	58.032822
53907		17.573404	3.367536	0.142202	1.812362	2.764240	7.768892	-0.491502	0.089567	-7.435765	-0.827637	0.514404	-0.670654	0.176824	0.027117	0.001271	0.666388	-0.207808	-0.676463	-0.234821	92.211202	-87.663771	-128.697597
53908		20.546670	3.684711	0.020893	1.203146	1.677047	10.954524	-0.246066	0.190927	-7.530416	-0.847412	0.447510	-0.674805	0.206659	0.029080	-0.000027	0.657470	-0.182897	-0.682863	-0.260730	89.755670	-83.362418	-126.382900
53909		22.825056	2.999806	-1.198410	0.662610	-1.155496	13.195884	-0.233448	0.065546	-7.506598	-0.860840	0.385254	-0.672119	0.229157	0.021393	-0.012087	0.647185	-0.157859	-0.688708	-0.286205	89.540197	-79.052934	-126.314840
53910		24.308901	0.973916	-2.325849	-0.856756	-5.049086	14.078240	-0.548407	-0.225770	-7.439285	-0.874023	0.318359	-0.667480	0.243251	0.000628	-0.022994	0.634893	-0.134340	-0.694030	-0.311747	89.879781	-74.802848	-126.991102
53911		26.597460	-4.313407	-3.023967	-4.919121	-11.365432	14.301196	-1.036530	-0.581753	-7.182671	-0.878418	0.258301	-0.664795	0.264280	-0.052800	-0.029212	0.620513	-0.113565	-0.698605	-0.337666	90.327552	-70.679082	-128.096135
53912		29.359250	-11.184594	0.312755	-13.282761	-16.344046	13.494503	-0.768688	-0.553293	-6.700737	-0.880615	0.202881	-0.660156	0.289616	-0.121580	0.004387	0.606496	-0.093523	-0.702415	-0.360597	90.621621	-66.848909	-128.889500
53913		28.273494	-11.946322	0.766888	-14.871848	-17.206231	10.807260	-0.758138	-0.580075	-5.977136	-0.878662	0.151855	-0.655273	0.278973	-0.127807	0.008956	0.592904	-0.076133	-0.705277	-0.381120	90.822781	-63.425701	-129.629924
53914		24.242905	-15.252095	-1.520146	-14.670231	-20.112942	4.425057	-1.492010	-0.844188	-5.097331	-0.881836	0.116211	-0.639893	0.238494	-0.158736	-0.013020	0.579457	-0.064269	-0.706609	-0.401003	90.797748	-60.510159	-130.575887
53915		20.640847	-20.508157	-2.636283	-16.336867	-23.084046	-2.487020	-2.067407	-0.979070	-3.955445	-0.876465	0.091797	-0.637451	0.202415	-0.209362	-0.023216	0.567204	-0.058367	-0.706368	-0.419426	90.514197	-58.241028	-131.642346
53916		17.991989	-25.658195	-3.887004	-18.007371	-25.902273	-8.449656	-2.190853	-0.924042	-2.811277	-0.880127	0.071777	-0.630615	0.176454	-0.259478	-0.035217	0.557337	-0.056685	-0.705080	-0.434769	90.073248	-56.639219	-132.614748
53917		16.720012	-28.120808	-5.608735	-18.240107	-27.674253	-11.592482	-1.845118	-0.822031	-1.671645	-0.875244	0.062988	-0.628418	0.165061	-0.283091	-0.052800	0.550241	-0.057820	-0.703749	-0.445679	89.716513	-55.690059	-133.469127
53918		16.057013	-28.104437	-5.594011	-18.444013	-27.047921	-12.493636	-1.256304	-0.690690	-0.519951	-0.877441	0.058350	-0.624023	0.160026	-0.281803	-0.053618	0.546302	-0.061089	-0.702963	-0.451292	89.573953	-55.406272	-134.175524
53919		16.570983	-26.595139	-4.153917	-19.094955	-25.151612	-11.200220	-0.631124	-0.493527	0.544172	-0.875488	0.069580	-0.619629	0.166533	-0.265627	-0.040290	0.545642	-0.065949	-0.702692	-0.451829	89.618405	-55.733906	-134.673338
53920		17.446773	-23.678849	-2.251500	-19.221242	-22.338657	-8.524459	-0.229084	-0.350402	1.414715	-0.874023	0.087402	-0.619873	0.176176	-0.235572	-0.021937	0.547546	-0.072439	-0.702627	-0.448622	89.777887	-56.557196	-135.029743
53921		15.928812	-19.852527	-3.507241	-15.513920	-20.311800	-7.190840	0.001680	-0.341280	2.131012	-0.879395	0.109375	-0.619873	0.161451	-0.196812	-0.034800	0.551173	-0.080807	-0.702733	-0.442544	90.078076	-57.798135	-135.387103
53922		15.932763	-4.029533	-0.151654	-8.255953	-8.368292	1.672493	0.250016	-0.036091	2.548035	-0.875488	0.125000	-0.628906	0.159824	-0.038259	-0.001536	0.556768	-0.089249	-0.702279	-0.434567	90.260443	-59.269635	-135.439103
53923		13.213308	28.229510	8.282190	6.634424	18.498698	15.757634	1.134562	0.749707	2.178676	-0.880615	0.142822	-0.633301	0.129364	0.283240	0.083939	0.564693	-0.092225	-0.701606	-0.424693	90.176407	-60.542372	-134.588135
53924		12.647943	31.431780	10.778714	7.374510	22.749606	16.495910	-0.984196	0.036779	1.623872	-0.874512	0.158447	-0.631348	0.123939	0.315856	0.106212	0.567817	-0.100723	-0.698613	-0.423531	89.569257	-61.484391	-134.544708
53925		17.924837	-4.091325	5.226101	-12.153780	-4.698336	4.170493	-2.900926	-0.629151	2.386075	-0.873535	0.191650	-0.627197	0.179547	-0.038003	0.053391	0.569181	-0.118733	-0.692897	-0.426415	88.542837	-62.876549	-135.266172
53926		22.317004	-14.459243	-2.545604	-14.846386	-17.533061	3.814543	-1.752740	-0.493803	3.372950	-0.874756	0.222656	-0.618408	0.225628	-0.141014	-0.023655	0.573540	-0.136541	-0.688413	-0.422488	87.993985	-64.828483	-135.779362
53927		20.431352	-2.748356	-4.754238	-4.719388	-11.004959	7.628018	-0.877333	-0.608032	3.302292	-0.868896	0.244873	-0.618652	0.204875	-0.024310	-0.046809	0.577839	-0.151794	-0.685908	-0.415440	88.115733	-66.752999	-136.461692
53928		14.071102	-4.591756	-2.512239	-5.434480	-8.322261	1.437954	-0.920937	-0.812286	3.318190	-0.876953	0.273438	-0.605713	0.141548	-0.043687	-0.024344	0.581178	-0.167601	-0.683691	-0.408300	88.589044	-68.678567	-137.549022
53929		14.882934	-10.431695	-0.289619	-11.054948	-10.061538	0.527644	-0.566985	-0.706774	3.553742	-0.871338	0.302490	-0.599365	0.150660	-0.101657	-0.002075	0.585575	-0.182864	-0.681462	-0.399090	89.245764	-70.743512	-138.584712
