// General information: 
//  MT Manager version: 2019.2.0 
//  XDA version: 2019.2.0 build 3853 rev 94535 built on 2019-09-09
// Device information: 
//  DeviceId: 00B40AC5
//  ProductCode: MTW2-3A7G6
//  Firmware Version: 4.3.5
//  Hardware Version: 1.1.0
// Device settings: 
//  Filter Profile: human(46.1)
//  Option Flags: Orientation Smoother Disabled, AHS Disabled, ICC Disabled
// Coordinate system: ENU
PacketCounter	SampleTimeFine	Acc_X	Acc_Y	Acc_Z	FreeAcc_E	FreeAcc_N	FreeAcc_U	Gyr_X	Gyr_Y	Gyr_Z	Mag_X	Mag_Y	Mag_Z	VelInc_X	VelInc_Y	VelInc_Z	Quat_q0	Quat_q1	Quat_q2	Quat_q3	Roll	Pitch	Yaw
27954		4.420389	0.036623	9.186060	-0.080524	-0.006405	0.381347	0.004366	0.013084	-0.007158	-0.031494	0.012451	-1.085205	0.044210	0.000363	0.091858	-0.953862	-0.046343	0.221272	-0.197581	0.062033	-26.131848	23.390920
27955		4.442624	0.036583	9.180490	-0.059809	0.002352	0.386139	0.007899	0.016376	-0.007505	-0.027100	0.012451	-1.080566	0.044434	0.000361	0.091801	-0.953869	-0.046352	0.221258	-0.197560	0.064056	-26.130499	23.387854
27956		4.440362	0.071100	9.173263	-0.072412	0.034543	0.378691	0.005827	0.016015	-0.005814	-0.031494	0.014648	-1.080811	0.044411	0.000707	0.091729	-0.953869	-0.046345	0.221257	-0.197566	0.063080	-26.130173	23.388769
27957		4.439789	0.038496	9.181854	-0.062271	0.003163	0.386124	0.008720	0.013245	-0.008590	-0.035889	0.008057	-1.080566	0.044404	0.000379	0.091816	-0.953863	-0.046374	0.221202	-0.197649	0.065572	-26.124561	23.397806
27958		4.442509	0.060405	9.194725	-0.073953	0.021717	0.398902	0.008932	0.015266	-0.007782	-0.033691	0.012451	-1.085205	0.044432	0.000598	0.091944	-0.953863	-0.046384	0.221201	-0.197648	0.066931	-26.124653	23.397477
27959		4.451213	0.065549	9.136491	-0.044787	0.039515	0.350457	0.007682	0.011772	-0.007173	-0.035889	0.012451	-1.082764	0.044518	0.000650	0.091362	-0.953844	-0.046425	0.221181	-0.197752	0.069342	-26.123405	23.409277
27960		4.427171	0.033962	9.151235	-0.058122	-0.000844	0.353075	0.007472	0.014921	-0.010279	-0.031494	0.012451	-1.085205	0.044279	0.000334	0.091509	-0.953846	-0.046432	0.221182	-0.197738	0.070567	-26.123690	23.407361
27961		4.448484	0.067806	9.137803	-0.047961	0.039973	0.350440	0.008931	0.017852	-0.008935	-0.035889	0.012451	-1.089600	0.044493	0.000672	0.091374	-0.953852	-0.046451	0.221146	-0.197746	0.073557	-26.119980	23.407402
27962		4.460568	0.064173	9.191174	-0.057816	0.031260	0.403679	0.011001	0.015629	-0.009481	-0.029297	0.012451	-1.085205	0.044613	0.000635	0.091908	-0.953853	-0.046473	0.221141	-0.197740	0.076581	-26.119857	23.405998
27963		4.450260	0.057326	9.159456	-0.049964	0.026906	0.370658	0.003328	0.016782	-0.008049	-0.035889	0.010254	-1.080566	0.044510	0.000570	0.091591	-0.953854	-0.046470	0.221100	-0.197782	0.076116	-26.115186	23.410898
27964		4.448644	0.058178	9.160236	-0.051783	0.027149	0.370648	0.008104	0.018401	-0.006712	-0.033691	0.010254	-1.089355	0.044495	0.000577	0.091598	-0.953856	-0.046473	0.221085	-0.197786	0.076702	-26.113472	23.411269
27965		4.451739	0.046278	9.181257	-0.052048	0.013698	0.390876	0.005820	0.018602	-0.006979	-0.036133	0.014648	-1.083008	0.044526	0.000459	0.091808	-0.953846	-0.046497	0.221036	-0.197884	0.077970	-26.108442	23.422445
27966		4.450171	0.047185	9.182013	-0.053869	0.013941	0.390866	0.006644	0.015470	-0.008060	-0.035889	0.005859	-1.084961	0.044509	0.000467	0.091817	-0.953847	-0.046497	0.221036	-0.197880	0.078102	-26.108403	23.421959
27967		4.435042	0.053012	9.130115	-0.047273	0.022955	0.337615	0.004362	0.018256	-0.009478	-0.036133	0.014648	-1.087402	0.044359	0.000526	0.091297	-0.953845	-0.046509	0.221007	-0.197919	0.079205	-26.105382	23.426205
27968		4.461003	0.073854	9.136970	-0.036683	0.050179	0.355221	0.007469	0.017508	-0.011443	-0.035889	0.010254	-1.084961	0.044618	0.000733	0.091366	-0.953852	-0.046515	0.220996	-0.197900	0.080759	-26.104172	23.423563
27969		4.440527	0.062823	9.164143	-0.059970	0.027871	0.370601	0.005200	0.018588	-0.002800	-0.027100	0.014893	-1.083008	0.044414	0.000625	0.091637	-0.953863	-0.046495	0.220993	-0.197853	0.079825	-26.103343	23.418036
27970		4.438817	0.063666	9.164965	-0.061788	0.028114	0.370590	0.006432	0.018619	-0.011176	-0.031738	0.016846	-1.091797	0.044397	0.000631	0.091646	-0.953871	-0.046494	0.220977	-0.197835	0.080708	-26.101500	23.415560
27971		4.412664	0.099041	9.163980	-0.096036	0.051844	0.358254	0.006444	0.019500	-0.002267	-0.031494	0.012451	-1.085205	0.044136	0.000987	0.091636	-0.953887	-0.046469	0.220927	-0.197817	0.079444	-26.095211	23.413475
27972		4.450972	0.022685	9.136033	-0.022649	0.000902	0.349903	0.001459	0.018442	-0.005568	-0.031494	0.012451	-1.082764	0.044518	0.000225	0.091356	-0.953890	-0.046438	0.220919	-0.197820	0.075903	-26.093469	23.414582
27973		4.424900	0.057747	9.135005	-0.056717	0.024523	0.337563	0.006023	0.018042	-0.005035	-0.035889	0.008057	-1.082764	0.044257	0.000574	0.091346	-0.953885	-0.046448	0.220863	-0.197902	0.076156	-26.087285	23.424021
27974		4.455669	0.065584	9.162074	-0.045255	0.038127	0.375413	0.005603	0.016583	-0.007802	-0.031494	0.012451	-1.082764	0.044564	0.000652	0.091617	-0.953887	-0.046442	0.220858	-0.197898	0.075620	-26.086600	23.423709
27975		4.431354	0.033731	9.176923	-0.057779	-0.002257	0.378024	0.005812	0.016020	-0.005845	-0.033936	0.016846	-1.083008	0.044321	0.000333	0.091766	-0.953870	-0.046470	0.220814	-0.198023	0.076607	-26.082208	23.438258
27976		4.410354	0.056152	9.195937	-0.091806	0.007596	0.385899	0.005811	0.013436	-0.004693	-0.038330	0.014648	-1.080811	0.044110	0.000558	0.091956	-0.953866	-0.046465	0.220825	-0.198034	0.075321	-26.083324	23.439934
27977		4.451295	0.067917	9.164183	-0.050771	0.038468	0.375386	0.004774	0.019717	-0.006732	-0.033691	0.012451	-1.089600	0.044522	0.000675	0.091637	-0.953915	-0.046400	0.220863	-0.197769	0.074190	-26.086183	23.408501
27978		4.440966	0.060606	9.132508	-0.043545	0.034030	0.342385	0.002282	0.015310	-0.006654	-0.040527	0.014648	-1.087402	0.044417	0.000604	0.091322	-0.953915	-0.046378	0.220868	-0.197767	0.071427	-26.086234	23.408911
27979		4.448307	0.069218	9.165624	-0.054921	0.038587	0.375364	0.008509	0.014696	-0.001664	-0.038330	0.016846	-1.085205	0.044490	0.000688	0.091653	-0.953933	-0.046359	0.220907	-0.197645	0.071741	-26.090220	23.394337
27980		4.419171	0.050020	9.160267	-0.069112	0.011848	0.357719	0.002699	0.019355	-0.005046	-0.040283	0.005615	-1.084961	0.044201	0.000498	0.091598	-0.953936	-0.046333	0.220893	-0.197652	0.068761	-26.087964	23.395765
27981		4.445044	0.070372	9.167198	-0.059105	0.038574	0.375341	0.003944	0.017681	-0.003357	-0.033936	0.014648	-1.085205	0.044459	0.000701	0.091668	-0.953946	-0.046312	0.220921	-0.197578	0.067591	-26.090665	23.387237
27982		4.429361	0.046182	9.214516	-0.081510	0.002897	0.410913	0.003526	0.016222	-0.006123	-0.033691	0.010254	-1.080566	0.044301	0.000459	0.092142	-0.953946	-0.046294	0.220920	-0.197580	0.065386	-26.090212	23.387964
27983		4.446672	0.058782	9.188929	-0.061525	0.025367	0.395561	0.004562	0.017696	-0.007548	-0.038330	0.012451	-1.085205	0.044475	0.000584	0.091885	-0.953951	-0.046290	0.220894	-0.197585	0.065496	-26.087142	23.388470
27984		4.449877	0.046606	9.209899	-0.062501	0.011989	0.415791	0.003733	0.015660	-0.004166	-0.031494	0.014648	-1.080811	0.044506	0.000463	0.092096	-0.953949	-0.046272	0.220897	-0.197597	0.062862	-26.087011	23.390447
27985		4.453831	0.064010	9.131604	-0.034711	0.043276	0.347225	0.004769	0.017134	-0.005591	-0.033691	0.012451	-1.087402	0.044546	0.000637	0.091312	-0.953965	-0.046249	0.220901	-0.197520	0.062176	-26.086863	23.381415
27986		4.453115	0.031050	9.140345	-0.025757	0.011587	0.354727	0.005185	0.016009	-0.001672	-0.033936	0.014648	-1.087402	0.044538	0.000308	0.091400	-0.953961	-0.046234	0.220901	-0.197545	0.059673	-26.086536	23.384978
27987		4.440590	0.061257	9.191853	-0.068673	0.026079	0.395514	0.003316	0.016785	-0.008091	-0.031494	0.012451	-1.085205	0.044414	0.000609	0.091915	-0.953974	-0.046214	0.220890	-0.197498	0.058913	-26.084822	23.379418
27988		4.430484	0.053956	9.160083	-0.061394	0.021635	0.362527	0.004768	0.014550	-0.004439	-0.033691	0.012451	-1.078369	0.044312	0.000536	0.091598	-0.953971	-0.046202	0.220897	-0.197509	0.056947	-26.085330	23.381214
27989		4.433759	0.041804	9.181020	-0.061746	0.008284	0.382763	0.004767	0.017135	-0.005596	-0.036133	0.014648	-1.083008	0.044345	0.000415	0.091806	-0.953968	-0.046206	0.220859	-0.197566	0.056698	-26.080983	23.387930
27990		4.459856	0.062342	9.187868	-0.051228	0.035515	0.400403	0.004767	0.014550	-0.004441	-0.033691	0.012451	-1.087402	0.044605	0.000620	0.091875	-0.953964	-0.046194	0.220865	-0.197577	0.054734	-26.081487	23.389730
27991		4.426069	0.056001	9.162205	-0.066240	0.022217	0.362496	0.004351	0.018260	-0.009521	-0.031494	0.014648	-1.085205	0.044269	0.000556	0.091618	-0.953984	-0.046174	0.220860	-0.197494	0.054947	-26.080430	23.379663
27992		4.429215	0.043999	9.183203	-0.067238	0.008840	0.382728	0.005802	0.016025	-0.005868	-0.036133	0.014648	-1.085205	0.044300	0.000436	0.091828	-0.953983	-0.046167	0.220859	-0.197500	0.053975	-26.080091	23.380550
27993		4.427690	0.044738	9.183935	-0.069062	0.008979	0.382716	0.004764	0.017136	-0.005603	-0.036133	0.014648	-1.083008	0.044285	0.000444	0.091836	-0.954003	-0.046137	0.220859	-0.197410	0.053006	-26.079404	23.369901
27994		4.402600	0.046280	9.190697	-0.093165	0.000551	0.377762	0.004764	0.014551	-0.004446	-0.031494	0.010254	-1.091553	0.044033	0.000460	0.091904	-0.954000	-0.046125	0.220866	-0.197421	0.051039	-26.079912	23.371689
27995		4.443890	0.058096	9.158933	-0.050784	0.031707	0.367391	0.006633	0.012892	-0.006941	-0.031494	0.014648	-1.087402	0.044445	0.000576	0.091586	-0.953995	-0.046141	0.220856	-0.197451	0.052258	-26.079137	23.375057
27996		4.442782	0.059031	9.159464	-0.052604	0.031952	0.367381	0.007877	0.011219	-0.005247	-0.033691	0.010254	-1.082764	0.044433	0.000586	0.091592	-0.953988	-0.046148	0.220876	-0.197461	0.052300	-26.081552	23.376335
27997		4.461329	0.038297	9.141757	-0.021502	0.022606	0.359612	0.005387	0.014565	-0.008639	-0.036133	0.014648	-1.085205	0.044620	0.000379	0.091414	-0.953983	-0.046162	0.220845	-0.197515	0.053312	-26.078368	23.382424
27998		4.421314	0.048914	9.186984	-0.077027	0.010183	0.382658	0.006837	0.014916	-0.006142	-0.033691	0.012451	-1.080566	0.044220	0.000485	0.091867	-0.953982	-0.046162	0.220847	-0.197520	0.053009	-26.078660	23.383139
27999		4.435017	0.040916	9.149101	-0.047435	0.014238	0.354645	0.005593	0.014003	-0.006680	-0.033936	0.016846	-1.087402	0.044357	0.000405	0.091488	-0.953992	-0.046150	0.220862	-0.197456	0.053133	-26.080025	23.375413
28000		4.465895	0.049016	9.176185	-0.036148	0.027857	0.392552	0.010360	0.015630	-0.005337	-0.033691	0.008057	-1.080566	0.044666	0.000484	0.091758	-0.953990	-0.046165	0.220858	-0.197469	0.054623	-26.079911	23.376638
28001		4.432324	0.042666	9.150398	-0.050640	0.014668	0.354629	-0.000215	0.013488	-0.007762	-0.038330	0.012451	-1.082764	0.044329	0.000425	0.091501	-0.953988	-0.046147	0.220853	-0.197486	0.052130	-26.078926	23.379256
28002		4.411251	0.065059	9.169289	-0.084699	0.024540	0.362353	0.008909	0.015280	-0.007838	-0.036133	0.019043	-1.089844	0.044120	0.000645	0.091690	-0.953988	-0.046158	0.220851	-0.197486	0.053490	-26.079010	23.378888
28003		4.434410	0.031658	9.171912	-0.054351	0.001161	0.374855	0.006629	0.012894	-0.006950	-0.040527	0.012451	-1.089600	0.044350	0.000312	0.091716	-0.954024	-0.046115	0.220920	-0.197247	0.053476	-26.085857	23.350558
28004		4.452078	0.044484	9.146238	-0.034677	0.023695	0.359573	0.006833	0.014917	-0.006150	-0.033936	0.016846	-1.078613	0.044528	0.000440	0.091459	-0.954022	-0.046114	0.220922	-0.197252	0.053169	-26.086161	23.351250
28005		4.427119	0.046306	9.152900	-0.059414	0.014911	0.354581	0.007871	0.013807	-0.006416	-0.031494	0.014648	-1.083008	0.044278	0.000458	0.091526	-0.954047	-0.046092	0.220972	-0.197082	0.054082	-26.091321	23.330857
28006		4.438966	0.042581	9.206317	-0.069675	0.006243	0.407763	0.007662	0.016954	-0.009541	-0.033936	0.014648	-1.091797	0.044397	0.000420	0.092059	-0.954051	-0.046097	0.220964	-0.197072	0.055197	-26.090465	23.329374
28007		4.447703	0.047619	9.148350	-0.040455	0.024092	0.359551	0.007865	0.018978	-0.008742	-0.031494	0.014648	-1.083008	0.044486	0.000471	0.091479	-0.954070	-0.046090	0.220933	-0.197014	0.056902	-26.086730	23.321771
28008		4.459525	0.043807	9.201781	-0.050736	0.015428	0.412734	0.005384	0.011982	-0.007493	-0.033936	0.014648	-1.087402	0.044601	0.000434	0.092015	-0.954067	-0.046086	0.220951	-0.197010	0.056138	-26.088723	23.321592
28009		4.448794	0.070258	9.161900	-0.053776	0.042917	0.372222	0.006827	0.017504	-0.007320	-0.035889	0.012451	-1.085205	0.044496	0.000698	0.091615	-0.954084	-0.046074	0.220930	-0.196954	0.056838	-26.086023	23.314576
28010		4.443361	0.050488	9.150445	-0.045623	0.024844	0.359527	0.009313	0.016745	-0.005086	-0.035889	0.012451	-1.087402	0.044441	0.000499	0.091501	-0.954083	-0.046082	0.220922	-0.196967	0.057649	-26.085286	23.315936
28011		4.441780	0.051525	9.151206	-0.047376	0.024887	0.359519	0.005172	0.017714	-0.011787	-0.038330	0.012451	-1.082764	0.044426	0.000510	0.091508	-0.954093	-0.046085	0.220911	-0.196930	0.059310	-26.084099	23.311092
28012		4.429798	0.048616	9.210702	-0.079961	0.007561	0.407687	0.008069	0.015833	-0.005625	-0.038330	0.012451	-1.087402	0.044305	0.000481	0.092104	-0.954091	-0.046088	0.220908	-0.196939	0.059560	-26.083887	23.312105
28013		4.443489	0.040822	9.172909	-0.050718	0.011366	0.379752	0.008902	0.015284	-0.007854	-0.029297	0.014648	-1.080811	0.044442	0.000402	0.091726	-0.954100	-0.046098	0.220935	-0.196865	0.062167	-26.087186	23.302747
28014		4.442176	0.041996	9.173539	-0.052544	0.011613	0.379742	0.008699	0.013260	-0.008655	-0.029297	0.012451	-1.087402	0.044428	0.000414	0.091732	-0.954099	-0.046110	0.220944	-0.196860	0.063626	-26.088454	23.301816
28015		4.436216	0.056025	9.153879	-0.053934	0.025769	0.359484	0.009734	0.014735	-0.010084	-0.040527	0.012451	-1.091797	0.044369	0.000554	0.091536	-0.954097	-0.046143	0.220882	-0.196931	0.067224	-26.082128	23.309197
28016		4.434852	0.057265	9.154532	-0.055755	0.026015	0.359474	0.007453	0.014932	-0.010360	-0.036133	0.014648	-1.080811	0.044355	0.000567	0.091542	-0.954099	-0.046150	0.220883	-0.196916	0.068449	-26.082427	23.307192
28017		4.458107	0.024046	9.157220	-0.025231	0.002589	0.372072	0.011388	0.011943	-0.004458	-0.029297	0.012451	-1.091797	0.044587	0.000234	0.091570	-0.954111	-0.046155	0.220936	-0.196798	0.071098	-26.088709	23.292686
28018		4.417378	0.068693	9.194101	-0.091570	0.022148	0.387341	0.010570	0.011601	-0.011151	-0.033936	0.019043	-1.083008	0.044179	0.000680	0.091938	-0.954109	-0.046181	0.220950	-0.196782	0.074330	-26.090925	23.290161
28019		4.436216	0.048421	9.176391	-0.060811	0.012848	0.379695	0.008087	0.009774	-0.012225	-0.033691	0.008057	-1.080566	0.044367	0.000478	0.091762	-0.954131	-0.046174	0.220964	-0.196663	0.076691	-26.092297	23.275298
28020		4.435265	0.049860	9.176843	-0.062637	0.013095	0.379683	0.013055	0.010845	-0.008916	-0.031494	0.014648	-1.083008	0.044358	0.000491	0.091766	-0.954127	-0.046210	0.220979	-0.196660	0.080719	-26.094946	23.274198
28021		4.453264	0.063252	9.151055	-0.042033	0.035683	0.364460	0.009327	0.010688	-0.011692	-0.031494	0.012451	-1.082764	0.044538	0.000626	0.091508	-0.954111	-0.046264	0.220951	-0.196756	0.085145	-26.092925	23.284557
28022		4.433311	0.052684	9.177772	-0.065403	0.013651	0.379665	0.009532	0.010128	-0.009729	-0.038330	0.012451	-1.085205	0.044338	0.000520	0.091775	-0.954107	-0.046284	0.220973	-0.196746	0.087385	-26.095979	23.282946
28023		4.479466	0.052459	9.166395	-0.022474	0.031126	0.389748	0.011803	0.015102	-0.011790	-0.033691	0.012451	-1.080566	0.044802	0.000517	0.091661	-0.954112	-0.046322	0.220959	-0.196730	0.092752	-26.095203	23.279743
28024		4.449999	0.067370	9.152614	-0.047262	0.036311	0.364435	0.007455	0.009763	-0.008040	-0.035889	0.008057	-1.087158	0.044504	0.000668	0.091524	-0.954106	-0.046331	0.220985	-0.196725	0.093329	-26.098466	23.279209
28025		4.453609	0.055836	9.173412	-0.047731	0.022872	0.384687	0.010971	0.013068	-0.008399	-0.033691	0.012451	-1.089600	0.044542	0.000551	0.091731	-0.954086	-0.046392	0.220956	-0.196841	0.098031	-26.096584	23.292008
28026		4.442986	0.082590	9.133441	-0.050963	0.050333	0.344161	0.008890	0.015288	-0.007877	-0.033691	0.012451	-1.082764	0.044437	0.000820	0.091331	-0.954086	-0.046402	0.220955	-0.196840	0.099385	-26.096678	23.291589
28027		4.451108	0.058258	9.174611	-0.050891	0.023360	0.384671	0.008694	0.010679	-0.007508	-0.040527	0.012451	-1.085205	0.044516	0.000577	0.091744	-0.954080	-0.046427	0.220951	-0.196864	0.101760	-26.096887	23.293917
28028		4.446907	0.005126	9.171147	-0.031964	-0.026635	0.379624	0.009924	0.016763	-0.009311	-0.033936	0.014648	-1.085205	0.044477	0.000045	0.091708	-0.954083	-0.046443	0.220942	-0.196858	0.104109	-26.096132	23.292588
28029		4.456908	0.068820	9.208366	-0.064288	0.028284	0.417554	0.008688	0.013264	-0.008679	-0.035889	0.012451	-1.085205	0.044575	0.000682	0.092081	-0.954101	-0.046438	0.220978	-0.196733	0.106244	-26.100214	23.277224
28030		4.442519	0.074735	9.156190	-0.057468	0.037423	0.364379	0.009723	0.014739	-0.010111	-0.031494	0.014648	-1.087402	0.044432	0.000741	0.091559	-0.954102	-0.046455	0.220978	-0.196722	0.108701	-26.100625	23.275373
28031		4.465473	0.041619	9.159133	-0.026031	0.014415	0.377062	0.007636	0.019544	-0.010761	-0.035889	0.005859	-1.087158	0.044664	0.000410	0.091587	-0.954121	-0.046454	0.220945	-0.196670	0.110937	-26.096784	23.268391
28032		4.439492	0.077324	9.157637	-0.060816	0.037909	0.364357	0.012007	0.011961	-0.008670	-0.033691	0.010254	-1.089355	0.044400	0.000766	0.091574	-0.954117	-0.046483	0.220956	-0.196667	0.114299	-26.098788	23.267456
28033		4.442813	0.065795	9.178580	-0.060913	0.024503	0.384613	0.003915	0.016798	-0.012372	-0.036133	0.019043	-1.085449	0.044436	0.000653	0.091782	-0.954089	-0.046538	0.220891	-0.196866	0.116799	-26.092584	23.290480
28034		4.436790	0.079333	9.158929	-0.063421	0.038352	0.364340	0.004328	0.013095	-0.007270	-0.031738	0.016846	-1.083008	0.044374	0.000790	0.091586	-0.954087	-0.046528	0.220905	-0.196863	0.115372	-26.093931	23.290451
28035		4.436475	0.046706	9.167632	-0.055081	0.006616	0.371952	0.008888	0.012707	-0.006721	-0.033936	0.014648	-1.091797	0.044371	0.000461	0.091674	-0.954134	-0.046475	0.220957	-0.196588	0.115533	-26.098679	23.257670
28036		4.442806	0.089400	9.192562	-0.076987	0.043506	0.397205	0.006404	0.013460	-0.008964	-0.035889	0.012451	-1.082764	0.044434	0.000889	0.091923	-0.954133	-0.046476	0.220967	-0.196579	0.115766	-26.099822	23.256549
28037		4.429471	0.061477	9.148448	-0.059323	0.020624	0.351670	0.007648	0.011791	-0.007259	-0.033691	0.012451	-1.085205	0.044300	0.000610	0.091482	-0.954143	-0.046474	0.220985	-0.196514	0.116961	-26.101796	23.248608
28038		4.456580	0.048990	9.163426	-0.038240	0.015948	0.377022	0.007642	0.014376	-0.008432	-0.031494	0.014648	-1.083008	0.044572	0.000485	0.091631	-0.954142	-0.046481	0.220989	-0.196509	0.117752	-26.102416	23.247826
28039		4.459970	0.037494	9.184346	-0.038911	0.002669	0.397280	0.009519	0.012717	-0.010921	-0.035889	0.012451	-1.085205	0.044606	0.000368	0.091841	-0.954151	-0.046498	0.220975	-0.196478	0.121122	-26.101266	23.243259
28040		4.429593	0.085808	9.162353	-0.074338	0.039764	0.364261	0.010328	0.013065	-0.004224	-0.036133	0.014648	-1.085205	0.044302	0.000852	0.091621	-0.954145	-0.046513	0.220984	-0.196496	0.122272	-26.102640	23.245162
28041		4.481171	0.038949	9.179633	-0.020481	0.011671	0.402375	0.006802	0.014927	-0.006209	-0.029297	0.014648	-1.080811	0.044819	0.000385	0.091793	-0.954159	-0.046499	0.221000	-0.196412	0.122612	-26.104159	23.235053
28042		4.428018	0.054398	9.171677	-0.067435	0.008167	0.371877	0.010967	0.010489	-0.007249	-0.038330	0.016846	-1.085205	0.044285	0.000537	0.091714	-0.954153	-0.046524	0.221020	-0.196415	0.124977	-26.107009	23.235017
28043		4.449800	0.088289	9.158099	-0.057829	0.048998	0.369334	0.006203	0.011435	-0.009769	-0.035889	0.010254	-1.087158	0.044503	0.000878	0.091578	-0.954182	-0.046492	0.221053	-0.196243	0.125224	-26.110063	23.214480
28044		4.445005	0.068336	9.146435	-0.049602	0.030920	0.356708	0.005568	0.011427	-0.005575	-0.038330	0.012451	-1.087402	0.044455	0.000680	0.091462	-0.954176	-0.046487	0.221074	-0.196248	0.124023	-26.112380	23.215508
28045		4.445756	0.002109	9.163254	-0.029984	-0.032905	0.372006	0.006406	0.010877	-0.007803	-0.038330	0.012451	-1.085205	0.044463	0.000016	0.091630	-0.954169	-0.046504	0.221095	-0.196253	0.125356	-26.115152	23.215845
28046		4.447665	0.057565	9.167707	-0.052551	0.017598	0.376955	0.009727	0.009574	-0.007788	-0.038086	0.010254	-1.087158	0.044481	0.000569	0.091675	-0.954163	-0.046524	0.221120	-0.196252	0.127161	-26.118530	23.215456
28047		4.446783	0.058803	9.168127	-0.054507	0.017553	0.376945	0.009726	0.009575	-0.007789	-0.031494	0.012451	-1.091797	0.044472	0.000582	0.091679	-0.954156	-0.046555	0.221154	-0.196240	0.130346	-26.123241	23.213578
28048		4.469519	0.059208	9.162690	-0.034098	0.026477	0.382073	0.007039	0.010885	-0.012003	-0.038086	0.010254	-1.082764	0.044700	0.000586	0.091624	-0.954155	-0.046566	0.221175	-0.196216	0.131794	-26.125867	23.210497
28049		4.444818	0.061201	9.169064	-0.057615	0.018020	0.376927	0.008480	0.011243	-0.009501	-0.038086	0.008057	-1.082764	0.044453	0.000606	0.091688	-0.954147	-0.046600	0.221165	-0.196262	0.134851	-26.125517	23.215288
28050		4.439974	0.041650	9.157439	-0.049370	-0.000057	0.364314	0.010955	0.013077	-0.008432	-0.038086	0.008057	-1.082764	0.044406	0.000410	0.091572	-0.954144	-0.046623	0.221172	-0.196260	0.137540	-26.126888	23.214492
28051		4.461749	0.075547	9.143863	-0.039224	0.040524	0.361788	0.006207	0.008851	-0.008604	-0.033691	0.012451	-1.085205	0.044622	0.000751	0.091437	-0.954109	-0.046682	0.221178	-0.196412	0.140136	-26.128967	23.232193
28052		4.465418	0.063847	9.164659	-0.040430	0.027176	0.382048	0.007640	0.011795	-0.007277	-0.035889	0.012451	-1.080566	0.044660	0.000633	0.091644	-0.954105	-0.046690	0.221195	-0.196412	0.140604	-26.131073	23.232136
28053		4.455891	0.056837	9.132735	-0.032458	0.022663	0.349177	0.009911	0.014187	-0.008178	-0.029297	0.012451	-1.087402	0.044565	0.000562	0.091324	-0.954107	-0.046711	0.221182	-0.196407	0.143645	-26.130190	23.230785
28054		4.466713	0.086903	9.177974	-0.053841	0.045958	0.394627	0.006800	0.012346	-0.005052	-0.029541	0.017090	-1.083008	0.044673	0.000865	0.091777	-0.954102	-0.046711	0.221198	-0.196416	0.143006	-26.131982	23.232149
28055		4.466378	0.054240	9.186762	-0.044001	0.014646	0.402297	0.005351	0.014571	-0.008734	-0.031494	0.012451	-1.087402	0.044670	0.000538	0.091864	-0.954117	-0.046696	0.221155	-0.196394	0.142924	-26.126703	23.229240
28056		4.433203	0.047980	9.160688	-0.058568	0.001476	0.364265	0.012400	0.010854	-0.004759	-0.033691	0.012451	-1.085205	0.044337	0.000473	0.091605	-0.954108	-0.046724	0.221172	-0.196410	0.145413	-26.129343	23.230799
28057		4.474814	0.060178	9.129171	-0.015791	0.032838	0.354319	0.003910	0.014212	-0.011241	-0.038086	0.010254	-1.084961	0.044755	0.000597	0.091289	-0.954112	-0.046726	0.221141	-0.196428	0.145959	-26.125795	23.232610
28058		4.481615	0.069328	9.162403	-0.027105	0.037816	0.387173	0.006375	0.018631	-0.011351	-0.035889	0.010254	-1.084961	0.044825	0.000688	0.091620	-0.954119	-0.046725	0.221125	-0.196408	0.146844	-26.123963	23.229980
28059		4.452655	0.050403	9.156868	-0.040760	0.010864	0.369411	0.010305	0.015658	-0.005424	-0.033691	0.012451	-1.087402	0.044534	0.000498	0.091565	-0.954106	-0.046766	0.221106	-0.196484	0.150064	-26.122745	23.238226
28060		4.482998	0.058892	9.184314	-0.029871	0.024540	0.407434	0.006771	0.020101	-0.008594	-0.038086	0.010254	-1.087158	0.044839	0.000584	0.091839	-0.954113	-0.046762	0.221084	-0.196478	0.150401	-26.120076	23.237360
28061		4.424580	0.086675	9.156178	-0.077008	0.034466	0.356526	0.004693	0.019735	-0.006903	-0.036133	0.014648	-1.085205	0.044255	0.000863	0.091557	-0.954115	-0.046762	0.221050	-0.196507	0.150430	-26.116198	23.240589
28062		4.447509	0.053067	9.159354	-0.045907	0.011507	0.369389	0.003262	0.016790	-0.008231	-0.038330	0.012451	-1.082764	0.044483	0.000527	0.091590	-0.954118	-0.046745	0.221047	-0.196498	0.148658	-26.115425	23.239950
28063		4.398530	0.055448	9.171790	-0.092486	-0.005852	0.359003	0.008216	0.017878	-0.004915	-0.029541	0.017090	-1.085205	0.043994	0.000550	0.091714	-0.954137	-0.046728	0.221058	-0.196398	0.149237	-26.116245	23.227770
28064		4.444480	0.054741	9.160814	-0.049880	0.011794	0.369370	0.005751	0.013458	-0.004807	-0.033936	0.014648	-1.080811	0.044451	0.000544	0.091605	-0.954133	-0.046722	0.221069	-0.196407	0.147930	-26.117392	23.229303
28065		4.466904	0.054761	9.155599	-0.029187	0.020916	0.374556	0.003908	0.014212	-0.011255	-0.033936	0.016846	-1.085205	0.044676	0.000543	0.091553	-0.954165	-0.046680	0.221067	-0.196264	0.147165	-26.116188	23.212218
28066		4.442771	0.023030	9.170296	-0.042532	-0.019443	0.377057	0.008861	0.015301	-0.007938	-0.036133	0.014648	-1.087402	0.044435	0.000224	0.091700	-0.954165	-0.046691	0.221066	-0.196263	0.148516	-26.116272	23.211756
28067		4.472369	0.065051	9.189453	-0.042613	0.026108	0.407385	0.008019	0.015853	-0.005712	-0.038330	0.014648	-1.080811	0.044731	0.000646	0.091891	-0.954196	-0.046655	0.221084	-0.196099	0.148482	-26.117434	23.192156
28068		4.458010	0.070580	9.137315	-0.035456	0.035210	0.354262	0.009053	0.017328	-0.007151	-0.040527	0.010254	-1.082764	0.044588	0.000700	0.091369	-0.954198	-0.046663	0.221073	-0.196102	0.149718	-26.116362	23.192193
28069		4.460968	0.059006	9.158466	-0.037266	0.021501	0.374529	0.006571	0.018076	-0.009403	-0.035889	0.012451	-1.085205	0.044618	0.000585	0.091581	-0.954213	-0.046655	0.221094	-0.196006	0.150973	-26.118561	23.180430
28070		4.431130	0.073438	9.144656	-0.061857	0.026653	0.349031	0.008017	0.015854	-0.005717	-0.033691	0.012451	-1.087402	0.044319	0.000729	0.091443	-0.954212	-0.046658	0.221091	-0.196014	0.151211	-26.118344	23.181369
28071		4.453251	0.073581	9.139612	-0.041132	0.035562	0.354239	0.005728	0.018628	-0.007180	-0.035889	0.012451	-1.087402	0.044541	0.000732	0.091392	-0.954220	-0.046653	0.221062	-0.196009	0.151536	-26.114864	23.180527
28072		4.428766	0.041676	9.154470	-0.054492	-0.004793	0.356729	0.005727	0.018629	-0.007182	-0.040771	0.016846	-1.083008	0.044296	0.000413	0.091541	-0.954224	-0.046645	0.221048	-0.196009	0.150872	-26.113053	23.180538
28073		4.478177	0.061769	9.155809	-0.022685	0.030884	0.379724	0.004692	0.017153	-0.005746	-0.036133	0.014648	-1.085205	0.044790	0.000614	0.091554	-0.954252	-0.046598	0.221085	-0.195839	0.149212	-26.116221	23.160708
28074		4.425469	0.043213	9.156057	-0.058810	-0.004561	0.356705	0.007162	0.018991	-0.004679	-0.038086	0.010254	-1.087158	0.044263	0.000428	0.091556	-0.954253	-0.046593	0.221069	-0.195852	0.148664	-26.114214	23.162304
28075		4.442927	0.055902	9.130703	-0.039037	0.017768	0.341653	0.004490	0.017711	-0.007722	-0.035889	0.012451	-1.082764	0.044437	0.000555	0.091303	-0.954263	-0.046580	0.221068	-0.195808	0.148360	-26.113801	23.157035
28076		4.458651	0.039550	9.204749	-0.049401	-0.004410	0.415024	0.004690	0.017154	-0.005751	-0.035889	0.012451	-1.082764	0.044594	0.000392	0.092044	-0.954264	-0.046566	0.221062	-0.195813	0.146697	-26.112848	23.157941
28077		4.448017	0.065572	9.164718	-0.052177	0.022893	0.374460	0.004298	0.015684	-0.008514	-0.029297	0.010254	-1.084961	0.044487	0.000652	0.091644	-0.954270	-0.046558	0.221061	-0.195786	0.146559	-26.112460	23.154807
28078		4.446594	0.066418	9.165403	-0.054004	0.023144	0.374450	0.008212	0.015300	-0.003756	-0.038086	0.010254	-1.084961	0.044473	0.000660	0.091651	-0.954267	-0.046561	0.221061	-0.195804	0.146355	-26.112573	23.156981
28079		4.473495	0.053890	9.180671	-0.032244	0.018523	0.399972	0.006977	0.014381	-0.004292	-0.038330	0.014648	-1.083008	0.044742	0.000535	0.091804	-0.954245	-0.046596	0.221020	-0.195946	0.147513	-26.108641	23.173542
28080		4.463685	0.046522	9.148944	-0.024453	0.014030	0.367147	0.005711	0.021215	-0.008381	-0.038086	0.010254	-1.082764	0.044647	0.000461	0.091485	-0.954253	-0.046586	0.220993	-0.195940	0.147174	-26.105353	23.172783
28081		4.441915	0.068858	9.167654	-0.058936	0.023638	0.374422	0.002218	0.015317	-0.006828	-0.038330	0.012451	-1.085205	0.044426	0.000686	0.091673	-0.954261	-0.046561	0.221019	-0.195880	0.145272	-26.107720	23.166119
28082		4.455822	0.060750	9.130165	-0.028929	0.027832	0.346857	0.008832	0.020475	-0.010331	-0.035889	0.010254	-1.080566	0.044568	0.000601	0.091297	-0.954269	-0.046569	0.220992	-0.195868	0.147267	-26.104859	23.164108
28083		4.458753	0.049295	9.151334	-0.030186	0.014286	0.367132	0.009052	0.014750	-0.005989	-0.035889	0.010254	-1.084961	0.044594	0.000487	0.091510	-0.954262	-0.046594	0.220992	-0.195895	0.149535	-26.105462	23.166896
28084		4.433516	0.051118	9.157819	-0.054209	0.005843	0.361857	0.007996	0.018443	-0.006923	-0.035889	0.012451	-1.085205	0.044344	0.000506	0.091574	-0.954265	-0.046596	0.220977	-0.195899	0.150096	-26.103771	23.167054
28085		4.455616	0.051422	9.152850	-0.033558	0.014664	0.367120	0.009240	0.016779	-0.005205	-0.038330	0.012451	-1.089600	0.044564	0.000509	0.091525	-0.954259	-0.046621	0.220956	-0.195947	0.152273	-26.101851	23.172315
28086		4.457752	0.073192	9.165687	-0.045543	0.033243	0.379640	0.004493	0.015129	-0.006556	-0.033691	0.012451	-1.085205	0.044584	0.000728	0.091654	-0.954258	-0.046610	0.220960	-0.195947	0.150727	-26.102059	23.172703
28087		4.437176	0.062020	9.192492	-0.068964	0.011096	0.394634	0.004493	0.015129	-0.006558	-0.038330	0.012451	-1.085205	0.044379	0.000617	0.091922	-0.954263	-0.046600	0.220961	-0.195926	0.150116	-26.102011	23.170261
28088		4.474970	0.053102	9.149227	-0.016741	0.023994	0.372383	0.008193	0.017888	-0.004956	-0.038330	0.012451	-1.087402	0.044758	0.000526	0.091488	-0.954263	-0.046601	0.220949	-0.195938	0.150239	-26.100642	23.171673
28089		4.457982	0.063020	9.188156	-0.050742	0.020018	0.399894	0.006781	0.012356	-0.005091	-0.040771	0.016846	-1.083008	0.044586	0.000626	0.091879	-0.954265	-0.046599	0.220985	-0.195890	0.150450	-26.104665	23.165971
28090		4.448628	0.055502	9.156225	-0.042893	0.015521	0.367084	0.004691	0.014573	-0.004588	-0.038086	0.010254	-1.084961	0.044493	0.000552	0.091559	-0.954262	-0.046586	0.220992	-0.195899	0.148464	-26.105201	23.167606
28091		4.455254	0.064459	9.189469	-0.055075	0.020179	0.399871	0.004480	0.017714	-0.007751	-0.033691	0.010254	-1.082764	0.044561	0.000641	0.091891	-0.954283	-0.046554	0.221025	-0.195766	0.147623	-26.108196	23.151976
28092		4.465831	0.035347	9.139799	-0.014854	0.006040	0.359852	0.005535	0.014021	-0.006817	-0.040527	0.014648	-1.085205	0.044665	0.000349	0.091395	-0.954281	-0.046549	0.221033	-0.195766	0.146745	-26.109053	23.152177
28093		4.447936	0.078720	9.170408	-0.059293	0.034069	0.379567	0.006768	0.014942	-0.006284	-0.031494	0.010254	-1.087158	0.044486	0.000783	0.091701	-0.954284	-0.046550	0.221043	-0.195740	0.147349	-26.110232	23.148944
28094		4.471229	0.045371	9.173638	-0.028294	0.011099	0.392638	0.006767	0.014942	-0.006285	-0.031494	0.010254	-1.084961	0.044719	0.000449	0.091733	-0.954283	-0.046549	0.221046	-0.195744	0.147026	-26.110565	23.149482
28095		4.416844	0.093773	9.157077	-0.084377	0.039612	0.353957	0.004676	0.017159	-0.005784	-0.040527	0.012451	-1.080566	0.044176	0.000934	0.091567	-0.954264	-0.046577	0.220973	-0.195914	0.147363	-26.102764	23.169531
28096		4.436539	0.039349	9.148207	-0.043180	-0.001674	0.354527	0.005732	0.013466	-0.004847	-0.031494	0.010254	-1.084961	0.044372	0.000390	0.091479	-0.954260	-0.046571	0.220984	-0.195923	0.146048	-26.103935	23.170997
28097		4.467107	0.047746	9.175634	-0.032289	0.011893	0.392625	0.006380	0.013470	-0.009049	-0.035889	0.012451	-1.080566	0.044677	0.000473	0.091753	-0.954253	-0.046591	0.220981	-0.195954	0.147675	-26.104060	23.174241
28098		4.461274	0.061108	9.155863	-0.034584	0.025722	0.372334	0.002209	0.015319	-0.006856	-0.038330	0.016846	-1.083008	0.044620	0.000609	0.091555	-0.954254	-0.046568	0.220987	-0.195950	0.144904	-26.104167	23.174428
28099		4.437113	0.029022	9.170516	-0.048360	-0.014812	0.374787	0.008394	0.014752	-0.001807	-0.033936	0.014648	-1.085205	0.044378	0.000286	0.091702	-0.954271	-0.046542	0.221018	-0.195836	0.144296	-26.107201	23.161075
28100		4.462960	0.050033	9.177640	-0.038201	0.012468	0.392604	0.005520	0.016607	-0.008017	-0.040771	0.019043	-1.080811	0.044637	0.000496	0.091773	-0.954273	-0.046536	0.221014	-0.195831	0.143746	-26.106574	23.160515
28101		4.453454	0.042631	9.145805	-0.031042	0.007801	0.359814	0.006764	0.014944	-0.006294	-0.033691	0.012451	-1.087402	0.044541	0.000422	0.091455	-0.954314	-0.046479	0.221067	-0.195587	0.142595	-26.111240	23.131739
28102		4.423828	0.056906	9.131745	-0.055489	0.012938	0.334185	0.006565	0.015499	-0.008271	-0.040527	0.012451	-1.089600	0.044245	0.000564	0.091314	-0.954315	-0.046478	0.221067	-0.195581	0.142711	-26.111256	23.131003
28103		4.459513	0.019227	9.188063	-0.033830	-0.019019	0.400374	0.005903	0.018081	-0.005263	-0.035889	0.010254	-1.087158	0.044603	0.000188	0.091877	-0.954320	-0.046472	0.221059	-0.195569	0.142572	-26.110177	23.129576
28104		4.452499	0.066115	9.160098	-0.046721	0.026721	0.372283	0.005716	0.016053	-0.006048	-0.033691	0.012451	-1.087402	0.044532	0.000657	0.091597	-0.954319	-0.046465	0.221058	-0.195573	0.141577	-26.109881	23.130257
28105		4.475695	0.032687	9.163452	-0.015206	0.003725	0.385426	0.007145	0.016418	-0.003540	-0.038086	0.010254	-1.084961	0.044764	0.000323	0.091631	-0.954308	-0.046484	0.221026	-0.195659	0.142183	-26.106630	23.140227
28106		4.445845	0.046775	9.149486	-0.039642	0.008856	0.359784	0.001797	0.019014	-0.012014	-0.033691	0.012451	-1.080566	0.044467	0.000464	0.091491	-0.954318	-0.046461	0.221013	-0.195631	0.140617	-26.104626	23.137110
28107		4.459939	0.038501	9.112068	-0.009207	0.012926	0.332364	0.007143	0.016419	-0.003543	-0.040527	0.014648	-1.085205	0.044607	0.000381	0.091117	-0.954307	-0.046479	0.220993	-0.195702	0.141185	-26.102782	23.145495
28108		4.450651	0.056625	9.183577	-0.052776	0.013990	0.392537	0.005899	0.018083	-0.005271	-0.038330	0.014648	-1.080811	0.044515	0.000562	0.091832	-0.954309	-0.046470	0.220982	-0.195710	0.140078	-26.101320	23.146680
28109		4.441074	0.049106	9.151790	-0.045578	0.009170	0.359758	0.005713	0.016054	-0.006056	-0.038330	0.014648	-1.091797	0.044418	0.000487	0.091514	-0.954332	-0.046433	0.221028	-0.195554	0.139089	-26.105715	23.128325
28110		4.472297	0.023982	9.187709	-0.024413	-0.009034	0.405695	0.005712	0.016054	-0.006057	-0.031494	0.010254	-1.089355	0.044730	0.000236	0.091874	-0.954332	-0.046426	0.221027	-0.195558	0.138094	-26.105424	23.128994
28111		4.446166	0.058954	9.185734	-0.058653	0.014411	0.392504	0.004480	0.015133	-0.006593	-0.038330	0.012451	-1.087402	0.044469	0.000586	0.091854	-0.954332	-0.046422	0.221013	-0.195572	0.137606	-26.103689	23.130777
28112		4.468353	0.059006	9.180839	-0.038318	0.023359	0.397868	0.005698	0.018639	-0.007254	-0.040527	0.014648	-1.080811	0.044692	0.000586	0.091804	-0.954336	-0.046414	0.220999	-0.195571	0.136938	-26.101913	23.130687
28113		4.463227	0.038932	9.169506	-0.030509	0.004952	0.385391	0.007138	0.016422	-0.003551	-0.035889	0.010254	-1.084961	0.044640	0.000385	0.091691	-0.954346	-0.046398	0.221030	-0.195491	0.136541	-26.105121	23.121375
28114		4.433255	0.053240	9.155557	-0.054908	0.010082	0.359712	0.009193	0.021959	-0.007634	-0.038330	0.012451	-1.085205	0.044343	0.000527	0.091551	-0.954353	-0.046403	0.220997	-0.195493	0.137977	-26.101450	23.121039
28115		4.459491	0.041069	9.171315	-0.034044	0.005258	0.385380	0.007961	0.021038	-0.008171	-0.029297	0.014648	-1.089600	0.044605	0.000405	0.091708	-0.954351	-0.046425	0.220963	-0.195535	0.140303	-26.098036	23.125357
28116		4.448495	0.067270	9.131440	-0.036660	0.032654	0.344794	0.007097	0.024176	-0.007144	-0.038086	0.010254	-1.089355	0.044496	0.000668	0.091309	-0.954361	-0.046417	0.220922	-0.195536	0.140400	-26.093096	23.125336
28117		4.431487	0.043743	9.178991	-0.059325	-0.002896	0.379974	0.005865	0.023255	-0.007680	-0.031738	0.016846	-1.087402	0.044326	0.000433	0.091785	-0.954370	-0.046415	0.220858	-0.195565	0.141027	-26.085724	23.128256
28118		4.453226	0.043978	9.174345	-0.038995	0.006055	0.385362	0.008154	0.020485	-0.006201	-0.038086	0.008057	-1.089355	0.044542	0.000435	0.091739	-0.954374	-0.046415	0.220834	-0.195572	0.141469	-26.082897	23.128836
28119		4.450298	0.078377	9.166957	-0.051141	0.038162	0.377520	0.004633	0.022334	-0.008220	-0.036133	0.014648	-1.083008	0.044513	0.000780	0.091665	-0.954384	-0.046407	0.220789	-0.195578	0.141493	-26.077517	23.129301
28120		4.445909	0.024659	9.164090	-0.032116	-0.011826	0.372894	0.003611	0.018273	-0.005581	-0.035889	0.010254	-1.087158	0.044467	0.000244	0.091637	-0.954386	-0.046387	0.220779	-0.195582	0.139160	-26.075957	23.130273
28121		4.471551	0.045555	9.171368	-0.021945	0.015325	0.390749	0.007131	0.016425	-0.003565	-0.029297	0.010254	-1.084961	0.044723	0.000451	0.091710	-0.954384	-0.046390	0.220773	-0.195597	0.139281	-26.075326	23.132056
28122		4.441645	0.059689	9.157343	-0.046312	0.020440	0.365040	0.004252	0.020859	-0.010986	-0.038330	0.012451	-1.087402	0.044426	0.000593	0.091569	-0.954394	-0.046377	0.220750	-0.195577	0.138829	-26.072278	23.129584
28123		4.467845	0.047346	9.173165	-0.025016	0.015816	0.390742	0.008332	0.022517	-0.005430	-0.033691	0.008057	-1.089355	0.044689	0.000468	0.091727	-0.954390	-0.046400	0.220683	-0.195670	0.140675	-26.065194	23.139983
28124		4.438525	0.028180	9.167658	-0.038752	-0.010976	0.372872	0.008135	0.023072	-0.007412	-0.035889	0.012451	-1.085205	0.044396	0.000276	0.091671	-0.954398	-0.046399	0.220646	-0.195671	0.141445	-26.060880	23.139799
28125		4.463765	0.049430	9.175140	-0.028121	0.016220	0.390733	0.006723	0.020120	-0.008728	-0.038330	0.012451	-1.082764	0.044647	0.000489	0.091747	-0.954386	-0.046433	0.220592	-0.195784	0.143695	-26.055515	23.152516
28126		4.433638	0.063701	9.161195	-0.052475	0.021319	0.365008	0.006903	0.022151	-0.007951	-0.033691	0.008057	-1.080566	0.044347	0.000632	0.091607	-0.954394	-0.046427	0.220561	-0.195781	0.143914	-26.051725	23.151992
28127		4.431697	0.064572	9.162128	-0.054017	0.021363	0.365000	0.006063	0.020120	-0.004529	-0.029297	0.012451	-1.091797	0.044326	0.000642	0.091617	-0.954379	-0.046450	0.220524	-0.195889	0.144530	-26.048021	23.164570
28128		4.458164	0.052147	9.177848	-0.033334	0.016768	0.390716	0.005310	0.017168	-0.010048	-0.031494	0.012451	-1.082764	0.044590	0.000517	0.091775	-0.954384	-0.046444	0.220517	-0.195873	0.144428	-26.047082	23.162703
28129		4.460814	0.040377	9.199163	-0.033874	0.003645	0.411007	0.005013	0.021229	-0.004288	-0.036133	0.019043	-1.085449	0.044618	0.000401	0.091987	-0.954384	-0.046443	0.220443	-0.195959	0.143683	-26.038580	23.172829
28130		4.474782	0.032084	9.161981	-0.003654	0.007866	0.383710	0.004247	0.020861	-0.011007	-0.029541	0.019287	-1.089844	0.044757	0.000316	0.091615	-0.954394	-0.046429	0.220419	-0.195939	0.143239	-26.035517	23.170365
28131		4.452467	0.054650	9.180599	-0.038289	0.017852	0.390697	0.008321	0.022522	-0.005450	-0.036133	0.014648	-1.087402	0.044535	0.000541	0.091801	-0.954454	-0.046352	0.220416	-0.195667	0.141916	-26.033278	23.137852
28132		4.446807	0.034695	9.169571	-0.029849	-0.000229	0.378261	0.005834	0.025846	-0.008923	-0.029297	0.012451	-1.087402	0.044480	0.000342	0.091690	-0.954468	-0.046339	0.220367	-0.195659	0.141790	-26.027366	23.136715
28133		4.463843	0.047445	9.144692	-0.009517	0.022352	0.363409	0.004605	0.024923	-0.009460	-0.038330	0.016846	-1.089600	0.044650	0.000470	0.091441	-0.954488	-0.046318	0.220308	-0.195630	0.141743	-26.019990	23.132870
28134		4.449992	0.044928	9.204382	-0.043080	0.005088	0.410972	0.006686	0.025294	-0.011154	-0.036133	0.014648	-1.080811	0.044512	0.000444	0.092038	-0.954503	-0.046312	0.220260	-0.195613	0.142729	-26.014390	23.130312
28135		4.435198	0.050282	9.152582	-0.036006	0.013917	0.357946	0.008077	0.030833	-0.011050	-0.033691	0.012451	-1.085205	0.044366	0.000497	0.091519	-0.954552	-0.046269	0.220229	-0.195417	0.144087	-26.009740	23.106317
28136		4.413088	0.039426	9.179889	-0.059647	-0.008109	0.372774	0.003537	0.028618	-0.010432	-0.033691	0.008057	-1.084961	0.044144	0.000390	0.091793	-0.954571	-0.046244	0.220169	-0.195401	0.143060	-26.002244	23.104214
28137		4.385792	0.074495	9.178240	-0.093667	0.015205	0.359422	0.007054	0.026773	-0.008408	-0.033936	0.016846	-1.087402	0.043870	0.000740	0.091777	-0.954565	-0.046274	0.220083	-0.195521	0.145428	-25.993097	23.117655
28138		4.411704	0.062358	9.194278	-0.073029	0.010611	0.385171	0.009166	0.021974	-0.007693	-0.033936	0.014648	-1.091797	0.044127	0.000618	0.091938	-0.954572	-0.046279	0.220050	-0.195522	0.146867	-25.989409	23.117293
28139		4.439339	0.138022	9.205525	-0.084103	0.088128	0.407568	0.005854	0.020681	-0.006540	-0.031494	0.012451	-1.089600	0.044403	0.001376	0.092051	-0.954604	-0.046235	0.220044	-0.195382	0.145789	-25.987617	23.100660
28140		4.451716	-0.079335	9.186008	0.019772	-0.103833	0.394939	0.006160	0.016618	-0.012299	-0.038330	0.012451	-1.087402	0.044525	-0.000799	0.091856	-0.954610	-0.046236	0.220038	-0.195356	0.146795	-25.986994	23.097348
28141		4.433879	0.085997	9.203253	-0.066830	0.038245	0.403017	0.011213	0.011635	-0.015495	-0.035889	0.012451	-1.082764	0.044344	0.000851	0.092030	-0.954613	-0.046278	0.220050	-0.195322	0.152606	-25.989266	23.091939
28142		4.391700	0.042752	9.243090	-0.102022	-0.024395	0.420229	-0.001445	-0.012376	-0.028491	-0.033691	0.012451	-1.078369	0.043911	0.000422	0.092434	-0.954605	-0.046289	0.220186	-0.195204	0.153801	-26.005231	23.078254
28143		4.443485	0.097165	9.234917	-0.080450	0.043365	0.435695	0.000636	-0.027884	-0.033883	-0.033936	0.019043	-1.078613	0.044422	0.000964	0.092355	-0.954584	-0.046340	0.220393	-0.195064	0.158713	-26.030183	23.061473
28144		4.448260	0.031992	9.250358	-0.061083	-0.020172	0.451475	0.004831	-0.032310	-0.034863	-0.036133	0.014648	-1.085205	0.044468	0.000310	0.092511	-0.954558	-0.046407	0.220617	-0.194918	0.165318	-26.057558	23.043679
28145		4.466608	0.059295	9.202242	-0.041793	0.015894	0.416358	0.020520	-0.041155	-0.042140	-0.038330	0.012451	-1.082764	0.044647	0.000574	0.092032	-0.954561	-0.046520	0.220894	-0.194563	0.182243	-26.092143	22.998674
28146		4.473714	-0.063211	9.122473	0.040292	-0.085170	0.347468	0.017633	-0.036726	-0.049601	-0.038330	0.012451	-1.085205	0.044720	-0.000651	0.091233	-0.954542	-0.046669	0.221123	-0.194359	0.200351	-26.122018	22.971433
28147		4.550266	-0.006357	9.108142	0.083810	-0.008773	0.368477	0.026659	-0.027110	-0.053283	-0.038330	0.014648	-1.087402	0.045490	-0.000088	0.091088	-0.954535	-0.046862	0.221307	-0.194139	0.225617	-26.147710	22.940309
28148		4.527197	0.032656	9.104365	0.049258	0.014670	0.355076	0.031393	-0.012143	-0.047035	-0.033691	0.010254	-1.082764	0.045267	0.000302	0.091046	-0.954537	-0.047050	0.221406	-0.193969	0.250895	-26.163489	22.914729
28149		4.502790	0.071740	9.101220	0.015001	0.038092	0.341661	0.033476	0.001527	-0.043835	-0.042725	0.012451	-1.085205	0.045029	0.000692	0.091012	-0.954554	-0.047235	0.221425	-0.193821	0.277277	-26.169945	22.891140
28150		4.538172	0.071883	9.149010	0.025552	0.038288	0.400169	0.028374	0.011672	-0.043056	-0.042725	0.010254	-1.087158	0.045387	0.000696	0.091488	-0.954579	-0.047381	0.221415	-0.193672	0.299685	-26.172069	22.868160
28151		4.499542	0.140261	9.196717	-0.052093	0.075713	0.426293	0.024210	0.010927	-0.039674	-0.038330	0.012451	-1.080566	0.045001	0.001383	0.091965	-0.954602	-0.047509	0.221447	-0.193494	0.319675	-26.178739	22.842445
28152		4.483000	0.127084	9.132043	-0.033853	0.066408	0.360910	0.022521	0.009452	-0.034017	-0.035889	0.008057	-1.082764	0.044835	0.001253	0.091318	-0.954617	-0.047619	0.221455	-0.193381	0.336192	-26.182159	22.825214
28153		4.512751	0.171810	9.150872	-0.033880	0.111967	0.391195	0.025147	0.003935	-0.018384	-0.040283	0.008057	-1.082764	0.045129	0.001702	0.091508	-0.954603	-0.047750	0.221473	-0.193399	0.351121	-26.187268	22.824173
28154		4.492038	0.196091	9.168504	-0.068166	0.121843	0.398034	0.021776	0.000983	-0.007050	-0.040527	0.012451	-1.085205	0.044921	0.001949	0.091685	-0.954583	-0.047835	0.221528	-0.193412	0.359631	-26.195628	22.824126
28155		4.504463	0.168152	9.118490	-0.027673	0.107438	0.358498	0.023088	0.004875	0.003220	-0.033691	0.012451	-1.078369	0.045047	0.001672	0.091184	-0.954554	-0.047923	0.221576	-0.193480	0.367089	-26.203258	22.830793
28156		4.489085	0.119135	9.062352	0.001214	0.066240	0.301061	0.015226	0.017227	0.008707	-0.038086	0.010254	-1.089355	0.044899	0.001186	0.090620	-0.954538	-0.047943	0.221564	-0.193564	0.367376	-26.202372	22.840868
28157		4.502625	0.015823	9.141920	0.021712	-0.037902	0.377831	0.014652	0.029596	0.008853	-0.044922	0.012207	-1.080566	0.045040	0.000154	0.091413	-0.954543	-0.047947	0.221476	-0.193640	0.367887	-26.192335	22.849408
28158		4.421868	0.097770	9.122258	-0.067905	0.013527	0.325029	0.010952	0.029398	0.006043	-0.044922	0.010010	-1.080566	0.044232	0.000974	0.091216	-0.954545	-0.047938	0.221409	-0.193710	0.366456	-26.184463	22.857833
28159		4.373774	0.032621	9.151613	-0.093853	-0.067952	0.329776	0.006377	0.032336	0.004251	-0.035889	0.012451	-1.085205	0.043753	0.000324	0.091509	-0.954561	-0.047897	0.221392	-0.193661	0.363389	-26.181509	22.852445
28160		4.211789	0.053201	9.112265	-0.218775	-0.097686	0.223146	0.011629	0.026812	0.003031	-0.038086	0.005859	-1.080322	0.042130	0.000527	0.091117	-0.954563	-0.047897	0.221337	-0.193717	0.363199	-26.175119	22.858921
28161		4.357670	0.152233	9.198770	-0.171175	0.028972	0.365706	0.012051	0.009827	0.003327	-0.042725	0.010254	-1.089355	0.043581	0.001518	0.091986	-0.954535	-0.047940	0.221341	-0.193840	0.364608	-26.176652	22.873431
28162		4.418369	-0.032460	9.160147	-0.033549	-0.113627	0.356743	0.015080	0.008708	-0.009562	-0.040527	0.010254	-1.082764	0.044188	-0.000334	0.091600	-0.954527	-0.047988	0.221365	-0.193835	0.369975	-26.180587	22.871797
28163		4.413325	-0.018086	9.139920	-0.036061	-0.100144	0.336429	0.018428	0.004843	-0.008305	-0.038330	0.012451	-1.082764	0.044135	-0.000191	0.091398	-0.954516	-0.048057	0.221431	-0.193799	0.377740	-26.189743	22.866107
28164		4.509916	0.036354	9.121815	0.029629	-0.014769	0.363121	0.021122	0.010377	-0.016647	-0.033691	0.008057	-1.082764	0.045104	0.000350	0.091216	-0.954516	-0.048140	0.221440	-0.193768	0.388563	-26.192701	22.859947
28165		4.479376	0.085542	9.098803	-0.004738	0.022229	0.329295	0.021075	0.015543	-0.019078	-0.038086	0.005859	-1.082764	0.044801	0.000842	0.090985	-0.954526	-0.048226	0.221404	-0.193738	0.400841	-26.190629	22.853441
28166		4.504781	0.108761	9.106120	0.005187	0.049546	0.347225	0.022643	0.020539	-0.017007	-0.035889	0.012451	-1.082764	0.045057	0.001073	0.091057	-0.954537	-0.048307	0.221363	-0.193709	0.412617	-26.187759	22.847099
28167		4.467812	0.082620	9.068106	0.002063	0.017901	0.296635	0.022767	0.027738	-0.018671	-0.038086	0.008057	-1.080566	0.044691	0.000812	0.090675	-0.954554	-0.048399	0.221270	-0.193712	0.426020	-26.179156	22.843984
28168		4.347538	0.054805	9.105175	-0.099708	-0.057378	0.276667	0.020880	0.026817	-0.014991	-0.042480	0.007813	-1.087158	0.043488	0.000535	0.091046	-0.954570	-0.048463	0.221201	-0.193692	0.436203	-26.172694	22.838963
28169		4.260227	0.122894	9.163889	-0.221113	-0.037335	0.291332	0.023345	0.015370	-0.018808	-0.038086	0.008057	-1.082764	0.042609	0.001214	0.091636	-0.954567	-0.048577	0.221188	-0.193695	0.450297	-26.173813	22.836090
28170		4.342715	0.119780	9.201041	-0.166566	-0.019659	0.361031	0.017566	0.005407	-0.006087	-0.040283	0.008057	-1.082764	0.043430	0.001188	0.092009	-0.954552	-0.048636	0.221227	-0.193709	0.456121	-26.179659	22.836645
28171		4.409688	0.010976	9.177931	-0.060160	-0.093855	0.369035	0.013358	-0.000900	-0.011209	-0.038330	0.014648	-1.085205	0.044096	0.000101	0.091780	-0.954530	-0.048704	0.221297	-0.193723	0.462220	-26.189408	22.837355
28172		4.487683	0.053192	9.185469	-0.016446	-0.030728	0.410509	0.018102	-0.001798	-0.008645	-0.040527	0.010254	-1.082764	0.044876	0.000522	0.091855	-0.954509	-0.048776	0.221369	-0.193723	0.469090	-26.199372	22.836237
28173		4.561147	0.108047	9.172477	0.026558	0.045847	0.431690	0.017882	0.001332	-0.011853	-0.038086	0.010254	-1.082764	0.045612	0.001070	0.091725	-0.954527	-0.048804	0.221459	-0.193524	0.476073	-26.210328	22.811083
28174		4.533627	0.089944	9.166169	0.012980	0.019038	0.413749	0.020083	0.008904	-0.015221	-0.042480	0.007813	-1.080566	0.045340	0.000887	0.091660	-0.954525	-0.048882	0.221477	-0.193497	0.485906	-26.214134	22.805811
28175		4.489610	0.081329	9.198036	-0.033082	-0.011913	0.422832	0.025193	0.009494	-0.009900	-0.035889	0.010254	-1.089355	0.044901	0.000799	0.091978	-0.954521	-0.048978	0.221501	-0.193466	0.497812	-26.219162	22.799463
28176		4.479588	0.142923	9.148252	-0.045877	0.047327	0.374231	0.040332	-0.009643	-0.008083	-0.033691	0.008057	-1.084961	0.044792	0.001409	0.091485	-0.954485	-0.049162	0.221589	-0.193491	0.517281	-26.233632	22.798637
28177		4.605322	0.098969	9.149535	0.074130	0.045965	0.430612	0.057910	-0.016188	0.000863	-0.038086	0.005859	-1.080322	0.046046	0.000963	0.091499	-0.954438	-0.049424	0.221664	-0.193573	0.544803	-26.248356	22.802653
28178		4.597945	0.129928	9.107552	0.071911	0.073319	0.390005	0.077782	-0.016111	-0.002545	-0.040039	0.001221	-1.080322	0.045972	0.001263	0.091080	-0.954381	-0.049788	0.221748	-0.193665	0.584189	-26.266558	22.805314
28179		4.580895	0.213805	9.127334	0.017136	0.133250	0.401052	0.087133	-0.015722	-0.009631	-0.042480	0.005615	-1.082764	0.045802	0.002096	0.091278	-0.954299	-0.050257	0.221786	-0.193905	0.633226	-26.282002	22.823477
28180		4.615666	0.050252	9.073593	0.132595	-0.004451	0.366673	0.111068	-0.007156	-0.020156	-0.040039	0.001221	-1.084717	0.046153	0.000447	0.090738	-0.954260	-0.050790	0.221790	-0.193953	0.696656	-26.294958	22.814920
28181		4.588270	0.042026	9.067295	0.119205	-0.031461	0.348740	0.131733	0.015042	-0.034892	-0.035889	0.005859	-1.082764	0.045890	0.000353	0.090670	-0.954240	-0.051445	0.221656	-0.194029	0.777569	-26.294836	22.805273
28182		4.555797	0.129845	9.147267	0.031765	0.011088	0.407072	0.146833	0.033532	-0.047559	-0.040039	-0.000977	-1.084717	0.045574	0.001220	0.091466	-0.954263	-0.052140	0.221425	-0.193995	0.869099	-26.284236	22.779540
28183		4.502081	0.213142	9.142065	-0.035001	0.057629	0.379807	0.141087	0.045309	-0.052907	-0.037598	-0.003174	-1.080078	0.045042	0.002055	0.091412	-0.954305	-0.052811	0.221120	-0.193959	0.959641	-26.264583	22.753414
28184		4.488778	0.131741	9.117673	0.004965	-0.028995	0.350853	0.135578	0.060712	-0.067707	-0.040039	0.001221	-1.084717	0.044916	0.001240	0.091164	-0.954379	-0.053448	0.220764	-0.193823	1.050245	-26.238135	22.715165
28185		4.561745	0.066934	9.142405	0.090952	-0.079871	0.404107	0.140787	0.055215	-0.069030	-0.042236	0.001221	-1.086914	0.045643	0.000589	0.091412	-0.954443	-0.054129	0.220416	-0.193715	1.145222	-26.213711	22.679362
28186		4.550988	0.128581	9.115087	0.078354	-0.034200	0.375811	0.142449	0.054104	-0.073626	-0.040039	-0.000977	-1.082520	0.045535	0.001204	0.091139	-0.954513	-0.054812	0.220083	-0.193557	1.241391	-26.190865	22.637360
28187		4.504604	0.187817	9.151544	0.010834	-0.014960	0.389132	0.131443	0.053885	-0.071157	-0.035400	-0.005371	-1.082275	0.045071	0.001802	0.091504	-0.954615	-0.055396	0.219807	-0.193203	1.329850	-26.171993	22.573751
28188		4.495589	0.301927	9.126511	-0.022721	0.080925	0.365112	0.111565	0.053785	-0.067782	-0.037354	-0.009766	-1.082031	0.044981	0.002953	0.091255	-0.954686	-0.055925	0.219507	-0.193038	1.406610	-26.149301	22.535556
28189		4.476671	0.257155	9.184704	-0.035317	0.013401	0.408079	0.089953	0.057388	-0.061152	-0.037598	-0.007568	-1.088867	0.044794	0.002517	0.091835	-0.954748	-0.056367	0.219186	-0.192969	1.470492	-26.122348	22.511680
28190		4.501107	0.314415	9.093299	0.006377	0.085317	0.338154	0.073743	0.060086	-0.056181	-0.035400	-0.003174	-1.091309	0.045039	0.003098	0.090921	-0.954825	-0.056697	0.218896	-0.192820	1.522219	-26.096142	22.481067
28191		4.450244	0.344714	9.118413	-0.050132	0.086411	0.339109	0.054360	0.074288	-0.043252	-0.037598	-0.005371	-1.091064	0.044537	0.003413	0.091169	-0.954933	-0.056879	0.218572	-0.192599	1.558804	-26.062574	22.445076
28192		4.486500	0.361508	9.090180	-0.007962	0.117689	0.330134	0.034011	0.076237	-0.034821	-0.037598	-0.007568	-1.088867	0.044900	0.003592	0.090885	-0.955018	-0.056980	0.218249	-0.192513	1.581606	-26.027419	22.428412
28193		4.499271	0.255918	9.083681	0.053830	0.026105	0.327264	0.020646	0.092075	-0.029062	-0.039551	-0.014160	-1.088623	0.045035	0.002543	0.090816	-0.955141	-0.056966	0.217894	-0.192307	1.594746	-25.985845	22.399328
28194		4.468237	0.225907	9.102302	0.040471	-0.014265	0.329612	0.014723	0.095057	-0.022450	-0.032959	-0.009766	-1.084229	0.044726	0.002247	0.091002	-0.955241	-0.056943	0.217503	-0.192264	1.602864	-25.940107	22.390903
28195		4.377141	0.281404	9.183358	-0.080727	-0.007804	0.364052	0.006844	0.102284	-0.014630	-0.032959	-0.009766	-1.086426	0.043819	0.002808	0.091811	-0.955321	-0.056906	0.217079	-0.192356	1.606080	-25.890488	22.399614
28196		4.379988	0.284297	9.129309	-0.050319	0.009933	0.316812	-0.002341	0.101382	-0.005567	-0.030762	-0.007568	-1.084473	0.043846	0.002843	0.091271	-0.955415	-0.056778	0.216679	-0.192377	1.599667	-25.841399	22.402058
28197		4.329898	0.376674	9.281584	-0.180525	0.053287	0.434374	-0.012740	0.099538	0.002978	-0.031006	-0.005127	-1.086670	0.043345	0.003773	0.092794	-0.955507	-0.056590	0.216298	-0.192402	1.585468	-25.793174	22.406738
28198		4.332191	0.410198	9.218061	-0.160674	0.102897	0.379092	-0.024976	0.088580	0.008029	-0.037354	-0.011963	-1.084229	0.043363	0.004115	0.092161	-0.955581	-0.056350	0.215984	-0.192460	1.562440	-25.751630	22.417575
28199		4.309452	0.300518	9.163762	-0.110769	0.011171	0.317654	-0.036249	0.087304	0.018802	-0.026123	-0.011963	-1.086426	0.043134	0.003026	0.091618	-0.955650	-0.056046	0.215718	-0.192506	1.530655	-25.713993	22.429061
28200		4.411124	0.224843	9.218695	-0.013445	-0.026097	0.409448	-0.042845	0.084688	0.021157	-0.032959	-0.007568	-1.086670	0.044150	0.002273	0.092168	-0.955711	-0.055711	0.215443	-0.192606	1.493836	-25.674872	22.448113
28201		4.300933	0.212541	9.210403	-0.092982	-0.065818	0.354010	-0.043851	0.080647	0.023860	-0.028564	-0.009766	-1.091064	0.043046	0.002151	0.092086	-0.955750	-0.055401	0.215176	-0.192798	1.457278	-25.637253	22.478152
28202		4.365648	0.167700	9.319374	-0.060607	-0.097431	0.479278	-0.042026	0.071788	0.023144	-0.023926	-0.011719	-1.088623	0.043690	0.001702	0.093178	-0.955795	-0.055080	0.214964	-0.192905	1.420524	-25.605528	22.498195
28203		4.314256	0.097364	9.350777	-0.084658	-0.178572	0.483927	-0.042119	0.061543	0.015168	-0.026367	-0.007324	-1.086670	0.043171	0.000997	0.093494	-0.955804	-0.054834	0.214753	-0.193166	1.388343	-25.575934	22.535828
28204		4.294061	0.195946	9.272497	-0.107985	-0.073977	0.406873	-0.035555	0.048768	0.007339	-0.021729	-0.007324	-1.086670	0.042963	0.001978	0.092714	-0.955837	-0.054583	0.214639	-0.193198	1.359821	-25.557153	22.545444
28205		4.250528	0.169866	9.326211	-0.153083	-0.118344	0.436050	-0.025725	0.039879	-0.002929	-0.028809	-0.002930	-1.086670	0.042524	0.001710	0.093253	-0.955855	-0.054426	0.214521	-0.193288	1.341176	-25.540022	22.559761
28206		4.312115	0.244644	9.273632	-0.110033	-0.014532	0.416785	-0.031058	0.032570	-0.008503	-0.026367	-0.002930	-1.088867	0.043136	0.002459	0.092729	-0.955885	-0.054230	0.214476	-0.193244	1.319682	-25.530298	22.559068
28207		4.324455	0.178115	9.234806	-0.058752	-0.060607	0.385702	-0.029098	0.028324	-0.009701	-0.028809	0.001465	-1.091309	0.043258	0.001792	0.092342	-0.955930	-0.054025	0.214473	-0.193082	1.299541	-25.524960	22.543938
28208		4.298277	0.176500	9.240957	-0.082650	-0.069127	0.379958	-0.026230	0.020932	-0.011863	-0.026123	-0.009521	-1.093262	0.042993	0.001775	0.092405	-0.955949	-0.053866	0.214478	-0.193024	1.281806	-25.521864	22.540932
28209		4.303883	0.184250	9.274192	-0.095001	-0.064245	0.412519	-0.017043	0.009503	-0.016622	-0.028809	0.001465	-1.091309	0.043043	0.001847	0.092740	-0.955961	-0.053768	0.214537	-0.192927	1.271344	-25.526231	22.531696
28210		4.346816	0.194617	9.243656	-0.052836	-0.032936	0.403672	-0.014895	0.004721	-0.015810	-0.031006	-0.002930	-1.086670	0.043470	0.001950	0.092435	-0.955964	-0.053684	0.214608	-0.192858	1.261282	-25.532374	22.525952
28211		4.324332	0.248827	9.251480	-0.098521	0.008552	0.402099	-0.016224	-0.000838	-0.015815	-0.026611	0.003662	-1.084717	0.043243	0.002492	0.092515	-0.955988	-0.053562	0.214753	-0.192611	1.250015	-25.546049	22.499295
28212		4.330298	0.329042	9.154219	-0.089174	0.103564	0.318492	-0.018158	0.000831	-0.013367	-0.026367	-0.002930	-1.091309	0.043304	0.003296	0.091542	-0.955985	-0.053463	0.214847	-0.192549	1.237436	-25.554461	22.495039
28213		4.337220	0.337053	9.186859	-0.101660	0.108648	0.351038	-0.016581	0.000700	-0.008840	-0.026611	-0.000732	-1.091309	0.043373	0.003376	0.091868	-0.956007	-0.053328	0.214962	-0.192350	1.223831	-25.564436	22.474543
28214		4.330096	0.326577	9.154402	-0.093091	0.104089	0.318451	-0.019541	0.000893	-0.004909	-0.026611	0.001465	-1.086914	0.043301	0.003274	0.091544	-0.955996	-0.053213	0.215059	-0.192327	1.208138	-25.572920	22.475657
28215		4.319733	0.255670	9.231031	-0.106432	0.023144	0.381700	-0.022534	0.003664	-0.002237	-0.031006	-0.002930	-1.088867	0.043199	0.002567	0.092309	-0.956011	-0.053046	0.215162	-0.192182	1.189528	-25.580776	22.462680
28216		4.307228	0.289742	9.168731	-0.108438	0.063990	0.320719	-0.022790	-0.002535	0.008519	-0.028564	-0.007324	-1.086670	0.043071	0.002910	0.091688	-0.955985	-0.052904	0.215282	-0.192219	1.168305	-25.591384	22.472279
28217		4.331305	0.286590	9.163694	-0.088176	0.072635	0.326473	-0.028388	-0.001108	0.008142	-0.026611	0.001465	-1.089111	0.043312	0.002881	0.091637	-0.955936	-0.052780	0.215392	-0.192374	1.146018	-25.601509	22.496227
28218		4.381675	0.215642	9.171739	-0.024846	0.026650	0.354173	-0.033974	0.000780	0.018750	-0.026611	-0.000732	-1.084717	0.043817	0.002176	0.091717	-0.955906	-0.052571	0.215510	-0.192449	1.115555	-25.610328	22.512377
28219		4.335038	0.179192	9.190961	-0.060186	-0.022472	0.350693	-0.036094	0.002986	0.019188	-0.029053	0.003662	-1.084717	0.043352	0.001813	0.091909	-0.955891	-0.052335	0.215619	-0.192462	1.083864	-25.617574	22.521395
28220		4.310944	0.175683	9.196167	-0.084072	-0.030978	0.344899	-0.032953	0.002259	0.017254	-0.033203	-0.003174	-1.086670	0.043110	0.001776	0.091961	-0.955864	-0.052131	0.215728	-0.192531	1.054379	-25.625515	22.536624
28221		4.267884	0.248640	9.220822	-0.161925	0.020057	0.349674	-0.029898	-0.005668	0.017091	-0.026611	-0.000732	-1.084717	0.042676	0.002504	0.092209	-0.955831	-0.051947	0.215896	-0.192553	1.027289	-25.640688	22.545871
28222		4.323324	0.165488	9.249081	-0.098591	-0.039465	0.397736	-0.027687	-0.015610	0.020409	-0.028809	-0.000732	-1.091309	0.043226	0.001672	0.092494	-0.955780	-0.051782	0.216086	-0.192638	1.000028	-25.658889	22.562910
28223		4.306906	0.156547	9.162370	-0.079209	-0.035404	0.312304	-0.021856	-0.023188	0.014312	-0.021973	-0.000732	-1.089111	0.043058	0.001579	0.091629	-0.955715	-0.051681	0.216287	-0.192764	0.979090	-25.679887	22.583575
28224		4.237896	0.243058	9.170411	-0.178729	0.020644	0.290921	-0.022886	-0.024664	0.015785	-0.029053	0.003662	-1.086914	0.042367	0.002444	0.091709	-0.955657	-0.051553	0.216515	-0.192830	0.955876	-25.703217	22.597602
28225		4.273075	0.215251	9.205574	-0.157907	0.002701	0.337344	-0.020602	-0.039316	0.032584	-0.028809	0.001465	-1.091309	0.042712	0.002169	0.092064	-0.955568	-0.051435	0.216786	-0.192996	0.930035	-25.731882	22.624433
28226		4.155927	0.367994	9.205094	-0.322571	0.104948	0.288097	-0.033366	-0.050797	0.043790	-0.033691	0.008057	-1.084961	0.041535	0.003704	0.092061	-0.955458	-0.051251	0.217155	-0.193178	0.893166	-25.770422	22.656044
28227		4.197492	0.829248	9.212408	-0.481416	0.547516	0.318626	-0.067803	-0.052189	0.091900	-0.029053	0.005859	-1.087158	0.041947	0.008343	0.092132	-0.955331	-0.050822	0.217599	-0.193419	0.822831	-25.811876	22.702529
28228		4.299056	0.731949	9.085009	-0.320564	0.526882	0.245872	-0.114559	-0.043982	0.147866	-0.033447	0.005859	-1.089355	0.042965	0.007403	0.090855	-0.955147	-0.050130	0.218041	-0.194011	0.710456	-25.847242	22.800565
28229		4.158900	0.211532	9.161630	-0.275808	0.000503	0.247162	-0.121820	-0.032861	0.182895	-0.031250	0.005859	-1.084961	0.041572	0.002209	0.091622	-0.954959	-0.049334	0.218451	-0.194674	0.584015	-25.876490	22.910247
28230		4.271135	0.235241	9.307562	-0.264068	0.051076	0.427248	-0.112224	-0.060398	0.200291	-0.031494	0.014648	-1.089600	0.042681	0.002447	0.093087	-0.954703	-0.048613	0.218982	-0.195515	0.458230	-25.921157	23.041800
28231		4.378316	0.201028	9.304703	-0.177812	0.072960	0.470823	-0.117486	-0.093426	0.206823	-0.031494	0.010254	-1.089355	0.043738	0.002110	0.093066	-0.954435	-0.047850	0.219685	-0.196220	0.326807	-25.984529	23.159425
28232		4.470431	0.248262	9.209081	-0.102022	0.180642	0.425011	-0.123060	-0.112563	0.216031	-0.031250	0.008057	-1.087158	0.044650	0.002588	0.092114	-0.954106	-0.047110	0.220478	-0.197110	0.190062	-26.058583	23.301224
28233		4.280494	0.116629	9.205688	-0.226935	0.005738	0.337649	-0.099594	-0.156466	0.212346	-0.038330	0.014648	-1.087402	0.042732	0.001258	0.092090	-0.953724	-0.046539	0.221422	-0.198032	0.068477	-26.153845	23.444635
28234		4.093028	0.153974	9.503649	-0.544844	-0.070073	0.521434	-0.126062	-0.241518	0.190113	-0.045166	0.016846	-1.087402	0.040814	0.001638	0.095085	-0.953274	-0.045940	0.222826	-0.198765	-0.063401	-26.301210	23.570498
28235		4.069487	-0.018999	9.727108	-0.625165	-0.271897	0.709328	-0.111648	-0.367731	0.159271	-0.045166	0.019043	-1.089844	0.040516	-0.000103	0.097346	-0.952735	-0.045532	0.224845	-0.199168	-0.179549	-26.523981	23.657467
28236		3.824097	-0.095617	9.993991	-0.956763	-0.479118	0.834730	-0.145410	-0.508805	0.108316	-0.052002	0.016602	-1.087402	0.037987	-0.000863	0.100037	-0.952061	-0.045198	0.227521	-0.199426	-0.300703	-26.824212	23.732777
28237		3.688432	-0.164804	10.214380	-1.200665	-0.637622	0.963053	-0.180719	-0.693763	0.057211	-0.061035	0.018799	-1.087646	0.036530	-0.001545	0.102272	-0.951248	-0.044911	0.231116	-0.199238	-0.428584	-27.231895	23.762854
28238		3.685123	0.187089	10.402713	-1.513581	-0.364358	1.114664	-0.206968	-0.904152	0.034869	-0.070068	0.020996	-1.078857	0.036380	0.001985	0.104190	-0.950181	-0.044761	0.235711	-0.198980	-0.566050	-27.758699	23.795010
28239		3.482567	0.055036	10.749579	-1.889872	-0.643235	1.309269	-0.217504	-1.153351	0.046858	-0.085693	0.020752	-1.081055	0.034205	0.000675	0.107694	-0.948785	-0.044794	0.241511	-0.198677	-0.714518	-28.429896	23.834851
28240		3.822297	0.424487	10.933609	-1.992246	-0.245807	1.602308	-0.329767	-1.417283	0.055575	-0.099365	0.027100	-1.083496	0.037446	0.004436	0.109596	-0.947042	-0.044543	0.248651	-0.198240	-0.933724	-29.250333	23.889207
28241		3.849854	0.375137	11.084353	-2.202656	-0.342143	1.713486	-0.389128	-1.716144	0.091432	-0.119629	0.029053	-1.072510	0.037544	0.003985	0.111161	-0.944831	-0.044282	0.257270	-0.197850	-1.202134	-30.243512	23.978838
28242		3.839438	0.134902	11.071289	-2.329449	-0.603149	1.656305	-0.455589	-2.039423	0.126330	-0.140137	0.037842	-1.063965	0.037262	0.001626	0.111093	-0.942106	-0.043955	0.267452	-0.197418	-1.529525	-31.418860	24.100406
28243		3.657452	-0.293966	11.051502	-2.548789	-1.108374	1.495160	-0.426838	-2.420097	0.180818	-0.171875	0.041748	-1.059814	0.035236	-0.002671	0.110953	-0.938679	-0.044074	0.279401	-0.197165	-1.870618	-32.814078	24.275388
28244		3.100733	-0.358667	11.773604	-3.615671	-1.571175	1.711588	-0.397906	-2.861658	0.234423	-0.200928	0.041260	-1.046387	0.029323	-0.003317	0.118170	-0.934411	-0.044668	0.293328	-0.197077	-2.233880	-34.456686	24.512260
28245		2.961393	-0.480857	12.060175	-4.180369	-1.880795	1.738112	-0.483557	-3.385852	0.225931	-0.237061	0.045410	-1.026611	0.027572	-0.004484	0.121091	-0.929135	-0.045423	0.309768	-0.196697	-2.667250	-36.405860	24.783192
28246		2.914293	-0.015015	11.760691	-4.638676	-1.512513	1.277072	-0.561304	-3.938143	0.244037	-0.275391	0.049316	-1.020264	0.026820	0.000215	0.118150	-0.922707	-0.046273	0.328689	-0.196045	-3.192233	-38.660962	25.110244
28247		2.856491	0.493094	11.726474	-5.314950	-1.180311	0.969025	-0.610465	-4.542636	0.410956	-0.324951	0.052979	-0.993896	0.025882	0.005345	0.117857	-0.914640	-0.047321	0.350368	-0.196053	-3.876252	-41.259955	25.656279
28248		2.221857	0.313531	12.073529	-6.398921	-1.764016	0.517434	-0.684645	-5.258431	0.658495	-0.381348	0.061035	-0.965332	0.019023	0.003616	0.121252	-0.904584	-0.048145	0.375195	-0.196565	-4.836413	-44.244212	26.486460
28249		1.175437	0.185169	11.979750	-7.498178	-2.342076	-0.692600	-0.796048	-6.121605	0.905708	-0.439941	0.064697	-0.934570	0.008072	0.002371	0.120073	-0.891924	-0.048835	0.403764	-0.197639	-6.182143	-47.693656	27.723094
28250		1.627882	0.777786	11.231818	-7.504849	-1.632750	-1.424423	-0.893545	-7.140430	1.225391	-0.505615	0.083740	-0.888672	0.012208	0.008364	0.112766	-0.875886	-0.049370	0.436591	-0.199436	-8.126415	-51.674440	29.594754
28251		1.270571	1.643938	10.015032	-7.700881	-0.806431	-3.134335	-0.941537	-8.338972	1.541877	-0.575684	0.095947	-0.827148	0.008390	0.016988	0.100481	-0.855559	-0.050122	0.474070	-0.201903	-10.962941	-56.245812	32.428599
28252		4.574984	3.383936	8.675560	-6.441338	1.940927	-1.919292	-1.048480	-9.596109	1.883564	-0.654785	0.112549	-0.759033	0.041202	0.034703	0.088625	-0.830103	-0.050768	0.516134	-0.204832	-15.386758	-61.364684	36.887536
28253		9.675399	4.029467	7.307772	-4.608899	4.184616	1.338616	-1.934280	-10.693421	2.131331	-0.729980	0.140381	-0.664795	0.092239	0.042031	0.077691	-0.799529	-0.048088	0.562266	-0.205663	-23.034427	-66.762335	44.144810
28254		20.676106	-2.934527	10.380751	-3.473967	-0.378098	13.231946	-2.842685	-11.033748	2.013651	-0.791504	0.168213	-0.570557	0.200877	-0.025717	0.115385	-0.765749	-0.042300	0.608884	-0.202728	-35.536590	-71.742113	55.750242
28255		23.535704	-10.218513	13.329171	-5.669962	-7.722875	17.455764	-1.698280	-9.830170	1.087927	-0.838623	0.169434	-0.479736	0.228950	-0.099726	0.145507	-0.734097	-0.042370	0.647726	-0.199391	-51.262709	-75.439926	71.110538
28256		23.314269	-1.019455	15.820243	-13.524405	-0.840488	14.901286	-0.442466	-8.469113	0.591970	-0.870117	0.166748	-0.408691	0.226196	-0.009154	0.167902	-0.705459	-0.047200	0.678848	-0.198155	-69.951785	-77.555282	90.053280
28257		18.909489	0.808625	17.768286	-17.618578	-1.462744	9.189415	-0.139029	-7.301044	0.500049	-0.892578	0.170654	-0.337891	0.182422	0.008675	0.184419	-0.679721	-0.052185	0.704425	-0.197588	-89.413333	-78.027582	109.871579
28258		17.655951	0.156104	17.546004	-18.189378	-2.804559	6.941974	0.330635	-5.923163	0.588392	-0.910156	0.161377	-0.277588	0.171256	0.001774	0.180588	-0.657831	-0.057031	0.724127	-0.199113	-104.513615	-77.269549	125.514727
28259		10.280994	1.076180	15.782558	-16.567844	-3.106435	-1.344827	0.681952	-5.697690	0.826185	-0.918945	0.156738	-0.217529	0.098215	0.010629	0.160704	-0.635894	-0.061905	0.742136	-0.202584	-116.195601	-75.678304	137.925232
28260		22.467402	4.377033	25.071522	-29.011922	-2.127747	7.683873	0.980829	-4.151220	0.612116	-0.914063	0.147705	-0.186279	0.219271	0.043202	0.255517	-0.619356	-0.066910	0.754416	-0.206828	-122.718645	-74.192422	145.257010
28261		22.450073	7.698225	26.802590	-32.161173	-0.362527	5.908134	1.264071	-1.304012	0.260187	-0.909424	0.138916	-0.179199	0.222646	0.075571	0.269962	-0.613716	-0.071168	0.757209	-0.211947	-123.878496	-73.656294	147.215143
28262		9.053863	7.397485	22.767511	-25.315163	-1.335822	-6.290643	0.906394	0.940281	-0.115562	-0.904297	0.123535	-0.183105	0.091651	0.072891	0.227578	-0.616999	-0.073357	0.753365	-0.215343	-121.946529	-73.996421	145.740095
28263		2.236208	3.828922	17.764392	-17.904418	-3.652506	-10.958501	1.034054	1.824844	-0.504993	-0.892334	0.105957	-0.195801	0.024078	0.037311	0.177624	-0.624015	-0.076465	0.746386	-0.218325	-118.641400	-74.774772	142.921471
28264		-1.348443	1.737943	14.467239	-13.401160	-4.831548	-13.158183	1.460025	2.148499	-0.902259	-0.882813	0.086182	-0.212646	-0.011853	0.016378	0.144928	-0.632338	-0.082004	0.737734	-0.221749	-114.523003	-75.780791	139.524256
28265		-2.061826	1.170381	13.172086	-11.909352	-5.053821	-13.238793	1.876352	2.285673	-1.168239	-0.879639	0.059570	-0.225098	-0.019046	0.010580	0.132047	-0.641238	-0.089687	0.727840	-0.225874	-109.472899	-76.894201	135.431931
28266		-1.366144	1.499565	12.876546	-11.909917	-4.704678	-12.246885	2.036929	2.502927	-1.306353	-0.876709	0.039551	-0.242188	-0.011955	0.013764	0.129067	-0.650750	-0.098101	0.716882	-0.230176	-103.100198	-78.009676	130.095293
28267		-0.404792	1.862883	12.792467	-12.117561	-4.369366	-10.969019	1.842522	2.902375	-1.308181	-0.871338	0.017578	-0.267822	-0.002073	0.017467	0.128129	-0.661674	-0.105415	0.704534	-0.233897	-94.500036	-79.008476	122.395568
28268		0.132489	0.846208	12.346392	-11.282603	-5.084435	-9.800329	1.520024	3.381997	-1.231042	-0.857422	0.006592	-0.291992	0.003461	0.007507	0.123477	-0.674041	-0.110775	0.690850	-0.236906	-83.299765	-79.675469	111.882051
28269		0.396031	-1.058926	11.525637	-9.616473	-6.366186	-8.765770	1.322911	3.836619	-1.105892	-0.850098	-0.015381	-0.320068	0.006108	-0.011381	0.115079	-0.687756	-0.114471	0.675559	-0.239810	-69.874760	-79.782512	99.008948
28270		0.478258	-2.874618	10.627448	-7.851579	-7.514745	-7.996384	1.398425	4.236094	-0.947475	-0.845215	-0.021973	-0.350830	0.006890	-0.029517	0.105939	-0.702164	-0.117343	0.658666	-0.243628	-56.138216	-79.161125	85.850288
28271		0.711623	-3.689671	10.071238	-6.806474	-7.917645	-7.260453	1.672172	4.568944	-0.756113	-0.842529	-0.037354	-0.396729	0.009268	-0.037768	0.100204	-0.716976	-0.120088	0.639910	-0.249078	-43.923803	-77.801806	74.363725
28272		1.380809	-3.327047	9.950060	-6.631296	-7.426339	-6.230509	1.956424	4.867336	-0.545227	-0.828857	-0.043701	-0.445313	0.016126	-0.034281	0.098795	-0.731749	-0.122715	0.619548	-0.256211	-34.289399	-75.833731	65.618117
28273		2.302397	-2.123534	10.044797	-6.967705	-6.250323	-5.010083	2.064162	5.168207	-0.338746	-0.812988	-0.052246	-0.496094	0.025568	-0.022308	0.099583	-0.746680	-0.124632	0.597505	-0.264430	-26.998816	-73.376158	59.284002
28274		2.925146	-1.001635	10.016878	-7.132496	-5.110267	-4.078620	1.972132	5.447497	-0.189805	-0.787842	-0.064941	-0.557617	0.031953	-0.011027	0.099217	-0.761611	-0.125281	0.574268	-0.272891	-21.637740	-70.581273	54.832182
28275		3.111233	-0.449889	9.711099	-6.801491	-4.369263	-3.583194	1.790464	5.629740	-0.124224	-0.760254	-0.080078	-0.612549	0.033825	-0.005383	0.096139	-0.776529	-0.124706	0.550011	-0.280960	-17.594197	-67.559144	51.602305
28276		3.300021	0.265413	9.642645	-6.744363	-3.579035	-3.058782	1.600555	5.688981	-0.152531	-0.717285	-0.090576	-0.674072	0.035726	0.001861	0.095453	-0.791003	-0.123270	0.525419	-0.288192	-14.482205	-64.457557	49.196595
28277		4.219432	0.465552	9.988543	-6.457567	-3.128298	-1.671957	1.408440	5.686083	-0.245736	-0.674316	-0.103027	-0.731445	0.045016	0.003904	0.098661	-0.805123	-0.121228	0.500469	-0.294297	-11.945829	-61.310356	47.254794
28278		5.604891	0.394838	10.699737	-5.998624	-2.828268	0.288318	1.332382	5.733312	-0.434882	-0.614990	-0.126709	-0.774658	0.059092	0.003116	0.105355	-0.818906	-0.119168	0.475030	-0.299229	-9.718659	-58.138569	45.556111
28279		6.660603	0.727355	11.415904	-5.719153	-2.244699	1.909734	1.323240	5.846593	-0.706044	-0.560303	-0.145752	-0.822754	0.069929	0.006284	0.112191	-0.832722	-0.117452	0.448413	-0.302827	-7.588666	-54.879386	43.912976
28280		7.203395	1.067972	11.924108	-5.358958	-1.702070	2.975436	1.302002	5.963552	-1.036142	-0.490234	-0.164795	-0.862061	0.075598	0.009527	0.117087	-0.846457	-0.116089	0.420875	-0.304793	-5.541187	-51.561012	42.284011
28281		7.321378	0.929107	11.996516	-4.511041	-1.490421	3.444248	1.277146	5.985325	-1.384003	-0.424316	-0.186279	-0.889893	0.076819	0.008011	0.117756	-0.860034	-0.115219	0.392520	-0.304948	-3.544663	-48.196322	40.632539
28282		7.510583	1.075784	12.161572	-3.816833	-1.073350	3.959889	1.265577	5.841290	-1.684490	-0.354004	-0.203125	-0.911377	0.078698	0.009345	0.119414	-0.872886	-0.114986	0.364400	-0.303415	-1.649683	-44.905231	39.016610
28283		8.372931	1.251930	13.029824	-3.103086	-0.637665	5.397250	1.226157	5.552165	-1.874252	-0.292725	-0.219971	-0.928467	0.087411	0.010922	0.127976	-0.884777	-0.115267	0.336996	-0.300527	0.108929	-41.729451	37.479985
28284		11.085476	1.715884	15.087501	-1.917996	0.405513	8.882910	1.179239	5.254204	-1.955403	-0.229248	-0.234619	-0.943359	0.114923	0.015170	0.147985	-0.895494	-0.115817	0.310803	-0.296779	1.685217	-38.710728	36.079794
28285		14.480800	2.505451	16.862139	0.006393	2.214571	12.441890	1.025908	5.176171	-1.967117	-0.166260	-0.238281	-0.938721	0.149340	0.022748	0.164916	-0.905532	-0.115730	0.284767	-0.292448	3.037378	-35.691544	34.818317
28286		16.348870	2.217730	17.084560	2.554605	3.121712	13.589636	0.762664	5.179458	-1.967368	-0.107666	-0.244141	-0.945068	0.168044	0.019898	0.166611	-0.914961	-0.114347	0.259041	-0.287522	4.106731	-32.668578	33.686143
28287		17.716922	0.410418	16.107857	6.201345	2.999848	13.120377	0.593474	5.044478	-2.031406	-0.052002	-0.230225	-0.941162	0.181182	0.001808	0.156550	-0.923753	-0.112387	0.233777	-0.281777	5.011372	-29.685612	32.598290
28288		20.374908	-1.273427	15.347659	10.571629	3.401911	13.183658	0.612154	4.778274	-2.121995	-0.005127	-0.225098	-0.938965	0.207183	-0.015380	0.148509	-0.931641	-0.110906	0.209661	-0.275296	5.867931	-26.854167	31.522356
28289		25.638705	-2.172594	14.847396	16.442868	5.451004	14.316955	0.706991	4.576240	-2.171541	0.041748	-0.215820	-0.921631	0.259433	-0.025043	0.142476	-0.938744	-0.110127	0.186029	-0.268374	6.726019	-24.103007	30.471474
28290		31.360593	-1.066455	13.546102	21.985818	9.535469	14.550152	0.706833	4.808447	-2.097711	0.077393	-0.204346	-0.919678	0.316602	-0.014436	0.127826	-0.945295	-0.108887	0.161381	-0.261758	7.481774	-21.229823	29.551379
28291		32.476140	1.061423	9.841577	23.927767	13.056191	10.420374	0.380530	5.282631	-1.898439	0.126465	-0.197021	-0.913330	0.327290	0.007339	0.089809	-0.951467	-0.105247	0.134766	-0.255873	7.939666	-18.077994	28.839183
28292		29.357151	0.980980	3.683572	23.558941	13.346922	2.144618	-0.016181	5.383049	-1.678396	0.166748	-0.194336	-0.908936	0.294489	0.007343	0.028916	-0.956858	-0.099355	0.108332	-0.250629	8.080280	-14.899241	28.297165
28293		26.394477	-0.576346	-2.705498	23.312303	12.197791	-6.360540	-0.071359	4.854949	-1.602979	0.209229	-0.182617	-0.902588	0.263127	-0.007886	-0.033447	-0.961220	-0.093756	0.084332	-0.245265	8.162565	-12.011858	27.768106
28294		24.704346	-1.449338	-6.942853	22.906980	11.421481	-12.121521	0.214424	3.920188	-1.589656	0.231689	-0.182373	-0.893555	0.245494	-0.016371	-0.074268	-0.964496	-0.090612	0.064553	-0.239522	8.391607	-9.667465	27.182380
28295		27.094549	-2.018692	-9.365251	25.463415	12.216198	-15.123631	0.579337	2.826029	-1.644239	0.251953	-0.188721	-0.891113	0.269409	-0.022127	-0.097529	-0.966978	-0.090533	0.049467	-0.233044	8.829647	-7.924184	26.487324
28296		27.474522	-2.318384	-10.988063	26.000305	12.111977	-17.441831	0.686613	1.901462	-1.702409	0.270264	-0.197510	-0.888672	0.273475	-0.025132	-0.112569	-0.969029	-0.092033	0.038786	-0.225849	9.320317	-6.703985	25.692030
28297		27.241712	-3.047538	-11.515105	26.154644	11.080614	-18.594661	0.367691	0.964731	-1.903306	0.272461	-0.192871	-0.888916	0.271552	-0.032849	-0.116521	-0.971135	-0.093085	0.032831	-0.217150	9.639599	-5.980672	24.703744
28298		27.928861	-2.810687	-11.767012	26.810481	11.124018	-18.967309	-0.322968	0.068953	-2.037617	0.270020	-0.188477	-0.893311	0.278941	-0.031140	-0.117718	-0.973451	-0.091754	0.031983	-0.207249	9.567933	-5.756447	23.555650
28299		27.970948	-4.358905	-11.427903	27.696716	9.103246	-18.865663	-1.004323	-0.769444	-1.798665	0.262695	-0.170898	-0.896240	0.279735	-0.046674	-0.112974	-0.975587	-0.087943	0.035978	-0.197992	9.103591	-6.028529	22.464009
28300		22.316717	9.509916	-8.169194	17.266212	18.447999	-13.903364	-2.499231	-2.055459	-1.032273	0.227783	-0.140137	-0.912842	0.224482	0.092931	-0.080560	-0.977190	-0.077940	0.048105	-0.191601	7.754565	-7.116245	21.703986
28301		5.894543	-8.012808	-13.498630	9.708606	-3.112293	-23.121597	-5.048138	-3.777885	0.369075	0.178955	-0.089600	-0.932617	0.061607	-0.083369	-0.131762	-0.977398	-0.056773	0.071573	-0.190650	4.864649	-9.297282	21.679090
28302		-1.515006	-23.031691	18.571018	4.515930	-24.285845	6.535662	-3.398431	-6.305104	0.319831	0.122070	-0.070313	-0.942139	-0.020710	-0.227154	0.188994	-0.975161	-0.046004	0.105747	-0.189111	2.924459	-12.922988	21.618805
28303		14.074780	-19.087045	22.943385	14.923058	-15.693034	15.079489	-1.429223	-5.415829	0.086503	0.065430	-0.055420	-0.945068	0.134525	-0.189148	0.234489	-0.972149	-0.044081	0.133539	-0.187484	2.124815	-16.031692	21.532304
28304		28.315744	-19.945236	10.848857	29.821208	-9.907581	8.343617	-0.671482	-4.380234	1.133899	0.024658	-0.047119	-0.943115	0.281805	-0.197472	0.115336	-0.968038	-0.044131	0.155757	-0.191558	1.557690	-18.570070	22.131784
28305		21.181453	-12.284208	13.116144	19.293861	-5.672698	9.347075	0.224586	-3.650755	1.308749	-0.015625	-0.049805	-0.945313	0.210174	-0.121613	0.134871	-0.963693	-0.047661	0.173545	-0.197250	1.433150	-20.688644	22.873583
28306		18.538510	2.686724	18.584181	8.724792	6.070475	14.337736	0.762582	-2.877638	0.644411	-0.035889	-0.054443	-0.947510	0.182598	0.026743	0.188585	-0.960247	-0.053584	0.186875	-0.200331	1.737056	-22.356067	23.225308
28307		11.583193	12.438162	14.679636	-0.314968	12.898047	8.569310	0.139540	-2.048052	0.061603	-0.055908	-0.054932	-0.942871	0.114282	0.124314	0.148059	-0.958163	-0.056217	0.196660	-0.200221	1.811405	-23.539230	23.228295
28308		12.419163	5.242334	14.822373	2.936023	6.461797	8.923283	-0.480833	-1.834840	-0.384967	-0.069824	-0.048340	-0.940918	0.122927	0.052544	0.149229	-0.956813	-0.056102	0.205898	-0.197401	1.642852	-24.592475	22.956213
28309		12.654908	-8.626508	9.832223	10.368601	-5.271197	4.185246	-0.366131	-0.214513	-0.159172	-0.070068	-0.039551	-0.943604	0.126375	-0.086185	0.098616	-0.956827	-0.054704	0.207329	-0.196223	1.471046	-24.722502	22.856298
28310		5.357308	-1.065404	9.831628	1.201388	-0.932428	1.331091	0.154894	-0.406512	-0.020105	-0.078857	-0.046143	-0.941162	0.053372	-0.010736	0.098417	-0.956360	-0.055839	0.209199	-0.196198	1.562239	-24.964099	22.840951
28311		5.421668	3.361298	9.485918	-0.398190	3.194610	1.155965	-0.001101	-0.050576	-0.103556	-0.076416	-0.046143	-0.941162	0.054210	0.033585	0.094873	-0.956386	-0.055967	0.209505	-0.195709	1.583693	-25.001430	22.778842
28312		5.552276	0.798927	10.063355	0.502753	0.780493	1.671007	-0.084073	-0.094907	0.010830	-0.076416	-0.046143	-0.943359	0.055475	0.008035	0.100657	-0.956278	-0.055621	0.210127	-0.195668	1.527562	-25.065029	22.788193
28313		5.313307	-0.040764	9.636293	0.783332	0.012312	1.163525	-0.082785	-0.095933	0.062475	-0.076416	-0.046143	-0.943359	0.053087	-0.000351	0.096389	-0.956115	-0.055229	0.210776	-0.195874	1.458274	-25.130948	22.830307
28314		4.985532	-0.547605	9.495729	0.751076	-0.536894	0.886466	-0.039400	-0.078457	0.040681	-0.081299	-0.035156	-0.946045	0.049819	-0.005447	0.094978	-0.955982	-0.055049	0.211285	-0.196027	1.419514	-25.185537	22.858962
28315		4.738242	0.093946	9.391414	0.319992	-0.014221	0.701865	-0.021333	-0.037572	0.014142	-0.074463	-0.043945	-0.943359	0.047365	0.000953	0.093923	-0.955911	-0.054945	0.211581	-0.196083	1.397897	-25.217315	22.871540
28316		4.343855	0.443680	9.348058	-0.137686	0.177822	0.502424	-0.036041	-0.027774	0.008607	-0.083496	-0.041748	-0.938965	0.043425	0.004456	0.093486	-0.955862	-0.054766	0.211835	-0.196100	1.369323	-25.242405	22.880736
28317		4.155439	0.114189	9.424454	-0.200015	-0.202062	0.483924	-0.050663	-0.043187	0.014000	-0.081299	-0.037354	-0.943604	0.041534	0.001169	0.094253	-0.955793	-0.054527	0.212187	-0.196123	1.330951	-25.277367	22.893178
28318		4.320300	-0.200235	9.388725	0.067795	-0.423354	0.515402	-0.037221	-0.056505	0.007303	-0.087891	-0.041992	-0.941162	0.043177	-0.001983	0.093900	-0.955714	-0.054371	0.212579	-0.196125	1.302207	-25.318887	22.901168
28319		4.433509	-0.223924	9.297354	0.197336	-0.389028	0.480837	-0.004945	-0.081471	-0.008980	-0.085693	-0.041748	-0.943604	0.044297	-0.002239	0.092992	-0.955614	-0.054413	0.213062	-0.196076	1.296443	-25.375423	22.898539
28320		4.322175	-0.114577	9.432841	-0.000661	-0.358293	0.557676	0.023893	-0.094867	-0.030562	-0.081055	-0.043945	-0.945557	0.043177	-0.001164	0.094349	-0.955515	-0.054627	0.213567	-0.195951	1.313233	-25.438422	22.881978
28321		4.402822	0.025260	9.264794	0.065595	-0.178305	0.443324	0.036401	-0.115315	-0.044223	-0.083252	-0.043945	-0.938965	0.043975	0.000226	0.092673	-0.955401	-0.054936	0.214161	-0.195769	1.340980	-25.513842	22.856463
28322		4.370785	0.404137	9.251326	-0.116993	0.150983	0.425361	0.040583	-0.117147	-0.046424	-0.092285	-0.044189	-0.938965	0.043655	0.004012	0.092540	-0.955288	-0.055269	0.214752	-0.195580	1.371895	-25.589374	22.829414
28323		4.322189	0.533228	9.185365	-0.193792	0.256184	0.347696	0.019938	-0.112062	-0.041535	-0.092285	-0.041992	-0.941162	0.043172	0.005314	0.091878	-0.955179	-0.055494	0.215347	-0.195393	1.389560	-25.662915	22.805543
28324		4.324314	0.576681	9.261886	-0.250050	0.275698	0.418453	0.007585	-0.107039	-0.020214	-0.085693	-0.041748	-0.945801	0.043194	0.005759	0.092642	-0.955060	-0.055630	0.215928	-0.195297	1.394376	-25.733007	22.795226
28325		4.382081	0.733265	9.110053	-0.216335	0.465256	0.310065	-0.025812	-0.090229	0.010512	-0.090088	-0.041992	-0.943604	0.043779	0.007347	0.091119	-0.954936	-0.055559	0.216478	-0.195315	1.371391	-25.794725	22.804753
28326		4.378789	0.835070	9.169805	-0.293493	0.548473	0.364223	-0.070072	-0.051571	0.036242	-0.088135	-0.037354	-0.947998	0.043763	0.008391	0.091706	-0.954842	-0.055210	0.216886	-0.195419	1.315704	-25.833812	22.831241
28327		4.453776	0.648085	9.168671	-0.166528	0.410863	0.391435	-0.102383	-0.033823	0.054512	-0.094971	-0.035400	-0.941406	0.044520	0.006540	0.091691	-0.954757	-0.054671	0.217253	-0.195580	1.236268	-25.863735	22.869693
28328		4.465681	0.561148	9.095905	-0.103490	0.359958	0.328929	-0.114928	-0.027762	0.084787	-0.092529	-0.039795	-0.939209	0.044642	0.005683	0.090962	-0.954653	-0.054032	0.217604	-0.195874	1.141170	-25.889696	22.927534
28329		4.444523	0.545954	9.100344	-0.127417	0.351357	0.322814	-0.132899	-0.020800	0.116631	-0.092773	-0.032959	-0.941650	0.044433	0.005546	0.091004	-0.954528	-0.053267	0.217955	-0.196302	1.026848	-25.912693	23.005818
28330		4.414560	0.343584	9.086394	-0.077188	0.173850	0.293387	-0.136248	-0.015929	0.149992	-0.090576	-0.032959	-0.946045	0.044136	0.003531	0.090865	-0.954377	-0.052443	0.218288	-0.196886	0.901222	-25.932300	23.105455
28331		4.395768	-0.016385	9.150727	0.014175	-0.158106	0.337860	-0.127626	-0.017576	0.159226	-0.090576	-0.028564	-0.941650	0.043950	-0.000070	0.091511	-0.954211	-0.051653	0.218629	-0.197523	0.777947	-25.953483	23.211033
28332		4.374039	-0.275212	9.186160	0.074364	-0.394451	0.357482	-0.106046	-0.036621	0.147279	-0.090576	-0.028564	-0.937256	0.043726	-0.002671	0.091871	-0.954030	-0.050997	0.219030	-0.198122	0.670326	-25.984549	23.308903
28333		4.279297	-0.258519	9.305788	-0.070166	-0.423603	0.424135	-0.074613	-0.062058	0.123963	-0.092773	-0.028564	-0.939453	0.042766	-0.002524	0.093072	-0.953834	-0.050543	0.219520	-0.198637	0.587224	-26.030616	23.391836
28334		4.286217	-0.390259	9.317827	-0.030019	-0.537269	0.437010	-0.051605	-0.101793	0.100851	-0.095215	-0.026367	-0.939697	0.042817	-0.003857	0.093201	-0.953613	-0.050262	0.220166	-0.199057	0.523757	-26.098504	23.459873
28335		4.337114	-0.374608	9.260969	0.012448	-0.492529	0.408549	-0.018704	-0.140228	0.075440	-0.102051	-0.026611	-0.937500	0.043308	-0.003721	0.092640	-0.953364	-0.050205	0.220961	-0.199383	0.486224	-26.188907	23.511610
28336		4.401318	-0.291644	9.237334	0.022939	-0.392687	0.416205	0.010020	-0.189686	0.058388	-0.097412	-0.024170	-0.939697	0.043926	-0.002908	0.092415	-0.953070	-0.050352	0.221953	-0.199646	0.469981	-26.306867	23.552261
28337		4.486717	0.026158	9.143102	-0.017755	-0.061173	0.371787	0.030278	-0.209214	0.056748	-0.102051	-0.024414	-0.937500	0.044771	0.000260	0.091478	-0.952749	-0.050617	0.223023	-0.199918	0.465689	-26.436642	23.591858
28338		4.426126	0.322371	9.177875	-0.223732	0.173259	0.377886	0.024716	-0.230398	0.078363	-0.101807	-0.028809	-0.941650	0.044154	0.003230	0.091830	-0.952384	-0.050852	0.224198	-0.200282	0.452027	-26.578006	23.645225
28339		4.528323	0.293463	9.193369	-0.160425	0.172811	0.436908	0.015491	-0.253868	0.109266	-0.111084	-0.024414	-0.937500	0.045165	0.002952	0.091991	-0.951962	-0.051033	0.225508	-0.200776	0.424012	-26.733549	23.718440
28340		4.371924	0.205558	9.282698	-0.317498	0.012071	0.445160	0.021725	-0.272343	0.135597	-0.108643	-0.028809	-0.941650	0.043591	0.002075	0.092887	-0.951489	-0.051231	0.226900	-0.201398	0.391760	-26.899137	23.808645
28341		4.194977	0.454403	9.429092	-0.656373	0.139746	0.495641	0.002752	-0.340707	0.146852	-0.115479	-0.024414	-0.939697	0.041786	0.004573	0.094362	-0.950928	-0.051396	0.228643	-0.202033	0.345058	-27.104459	23.906101
28342		4.066661	0.536066	9.555555	-0.887879	0.134427	0.547195	-0.021423	-0.422477	0.158710	-0.115234	-0.028809	-0.941650	0.040460	0.005403	0.095641	-0.950264	-0.051514	0.230797	-0.202675	0.280638	-27.356005	24.011312
28343		3.915165	0.424390	9.777165	-1.111810	-0.074721	0.668704	-0.090147	-0.559154	0.169634	-0.126709	-0.026855	-0.937500	0.038874	0.004321	0.097879	-0.949441	-0.051432	0.233675	-0.203253	0.172940	-27.686256	24.123945
28344		3.684657	-0.210190	9.997814	-1.200741	-0.793801	0.746894	-0.061061	-0.724659	0.198593	-0.131104	-0.026855	-0.933105	0.036486	-0.002035	0.100111	-0.948378	-0.051621	0.237310	-0.203957	0.072075	-28.110676	24.256181
28345		3.673863	0.067931	10.242688	-1.517967	-0.620369	0.944844	0.016762	-0.985365	0.211079	-0.144775	-0.022705	-0.935303	0.036233	0.000709	0.102606	-0.946952	-0.052429	0.242103	-0.204742	0.010358	-28.684711	24.397736
28346		3.826244	-0.382905	10.333913	-1.362758	-1.038829	1.079453	0.033898	-1.230443	0.178735	-0.157959	-0.027344	-0.924072	0.037629	-0.003813	0.103571	-0.945228	-0.053606	0.248020	-0.205323	-0.033383	-29.398652	24.519598
28347		3.934278	-0.718666	10.495799	-1.348983	-1.400702	1.249532	0.082735	-1.523971	0.120059	-0.178467	-0.023193	-0.922119	0.038546	-0.007207	0.105251	-0.943139	-0.055386	0.255247	-0.205598	-0.032029	-30.281018	24.604086
28348		4.037042	-0.870391	10.645120	-1.442216	-1.616061	1.397960	0.090026	-1.830506	0.017608	-0.193848	-0.030029	-0.917480	0.039395	-0.008748	0.106811	-0.940694	-0.057642	0.263863	-0.205300	0.007015	-31.338787	24.620746
28349		3.892956	-1.608416	10.686230	-1.466370	-2.450262	1.312890	0.095439	-2.170216	-0.092386	-0.214355	-0.025879	-0.915283	0.037760	-0.016153	0.107269	-0.937816	-0.060411	0.274014	-0.204372	0.088822	-32.591274	24.561845
28350		3.437123	-1.271343	10.884114	-2.286761	-2.475602	1.165870	0.176881	-2.598069	-0.186253	-0.238770	-0.032715	-0.906250	0.032942	-0.012841	0.109264	-0.934286	-0.064118	0.286019	-0.202957	0.256723	-34.088511	24.433481
28351		3.024617	-0.612535	11.143387	-3.278229	-2.230863	1.048451	0.166255	-3.089353	-0.217445	-0.272217	-0.035400	-0.890625	0.028514	-0.006250	0.111878	-0.929895	-0.068305	0.300259	-0.201182	0.439737	-35.866697	24.273181
28352		2.980767	-0.299904	11.398980	-3.902420	-2.199052	1.088294	0.178383	-3.657012	-0.171451	-0.306152	-0.033691	-0.884277	0.027714	-0.003125	0.114507	-0.924331	-0.073031	0.317054	-0.199386	0.623431	-37.970016	24.130893
28353		2.477239	-0.233856	11.647304	-4.813596	-2.559521	0.775391	0.097665	-4.296029	-0.101382	-0.350830	-0.038818	-0.857422	0.022262	-0.002407	0.116968	-0.917344	-0.077879	0.336778	-0.197473	0.743325	-40.439220	24.023168
28354		1.896081	-0.599196	12.356628	-5.930378	-3.482969	0.642263	0.112244	-5.108352	-0.003569	-0.393555	-0.037109	-0.833252	0.015797	-0.006062	0.123993	-0.908371	-0.083389	0.360065	-0.195606	0.838271	-43.374807	23.971342
28355		0.641661	-0.419009	13.350481	-7.969461	-4.228102	0.055356	0.170889	-6.090913	0.116645	-0.449951	-0.031250	-0.804688	0.002351	-0.004302	0.133614	-0.896768	-0.089840	0.387513	-0.193826	0.914527	-46.873467	23.996005
28356		0.091362	1.361742	13.502315	-9.717732	-3.093028	-0.863142	0.290381	-7.207944	0.287113	-0.519287	-0.038818	-0.764404	-0.003971	0.013418	0.134958	-0.881776	-0.097481	0.419499	-0.192323	0.961279	-51.014489	24.149326
28357		-1.670879	3.024785	12.763625	-11.443169	-2.072024	-3.526982	0.243227	-8.467106	0.519604	-0.584473	-0.033203	-0.700439	-0.022168	0.030040	0.126811	-0.862577	-0.105481	0.456527	-0.190833	0.789516	-55.877338	24.531213
28358		-1.282482	2.710993	11.862371	-10.912693	-2.199252	-4.746917	0.226099	-10.113103	0.589657	-0.663330	-0.027832	-0.629883	-0.018877	0.026927	0.117801	-0.837672	-0.114589	0.499711	-0.188320	0.454757	-61.684115	25.068889
28359		5.496831	2.367467	10.441709	-7.457601	-0.980970	-0.426229	0.436373	-11.821410	0.489635	-0.739502	-0.029053	-0.527832	0.048616	0.023567	0.107468	-0.805940	-0.126081	0.548246	-0.184364	0.167574	-68.465560	25.656147
28360		15.607396	2.780964	12.064462	-7.229643	-0.424864	8.731660	0.544918	-12.738837	0.518179	-0.806885	-0.027832	-0.428223	0.147903	0.027854	0.130319	-0.768534	-0.138301	0.598325	-0.179541	-0.529289	-75.772650	26.710522
28361		28.481918	3.428232	16.118115	-10.971569	-1.371566	21.159489	0.059114	-11.688383	0.859883	-0.856445	-0.022217	-0.319824	0.274611	0.035427	0.177445	-0.731419	-0.146170	0.642779	-0.174631	-4.660915	-82.451083	30.941168
28362		27.466424	4.242249	13.282005	-12.003968	-0.618332	18.533310	-0.678534	-10.307103	1.297293	-0.884033	-0.007080	-0.224854	0.267060	0.044654	0.146569	-0.696626	-0.148285	0.681191	-0.169418	-40.872335	-87.879412	66.841420
28363		20.934355	5.228159	14.142087	-15.626335	-0.963389	10.681386	-1.226527	-9.113112	1.612684	-0.904785	0.012451	-0.143555	0.202189	0.054836	0.150414	-0.664347	-0.146043	0.714456	-0.163909	-147.707137	-85.688381	173.045823
28364		14.376398	0.476652	17.165869	-17.315668	-6.855285	2.614175	-1.190272	-8.540759	1.581993	-0.911865	0.023193	-0.059570	0.136215	0.006909	0.177547	-0.632723	-0.143262	0.744321	-0.158506	-159.861348	-80.863723	-175.417653
28365		17.293432	0.292032	21.027415	-22.178663	-8.920826	3.205190	0.122261	-7.617432	0.977778	-0.918701	0.022949	0.009033	0.164746	0.003608	0.216656	-0.603021	-0.145905	0.768502	-0.156469	-163.914313	-76.533119	-171.219954
28366		13.977295	-1.589312	21.666054	-21.821412	-11.173723	-1.683335	1.061527	-5.991208	0.616786	-0.918945	0.036133	0.061768	0.133253	-0.016640	0.220631	-0.578403	-0.151318	0.785879	-0.157946	-165.397876	-73.118974	-169.057553
28367		24.886255	1.286700	29.545690	-33.243685	-13.004385	5.003312	1.676801	-3.433613	0.813600	-0.918945	0.035889	0.081787	0.243692	0.011364	0.299770	-0.562870	-0.155617	0.794974	-0.164246	-164.615527	-71.094338	-168.873856
28368		35.527802	5.873207	36.089402	-44.142609	-12.811797	12.242338	1.773314	1.077543	0.751159	-0.919189	0.038330	0.046143	0.357001	0.056879	0.359483	-0.565060	-0.156693	0.791077	-0.174217	-161.853848	-71.551653	-170.720717
28369		7.491921	5.618172	24.119540	-25.066469	-6.402160	-9.926809	1.514921	4.740202	0.658791	-0.916992	0.042969	-0.002686	0.080432	0.054621	0.239750	-0.581867	-0.154156	0.776644	-0.185716	-156.750348	-73.959361	-175.157717
28370		1.014058	2.650863	16.936932	-15.888267	-5.691240	-12.977599	1.209436	5.494548	1.036384	-0.907959	0.041016	-0.066895	0.014656	0.025553	0.169164	-0.601008	-0.148454	0.760078	-0.197567	-148.577972	-76.479079	177.105568
28371		-4.785940	-0.331621	10.188470	-7.566022	-5.378107	-16.185594	1.621154	5.623939	1.100842	-0.894775	0.045654	-0.126953	-0.044948	-0.004402	0.103143	-0.619826	-0.143492	0.742062	-0.211114	-136.453775	-78.662316	165.642745
28372		-5.440064	-0.220379	8.058390	-5.883746	-4.572026	-16.060337	2.111392	5.161570	1.162883	-0.892578	0.048096	-0.178223	-0.052280	-0.003372	0.081920	-0.635922	-0.140184	0.724435	-0.226152	-120.763714	-79.989148	150.907414
28373		-2.954637	0.692070	8.127592	-6.904091	-3.888607	-13.342496	2.420144	4.904930	1.106337	-0.876709	0.041748	-0.228760	-0.027574	0.005775	0.082043	-0.650498	-0.138244	0.706600	-0.241781	-102.807773	-80.447079	134.095196
28374		0.506193	2.112963	8.863166	-8.669780	-2.844296	-9.757470	2.418676	4.976662	1.002820	-0.858643	0.040039	-0.284180	0.007167	0.020089	0.088718	-0.664880	-0.136469	0.687971	-0.256918	-84.639229	-80.049998	117.066339
28375		2.909190	2.824623	9.256513	-9.472119	-2.163797	-7.037746	2.121005	5.337329	0.872152	-0.831787	0.038330	-0.348389	0.031432	0.027402	0.092041	-0.680395	-0.133584	0.667810	-0.270644	-68.063386	-78.829842	101.443663
28376		3.418475	2.686004	9.104214	-9.120734	-2.063451	-6.028933	1.750772	5.773980	0.677410	-0.809326	0.036377	-0.401611	0.036708	0.026189	0.090238	-0.697217	-0.129378	0.646014	-0.282515	-54.464325	-76.887729	88.559960
28377		2.829110	1.776208	8.576743	-7.981674	-2.547129	-6.004848	1.444537	6.059119	0.418658	-0.777344	0.021484	-0.465332	0.030838	0.017209	0.084984	-0.714927	-0.124422	0.622806	-0.292423	-43.955240	-74.427029	78.569887
28378		2.047170	0.784094	8.040273	-6.820946	-3.136940	-6.198330	1.321989	6.163546	0.095767	-0.736816	0.019775	-0.513916	0.022933	0.007323	0.079771	-0.732747	-0.119753	0.598667	-0.300564	-35.920826	-71.682545	70.961836
28379		2.024597	0.353052	8.245449	-6.525957	-3.468918	-5.621545	1.346110	6.160442	-0.225505	-0.691650	0.011719	-0.573486	0.022776	0.002954	0.081800	-0.750359	-0.116026	0.573637	-0.307311	-29.534868	-68.777094	64.997406
28380		2.847135	0.131998	8.825909	-6.455100	-3.529923	-4.167959	1.444152	6.133835	-0.520080	-0.641602	-0.007568	-0.623779	0.031162	0.000608	0.087337	-0.767486	-0.113431	0.547896	-0.312904	-24.293214	-65.781923	60.209828
28381		4.200528	0.610639	9.723478	-6.782858	-2.951451	-2.209596	1.507051	6.149771	-0.774003	-0.580322	-0.024414	-0.667480	0.044990	0.005210	0.095923	-0.784302	-0.111640	0.521214	-0.317399	-19.836252	-62.678848	56.220993
28382		5.457976	0.993756	10.590954	-6.849830	-2.377749	-0.308913	1.476547	6.220292	-1.002185	-0.526123	-0.032471	-0.707031	0.057885	0.008879	0.104211	-0.800820	-0.110092	0.493728	-0.320624	-16.030130	-59.470861	52.836281
28383		6.560740	1.514533	11.317577	-6.746112	-1.598576	1.380928	1.354235	6.310475	-1.219057	-0.460449	-0.051514	-0.737305	0.069223	0.013974	0.111127	-0.817178	-0.108333	0.465343	-0.322397	-12.752746	-56.138653	49.881656
28384		7.429827	1.906901	12.079936	-6.492168	-0.945823	2.901300	1.136120	6.388031	-1.418429	-0.397217	-0.059570	-0.759033	0.078236	0.017846	0.118446	-0.833217	-0.105900	0.436471	-0.322532	-9.989595	-52.717883	47.281542
28385		8.445376	1.592785	12.749269	-5.499687	-0.642803	4.528065	0.926299	6.431874	-1.616665	-0.333740	-0.074219	-0.778564	0.088618	0.014641	0.124757	-0.848906	-0.102840	0.407069	-0.321057	-7.634289	-49.214606	44.933852
28386		9.851428	1.422102	13.595266	-4.334646	-0.051447	6.466250	0.835316	6.486953	-1.831595	-0.268555	-0.080078	-0.798096	0.102976	0.012733	0.132716	-0.864090	-0.099623	0.377105	-0.318142	-5.564272	-45.650987	42.769012
28387		11.339784	2.041349	14.758715	-3.551961	1.141647	8.531771	0.763245	6.541145	-2.060863	-0.209717	-0.085938	-0.806641	0.118342	0.018657	0.143844	-0.878809	-0.096327	0.346366	-0.313763	-3.707412	-42.007421	40.720241
28388		12.931659	2.941275	15.819691	-2.547809	2.733060	10.485303	0.580718	6.567129	-2.288734	-0.144531	-0.089600	-0.808838	0.134740	0.027440	0.153913	-0.892923	-0.092464	0.315376	-0.307697	-2.115066	-38.324494	38.762495
28389		14.989738	3.532836	16.848450	-0.764670	4.405655	12.566737	0.331939	6.522023	-2.482696	-0.079346	-0.088867	-0.804199	0.155705	0.033145	0.163526	-0.906328	-0.087755	0.284393	-0.299983	-0.804605	-34.621744	36.878608
28390		18.117322	3.409578	17.458364	2.642534	6.215625	14.657322	0.126560	6.458096	-2.691385	-0.043701	-0.083984	-0.808838	0.187119	0.031496	0.168625	-0.918908	-0.082399	0.253673	-0.290635	0.265952	-30.937375	35.028943
28391		21.810200	2.314901	16.959218	7.777330	7.786490	15.628061	0.000548	6.439466	-2.937393	0.006104	-0.089844	-0.808594	0.223718	0.019890	0.162448	-0.930765	-0.076702	0.222705	-0.279634	1.174815	-27.223954	33.159664
28392		25.928386	-0.777188	15.481744	14.876792	7.917776	15.250985	0.247605	6.431981	-3.150493	0.054932	-0.078125	-0.817871	0.263914	-0.012090	0.146365	-0.941616	-0.072303	0.191167	-0.267557	2.116406	-23.497074	31.284470
28393		29.076739	-2.024518	13.572312	20.392966	8.850843	13.406015	0.734500	6.425273	-3.330576	0.107178	-0.090820	-0.814941	0.294528	-0.025605	0.126212	-0.951319	-0.070284	0.158600	-0.254751	3.222738	-19.728817	29.422147
28394		31.574865	-0.827078	9.917521	24.451773	11.614052	9.233660	0.978582	6.335594	-3.304875	0.156494	-0.090332	-0.826172	0.318478	-0.013971	0.089055	-0.959573	-0.069425	0.126046	-0.241894	4.310778	-15.991136	27.691467
28395		33.450222	0.633821	4.347638	27.811107	14.465705	2.640470	0.813174	6.019223	-2.878064	0.201416	-0.091797	-0.828125	0.335652	0.001364	0.033397	-0.966016	-0.067803	0.095124	-0.230578	5.118661	-12.418549	26.292219
28396		32.470591	-0.198544	-2.817568	29.153922	14.176355	-6.480057	0.576972	5.337330	-2.135070	0.248779	-0.093506	-0.832520	0.323755	-0.005347	-0.036837	-0.970406	-0.065406	0.068006	-0.222281	5.623252	-9.268612	25.346932
28397		30.593540	-2.259470	-9.369342	29.190130	12.237211	-14.996908	0.700245	4.190258	-1.349831	0.280273	-0.099854	-0.834473	0.303722	-0.024307	-0.100156	-0.972855	-0.064574	0.046464	-0.217313	6.096048	-6.803915	24.820925
28398		29.878570	-1.738075	-12.720096	28.332732	12.701249	-19.477438	1.062034	2.901314	-0.701568	0.302979	-0.106201	-0.832031	0.296836	-0.017733	-0.131610	-0.973818	-0.066724	0.031052	-0.215084	6.722628	-5.116439	24.608894
28399		31.827274	-0.378692	-12.731824	29.284467	14.699471	-19.889155	1.118960	1.688557	-0.308598	0.317139	-0.123779	-0.842529	0.317177	-0.003554	-0.130020	-0.973981	-0.070390	0.021567	-0.214337	7.365910	-4.139512	24.555149
28400		31.362614	-3.498197	-12.658178	30.026384	11.706538	-20.649986	1.034073	0.717350	-0.423648	0.328857	-0.136963	-0.846436	0.313095	-0.034987	-0.127886	-0.974121	-0.074683	0.016901	-0.212661	7.966960	-3.709187	24.371779
28401		31.510748	-3.470194	-10.985717	30.135807	11.434327	-19.126165	0.852685	-0.107007	-0.980508	0.330811	-0.130127	-0.855469	0.314993	-0.035778	-0.109840	-0.974809	-0.079024	0.016214	-0.207943	8.489598	-3.696802	23.808885
28402		27.880637	1.496007	-8.189035	24.942366	13.729616	-15.811829	0.123354	-0.648888	-1.360609	0.323975	-0.123535	-0.855713	0.279163	0.013112	-0.080977	-0.976088	-0.080389	0.018797	-0.201087	8.611389	-3.957987	22.983506
28403		32.702966	10.252764	-12.509048	26.383854	23.794352	-18.101735	-3.568958	-2.934944	-0.890220	0.295410	-0.081787	-0.879395	0.329281	0.098869	-0.122055	-0.977863	-0.065980	0.036428	-0.195202	6.624509	-5.566519	22.255667
28404		-18.184358	-17.474268	-8.997486	-9.323572	-21.624745	-22.555941	-4.195397	-4.964309	-0.184837	0.237793	-0.040039	-0.900879	-0.179760	-0.176475	-0.090764	-0.977996	-0.050294	0.064794	-0.191821	4.261814	-8.397067	21.880871
28405		1.424577	-26.419059	24.905077	7.712905	-27.043944	13.188219	-2.005508	-7.048349	-0.540354	0.180908	-0.022949	-0.910645	0.004690	-0.261695	0.251961	-0.976062	-0.047382	0.101084	-0.186657	3.214299	-12.416470	21.302785
28406		29.288478	-23.088280	17.235821	31.530026	-13.505307	12.793856	-0.209880	-6.066885	0.089865	0.125000	-0.025879	-0.926025	0.287577	-0.230566	0.181378	-0.972497	-0.051929	0.130942	-0.185493	3.124661	-15.899215	21.161245
28407		26.182224	-16.254186	11.816725	26.413268	-7.824365	8.362188	0.668544	-4.937235	0.885938	0.084717	-0.033203	-0.930176	0.259526	-0.161797	0.124052	-0.967940	-0.059137	0.154610	-0.188922	3.394450	-18.762838	21.527241
28408		24.853788	3.008836	18.355788	15.162652	7.903113	16.094171	1.443242	-4.427970	0.323549	0.051514	-0.044678	-0.923340	0.244343	0.029134	0.189211	-0.963503	-0.070013	0.174813	-0.190266	4.210170	-21.315749	21.548685
28409		22.071334	19.587411	20.877920	4.655807	21.134593	19.140550	0.234042	-2.710690	-0.061304	0.024414	-0.038330	-0.932373	0.217915	0.195560	0.211974	-0.960998	-0.073738	0.187719	-0.189230	4.399648	-22.873747	21.388696
28410		9.587295	6.132957	11.671614	1.827731	6.344660	5.092217	-0.853875	-1.861235	-0.494241	0.005859	-0.025146	-0.930664	0.094935	0.061594	0.117340	-0.959960	-0.071831	0.197361	-0.185378	4.061218	-23.925572	20.998919
28411		14.789517	-8.209772	12.897533	11.079825	-5.471284	7.501138	-0.734218	-1.488787	-0.183136	-0.000977	-0.025391	-0.928467	0.146853	-0.081756	0.130372	-0.958865	-0.069844	0.205225	-0.183254	3.708606	-24.781912	20.824186
28412		7.468829	-4.376719	7.737917	5.142293	-3.248429	0.077657	0.039923	-0.292822	0.159304	-0.003174	-0.020996	-0.928711	0.074610	-0.043723	0.077480	-0.958383	-0.070114	0.206732	-0.183977	3.688695	-24.964404	20.916437
28413		6.213083	6.585963	9.602983	-0.815544	6.060277	1.883573	0.038011	-0.116918	-0.012266	-0.005615	-0.020996	-0.926270	0.062079	0.065838	0.096079	-0.958234	-0.070391	0.207367	-0.183936	3.709712	-25.043527	20.907679
28414		5.340460	2.628553	9.954771	-0.192858	2.069066	1.598222	-0.366604	-0.046177	0.159973	-0.001221	-0.016357	-0.928711	0.053360	0.026511	0.099512	-0.958145	-0.068485	0.208065	-0.184326	3.452056	-25.084830	21.010653
28415		5.391477	-1.410000	9.707676	1.463328	-1.547867	1.176294	-0.329515	0.018324	0.240327	-0.001221	-0.014160	-0.931152	0.053940	-0.013875	0.097095	-0.958027	-0.066617	0.208476	-0.185160	3.192816	-25.095012	21.166877
28416		5.935164	-0.201437	9.593153	1.488391	-0.195634	1.369516	-0.199482	0.004780	0.202678	-0.005859	-0.009766	-0.924561	0.059356	-0.001859	0.095932	-0.957889	-0.065420	0.208788	-0.185946	3.018494	-25.107713	21.298983
28417		4.711139	1.204416	9.424575	-0.031399	0.760912	0.765027	-0.198972	0.057133	0.184472	0.003174	-0.009766	-0.928955	0.047127	0.012181	0.094220	-0.957815	-0.064198	0.208873	-0.186660	2.848325	-25.093067	21.421253
28418		4.247568	0.975729	9.628763	-0.420447	0.385628	0.741050	-0.237234	0.050032	0.234721	-0.003662	-0.007568	-0.929199	0.042488	0.009921	0.096265	-0.957702	-0.062743	0.209014	-0.187573	2.643208	-25.079997	21.575048
28419		4.400506	-0.063864	9.682481	0.076814	-0.500549	0.810986	-0.231737	0.024628	0.242017	-0.003906	-0.005371	-0.927002	0.044018	-0.000473	0.096820	-0.957545	-0.061335	0.209301	-0.188517	2.439371	-25.084562	21.732613
28420		4.377287	0.075250	9.413874	0.092576	-0.297959	0.564687	-0.199864	0.006770	0.229825	-0.006104	-0.005371	-0.931396	0.043775	0.000897	0.094136	-0.957375	-0.060105	0.209611	-0.189432	2.257487	-25.095180	21.882092
28421		4.399221	-0.170303	9.404081	0.196785	-0.489852	0.557470	-0.173512	-0.012420	0.205559	-0.003906	-0.005371	-0.927002	0.043988	-0.001576	0.094045	-0.957191	-0.059047	0.210007	-0.190250	2.097052	-25.119153	22.015765
28422		4.117739	-0.674244	9.637566	0.054465	-1.076606	0.633890	-0.112693	-0.067544	0.125130	-0.001953	0.008057	-0.931885	0.041149	-0.006662	0.096393	-0.957013	-0.058415	0.210558	-0.190732	1.993782	-25.169465	22.097468
28423		4.305376	-0.821662	9.386522	0.349155	-1.095171	0.482790	-0.024898	-0.136315	0.025108	-0.006348	-0.000977	-0.931641	0.042991	-0.008200	0.093896	-0.956826	-0.058376	0.211352	-0.190806	1.967939	-25.260283	22.114427
28424		4.269927	-0.272355	9.349786	0.103497	-0.602017	0.451415	0.048017	-0.173139	-0.049447	-0.006348	-0.000977	-0.933838	0.042618	-0.002757	0.093534	-0.956654	-0.058797	0.212203	-0.190591	2.004732	-25.367518	22.083397
28425		4.271445	0.100370	9.233285	-0.012585	-0.251763	0.358118	0.082265	-0.208922	-0.093024	-0.008545	-0.000977	-0.931641	0.042618	0.000946	0.092378	-0.956470	-0.059464	0.213207	-0.190192	2.073079	-25.497416	22.023760
28426		4.428288	0.189251	9.156749	0.096566	-0.121562	0.359207	0.088867	-0.219186	-0.115268	-0.006104	-0.003174	-0.931396	0.044184	0.001826	0.091617	-0.956297	-0.060194	0.214219	-0.189691	2.152032	-25.629565	21.949549
28427		4.452303	0.442176	9.163817	-0.001501	0.097667	0.384590	0.087084	-0.208721	-0.112391	-0.017578	-0.000977	-0.929443	0.044430	0.004357	0.091686	-0.956126	-0.060905	0.215210	-0.189204	2.228943	-25.758688	21.877108
28428		4.430037	0.682299	9.201490	-0.143317	0.285953	0.417456	0.059687	-0.181746	-0.101381	-0.015137	-0.003174	-0.938232	0.044220	0.006773	0.092057	-0.955986	-0.061445	0.216074	-0.188749	2.287445	-25.869544	21.812138
28429		4.485170	0.909424	9.136086	-0.174860	0.513015	0.391139	0.023736	-0.162397	-0.072313	-0.019531	-0.005615	-0.929199	0.044781	0.009067	0.091398	-0.955845	-0.061765	0.216914	-0.188399	2.316861	-25.972853	21.765975
28430		4.541768	0.814914	9.096177	-0.090044	0.443972	0.376863	-0.005336	-0.146035	-0.040905	-0.019531	-0.005615	-0.929199	0.045353	0.008142	0.090995	-0.955705	-0.061895	0.217688	-0.188173	2.321119	-26.064606	21.740209
28431		4.507966	0.781778	9.109141	-0.125744	0.394645	0.372489	-0.023791	-0.130275	-0.003667	-0.019775	-0.000977	-0.931641	0.045020	0.007828	0.091120	-0.955547	-0.061884	0.218439	-0.188109	2.303905	-26.151023	21.738535
28432		4.538841	0.734852	9.076687	-0.083976	0.366989	0.355182	-0.046261	-0.118441	0.027330	-0.017578	-0.000977	-0.931641	0.045334	0.007376	0.090792	-0.955384	-0.061718	0.219140	-0.188174	2.265250	-26.228550	21.757028
28433		4.489046	0.639217	9.148104	-0.132287	0.250085	0.393580	-0.069917	-0.105593	0.045433	-0.024170	-0.001221	-0.929443	0.044841	0.006434	0.091502	-0.955221	-0.061409	0.219831	-0.188301	2.207449	-26.301855	21.787433
28434		4.451903	0.488108	9.160246	-0.125048	0.100523	0.382510	-0.074490	-0.106708	0.068228	-0.019531	-0.003418	-0.931396	0.044468	0.004930	0.091624	-0.955040	-0.061053	0.220515	-0.188533	2.140775	-26.373522	21.832529
28435		4.434622	0.096518	9.150277	-0.000611	-0.259469	0.352715	-0.070081	-0.118766	0.071240	-0.021973	0.001221	-0.931641	0.044292	0.001013	0.091529	-0.954836	-0.060727	0.221275	-0.188779	2.075530	-26.454765	21.879336
28436		4.453115	-0.098448	9.182354	0.060090	-0.436705	0.383450	-0.047801	-0.144352	0.054921	-0.019775	0.001221	-0.931641	0.044465	-0.000950	0.091856	-0.954617	-0.060548	0.222109	-0.188965	2.028111	-26.547628	21.915290
28437		4.449390	-0.005695	9.203940	-0.007059	-0.358484	0.404016	-0.013013	-0.179408	0.043733	-0.028564	-0.001221	-0.929443	0.044411	-0.000041	0.092079	-0.954353	-0.060582	0.223096	-0.189125	2.003806	-26.662887	21.943341
28438		4.463319	0.004057	9.174062	-0.008318	-0.344757	0.383669	0.009049	-0.214222	0.028461	-0.026367	-0.001221	-0.929443	0.044535	0.000043	0.091788	-0.954062	-0.060770	0.224201	-0.189227	1.997091	-26.795201	21.960930
28439		4.529255	0.125221	9.135909	-0.008797	-0.213162	0.382855	0.034583	-0.243010	0.024335	-0.035645	0.005371	-0.925049	0.045181	0.001242	0.091414	-0.953728	-0.061113	0.225440	-0.189327	2.006153	-26.946399	21.975206
28440		4.622769	0.214807	9.101299	0.023300	-0.104458	0.397027	0.045551	-0.257497	0.027202	-0.035645	0.005371	-0.934082	0.046110	0.002134	0.091073	-0.953375	-0.061517	0.226716	-0.189450	2.021078	-27.103470	21.991020
28441		4.530914	0.295069	9.126445	-0.120265	-0.079839	0.379827	0.055223	-0.277548	0.030070	-0.042236	0.000732	-0.922852	0.045182	0.002932	0.091328	-0.952987	-0.061983	0.228099	-0.189589	2.040584	-27.274491	22.008157
28442		4.408595	0.395681	9.225279	-0.330096	-0.062956	0.413994	0.044954	-0.327184	0.032830	-0.041992	-0.003662	-0.929199	0.043934	0.003943	0.092326	-0.952545	-0.062444	0.229708	-0.189716	2.054177	-27.471589	22.025939
28443		4.107957	0.252619	9.511624	-0.677271	-0.370333	0.522404	0.026245	-0.423016	0.033405	-0.051025	-0.001465	-0.931641	0.040878	0.002521	0.095203	-0.951990	-0.062906	0.231811	-0.189792	2.057551	-27.725893	22.041841
28444		4.121590	0.329633	9.567910	-0.767084	-0.327752	0.576969	0.046169	-0.544729	0.038478	-0.053467	-0.001465	-0.925049	0.040954	0.003282	0.095792	-0.951282	-0.063572	0.234455	-0.189877	2.072357	-28.047676	22.058215
28445		3.558623	0.236937	9.882369	-1.385899	-0.695637	0.578464	0.091279	-0.734880	0.071798	-0.055664	0.000732	-0.929443	0.035222	0.002337	0.098955	-0.950289	-0.064594	0.237986	-0.190109	2.104544	-28.481237	22.091625
28446		4.078462	0.075630	9.800317	-0.943372	-0.695829	0.737708	0.132590	-0.929394	0.077124	-0.068848	-0.008301	-0.922363	0.040328	0.000707	0.098192	-0.949033	-0.065988	0.242381	-0.190351	2.161153	-29.024105	22.123580
28447		4.082635	-0.663870	9.909211	-0.793153	-1.454537	0.796509	0.235975	-1.139650	0.040834	-0.075439	-0.010742	-0.926758	0.040262	-0.006748	0.099315	-0.947491	-0.068116	0.247674	-0.190470	2.291124	-29.688636	22.125491
28448		4.257063	-0.747157	9.956212	-0.755076	-1.562968	0.901415	0.346320	-1.392853	-0.025004	-0.095703	-0.010986	-0.924561	0.041875	-0.007650	0.099842	-0.945623	-0.071085	0.254011	-0.190320	2.511130	-30.494487	22.074504
28449		4.028084	-0.811683	10.166657	-1.144130	-1.847577	0.935320	0.439143	-1.669884	-0.109390	-0.106689	-0.015625	-0.913330	0.039426	-0.008362	0.101980	-0.943386	-0.074860	0.261539	-0.189777	2.820525	-31.458340	21.953791
28450		3.891701	-0.972784	10.473127	-1.492897	-2.240798	1.074168	0.527866	-1.997433	-0.198750	-0.131348	-0.020264	-0.908936	0.037859	-0.010043	0.105087	-0.940690	-0.079474	0.270454	-0.188790	3.225690	-32.604331	21.752628
28451		3.768440	-0.803446	10.642607	-1.933596	-2.320749	1.095136	0.575589	-2.378908	-0.270362	-0.149170	-0.027100	-0.910889	0.036404	-0.008391	0.106840	-0.937398	-0.084757	0.281069	-0.187354	3.704369	-33.966391	21.473335
28452		3.586134	-0.037973	10.983966	-2.785535	-1.941014	1.231468	0.559851	-2.809755	-0.294262	-0.182129	-0.043213	-0.901367	0.034313	-0.000739	0.110327	-0.933364	-0.090390	0.293642	-0.185567	4.212749	-35.569987	21.137420
28453		3.220801	0.247700	11.219017	-3.583734	-2.044301	1.108214	0.521193	-3.318021	-0.281826	-0.208984	-0.048096	-0.894531	0.030344	0.002140	0.112710	-0.928355	-0.096271	0.308568	-0.183506	4.733424	-37.463415	20.756884
28454		2.716092	0.803241	11.380140	-4.603853	-1.932722	0.797742	0.523827	-3.922948	-0.230210	-0.251465	-0.052979	-0.878906	0.024931	0.007704	0.114325	-0.922051	-0.102609	0.326206	-0.181335	5.288521	-39.700259	20.341786
28455		2.468753	0.820440	11.538848	-5.270450	-2.256279	0.532335	0.522611	-4.607242	-0.155307	-0.289307	-0.062500	-0.858643	0.022027	0.007884	0.115937	-0.914129	-0.109389	0.346895	-0.179072	5.881256	-42.329288	19.888311
28456		2.253855	1.604855	12.138152	-6.548411	-2.039169	0.575465	0.594756	-5.323747	-0.043312	-0.329346	-0.071777	-0.843018	0.019300	0.015682	0.121971	-0.904250	-0.116879	0.370625	-0.176941	6.556403	-45.368279	19.400165
28457		0.227841	1.230421	12.921293	-8.730845	-3.383619	-0.824160	0.595895	-6.281365	0.060829	-0.392090	-0.079346	-0.811768	-0.001784	0.011919	0.129235	-0.891724	-0.124924	0.398430	-0.174571	7.321984	-48.955204	18.816202
28458		-1.212175	1.991218	13.321521	-10.718449	-3.393632	-2.302086	0.580310	-7.570913	0.121266	-0.447998	-0.084717	-0.773926	-0.017164	0.019517	0.132686	-0.875499	-0.133754	0.431539	-0.171421	8.292820	-53.271746	17.991789
28459		-0.609449	0.623587	12.062617	-9.434313	-4.275720	-3.577509	0.599134	-9.118297	0.072246	-0.526123	-0.094727	-0.718018	-0.011584	0.005872	0.120199	-0.854417	-0.143857	0.470603	-0.166760	9.778416	-58.447648	16.608152
28460		2.138883	2.004866	11.607033	-8.910379	-2.732281	-2.307726	0.994459	-10.648868	-0.166581	-0.599854	-0.109131	-0.651123	0.015187	0.019454	0.117087	-0.827533	-0.157131	0.514529	-0.160495	12.699406	-64.424433	13.930930
28461		11.246739	3.798261	10.207124	-5.868325	-0.177792	4.690414	1.356133	-12.055553	-0.033680	-0.680420	-0.116943	-0.566650	0.106046	0.037241	0.108849	-0.793937	-0.172166	0.562389	-0.154081	17.990703	-71.095222	9.058933
28462		20.320838	6.772604	15.965886	-11.236318	-0.679042	14.397299	1.134338	-12.199710	0.650023	-0.738525	-0.124512	-0.479980	0.192743	0.067411	0.172017	-0.756637	-0.183872	0.609486	-0.149056	27.007401	-77.723939	0.384944
28463		25.028270	7.527725	13.956076	-11.591824	-0.176575	17.437832	0.059211	-10.969828	1.339053	-0.779053	-0.118652	-0.391602	0.241622	0.076871	0.152999	-0.720975	-0.187869	0.651283	-0.143985	45.792918	-83.322927	-18.603233
28464		24.457549	6.359729	13.414747	-13.293578	-1.671081	15.453665	-0.835500	-9.953444	1.804350	-0.811035	-0.103760	-0.312256	0.236920	0.066351	0.145795	-0.687081	-0.185868	0.688670	-0.138223	105.165659	-86.136504	-78.654246
28465		19.844420	3.852799	17.776490	-18.306130	-5.806367	9.035677	-1.608821	-9.314466	2.135735	-0.836426	-0.084229	-0.228760	0.189458	0.042060	0.186401	-0.654191	-0.179170	0.722995	-0.131192	157.811091	-83.199340	-132.411156
28466		19.174124	2.427473	19.983587	-21.261804	-7.968510	6.214181	-0.965795	-8.219697	1.781984	-0.843262	-0.075684	-0.160400	0.183089	0.026921	0.207355	-0.623539	-0.174763	0.751514	-0.126033	171.493311	-78.886676	-146.814911
28467		15.904184	1.114917	18.142198	-19.602683	-8.119670	1.717458	-0.028169	-6.140365	0.975291	-0.840820	-0.084717	-0.115723	0.153317	0.011932	0.186187	-0.599542	-0.174756	0.771201	-0.123527	175.659692	-75.445510	-151.106599
28468		20.047742	-5.499191	31.431292	-29.965484	-20.147729	0.960578	1.031014	-3.812357	0.818981	-0.831543	-0.091309	-0.093262	0.194669	-0.055819	0.317774	-0.583255	-0.176969	0.782606	-0.126582	178.345062	-73.279621	-153.285407
28469		34.414559	1.755598	35.166176	-40.042837	-17.192223	13.102293	1.868794	0.298902	1.180072	-0.804443	-0.090820	-0.097656	0.344572	0.016305	0.351303	-0.581964	-0.177560	0.781577	-0.137579	-178.312349	-73.446875	-155.660448
28470		13.526122	3.530340	28.852421	-29.734449	-10.724054	-4.465529	2.086510	4.188674	1.387385	-0.786133	-0.104004	-0.132568	0.141033	0.033276	0.285965	-0.595292	-0.175239	0.769012	-0.153426	-173.612296	-75.776780	-159.298428
28471		-0.840322	1.988565	17.202954	-15.575333	-6.030011	-14.457341	2.199199	5.290267	1.765976	-0.759033	-0.107910	-0.165771	-0.004010	0.017943	0.172379	-0.612074	-0.170820	0.752800	-0.171694	-165.556932	-78.578030	-166.268264
28472		-2.694571	1.965409	12.166700	-10.955799	-4.032699	-14.589280	2.335217	5.382802	2.086430	-0.738770	-0.112061	-0.196533	-0.023848	0.017967	0.122553	-0.628192	-0.165376	0.735803	-0.191362	-151.767591	-81.020633	-178.918813
28473		-4.376769	3.017547	8.657888	-8.315505	-1.799195	-15.363201	2.430474	5.216049	2.227294	-0.720459	-0.118408	-0.216309	-0.041809	0.028638	0.088041	-0.642935	-0.159714	0.718601	-0.211514	-130.354006	-82.564560	160.856414
28474		-2.405318	5.385955	8.674234	-9.894236	-0.043432	-13.294217	2.096834	5.049547	2.265399	-0.696045	-0.111328	-0.229736	-0.022445	0.052682	0.087879	-0.656667	-0.152875	0.701713	-0.230253	-104.454749	-82.740305	135.956737
28475		0.011820	6.722377	9.391753	-11.489534	0.713566	-10.742907	1.392471	5.134557	2.147183	-0.687012	-0.113525	-0.249756	0.001820	0.066581	0.094350	-0.670870	-0.143913	0.684616	-0.246016	-81.619198	-81.644740	113.716761
28476		2.225641	5.667340	9.608674	-11.232132	-0.001396	-8.017410	0.584493	5.435060	1.885881	-0.678223	-0.111084	-0.260742	0.024325	0.056616	0.095610	-0.686396	-0.132646	0.666807	-0.258137	-65.020052	-79.694602	97.235827
28477		2.609157	2.177310	8.931093	-8.722603	-2.336589	-6.690569	0.269561	5.825709	1.434756	-0.671387	-0.110840	-0.285156	0.028522	0.021852	0.088533	-0.703473	-0.121188	0.647125	-0.267710	-52.901307	-77.253633	85.028268
28478		1.868996	-0.655410	8.112049	-6.405958	-4.251017	-6.557170	0.624314	6.112390	0.831133	-0.675781	-0.117676	-0.313721	0.021184	-0.006721	0.080478	-0.721365	-0.112430	0.625056	-0.276220	-43.443464	-74.557356	75.645506
28479		1.264427	-0.838965	7.843874	-5.966375	-4.294368	-6.687284	1.250310	6.252977	0.237610	-0.675537	-0.119629	-0.349365	0.015097	-0.008861	0.077938	-0.739503	-0.107484	0.600598	-0.284367	-35.558556	-71.698638	68.156781
28480		1.215815	0.631559	8.239325	-6.919775	-3.217547	-6.421032	1.664857	6.264514	-0.236279	-0.677246	-0.139648	-0.397217	0.014738	0.005615	0.082007	-0.757313	-0.105362	0.574703	-0.291706	-28.980633	-68.737571	62.178758
28481		2.544494	2.110508	9.136027	-7.996913	-1.942747	-4.651350	1.683422	6.196028	-0.554272	-0.676514	-0.159424	-0.445313	0.028319	0.020264	0.090685	-0.774641	-0.104217	0.548200	-0.297568	-23.597783	-65.691155	57.387900
28482		4.412776	3.226983	10.142012	-8.645590	-0.729052	-2.234652	1.367746	6.172179	-0.753036	-0.666992	-0.179199	-0.509033	0.047352	0.031407	0.100209	-0.791524	-0.102321	0.521669	-0.301466	-19.334363	-62.563154	53.518061
28483		6.000303	2.460842	10.820101	-7.780248	-0.816475	0.080862	0.920476	6.241507	-0.881716	-0.650391	-0.200928	-0.568115	0.063448	0.023841	0.106367	-0.808257	-0.098786	0.494865	-0.303432	-15.991453	-59.305954	50.297834
28484		7.024170	0.631355	11.094349	-5.961292	-1.661626	1.783160	0.751391	6.356048	-1.027326	-0.625244	-0.216064	-0.634033	0.073749	0.005530	0.108658	-0.824700	-0.094648	0.467354	-0.304123	-13.226659	-55.937162	47.530641
28485		7.639219	-0.263463	11.333598	-4.661542	-1.858526	2.900503	0.864245	6.483698	-1.201828	-0.588379	-0.239746	-0.699707	0.079992	-0.003591	0.110767	-0.840810	-0.091092	0.438475	-0.304105	-10.731706	-52.443436	45.065590
28486		8.144478	0.255809	11.955443	-4.375100	-1.112389	3.930389	1.000873	6.549574	-1.382360	-0.554199	-0.259277	-0.767822	0.085313	0.001388	0.116811	-0.856292	-0.088299	0.408624	-0.303305	-8.452121	-48.882827	42.855975
28487		9.004819	1.072930	12.806779	-4.091431	-0.022679	5.333802	0.971200	6.559710	-1.559342	-0.522461	-0.269775	-0.835938	0.094260	0.009393	0.125070	-0.871129	-0.085626	0.378137	-0.301353	-6.422487	-45.269125	40.844780
28488		9.612727	1.175989	13.585089	-3.311503	0.458916	6.529253	0.805446	6.514604	-1.749494	-0.486572	-0.269043	-0.942383	0.100578	0.010354	0.132666	-0.885198	-0.082557	0.347670	-0.297884	-4.681082	-41.659135	38.979640
28489		10.012263	0.571973	14.112815	-1.981145	0.387139	7.379209	0.684969	6.321260	-1.937762	-0.415039	-0.260986	-1.075684	0.104561	0.004245	0.137886	-0.898297	-0.079478	0.317674	-0.292966	-3.158376	-38.119237	37.217343
28490		12.053755	0.123487	15.304689	0.037886	0.994060	9.640537	0.635211	5.995206	-2.101972	-0.246338	-0.269775	-1.190674	0.125052	-0.000542	0.149343	-0.910157	-0.076828	0.288908	-0.286783	-1.803266	-34.748059	35.542719
28491		16.932119	0.558153	17.293343	3.386291	3.451429	13.904478	0.642630	5.788095	-2.210742	-0.043457	-0.289307	-1.207275	0.174274	0.003128	0.167950	-0.920995	-0.074589	0.260650	-0.279761	-0.567351	-31.456362	33.953078
28492		22.041282	0.606333	18.072815	8.167517	6.076920	16.812597	0.498240	5.931743	-2.283263	0.119385	-0.314209	-1.124268	0.225689	0.003067	0.174096	-0.931239	-0.071505	0.231743	-0.271985	0.462037	-28.067640	32.447343
28493		25.281259	-1.876411	16.794280	14.100619	6.189232	16.402742	0.489138	6.209062	-2.313725	0.211426	-0.315430	-1.032959	0.257618	-0.022124	0.159942	-0.940885	-0.067960	0.201211	-0.263877	1.366034	-24.487816	31.036451
28494		26.774197	-3.995799	13.924792	18.987434	5.960603	13.216037	0.760167	6.370181	-2.412433	0.280762	-0.301514	-0.953613	0.271479	-0.043725	0.130478	-0.949644	-0.065500	0.169394	-0.255325	2.323755	-20.804241	29.671135
28495		27.778266	-3.537750	9.316802	22.307994	7.804193	7.852776	1.000742	6.229756	-2.447355	0.322754	-0.285645	-0.903076	0.280036	-0.039232	0.084278	-0.957166	-0.064312	0.137649	-0.246475	3.315740	-17.170039	28.379790
28496		29.566984	-0.785762	3.788920	24.786125	11.929385	1.686944	0.907809	5.666107	-2.137773	0.367676	-0.280762	-0.865479	0.296476	-0.011171	0.029451	-0.962944	-0.063097	0.108751	-0.238601	4.112122	-13.860164	27.333242
28497		30.752987	1.244900	-1.855548	26.466325	15.030127	-4.896283	0.501559	4.785396	-1.525347	0.401123	-0.271484	-0.832520	0.307052	0.010165	-0.025879	-0.966893	-0.060591	0.084621	-0.232993	4.543151	-11.062169	26.656425
28498		31.209150	-0.340359	-7.037656	28.506895	14.439876	-11.352801	0.205570	3.791947	-1.010766	0.418945	-0.269043	-0.808350	0.310660	-0.004900	-0.076280	-0.969415	-0.057565	0.065814	-0.229324	4.726940	-8.859066	26.251981
28499		30.614280	-2.376269	-10.226104	29.345598	12.240602	-15.844168	0.345494	2.897144	-0.808385	0.439453	-0.275635	-0.783691	0.304519	-0.024814	-0.106722	-0.972519	-0.055452	0.051483	-0.220185	4.925090	-7.155122	25.206081
28500		31.329549	-1.695085	-11.445997	29.685037	13.107182	-17.710920	0.595339	2.016638	-0.892440	0.450928	-0.286621	-0.763184	0.312041	-0.017998	-0.117663	-0.973783	-0.056334	0.040857	-0.216572	5.308572	-5.967924	24.800380
28501		30.231668	-0.811576	-12.410991	28.365214	13.233244	-19.242436	0.393171	1.207170	-1.147954	0.457764	-0.284424	-0.750000	0.301508	-0.009602	-0.125949	-0.975437	-0.057021	0.034364	-0.209976	5.578647	-5.220344	24.042058
