// General information: 
//  MT Manager version: 2019.2.0 
//  XDA version: 2019.2.0 build 3853 rev 94535 built on 2019-09-09
// Device information: 
//  DeviceId: 00B40A23
//  ProductCode: MTW2-3A7G6
//  Firmware Version: 4.3.5
//  Hardware Version: 1.1.0
// Device settings: 
//  Filter Profile: human(46.1)
//  Option Flags: Orientation Smoother Disabled, AHS Disabled, ICC Disabled
// Coordinate system: ENU
PacketCounter	SampleTimeFine	Acc_X	Acc_Y	Acc_Z	FreeAcc_E	FreeAcc_N	FreeAcc_U	Gyr_X	Gyr_Y	Gyr_Z	Mag_X	Mag_Y	Mag_Z	VelInc_X	VelInc_Y	VelInc_Z	Quat_q0	Quat_q1	Quat_q2	Quat_q3	Roll	Pitch	Yaw
03363		5.506204	0.902431	8.495716	0.542791	0.226268	0.334427	-0.131910	-0.358397	-0.046410	-0.830811	0.165039	-0.373291	0.054912	0.009068	0.085050	-0.182650	0.296592	0.104984	0.931478	6.207655	-36.220061	-159.843579
03364		5.500098	0.902994	8.431460	0.556818	0.216272	0.276861	-0.133710	-0.482464	-0.050855	-0.837402	0.160400	-0.370850	0.054800	0.009072	0.084441	-0.181962	0.298972	0.104855	0.930866	6.170426	-36.495906	-159.915215
03365		4.991585	1.595585	9.318414	1.736006	0.007145	0.736271	-0.153532	-0.620687	-0.015211	-0.848633	0.157959	-0.366211	0.049628	0.016024	0.093326	-0.181367	0.302086	0.104743	0.929989	6.115907	-36.860323	-159.969050
03366		4.631194	0.755705	9.501845	1.840692	0.942733	0.580897	-0.151811	-0.806616	0.019419	-0.857422	0.153320	-0.348389	0.045928	0.007634	0.095198	-0.180805	0.306020	0.104716	0.928814	6.053692	-37.325220	-160.015233
03367		4.846834	0.522767	9.366303	1.610700	1.080236	0.566639	-0.133023	-1.054610	0.010483	-0.861816	0.153320	-0.337158	0.047973	0.005293	0.093913	-0.180108	0.311134	0.105051	0.927211	6.021483	-37.938495	-160.086106
03368		4.409772	0.799768	9.993754	2.503764	1.172747	0.785187	-0.108356	-1.308486	0.033948	-0.875244	0.155029	-0.319580	0.043441	0.008059	0.100219	-0.179406	0.317348	0.105649	0.925171	6.002209	-38.690280	-160.160134
03369		5.276908	1.161434	9.521957	1.905492	0.516892	0.955855	-0.093604	-1.669007	0.069441	-0.879395	0.145996	-0.297119	0.051968	0.011677	0.095650	-0.178692	0.325271	0.106615	0.922443	5.997857	-39.656972	-160.237793
03370		4.198805	1.594218	10.470261	3.583811	0.761891	0.974764	-0.099069	-2.063651	0.121060	-0.895264	0.147949	-0.268066	0.040895	0.016019	0.105120	-0.177979	0.334963	0.107776	0.918971	5.983148	-40.844302	-160.307654
03371		4.555984	0.715467	10.876627	3.454920	1.681707	1.358610	-0.103943	-2.516459	0.175581	-0.904053	0.143311	-0.228027	0.044180	0.007251	0.109324	-0.177223	0.346777	0.109250	0.914550	5.969103	-42.300035	-160.377201
03372		4.712446	1.172295	11.603392	4.268544	1.564041	1.915088	-0.075431	-3.102762	0.175018	-0.910889	0.147461	-0.199219	0.045307	0.011807	0.116742	-0.176175	0.361123	0.111315	0.908934	6.002182	-44.082716	-160.493176
03373		4.540055	0.380381	12.574982	5.060485	2.785091	2.249649	-0.096682	-3.815104	0.205891	-0.919434	0.142578	-0.147949	0.042987	0.003910	0.126583	-0.174745	0.378681	0.113854	0.901722	6.061712	-46.279615	-160.657667
03374		3.575593	-0.205922	14.352056	7.091066	4.309582	2.431209	-0.112985	-4.687869	0.171897	-0.928467	0.142334	-0.094727	0.032381	-0.001949	0.144307	-0.172587	0.399945	0.117060	0.892499	6.199791	-48.964896	-160.936335
03375		2.669733	-1.295039	15.542564	8.618465	6.112695	1.962946	-0.146199	-5.696666	-0.018739	-0.930420	0.142090	-0.030273	0.022256	-0.012839	0.156111	-0.168758	0.425395	0.121315	0.880819	6.573285	-52.217073	-161.532158
03376		-0.244960	-2.064530	15.856216	10.849789	7.692026	-0.938019	-0.048881	-6.760594	-0.322759	-0.929932	0.133057	0.038574	-0.007839	-0.020597	0.158363	-0.163032	0.454802	0.127396	0.866225	7.448850	-56.043415	-162.650383
03377		0.399526	-2.021727	16.339187	11.518464	7.938008	-1.130313	0.235989	-8.013489	-0.544705	-0.922852	0.124023	0.123291	-0.002607	-0.020409	0.163352	-0.155974	0.488649	0.136083	0.847570	9.157166	-60.549398	-164.498716
03378		8.686943	2.752776	16.970325	10.948062	3.122006	5.717508	0.267371	-8.908393	-0.449258	-0.909180	0.126221	0.205078	0.079261	0.027114	0.173384	-0.148502	0.525424	0.145098	0.825120	11.614225	-65.528919	-167.084325
03379		20.993029	7.206736	18.587726	10.760890	-0.724492	17.044997	0.038518	-8.686286	-0.220979	-0.895508	0.121826	0.280762	0.201678	0.071804	0.194772	-0.141244	0.560604	0.152140	0.801640	14.742351	-70.353178	-170.434276
03380		23.691652	2.495611	17.840100	9.455248	3.945442	18.122191	-0.585682	-8.013096	-0.093912	-0.875244	0.124268	0.347168	0.229533	0.025388	0.187624	-0.133008	0.592636	0.155567	0.779031	18.781379	-74.741453	-175.019822
03381		23.415806	-2.093058	18.628793	10.394676	9.193872	16.771807	-0.588723	-7.274660	-0.546732	-0.847656	0.113525	0.400391	0.227120	-0.020993	0.194697	-0.123375	0.620563	0.159617	0.757761	26.399544	-78.482351	176.805389
03382		15.445808	0.895325	24.718449	20.045526	9.299605	9.209625	-0.676129	-5.647983	-1.529190	-0.829102	0.096191	0.436279	0.147465	0.008653	0.251386	-0.110911	0.640919	0.165189	0.741373	39.678901	-80.738017	162.912441
03383		12.808822	4.858570	28.566591	26.179797	7.213031	6.504529	-1.415210	-3.222116	-2.896498	-0.818848	0.062988	0.454834	0.124173	0.048798	0.287343	-0.092841	0.651118	0.170908	0.733632	54.197762	-80.785922	147.369787
03384		3.099464	-5.231512	22.704705	18.819266	13.425637	-5.566213	-1.541257	-1.737677	-3.447471	-0.817627	0.033936	0.462158	0.028131	-0.051063	0.227697	-0.073660	0.655151	0.177222	0.730714	64.145218	-79.597957	136.376929
03385		-2.284137	-7.617159	17.255960	13.878452	12.764490	-12.144935	-1.006508	-1.322555	-3.160557	-0.812012	0.005371	0.458252	-0.025174	-0.074917	0.172777	-0.057478	0.657467	0.184265	0.728340	70.690139	-78.209747	129.100310
03386		0.443279	-8.261786	16.282950	12.572391	13.246741	-10.006113	-0.825872	-0.800038	-2.117863	-0.809082	-0.014648	0.460938	0.002910	-0.081981	0.163183	-0.046295	0.658648	0.188409	0.727008	73.925138	-77.195129	125.302068
03387		0.769005	-10.816198	15.059325	10.696408	15.149661	-10.474547	-0.520177	0.023153	-0.844694	-0.818359	-0.010254	0.449707	0.007252	-0.107801	0.150873	-0.041379	0.657888	0.189182	0.727792	74.134887	-76.722153	124.758764
03388		-0.840113	-9.855665	13.454008	9.723290	13.415703	-11.892344	0.086040	0.829245	0.375170	-0.818604	-0.001465	0.436279	-0.007658	-0.098629	0.134530	-0.043797	0.655230	0.188061	0.730335	71.998035	-76.792047	127.001450
03389		-1.807662	-6.139879	12.317660	9.898372	9.502198	-11.913732	0.482157	1.491833	1.368794	-0.828125	0.011719	0.413818	-0.016736	-0.061813	0.123156	-0.051651	0.650922	0.184881	0.734474	67.596102	-77.230919	131.781533
03390		-2.285084	-2.568053	11.569401	10.342012	5.999609	-11.457960	0.518931	2.080985	1.983345	-0.840088	0.029297	0.393555	-0.021388	-0.026198	0.115854	-0.062527	0.644940	0.179748	0.740158	60.834974	-77.739625	139.008114
03391		-2.240846	-0.622731	10.853691	10.262365	4.099564	-10.852316	0.430582	2.620071	2.145281	-0.847656	0.051514	0.359619	-0.020914	-0.006691	0.108803	-0.074100	0.636921	0.173462	0.747497	52.080997	-77.932023	148.196021
03392		-1.607550	1.322822	10.355226	10.304762	2.313819	-9.691135	0.364204	3.141386	1.926481	-0.857422	0.069336	0.328369	-0.014571	0.012894	0.103813	-0.085158	0.626638	0.167469	0.756324	42.755237	-77.529289	157.949059
03393		-0.860357	3.476651	9.988728	10.512126	0.326703	-8.404765	0.189923	3.648315	1.555479	-0.875977	0.082275	0.285889	-0.007049	0.034613	0.100058	-0.094614	0.613898	0.161624	0.766848	34.172443	-76.437844	166.854148
03394		0.049583	4.586567	9.550623	10.222644	-0.784419	-7.143205	-0.114693	4.107250	1.168506	-0.876465	0.091309	0.250244	0.002188	0.045930	0.095447	-0.102027	0.599042	0.155593	0.778801	27.183745	-74.756542	173.997238
03395		1.230384	3.907390	9.479834	9.492965	-0.178730	-5.752297	-0.379169	4.517359	0.811623	-0.887939	0.100098	0.198975	0.014280	0.039308	0.094416	-0.107497	0.582059	0.149245	0.792072	21.826298	-72.583002	179.339958
03396		4.215154	1.731470	9.201294	7.367912	1.657781	-2.857540	-0.413728	4.968364	0.588316	-0.890625	0.104736	0.152344	0.044367	0.017632	0.090893	-0.112286	0.562895	0.143153	0.806255	17.796588	-70.021869	-176.660543
03397		4.558270	3.683990	8.237474	6.735662	-0.666843	-2.304652	-0.275315	5.495932	0.667839	-0.895508	0.111328	0.092285	0.047698	0.037109	0.081032	-0.118084	0.541081	0.136936	0.821302	14.450996	-67.090508	-173.246349
03398		3.454558	4.067019	7.554743	6.365179	-1.366959	-3.244020	-0.339678	5.711256	0.770451	-0.893555	0.118164	0.045410	0.036525	0.040935	0.074454	-0.124181	0.518168	0.130003	0.836170	11.678581	-64.006073	-170.419148
03399		4.564094	4.691967	7.602666	5.780085	-2.186139	-1.910968	-0.364277	5.763842	0.792307	-0.893799	0.122803	-0.012451	0.047618	0.047242	0.074587	-0.130258	0.494501	0.122711	0.850555	9.437161	-60.829009	-168.134330
03400		6.800400	4.675403	8.573232	5.029121	-2.296552	0.723230	-0.381031	5.863790	0.711260	-0.891846	0.129639	-0.070313	0.070309	0.047162	0.083604	-0.135875	0.470071	0.115436	0.864434	7.698062	-57.571364	-166.368258
03401		9.265983	4.336786	8.886030	3.257015	-2.492697	3.100734	-0.344688	6.019159	0.589291	-0.880859	0.134521	-0.130371	0.095147	0.043796	0.085946	-0.141041	0.444316	0.108341	0.878040	6.368306	-54.175549	-165.008499
03402		10.662737	3.847845	8.795353	1.508337	-2.630320	4.208885	-0.325815	6.132147	0.576384	-0.861084	0.139404	-0.188232	0.109143	0.038930	0.084569	-0.146097	0.417766	0.101230	0.890999	5.285457	-50.717783	-163.882588
03403		12.132574	2.755023	8.233237	-0.939061	-2.432135	4.874463	-0.301511	6.057354	0.699473	-0.843018	0.137695	-0.241455	0.123646	0.028100	0.078568	-0.151620	0.391053	0.093877	0.902926	4.306436	-47.277743	-162.821203
03404		14.200539	1.096203	7.971374	-3.823790	-1.807766	5.949092	-0.096026	5.851495	0.950036	-0.816406	0.142822	-0.290527	0.144201	0.011681	0.075510	-0.158399	0.365024	0.087085	0.913282	3.459673	-43.973635	-161.718356
03405		18.068292	0.843979	8.054924	-7.340329	-2.945000	8.336631	0.279737	5.638298	1.278080	-0.785156	0.147949	-0.335205	0.182799	0.009496	0.075428	-0.167149	0.339357	0.081457	0.922097	2.783493	-40.773575	-160.485720
03406		23.182313	0.971739	7.149432	-12.367757	-5.254330	10.404881	0.667817	5.572405	1.622428	-0.760742	0.148682	-0.384277	0.233608	0.011383	0.065038	-0.177959	0.313666	0.077068	0.929519	2.289119	-37.628998	-159.103434
03407		25.479097	0.538895	4.312104	-16.639028	-6.997474	8.682356	1.116678	5.499382	1.799696	-0.720703	0.158447	-0.417969	0.255788	0.007473	0.036134	-0.190112	0.287584	0.074449	0.935740	2.085162	-34.507564	-157.679001
03408		25.788630	0.512946	1.149760	-19.129203	-8.613289	5.232760	1.462809	5.119675	1.654633	-0.689209	0.159180	-0.453613	0.258015	0.007212	0.004941	-0.201790	0.262787	0.073996	0.940611	2.230772	-31.615956	-156.415318
03409		25.898964	1.428203	-1.013435	-20.246309	-10.658615	2.442265	1.416612	4.500728	1.318194	-0.664307	0.155273	-0.473633	0.258574	0.016086	-0.015847	-0.211433	0.240539	0.074322	0.944412	2.535283	-29.062480	-155.418868
03410		25.619225	0.848470	-2.633325	-21.205440	-10.931241	-0.078625	0.968778	3.795403	0.937728	-0.637451	0.157959	-0.493896	0.255588	0.009827	-0.031142	-0.218397	0.221933	0.073720	0.947425	2.748051	-26.919017	-154.696090
03411		25.605134	-1.230518	-4.758492	-23.097755	-9.918359	-2.895703	0.413054	3.061692	0.525050	-0.616943	0.149658	-0.504883	0.255314	-0.011531	-0.051522	-0.222432	0.207110	0.071714	0.949993	2.794345	-25.176577	-154.268375
03412		25.570469	-2.443911	-7.183582	-24.581245	-9.558171	-5.838054	-0.152349	2.329379	0.159084	-0.601318	0.152100	-0.509277	0.254864	-0.024292	-0.074789	-0.223854	0.196299	0.068210	0.952210	2.633020	-23.851846	-154.097403
03413		25.629722	-2.719552	-9.429637	-25.580672	-9.837899	-8.389120	-0.851132	1.591053	-0.074026	-0.588135	0.154541	-0.522949	0.255527	-0.027697	-0.096214	-0.223198	0.189639	0.062428	0.954108	2.145162	-22.938267	-154.102069
03414		26.374907	-3.883112	-11.190715	-27.367375	-9.322023	-10.069103	-1.479000	0.872976	-0.197296	-0.583740	0.161377	-0.516357	0.263219	-0.039923	-0.112764	-0.221123	0.187096	0.054562	0.955574	1.334968	-22.438962	-154.206558
03415		25.715637	-5.144217	-12.636496	-27.935567	-7.949300	-11.773041	-1.765030	0.172420	-0.296837	-0.588623	0.170166	-0.516602	0.256970	-0.052937	-0.126124	-0.218099	0.188165	0.046202	0.956500	0.390692	-22.340710	-154.387404
03416		22.926982	-16.487455	-17.083361	-32.120400	2.875173	-16.835785	-0.520043	-1.044474	-0.539772	-0.599365	0.158691	-0.509521	0.229709	-0.165935	-0.169204	-0.214789	0.193639	0.045340	0.956198	0.219337	-22.941530	-154.724315
03417		22.845252	-3.281112	-25.311684	-29.414428	-10.582788	-23.815015	2.172929	-2.880013	-0.670881	-0.608398	0.156494	-0.500488	0.231963	-0.030857	-0.250136	-0.213008	0.204956	0.059447	0.953460	1.641418	-24.592356	-155.171036
03418		18.773930	10.650339	5.982837	-8.367943	-15.482707	4.038976	0.569493	-4.410165	1.005413	-0.637695	0.162354	-0.480469	0.185817	0.107262	0.064245	-0.217023	0.225657	0.065791	0.947445	1.720726	-27.139094	-154.611985
03419		18.555942	6.010377	29.232897	-0.043913	-5.679544	24.866130	0.582084	-3.432800	0.858232	-0.644531	0.166748	-0.465088	0.180246	0.060028	0.295628	-0.220600	0.241624	0.071293	0.942269	1.820486	-29.130760	-154.120025
03420		10.328507	12.255371	15.401401	4.169449	-10.986331	9.054232	0.556028	-3.084660	-0.123265	-0.676025	0.166016	-0.456055	0.100965	0.122059	0.155923	-0.219568	0.255509	0.077434	0.938354	2.211910	-30.898638	-154.271749
03421		34.900539	-0.620261	15.591301	-20.135512	-8.113296	21.654761	1.238349	-1.900733	-0.576213	-0.675781	0.157227	-0.458008	0.347481	-0.008184	0.159174	-0.217716	0.262917	0.086073	0.935984	3.152300	-31.981879	-154.714513
03422		4.490633	1.629737	4.515742	-0.637653	-1.804754	-3.523838	0.719817	-0.773484	-0.085480	-0.691406	0.156982	-0.455811	0.044738	0.016115	0.045389	-0.217929	0.265753	0.090374	0.934727	3.608083	-32.425502	-154.801659
03423		9.760401	3.723410	10.878516	-0.719752	-3.653478	4.802465	0.595537	-1.053561	0.095469	-0.704834	0.154297	-0.453369	0.097011	0.036955	0.109408	-0.218710	0.270169	0.094193	0.932900	3.937967	-33.043968	-154.780172
03424		10.674171	0.931997	5.980877	-4.874778	-2.850537	1.081706	0.406690	-0.631613	-0.050995	-0.713867	0.154297	-0.455566	0.106554	0.009171	0.060164	-0.218724	0.272684	0.096828	0.931895	4.203006	-33.406993	-154.844247
03425		7.286354	-2.834935	7.443433	-3.337090	2.169941	0.221635	0.287703	-0.260179	0.039770	-0.716064	0.156494	-0.460205	0.072772	-0.028442	0.074488	-0.219203	0.273706	0.098418	0.931316	4.358576	-33.570357	-154.826117
03426		4.566365	-1.272361	9.627621	0.463605	2.447454	0.625539	0.349031	-0.235267	-0.019280	-0.727295	0.154053	-0.455566	0.045549	-0.012896	0.096307	-0.219476	0.274449	0.100306	0.930831	4.568977	-33.708019	-154.850501
03427		6.668172	-0.028791	9.286005	-0.697069	0.542272	1.585345	0.331381	-0.174932	-0.080235	-0.738770	0.160400	-0.457764	0.066600	-0.000469	0.092918	-0.219499	0.274964	0.102165	0.930472	4.792600	-33.817041	-154.910751
03428		7.003981	1.728243	8.471086	-0.511299	-1.348090	1.220130	0.210930	-0.102801	-0.028680	-0.742920	0.151367	-0.459961	0.069999	0.017183	0.084765	-0.219604	0.275236	0.103277	0.930243	4.923905	-33.878479	-154.935056
03429		6.662285	0.927039	8.144232	-0.774296	-0.603526	0.704449	0.145247	-0.092243	0.015533	-0.749512	0.151367	-0.462158	0.066585	0.009216	0.081480	-0.219855	0.275620	0.104048	0.929985	5.002173	-33.944943	-154.925678
03430		7.408416	0.875504	7.592220	-1.612397	-0.980355	0.662617	0.127181	-0.076129	-0.011655	-0.747559	0.155762	-0.459961	0.074056	0.008702	0.075956	-0.219938	0.275868	0.104718	0.929816	5.078235	-33.991951	-154.936918
03431		5.980425	0.599423	8.007578	-0.472295	-0.087682	0.188079	0.153374	-0.066673	-0.077466	-0.754395	0.155762	-0.457764	0.059780	0.005910	0.080100	-0.219778	0.276077	0.105629	0.929689	5.196497	-34.039330	-154.990678
03432		6.205293	0.504346	8.200710	-0.597379	-0.000965	0.466163	0.179967	-0.071438	-0.116728	-0.765381	0.150879	-0.453125	0.062027	0.004933	0.082034	-0.219447	0.276190	0.106684	0.929613	5.343310	-34.078094	-155.074220
03433		6.474304	0.695521	7.590461	-0.996488	-0.434566	0.128820	0.177085	-0.075926	-0.131559	-0.763184	0.155518	-0.462158	0.064719	0.006845	0.075935	-0.219056	0.276388	0.107790	0.929519	5.497033	-34.127781	-155.167044
03434		5.988959	0.644976	7.859328	-0.533691	-0.112660	0.074431	0.173628	-0.056353	-0.134814	-0.772461	0.164063	-0.451172	0.059872	0.006341	0.078616	-0.218640	0.276427	0.108824	0.929485	5.646925	-34.156572	-155.262361
03435		6.088095	0.187233	8.040745	-0.741795	0.338153	0.241609	0.182796	-0.038215	-0.165225	-0.770020	0.155273	-0.455322	0.060867	0.001749	0.080421	-0.218132	0.276423	0.109960	0.929472	5.815013	-34.182136	-155.374519
03436		5.556337	0.263739	8.285412	-0.200932	0.558339	0.149155	0.207515	-0.027363	-0.201028	-0.772461	0.159668	-0.455566	0.055555	0.002496	0.082864	-0.217471	0.276253	0.111210	0.929528	6.008994	-34.190028	-155.513641
03437		5.687763	0.673196	8.077086	-0.216007	0.112272	0.085990	0.225981	-0.016185	-0.220145	-0.776855	0.159668	-0.450928	0.056878	0.006578	0.080783	-0.216779	0.276067	0.112597	0.929578	6.222197	-34.198999	-155.662117
03438		6.297256	0.757059	7.769841	-0.791838	-0.243590	0.182941	0.208633	-0.001941	-0.214261	-0.779053	0.155029	-0.446533	0.062980	0.007422	0.077707	-0.216071	0.275769	0.113843	0.929680	6.420911	-34.190757	-155.808490
03439		6.030812	1.223046	8.020850	-0.270408	-0.455914	0.282833	0.174799	0.024695	-0.203645	-0.781494	0.164063	-0.451172	0.060330	0.012099	0.080212	-0.215408	0.275457	0.114924	0.929793	6.596616	-34.176683	-155.942456
03440		5.304806	1.055938	8.381732	0.353942	0.075389	0.156184	0.132058	0.032041	-0.195088	-0.788086	0.159424	-0.448730	0.053072	0.010452	0.083816	-0.214702	0.275093	0.115751	0.929962	6.742383	-34.149643	-156.072791
03441		4.957623	0.882755	8.668010	0.658319	0.457234	0.179770	0.107765	0.015444	-0.204525	-0.788086	0.159424	-0.448730	0.049592	0.008730	0.086681	-0.213946	0.274892	0.116529	0.930098	6.879721	-34.139857	-156.206588
03442		4.692757	1.303672	8.412865	0.925889	0.105792	-0.136462	0.114692	-0.004895	-0.210900	-0.790527	0.163818	-0.439941	0.046939	0.012939	0.084137	-0.213120	0.274709	0.117336	0.930240	7.023206	-34.132197	-156.350679
03443		5.167090	1.354856	8.417230	0.584958	-0.078065	0.138992	0.098648	-0.018048	-0.189583	-0.792480	0.159424	-0.444336	0.051676	0.013458	0.084184	-0.212400	0.274680	0.118087	0.930318	7.151191	-34.141797	-156.477138
03444		5.002310	0.957009	8.239183	0.439670	0.283074	-0.140581	0.085112	-0.045911	-0.172638	-0.786133	0.168213	-0.439941	0.050012	0.009492	0.082407	-0.211688	0.274741	0.118747	0.930379	7.264995	-34.159669	-156.598493
03445		4.554109	1.143123	8.446451	0.959348	0.352462	-0.203079	0.088369	-0.058798	-0.181668	-0.790527	0.161621	-0.437744	0.045527	0.011353	0.084483	-0.210973	0.274913	0.119481	0.930396	7.385803	-34.192238	-156.722245
03446		4.953772	1.209711	8.413039	0.668320	0.169251	0.000933	0.106843	-0.073650	-0.194050	-0.794922	0.159180	-0.433105	0.049518	0.012004	0.084155	-0.210174	0.275067	0.120301	0.930426	7.521928	-34.223847	-156.860976
03447		4.866097	1.108065	8.466279	0.712125	0.325364	-0.016179	0.102529	-0.077897	-0.195876	-0.799316	0.159180	-0.430908	0.048639	0.010990	0.084687	-0.209395	0.275304	0.121141	0.930423	7.657954	-34.265643	-156.997275
03448		5.067812	1.133778	8.477692	0.575497	0.260736	0.109017	0.088935	-0.110461	-0.194223	-0.799316	0.159180	-0.428711	0.050642	0.011251	0.084810	-0.208547	0.275647	0.121916	0.930410	7.786162	-34.317601	-157.139870
03449		5.712524	1.256920	8.131369	-0.014738	-0.152042	0.202729	0.071396	-0.150249	-0.198981	-0.801270	0.154541	-0.424072	0.057077	0.012483	0.081361	-0.207664	0.276249	0.122691	0.930327	7.910039	-34.399590	-157.285915
03450		5.756067	1.226851	8.338825	0.041285	-0.046577	0.393661	0.038757	-0.187382	-0.222000	-0.808105	0.154541	-0.419678	0.057496	0.012189	0.083445	-0.206571	0.276984	0.123351	0.930265	8.025116	-34.492483	-157.455562
03451		4.817386	0.693349	8.633239	0.664900	0.844567	0.039486	-0.020312	-0.250273	-0.256560	-0.810303	0.152344	-0.417480	0.048075	0.006881	0.086392	-0.205224	0.278110	0.123883	0.930156	8.125746	-34.626169	-157.652648
03452		4.901684	0.869206	8.942843	0.844808	0.792681	0.356595	-0.004064	-0.348294	-0.303764	-0.814697	0.149902	-0.417236	0.048874	0.008620	0.089513	-0.203590	0.279585	0.124622	0.929975	8.258735	-34.803092	-157.895679
03453		4.788546	0.891968	8.920961	0.960653	0.830182	0.271811	-0.014458	-0.454553	-0.325219	-0.816650	0.140869	-0.408203	0.047697	0.008848	0.089318	-0.201800	0.281609	0.125483	0.929638	8.403770	-35.045972	-158.162862
03454		5.678408	1.424741	8.552693	0.387446	-0.005562	0.544548	-0.024510	-0.604907	-0.312860	-0.821045	0.140869	-0.394775	0.056547	0.014169	0.085696	-0.199931	0.284287	0.126398	0.929103	8.547139	-35.366561	-158.441252
03455		5.765225	1.742826	8.753153	0.616237	-0.199396	0.792636	-0.011993	-0.807676	-0.258299	-0.841064	0.138184	-0.392578	0.057321	0.017359	0.087762	-0.198217	0.287985	0.127528	0.928176	8.693550	-35.814147	-158.704459
03456		5.190215	1.352803	9.191051	1.170288	0.521241	0.751478	-0.013018	-1.034134	-0.205369	-0.843262	0.135986	-0.381348	0.051440	0.013481	0.092176	-0.196583	0.292702	0.128765	0.926877	8.832987	-36.386031	-158.959008
03457		4.987340	1.450755	9.509822	1.629530	0.666388	0.879083	0.013289	-1.292372	-0.167538	-0.856445	0.131104	-0.358887	0.049270	0.014460	0.095419	-0.194997	0.298663	0.130352	0.925086	8.996538	-37.114845	-159.219710
03458		4.560731	1.391322	9.867336	2.233331	1.039552	0.865775	0.052280	-1.560854	-0.119565	-0.861084	0.133301	-0.341309	0.044844	0.013860	0.099029	-0.193499	0.305784	0.132268	0.922800	9.183371	-37.991313	-159.482155
03459		5.112761	1.403289	9.823012	1.971784	0.948764	1.133064	0.107350	-1.862359	-0.065486	-0.874512	0.130615	-0.323486	0.050215	0.013963	0.098708	-0.192115	0.314314	0.134673	0.919871	9.411694	-39.050235	-159.750797
03460		5.308202	1.452457	9.650840	1.955865	0.894276	1.086635	0.137446	-2.212209	-0.023133	-0.885254	0.123779	-0.291992	0.052012	0.014452	0.097098	-0.190722	0.324361	0.137436	0.916257	9.671809	-40.302231	-160.039678
03461		5.307216	1.581393	9.948935	2.411219	1.015861	1.268619	0.146486	-2.622820	0.013971	-0.903564	0.132080	-0.258789	0.051760	0.015744	0.100185	-0.189187	0.336314	0.140585	0.911777	9.972875	-41.796018	-160.371885
03462		5.054231	1.030223	10.653234	3.025321	1.983163	1.456807	0.163611	-3.068830	0.021423	-0.912109	0.120850	-0.220947	0.048899	0.010220	0.107299	-0.187378	0.350164	0.144158	0.906363	10.337417	-43.533186	-160.775965
03463		3.894608	0.164932	11.913197	4.507060	3.691325	1.285190	0.219787	-3.604704	-0.020726	-0.921143	0.125000	-0.180908	0.036791	0.001514	0.119810	-0.185007	0.366314	0.148551	0.899733	10.850248	-45.572413	-161.330251
03464		4.005614	0.244325	13.513137	5.849583	4.445432	2.216422	0.263727	-4.285709	-0.116783	-0.932129	0.122314	-0.132080	0.037150	0.002242	0.135951	-0.181736	0.385216	0.153859	0.891576	11.575432	-47.972353	-162.122157
03465		3.418940	-0.852217	14.998415	7.193800	6.407444	2.208510	0.331506	-5.138248	-0.290599	-0.936768	0.124268	-0.072021	0.030310	-0.008818	0.150782	-0.177025	0.407552	0.160512	0.881362	12.678902	-50.825993	-163.329069
03466		2.273478	-0.771804	14.847553	8.403721	6.763517	0.664598	0.531882	-6.179087	-0.532196	-0.940674	0.113037	-0.000732	0.018114	-0.008166	0.149061	-0.170715	0.433720	0.169308	0.868377	14.449603	-54.200737	-165.179439
03467		1.155231	0.008025	15.133363	10.190235	6.650582	-0.747543	0.591105	-7.379623	-0.861187	-0.935791	0.108398	0.065918	0.005959	-0.000401	0.151622	-0.161895	0.464283	0.179915	0.851976	17.218336	-58.143164	-168.103975
03468		3.138135	-0.160009	16.014266	10.457512	7.305899	0.357221	0.677248	-8.633977	-1.096629	-0.928467	0.097168	0.156982	0.024422	-0.002292	0.161290	-0.150870	0.499110	0.192135	0.831391	21.535350	-62.608882	-172.623008
03469		16.522232	2.855442	18.433389	8.850395	5.671971	12.770670	0.538868	-9.035661	-0.848312	-0.916748	0.086182	0.239502	0.156791	0.027367	0.191621	-0.139850	0.534970	0.203090	0.808086	27.361133	-67.132842	-178.713093
03470		21.549318	4.029601	17.979777	8.885804	5.412564	16.553449	0.685128	-8.272347	-0.685787	-0.898682	0.086182	0.308105	0.207946	0.038938	0.188639	-0.130382	0.566779	0.213274	0.785032	35.060178	-70.995789	173.466875
03471		23.358495	0.426086	16.882746	7.584577	9.181825	16.428283	0.866046	-7.585695	-0.785251	-0.875732	0.082031	0.372559	0.226973	0.002605	0.177535	-0.121560	0.594765	0.223661	0.762531	45.594698	-74.035052	162.945847
03472		18.058670	9.495388	20.681854	17.782420	3.637276	12.865537	0.535809	-6.656367	-1.371024	-0.852783	0.066895	0.410400	0.174210	0.093180	0.212939	-0.110400	0.617967	0.233670	0.742514	58.897713	-75.764365	149.487679
03473		15.379960	10.184846	29.212790	27.026814	7.173152	10.476145	-1.973132	-4.563097	-2.458455	-0.831299	0.036133	0.446533	0.148358	0.102901	0.294543	-0.089718	0.632928	0.236311	0.731785	69.441709	-75.635684	137.430483
03474		10.614841	-5.516894	22.827820	16.175973	17.016557	0.813557	-2.485827	-2.836334	-3.474121	-0.825439	0.002930	0.453857	0.101944	-0.054109	0.230421	-0.065746	0.640138	0.239379	0.727047	75.991496	-74.216936	129.170428
03475		3.499168	-10.586469	17.794131	11.346735	17.607505	-8.352392	-1.651810	-1.717869	-3.345775	-0.812744	-0.036865	0.459229	0.031696	-0.104937	0.179092	-0.046110	0.642817	0.244509	0.724483	79.626290	-72.547964	124.372961
03476		1.970071	-9.899070	15.080805	9.720093	15.318473	-10.202342	-1.156311	-1.162312	-2.187876	-0.812012	-0.056885	0.461914	0.017744	-0.098317	0.151485	-0.033027	0.644589	0.247571	0.722581	81.620837	-71.421489	121.575823
03477		1.543493	-11.910672	13.436852	7.765990	16.172181	-11.527631	-0.974059	-0.589686	-0.588712	-0.813965	-0.065918	0.455322	0.014688	-0.118494	0.134991	-0.026911	0.646161	0.245927	0.721991	82.180696	-71.134722	120.375349
03478		1.427746	-12.123298	12.264283	6.745806	15.817574	-11.742032	-0.386211	0.071821	0.853253	-0.818848	-0.052490	0.446289	0.014838	-0.120933	0.122871	-0.028815	0.647025	0.241737	0.722559	81.642537	-71.615022	120.706477
03479		0.543662	-7.205659	11.925535	8.318668	11.138867	-10.888030	0.155930	0.785371	1.925355	-0.821777	-0.039307	0.437012	0.006599	-0.072090	0.119175	-0.037116	0.646473	0.235812	0.724630	79.785905	-72.632770	122.730061
03480		-0.771765	-1.948495	11.339291	9.830074	5.996907	-10.424719	0.173026	1.439710	2.584611	-0.836182	-0.012939	0.416504	-0.006648	-0.019674	0.113426	-0.048716	0.644231	0.227765	0.728503	76.182691	-73.912506	126.592420
03481		-1.287942	0.773193	10.312826	9.937577	3.128219	-10.071191	-0.077558	2.010646	2.784845	-0.843750	0.007080	0.387207	-0.011948	0.007601	0.103249	-0.060786	0.640007	0.217847	0.734329	70.474393	-75.113184	132.447287
03482		-1.073381	2.892843	9.392584	9.824827	0.954245	-9.263789	-0.288718	2.536799	2.627197	-0.853760	0.031494	0.362305	-0.009922	0.028930	0.094013	-0.072246	0.633566	0.207547	0.741821	62.835149	-75.924047	140.162221
03483		-0.856583	4.689182	8.667953	9.773829	-0.908021	-8.587410	-0.500207	3.034681	2.317877	-0.861084	0.046875	0.324463	-0.007795	0.047015	0.086684	-0.082335	0.624759	0.197090	0.751034	53.744172	-76.140489	149.217149
03484		-0.649002	5.904347	8.045232	9.588292	-2.252054	-8.080990	-0.737335	3.457285	1.958043	-0.866211	0.060303	0.295166	-0.005680	0.059282	0.080337	-0.090760	0.613914	0.186716	0.761583	44.420977	-75.693206	158.389226
03485		-0.024879	5.843424	7.707302	9.063634	-2.325176	-7.365482	-0.876321	3.809571	1.555143	-0.880127	0.069092	0.257324	0.000760	0.058774	0.076808	-0.097488	0.601085	0.176722	0.773280	35.992477	-74.594740	166.574159
03486		2.492103	3.462943	8.529845	8.166218	0.237051	-4.892644	-0.901017	4.158681	1.180149	-0.878174	0.078125	0.219482	0.026479	0.035165	0.084601	-0.102981	0.586375	0.167596	0.785793	29.108426	-72.951632	173.201609
03487		5.034636	3.900820	6.875571	5.888225	-0.872181	-2.574416	-0.481211	4.766831	1.127033	-0.887451	0.084717	0.166016	0.051743	0.039461	0.067439	-0.109918	0.568615	0.159788	0.799414	23.345426	-70.777026	178.960164
03488		2.553912	6.632847	6.697767	7.281547	-3.630222	-4.411782	-0.451480	5.101479	1.271415	-0.892578	0.097900	0.121338	0.026811	0.066646	0.066154	-0.117743	0.549325	0.151485	0.813284	18.461366	-68.308497	-176.107988
03489		2.620192	7.279805	6.353292	6.978737	-4.495578	-4.217647	-0.622626	5.180168	1.272783	-0.891113	0.113770	0.074463	0.027367	0.073166	0.062607	-0.125065	0.529333	0.142255	0.827000	14.454502	-65.657593	-172.155432
03490		4.382685	7.350844	6.828760	6.413775	-4.665677	-2.265786	-0.729225	5.271800	1.100942	-0.886719	0.118408	0.025391	0.045195	0.074000	0.066839	-0.131382	0.508615	0.132953	0.840460	11.357111	-62.857653	-169.185176
03491		5.565633	7.345909	7.476876	6.042132	-4.765192	-0.779065	-0.753475	5.405577	0.734052	-0.887451	0.129639	-0.030273	0.057374	0.073945	0.072955	-0.136094	0.486614	0.124231	0.853963	9.139744	-59.872919	-167.160906
03492		7.475239	7.028186	8.360017	5.209447	-4.650865	1.428322	-0.796152	5.534312	0.291845	-0.880615	0.127686	-0.083496	0.076919	0.070720	0.081211	-0.138781	0.463555	0.116283	0.867373	7.660033	-56.764493	-165.962339
03493		9.103889	6.252077	8.520791	3.572935	-4.398143	2.931574	-0.829284	5.705837	-0.028784	-0.876221	0.130127	-0.134766	0.093424	0.062853	0.082305	-0.140016	0.439089	0.108665	0.880789	6.610217	-53.505927	-165.269989
03494		9.874786	4.583398	8.473178	1.827214	-3.283515	3.459186	-0.814736	5.742140	-0.123132	-0.854004	0.128418	-0.185791	0.101150	0.046109	0.081663	-0.140742	0.414160	0.101258	0.893538	5.775926	-50.231666	-164.807090
03495		11.713522	2.234386	8.462068	-0.839288	-1.715857	4.682148	-0.675621	5.618908	0.018314	-0.838135	0.124512	-0.241211	0.119447	0.022633	0.081210	-0.142241	0.389283	0.094130	0.905188	5.020398	-47.014567	-164.323942
03496		14.735749	-0.493292	8.008936	-4.806719	-0.190079	6.259581	-0.374578	5.455368	0.359346	-0.813721	0.129639	-0.283691	0.149477	-0.004521	0.076040	-0.145651	0.364922	0.087796	0.915374	4.333676	-43.920164	-163.666315
03497		17.571675	-1.748757	6.970497	-8.652169	-0.286925	7.080549	0.115884	5.272643	0.899634	-0.784668	0.130371	-0.328125	0.177549	-0.016730	0.065030	-0.152270	0.340879	0.082735	0.923997	3.724958	-40.930197	-162.674666
03498		21.270987	-1.385094	5.556077	-12.826112	-2.365401	7.936359	0.486065	5.012537	1.493810	-0.760254	0.137451	-0.370605	0.214109	-0.012381	0.050175	-0.162020	0.317892	0.078567	0.930871	3.152171	-38.118691	-161.342219
03499		25.047865	-1.152953	3.432460	-17.453575	-4.752553	7.883516	0.661355	4.711587	1.873402	-0.722168	0.142822	-0.399902	0.251288	-0.009278	0.028378	-0.173610	0.295981	0.074749	0.936305	2.618224	-35.465443	-159.828417
03500		26.445120	-0.780860	0.898845	-20.250632	-6.865172	5.789013	0.672025	4.293424	1.950907	-0.693604	0.154541	-0.420166	0.264622	-0.005245	0.003288	-0.185294	0.275984	0.071237	0.940438	2.168446	-33.058252	-158.351287
03501		26.677804	-0.298753	-2.106609	-22.051254	-8.798938	2.534466	0.440192	3.681055	1.797831	-0.673584	0.159424	-0.438232	0.266342	-0.000538	-0.025974	-0.195605	0.258802	0.067347	0.943517	1.727135	-30.978478	-157.053932
03502		25.937880	-1.366114	-5.455738	-23.594402	-8.896312	-1.536059	0.070478	2.962353	1.400694	-0.655762	0.168701	-0.449463	0.258620	-0.011828	-0.058396	-0.203279	0.245235	0.062939	0.945820	1.271920	-29.306776	-156.073255
03503		24.327440	-1.741648	-8.238113	-23.732371	-8.936773	-5.384863	-0.451540	2.139173	0.959027	-0.644775	0.171143	-0.449707	0.242455	-0.016442	-0.084940	-0.207907	0.235844	0.057406	0.947553	0.696492	-28.087515	-155.423416
03504		24.196271	-1.534685	-9.929933	-24.267377	-9.564540	-7.358408	-1.265564	1.325976	0.666801	-0.629395	0.180420	-0.454346	0.241348	-0.015176	-0.100804	-0.209948	0.231097	0.049222	0.948732	-0.234791	-27.333365	-154.986725
03505		26.042406	-2.164493	-11.359005	-26.643450	-9.939311	-8.009013	-2.095581	0.656554	0.560022	-0.629639	0.191406	-0.450195	0.260111	-0.022111	-0.114214	-0.210328	0.230318	0.037908	0.949357	-1.601296	-26.952650	-154.632256
03506		24.634042	-4.257123	-13.287614	-27.241605	-7.689622	-10.342610	-2.420927	0.113058	0.514138	-0.628174	0.207031	-0.443848	0.246377	-0.043543	-0.132492	-0.209991	0.232446	0.025681	0.949322	-3.140393	-26.879704	-154.303292
03507		22.495498	-26.693973	-22.540329	-38.785485	12.206556	-18.377977	0.849675	-0.995705	-0.209748	-0.631836	0.189209	-0.447998	0.225798	-0.266219	-0.225413	-0.209855	0.236295	0.030975	0.948244	-2.611574	-27.460160	-154.403924
03508		27.729847	3.787964	-26.031386	-31.840362	-18.679868	-19.712053	4.556019	-2.563238	-0.810552	-0.646729	0.168701	-0.429688	0.280763	0.042608	-0.255795	-0.210929	0.243498	0.056189	0.945019	0.227627	-28.942006	-154.894233
03509		17.763173	20.074461	2.212778	-4.214113	-24.110993	1.330217	2.383366	-4.759598	0.150288	-0.669189	0.168213	-0.407227	0.176850	0.200562	0.028734	-0.213139	0.263517	0.072234	0.938037	1.561128	-31.679639	-154.840415
03510		60.736844	21.551906	38.852560	-19.057329	-30.539029	56.267096	3.075369	-2.096678	-1.033423	-0.673340	0.157227	-0.418213	0.604310	0.206319	0.398092	-0.211550	0.269691	0.090218	0.935080	3.727789	-32.856415	-155.603855
03511		-14.579746	13.375521	8.905992	21.240179	-4.422517	-9.519749	0.717996	-0.763976	-0.893217	-0.688965	0.156738	-0.409180	-0.145539	0.134086	0.088985	-0.208015	0.272203	0.095593	0.934611	4.489055	-33.269436	-156.246401
03512		19.973564	1.622428	12.067165	-8.837662	-4.549960	11.362278	0.809911	-1.033924	-0.107928	-0.695801	0.154541	-0.411377	0.199117	0.015625	0.121766	-0.208116	0.276174	0.100577	0.932899	5.022709	-33.858802	-156.377881
03513		7.972990	6.723774	7.020752	0.275322	-6.503246	0.943703	0.393967	-0.623967	0.069346	-0.709229	0.156494	-0.420166	0.079487	0.067127	0.070588	-0.208691	0.278810	0.102983	0.931723	5.241804	-34.230940	-156.365181
03514		10.119860	0.151660	5.270809	-5.070620	-1.859477	0.239528	0.215567	-0.306700	0.164279	-0.711670	0.163086	-0.420410	0.101116	0.001543	0.052865	-0.209600	0.280137	0.104057	0.931001	5.308482	-34.418725	-156.269868
03515		8.594990	-0.362975	7.314822	-3.151453	-0.254313	1.027787	0.097764	-0.065656	0.159026	-0.725342	0.165039	-0.424805	0.085929	-0.003597	0.073175	-0.210468	0.280528	0.104380	0.930651	5.303681	-34.477678	-156.160456
03516		6.938256	-1.341963	8.279757	-1.876750	1.469458	0.808665	0.109788	-0.020224	0.099933	-0.736572	0.164795	-0.429199	0.069381	-0.013430	0.082797	-0.211078	0.280599	0.104750	0.930450	5.324285	-34.498669	-156.091205
03517		6.159950	-0.158474	8.616495	-0.597313	0.785019	0.734400	0.083444	0.063344	0.034042	-0.741211	0.169189	-0.431396	0.061627	-0.001610	0.086145	-0.211441	0.280334	0.105036	0.930415	5.353090	-34.476785	-156.055555
03518		5.787200	0.967657	8.798055	0.272745	-0.031422	0.758899	0.075374	0.047781	-0.000716	-0.750244	0.168945	-0.433594	0.057893	0.009643	0.087970	-0.211569	0.280071	0.105316	0.930434	5.390929	-34.453642	-156.051562
03519		6.760472	1.518822	8.296049	-0.451255	-1.002831	0.940263	0.012906	0.003760	0.034276	-0.755127	0.177734	-0.438232	0.067604	0.015194	0.082960	-0.211803	0.280159	0.105336	0.930352	5.381396	-34.465750	-156.019714
03520		7.782041	1.199397	7.389779	-1.792835	-1.349564	0.750076	-0.031409	-0.035532	0.060022	-0.759766	0.179932	-0.438232	0.077804	0.012029	0.073910	-0.212020	0.280429	0.105122	0.930245	5.337323	-34.493382	-155.979103
03521		6.871920	1.251716	7.568393	-0.987312	-1.039366	0.386115	-0.069410	-0.069894	0.073695	-0.770996	0.181885	-0.442627	0.068688	0.012569	0.075704	-0.212296	0.280965	0.104781	0.930059	5.267146	-34.549385	-155.922916
03522		5.970204	1.399051	8.179023	0.063437	-0.680084	0.386849	-0.063275	-0.111304	0.073002	-0.775635	0.186279	-0.440430	0.059651	0.014038	0.081819	-0.212489	0.281627	0.104481	0.929849	5.202307	-34.620856	-155.877995
03523		5.982952	0.306776	8.278344	-0.376089	0.315117	0.394175	-0.049655	-0.151221	0.071592	-0.782471	0.192871	-0.429443	0.059766	0.003110	0.082828	-0.212739	0.282519	0.104322	0.929539	5.147114	-34.723163	-155.828225
03524		4.977652	0.347044	8.286912	0.416958	0.621761	-0.168523	-0.016163	-0.146352	0.038181	-0.784912	0.197266	-0.434082	0.049715	0.003487	0.082905	-0.212818	0.283276	0.104327	0.929289	5.124050	-34.812784	-155.809432
03525		5.800502	0.318353	8.124517	-0.274097	0.324888	0.166002	0.001041	-0.163011	0.009526	-0.784912	0.195068	-0.438477	0.057939	0.003186	0.081292	-0.212849	0.284135	0.104503	0.929000	5.122539	-34.918454	-155.802830
03526		6.136936	0.446224	8.033104	-0.496656	0.077046	0.293708	0.011143	-0.158725	-0.005233	-0.793945	0.194824	-0.433838	0.061306	0.004456	0.080380	-0.212758	0.284897	0.104710	0.928764	5.132801	-35.012911	-155.814982
03527		5.407647	0.428480	8.299453	0.184822	0.431072	0.091208	0.013849	-0.165088	-0.029500	-0.787354	0.199463	-0.425293	0.054009	0.004271	0.083039	-0.212624	0.285731	0.105003	0.928506	5.154274	-35.117728	-155.835784
03528		5.119007	-0.295414	8.477139	0.172070	1.239113	0.015250	0.034122	-0.202402	-0.094715	-0.803223	0.201172	-0.425049	0.051103	-0.002993	0.084823	-0.212127	0.286624	0.105490	0.928289	5.215402	-35.232464	-155.913315
03529		4.999573	-0.544915	8.654159	0.251959	1.576882	0.068458	0.051503	-0.259263	-0.183355	-0.796387	0.199219	-0.414063	0.049878	-0.005517	0.086605	-0.211282	0.287773	0.106277	0.928037	5.324390	-35.382756	-156.048113
03530		5.087897	-0.303502	8.566658	0.274744	1.332366	0.062313	0.035847	-0.355116	-0.261136	-0.805176	0.198975	-0.409668	0.050723	-0.003117	0.085756	-0.209933	0.289283	0.107173	0.927770	5.460829	-35.575412	-156.253120
03531		5.722238	0.343259	8.330253	0.007215	0.509955	0.286552	0.059245	-0.446240	-0.321442	-0.802490	0.185791	-0.406982	0.057042	0.003316	0.083431	-0.208350	0.291214	0.108390	0.927381	5.640244	-35.824115	-156.500138
03532		5.935911	0.510944	8.159625	-0.127600	0.278000	0.285915	0.026098	-0.515237	-0.331992	-0.809326	0.189941	-0.398193	0.059157	0.005000	0.081749	-0.206569	0.293434	0.109509	0.926948	5.809998	-36.103035	-156.768988
03533		5.233014	1.047210	8.311261	0.748868	0.114337	0.035360	0.000696	-0.555250	-0.328089	-0.809570	0.192139	-0.393799	0.052116	0.010386	0.083258	-0.204795	0.295924	0.110578	0.926423	5.968126	-36.412463	-157.033863
03534		5.121467	1.383208	8.564668	1.148564	-0.029820	0.196103	0.005826	-0.562860	-0.308722	-0.815918	0.187500	-0.386963	0.050995	0.013751	0.085791	-0.203062	0.298393	0.111615	0.925889	6.123235	-36.718700	-157.293802
03535		5.267701	1.231567	8.403341	0.935237	0.045477	0.137416	0.008984	-0.588331	-0.265781	-0.813965	0.192139	-0.385010	0.052446	0.012242	0.084188	-0.201571	0.301053	0.112661	0.925226	6.265734	-37.049321	-157.520326
03536		6.001707	1.442883	7.792573	0.220075	-0.530809	0.111833	-0.000716	-0.620294	-0.240731	-0.818359	0.187500	-0.373779	0.059792	0.014357	0.078111	-0.200106	0.303825	0.113623	0.924520	6.395326	-37.391518	-157.740348
03537		6.212672	1.640037	7.674193	0.140745	-0.770956	0.165575	-0.016114	-0.660314	-0.212623	-0.820313	0.180908	-0.369141	0.061890	0.016341	0.076945	-0.198783	0.306864	0.114542	0.923688	6.508281	-37.765461	-157.937896
03538		5.873033	1.724671	7.834381	0.564092	-0.655689	0.091657	-0.019394	-0.693551	-0.153672	-0.827148	0.182861	-0.360352	0.058471	0.017209	0.078545	-0.197645	0.310035	0.115355	0.922772	6.596881	-38.154367	-158.105017
03539		5.373582	1.479855	8.224773	1.087507	-0.124471	0.062214	-0.019188	-0.717301	-0.093482	-0.829102	0.178467	-0.357910	0.053447	0.014781	0.082438	-0.196820	0.313402	0.116133	0.921713	6.662655	-38.568298	-158.226029
03540		5.407686	1.195118	8.179503	0.978927	0.137434	0.015741	-0.026140	-0.759188	-0.046438	-0.837891	0.173584	-0.340088	0.053769	0.011949	0.081998	-0.196122	0.316936	0.116809	0.920567	6.705675	-39.001403	-158.323544
03541		6.066804	1.151645	7.873124	0.391017	-0.082891	0.185220	-0.017914	-0.819374	-0.017437	-0.842529	0.175781	-0.340088	0.060346	0.011518	0.078978	-0.195572	0.320807	0.117572	0.919245	6.746261	-39.478403	-158.401649
03542		6.400923	1.435589	7.658903	0.235289	-0.469924	0.257799	-0.018470	-0.873856	0.004889	-0.844727	0.175781	-0.331055	0.063673	0.014365	0.076866	-0.195049	0.324880	0.118310	0.917830	6.778415	-39.980110	-158.473341
03543		6.566185	1.230478	7.394859	-0.032412	-0.385941	0.145328	-0.022889	-0.946221	0.034176	-0.846924	0.177979	-0.320068	0.065309	0.012324	0.074257	-0.194642	0.329355	0.119087	0.916219	6.801166	-40.532671	-158.526554
03544		6.523934	1.068447	7.526604	0.091820	-0.144726	0.203439	-0.028258	-1.034544	0.049594	-0.858154	0.173340	-0.306641	0.064846	0.010711	0.075601	-0.194203	0.334186	0.119859	0.914461	6.817344	-41.128787	-158.580780
03545		6.165866	0.963362	7.896102	0.607644	0.218660	0.231031	-0.049581	-1.123008	0.052071	-0.860107	0.170898	-0.295410	0.061211	0.009669	0.079303	-0.193712	0.339489	0.120650	0.912506	6.828749	-41.783192	-158.638821
03546		6.050223	0.382958	8.192831	0.716196	0.919008	0.312307	-0.054308	-1.233924	0.036379	-0.869141	0.172852	-0.282227	0.059995	0.003863	0.082298	-0.193036	0.345225	0.121511	0.910380	6.851069	-42.491808	-158.723067
03547		6.148173	0.363058	8.322503	0.840400	1.010012	0.457064	-0.040142	-1.381610	-0.001612	-0.878174	0.170410	-0.264404	0.060905	0.003647	0.083646	-0.192133	0.351639	0.122679	0.907957	6.916147	-43.289619	-158.851114
03548		6.083378	0.363798	8.553444	1.160554	1.172595	0.559252	-0.030313	-1.569993	-0.055430	-0.886963	0.167969	-0.253174	0.060161	0.003634	0.086008	-0.190857	0.358789	0.124121	0.905228	7.029368	-44.182833	-159.044465
03549		5.607796	0.456980	8.746930	1.792795	1.355167	0.341700	-0.030289	-1.773616	-0.080263	-0.898193	0.167725	-0.228516	0.055301	0.004561	0.087961	-0.189337	0.366876	0.125831	0.902064	7.181148	-45.197492	-159.284423
03550		5.466100	0.775923	9.066456	2.394875	1.303964	0.446039	-0.006825	-1.999414	-0.094975	-0.906982	0.165283	-0.201904	0.053755	0.007737	0.091205	-0.187627	0.375860	0.127838	0.898434	7.377648	-46.331133	-159.568434
03551		5.493784	0.694241	9.150693	2.594018	1.497902	0.454795	0.012938	-2.295126	-0.089697	-0.908691	0.149658	-0.172607	0.053886	0.006912	0.092130	-0.185762	0.386168	0.130223	0.894097	7.623999	-47.639858	-159.895618
03552		5.877568	0.975748	9.364993	2.843258	1.349467	0.831028	0.026725	-2.649850	-0.108883	-0.922363	0.156006	-0.143799	0.057533	0.009713	0.094419	-0.183582	0.397922	0.132979	0.888972	7.936163	-49.139893	-160.296739
03553		5.483817	0.766816	10.127476	3.776933	2.049629	0.899408	0.047301	-3.133691	-0.103260	-0.928711	0.151367	-0.105957	0.053246	0.007616	0.102119	-0.181084	0.411781	0.136265	0.882654	8.338048	-50.920306	-160.787709
03554		4.848768	0.438902	11.459938	5.254379	3.152472	1.025597	0.066381	-3.776458	-0.153733	-0.933350	0.153320	-0.061768	0.046316	0.004315	0.115489	-0.177932	0.428245	0.140246	0.874801	8.898101	-53.050668	-161.454087
03555		3.311038	-0.075111	13.024973	7.408482	4.714818	0.359376	0.139762	-4.645026	-0.269564	-0.939453	0.141846	-0.001465	0.030073	-0.000884	0.130971	-0.173713	0.448215	0.145533	0.864724	9.795893	-55.662231	-162.462900
03556		2.430859	-0.579843	14.354294	9.099910	6.075703	-0.194509	0.324515	-5.762000	-0.403178	-0.938965	0.135010	0.058594	0.020149	-0.006075	0.144154	-0.168427	0.472398	0.152759	0.851550	11.270129	-58.870252	-163.997400
03557		1.923230	-0.683765	14.436494	9.899405	6.524400	-1.331889	0.508904	-7.042715	-0.514475	-0.934326	0.132813	0.129639	0.014117	-0.007247	0.144904	-0.161906	0.501334	0.161967	0.834396	13.639904	-62.756554	-166.381083
03558		7.690381	1.071051	15.771351	9.906001	5.292827	3.704314	0.573919	-8.177462	-0.508942	-0.918213	0.124023	0.211914	0.070399	0.010067	0.160711	-0.154456	0.534177	0.172094	0.813131	17.242073	-67.201499	-169.993700
03559		17.991733	5.744294	16.358980	9.824281	1.379945	13.112031	0.492611	-8.398262	-0.315714	-0.893555	0.130859	0.289307	0.172927	0.056751	0.171091	-0.147073	0.567245	0.181251	0.789779	22.332500	-71.679082	-175.130480
03560		23.021285	7.807418	16.665394	11.231882	0.357683	17.426417	-0.297026	-7.917866	0.182844	-0.877441	0.126465	0.360352	0.223310	0.078537	0.175471	-0.139652	0.598476	0.185215	0.766824	28.528257	-75.832167	178.240483
03561		23.272889	-0.536427	17.689446	10.318144	8.940214	16.034056	-0.520242	-7.339020	0.267366	-0.852783	0.126953	0.411377	0.226038	-0.004584	0.185285	-0.132217	0.626849	0.187411	0.744618	38.229923	-79.446440	168.007957
03562		19.761667	-1.372669	17.762405	12.252392	10.140495	11.510940	-0.336213	-6.664048	-0.242015	-0.812012	0.120850	0.468994	0.191537	-0.013655	0.184097	-0.123932	0.651333	0.191195	0.723775	55.784077	-81.983447	150.030517
03563		15.072118	0.928663	17.669136	14.863190	8.121262	6.099404	-0.620493	-6.109936	-0.821514	-0.793457	0.112061	0.506836	0.145270	0.009240	0.181157	-0.112957	0.672766	0.195270	0.704625	81.454923	-82.843513	123.772351
03564		17.198796	4.317585	28.468081	26.768727	9.977603	7.754166	-2.043693	-4.319735	-1.357952	-0.778809	0.083496	0.529541	0.166094	0.044966	0.287857	-0.097032	0.687634	0.194993	0.692620	99.032648	-82.045678	104.859564
03565		17.858566	-7.798816	23.548077	18.045029	18.982056	5.943353	-1.921321	-2.266118	-2.224844	-0.771484	0.063721	0.536621	0.175031	-0.077669	0.238225	-0.080383	0.694151	0.196982	0.687671	104.530921	-80.526833	98.168704
03566		4.170213	-10.000791	19.694189	14.302463	17.269974	-8.248530	-0.789277	-0.461451	-2.060602	-0.775146	0.041260	0.532715	0.040219	-0.099649	0.197430	-0.070083	0.694010	0.201568	0.687611	103.909835	-79.317912	98.337053
03567		-1.445593	-6.464751	14.627963	11.174669	11.058019	-13.084723	-0.211887	-0.060235	-1.174386	-0.770508	0.039307	0.526123	-0.014879	-0.064406	0.146344	-0.065110	0.693114	0.204822	0.688042	103.137853	-78.653339	98.979066
03568		-1.210306	-5.022474	13.081472	10.307298	9.176024	-12.528361	-0.377055	0.171167	0.128506	-0.779541	0.041260	0.514893	-0.011959	-0.049986	0.130919	-0.064404	0.692807	0.202998	0.688958	102.543418	-78.747511	99.361796
03569		0.594340	-6.706614	12.231117	8.871692	10.721364	-10.941970	-0.299366	0.683896	1.135694	-0.791260	0.050049	0.501465	0.006742	-0.066846	0.122389	-0.067857	0.691688	0.197693	0.691289	101.045518	-79.464673	100.692994
03570		0.907804	-5.036197	11.354252	8.658928	8.946571	-10.101224	0.147936	1.401797	1.693036	-0.793945	0.063232	0.483398	0.010300	-0.050362	0.113436	-0.075585	0.688453	0.191836	0.695354	97.540291	-80.553073	104.334932
03571		-0.062109	-0.915462	10.475982	9.377317	4.748296	-10.133479	0.414294	2.089138	1.926342	-0.803711	0.081055	0.467529	0.000563	-0.009370	0.104739	-0.085601	0.682803	0.185716	0.701400	90.567148	-81.741966	111.612705
03572		-0.642399	2.258604	9.411590	9.590992	1.431847	-10.038521	0.286870	2.638172	1.918072	-0.813477	0.103027	0.436035	-0.005397	0.022396	0.094224	-0.095730	0.675148	0.178995	0.709205	78.979190	-82.705674	123.469812
03573		-0.196703	3.435308	8.567381	9.215417	0.120848	-9.266871	0.011295	3.103306	1.680065	-0.822998	0.111816	0.402588	-0.000926	0.034338	0.085695	-0.104406	0.665515	0.171738	0.718816	62.915354	-83.037380	139.647002
03574		0.509539	3.744100	7.881706	8.609907	-0.365298	-8.352984	-0.148573	3.551220	1.303708	-0.834473	0.120605	0.369141	0.006249	0.037538	0.078685	-0.111613	0.653860	0.164957	0.729930	46.342320	-82.466255	156.262556
03575		1.641571	4.476734	7.550851	8.381306	-1.139726	-6.949161	-0.221386	3.998802	0.931608	-0.848389	0.125000	0.329346	0.017711	0.044931	0.075113	-0.117498	0.639983	0.158735	0.742576	33.196468	-81.031540	169.401112
03576		2.718150	4.731282	7.297697	7.956066	-1.507865	-5.635574	-0.300948	4.450927	0.667549	-0.859863	0.131592	0.286865	0.028637	0.047516	0.072279	-0.122503	0.624035	0.152802	0.756456	24.166408	-78.975822	178.390122
03577		4.021029	1.776002	8.026257	7.053545	1.401498	-4.154848	-0.356944	4.877453	0.479636	-0.871338	0.135742	0.242432	0.042108	0.018002	0.079219	-0.126835	0.605935	0.146829	0.771490	18.123290	-76.456317	-175.649057
03578		6.616924	1.521855	5.674764	3.924052	0.548133	-1.901587	0.184907	5.490162	0.563040	-0.880859	0.146973	0.186768	0.067651	0.015356	0.054918	-0.133538	0.584858	0.142275	0.787316	13.836468	-73.523085	-171.105928
03579		3.074431	4.750010	5.870867	5.993233	-2.334851	-4.802566	0.258524	5.793700	0.716423	-0.881104	0.153809	0.133301	0.032258	0.047539	0.057850	-0.141157	0.562074	0.137184	0.803323	10.578497	-70.353135	-167.534314
03580		2.595439	5.560329	5.695898	6.079161	-3.204960	-5.031480	0.047679	5.764921	0.663825	-0.888184	0.156006	0.084473	0.027397	0.055679	0.056196	-0.147843	0.539141	0.131360	0.818666	8.245062	-67.160217	-165.005795
03581		4.436845	5.696423	6.330704	5.691034	-3.407179	-2.870042	-0.139537	5.770246	0.419515	-0.885986	0.154053	0.029053	0.046049	0.057103	0.061955	-0.152905	0.515598	0.125261	0.833720	6.682101	-63.900901	-163.385098
03582		5.844345	5.637470	7.359512	5.510656	-3.338149	-0.949111	-0.263773	5.887725	0.027123	-0.888184	0.151855	-0.024170	0.060566	0.056478	0.071758	-0.155952	0.491088	0.119513	0.848662	5.799893	-60.553254	-162.562730
03583		7.820519	5.150464	8.180149	4.491774	-3.123407	1.351026	-0.413527	6.058020	-0.356121	-0.879150	0.147705	-0.086182	0.080724	0.051528	0.079275	-0.156938	0.465187	0.113784	0.863727	5.334583	-57.066644	-162.305578
03584		9.214597	4.068092	8.356016	2.802118	-2.565565	2.708985	-0.512282	6.274577	-0.575086	-0.863037	0.134766	-0.141602	0.094821	0.040620	0.080509	-0.156749	0.437973	0.107906	0.878616	5.040683	-53.460661	-162.308985
03585		10.324896	2.687363	8.115559	0.703703	-1.859600	3.441483	-0.524533	6.377834	-0.558483	-0.845215	0.133057	-0.201416	0.105839	0.026787	0.077737	-0.156471	0.409756	0.101707	0.892901	4.743569	-49.780054	-162.322874
03586		11.248490	1.558055	7.411650	-1.561827	-1.517072	3.569632	-0.472098	6.306178	-0.273121	-0.824707	0.129150	-0.254883	0.114767	0.015594	0.070485	-0.157410	0.381669	0.095151	0.905813	4.324674	-46.169950	-162.127474
03587		12.906314	0.426302	6.610380	-4.360825	-1.386393	3.951375	-0.349703	6.003622	0.214506	-0.793457	0.130127	-0.301514	0.130964	0.004514	0.062183	-0.160475	0.354596	0.088329	0.916901	3.760316	-42.734923	-161.616987
03588		16.165096	-1.122276	5.872488	-8.379188	-1.301324	5.189823	-0.141494	5.501501	0.790140	-0.766602	0.132813	-0.341797	0.163227	-0.010540	0.054257	-0.166214	0.329741	0.081808	0.925717	3.114264	-39.619649	-160.763908
03589		22.377575	-2.841426	5.419107	-14.535594	-1.931039	8.161237	0.295219	5.047076	1.276095	-0.735596	0.137939	-0.377441	0.225223	-0.027055	0.048479	-0.174588	0.306463	0.076793	0.932578	2.591232	-36.756535	-159.653877
03590		28.157110	-2.325506	4.091403	-20.170010	-5.057087	9.742069	0.752248	4.860618	1.553150	-0.706543	0.140869	-0.406494	0.282623	-0.021199	0.033971	-0.184791	0.283678	0.073630	0.938061	2.302165	-34.016104	-158.415971
03591		28.791894	-1.953288	1.014177	-22.718221	-7.114053	6.524979	0.898547	4.651450	1.577520	-0.675293	0.145996	-0.435547	0.288192	-0.017286	0.003360	-0.195096	0.261462	0.071236	0.942603	2.166486	-31.379584	-157.221170
03592		26.999249	-1.772081	-2.656124	-23.342205	-8.229244	1.432765	0.767058	4.043979	1.394235	-0.652588	0.144287	-0.451172	0.269495	-0.015725	-0.032077	-0.204067	0.242130	0.069045	0.946025	2.086624	-29.097810	-156.196118
03593		26.969126	-1.734763	-5.110097	-24.550179	-9.315267	-1.633566	0.357415	3.219801	1.021546	-0.632568	0.144775	-0.466797	0.268905	-0.015876	-0.055464	-0.210398	0.226820	0.066163	0.948635	1.939604	-27.269719	-155.460046
03594		26.895317	-1.458562	-7.105913	-25.265770	-10.287660	-4.178545	-0.255514	2.485399	0.597777	-0.619385	0.151611	-0.471680	0.268085	-0.013877	-0.074376	-0.213753	0.215519	0.061632	0.950822	1.596263	-25.860999	-155.026630
03595		25.663951	-1.323763	-9.182332	-25.052386	-10.485658	-7.144946	-0.961932	1.754562	0.274484	-0.605957	0.154053	-0.473877	0.255839	-0.013335	-0.094006	-0.214546	0.208279	0.054854	0.952671	0.956433	-24.858523	-154.827740
03596		25.986143	-1.740576	-10.916593	-26.197906	-10.506921	-8.947752	-1.533501	0.997292	0.050326	-0.604004	0.160889	-0.476318	0.259318	-0.018183	-0.110322	-0.213458	0.205218	0.046404	0.954027	0.058528	-24.291440	-154.788837
03597		25.461199	-2.369813	-12.431261	-26.672600	-9.808440	-10.699211	-1.820740	0.332167	-0.131695	-0.606689	0.171875	-0.472168	0.254389	-0.024999	-0.124512	-0.211034	0.205570	0.037477	0.954883	-0.953706	-24.104894	-154.871716
03598		22.769283	-2.322155	-12.789834	-24.656347	-8.617955	-12.093232	-1.778517	-0.286358	-0.181491	-0.604492	0.176514	-0.474365	0.227854	-0.024562	-0.127358	-0.208283	0.208811	0.029451	0.955065	-1.931697	-24.275515	-154.979368
03599		20.006322	-2.525696	-10.991158	-21.843051	-6.912326	-11.403805	-1.491506	-0.866338	-0.025428	-0.607422	0.194092	-0.470215	0.200533	-0.026097	-0.108851	-0.206480	0.214556	0.023243	0.954354	-2.792897	-24.779247	-154.970085
03600		16.475784	-21.983651	-15.977119	-28.891759	11.470438	-16.422219	1.905547	-1.963981	-0.376494	-0.613525	0.176270	-0.458740	0.165918	-0.218623	-0.160233	-0.206486	0.221935	0.034743	0.952313	-1.623369	-25.915950	-155.158768
03601		-0.162858	17.476390	3.178955	8.680707	-15.282515	-7.239448	3.108537	-3.642082	-0.444145	-0.633301	0.169189	-0.443115	-0.001853	0.174246	0.034468	-0.207142	0.236021	0.053762	0.947890	0.268755	-28.015952	-155.413040
03602		18.197097	5.630218	34.362137	3.027549	-4.380536	29.110074	1.304970	-4.244813	0.022623	-0.651123	0.166504	-0.422852	0.174613	0.054062	0.347737	-0.207601	0.254774	0.064281	0.942263	1.020710	-30.452068	-155.427856
03603		42.872503	10.767582	23.047563	-18.465989	-19.165124	32.337735	2.911673	-1.892180	-1.191451	-0.661621	0.146240	-0.428955	0.427127	0.101719	0.236032	-0.205070	0.260330	0.081462	0.939967	3.118270	-31.521219	-156.265860
03604		6.299761	7.198112	6.793908	1.292132	-6.817407	-0.351857	1.068213	-1.209581	-0.520995	-0.670654	0.145996	-0.433350	0.062770	0.071452	0.068702	-0.203514	0.264738	0.088376	0.938449	3.938114	-32.198686	-156.665367
03605		8.733835	6.276170	11.509160	1.263888	-5.353330	4.947801	0.750228	-1.023499	-0.151930	-0.679688	0.143799	-0.424561	0.086794	0.062262	0.115771	-0.203360	0.268807	0.093148	0.936862	4.448452	-32.789587	-156.815518
03606		10.863863	4.396055	5.669138	-3.818598	-5.888828	1.152066	0.607081	-1.055203	-0.192910	-0.688477	0.141357	-0.435547	0.108379	0.043682	0.057397	-0.202779	0.273077	0.097300	0.935330	4.896299	-33.387297	-157.004364
03607		13.392852	1.856512	4.125135	-7.516596	-4.806019	1.152443	0.355243	-0.619086	0.015921	-0.708984	0.147461	-0.433350	0.133798	0.018502	0.041699	-0.203061	0.275723	0.099586	0.934251	5.113202	-33.754368	-157.027049
03608		7.581524	0.006699	8.504524	-1.751063	0.078758	1.444931	0.137929	-0.271502	0.055687	-0.713379	0.145264	-0.433350	0.075700	0.000029	0.085148	-0.203377	0.276918	0.100408	0.933741	5.176417	-33.916308	-157.004196
03609		6.008411	-2.340605	9.029486	-1.306127	2.875644	0.823840	0.239743	-0.142947	-0.010660	-0.715820	0.149658	-0.442139	0.060018	-0.023517	0.090310	-0.203613	0.277447	0.101708	0.933392	5.321876	-34.010972	-157.016875
03610		4.420196	-0.406553	9.702226	1.063746	1.883920	0.635079	0.244574	0.051517	-0.121525	-0.729248	0.149414	-0.448730	0.044224	-0.004211	0.097006	-0.203413	0.276935	0.102944	0.933452	5.503024	-33.979171	-157.095756
03611		5.260050	1.235527	9.487043	1.021652	0.101019	1.056746	0.246624	0.049677	-0.140043	-0.731445	0.145020	-0.446533	0.052633	0.012201	0.094872	-0.203179	0.276482	0.104247	0.933492	5.692631	-33.955589	-157.180903
03612		7.700200	1.335582	7.762447	-1.629377	-1.282061	1.005531	0.161667	-0.000343	-0.074724	-0.740479	0.144775	-0.448730	0.077007	0.013264	0.077635	-0.203055	0.276320	0.105084	0.933474	5.810123	-33.955653	-157.230944
03613		7.684133	2.047977	7.276649	-1.538567	-2.050201	0.657232	0.109600	-0.013684	-0.046933	-0.749512	0.149170	-0.453125	0.076841	0.020422	0.072783	-0.203026	0.276353	0.105686	0.933402	5.888571	-33.973579	-157.257561
03614		7.285878	1.478312	7.339921	-1.453318	-1.383684	0.439978	0.053739	-0.045270	-0.028678	-0.747314	0.151367	-0.457520	0.072844	0.014753	0.073420	-0.202944	0.276534	0.106000	0.933331	5.928353	-34.001849	-157.279168
03615		5.924405	0.937795	8.127826	-0.270437	-0.211620	0.282938	0.036447	-0.075144	-0.027534	-0.760986	0.153320	-0.453125	0.059215	0.009355	0.081302	-0.202882	0.276937	0.106296	0.933191	5.959449	-34.055863	-157.295454
03616		5.401394	0.388280	8.240622	-0.051095	0.491644	0.035629	0.044366	-0.112064	-0.064337	-0.774414	0.153076	-0.446533	0.053969	0.003847	0.082437	-0.202585	0.277420	0.106684	0.933068	6.010383	-34.120041	-157.346485
03617		5.194567	0.504857	8.307728	0.198303	0.487991	-0.015786	0.069846	-0.127820	-0.105281	-0.774414	0.153076	-0.444092	0.051895	0.004992	0.083112	-0.202170	0.277995	0.107299	0.932916	6.093565	-34.199561	-157.421461
03618		5.863736	0.378612	7.892911	-0.559017	0.275430	0.007517	0.092536	-0.121609	-0.121704	-0.776611	0.150635	-0.446289	0.058592	0.003714	0.078966	-0.201667	0.278443	0.108001	0.932811	6.195011	-34.265540	-157.513032
03619		5.950544	0.715809	8.039719	-0.403994	0.010611	0.207047	0.095937	-0.080644	-0.137748	-0.783447	0.155029	-0.450928	0.059478	0.007079	0.080425	-0.201157	0.278754	0.108735	0.932743	6.304436	-34.316019	-157.607983
03620		5.610839	0.708298	8.261162	-0.042705	0.210061	0.196510	0.077103	-0.050036	-0.142964	-0.787842	0.155029	-0.446289	0.056093	0.007011	0.082628	-0.200572	0.278871	0.109323	0.932765	6.402555	-34.339617	-157.709113
03621		6.009256	0.955639	7.827036	-0.447107	-0.258312	0.087830	0.068987	-0.036266	-0.151754	-0.783691	0.161621	-0.442139	0.060086	0.009484	0.078285	-0.199990	0.278993	0.109905	0.932785	6.499821	-34.363417	-157.809617
03622		5.349300	0.823228	8.315883	0.230835	0.233669	0.103901	0.051860	-0.043277	-0.130185	-0.790283	0.159424	-0.442139	0.053480	0.008176	0.083173	-0.199432	0.279111	0.110350	0.932817	6.578349	-34.383731	-157.901546
03623		5.368012	0.569924	8.396826	0.147005	0.493543	0.156357	0.062618	-0.070153	-0.122231	-0.794922	0.163818	-0.439941	0.053654	0.005640	0.083989	-0.198968	0.279410	0.110893	0.932762	6.661627	-34.428234	-157.983308
03624		5.378428	0.619544	8.328338	0.130105	0.439341	0.110143	0.086806	-0.098476	-0.143350	-0.796875	0.156982	-0.435303	0.053748	0.006121	0.083313	-0.198367	0.279743	0.111574	0.932709	6.768053	-34.478842	-158.088970
03625		4.486804	0.715148	8.545762	0.962384	0.715207	-0.208773	0.066962	-0.127294	-0.181120	-0.799072	0.152588	-0.430664	0.044820	0.007082	0.085489	-0.197599	0.280270	0.112276	0.932629	6.880067	-34.551592	-158.216969
03626		4.806211	0.962862	8.671490	0.890532	0.454128	0.098023	0.073563	-0.143200	-0.200004	-0.799072	0.154785	-0.430908	0.048010	0.009549	0.086753	-0.196690	0.280793	0.113019	0.932575	7.003697	-34.623369	-158.365946
03627		4.790909	1.166014	8.760452	1.040566	0.323794	0.180824	0.023985	-0.155776	-0.196672	-0.801514	0.159180	-0.422119	0.047852	0.011603	0.087643	-0.195761	0.281486	0.113573	0.932493	7.099861	-34.710821	-158.509219
03628		5.362147	1.522509	8.295327	0.542506	-0.302128	0.162155	-0.001252	-0.182096	-0.192546	-0.803711	0.156738	-0.424072	0.053561	0.015174	0.083002	-0.194759	0.282267	0.113994	0.932416	7.180316	-34.804818	-158.657015
03629		5.887270	1.528574	8.100699	0.064687	-0.508037	0.304400	0.024970	-0.256769	-0.178890	-0.805908	0.158936	-0.417480	0.058782	0.015223	0.081084	-0.193863	0.283437	0.114624	0.932171	7.275636	-34.950262	-158.796716
03630		5.571983	1.436085	8.364334	0.415395	-0.224945	0.328722	-0.006447	-0.339313	-0.158074	-0.808105	0.154541	-0.415283	0.055589	0.014320	0.083737	-0.192923	0.284973	0.115125	0.931836	7.348512	-35.135753	-158.935444
03631		5.390265	1.825233	8.719814	0.924969	-0.384006	0.551598	-0.012002	-0.416459	-0.112149	-0.814941	0.158691	-0.406494	0.053731	0.018227	0.087309	-0.192191	0.286958	0.115642	0.931313	7.405732	-35.376476	-159.044315
03632		5.635734	1.556283	8.257763	0.437418	-0.341581	0.290082	-0.013492	-0.504403	-0.079961	-0.819580	0.158691	-0.399658	0.056155	0.015546	0.082718	-0.191508	0.289312	0.116156	0.930662	7.453311	-35.661317	-159.144830
03633		5.946791	1.528390	8.359701	0.291489	-0.348662	0.549651	-0.052883	-0.601160	-0.040212	-0.823730	0.151855	-0.401855	0.059219	0.015294	0.083771	-0.190940	0.292233	0.116557	0.929815	7.469502	-36.012113	-159.221873
03634		5.361118	1.448187	8.599113	0.880977	-0.005645	0.385696	-0.061888	-0.689983	-0.019912	-0.830566	0.154053	-0.395020	0.053316	0.014503	0.086171	-0.190354	0.295526	0.116934	0.928847	7.476160	-36.406793	-159.298394
03635		5.655110	1.297250	8.386953	0.561573	0.004036	0.370051	-0.070656	-0.814256	0.003278	-0.832764	0.153809	-0.377441	0.056209	0.013003	0.084094	-0.189825	0.299472	0.117390	0.927633	7.477651	-36.881902	-159.366551
03636		5.590633	1.246416	8.490422	0.725789	0.131733	0.402552	-0.100446	-0.941580	0.025029	-0.834717	0.149414	-0.364014	0.055504	0.012514	0.085160	-0.189236	0.303985	0.117757	0.926237	7.458624	-37.422865	-159.435451
03637		4.981562	1.015912	8.722001	1.299129	0.619695	0.179740	-0.092974	-1.067972	0.034111	-0.839600	0.158203	-0.357422	0.049347	0.010208	0.087480	-0.188648	0.309134	0.118300	0.924583	7.450679	-38.044505	-159.507699
03638		5.450384	0.751822	8.562179	0.866721	0.712684	0.302767	-0.091817	-1.216859	0.035945	-0.850586	0.151123	-0.341797	0.053980	0.007567	0.085948	-0.187949	0.314900	0.118943	0.922695	7.449658	-38.742689	-159.595729
03639		5.553107	0.683076	8.531732	0.871652	0.783796	0.322314	-0.065503	-1.389275	0.027915	-0.859619	0.153320	-0.323975	0.054936	0.006866	0.085698	-0.187168	0.321477	0.119916	0.920457	7.482326	-39.546158	-159.705289
03640		5.775460	0.788338	8.602662	0.935643	0.710772	0.512057	-0.052404	-1.586458	0.005076	-0.867920	0.139648	-0.314697	0.057070	0.007907	0.086479	-0.186149	0.328859	0.121125	0.917894	7.545709	-40.451898	-159.855407
03641		5.101523	0.672630	9.153720	1.838130	1.249966	0.450084	-0.032161	-1.794382	-0.006644	-0.875000	0.148438	-0.294922	0.050191	0.006739	0.091989	-0.184976	0.337205	0.122670	0.914893	7.648559	-41.482721	-160.039776
03642		5.252254	0.733456	9.214778	1.973130	1.255992	0.558509	0.001748	-2.012723	-0.016514	-0.888428	0.148193	-0.268311	0.051592	0.007329	0.092670	-0.183659	0.346421	0.124538	0.911456	7.793843	-42.628396	-160.259767
03643		5.256060	1.109909	9.420715	2.454945	1.080089	0.694910	0.016575	-2.265625	-0.007580	-0.895264	0.147949	-0.239258	0.051489	0.011089	0.094795	-0.182230	0.356799	0.126714	0.907431	7.975206	-43.925512	-160.510311
03644		5.263950	0.954768	9.368222	2.582405	1.301151	0.580400	0.034023	-2.551385	0.001122	-0.908447	0.143066	-0.208008	0.051439	0.009532	0.094345	-0.180663	0.368353	0.129158	0.902771	8.193156	-45.377116	-160.797060
03645		5.952006	1.084553	9.208552	2.346644	1.087437	0.897222	0.069934	-2.934855	-0.002803	-0.915039	0.140625	-0.181396	0.058160	0.010812	0.092949	-0.178849	0.381588	0.132129	0.897187	8.490441	-47.052197	-161.154226
03646		5.315223	0.864971	10.073328	3.521718	1.886848	0.887639	0.064918	-3.335791	-0.008518	-0.919434	0.142578	-0.141357	0.051463	0.008615	0.101604	-0.176703	0.396473	0.135378	0.890650	8.848897	-48.945112	-161.590622
03647		5.035319	0.435722	11.072229	4.531040	2.873846	1.111168	0.120613	-3.883716	-0.051380	-0.928223	0.137939	-0.094727	0.048192	0.004277	0.111675	-0.174027	0.413639	0.139432	0.882710	9.375140	-51.148631	-162.188580
03648		4.046247	-0.449896	12.579383	6.196797	4.637965	0.905225	0.154022	-4.587445	-0.166736	-0.934814	0.135498	-0.041260	0.037560	-0.004628	0.126674	-0.170362	0.433562	0.144387	0.873014	10.161675	-53.727021	-163.073130
03649		2.195074	-1.678547	13.720072	8.004791	6.727467	-0.512676	0.284020	-5.548807	-0.426894	-0.941162	0.126221	0.025635	0.018098	-0.017022	0.137714	-0.165006	0.457142	0.151223	0.860770	11.537176	-56.813600	-164.551432
03650		2.410354	-1.842700	13.485234	8.165324	6.983785	-1.121448	0.501186	-6.742406	-0.719867	-0.934082	0.124023	0.094482	0.019475	-0.018842	0.135514	-0.157855	0.484969	0.160476	0.845065	13.876987	-60.496368	-166.957012
03651		5.176141	0.398526	14.244847	9.027547	5.314761	1.141974	0.663646	-7.848888	-0.810938	-0.926758	0.114990	0.169922	0.046135	0.003314	0.144345	-0.149571	0.516640	0.171299	0.825451	17.470765	-64.710873	-170.578703
03652		15.152311	3.853942	16.494302	9.222966	3.096420	10.719396	0.513425	-8.308363	-0.593296	-0.913330	0.117188	0.247559	0.144611	0.037669	0.171145	-0.141196	0.549613	0.180988	0.803263	22.311227	-69.079719	-175.520567
03653		21.475376	6.371894	15.774225	9.075130	1.182299	16.004027	0.376361	-7.763394	-0.329558	-0.888184	0.110840	0.312012	0.208519	0.063065	0.166037	-0.133767	0.579852	0.188738	0.781189	28.601750	-73.026931	178.059514
03654		23.698987	0.523510	15.503974	7.435465	7.132682	16.565178	0.078198	-7.090969	-0.161011	-0.869873	0.106689	0.376465	0.231301	0.004985	0.163311	-0.126579	0.607008	0.194108	0.760159	36.995147	-76.405713	169.406537
03655		21.504675	-0.448344	17.452069	10.762482	9.544733	13.852186	0.655487	-6.418364	-0.551699	-0.836182	0.107178	0.425049	0.209286	-0.005653	0.181282	-0.120112	0.630178	0.202200	0.739976	50.020186	-78.874304	156.454755
03656		15.590540	9.519676	23.000143	22.119852	3.348847	9.214091	0.162162	-5.464632	-1.271986	-0.831055	0.089355	0.463135	0.150144	0.094041	0.234233	-0.110332	0.648794	0.209985	0.723049	66.451513	-79.917145	139.833953
03657		12.091030	7.815196	28.777607	27.654034	7.186031	4.984910	-1.827422	-3.478874	-2.322697	-0.809570	0.058594	0.472656	0.116806	0.079417	0.289110	-0.092241	0.659806	0.212727	0.714769	77.987794	-79.253645	127.030638
03658		7.184697	-4.368711	23.749307	19.061523	14.953075	-2.902186	-2.106231	-2.074460	-2.946423	-0.799805	0.036621	0.488525	0.068746	-0.042206	0.238667	-0.072522	0.664943	0.215805	0.711350	83.885990	-77.773011	119.778151
03659		3.212723	-7.688240	19.469384	14.601401	15.236634	-8.049167	-1.422342	-1.201608	-2.805636	-0.793945	0.003418	0.484863	0.029885	-0.075924	0.195420	-0.056401	0.666629	0.220406	0.709821	86.616496	-76.224654	116.124794
03660		2.948792	-8.058287	17.458477	12.846473	14.566459	-8.712812	-1.059915	-0.407461	-1.939038	-0.806641	-0.016846	0.478760	0.028354	-0.079934	0.175068	-0.045518	0.666225	0.223182	0.710114	87.170414	-75.129635	114.923189
03661		0.999768	-9.845204	15.173844	10.430613	14.748457	-11.175471	-0.712936	0.336399	-0.783291	-0.806641	-0.021240	0.465332	0.009869	-0.097949	0.152072	-0.040627	0.664316	0.223083	0.712228	86.131680	-74.668876	115.558295
03662		-0.189107	-9.393476	13.321222	9.060673	13.347196	-12.154145	-0.169158	0.980106	0.335886	-0.813477	-0.014648	0.454346	-0.001080	-0.093824	0.133298	-0.042337	0.661254	0.221137	0.715576	83.933852	-74.813869	117.732750
03663		-0.926520	-6.031014	12.304760	9.375340	9.835505	-11.812299	0.261864	1.555479	1.242178	-0.820801	-0.001465	0.436279	-0.007933	-0.060523	0.123034	-0.049272	0.656970	0.217515	0.720174	80.374090	-75.397814	121.553495
03664		-1.425136	-2.370076	11.514312	9.970179	6.243958	-11.165106	0.340166	2.091871	1.838339	-0.833008	0.018311	0.411377	-0.012827	-0.024019	0.115242	-0.059263	0.651318	0.212138	0.726134	75.069630	-76.175405	127.222937
03665		-1.472144	-0.012900	10.582895	9.939884	3.864446	-10.463195	0.235607	2.587213	2.080831	-0.840332	0.038330	0.384277	-0.013348	-0.000397	0.106007	-0.070253	0.643952	0.205309	0.733647	67.722110	-76.834072	134.901071
03666		-1.093805	1.722851	9.721484	9.702314	2.112235	-9.549030	0.098725	3.056279	2.026990	-0.852295	0.053711	0.348633	-0.009624	0.017078	0.097377	-0.081116	0.634710	0.198011	0.742533	58.768789	-77.086797	144.145226
03667		-0.691130	3.279494	8.980417	9.505382	0.517567	-8.692407	-0.061157	3.484569	1.785999	-0.861816	0.064697	0.315186	-0.005638	0.032768	0.089900	-0.090957	0.623403	0.190562	0.752849	49.138161	-76.735871	153.983171
03668		-0.090847	4.475165	8.482822	9.335304	-0.686601	-7.722586	-0.222576	3.866450	1.459012	-0.873535	0.077881	0.279297	0.000404	0.044846	0.084779	-0.099406	0.610240	0.183353	0.764269	40.215115	-75.749270	163.033881
03669		0.615042	4.977515	8.180637	9.008428	-1.234679	-6.747839	-0.400440	4.205469	1.114743	-0.885254	0.088867	0.230225	0.007589	0.049978	0.081557	-0.106244	0.595192	0.176189	0.776799	32.696123	-74.180815	170.568241
03670		2.160833	3.908878	8.567149	8.394580	-0.098975	-5.032127	-0.529235	4.525140	0.819853	-0.885498	0.091309	0.190186	0.023376	0.039408	0.085052	-0.111799	0.578495	0.169218	0.790070	26.787382	-72.164371	176.419899
03671		4.944657	3.366753	7.803257	6.419939	0.017655	-2.366712	-0.414805	4.975186	0.748446	-0.890381	0.100342	0.139160	0.051239	0.034017	0.076702	-0.117728	0.559451	0.162488	0.804209	21.975496	-69.733251	-178.751518
03672		4.118367	5.023350	7.433618	6.688453	-1.807388	-2.781611	-0.367956	5.366414	0.891562	-0.890625	0.100342	0.088135	0.042932	0.050558	0.073107	-0.124589	0.538642	0.155272	0.818677	17.903129	-67.019651	-174.602432
03673		3.741187	5.287627	7.134083	6.370003	-2.318530	-2.965535	-0.420577	5.528809	0.949653	-0.891113	0.111572	0.036621	0.039110	0.053208	0.070164	-0.131590	0.516715	0.147400	0.833044	14.539454	-64.116847	-171.182749
03674		5.253718	5.500377	7.749354	5.946972	-2.578412	-1.102235	-0.449453	5.616201	0.885495	-0.897949	0.115967	-0.023193	0.054438	0.055414	0.075858	-0.138194	0.494099	0.139461	0.846947	11.903189	-61.103838	-168.508256
03675		7.719817	5.196757	8.579616	4.844205	-2.498293	1.609535	-0.473257	5.774747	0.716647	-0.884766	0.116455	-0.076660	0.079442	0.052449	0.083400	-0.144036	0.470169	0.131555	0.860748	9.868417	-57.918343	-166.470803
03676		9.540489	4.843831	9.185873	3.613673	-2.524225	3.580608	-0.497165	5.994217	0.580456	-0.873779	0.121338	-0.127930	0.097956	0.048944	0.088827	-0.149236	0.444937	0.123650	0.874340	8.276625	-54.583257	-164.903489
03677		11.466692	3.597945	9.396927	1.472964	-2.000132	5.236938	-0.478936	6.179554	0.539665	-0.855957	0.124023	-0.192383	0.117397	0.036513	0.090283	-0.154270	0.418303	0.115609	0.887614	6.966998	-51.100912	-163.614431
03678		12.897690	2.347202	9.044772	-0.938075	-1.674328	5.995608	-0.380483	6.263730	0.649338	-0.833740	0.126953	-0.254639	0.131646	0.024063	0.086307	-0.159895	0.391007	0.107651	0.899977	5.847554	-47.580006	-162.430867
03679		14.208902	1.592067	8.299177	-3.420114	-1.981210	6.237066	-0.173895	6.175917	0.906557	-0.804443	0.125244	-0.294678	0.144486	0.016642	0.078540	-0.166888	0.363552	0.100030	0.911028	4.865252	-44.091023	-161.209720
03680		16.401087	1.984078	7.308715	-6.206314	-3.691527	6.743576	0.077404	5.876800	1.216664	-0.775879	0.137207	-0.348389	0.165939	0.020819	0.068238	-0.175433	0.337205	0.093200	0.920234	4.030809	-40.792029	-159.912617
03681		20.660960	2.405662	5.984385	-10.626830	-6.184776	7.996688	0.306051	5.516004	1.432658	-0.744629	0.144531	-0.386475	0.207977	0.025458	0.054158	-0.185026	0.311995	0.087252	0.927799	3.364593	-37.678146	-158.591782
03682		25.337478	2.342104	4.009441	-15.890833	-8.710809	8.490301	0.539884	5.181242	1.405677	-0.706543	0.140869	-0.422119	0.254129	0.025109	0.033583	-0.194582	0.288001	0.082717	0.933997	2.960827	-34.762451	-157.390484
03683		28.067525	2.447850	1.321768	-19.896200	-11.061657	6.835103	0.648471	4.824926	1.112634	-0.675049	0.143799	-0.442383	0.280745	0.026012	0.006528	-0.202621	0.265136	0.079376	0.939333	2.817641	-32.023666	-156.463460
03684		28.305942	1.139328	-1.766411	-22.543069	-11.299758	3.212018	0.575334	4.318228	0.684241	-0.650146	0.137695	-0.462158	0.282549	0.012423	-0.023734	-0.208265	0.244521	0.076756	0.943898	2.837242	-29.575928	-155.864026
03685		28.303278	-0.534123	-4.699293	-24.845801	-10.875889	-0.445032	0.392913	3.652980	0.228228	-0.627686	0.135986	-0.471191	0.282117	-0.004920	-0.052161	-0.211173	0.226872	0.074482	0.947833	2.931849	-27.485966	-155.596933
03686		28.189793	-1.978462	-7.721428	-26.783528	-10.427606	-4.151779	0.064548	2.919804	-0.087946	-0.614014	0.129639	-0.482178	0.280722	-0.019882	-0.081325	-0.211898	0.212950	0.071776	0.951104	2.947286	-25.816758	-155.555780
03687		27.556033	-2.798151	-10.499105	-27.760831	-10.110654	-7.697638	-0.357668	2.149602	-0.174344	-0.595947	0.129883	-0.489014	0.274386	-0.028412	-0.107894	-0.211442	0.203020	0.067957	0.953654	2.758281	-24.579752	-155.598443
03688		27.299862	-2.793069	-12.535698	-28.319552	-10.396943	-10.160183	-0.786025	1.346160	-0.025491	-0.593994	0.136719	-0.493652	0.272144	-0.028463	-0.127079	-0.210979	0.197457	0.062789	0.955278	2.295502	-23.812657	-155.575688
03689		24.685245	-5.531610	-15.094294	-28.234689	-7.371098	-13.845848	-0.745691	0.117439	0.125810	-0.596191	0.136719	-0.493652	0.246799	-0.055723	-0.150881	-0.210884	0.197746	0.058966	0.955483	1.833064	-23.750579	-155.493099
03690		26.816306	-9.054205	-29.319377	-36.656413	-7.869056	-25.783327	0.476601	-1.829681	0.032717	-0.603027	0.134277	-0.475586	0.270846	-0.089803	-0.290939	-0.210968	0.206025	0.063116	0.953448	2.110252	-24.803008	-155.510599
03691		33.739789	4.161506	-23.877339	-34.876332	-21.591845	-16.371948	0.784666	-3.875823	0.508980	-0.623291	0.140381	-0.455811	0.341829	0.043400	-0.232009	-0.212951	0.223860	0.070398	0.948463	2.457898	-27.041040	-155.282507
03692		29.756562	3.481265	17.853447	-14.799376	-9.956590	20.152709	0.074388	-4.688905	1.224339	-0.637207	0.153320	-0.438232	0.293051	0.036548	0.185454	-0.217131	0.246420	0.074330	0.941598	2.176394	-29.757870	-154.607691
03693		15.716244	2.515736	28.188805	1.346276	-0.882440	22.518075	0.553965	-2.750933	0.239153	-0.652832	0.150879	-0.435791	0.153235	0.024557	0.284082	-0.217917	0.258934	0.079631	0.937616	2.447847	-31.350225	-154.518682
03694		20.927331	4.078242	13.812168	-7.967564	-7.451872	13.128949	1.524065	-1.784363	-0.670958	-0.663818	0.139648	-0.435547	0.208161	0.039019	0.140284	-0.216021	0.265392	0.089562	0.935351	3.589168	-32.355026	-155.032471
03695		10.309498	0.346284	6.835513	-4.567189	-1.982581	1.515926	0.917391	-1.212409	-0.248047	-0.668213	0.139404	-0.439941	0.102682	0.003020	0.068993	-0.215552	0.270057	0.095502	0.933534	4.234191	-33.051036	-155.253468
03696		6.946522	4.705642	10.286764	1.646080	-3.520906	2.880083	0.701038	-0.901392	-0.205149	-0.684082	0.139160	-0.439941	0.069048	0.046624	0.103343	-0.215109	0.273446	0.100000	0.932178	4.735509	-33.560856	-155.440562
03697		9.981307	-0.880868	6.573796	-4.871644	-0.628420	1.118386	0.600176	-0.805876	-0.197590	-0.697266	0.136719	-0.444336	0.099538	-0.009105	0.066112	-0.214627	0.276560	0.103950	0.930937	5.179976	-34.024097	-155.620577
03698		9.506706	-0.741240	6.785810	-4.320859	-0.449268	1.054796	0.437686	-0.287819	-0.160375	-0.710938	0.136475	-0.448486	0.094963	-0.007637	0.067978	-0.214336	0.277386	0.106497	0.930471	5.499237	-34.183889	-155.748225
03699		6.670874	-1.786869	8.353217	-1.928920	1.990557	0.665212	0.458795	-0.039884	-0.270570	-0.712891	0.134277	-0.448486	0.066668	-0.018150	0.083504	-0.213717	0.277046	0.109066	0.930417	5.866694	-34.204921	-155.933672
03700		6.310637	0.757656	8.238528	-0.573078	-0.128012	0.576078	0.441300	0.100726	-0.333794	-0.714844	0.125244	-0.457275	0.063160	0.007289	0.082370	-0.212830	0.275962	0.111452	0.930659	6.240678	-34.131526	-156.154859
03701		6.379303	1.288155	8.670182	-0.216361	-0.437037	1.017310	0.352418	0.155626	-0.334228	-0.723877	0.125244	-0.459473	0.063882	0.012622	0.086675	-0.211872	0.274788	0.113402	0.930990	6.562713	-34.035266	-156.368914
03702		5.944659	1.238367	8.704683	0.070483	-0.202372	0.798529	0.298779	0.144798	-0.307919	-0.730469	0.120605	-0.461426	0.059528	0.012162	0.087022	-0.210932	0.273662	0.115041	0.931334	6.841708	-33.936455	-156.567298
03703		6.772214	1.777293	7.950164	-0.692590	-1.169687	0.693442	0.248730	0.125186	-0.295967	-0.732666	0.118408	-0.457031	0.067798	0.017574	0.079481	-0.209990	0.272758	0.116487	0.931632	7.089693	-33.858375	-156.756006
03704		7.189662	2.314522	7.575998	-0.965359	-1.879893	0.674352	0.195983	0.082817	-0.228771	-0.743896	0.118164	-0.465820	0.071954	0.022989	0.075753	-0.209241	0.272073	0.117603	0.931861	7.281398	-33.799087	-156.904200
03705		6.715961	2.292772	7.954281	-0.456279	-1.560202	0.722447	0.116979	0.040247	-0.151619	-0.743896	0.118164	-0.468018	0.067193	0.022830	0.079543	-0.208741	0.271787	0.118330	0.931964	7.402753	-33.779019	-157.001053
03706		6.189211	2.194198	8.577131	0.178859	-1.081851	0.933736	0.062738	-0.014144	-0.073345	-0.748535	0.120117	-0.461426	0.061894	0.021892	0.085783	-0.208477	0.271783	0.118716	0.931975	7.463530	-33.785807	-157.051262
03707		5.546139	1.641873	8.522332	0.399191	-0.393783	0.471821	0.029992	-0.086064	-0.025702	-0.752930	0.120117	-0.461426	0.055427	0.016399	0.085250	-0.208374	0.272250	0.118998	0.931826	7.493459	-33.846632	-157.072909
03708		5.769074	1.607162	8.449672	0.189892	-0.452284	0.532433	0.005862	-0.144367	-0.005817	-0.759766	0.122314	-0.463623	0.057630	0.016067	0.084539	-0.208269	0.272953	0.119163	0.931623	7.502540	-33.932397	-157.088708
03709		5.999912	1.475449	8.185796	-0.149332	-0.491723	0.430312	-0.039590	-0.187888	0.008719	-0.757324	0.117920	-0.463379	0.059922	0.014773	0.081911	-0.208169	0.273986	0.119182	0.931339	7.484885	-34.053607	-157.096343
03710		5.871232	1.066402	8.111930	-0.249216	-0.107618	0.254003	-0.059914	-0.229479	-0.001749	-0.766602	0.124268	-0.457031	0.058619	0.010688	0.081183	-0.207942	0.275156	0.119122	0.931053	7.459061	-34.188032	-157.117007
03711		5.820981	1.119391	8.271693	-0.087537	-0.077051	0.362975	-0.062364	-0.249813	-0.014002	-0.770996	0.124268	-0.452393	0.058107	0.011216	0.082786	-0.207665	0.276487	0.119131	0.930719	7.440510	-34.342792	-157.146152
03712		5.334602	1.043846	8.188342	0.234978	0.125311	0.012055	-0.063290	-0.271673	-0.022093	-0.775879	0.133057	-0.443848	0.053236	0.010459	0.081952	-0.207313	0.277844	0.119128	0.930394	7.422882	-34.499694	-157.184578
03713		5.440792	0.682669	8.571491	0.199276	0.550080	0.345872	-0.069128	-0.298717	-0.030996	-0.780762	0.141846	-0.441650	0.054281	0.006848	0.085794	-0.206916	0.279398	0.119179	0.930010	7.409739	-34.680902	-157.229874
03714		5.320204	1.208370	8.597641	0.570703	0.141630	0.352858	-0.073935	-0.326871	-0.049147	-0.787354	0.141602	-0.446045	0.053064	0.012102	0.086059	-0.206390	0.281004	0.119220	0.929638	7.399752	-34.867184	-157.292049
03715		6.215730	0.934336	7.773119	-0.587169	-0.166394	0.165144	-0.120500	-0.348457	-0.056436	-0.780518	0.139648	-0.435059	0.062024	0.009373	0.077834	-0.205786	0.282821	0.119115	0.929234	7.369119	-35.074254	-157.357541
03716		6.103902	1.480682	7.820582	-0.200693	-0.591363	0.198380	-0.152967	-0.348615	-0.052098	-0.794434	0.145996	-0.428467	0.060906	0.014851	0.078301	-0.205120	0.284606	0.118815	0.928875	7.316542	-35.272731	-157.423773
03717		5.399273	1.020113	8.432898	0.454449	0.247989	0.239099	-0.216591	-0.323902	-0.005420	-0.794678	0.152588	-0.426270	0.053856	0.010291	0.084405	-0.204626	0.286436	0.118165	0.928504	7.209546	-35.469746	-157.451749
03718		5.566057	1.249172	8.363829	0.434700	-0.031308	0.301907	-0.153248	-0.331614	0.022890	-0.796875	0.154785	-0.417480	0.055520	0.012562	0.083721	-0.204317	0.288185	0.117738	0.928085	7.125582	-35.664083	-157.463658
03719		5.250809	1.441585	8.368122	0.801021	-0.102950	0.138304	-0.201987	-0.383063	0.100824	-0.799316	0.161377	-0.415527	0.052340	0.014527	0.083767	-0.204308	0.290332	0.117062	0.927503	6.985702	-35.901972	-157.420559
03720		5.466669	1.413081	8.254930	0.618262	-0.187651	0.167667	-0.231741	-0.417897	0.137730	-0.797119	0.163574	-0.404297	0.054484	0.014264	0.082647	-0.204365	0.292626	0.116192	0.926879	6.813032	-36.153335	-157.357984
03721		5.726624	1.353267	7.864904	0.257119	-0.351788	0.000170	-0.246179	-0.442650	0.170430	-0.801758	0.165771	-0.399902	0.057080	0.013678	0.078759	-0.204581	0.295128	0.115268	0.926153	6.620033	-36.429343	-157.268173
03722		5.095403	1.357529	8.241786	0.969519	-0.041553	-0.076615	-0.251746	-0.458092	0.216626	-0.813477	0.176514	-0.389160	0.050750	0.013734	0.082517	-0.204948	0.297670	0.114229	0.925387	6.402524	-36.708365	-157.150374
03723		5.040022	0.998536	8.314860	0.944160	0.310735	-0.089132	-0.251772	-0.470761	0.250742	-0.817871	0.178711	-0.389160	0.050192	0.010153	0.083254	-0.205504	0.300350	0.113189	0.924525	6.171050	-37.004858	-157.002909
03724		5.707385	0.482796	7.820466	0.029773	0.388570	-0.126881	-0.237353	-0.515520	0.243735	-0.822754	0.185303	-0.375977	0.056866	0.004990	0.078346	-0.205981	0.303152	0.112233	0.923620	5.949522	-37.317487	-156.866420
03725		5.988746	0.703147	7.660471	-0.096247	0.047391	-0.064329	-0.214571	-0.559274	0.233753	-0.818115	0.185303	-0.366943	0.059665	0.007184	0.076764	-0.206459	0.306186	0.111479	0.922603	5.747061	-37.662438	-156.733826
03726		5.933947	0.593330	7.831266	0.048863	0.217627	0.028165	-0.214482	-0.612407	0.224330	-0.827393	0.189453	-0.364746	0.059093	0.006084	0.078487	-0.206823	0.309395	0.110756	0.921538	5.547665	-38.028423	-156.614159
03727		5.540271	0.630069	8.111669	0.569091	0.403730	0.005839	-0.210084	-0.673298	0.215403	-0.834229	0.193848	-0.360596	0.055122	0.006445	0.081296	-0.207151	0.312932	0.110166	0.920340	5.357128	-38.436735	-156.499065
03728		4.928902	0.725938	8.545029	1.357961	0.658563	-0.037193	-0.212481	-0.755867	0.212934	-0.836182	0.187012	-0.344727	0.048958	0.007403	0.085628	-0.207380	0.316785	0.109615	0.919035	5.165961	-38.883327	-156.392876
03729		5.405168	0.981932	8.411577	1.150123	0.248220	0.164763	-0.217765	-0.886747	0.218860	-0.840820	0.191406	-0.340332	0.053667	0.009970	0.084343	-0.207578	0.321302	0.109202	0.917470	4.974178	-39.413012	-156.285516
03730		6.044972	0.930062	8.238244	0.682382	0.052623	0.424788	-0.236261	-1.043467	0.230880	-0.850098	0.202393	-0.324951	0.060008	0.009468	0.082685	-0.207684	0.326495	0.108807	0.915658	4.767419	-40.024089	-156.178630
03731		6.059961	1.054975	8.075779	0.760434	-0.095598	0.309835	-0.255387	-1.251559	0.250473	-0.856934	0.204346	-0.305176	0.060079	0.010729	0.081121	-0.207750	0.332718	0.108543	0.913432	4.547194	-40.762863	-156.063558
03732		6.132620	1.241686	8.627239	1.249749	-0.070231	0.770839	-0.283156	-1.481499	0.285120	-0.863525	0.201904	-0.285156	0.060667	0.012626	0.086706	-0.207770	0.339962	0.108289	0.910786	4.295526	-41.625900	-155.932466
03733		5.358131	1.368696	8.937859	2.185651	0.193057	0.465977	-0.329108	-1.725723	0.329555	-0.875000	0.206055	-0.265137	0.052785	0.013922	0.089814	-0.207777	0.348427	0.108036	0.907610	4.000199	-42.638178	-155.772864
03734		4.641317	1.194125	9.636431	3.193930	0.841650	0.430104	-0.385074	-2.020250	0.378595	-0.881836	0.210449	-0.245117	0.045414	0.012214	0.096803	-0.207721	0.358219	0.107700	0.903843	3.644393	-43.811702	-155.580018
03735		5.053077	1.035820	9.681782	3.109477	0.923730	0.666601	-0.419504	-2.337344	0.399148	-0.886230	0.212402	-0.211914	0.049374	0.010661	0.097377	-0.207495	0.369503	0.107526	0.899362	3.258467	-45.174429	-155.372601
03736		5.454341	1.664784	9.857727	3.517002	0.367435	1.012444	-0.446440	-2.718137	0.435480	-0.890869	0.216797	-0.183105	0.053161	0.016986	0.099268	-0.207145	0.382425	0.107502	0.894027	2.826025	-46.746957	-155.131205
03737		5.016626	1.719158	10.098945	4.285525	0.603534	0.740468	-0.548497	-3.211512	0.488445	-0.904541	0.225098	-0.136719	0.048494	0.017590	0.101729	-0.206511	0.397652	0.107444	0.887515	2.294976	-48.609458	-154.839068
03738		3.281095	1.386164	12.181082	6.921428	2.206044	0.592715	-0.695636	-3.817215	0.542017	-0.902344	0.229492	-0.096680	0.030441	0.014371	0.122358	-0.205440	0.415561	0.107178	0.879555	1.613474	-50.809961	-154.472325
03739		3.277976	-0.937729	13.487702	7.232902	4.851698	1.034092	-0.733158	-4.691143	0.595438	-0.916016	0.238037	-0.034668	0.029631	-0.008790	0.135630	-0.203938	0.437227	0.107517	0.869300	0.828247	-53.515387	-154.011972
03740		1.888840	-2.762767	14.527050	8.431635	7.372189	0.022812	-0.498015	-5.719201	0.596497	-0.914063	0.246826	0.018311	0.014805	-0.027217	0.145801	-0.202278	0.462766	0.109813	0.856080	0.084008	-56.798934	-153.456919
03741		3.621249	-0.848867	14.630660	9.133986	5.502822	0.868626	-0.282898	-6.871674	0.539371	-0.909424	0.246582	0.093750	0.031181	-0.008192	0.147447	-0.200008	0.492552	0.114240	0.839249	-0.618760	-60.744042	-152.828230
03742		4.540167	1.828692	15.522394	11.383600	3.562872	1.254401	-0.229747	-7.976160	0.622531	-0.894043	0.257813	0.171143	0.039109	0.018595	0.156846	-0.197333	0.526240	0.119604	0.818429	-1.634451	-65.310301	-151.840604
03743		13.254816	6.987794	16.519379	12.472555	-1.924356	8.567908	-0.605738	-8.694016	0.958749	-0.880615	0.262207	0.253174	0.124873	0.071000	0.170520	-0.194267	0.562522	0.123066	0.794156	-3.921520	-70.266907	-149.748345
03744		23.071208	-4.236863	17.669998	7.416561	7.526751	17.579195	-0.862996	-8.209897	0.974141	-0.856201	0.273682	0.323730	0.223399	-0.040479	0.186150	-0.190480	0.596097	0.124745	0.769951	-7.717931	-74.895870	-146.294144
03745		25.471340	-3.951466	16.522162	8.107679	7.172573	18.819129	-0.370519	-7.397332	0.590372	-0.827148	0.280762	0.383301	0.248486	-0.038457	0.174562	-0.186891	0.624916	0.128517	0.747017	-12.604128	-79.017004	-141.501207
03746		22.060364	-4.553942	19.739773	12.995016	10.164034	15.178144	-0.889810	-6.670730	0.208162	-0.804199	0.276611	0.438965	0.213901	-0.044414	0.204807	-0.180485	0.650470	0.130681	0.726110	-20.625146	-82.656726	-133.900350
03747		17.589342	-3.952624	18.579287	13.979425	10.027588	9.526737	-1.419758	-5.928179	-0.500758	-0.783447	0.263672	0.472412	0.170182	-0.038613	0.191170	-0.170077	0.672664	0.132431	0.707855	-34.571008	-85.823433	-120.709630
03748		9.880362	-8.432661	21.547464	16.011543	15.998844	1.167282	-1.951053	-4.545194	-0.785056	-0.762939	0.257324	0.508057	0.093535	-0.082579	0.218452	-0.157662	0.689708	0.131968	0.694284	-68.081620	-87.885176	-88.278839
03749		12.732373	-11.935053	25.180228	18.494174	20.616870	3.281148	-0.784643	-2.519019	-1.167239	-0.762695	0.250488	0.512451	0.123440	-0.119085	0.253841	-0.149172	0.698245	0.135193	0.686967	-117.294944	-88.544582	-39.503291
03750		4.114352	-9.718702	23.037209	17.395613	18.001753	-5.886389	0.318649	-0.655775	-1.305824	-0.766846	0.239258	0.508301	0.039751	-0.097817	0.230348	-0.145338	0.699388	0.141309	0.685394	-152.245773	-88.820060	-4.364347
03751		-5.204110	-5.541336	17.392265	13.635148	12.010795	-15.299327	0.536772	0.072648	-1.036125	-0.770996	0.228271	0.499756	-0.052266	-0.055610	0.173793	-0.143681	0.698000	0.146649	0.686036	177.913055	-89.001163	25.781295
03752		-5.680717	-3.063791	15.091261	12.504063	8.821811	-15.747965	0.184128	0.273793	-0.729695	-0.779785	0.225830	0.490967	-0.056712	-0.030570	0.150962	-0.142005	0.696418	0.149607	0.687353	151.918608	-89.041374	51.881830
03753		-2.702272	-4.639471	14.264682	11.171375	9.953917	-12.715657	-0.163240	0.737411	-0.388468	-0.786621	0.223633	0.475586	-0.026586	-0.046226	0.142783	-0.140618	0.693687	0.149791	0.690354	121.818871	-89.209210	81.881668
03754		-1.519410	-5.317367	13.396542	10.139617	10.233341	-11.398328	-0.059478	1.457953	-0.158636	-0.795410	0.221191	0.457764	-0.014259	-0.053122	0.134087	-0.140938	0.688589	0.149084	0.695526	61.416099	-89.133009	142.252475
03755		-1.247581	-3.475267	12.385883	9.967789	8.157542	-10.878304	0.156560	2.181752	0.018556	-0.808838	0.218750	0.431396	-0.011121	-0.034851	0.123958	-0.143159	0.680829	0.147932	0.702918	24.074694	-88.168801	179.684857
03756		-1.166454	-1.265014	11.271996	9.842267	5.714694	-10.507165	0.182054	2.800659	0.134244	-0.824707	0.220703	0.400146	-0.010076	-0.012760	0.112857	-0.146293	0.670919	0.146073	0.712130	11.629897	-86.660241	-167.757515
03757		-0.523186	0.231391	10.458707	9.665659	4.026481	-9.559232	0.047423	3.320754	0.149628	-0.835938	0.218506	0.364746	-0.003496	0.002286	0.104655	-0.149407	0.659028	0.143201	0.723086	6.419834	-84.783328	-162.512631
03758		0.727268	1.068328	9.860064	9.315440	2.970298	-8.001821	-0.099912	3.807591	0.075330	-0.854004	0.218262	0.329346	0.009144	0.010736	0.098433	-0.152036	0.645303	0.139698	0.735495	4.140574	-82.618709	-160.280634
03759		2.111552	1.687827	9.355565	8.842884	2.084665	-6.308798	-0.206567	4.303519	-0.049909	-0.865234	0.213623	0.285156	0.023126	0.016969	0.093055	-0.154181	0.629387	0.135703	0.749456	3.123468	-80.144325	-159.377901
03760		3.077053	2.121096	8.918348	8.297560	1.364247	-5.040242	-0.273640	4.772414	-0.178462	-0.878418	0.206787	0.236572	0.032905	0.021304	0.088386	-0.155834	0.611448	0.131498	0.764562	2.763839	-77.412387	-159.174339
03761		3.939444	2.074087	8.590645	7.563940	1.088512	-3.879601	-0.323761	5.181701	-0.276762	-0.880859	0.207031	0.187744	0.041630	0.020822	0.084813	-0.157161	0.591431	0.126928	0.780640	2.619336	-74.426321	-159.223625
03762		5.484640	1.101395	8.555340	6.420154	1.665361	-2.036473	-0.292246	5.543414	-0.302303	-0.889648	0.197998	0.134766	0.057205	0.011052	0.083973	-0.158564	0.569640	0.122253	0.797133	2.541692	-71.249692	-159.320849
03763		6.601099	2.158749	7.766333	5.367163	0.077914	-0.884794	-0.120409	5.931134	-0.133187	-0.894043	0.195801	0.074951	0.068289	0.021588	0.075648	-0.161278	0.545680	0.117297	0.813919	2.267867	-67.836881	-159.109145
03764		5.449778	3.065673	7.539116	5.464843	-0.889661	-1.734703	-0.141298	6.102430	0.101873	-0.894043	0.189453	0.017334	0.056748	0.030738	0.073661	-0.164803	0.520804	0.111446	0.830170	1.771023	-64.348727	-158.657842
03765		5.938235	2.725224	7.835077	4.909412	-0.768923	-0.904563	-0.185375	6.080981	0.233230	-0.876221	0.189941	-0.036133	0.061695	0.027395	0.076473	-0.168619	0.495514	0.104907	0.845593	1.213088	-60.854431	-158.157772
03766		8.875744	2.633430	8.400534	3.427889	-1.301454	2.136877	-0.182629	6.120366	0.331348	-0.871582	0.187988	-0.100342	0.091228	0.026559	0.081214	-0.172692	0.469772	0.098082	0.860158	0.688299	-57.355375	-157.672012
03767		11.069595	1.741252	9.055775	1.764047	-1.079170	4.443250	-0.116476	6.267985	0.451592	-0.853760	0.186279	-0.162598	0.113421	0.017718	0.087021	-0.177359	0.442809	0.090962	0.874179	0.190064	-53.751035	-157.158597
03768		12.507459	1.471717	9.192038	0.137806	-1.549677	5.698374	0.013500	6.429818	0.625062	-0.835938	0.188965	-0.216064	0.127896	0.015108	0.087839	-0.182949	0.414789	0.083866	0.887382	-0.261388	-50.070783	-156.579391
03769		13.354804	1.906113	8.565954	-1.514056	-2.833375	5.838274	0.136335	6.462414	0.881119	-0.809082	0.189697	-0.265137	0.136137	0.019601	0.081301	-0.189754	0.386042	0.076593	0.899499	-0.723457	-46.348875	-155.865925
03770		14.339127	2.054444	7.642781	-3.533648	-4.015595	5.664569	0.236485	6.291159	1.151553	-0.773682	0.203857	-0.318848	0.145579	0.021292	0.071896	-0.197699	0.357809	0.069404	0.909984	-1.183018	-42.737748	-155.022362
03771		16.433108	2.206906	6.495460	-6.361919	-5.646933	5.828782	0.352259	5.908161	1.356062	-0.744629	0.204346	-0.361084	0.166000	0.023082	0.060107	-0.206460	0.330788	0.062622	0.918712	-1.594523	-39.320310	-154.099196
03772		20.663143	1.470474	5.380721	-10.979455	-7.268467	7.057028	0.535907	5.376996	1.461751	-0.704346	0.207520	-0.392578	0.207865	0.016087	0.048271	-0.215664	0.305905	0.057069	0.925556	-1.868424	-36.219518	-153.155960
03773		27.639420	0.862455	4.168505	-17.628638	-10.209895	9.341298	0.801358	5.015789	1.375195	-0.677490	0.210449	-0.423828	0.277257	0.010381	0.034778	-0.224582	0.282035	0.053180	0.931231	-1.894896	-33.309789	-152.315172
03774		31.191350	0.757757	0.880997	-22.614049	-12.904594	7.395637	0.940708	4.892242	1.032479	-0.641357	0.202393	-0.448242	0.311961	0.009170	0.001220	-0.231947	0.258425	0.050573	0.936408	-1.673709	-30.493639	-151.719621
03775		29.191121	-0.022693	-3.700117	-24.056291	-12.881694	1.188119	0.872693	4.542397	0.552317	-0.620850	0.193848	-0.470215	0.290969	0.000758	-0.043615	-0.236726	0.236160	0.048614	0.941183	-1.315991	-27.875786	-151.437093
03776		26.580029	-0.602092	-7.490055	-24.151212	-12.305672	-4.506229	0.669905	3.782431	0.151210	-0.593750	0.189941	-0.479248	0.264325	-0.005559	-0.079928	-0.239109	0.217602	0.047082	0.945124	-0.958042	-25.711319	-151.386440
03777		26.705494	-0.481241	-10.086534	-25.297526	-13.067070	-7.718895	0.265998	2.868301	-0.001506	-0.584717	0.185791	-0.488037	0.265572	-0.004677	-0.104687	-0.240031	0.203684	0.044870	0.948095	-0.796823	-24.064459	-151.415857
03778		27.476272	-1.320456	-11.953700	-27.016918	-13.024387	-9.813323	-0.128838	2.059093	0.065701	-0.575684	0.185791	-0.499268	0.273517	-0.013193	-0.122349	-0.240666	0.194122	0.041699	0.950083	-0.883254	-22.888264	-151.391955
03779		27.588097	-1.556154	-13.567911	-27.765940	-13.148165	-11.756476	-0.216004	1.290626	0.226848	-0.562256	0.186279	-0.499268	0.275015	-0.015397	-0.137439	-0.241798	0.188307	0.038876	0.951085	-1.058878	-22.147547	-151.264085
03780		26.170664	-0.911058	-14.765955	-26.673582	-13.317910	-13.675100	-0.082358	0.471732	0.342735	-0.569092	0.188232	-0.499268	0.261373	-0.008723	-0.148273	-0.243447	0.186270	0.037571	0.951118	-1.187033	-21.877463	-151.056300
03781		24.254540	0.689320	-13.688022	-23.943732	-13.770938	-13.442704	0.106920	-0.329712	0.405391	-0.562256	0.188477	-0.499268	0.242756	0.007458	-0.136476	-0.245423	0.187835	0.038092	0.950281	-1.224289	-22.066943	-150.799315
03782		22.902993	-1.931713	-20.914915	-26.596972	-12.219765	-20.250855	1.006819	-2.118920	-0.350497	-0.575439	0.179199	-0.492432	0.231196	-0.018676	-0.206802	-0.244288	0.196628	0.045783	0.948454	-0.575212	-23.287996	-150.994552
03783		3.173538	1.054119	-5.502992	-4.035731	-3.396871	-13.504943	1.123226	-4.243726	-1.014898	-0.595459	0.174316	-0.469971	0.032946	0.010682	-0.054280	-0.239567	0.215183	0.057280	0.944999	0.328035	-25.730616	-151.624189
03784		25.128492	2.212815	31.481928	-6.226504	-5.574572	29.650681	0.284268	-4.255657	-0.313167	-0.611084	0.176270	-0.449951	0.244545	0.021289	0.320101	-0.237124	0.234851	0.064024	0.940488	0.588246	-28.171456	-151.845660
03785		20.158453	-15.337816	22.019752	-13.573076	10.543761	19.014493	1.110990	-3.370380	-0.117067	-0.626709	0.166992	-0.451904	0.197755	-0.154727	0.222695	-0.236782	0.249400	0.073378	0.936135	1.276901	-30.112087	-151.954600
03786		29.774964	7.173354	12.884581	-13.557696	-14.774207	16.679920	2.267584	-2.108680	-0.416101	-0.642090	0.162354	-0.445068	0.296510	0.069625	0.132774	-0.236863	0.256442	0.086978	0.933043	2.738973	-31.315232	-152.279357
03787		8.380345	10.447430	8.777624	2.619508	-9.863283	2.527281	0.982001	-1.110838	-0.439168	-0.650879	0.153320	-0.451416	0.083541	0.103856	0.088752	-0.235605	0.260372	0.093441	0.931647	3.474130	-31.950011	-152.610724
03788		5.577017	0.151707	9.150286	-0.046046	0.475834	0.893528	0.674589	-1.367233	-0.268035	-0.670898	0.152832	-0.447021	0.055145	0.001133	0.091886	-0.234591	0.265853	0.098520	0.929830	3.986053	-32.725843	-152.850930
03789		15.767779	2.415378	5.333360	-8.200070	-6.448965	3.380828	0.745134	-0.846142	-0.218666	-0.677734	0.150391	-0.451172	0.157476	0.023781	0.054089	-0.234168	0.268909	0.103279	0.928540	4.514847	-33.213073	-153.038634
03790		9.893659	1.738677	7.287216	-3.226372	-2.920426	1.809373	0.384756	-0.398430	-0.073593	-0.693604	0.154541	-0.462402	0.098797	0.017210	0.073102	-0.234138	0.270309	0.105610	0.927879	4.771213	-33.441330	-153.109624
03791		6.761792	-0.286684	8.354993	-1.393167	0.414689	0.840804	0.345933	-0.213465	-0.123379	-0.695557	0.147949	-0.459961	0.067527	-0.003053	0.083617	-0.233947	0.270944	0.107651	0.927507	5.020880	-33.571289	-153.202373
03792		5.486901	0.226574	9.259032	0.212694	0.787033	0.921476	0.368482	-0.112154	-0.171446	-0.708984	0.147705	-0.464355	0.054819	0.002048	0.092625	-0.233591	0.270981	0.109702	0.927346	5.296993	-33.630602	-153.325385
03793		5.904088	1.032155	9.143691	0.239159	-0.064642	1.117509	0.284671	-0.077987	-0.166997	-0.715576	0.145264	-0.462158	0.059014	0.010142	0.091474	-0.233185	0.271033	0.111357	0.927235	5.524143	-33.680182	-153.440718
03794		5.327777	0.212212	8.763531	0.083647	0.767804	0.416345	0.271799	-0.075862	-0.185075	-0.722168	0.140869	-0.466309	0.053246	0.001954	0.087658	-0.232654	0.271005	0.112936	0.927186	5.749262	-33.717179	-153.571346
03795		6.134233	0.695791	8.140481	-0.565037	-0.122577	0.387605	0.278191	-0.127666	-0.215501	-0.729004	0.140625	-0.470703	0.061298	0.006779	0.081453	-0.231985	0.271266	0.114683	0.927063	5.993566	-33.791329	-153.724019
03796		6.841901	0.657663	7.608994	-1.356605	-0.493310	0.339016	0.234561	-0.110378	-0.247992	-0.731201	0.138428	-0.468506	0.068385	0.006403	0.076135	-0.231091	0.271403	0.116214	0.927055	6.223296	-33.843258	-153.900866
03797		6.481916	0.827888	7.763764	-0.942132	-0.420563	0.282464	0.223701	-0.079789	-0.278915	-0.749023	0.135742	-0.466064	0.064800	0.008102	0.077673	-0.230080	0.271467	0.117738	0.927096	6.459326	-33.885161	-154.094232
03798		5.402906	1.116284	8.530279	0.338585	0.016247	0.340546	0.200925	-0.056954	-0.276955	-0.744385	0.131348	-0.470459	0.054020	0.011002	0.085329	-0.229036	0.271377	0.119090	0.927208	6.679072	-33.903599	-154.287378
03799		5.373100	1.283899	8.600247	0.465952	-0.064430	0.398165	0.178562	-0.061423	-0.234717	-0.749023	0.133545	-0.459473	0.053720	0.012699	0.086030	-0.228160	0.271437	0.120330	0.927246	6.873435	-33.937428	-154.452186
03800		6.324803	1.097616	7.780495	-0.712980	-0.502475	0.236348	0.152254	-0.056960	-0.207836	-0.760254	0.133301	-0.468262	0.063237	0.010851	0.077831	-0.227370	0.271443	0.121363	0.927304	7.039131	-33.959582	-154.598212
03801		6.619438	1.254899	8.013705	-0.757829	-0.638451	0.609847	0.137925	-0.048129	-0.167192	-0.762695	0.137695	-0.459473	0.066186	0.012438	0.080162	-0.226759	0.271527	0.122307	0.927305	7.183993	-33.989760	-154.715833
03802		5.906324	1.450009	8.292442	-0.009519	-0.438950	0.461503	0.109627	-0.024454	-0.139016	-0.758057	0.135498	-0.459473	0.059063	0.014414	0.082940	-0.226249	0.271471	0.123011	0.927353	7.297517	-33.997806	-154.812057
03803		5.195683	1.510004	8.341908	0.572226	-0.206951	0.111645	0.092133	-0.047103	-0.111169	-0.762451	0.135498	-0.459473	0.051946	0.015033	0.083438	-0.225841	0.271635	0.123664	0.927317	7.394500	-34.030972	-154.890745
03804		5.014385	1.542423	8.839842	0.947735	0.016534	0.422910	0.054519	-0.084942	-0.080090	-0.764893	0.139893	-0.461670	0.050112	0.015380	0.088424	-0.225492	0.271958	0.124101	0.927249	7.456989	-34.077491	-154.952066
03805		5.307192	1.002737	8.709353	0.414481	0.349270	0.421119	0.047112	-0.123834	-0.074893	-0.771729	0.144287	-0.457275	0.053022	0.009987	0.087129	-0.225148	0.272548	0.124581	0.927095	7.518006	-34.156453	-155.012267
03806		5.814640	1.060610	8.020677	-0.238829	-0.108298	0.147102	0.039521	-0.153599	-0.091246	-0.776611	0.153076	-0.457520	0.058090	0.010564	0.080253	-0.224684	0.273199	0.125041	0.926954	7.579974	-34.241019	-155.087723
03807		5.793604	1.109457	7.953358	-0.217341	-0.150477	0.085936	0.035997	-0.196659	-0.113775	-0.774414	0.153076	-0.448730	0.057864	0.011047	0.079592	-0.224110	0.274111	0.125600	0.926748	7.652986	-34.357830	-155.180091
03808		5.491297	1.226039	8.218282	0.198520	-0.035581	0.145071	0.010268	-0.214503	-0.140807	-0.783203	0.150635	-0.444092	0.054833	0.012218	0.082242	-0.223337	0.275045	0.126060	0.926596	7.721157	-34.473029	-155.295759
03809		4.630778	1.011086	8.464631	0.866145	0.553183	-0.165920	0.016275	-0.217094	-0.154640	-0.776611	0.150635	-0.446289	0.046224	0.010068	0.084697	-0.222534	0.276045	0.126607	0.926417	7.800589	-34.597993	-155.418751
03810		5.431122	1.047789	8.396425	0.268869	0.240893	0.235423	0.012409	-0.243677	-0.159139	-0.787842	0.155029	-0.437500	0.054217	0.010430	0.084031	-0.221660	0.277099	0.127135	0.926240	7.879578	-34.728064	-155.550560
03811		5.671111	1.022614	8.010552	-0.080709	0.064578	0.054705	0.016855	-0.275167	-0.177952	-0.792480	0.159180	-0.426514	0.056610	0.010169	0.080184	-0.220714	0.278350	0.127779	0.926002	7.972467	-34.883564	-155.695664
03812		5.535219	1.047213	8.258673	0.166946	0.202742	0.180907	0.018670	-0.341424	-0.205073	-0.794678	0.152588	-0.430908	0.055222	0.010408	0.082682	-0.219572	0.279819	0.128506	0.925730	8.079914	-35.065063	-155.869834
03813		5.219850	1.123828	8.551012	0.600771	0.375917	0.243518	0.019061	-0.394930	-0.220239	-0.797119	0.159180	-0.419922	0.052042	0.011173	0.085614	-0.218353	0.281592	0.129351	0.925363	8.199555	-35.284578	-156.057868
03814		5.359645	1.417776	8.466543	0.627364	0.074123	0.287757	0.037653	-0.456285	-0.210431	-0.801758	0.163574	-0.413330	0.053418	0.014106	0.084790	-0.217137	0.283565	0.130299	0.924913	8.328913	-35.530168	-156.249226
03815		5.572676	1.605202	8.302981	0.520604	-0.185675	0.299936	-0.033207	-0.551800	-0.176558	-0.806152	0.161133	-0.410889	0.055512	0.016017	0.083181	-0.215947	0.286142	0.131007	0.924298	8.412535	-35.841251	-156.424185
03816		5.330990	1.585361	8.557637	0.858520	0.035089	0.357238	-0.024115	-0.617362	-0.143065	-0.810547	0.161133	-0.404297	0.053057	0.015826	0.085738	-0.214846	0.288966	0.131745	0.923571	8.491694	-36.183290	-156.587566
03817		5.842613	1.160049	8.215543	0.172436	0.153223	0.332427	-0.011240	-0.717771	-0.118376	-0.810791	0.165527	-0.395508	0.058138	0.011571	0.082364	-0.213844	0.292315	0.132648	0.922620	8.577458	-36.592769	-156.741801
03818		5.200328	1.220017	8.662812	0.956636	0.510584	0.306588	-0.008735	-0.834430	-0.111169	-0.826172	0.156250	-0.381836	0.051648	0.012175	0.086844	-0.212762	0.296137	0.133640	0.921507	8.669529	-37.060117	-156.908905
03819		5.105925	1.014791	8.768136	1.059479	0.805108	0.297160	-0.003479	-0.959603	-0.109101	-0.826172	0.156250	-0.370850	0.050643	0.010122	0.087925	-0.211640	0.300589	0.134819	0.920151	8.776381	-37.606883	-157.087335
03820		5.032376	1.014437	8.934388	1.284983	0.943123	0.367464	0.027183	-1.096425	-0.096726	-0.834961	0.153809	-0.359619	0.049838	0.010108	0.089619	-0.210493	0.305574	0.136227	0.918564	8.906041	-38.223320	-157.278012
03821		5.005538	1.260440	8.909521	1.510685	0.787380	0.342125	0.035447	-1.236845	-0.076359	-0.844238	0.160156	-0.348633	0.049508	0.012570	0.089405	-0.209366	0.311262	0.137820	0.916672	9.047852	-38.929247	-157.472421
03822		5.615033	1.142116	8.662706	1.008416	0.682633	0.501904	0.053495	-1.428564	-0.043660	-0.857422	0.153320	-0.328369	0.055532	0.011386	0.087028	-0.208258	0.317755	0.139603	0.914424	9.201317	-39.737648	-157.671050
03823		5.847476	1.471607	8.678490	1.146034	0.413516	0.684355	0.081325	-1.648675	-0.012501	-0.863770	0.148682	-0.312744	0.057758	0.014677	0.087269	-0.207183	0.325290	0.141721	0.911689	9.381958	-40.681288	-157.878539
03824		5.322732	1.401023	9.053442	1.842900	0.863417	0.585103	0.119875	-1.888801	0.050385	-0.868652	0.157471	-0.292969	0.052366	0.013969	0.091040	-0.206258	0.333836	0.144114	0.908428	9.578029	-41.757690	-158.076531
03825		5.509781	1.889778	9.279445	2.255880	0.579039	0.892832	0.147098	-2.148152	0.109888	-0.884277	0.152588	-0.272705	0.054086	0.018859	0.093393	-0.205443	0.343601	0.146820	0.904531	9.794406	-42.993955	-158.272924
03826		5.542707	1.976428	9.155634	2.422639	0.559046	0.782870	0.133315	-2.455750	0.187749	-0.888916	0.159180	-0.239502	0.054279	0.019754	0.092241	-0.204700	0.354721	0.149590	0.899941	9.996739	-44.402779	-158.459679
03827		5.223515	2.466614	9.638405	3.399203	0.541529	0.883671	0.110791	-2.798430	0.272513	-0.902344	0.158691	-0.204102	0.050846	0.024682	0.097116	-0.204001	0.367465	0.152467	0.894487	10.188755	-46.020780	-158.641612
03828		5.277114	2.204641	9.837781	3.652237	0.975333	0.919929	0.039982	-3.209316	0.347580	-0.909180	0.162842	-0.170654	0.051145	0.022116	0.099212	-0.203152	0.382033	0.155239	0.888077	10.348866	-47.869867	-158.833576
03829		4.343718	1.762059	10.799452	4.955252	2.146395	0.647878	-0.022141	-3.703445	0.368413	-0.917969	0.162598	-0.126221	0.041395	0.017710	0.108772	-0.201815	0.398811	0.158182	0.880454	10.540743	-50.006474	-159.106527
03830		3.747354	1.360192	12.757373	6.772065	3.658468	1.112952	-0.030821	-4.363425	0.341812	-0.918213	0.171387	-0.084229	0.034655	0.013682	0.128348	-0.199754	0.418263	0.161708	0.871209	10.857716	-52.503684	-159.539433
03831		2.382821	-0.656145	13.747170	7.697479	6.338371	-0.034021	0.075452	-5.254392	0.214046	-0.927246	0.173340	-0.017822	0.020214	-0.006591	0.138032	-0.196499	0.441186	0.166786	0.859608	11.542113	-55.491261	-160.334242
03832		1.262612	-1.900379	13.542856	8.032822	7.754307	-1.819300	0.317198	-6.474362	-0.051080	-0.929199	0.168701	0.046631	0.008231	-0.019221	0.135712	-0.191471	0.468459	0.174512	0.844648	12.992724	-59.114418	-161.844853
03833		1.531412	-1.928109	13.308155	8.229394	7.868186	-2.502120	0.464164	-7.878679	-0.339024	-0.919678	0.161865	0.126709	0.010027	-0.019611	0.133501	-0.184066	0.500690	0.184662	0.825426	15.643792	-63.450206	-164.566490
03834		6.263208	-0.575184	14.355120	8.357081	7.038103	1.416051	0.723989	-9.012502	-0.522083	-0.908447	0.166260	0.210938	0.056067	-0.006430	0.146154	-0.175208	0.536248	0.197035	0.801821	20.244875	-68.278585	-169.152374
03835		13.309531	2.043945	13.374216	7.413587	4.489877	7.063543	0.926307	-9.339798	-0.536823	-0.887939	0.164307	0.299805	0.126711	0.019455	0.139852	-0.166140	0.571796	0.210136	0.775429	27.796543	-73.057530	-176.586820
03836		22.834522	6.194538	13.288761	8.285707	1.790883	15.955885	0.997209	-9.065337	-0.274790	-0.860840	0.162354	0.377197	0.222088	0.060940	0.143357	-0.158217	0.605253	0.222072	0.747877	39.816577	-77.312142	171.578881
03837		23.085190	2.027699	13.048806	7.808080	6.375253	14.789769	0.771350	-8.387577	0.044019	-0.831787	0.171631	0.439209	0.225106	0.019799	0.140088	-0.151251	0.635549	0.231243	0.720921	58.883923	-80.509464	152.610608
03838		21.568201	0.168664	15.202384	10.544113	9.922849	12.240420	0.883758	-7.719373	0.047982	-0.800293	0.172119	0.501221	0.209603	0.001041	0.160199	-0.145179	0.662307	0.239915	0.694776	86.923644	-81.878536	124.760573
03839		14.809126	0.186106	15.402429	12.474866	9.884398	4.437358	0.408541	-7.102499	0.088078	-0.764160	0.170410	0.547607	0.142498	0.001603	0.159155	-0.138166	0.686406	0.245998	0.670254	114.329417	-81.156265	97.291562
03840		12.792050	2.206043	14.668748	13.775362	7.806695	1.712939	-0.655937	-6.453521	-0.012383	-0.732666	0.170898	0.591797	0.123103	0.022542	0.150639	-0.127846	0.708137	0.248149	0.648552	131.839054	-79.105565	79.141488
03841		18.378110	2.423516	22.750626	21.805506	12.722044	5.144426	-1.811456	-4.790908	0.125847	-0.716309	0.155518	0.612061	0.178250	0.026434	0.231588	-0.115788	0.724783	0.244748	0.633547	140.143642	-77.173118	69.586369
03842		29.768663	-13.300768	25.359519	17.834948	29.630423	12.772347	-1.338885	-1.576119	0.005600	-0.711670	0.153564	0.616455	0.295675	-0.131287	0.256813	-0.108999	0.730547	0.241363	0.629416	141.828106	-76.471144	67.065359
03843		7.744857	-13.174780	20.324275	11.739851	22.463465	-7.766554	0.901048	1.583248	-0.112652	-0.729736	0.155518	0.592041	0.078977	-0.132704	0.202025	-0.113751	0.724930	0.243634	0.634176	139.676024	-77.134154	69.789431
03844		-5.852872	-2.402684	14.560054	10.898816	7.907911	-18.220409	2.001802	1.987027	0.175113	-0.739258	0.168701	0.565186	-0.057058	-0.025537	0.145922	-0.123951	0.717661	0.248170	0.638757	137.765041	-78.054218	72.917212
03845		-8.274518	7.813991	12.917414	14.609123	-1.719135	-18.756749	0.835127	1.602328	0.850715	-0.744141	0.175293	0.547363	-0.082035	0.077248	0.130157	-0.131575	0.713055	0.246666	0.642960	136.928992	-79.064346	74.242360
03846		-2.465119	3.403794	11.827798	11.745873	2.643064	-13.363238	-0.699888	1.507561	1.312764	-0.755371	0.177246	0.534180	-0.023984	0.034293	0.118341	-0.135133	0.710277	0.238708	0.648278	136.290195	-80.206864	74.480932
03847		1.714952	-2.140946	11.692491	9.015998	7.932395	-9.668431	-0.743255	2.127481	1.095717	-0.773926	0.185791	0.509521	0.018508	-0.020876	0.116811	-0.138488	0.705134	0.230838	0.655989	133.201361	-81.515654	77.160756
03848		2.598992	-0.162267	11.704099	10.058773	6.337358	-8.258771	-0.055570	3.062491	0.693929	-0.787354	0.185791	0.478516	0.027783	-0.001496	0.116625	-0.144067	0.695872	0.226038	0.666268	125.058051	-82.933643	85.343498
03849		2.269487	4.856689	10.801116	11.759461	1.531650	-7.631546	-0.007671	3.901520	0.487523	-0.805420	0.187744	0.440918	0.024677	0.048630	0.107541	-0.149996	0.683274	0.221356	0.679440	108.318928	-84.207049	102.168057
03850		1.781412	5.503970	9.231622	10.667490	0.099984	-7.605769	-0.420447	4.516814	0.381287	-0.823486	0.187500	0.400879	0.019786	0.055269	0.091768	-0.154798	0.668523	0.215159	0.694854	81.613438	-84.662040	128.750209
03851		1.948342	4.218404	7.882692	8.751757	0.462214	-7.184527	-0.597174	4.958304	0.182654	-0.834961	0.189697	0.352051	0.021389	0.042437	0.078186	-0.158680	0.651708	0.208468	0.711786	54.720195	-83.674337	155.421000
03852		2.749708	3.601445	7.399319	7.806946	0.695657	-6.093358	-0.513400	5.318879	-0.075325	-0.857178	0.180420	0.305908	0.029463	0.036192	0.073134	-0.162210	0.632909	0.202571	0.729437	37.680641	-81.514529	172.299093
03853		4.956149	2.145251	7.418301	6.538044	1.878635	-3.656473	-0.382634	5.708253	-0.270264	-0.868408	0.175781	0.248291	0.051680	0.021524	0.072687	-0.165707	0.611811	0.197224	0.747884	27.985952	-78.663857	-178.095954
03854		6.651524	4.101112	6.275758	5.810162	-0.581626	-1.668815	-0.062508	6.283818	-0.152003	-0.881836	0.173584	0.186279	0.068473	0.040979	0.060614	-0.171048	0.587951	0.192130	0.766904	21.724782	-75.359637	-171.713312
03855		3.800237	6.319128	5.944795	6.945954	-2.757203	-3.994869	-0.251488	6.553756	0.051581	-0.886475	0.171387	0.133057	0.039904	0.063275	0.058081	-0.176698	0.562701	0.185214	0.786029	17.204630	-71.814720	-167.163326
03856		3.445902	6.587142	5.589007	6.576586	-3.316429	-4.135104	-0.547904	6.523009	0.076602	-0.888672	0.171631	0.070801	0.036228	0.066036	0.054547	-0.181391	0.537358	0.176963	0.804380	14.003416	-68.229922	-164.096163
03857		5.277038	6.290567	6.447958	6.085421	-3.065861	-1.904782	-0.794069	6.474880	-0.044789	-0.884033	0.165039	0.008789	0.054829	0.063144	0.062476	-0.184692	0.511634	0.167838	0.822162	11.698393	-64.593754	-162.088276
03858		8.496659	5.077634	7.256268	4.275693	-2.388345	1.438663	-0.944045	6.557035	-0.196104	-0.886230	0.160889	-0.046631	0.087329	0.051024	0.069485	-0.186863	0.485147	0.158291	0.839439	9.994443	-60.886854	-160.784303
03859		10.671392	3.618164	7.682607	2.189394	-1.694380	3.538576	-0.973679	6.781218	-0.238063	-0.875244	0.158936	-0.115234	0.109275	0.036414	0.072973	-0.188734	0.457037	0.148275	0.856453	8.606122	-57.016832	-159.825645
03860		12.549304	2.663796	7.227615	-0.379511	-1.890476	4.782274	-0.891420	6.952001	-0.112725	-0.859375	0.152832	-0.184082	0.127916	0.026875	0.067738	-0.191246	0.427788	0.138043	0.872563	7.389217	-53.067498	-158.968562
03861		13.469258	2.703848	6.190411	-2.474674	-3.077089	4.725823	-0.755020	6.965766	0.204460	-0.830078	0.149170	-0.237305	0.136709	0.027399	0.057062	-0.195204	0.397906	0.127489	0.887307	6.216891	-49.104213	-158.027812
03862		14.414060	3.432566	4.812383	-4.441717	-5.028252	4.244495	-0.633474	6.706796	0.581044	-0.801514	0.163086	-0.295654	0.145543	0.034889	0.043148	-0.200681	0.368956	0.116883	0.899965	5.082627	-45.316973	-156.981755
03863		16.898314	3.796435	3.927413	-7.170907	-6.919346	4.883939	-0.570028	6.170436	0.863960	-0.774658	0.166016	-0.337891	0.169919	0.038799	0.033931	-0.207022	0.341995	0.106404	0.910417	4.012003	-41.818366	-155.911731
03864		23.020527	3.487100	3.227210	-12.590735	-9.373447	7.679700	-0.468882	5.580062	0.986347	-0.741211	0.168945	-0.378174	0.230809	0.036074	0.025754	-0.213594	0.317508	0.096743	0.918807	3.093887	-38.666412	-154.911684
03865		29.341874	1.856274	1.164607	-19.642940	-11.358964	8.913639	-0.212667	5.206551	0.869234	-0.700928	0.176514	-0.411865	0.293505	0.019845	0.003985	-0.219666	0.294052	0.088741	0.925962	2.481187	-35.700545	-154.108033
03866		31.754130	0.858372	-2.692617	-24.464901	-13.078753	5.888314	0.126331	4.903778	0.460219	-0.678223	0.168213	-0.438232	0.316733	0.009334	-0.034694	-0.224092	0.271367	0.083216	0.932318	2.289981	-32.908367	-153.645930
03867		29.928801	0.618222	-6.905694	-25.654349	-13.724084	0.044374	0.127387	4.315056	-0.088771	-0.651123	0.159912	-0.453857	0.297708	0.006097	-0.075488	-0.225577	0.250964	0.079040	0.938022	2.330338	-30.429509	-153.590224
03868		27.051738	-0.799595	-9.390686	-25.454330	-12.103167	-4.700582	-0.257099	3.324492	-0.522790	-0.635254	0.157959	-0.469482	0.268885	-0.008825	-0.098375	-0.224087	0.235460	0.074709	0.942742	2.304793	-28.518242	-153.843960
03869		27.749087	-1.758831	-10.787290	-27.202969	-11.751228	-6.446235	-0.821478	2.337302	-0.629649	-0.619629	0.158447	-0.478271	0.276147	-0.018911	-0.111030	-0.221001	0.225097	0.068931	0.946435	1.995714	-27.164456	-154.195064
03870		28.165152	-3.823127	-12.125048	-29.128359	-10.168807	-8.074481	-1.264451	1.538663	-0.396950	-0.606201	0.158691	-0.489502	0.280631	-0.039564	-0.123165	-0.218223	0.219105	0.061669	0.948983	1.368853	-26.280644	-154.419037
03871		23.282930	-8.669029	-12.841621	-27.659373	-3.874654	-11.260509	-1.253812	0.791131	-0.074656	-0.613281	0.167480	-0.487549	0.232288	-0.087584	-0.128789	-0.216737	0.216716	0.054923	0.950286	0.664911	-25.829288	-154.456429
03872		28.724132	-15.250146	-27.881483	-40.816764	-3.130823	-22.429891	1.320747	-1.142903	-0.227526	-0.614990	0.154053	-0.478271	0.288660	-0.150991	-0.278168	-0.216770	0.220684	0.062661	0.948885	1.487912	-26.485609	-154.613733
03873		32.409898	4.591530	-25.428940	-34.140356	-22.312010	-17.193619	1.818767	-3.793695	0.368730	-0.632813	0.153564	-0.453857	0.328751	0.048791	-0.247648	-0.219299	0.236846	0.074962	0.943500	2.454429	-28.672778	-154.457324
03874		35.030123	8.185685	17.259004	-16.120928	-16.113080	22.931298	0.293254	-4.626308	1.205574	-0.653564	0.168701	-0.442871	0.345682	0.083689	0.180744	-0.223540	0.258771	0.079948	0.936310	2.283162	-31.353861	-153.785316
03875		31.065856	10.199179	32.077891	-4.577728	-11.713033	34.230932	1.980816	-1.538137	-0.608211	-0.664307	0.150635	-0.451416	0.308476	0.097852	0.324140	-0.222643	0.263598	0.091726	0.934094	3.658945	-32.228335	-154.244549
03876		-10.816176	2.599099	5.376136	11.874268	3.207675	-10.978140	0.860256	-1.523895	-0.708854	-0.679688	0.145996	-0.440186	-0.108475	0.026146	0.053048	-0.219760	0.269460	0.098349	0.932429	4.447125	-33.074702	-154.797542
03877		23.799145	0.684836	11.577020	-12.317371	-5.443281	12.980626	1.080882	-1.335359	-0.249427	-0.684082	0.141357	-0.442139	0.237219	0.005921	0.117389	-0.219410	0.274466	0.105202	0.930301	5.201111	-33.837304	-155.041839
03878		6.607159	2.694952	6.993272	-0.447742	-2.436134	-0.133480	0.604436	-0.821396	-0.179398	-0.711182	0.143066	-0.435303	0.065807	0.026678	0.070284	-0.218971	0.277565	0.109138	0.929031	5.642849	-34.300263	-155.217682
03879		8.373668	-1.014047	7.052294	-3.450791	0.309375	0.621752	0.463745	-0.299126	-0.176888	-0.706299	0.132080	-0.450684	0.083622	-0.010378	0.070624	-0.218653	0.278458	0.111883	0.928512	5.987826	-34.473859	-155.357267
03880		7.333842	-0.863660	8.874546	-1.754681	1.186140	1.536439	0.376515	-0.040654	-0.231196	-0.719727	0.134033	-0.448486	0.073310	-0.008888	0.088744	-0.218081	0.278145	0.113976	0.928485	6.291887	-34.487017	-155.518752
03881		8.706702	1.806005	7.418327	-2.235922	-2.073202	1.358804	0.299028	0.088213	-0.250335	-0.724121	0.131836	-0.448486	0.087122	0.017840	0.074172	-0.217409	0.277378	0.115631	0.928668	6.555268	-34.434373	-155.681113
03882		7.920698	2.438356	7.923789	-1.142340	-2.166779	1.388629	0.175484	0.139369	-0.183432	-0.733154	0.131592	-0.450684	0.079284	0.024241	0.079204	-0.216882	0.276473	0.116528	0.928949	6.717149	-34.347085	-155.795170
03883		6.967562	2.648352	8.585828	-0.039258	-1.792977	1.414993	0.086491	0.095069	-0.085498	-0.737793	0.138184	-0.457275	0.069728	0.026417	0.085837	-0.216688	0.276001	0.116962	0.929080	6.793695	-34.301079	-155.842177
03884		6.619012	1.836059	8.290004	-0.300764	-1.056513	0.897117	0.031429	0.004983	-0.009061	-0.751221	0.133545	-0.457275	0.066193	0.018345	0.082901	-0.216693	0.275978	0.117094	0.929069	6.811197	-34.301807	-155.846757
03885		6.885274	1.969970	8.043402	-0.546609	-1.344599	0.858646	-0.011761	-0.078425	0.033537	-0.749268	0.140137	-0.457275	0.068818	0.019716	0.080460	-0.216818	0.276486	0.117096	0.928888	6.793222	-34.362509	-155.825551
03886		6.887808	2.107852	8.093090	-0.445487	-1.450847	0.914828	-0.069782	-0.147983	0.091810	-0.755859	0.140137	-0.450684	0.068808	0.021138	0.080974	-0.217062	0.277343	0.116784	0.928615	6.720495	-34.457075	-155.773068
03887		6.841810	1.669338	7.984334	-0.640472	-1.090092	0.758409	-0.112861	-0.198105	0.124655	-0.762939	0.144287	-0.450684	0.068329	0.016781	0.079902	-0.217400	0.278570	0.116322	0.928227	6.614482	-34.592034	-155.698473
03888		6.029912	0.780432	8.050074	-0.388905	-0.016875	0.268038	-0.110442	-0.218701	0.122244	-0.762939	0.146484	-0.446289	0.060206	0.007886	0.080562	-0.217687	0.279816	0.115856	0.927843	6.509181	-34.728698	-155.630010
03889		5.490296	0.770655	8.226145	0.121548	0.231226	0.103886	-0.113786	-0.206888	0.098709	-0.774414	0.150879	-0.446289	0.054814	0.007780	0.082314	-0.217893	0.281070	0.115437	0.927468	6.412861	-34.866931	-155.573800
03890		6.285492	0.825411	8.170823	-0.445911	-0.109192	0.518829	-0.126061	-0.212645	0.094914	-0.778809	0.152832	-0.446289	0.062764	0.008335	0.081770	-0.218034	0.282288	0.114929	0.927128	6.308481	-34.998212	-155.523039
03891		5.963353	0.880481	8.219313	-0.127692	-0.035365	0.379286	-0.131965	-0.210999	0.097052	-0.781250	0.155029	-0.437500	0.059542	0.008888	0.082250	-0.218202	0.283579	0.114432	0.926756	6.201992	-35.138516	-155.467746
03892		5.934243	0.415770	8.205367	-0.302815	0.374514	0.310757	-0.117765	-0.227629	0.087630	-0.781494	0.164063	-0.442139	0.059247	0.004232	0.082119	-0.218312	0.284852	0.113989	0.926394	6.105308	-35.277735	-155.422437
03893		5.279441	0.430669	8.357339	0.293676	0.634542	0.057172	-0.121785	-0.266372	0.065613	-0.785889	0.159424	-0.435303	0.052682	0.004375	0.083641	-0.218320	0.286368	0.113642	0.925967	6.018715	-35.447360	-155.391889
03894		4.433975	0.719379	9.056719	1.424255	0.900335	0.155392	-0.192715	-0.290087	0.029091	-0.792969	0.170410	-0.431152	0.044207	0.007288	0.090624	-0.218014	0.287977	0.113004	0.925618	5.904918	-35.618563	-155.391385
03895		5.357407	0.722949	8.829178	0.674810	0.504659	0.505677	-0.272241	-0.365434	0.026354	-0.797607	0.177002	-0.426758	0.053412	0.007357	0.088380	-0.217565	0.290089	0.112123	0.925171	5.751637	-35.842053	-155.394728
03896		5.058031	0.266124	8.389498	0.514627	0.860476	-0.064214	-0.203077	-0.463846	0.022850	-0.797607	0.177002	-0.415771	0.050385	0.002752	0.084009	-0.217116	0.292508	0.111633	0.924574	5.641079	-36.111962	-155.409849
03897		5.025058	1.191446	8.294904	0.978546	0.030330	-0.090679	-0.230273	-0.544971	0.051138	-0.804443	0.178955	-0.402344	0.050021	0.012023	0.083072	-0.216746	0.295411	0.111101	0.923802	5.507588	-36.438815	-155.405900
03898		5.361506	0.742531	7.888846	0.379758	0.185574	-0.254862	-0.196665	-0.614503	0.042683	-0.804688	0.183350	-0.400391	0.053371	0.007514	0.079045	-0.216310	0.298524	0.110774	0.922942	5.397750	-36.795783	-155.415842
03899		4.987066	0.723092	8.328991	0.928637	0.486381	-0.134542	-0.198928	-0.646437	0.048081	-0.809326	0.189941	-0.398193	0.049599	0.007326	0.083443	-0.215904	0.301854	0.110500	0.921986	5.287082	-37.180359	-155.420140
03900		5.180569	0.319541	8.010905	0.503809	0.684724	-0.305218	-0.175983	-0.668737	0.055109	-0.809570	0.196533	-0.387207	0.051537	0.003280	0.080279	-0.215522	0.305195	0.110306	0.920999	5.184978	-37.568949	-155.423129
03901		5.412319	0.367684	7.881696	0.358771	0.538424	-0.266456	-0.158468	-0.676606	0.046369	-0.818604	0.194092	-0.375977	0.053855	0.003752	0.078997	-0.215161	0.308607	0.110247	0.919953	5.097555	-37.970060	-155.427052
03902		5.600176	0.385279	7.933779	0.324557	0.496574	-0.112019	-0.138801	-0.686365	0.026154	-0.822998	0.196289	-0.367188	0.055729	0.003915	0.079527	-0.214687	0.311966	0.110285	0.918926	5.029579	-38.367251	-155.450739
03903		6.037900	0.783001	7.997634	0.298014	0.045436	0.234212	-0.127467	-0.694958	0.019631	-0.825439	0.200684	-0.360596	0.060100	0.007887	0.080180	-0.214225	0.315407	0.110429	0.917841	4.972785	-38.777646	-155.475609
03904		5.477729	0.853557	8.242250	0.925970	0.267722	0.073628	-0.130285	-0.705705	0.042727	-0.832031	0.198242	-0.351807	0.054484	0.008601	0.082610	-0.213825	0.318846	0.110498	0.916737	4.902531	-39.186734	-155.487500
03905		5.672892	0.769984	8.000520	0.691009	0.217898	-0.001598	-0.136598	-0.742251	0.055275	-0.832031	0.198242	-0.340576	0.056429	0.007770	0.080210	-0.213479	0.322523	0.110591	0.915519	4.825464	-39.625761	-155.488190
03906		6.200840	1.223709	7.845902	0.521699	-0.383426	0.241483	-0.140050	-0.793406	0.079510	-0.838867	0.197998	-0.333984	0.061692	0.012317	0.078696	-0.213176	0.326385	0.110646	0.914213	4.734875	-40.086704	-155.476862
03907		6.398239	1.066485	7.532014	0.222815	-0.390402	0.117235	-0.150351	-0.881893	0.108267	-0.847900	0.202393	-0.325195	0.063644	0.010756	0.075593	-0.212957	0.330735	0.110737	0.912689	4.629325	-40.608045	-155.445997
03908		6.567132	1.266050	7.512544	0.280229	-0.601528	0.223607	-0.163985	-0.997709	0.134495	-0.847900	0.204590	-0.309570	0.065287	0.012766	0.075441	-0.212744	0.335572	0.110806	0.910963	4.504133	-41.188145	-155.403004
03909		5.922182	1.032114	8.209345	1.114215	0.076698	0.300786	-0.193053	-1.128958	0.163468	-0.859131	0.202148	-0.302734	0.058749	0.010449	0.082416	-0.212553	0.341105	0.110869	0.908942	4.353383	-41.852973	-155.341559
03910		5.881515	0.837496	8.204534	1.172345	0.292379	0.244476	-0.223570	-1.334716	0.165370	-0.868408	0.208496	-0.280762	0.058259	0.008515	0.082426	-0.212178	0.347532	0.110965	0.906581	4.187002	-42.626770	-155.289202
