// General information: 
//  MT Manager version: 2019.2.0 
//  XDA version: 2019.2.0 build 3853 rev 94535 built on 2019-09-09
// Device information: 
//  DeviceId: 00B40A23
//  ProductCode: MTW2-3A7G6
//  Firmware Version: 4.3.5
//  Hardware Version: 1.1.0
// Device settings: 
//  Filter Profile: human(46.1)
//  Option Flags: Orientation Smoother Disabled, AHS Disabled, ICC Disabled
// Coordinate system: ENU
PacketCounter	SampleTimeFine	Acc_X	Acc_Y	Acc_Z	FreeAcc_E	FreeAcc_N	FreeAcc_U	Gyr_X	Gyr_Y	Gyr_Z	Mag_X	Mag_Y	Mag_Z	VelInc_X	VelInc_Y	VelInc_Z	Quat_q0	Quat_q1	Quat_q2	Quat_q3	Roll	Pitch	Yaw
06442		15.597042	11.917958	16.859950	-2.054987	-16.718605	9.828819	0.838822	-2.597945	0.171434	-0.571533	0.252686	-0.502930	0.153657	0.118598	0.171104	0.239609	-0.173241	0.006859	-0.955263	-5.839530	-19.128960	-150.853166
06443		13.051837	11.968643	13.586497	-0.673216	-15.530345	6.203984	0.417763	-2.025493	-0.625650	-0.589600	0.256836	-0.493896	0.129505	0.118994	0.137429	0.237041	-0.182461	0.001911	-0.954210	-5.516548	-20.322586	-151.108880
06444		12.262134	4.635564	11.666605	-3.790532	-8.640583	4.983385	-0.291542	-1.789839	-0.477731	-0.596680	0.265381	-0.491943	0.121682	0.046235	0.117690	0.234524	-0.191465	0.000727	-0.953068	-5.620150	-21.384010	-151.289512
06445		10.332099	-6.216509	9.932261	-7.484867	1.824603	3.777378	-0.250386	-1.571221	-0.060239	-0.608154	0.271973	-0.491943	0.102517	-0.062071	0.100208	0.233998	-0.199274	0.000036	-0.951596	-5.788882	-22.286555	-151.228839
06446		7.540013	-2.446908	10.004148	-3.336917	-0.206228	2.505682	0.114337	-1.359555	0.019449	-0.614990	0.278564	-0.489990	0.074720	-0.024519	0.100537	0.234222	-0.205737	-0.002102	-0.950162	-5.763132	-23.075945	-151.127080
06447		5.188498	0.411045	9.786101	-0.127232	-1.654362	1.146455	0.127393	-1.136457	-0.043849	-0.633057	0.280273	-0.480957	0.051329	0.004037	0.098156	0.234131	-0.211017	-0.004066	-0.949020	-5.710705	-23.729665	-151.082106
06448		5.656994	1.806897	9.082733	-0.059551	-3.114057	0.582532	0.046051	-1.037012	-0.198679	-0.639893	0.280273	-0.489746	0.056116	0.017992	0.091123	0.233234	-0.216011	-0.005733	-0.948108	-5.662455	-24.348026	-151.136816
06449		6.734160	-2.240632	8.226693	-2.981404	-0.020908	0.635173	-0.001876	-0.891150	-0.177059	-0.651611	0.291016	-0.483398	0.066954	-0.022465	0.082566	0.232367	-0.220265	-0.006937	-0.947334	-5.643567	-24.869458	-151.191239
06450		6.246299	-3.824337	8.151807	-3.252750	1.648193	0.521542	0.105454	-0.733707	-0.169514	-0.660400	0.290771	-0.481201	0.062131	-0.038339	0.081726	0.231675	-0.223747	-0.008503	-0.946674	-5.559329	-25.313523	-151.247736
06451		5.416783	-2.994222	8.968056	-1.835849	1.424357	0.833125	0.344718	-0.577731	-0.227036	-0.676270	0.292725	-0.485596	0.053874	-0.030158	0.089785	0.230961	-0.226105	-0.011041	-0.946262	-5.318303	-25.658713	-151.355143
06452		5.253661	-1.062750	9.086725	-0.770983	-0.148072	0.707874	0.390618	-0.456718	-0.265034	-0.676270	0.290527	-0.485352	0.052315	-0.010875	0.090966	0.230144	-0.227939	-0.013738	-0.945986	-5.035584	-25.949461	-151.491964
06453		5.580940	-0.084609	9.185717	-0.536090	-1.085690	0.867433	0.372208	-0.389010	-0.277476	-0.694336	0.292480	-0.480957	0.055629	-0.001094	0.091964	0.229229	-0.229365	-0.016246	-0.945823	-4.757393	-26.188451	-151.645863
06454		5.538006	0.515468	9.503115	-0.087963	-1.503210	1.094962	0.306841	-0.262477	-0.248255	-0.694092	0.290283	-0.480957	0.055261	0.004940	0.095111	0.228407	-0.230374	-0.018306	-0.945739	-4.520252	-26.366400	-151.785525
06455		5.098576	-0.166358	9.263383	-0.133933	-0.691198	0.738972	0.284597	-0.296576	-0.232373	-0.703369	0.296631	-0.485352	0.050846	-0.001855	0.092707	0.227609	-0.231463	-0.020241	-0.945626	-4.300880	-26.549417	-151.917968
06456		5.154800	-0.059995	9.286555	-0.108267	-0.759958	0.781001	0.271983	-0.259008	-0.189621	-0.705566	0.294434	-0.483154	0.051427	-0.000775	0.092931	0.227022	-0.232499	-0.022066	-0.945472	-4.098523	-26.721990	-152.022201
06457		4.988038	0.611283	9.507065	0.424820	-1.220387	0.862918	0.197343	-0.247108	-0.131729	-0.719238	0.296387	-0.476563	0.049767	0.005986	0.095138	0.226602	-0.233462	-0.023416	-0.945303	-3.955696	-26.871887	-152.094193
06458		5.349344	0.012198	9.162792	-0.254613	-0.855464	0.759714	0.129490	-0.236144	-0.088332	-0.714600	0.294189	-0.474365	0.053385	0.000039	0.091691	0.226391	-0.234552	-0.024415	-0.945059	-3.865490	-27.025370	-152.127838
06459		6.204173	-0.209737	8.520153	-1.285644	-1.086737	0.593792	0.109900	-0.248777	-0.043011	-0.723633	0.298584	-0.467529	0.061935	-0.002158	0.085277	0.226286	-0.235631	-0.025249	-0.944794	-3.798062	-27.172605	-152.143552
06460		6.146781	0.003583	8.372274	-1.189300	-1.257818	0.428470	0.065954	-0.234053	-0.003213	-0.723877	0.300781	-0.469971	0.061370	0.000007	0.083795	0.226405	-0.236793	-0.025848	-0.944458	-3.768764	-27.321693	-152.122597
06461		5.900261	-0.257539	8.272446	-1.134330	-0.923181	0.245830	0.045964	-0.222718	0.012261	-0.728516	0.305176	-0.465576	0.058911	-0.002591	0.082790	0.226489	-0.237828	-0.026286	-0.944166	-3.753649	-27.451934	-152.104069
06462		5.202100	-0.827855	8.460591	-0.735725	-0.080373	0.126176	0.052028	-0.195289	0.013955	-0.728271	0.302734	-0.463379	0.051939	-0.008297	0.084654	0.226698	-0.238822	-0.026754	-0.943852	-3.737403	-27.577965	-152.071123
06463		4.412724	-1.135491	8.848846	-0.067106	0.596322	0.122272	0.053065	-0.187893	0.003200	-0.735107	0.304932	-0.458740	0.044044	-0.011378	0.088527	0.226751	-0.239683	-0.027196	-0.943608	-3.714875	-27.688643	-152.059955
06464		4.661011	-1.279581	8.507400	-0.459115	0.582512	-0.056250	0.098931	-0.195817	-0.019026	-0.730469	0.300537	-0.458740	0.046526	-0.012842	0.085113	0.226853	-0.240622	-0.027927	-0.943323	-3.661610	-27.816351	-152.049236
06465		4.901074	-0.824586	8.635456	-0.377444	0.113740	0.143021	0.128604	-0.173678	-0.027366	-0.737305	0.304932	-0.454346	0.048935	-0.008308	0.086392	0.226855	-0.241325	-0.028746	-0.943119	-3.586235	-27.920025	-152.058620
06466		4.772051	-0.722162	8.740719	-0.173778	0.110728	0.169881	0.112084	-0.140250	-0.036153	-0.737061	0.295898	-0.451904	0.047658	-0.007279	0.087437	0.226895	-0.241984	-0.029496	-0.942917	-3.518934	-28.016606	-152.062065
06467		4.875800	-0.413380	8.669748	-0.141778	-0.204763	0.139538	0.104386	-0.130001	-0.029770	-0.741943	0.304688	-0.452148	0.048701	-0.004186	0.086727	0.226862	-0.242508	-0.030154	-0.942769	-3.455724	-28.095365	-152.075028
06468		4.840618	0.159741	8.559263	0.099825	-0.707248	-0.004124	0.091769	-0.118968	-0.010039	-0.743896	0.295898	-0.449707	0.048355	0.001556	0.085622	0.226990	-0.243095	-0.030755	-0.942568	-3.406889	-28.179123	-152.064334
06469		5.099476	-0.416485	8.453241	-0.395755	-0.304978	0.055735	0.066747	-0.122555	0.003163	-0.748291	0.298096	-0.449707	0.050943	-0.004192	0.084562	0.227067	-0.243631	-0.031188	-0.942397	-3.375104	-28.252489	-152.056376
06470		5.333477	-0.324422	8.177545	-0.648566	-0.520766	-0.079670	0.048824	-0.118297	0.006299	-0.748535	0.300293	-0.445313	0.053286	-0.003263	0.081806	0.227202	-0.244268	-0.031568	-0.942187	-3.354968	-28.335719	-152.037498
06471		4.669836	0.096581	8.705340	0.298859	-0.526116	0.048018	0.034797	-0.109789	0.013804	-0.750732	0.302490	-0.447510	0.046650	0.000954	0.087079	0.227293	-0.244782	-0.031823	-0.942023	-3.344540	-28.401432	-152.023157
06472		4.876316	-0.795014	8.382951	-0.389522	0.137571	-0.090871	0.015748	-0.112572	0.029222	-0.748047	0.291260	-0.445068	0.048717	-0.007950	0.083856	0.227506	-0.245431	-0.032014	-0.941796	-3.350656	-28.480391	-151.988341
06473		4.806592	-0.169663	8.483483	-0.002997	-0.370847	-0.067737	0.021699	-0.099688	0.013255	-0.752686	0.295654	-0.443115	0.048024	-0.001703	0.084859	0.227579	-0.245911	-0.032196	-0.941647	-3.347418	-28.540345	-151.974723
06474		4.697133	-0.523069	8.479497	-0.066422	-0.004300	-0.105263	0.013009	-0.094062	0.004751	-0.757324	0.295654	-0.447510	0.046932	-0.005235	0.084817	0.227650	-0.246476	-0.032385	-0.941476	-3.346071	-28.610095	-151.960040
06475		5.080877	-0.935592	8.124622	-0.698486	0.150668	-0.211149	0.027734	-0.100089	-0.022044	-0.759521	0.295654	-0.451904	0.050767	-0.009373	0.081270	0.227564	-0.246945	-0.032640	-0.941365	-3.328384	-28.671458	-151.969410
06476		4.882854	-0.289459	8.100384	-0.260499	-0.340942	-0.359742	0.037257	-0.079973	-0.057871	-0.763672	0.288818	-0.442871	0.048795	-0.002924	0.081023	0.227372	-0.247405	-0.033004	-0.941278	-3.293360	-28.735160	-151.996059
06477		3.914426	-0.534803	8.927201	0.757989	0.429943	-0.089300	0.029418	-0.077001	-0.072009	-0.768066	0.286377	-0.449463	0.039108	-0.005375	0.089286	0.227057	-0.247756	-0.033302	-0.941251	-3.258547	-28.784943	-152.038979
06478		3.842815	-1.074882	8.905356	0.571102	0.949853	-0.117349	0.049141	-0.093170	-0.096168	-0.772461	0.281982	-0.436035	0.038381	-0.010789	0.089069	0.226665	-0.248260	-0.033789	-0.941195	-3.203317	-28.857966	-152.094596
06479		4.765729	-0.440904	8.636859	0.022462	-0.029594	0.061546	0.072040	-0.116307	-0.116976	-0.776855	0.281738	-0.436035	0.047604	-0.004468	0.086395	0.226184	-0.248740	-0.034388	-0.941162	-3.130405	-28.931588	-152.165641
06480		5.278445	0.080392	8.483827	-0.202507	-0.715552	0.151785	0.047141	-0.162493	-0.120198	-0.785645	0.272705	-0.431152	0.052716	0.000752	0.084881	0.225636	-0.249570	-0.034975	-0.941053	-3.068526	-29.045238	-152.238393
06481		4.844609	-0.028904	8.777259	0.229954	-0.371438	0.203323	0.052002	-0.192562	-0.130853	-0.790039	0.270508	-0.422363	0.048361	-0.000344	0.087819	0.225052	-0.250428	-0.035583	-0.940942	-3.003573	-29.162769	-152.316212
06482		4.744534	-0.272963	8.944800	0.294624	-0.062145	0.311730	0.024067	-0.250781	-0.114708	-0.810059	0.267822	-0.417725	0.047332	-0.002768	0.089507	0.224442	-0.251704	-0.036158	-0.940725	-2.955731	-29.327378	-152.388469
06483		4.723342	0.013415	9.158591	0.558651	-0.253935	0.473871	-0.002957	-0.304993	-0.094527	-0.812256	0.265381	-0.404297	0.047094	0.000113	0.091658	0.223938	-0.253158	-0.036588	-0.940438	-2.935260	-29.508065	-152.439078
06484		4.995617	0.378485	9.007411	0.472864	-0.700679	0.459518	-0.047186	-0.374277	-0.065499	-0.821045	0.260986	-0.401855	0.049789	0.003790	0.090166	0.223524	-0.255091	-0.036898	-0.940002	-2.948974	-29.740127	-152.464809
06485		4.870253	0.475642	9.200094	0.742559	-0.689253	0.558459	-0.129641	-0.446582	-0.015200	-0.829834	0.256104	-0.381836	0.048497	0.004812	0.092106	0.223204	-0.257365	-0.036789	-0.939462	-3.029205	-29.999492	-152.458266
06486		5.527232	0.834661	8.674855	0.204538	-1.363281	0.414698	-0.231836	-0.522107	0.033544	-0.834229	0.253906	-0.368408	0.055044	0.008457	0.086883	0.222989	-0.260212	-0.036271	-0.938749	-3.184144	-30.313006	-152.412655
06487		4.667660	0.582726	9.390228	1.155376	-0.661464	0.605093	-0.317170	-0.613650	0.098423	-0.838379	0.249268	-0.346191	0.046385	0.005999	0.094035	0.222926	-0.263496	-0.035320	-0.937884	-3.414240	-30.664154	-152.322628
06488		3.782302	-0.541254	9.655704	1.547520	0.746960	0.428308	-0.416991	-0.720072	0.108210	-0.845215	0.249023	-0.328369	0.037478	-0.005191	0.096703	0.222776	-0.267484	-0.034058	-0.936837	-3.706789	-31.087825	-152.216038
06489		4.232923	-0.250183	9.315319	1.260837	0.240667	0.341471	-0.405731	-0.884829	0.100327	-0.842773	0.246826	-0.308350	0.041918	-0.002291	0.093344	0.222550	-0.272128	-0.032991	-0.935591	-3.998277	-31.593157	-152.107742
06490		4.595617	-0.232427	9.685359	1.293550	0.152678	0.830713	-0.485085	-1.080514	0.083978	-0.847412	0.249023	-0.292725	0.045433	-0.002070	0.097105	0.222121	-0.277857	-0.031841	-0.934047	-4.335472	-32.222463	-151.993664
06491		5.105393	0.094482	9.755117	1.234036	-0.323869	1.123780	-0.592342	-1.370277	0.090180	-0.856201	0.244141	-0.261475	0.050383	0.001257	0.097894	0.221494	-0.284954	-0.030453	-0.932102	-4.751024	-33.004371	-151.857356
06492		4.653760	-0.383895	9.810843	1.573552	0.307496	0.933639	-0.744960	-1.698466	0.070734	-0.855957	0.244141	-0.237061	0.045703	-0.003456	0.098512	0.220512	-0.293816	-0.028793	-0.929633	-5.262117	-33.985310	-151.702614
06493		3.554455	-1.322077	10.554125	2.592859	1.737052	0.958855	-0.820992	-2.072014	0.068132	-0.862793	0.243896	-0.208252	0.034453	-0.012775	0.105955	0.219310	-0.304377	-0.027142	-0.926564	-5.841979	-35.166476	-151.514499
06494		3.736031	-1.686518	11.225031	2.950675	2.152390	1.565194	-0.791794	-2.499884	0.090103	-0.862549	0.241699	-0.183838	0.035960	-0.016403	0.112771	0.218180	-0.316929	-0.026107	-0.922644	-6.445207	-36.599512	-151.257568
06495		3.728849	-2.445095	11.394659	3.057745	2.931861	1.666161	-0.748453	-2.967389	0.041737	-0.865234	0.252686	-0.141846	0.035597	-0.024015	0.114574	0.216772	-0.331436	-0.025805	-0.917875	-7.048878	-38.288429	-150.974506
06496		3.882337	-2.562408	11.218668	3.167926	3.045729	1.508503	-0.596436	-3.523046	-0.087632	-0.869385	0.243652	-0.099365	0.036827	-0.025304	0.112923	0.214903	-0.348295	-0.027055	-0.912017	-7.561982	-40.310536	-150.702913
06497		3.900898	-1.443068	11.516710	4.222404	2.222935	1.463017	-0.600526	-4.193842	-0.151899	-0.869385	0.250000	-0.059570	0.036572	-0.014112	0.115994	0.212547	-0.367996	-0.029063	-0.904742	-8.123872	-42.706122	-150.378459
06498		3.341377	-1.755737	12.356744	5.493101	3.062075	1.472350	-0.612471	-4.908283	-0.229058	-0.877930	0.238770	-0.006104	0.030348	-0.017213	0.124390	0.209612	-0.390802	-0.031944	-0.895721	-8.751617	-45.519695	-149.980408
06499		2.412095	-0.698860	13.201444	7.608362	2.820823	0.896733	-0.617987	-5.653088	-0.369182	-0.875488	0.238525	0.053955	0.020365	-0.006619	0.132646	0.205760	-0.416578	-0.035792	-0.884785	-9.436637	-48.754669	-149.532894
06500		2.490944	-1.540871	13.149812	7.798052	3.789739	0.495506	-0.699829	-6.548994	-0.562957	-0.870605	0.229492	0.120605	0.020544	-0.015009	0.132272	0.200529	-0.446022	-0.040605	-0.871323	-10.234620	-52.517852	-149.019594
06501		4.627774	-1.037465	14.511406	8.660974	3.289429	2.317010	-0.929362	-7.487703	-0.736445	-0.856689	0.222900	0.185059	0.040766	-0.009852	0.146756	0.193580	-0.479127	-0.045658	-0.854915	-11.319257	-56.814489	-148.346852
06502		4.481461	-2.591332	12.986308	7.771916	4.704380	0.807631	-0.786077	-8.415624	-0.986493	-0.842773	0.214111	0.267334	0.039171	-0.025601	0.131692	0.185381	-0.515258	-0.052778	-0.835079	-12.517340	-61.658137	-147.477948
06503		11.845508	-3.336790	14.836325	7.255608	4.523049	7.455918	-0.924920	-9.071514	-0.987341	-0.822266	0.209961	0.344971	0.111399	-0.033227	0.153678	0.176282	-0.553206	-0.059792	-0.811981	-14.424561	-66.848073	-145.953842
06504		9.575640	-1.498374	14.460341	9.625374	3.761093	4.188793	-0.962703	-8.901477	-1.125562	-0.790039	0.194824	0.422852	0.089113	-0.014788	0.148741	0.166202	-0.589332	-0.066786	-0.787785	-17.006043	-71.940090	-143.788645
06505		16.035909	-1.862165	14.795982	9.526114	3.573791	9.571236	-1.256448	-8.312744	-1.168197	-0.762451	0.184082	0.476318	0.153916	-0.018576	0.154565	0.154965	-0.622215	-0.072107	-0.763960	-21.005744	-76.666244	-140.387984
06506		17.785699	-7.865537	13.608126	7.626683	9.283345	10.650787	-0.913872	-7.524938	-1.615221	-0.730225	0.166748	0.529785	0.171923	-0.079417	0.142987	0.143111	-0.650643	-0.079417	-0.741536	-25.939922	-80.997520	-135.897216
06507		24.222239	-8.930665	15.566783	9.829445	10.997610	16.472980	-0.649351	-5.932483	-1.903682	-0.714111	0.155762	0.561035	0.236597	-0.091055	0.163036	0.131504	-0.672051	-0.087389	-0.723476	-31.709987	-84.507830	-130.461176
06508		11.085350	-4.055567	9.942883	7.761161	6.252405	1.968962	-0.413796	-5.006983	-2.026489	-0.688965	0.145020	0.598877	0.107900	-0.041449	0.102240	0.120535	-0.689319	-0.095941	-0.707889	-44.137473	-87.502715	-118.248351
06509		13.701879	-3.056523	24.054794	22.012259	9.757483	4.181517	-0.964281	-4.319500	-1.671507	-0.676758	0.120850	0.612549	0.131524	-0.030510	0.243575	0.109177	-0.704217	-0.100847	-0.694255	-131.557992	-88.947776	-31.360213
06510		24.815502	-3.084182	26.958423	25.371421	10.718120	14.548633	-1.268862	-1.017513	-1.764514	-0.683105	0.107422	0.608398	0.246504	-0.031305	0.271039	0.098050	-0.707499	-0.103168	-0.692234	169.645384	-88.695475	26.715597
06511		5.301430	-9.478594	23.455015	19.962151	15.692795	-4.982478	-1.016839	1.611679	-2.012621	-0.709473	0.091309	0.589111	0.053955	-0.094133	0.234598	0.088295	-0.701337	-0.105949	-0.699361	104.281441	-88.560506	91.509039
06512		-9.986968	-8.478770	15.685143	12.958808	12.061891	-20.021404	-0.559750	2.085402	-2.190313	-0.720215	0.075684	0.571777	-0.099143	-0.083258	0.158122	0.079756	-0.693017	-0.110676	-0.707896	72.042813	-87.219317	123.439253
06513		-9.571666	-6.872026	12.822121	10.879461	9.554790	-19.486618	-0.206124	1.298458	-2.311165	-0.737549	0.059814	0.558838	-0.095666	-0.067482	0.128912	0.071559	-0.687187	-0.117408	-0.713350	67.973681	-85.721646	127.394747
06514		-4.601060	-4.739398	12.293901	10.850270	7.504703	-14.364738	-0.275881	0.929805	-1.932255	-0.750488	0.043945	0.539307	-0.045892	-0.046780	0.123217	0.064251	-0.682748	-0.122636	-0.717417	66.901022	-84.495905	128.304247
06515		1.026129	-4.793393	12.986813	11.225335	8.085856	-8.674037	-0.600153	1.188318	-1.202422	-0.763672	0.034912	0.523926	0.010746	-0.047608	0.129948	0.058601	-0.677938	-0.124181	-0.722181	63.432593	-83.586604	131.442966
06516		2.615744	-6.539678	12.492141	10.204154	9.712192	-7.128058	-0.745254	1.893586	-0.344394	-0.785889	0.027832	0.501953	0.027228	-0.064978	0.124910	0.055995	-0.671007	-0.121991	-0.729199	55.840193	-82.865865	138.648300
06517		2.664334	-7.332030	11.265430	8.801697	10.109866	-6.970443	-0.577467	2.658906	0.417252	-0.802002	0.034424	0.468750	0.028292	-0.072937	0.112496	0.057181	-0.661690	-0.117710	-0.738269	45.444085	-82.084397	148.797554
06518		1.663582	-6.359375	10.238792	8.105009	8.798954	-7.595623	-0.295437	3.304727	1.029801	-0.827148	0.045166	0.426270	0.018652	-0.063350	0.102185	0.061933	-0.650006	-0.112124	-0.749056	33.964105	-80.993248	160.219361
06519		1.593523	-3.962602	9.818937	8.190150	6.339827	-7.098822	-0.179666	3.806091	1.507006	-0.843506	0.062744	0.392822	0.018098	-0.039407	0.097894	0.069101	-0.636541	-0.105331	-0.760885	23.359839	-79.490881	170.870307
06520		1.946504	-1.723227	9.614986	8.342620	4.066487	-6.199702	-0.328291	4.246693	1.878118	-0.855469	0.075928	0.339111	0.021660	-0.016878	0.095733	0.077040	-0.621268	-0.096345	-0.773827	14.296557	-77.515169	179.872454
06521		1.907147	-0.800798	9.203984	8.030812	2.972732	-5.857543	-0.583798	4.613500	2.124230	-0.872070	0.097900	0.294434	0.021269	-0.007522	0.091589	0.085630	-0.604491	-0.085660	-0.787350	7.025313	-75.141635	-172.993407
06522		2.207831	-0.738962	8.881140	7.490880	2.682903	-5.233938	-0.748122	4.908256	2.208865	-0.884277	0.120117	0.236328	0.024326	-0.006798	0.088259	0.093860	-0.586133	-0.073693	-0.801379	1.532912	-72.413581	-167.761744
06523		3.415910	-0.599574	9.121897	7.155272	2.336659	-3.603408	-0.777189	5.180084	2.179021	-0.896240	0.137695	0.189453	0.036566	-0.005254	0.090314	0.102173	-0.566338	-0.061713	-0.815483	-2.460257	-69.437503	-164.012140
06524		5.098768	-0.051578	9.571665	6.784704	1.481149	-1.484515	-0.715799	5.514294	2.074451	-0.892822	0.162354	0.133301	0.053599	0.000370	0.094262	0.110101	-0.544501	-0.049905	-0.830004	-5.266121	-66.186499	-161.454075
06525		5.959299	0.784217	10.114551	6.683520	0.358921	-0.138371	-0.685066	5.905639	1.930532	-0.891357	0.182617	0.077393	0.062462	0.008778	0.099300	0.117658	-0.520617	-0.038512	-0.844767	-7.196155	-62.705719	-159.753784
06526		6.173715	1.567813	10.629767	6.678536	-0.689465	0.600628	-0.740353	6.219789	1.765546	-0.887695	0.200684	0.012451	0.064857	0.016630	0.104252	0.124275	-0.494710	-0.026964	-0.859704	-8.556814	-59.015878	-158.700219
06527		6.468216	2.113097	11.260578	6.580462	-1.548678	1.471989	-0.890134	6.425554	1.593043	-0.879639	0.223145	-0.039063	0.068078	0.022159	0.110358	0.129711	-0.467616	-0.015172	-0.874231	-9.569392	-55.239715	-158.105599
06528		6.992577	1.980557	12.281284	6.393842	-1.818624	2.812188	-1.093831	6.486836	1.421815	-0.873535	0.234619	-0.101563	0.073710	0.020983	0.120350	0.133840	-0.439654	-0.002720	-0.888135	-10.424988	-51.413956	-157.830879
06529		8.747639	0.380010	13.179583	4.885501	-1.075703	5.195620	-1.243496	6.441564	1.235913	-0.858398	0.248291	-0.152832	0.091630	0.005165	0.128860	0.136603	-0.411689	0.009849	-0.900975	-11.147883	-47.659135	-157.821065
06530		10.995111	-2.531687	13.134906	1.824736	0.612284	7.392504	-1.119480	6.333433	1.072126	-0.843018	0.255371	-0.206299	0.114170	-0.023990	0.127915	0.138829	-0.383477	0.021550	-0.912802	-11.686406	-43.955063	-157.974233
06531		13.944355	-3.577374	14.017936	-0.808842	0.352707	10.258236	-0.685182	6.015372	1.028811	-0.823486	0.271484	-0.262451	0.143757	-0.034571	0.136018	0.141495	-0.356242	0.030833	-0.923104	-11.965797	-40.464048	-158.146826
06532		19.891667	-0.647242	15.870257	-4.302202	-4.642816	14.839008	-0.517389	5.796999	1.298742	-0.787842	0.279053	-0.307129	0.203439	-0.004760	0.152863	0.145699	-0.329316	0.039758	-0.932063	-12.301448	-37.034910	-158.096763
06533		25.238020	1.429055	16.095641	-9.006222	-8.964610	17.322231	-0.802883	5.908709	1.870104	-0.759521	0.299805	-0.356445	0.256834	0.017304	0.153346	0.151846	-0.301868	0.050882	-0.939803	-12.980928	-33.500202	-157.721781
06534		26.652276	-1.504850	13.237296	-13.934820	-7.535110	15.417328	-0.931137	6.108817	2.359680	-0.714844	0.302979	-0.398926	0.270548	-0.011281	0.124208	0.159867	-0.272944	0.063533	-0.946524	-13.831843	-29.761007	-157.134586
06535		25.582635	-2.845466	9.207242	-16.835219	-6.669820	10.660705	-0.411985	6.015943	2.656777	-0.672607	0.317139	-0.437256	0.258788	-0.024851	0.084371	0.169881	-0.243848	0.073900	-0.951955	-14.408157	-26.049986	-156.413886
06536		25.066042	-2.771619	6.859326	-18.506071	-7.196413	7.174069	0.397041	5.585592	2.936427	-0.630127	0.320313	-0.472900	0.252816	-0.024141	0.061502	0.182171	-0.215584	0.080384	-0.955969	-14.560028	-22.513126	-155.509023
06537		25.973032	-4.736768	5.405894	-21.283932	-6.363748	5.436475	1.344169	5.049583	3.158325	-0.594238	0.323242	-0.499756	0.261687	-0.043578	0.047166	0.196604	-0.188890	0.081944	-0.958620	-14.187982	-19.264297	-154.399898
06538		29.749660	-4.630010	2.780815	-26.066087	-8.584523	2.868562	2.371023	4.583538	3.421479	-0.555908	0.315186	-0.521973	0.298759	-0.041467	0.020459	0.213248	-0.163000	0.078349	-0.960113	-13.244291	-16.235165	-153.057581
06539		28.533691	-3.606943	-1.899215	-26.489428	-9.465360	-3.546654	3.134769	4.232516	3.572648	-0.519775	0.309326	-0.541992	0.285422	-0.030605	-0.025541	0.231190	-0.137894	0.070704	-0.960488	-11.840577	-13.426567	-151.533962
06540		21.447720	0.539553	-4.842416	-19.382367	-10.387978	-10.019746	3.249017	3.587799	3.400681	-0.501465	0.300781	-0.562012	0.213422	0.009858	-0.052123	0.248373	-0.115597	0.061619	-0.959766	-10.312018	-11.027720	-149.983915
06541		26.863782	6.820341	-6.498118	-21.052609	-18.964657	-12.540374	1.985458	2.752093	2.513693	-0.479248	0.308105	-0.580078	0.266825	0.072230	-0.067958	0.260685	-0.099160	0.056965	-0.958627	-9.382614	-9.231006	-148.814995
06542		28.359228	11.157119	-8.546175	-20.206623	-23.622649	-15.759921	-0.472459	2.118566	1.479098	-0.463379	0.306152	-0.577881	0.281830	0.113453	-0.088720	0.266910	-0.089185	0.062751	-0.957532	-9.752059	-7.891425	-148.174350
06543		28.087065	6.259392	-12.034224	-22.946785	-19.013906	-19.020027	-2.299698	1.360094	0.774147	-0.457764	0.330566	-0.573975	0.279799	0.062274	-0.122965	0.269145	-0.085525	0.075930	-0.956285	-11.111301	-7.047956	-147.875245
06544		28.227134	-2.546886	-14.833623	-28.074331	-11.149518	-20.339222	-2.087335	0.563548	0.236629	-0.451172	0.335205	-0.569580	0.281883	-0.026687	-0.148857	0.269169	-0.085588	0.086765	-0.955350	-12.316818	-6.708866	-147.805012
06545		26.815150	-4.969785	-14.798637	-28.163771	-8.205358	-19.923208	-0.369770	-0.299929	-0.257242	-0.455566	0.335205	-0.571777	0.268308	-0.050316	-0.147491	0.267919	-0.087664	0.088032	-0.955398	-12.518791	-6.911556	-147.911185
06546		26.423432	-1.481072	-11.580745	-25.479737	-11.309821	-17.386866	1.039671	-1.101599	-0.674596	-0.464111	0.326172	-0.571533	0.264817	-0.015106	-0.114428	0.265650	-0.091925	0.081284	-0.956228	-11.894613	-7.620858	-148.153271
06547		13.262554	2.504708	-6.033752	-11.333052	-8.409752	-14.216947	0.996145	-2.471715	-1.667142	-0.481934	0.319092	-0.558105	0.133561	0.024231	-0.058569	0.259116	-0.103120	0.072477	-0.957587	-11.230327	-9.202968	-148.810768
06548		-7.938537	-18.784042	11.577889	0.717454	19.322823	3.451790	0.846748	-3.266450	-2.507028	-0.503662	0.298584	-0.548584	-0.083603	-0.187294	0.113643	0.248706	-0.118681	0.062863	-0.959223	-10.556252	-11.327394	-149.879207
06549		0.012099	-13.581379	22.367641	-0.243310	10.907517	13.969925	2.509526	-2.957831	-2.505553	-0.525391	0.278076	-0.539063	-0.004894	-0.138565	0.221901	0.239048	-0.130536	0.045663	-0.961109	-8.875346	-13.243324	-151.033123
06550		10.779706	-3.238320	10.391876	-7.736896	-2.271619	3.211955	2.513390	-2.285007	-0.885472	-0.542725	0.264404	-0.534424	0.106455	-0.034169	0.104718	0.236935	-0.138818	0.030279	-0.961080	-7.361788	-14.624383	-151.356164
06551		11.234350	-0.786691	5.866193	-8.136678	-4.402923	-1.115601	1.630404	-2.954209	0.363905	-0.554199	0.268555	-0.523193	0.111476	-0.008150	0.060247	0.240233	-0.151041	0.019210	-0.958700	-6.544483	-16.282625	-150.927558
06552		14.300809	6.002404	15.144489	-4.483133	-11.244170	8.168493	1.322828	-3.102615	0.422794	-0.567383	0.263916	-0.514160	0.140506	0.059310	0.154031	0.243540	-0.164399	0.009466	-0.955809	-5.926118	-18.038592	-150.468955
06553		12.120527	12.664779	16.319030	1.226215	-15.652508	8.272677	0.949762	-2.443908	-0.034866	-0.578857	0.270264	-0.507568	0.119216	0.125845	0.165254	0.244252	-0.174944	0.001938	-0.953799	-5.425252	-19.437286	-150.342471
06554		11.795778	11.783519	13.395147	0.437413	-14.680185	5.734334	0.241824	-2.200810	-0.369104	-0.592285	0.272217	-0.492188	0.116690	0.117456	0.135382	0.242738	-0.185282	-0.002247	-0.952231	-5.255730	-20.729355	-150.436159
06555		13.312503	3.001313	11.353215	-5.302397	-7.673959	5.290676	-0.355615	-1.964395	-0.024854	-0.608398	0.280762	-0.485596	0.132005	0.030200	0.114779	0.242258	-0.195091	-0.002944	-0.950390	-5.498221	-21.854589	-150.336931
06556		11.595229	-3.650410	10.425668	-7.071751	-1.027191	4.519064	-0.211015	-1.612206	0.121480	-0.615479	0.289551	-0.479004	0.115129	-0.036323	0.105225	0.242632	-0.203158	-0.003820	-0.948600	-5.685610	-22.785655	-150.158477
06557		7.871120	0.706862	10.250249	-1.960003	-3.121519	2.594325	-0.051908	-1.284392	0.149605	-0.629150	0.295898	-0.476807	0.078045	0.007154	0.103003	0.243262	-0.209345	-0.004963	-0.947087	-5.786470	-23.512637	-149.984442
06558		5.782108	1.932703	10.297714	0.424194	-3.186181	1.714585	-0.110818	-1.065570	0.054484	-0.638184	0.297852	-0.472412	0.057266	0.019400	0.103272	0.243408	-0.214687	-0.005724	-0.945848	-5.892394	-24.136303	-149.876025
06559		6.859064	-0.041788	9.432688	-1.577883	-2.005857	1.567558	-0.241635	-0.877073	0.053419	-0.652344	0.315430	-0.475098	0.068176	-0.000285	0.094627	0.243375	-0.219162	-0.005574	-0.944831	-6.071625	-24.636228	-149.783784
06560		7.569415	-3.939231	8.898953	-4.063220	1.054212	1.779691	-0.214595	-0.657048	0.200919	-0.654541	0.313232	-0.472656	0.075441	-0.039221	0.089280	0.244104	-0.222695	-0.005191	-0.943818	-6.267152	-25.017920	-149.606413
06561		7.268911	-2.822521	8.758171	-3.309570	0.192591	1.435369	0.012383	-0.379653	0.223618	-0.664063	0.328613	-0.472900	0.072554	-0.028149	0.087718	0.245164	-0.224511	-0.005448	-0.943112	-6.334230	-25.223389	-149.438048
06562		5.126342	-0.317724	8.750977	-0.442259	-1.022659	0.272869	-0.028326	-0.253415	0.166634	-0.673096	0.326172	-0.472900	0.051155	-0.003122	0.087575	0.245945	-0.225914	-0.005485	-0.942573	-6.404535	-25.377370	-149.308422
06563		4.229902	-0.890105	9.590532	0.371646	-0.005264	0.700373	-0.097777	-0.236282	0.176513	-0.677979	0.339355	-0.464355	0.042193	-0.008817	0.095960	0.246661	-0.227186	-0.005099	-0.942082	-6.518891	-25.503824	-149.178908
06564		4.149978	-1.431592	9.781982	0.292870	0.527347	0.892219	-0.073306	-0.214938	0.251442	-0.675781	0.339355	-0.466553	0.041413	-0.014228	0.097870	0.247790	-0.228463	-0.004782	-0.941479	-6.637735	-25.629888	-148.997741
06565		4.266472	-1.179189	9.587830	0.265262	0.223488	0.741903	-0.061174	-0.230783	0.215403	-0.682861	0.345947	-0.468994	0.042567	-0.011717	0.095931	0.248729	-0.229664	-0.004517	-0.940940	-6.742455	-25.750149	-148.843248
06566		5.519780	-0.919023	8.876126	-0.853596	-0.676790	0.623378	-0.040396	-0.244602	0.205344	-0.683105	0.352539	-0.468994	0.055099	-0.009116	0.088831	0.249675	-0.231036	-0.004442	-0.940353	-6.831959	-25.895430	-148.688215
06567		6.543278	-0.585261	8.493872	-1.618139	-1.500694	0.695992	-0.083805	-0.217467	0.230013	-0.692139	0.354736	-0.462402	0.065347	-0.005742	0.085012	0.250656	-0.232202	-0.004038	-0.939807	-6.954234	-26.006619	-148.524683
06568		5.570023	-1.038779	8.914516	-0.872000	-0.605255	0.696643	-0.123845	-0.181814	0.241058	-0.687988	0.363770	-0.467041	0.055632	-0.010265	0.089202	0.251673	-0.233385	-0.003452	-0.939244	-7.100318	-26.113373	-148.350939
06569		5.593221	-0.729321	9.022001	-0.669306	-0.887801	0.769198	-0.124530	-0.146834	0.251593	-0.696777	0.363525	-0.453613	0.055875	-0.007167	0.090266	0.252708	-0.234270	-0.002742	-0.938749	-7.250361	-26.182140	-148.178489
06570		5.282791	-0.528858	8.989656	-0.323166	-0.938224	0.580421	-0.180039	-0.115617	0.273952	-0.697021	0.365723	-0.455811	0.052783	-0.005135	0.089932	0.253984	-0.235191	-0.001747	-0.938176	-7.443257	-26.243549	-147.966443
06571		5.120371	-0.783229	8.745659	-0.404012	-0.694102	0.320086	-0.224006	-0.081136	0.303642	-0.699463	0.374512	-0.456055	0.051180	-0.007657	0.087486	0.255145	-0.235892	-0.000426	-0.937686	-7.663026	-26.270057	-147.765882
06572		5.952566	-1.071572	8.380745	-1.308833	-0.914629	0.398507	-0.224176	-0.059282	0.302660	-0.694824	0.370117	-0.451660	0.059517	-0.010532	0.083837	0.256483	-0.236607	0.000876	-0.937141	-7.886582	-26.296613	-147.542485
06573		5.205034	-1.513309	8.172716	-1.028242	-0.226382	-0.062449	-0.228016	-0.020999	0.280909	-0.697266	0.376709	-0.449463	0.052063	-0.014967	0.081750	0.257530	-0.237030	0.002266	-0.936744	-8.100147	-26.289429	-147.361370
06574		4.031393	-1.914100	8.586179	-0.134245	0.710006	-0.163015	-0.214478	0.000071	0.249123	-0.699707	0.376709	-0.449463	0.040338	-0.018999	0.085882	0.258609	-0.237457	0.003533	-0.936335	-8.300220	-26.285946	-147.179148
06575		3.878471	-2.182808	8.549982	-0.153377	0.990045	-0.225945	-0.157146	-0.013424	0.187475	-0.699707	0.376709	-0.451660	0.038799	-0.021725	0.085520	0.259302	-0.237754	0.004490	-0.936064	-8.446650	-26.281187	-147.057879
06576		4.348883	-1.737082	8.347617	-0.371765	0.336786	-0.254377	-0.093059	-0.007139	0.130958	-0.697266	0.376709	-0.447266	0.043497	-0.017303	0.083486	0.259935	-0.238062	0.005036	-0.935807	-8.543174	-26.291755	-146.954350
06577		4.839967	-1.041937	8.384854	-0.381485	-0.511484	-0.096230	-0.072026	0.002048	0.102429	-0.697510	0.381104	-0.449707	0.048406	-0.010364	0.083852	0.260330	-0.238178	0.005514	-0.935665	-8.616382	-26.285110	-146.888311
06578		4.977267	-1.144927	8.079958	-0.662689	-0.534741	-0.291939	-0.101869	-0.001253	0.103624	-0.695068	0.376709	-0.449463	0.049778	-0.011382	0.080806	0.260820	-0.238470	0.006076	-0.935451	-8.709949	-26.294477	-146.803058
06579		4.746052	-1.156422	8.279740	-0.396543	-0.400877	-0.215893	-0.117956	-0.028545	0.109507	-0.700195	0.390137	-0.445313	0.047455	-0.011489	0.082811	0.261194	-0.238788	0.006737	-0.935261	-8.812776	-26.304350	-146.729587
06580		3.633823	-1.182636	8.658624	0.606795	0.201085	-0.369890	-0.118137	-0.029760	0.076838	-0.702148	0.383301	-0.442871	0.036330	-0.011761	0.086599	0.261547	-0.239235	0.007307	-0.935043	-8.909657	-26.331820	-146.657530
06581		3.275542	-1.651080	8.235608	0.466340	0.727964	-0.838666	-0.084628	-0.067048	0.006797	-0.699707	0.381104	-0.447266	0.032728	-0.016475	0.082374	0.261481	-0.239693	0.007639	-0.934942	-8.966378	-26.372426	-146.645041
06582		3.451342	-2.049452	7.806301	-0.039434	0.941018	-1.085531	-0.012195	-0.160637	-0.057186	-0.706543	0.378906	-0.445068	0.034445	-0.020500	0.078092	0.261305	-0.240620	0.007378	-0.934755	-8.969479	-26.486448	-146.649007
06583		3.661553	-2.099617	7.660566	-0.273108	0.879034	-1.114855	0.074074	-0.242345	-0.143391	-0.713135	0.378662	-0.445068	0.036508	-0.021051	0.076642	0.260734	-0.241695	0.006559	-0.934643	-8.900620	-26.639639	-146.714097
06584		3.454293	-2.352231	7.551508	-0.272758	1.212730	-1.271891	0.131181	-0.303978	-0.212187	-0.717285	0.371826	-0.436035	0.034403	-0.023608	0.075552	0.259975	-0.243111	0.005252	-0.934496	-8.782330	-26.849063	-146.806919
06585		3.698054	-2.629929	7.797627	-0.457935	1.399308	-0.911724	0.209208	-0.395106	-0.316704	-0.721924	0.374023	-0.436035	0.036785	-0.026439	0.078021	0.258761	-0.244727	0.003392	-0.934420	-8.591945	-27.103520	-146.968300
06586		3.559387	-2.221956	8.083194	-0.006173	1.200108	-0.784745	0.306843	-0.408900	-0.471863	-0.732910	0.364990	-0.433594	0.035376	-0.022427	0.080870	0.256975	-0.246407	0.000811	-0.934477	-8.299218	-27.394031	-147.222198
06587		3.631939	-1.580015	7.856000	0.158533	0.641728	-1.039613	0.371493	-0.445453	-0.586656	-0.734863	0.355957	-0.437744	0.036097	-0.016052	0.078611	0.254692	-0.248046	-0.002204	-0.934666	-7.934982	-27.697443	-147.555359
06588		4.161761	-2.075287	7.838767	-0.464483	0.893730	-0.754085	0.432178	-0.495039	-0.679326	-0.747803	0.344482	-0.424072	0.041352	-0.021063	0.078445	0.252054	-0.249960	-0.005739	-0.934856	-7.505439	-28.050272	-147.944322
06589		4.797302	-2.179107	8.108572	-0.850036	0.812460	-0.214349	0.573340	-0.516229	-0.682718	-0.758789	0.337646	-0.430664	0.047688	-0.022187	0.081146	0.249562	-0.251661	-0.009906	-0.935033	-6.992072	-28.396345	-148.340914
06590		5.452039	-0.244915	9.295704	0.133537	-0.908177	0.927484	0.653884	-0.461876	-0.593901	-0.769775	0.328613	-0.423584	0.054297	-0.002915	0.093074	0.247540	-0.253138	-0.014331	-0.935115	-6.450246	-28.719441	-148.693009
06591		5.470841	0.514041	9.571230	0.603878	-1.443120	1.112276	0.556979	-0.360578	-0.515711	-0.780518	0.319580	-0.412354	0.054548	0.004733	0.095824	0.245806	-0.254129	-0.018018	-0.935240	-5.985049	-28.960149	-149.001405
06592		6.067130	0.746915	9.637396	0.299771	-1.821274	1.449638	0.464426	-0.342815	-0.334685	-0.786865	0.310547	-0.407715	0.060518	0.007144	0.096495	0.244709	-0.255299	-0.021086	-0.935145	-5.621466	-29.196214	-149.206089
06593		5.617065	0.882799	9.343521	0.572546	-1.723924	0.973052	0.323825	-0.332908	-0.207817	-0.800537	0.310059	-0.403076	0.056024	0.008618	0.093543	0.244115	-0.256470	-0.023256	-0.934928	-5.383032	-29.400834	-149.319672
06594		5.589674	0.437384	9.065540	0.275718	-1.316313	0.761378	0.221371	-0.391134	-0.100354	-0.806885	0.301025	-0.391846	0.055721	0.004245	0.090769	0.243735	-0.258189	-0.024952	-0.934510	-5.230445	-29.651478	-149.378623
06595		5.070750	-0.160485	9.202894	0.478105	-0.498027	0.673241	0.146016	-0.438147	-0.052826	-0.808838	0.294434	-0.385010	0.050505	-0.001685	0.092139	0.243622	-0.260085	-0.026220	-0.933979	-5.145877	-29.907572	-149.385861
06596		4.724106	-1.218465	8.814676	0.093344	0.553626	0.246385	0.123021	-0.453993	-0.049213	-0.812988	0.289795	-0.364990	0.047038	-0.012250	0.088246	0.243525	-0.262200	-0.027456	-0.933377	-5.074142	-30.187744	-149.384871
06597		4.459952	-1.085530	9.238118	0.587887	0.662326	0.464855	0.122181	-0.444283	-0.071661	-0.823975	0.282959	-0.355713	0.044390	-0.010928	0.092473	0.243289	-0.264148	-0.028645	-0.932854	-4.996646	-30.448270	-149.405035
06598		4.972132	-0.796018	9.060921	0.294937	0.186279	0.547533	0.114701	-0.438943	-0.075165	-0.823730	0.276123	-0.340088	0.049519	-0.008031	0.090713	0.243058	-0.266194	-0.029857	-0.932294	-4.920124	-30.720881	-149.423071
06599		5.077533	-0.103969	8.883039	0.492465	-0.469889	0.396965	0.056155	-0.468592	-0.069308	-0.830566	0.276123	-0.326904	0.050567	-0.001082	0.088949	0.242739	-0.268333	-0.030764	-0.931734	-4.881385	-30.995128	-149.441110
06600		4.521685	0.714471	10.051484	1.906873	-0.699566	1.043762	-0.096286	-0.618253	-0.038205	-0.834717	0.269287	-0.308838	0.044907	0.007185	0.100651	0.242366	-0.271471	-0.031160	-0.930909	-4.943362	-31.368104	-149.424684
06601		4.318418	-0.770626	9.719111	1.274167	0.656869	0.753676	-0.243496	-0.824664	-0.026259	-0.832520	0.269287	-0.297852	0.042782	-0.007593	0.097377	0.241782	-0.275632	-0.031045	-0.929841	-5.102504	-31.843455	-149.392356
06602		4.187047	-0.252758	10.450692	2.088330	0.422838	1.244923	-0.407812	-1.147130	-0.060121	-0.840820	0.257813	-0.272949	0.041269	-0.002327	0.104750	0.240788	-0.281588	-0.030663	-0.928326	-5.353782	-32.518892	-149.355814
06603		4.472628	-0.345345	10.443297	1.985294	0.411638	1.370903	-0.501471	-1.482749	-0.094297	-0.843018	0.257813	-0.253174	0.043949	-0.003212	0.104769	0.239409	-0.289085	-0.030235	-0.926390	-5.662556	-33.373047	-149.321319
06604		4.376604	-0.262088	10.576388	2.360358	0.443320	1.381558	-0.739871	-1.889743	-0.107392	-0.849609	0.253174	-0.224121	0.042763	-0.002252	0.106180	0.237570	-0.298832	-0.029268	-0.923798	-6.121524	-34.473631	-149.255012
06605		3.946473	-1.060384	10.744116	2.642281	1.404358	1.285697	-0.905719	-2.376134	-0.078345	-0.858643	0.252930	-0.192871	0.038180	-0.010131	0.107946	0.235487	-0.310880	-0.028005	-0.920389	-6.719847	-35.834854	-149.121856
06606		3.249895	-2.503616	11.400506	3.156684	3.164692	1.448317	-0.910107	-2.913205	-0.082518	-0.858643	0.259521	-0.155273	0.030823	-0.024529	0.114575	0.233280	-0.325442	-0.027416	-0.915924	-7.360268	-37.513778	-148.919374
06607		3.220236	-1.855972	12.080323	4.237944	2.824075	1.754332	-0.934926	-3.477195	-0.124158	-0.860840	0.254883	-0.119629	0.030084	-0.018012	0.121424	0.230674	-0.342419	-0.027371	-0.910379	-8.056264	-39.500893	-148.666315
06608		2.294959	-1.618433	12.267346	5.489345	3.145513	1.064992	-0.772698	-4.090642	-0.200437	-0.864990	0.248047	-0.075195	0.020418	-0.015730	0.123170	0.227845	-0.361950	-0.028948	-0.903460	-8.696913	-41.851833	-148.360256
06609		3.273236	-0.293948	12.298503	5.936772	1.750173	1.309927	-0.773229	-4.867536	-0.227812	-0.875977	0.247559	-0.026367	0.029724	-0.002497	0.123743	0.224640	-0.384706	-0.031387	-0.894736	-9.436147	-44.629720	-147.932056
06610		3.613005	-0.463696	13.164965	6.821694	2.183477	1.816141	-0.932673	-5.732010	-0.338622	-0.873535	0.247559	0.042480	0.032331	-0.004077	0.132633	0.220348	-0.411286	-0.034326	-0.883806	-10.363527	-47.912433	-147.386451
06611		2.056724	0.326755	13.528965	8.930092	2.344883	0.289532	-1.156234	-6.625840	-0.524817	-0.868896	0.240723	0.102539	0.016082	0.004006	0.135850	0.214385	-0.441541	-0.037559	-0.870442	-11.534914	-51.700012	-146.724418
06612		3.437461	-0.953245	13.910004	8.709706	3.381898	1.087344	-1.312543	-7.732790	-0.676052	-0.857178	0.234131	0.182617	0.028933	-0.008718	0.140348	0.206931	-0.476216	-0.041633	-0.853619	-13.065724	-56.123775	-145.759935
06613		7.713995	-3.894899	13.865789	6.540329	5.075991	4.266403	-1.380912	-8.719079	-0.831745	-0.850098	0.227295	0.255859	0.070833	-0.038279	0.142104	0.198071	-0.514235	-0.046680	-0.833157	-15.097983	-61.088714	-144.311165
06614		10.250356	-6.904260	15.253858	6.865766	8.054092	6.714465	-1.051841	-9.162911	-1.004880	-0.829346	0.220947	0.340332	0.095020	-0.068713	0.157369	0.188826	-0.552718	-0.053932	-0.809900	-17.575692	-66.299753	-142.221107
06615		8.586941	1.386132	15.470157	11.863459	1.432633	3.301489	-1.061482	-9.021721	-1.170980	-0.790283	0.203613	0.413818	0.078864	0.014220	0.158290	0.178515	-0.589374	-0.061311	-0.785501	-20.967288	-71.405196	-139.243085
06616		17.212890	0.162348	17.340650	12.445902	1.892270	11.119388	-1.932656	-8.676560	-1.067139	-0.762939	0.195068	0.473877	0.164407	0.002455	0.180631	0.165781	-0.624299	-0.064567	-0.760656	-27.142254	-76.206781	-133.971554
06617		20.397536	-8.486123	16.062271	9.603573	9.728801	13.826158	-1.846259	-7.620180	-1.555961	-0.732666	0.171143	0.529785	0.196981	-0.084878	0.169002	0.151500	-0.653829	-0.068649	-0.738135	-35.514285	-80.411014	-126.511130
06618		23.472455	-7.610526	17.237354	12.301179	9.591124	15.924237	-1.534895	-5.916659	-1.902993	-0.714111	0.155762	0.565430	0.228749	-0.076940	0.179789	0.137337	-0.675869	-0.073660	-0.720357	-46.466429	-83.702685	-116.346644
06619		10.782330	-3.333090	13.093468	11.262914	6.055277	1.815472	-1.487093	-5.051685	-1.928148	-0.686279	0.136230	0.599121	0.104145	-0.033359	0.133844	0.123441	-0.694132	-0.078241	-0.704856	-68.449563	-86.235168	-95.143640
06620		14.395470	-3.486285	26.865351	25.051644	9.918564	4.850891	-2.159829	-3.933131	-1.645579	-0.669922	0.118652	0.610352	0.138353	-0.033093	0.271775	0.108556	-0.708498	-0.078738	-0.692854	-110.070871	-87.271307	-54.703934
06621		23.100738	-9.275658	26.213454	23.655578	14.954974	13.068960	-1.987316	-0.634019	-1.987699	-0.687012	0.096191	0.606445	0.229253	-0.092425	0.263783	0.094356	-0.710941	-0.079212	-0.692377	-133.743127	-88.058729	-32.155327
06622		-0.999673	-11.842917	22.622568	19.121824	16.912099	-10.980100	-1.001966	1.834524	-2.284427	-0.708984	0.080322	0.580322	-0.009261	-0.117185	0.226902	0.083586	-0.704055	-0.082955	-0.700313	-163.659694	-89.692455	-2.814343
06623		-10.509889	-7.584148	16.099509	13.970936	11.003629	-20.343109	-0.459407	1.802567	-2.520413	-0.724121	0.060059	0.569824	-0.104583	-0.074150	0.162111	0.073867	-0.696828	-0.089436	-0.707796	61.464883	-88.456851	131.798102
06624		-9.179102	-5.118322	14.190473	12.901549	7.928075	-18.896168	-0.433338	1.212566	-2.498390	-0.739014	0.041992	0.548096	-0.091555	-0.049730	0.142569	0.064038	-0.691472	-0.096083	-0.713115	62.468063	-86.866351	130.539041
06625		-3.586892	-4.094057	13.570918	12.478985	6.820019	-13.212067	-0.790897	1.065889	-1.978422	-0.756836	0.032715	0.528320	-0.035544	-0.040050	0.136059	0.054744	-0.686949	-0.099735	-0.717744	61.885228	-85.581165	130.666291
06626		0.271118	-6.099270	13.488735	11.868284	8.842032	-9.389329	-1.100583	1.546258	-1.195381	-0.769775	0.017090	0.513184	0.003394	-0.060268	0.135196	0.047428	-0.681007	-0.099376	-0.723950	56.386134	-84.536674	135.544192
06627		1.029170	-8.252433	12.329960	10.319376	10.647780	-8.664403	-0.995232	2.245268	-0.390495	-0.792236	0.016846	0.475586	0.011518	-0.081932	0.123584	0.043724	-0.672893	-0.096542	-0.732108	47.433263	-83.567162	143.969025
06628		1.319950	-8.170877	11.177913	9.210347	10.287277	-8.144828	-0.618613	2.924757	0.332013	-0.810303	0.016357	0.451416	0.014970	-0.081339	0.111821	0.044253	-0.662336	-0.092402	-0.742169	36.652687	-82.440344	154.461788
06629		1.038542	-6.057493	10.602729	9.042198	8.052954	-7.925229	-0.318370	3.526209	0.962541	-0.831299	0.036133	0.411133	0.012544	-0.060349	0.105915	0.048379	-0.649680	-0.087217	-0.753637	26.004330	-80.998584	165.033805
06630		1.418797	-3.108219	10.295522	9.150448	5.071661	-6.948920	-0.344717	4.013873	1.539895	-0.852051	0.044678	0.364258	0.016489	-0.030784	0.102693	0.054424	-0.635108	-0.079667	-0.766374	16.350385	-79.152629	174.580218
06631		1.895856	-1.424466	10.084467	9.036666	3.305695	-5.977231	-0.617712	4.429691	2.018373	-0.868652	0.066895	0.321777	0.021326	-0.013727	0.100433	0.061933	-0.618942	-0.069641	-0.779888	8.115388	-76.915366	-177.368573
06632		2.628537	-1.283052	9.666709	8.319570	2.932261	-4.896979	-0.868558	4.790123	2.333861	-0.876221	0.089111	0.268066	0.028735	-0.012087	0.096052	0.069727	-0.601037	-0.057320	-0.794108	1.526415	-74.274236	-171.120042
06633		3.607789	-1.708951	9.392831	7.479241	3.058980	-3.580699	-0.901557	5.140626	2.450412	-0.888428	0.111084	0.223145	0.038679	-0.016205	0.093031	0.078180	-0.581422	-0.044541	-0.808611	-3.376983	-71.307711	-166.532315
06634		4.855087	-1.292313	9.554348	6.977846	2.325326	-1.913597	-0.748944	5.513438	2.396856	-0.891846	0.137939	0.160400	0.051308	-0.011965	0.094200	0.086729	-0.559582	-0.032205	-0.823595	-6.754230	-68.021471	-163.416695
06635		5.753002	0.205978	9.911099	6.807161	0.518278	-0.608197	-0.632406	5.891440	2.230889	-0.885986	0.162598	0.106689	0.060385	0.003033	0.097351	0.095042	-0.535706	-0.020769	-0.838782	-8.953622	-64.505710	-161.413929
06636		6.233741	1.771239	10.279153	6.684873	-1.360222	0.240828	-0.725160	6.208415	2.026204	-0.891602	0.184814	0.048340	0.065300	0.018732	0.100728	0.102157	-0.509801	-0.009203	-0.854156	-10.438787	-60.783270	-160.226139
06637		6.478818	2.170676	10.546312	6.269299	-2.116587	0.867860	-0.944098	6.407450	1.813176	-0.885498	0.200684	-0.007324	0.067916	0.022804	0.103214	0.107725	-0.482748	0.002748	-0.869105	-11.516674	-56.984594	-159.602662
06638		6.863428	1.392234	10.793208	5.461739	-1.794789	1.694968	-1.120568	6.482653	1.566106	-0.875000	0.216553	-0.065674	0.071967	0.015073	0.105553	0.111708	-0.454733	0.015010	-0.883467	-12.332704	-53.142460	-159.401283
06639		7.904145	0.278208	11.390227	4.411503	-1.295437	3.267072	-1.183607	6.420956	1.295172	-0.866699	0.232422	-0.123535	0.082619	0.003973	0.111267	0.114190	-0.426716	0.026780	-0.896748	-12.916082	-49.393466	-159.526476
06640		10.074164	-1.192074	12.150146	2.555521	-0.760471	5.786696	-1.167707	6.239078	1.054412	-0.853271	0.235107	-0.181396	0.104525	-0.010679	0.118345	0.115604	-0.398883	0.037933	-0.908894	-13.355316	-45.751072	-159.846878
06641		13.688174	-2.909234	13.614570	-0.039680	-0.389100	9.704403	-1.018329	5.969910	0.944852	-0.833740	0.249023	-0.239502	0.140999	-0.027753	0.132121	0.116679	-0.372009	0.047897	-0.919620	-13.679132	-42.301921	-160.224428
06642		19.566901	-3.545582	16.004294	-3.829111	-1.774255	15.358112	-0.836625	5.855391	1.079946	-0.809326	0.254150	-0.286377	0.200429	-0.033728	0.154364	0.118611	-0.344982	0.057261	-0.929322	-13.994242	-38.874429	-160.493141
06643		24.412974	-4.921235	16.585398	-8.774508	-2.349814	18.691346	-0.677405	6.110821	1.461218	-0.771729	0.270508	-0.335938	0.249395	-0.046858	0.158448	0.122424	-0.316434	0.066544	-0.938325	-14.352010	-35.277898	-160.548146
06644		26.106034	-2.804176	14.648884	-12.506816	-5.475358	16.968757	-0.393192	6.308408	2.048722	-0.724854	0.273926	-0.382813	0.265774	-0.025058	0.138206	0.129224	-0.286066	0.075560	-0.946445	-14.735577	-31.464028	-160.278256
06645		26.572585	-2.149852	11.023578	-16.254030	-6.767362	13.033174	-0.386501	6.211235	2.714612	-0.685059	0.290283	-0.414307	0.269235	-0.017657	0.101946	0.139097	-0.255769	0.085260	-0.952872	-15.289898	-27.626880	-159.609229
06646		26.786865	-4.069017	7.156160	-20.011334	-5.497429	9.011108	0.052268	5.824062	3.299551	-0.637939	0.291260	-0.445801	0.270423	-0.036260	0.063701	0.152301	-0.226303	0.093320	-0.957540	-15.714882	-23.888769	-158.580693
06647		27.206760	-6.428281	5.494202	-22.660678	-4.131509	6.945867	1.111205	5.271828	3.809226	-0.595703	0.301025	-0.479492	0.274545	-0.059346	0.047387	0.169255	-0.198353	0.096293	-0.960592	-15.604923	-20.394144	-157.190438
06648		30.070210	-4.777005	3.295764	-26.270615	-7.428450	4.052644	2.459474	4.694036	4.250821	-0.566650	0.303955	-0.501709	0.302286	-0.041698	0.025337	0.189729	-0.171470	0.092688	-0.962294	-14.760358	-17.147800	-155.455373
06649		29.596657	-1.385607	-0.862313	-26.511242	-10.922444	-2.316922	3.234238	4.324671	4.394454	-0.532959	0.302490	-0.526367	0.295892	-0.007143	-0.015174	0.211528	-0.145491	0.084960	-0.962741	-13.424795	-14.134421	-153.544511
06650		28.492771	-0.903013	-5.778933	-26.755032	-11.355770	-8.797365	3.074799	3.860882	3.663947	-0.507813	0.289551	-0.548340	0.283831	-0.002878	-0.063352	0.229642	-0.121982	0.076925	-0.962532	-12.022573	-11.507320	-151.946504
06651		28.785760	4.287596	-9.036586	-25.281043	-16.450259	-14.147060	1.926926	3.328752	2.276581	-0.485352	0.290039	-0.566162	0.285786	0.047036	-0.094694	0.240442	-0.102879	0.072860	-0.962442	-11.086516	-9.380650	-151.034001
06652		28.788417	8.673720	-11.218813	-23.427166	-20.321567	-18.058947	-0.151293	2.595510	1.150941	-0.469727	0.292725	-0.564209	0.285890	0.088300	-0.115973	0.244928	-0.090145	0.077328	-0.962239	-11.231451	-7.793418	-150.671008
06653		29.439110	6.345261	-14.022615	-25.473357	-18.166667	-20.975047	-2.019634	1.662876	0.479098	-0.461182	0.308350	-0.569092	0.293057	0.062719	-0.143302	0.245665	-0.084458	0.089306	-0.961530	-12.400963	-6.807844	-150.595275
06654		29.705545	-0.544717	-16.801768	-29.459649	-11.638143	-22.528217	-2.346383	0.676815	0.189988	-0.464111	0.321533	-0.558105	0.296491	-0.007144	-0.168945	0.245281	-0.084053	0.101497	-0.960453	-13.750014	-6.411393	-150.574141
06655		28.263602	-5.501720	-16.939400	-30.591421	-6.418516	-21.602750	-1.084622	-0.375079	0.003494	-0.463867	0.319336	-0.555908	0.282954	-0.055928	-0.168562	0.245036	-0.087215	0.106261	-0.959718	-14.380529	-6.622492	-150.517950
06656		27.459861	-4.674039	-14.108451	-28.989734	-7.226017	-18.884940	0.580880	-1.383536	-0.224357	-0.470459	0.316895	-0.546875	0.275514	-0.046643	-0.139316	0.244961	-0.093373	0.101679	-0.959655	-14.060143	-7.434714	-150.442843
06657		24.431585	-4.066317	-9.286690	-25.052884	-7.155870	-14.374060	1.456597	-2.124216	-0.451837	-0.488525	0.314453	-0.540039	0.245194	-0.040551	-0.090561	0.244540	-0.102036	0.091884	-0.959868	-13.233504	-8.681647	-150.405258
06658		-2.825612	-10.521799	10.481851	0.327365	9.348461	2.063038	2.043224	-3.289891	-1.017475	-0.505615	0.293945	-0.524170	-0.030502	-0.106127	0.103248	0.242187	-0.115937	0.077515	-0.960154	-12.041193	-10.666317	-150.558101
06659		-5.851334	-22.673070	26.062267	1.757854	20.775773	18.340836	3.414063	-2.617919	-1.227398	-0.516113	0.273926	-0.528076	-0.063292	-0.230747	0.255899	0.239235	-0.124851	0.057242	-0.961198	-10.006063	-12.276206	-150.968229
06660		-9.271173	2.447313	14.593945	12.920553	1.832345	1.788773	3.968699	-2.345988	-0.375625	-0.528564	0.249023	-0.520752	-0.094376	0.021762	0.145289	0.240528	-0.131604	0.035142	-0.961037	-7.738897	-13.653378	-150.969540
06661		4.454361	11.195735	4.116593	2.522833	-11.898949	-6.049781	2.930276	-3.388335	0.468632	-0.546631	0.246582	-0.505127	0.043558	0.111434	0.043545	0.245247	-0.144279	0.017304	-0.958508	-6.193615	-15.551107	-150.449542
06662		18.971491	12.582679	12.057901	-6.259098	-19.433389	5.894065	1.670701	-3.857459	0.634928	-0.562256	0.246094	-0.487305	0.186931	0.125390	0.125251	0.249791	-0.160768	0.005035	-0.954847	-5.417754	-17.728238	-149.833988
06663		16.794202	15.882966	17.004800	-0.754518	-20.531630	10.219954	1.008737	-2.721054	0.143722	-0.569092	0.248291	-0.473877	0.165487	0.158081	0.173109	0.251334	-0.172513	-0.003048	-0.952398	-4.917274	-19.276875	-149.598221
06664		7.870688	12.204353	13.062018	3.879004	-13.102588	4.143410	0.218099	-2.674941	-0.287820	-0.586914	0.245605	-0.467041	0.077125	0.121788	0.131792	0.250122	-0.185111	-0.007723	-0.950323	-4.782548	-20.835934	-149.628831
06665		14.034012	2.598596	12.613109	-5.469151	-7.453342	6.839929	-0.320013	-2.842658	-0.177589	-0.598633	0.258789	-0.451904	0.138552	0.026066	0.128067	0.248849	-0.199026	-0.009905	-0.947821	-4.983853	-22.470756	-149.587515
06666		17.791196	-2.162189	12.208009	-10.469704	-4.902758	8.533040	-0.091178	-2.246152	-0.022958	-0.607666	0.260742	-0.451904	0.176523	-0.021586	0.124078	0.248563	-0.209929	-0.012339	-0.945512	-5.079625	-23.773118	-149.471987
06667		11.268071	0.675759	11.056573	-4.139508	-4.365853	4.798020	0.053499	-1.539353	0.021668	-0.619141	0.271484	-0.445313	0.111825	0.006740	0.111430	0.248621	-0.217170	-0.014466	-0.943830	-5.092906	-24.653876	-149.371432
06668		5.936488	2.286538	10.289637	0.658697	-3.323389	1.800499	-0.074457	-1.280583	-0.082296	-0.635010	0.273438	-0.440918	0.058714	0.022880	0.103265	0.248097	-0.223467	-0.015852	-0.942475	-5.145065	-25.409835	-149.343405
06669		7.760901	-2.831516	10.084774	-3.147833	0.361890	2.832878	0.021542	-1.075118	-0.084447	-0.637695	0.284668	-0.447754	0.077053	-0.028359	0.101260	0.247635	-0.228531	-0.017365	-0.941355	-5.139352	-26.031036	-149.334331
06670		7.700914	-3.074648	7.996596	-4.005021	0.356327	0.982470	0.180679	-0.737200	0.044994	-0.646729	0.286621	-0.443359	0.076721	-0.030802	0.080221	0.248030	-0.231953	-0.019136	-0.940379	-5.067758	-26.470686	-149.256155
06671		7.143563	-1.036814	8.972822	-2.140199	-0.986230	1.459564	0.188203	-0.474057	0.020478	-0.648926	0.286621	-0.441162	0.071224	-0.010445	0.089887	0.248300	-0.233984	-0.020568	-0.939774	-4.980962	-26.743578	-149.215193
06672		5.711128	-1.565005	8.407262	-1.502139	0.077444	0.360108	0.135992	-0.318993	-0.036201	-0.660889	0.304199	-0.441406	0.056974	-0.015718	0.084153	0.248298	-0.235488	-0.021703	-0.939374	-4.901637	-26.949152	-149.212946
06673		6.021385	-3.108160	8.158863	-2.566284	1.277557	0.398421	0.222857	-0.244988	-0.089568	-0.661133	0.310791	-0.441650	0.060100	-0.031199	0.081628	0.248113	-0.236386	-0.023143	-0.939162	-4.757166	-27.096695	-149.255807
06674		4.895553	-2.113856	8.761740	-0.963232	1.052079	0.344483	0.283817	-0.144052	-0.168063	-0.676758	0.305908	-0.443604	0.048875	-0.021304	0.087622	0.247684	-0.236870	-0.024908	-0.939109	-4.550226	-27.208625	-149.348399
06675		4.438360	-1.539582	8.849350	-0.304816	0.810789	0.168790	0.356343	-0.165095	-0.207112	-0.677002	0.312744	-0.443848	0.044294	-0.015599	0.088502	0.247113	-0.237212	-0.027015	-0.939115	-4.292111	-27.315444	-149.472041
06676		5.294240	-0.367416	8.947113	-0.360164	-0.539960	0.569670	0.358114	-0.162638	-0.196397	-0.686035	0.312500	-0.452637	0.052866	-0.003886	0.089507	0.246634	-0.237685	-0.029182	-0.939056	-4.033992	-27.438281	-149.583207
06677		5.357832	0.840675	9.216470	0.280399	-1.539181	0.765998	0.290309	-0.151312	-0.175126	-0.693115	0.321289	-0.446045	0.053516	0.008226	0.092217	0.246134	-0.238045	-0.030923	-0.939040	-3.821920	-27.535016	-149.688131
06678		5.512638	0.153976	8.735520	-0.370195	-1.054177	0.457356	0.206830	-0.159335	-0.137663	-0.690674	0.319092	-0.443848	0.055058	0.001411	0.087401	0.245750	-0.238695	-0.032308	-0.938929	-3.666790	-27.652991	-149.762696
06679		5.237468	0.696295	9.183030	0.297059	-1.300962	0.697457	0.144377	-0.149507	-0.086882	-0.699707	0.316650	-0.443848	0.052309	0.006874	0.091874	0.245491	-0.239240	-0.033257	-0.938825	-3.564071	-27.744998	-149.811502
06680		4.878243	-0.192833	9.044199	0.099183	-0.365392	0.458077	0.065979	-0.157165	-0.040776	-0.699707	0.316650	-0.439209	0.048711	-0.001968	0.090480	0.245394	-0.240067	-0.033864	-0.938618	-3.518031	-27.858056	-149.824110
06681		5.271359	-0.369761	8.429411	-0.540263	-0.482022	0.109744	0.064672	-0.180250	-0.023390	-0.704346	0.321045	-0.434814	0.052637	-0.003731	0.084340	0.245331	-0.240864	-0.034400	-0.938410	-3.480479	-27.965336	-149.830915
06682		5.474345	-0.454775	8.324885	-0.766054	-0.501361	0.119118	0.047096	-0.160815	-0.039403	-0.702148	0.325439	-0.439453	0.054676	-0.004578	0.083292	0.245217	-0.241731	-0.034922	-0.938198	-3.445542	-28.080365	-149.842723
06683		5.208856	-0.624184	8.421087	-0.590917	-0.204015	0.089114	0.053982	-0.156354	-0.056781	-0.708984	0.327637	-0.435059	0.052021	-0.006279	0.084250	0.244988	-0.242422	-0.035419	-0.938061	-3.403364	-28.175114	-149.872282
06684		5.239348	-0.768229	8.431733	-0.665761	-0.073124	0.121418	0.070994	-0.140405	-0.059538	-0.706543	0.325439	-0.435059	0.052332	-0.007728	0.084351	0.244811	-0.243160	-0.036052	-0.937892	-3.348039	-28.279151	-149.898171
06685		4.431116	-0.944140	8.787598	0.029789	0.519177	0.060388	0.080582	-0.119609	-0.067492	-0.711182	0.325439	-0.435059	0.044255	-0.009492	0.087899	0.244571	-0.243644	-0.036642	-0.937806	-3.286458	-28.353188	-149.936326
06686		4.366621	-0.694183	8.957892	0.281964	0.377792	0.165832	0.104101	-0.134473	-0.061181	-0.717773	0.322998	-0.434814	0.043604	-0.007002	0.089605	0.244427	-0.244313	-0.037424	-0.937639	-3.211427	-28.453716	-149.963844
06687		5.281783	0.352787	8.674329	-0.031603	-0.981055	0.301766	0.093833	-0.161903	-0.032957	-0.713379	0.322998	-0.432617	0.052748	0.003478	0.086788	0.244356	-0.244985	-0.038085	-0.937455	-3.153476	-28.550770	-149.978252
06688		5.119623	-0.120840	8.746014	-0.088130	-0.464403	0.311266	0.049743	-0.161859	-0.008789	-0.713135	0.320801	-0.428223	0.051125	-0.001232	0.087501	0.244385	-0.245856	-0.038581	-0.937199	-3.126117	-28.665139	-149.970968
06689		5.261104	-0.007303	8.558406	-0.209542	-0.651742	0.210131	0.017546	-0.184507	0.017160	-0.717773	0.325195	-0.430420	0.052532	-0.000076	0.085633	0.244451	-0.246737	-0.038852	-0.936939	-3.127858	-28.773548	-149.952014
06690		4.968006	0.155320	8.578290	0.118900	-0.651426	0.079417	0.008465	-0.185860	0.027305	-0.717773	0.322998	-0.428223	0.049600	0.001556	0.085829	0.244593	-0.247777	-0.039140	-0.936616	-3.135861	-28.900475	-149.920351
06691		4.659221	-0.155393	8.861901	0.348931	-0.181186	0.192869	-0.015847	-0.192034	0.047586	-0.717773	0.320801	-0.428223	0.046507	-0.001536	0.088664	0.244759	-0.248739	-0.039225	-0.936314	-3.166612	-29.012224	-149.881135
06692		4.879897	-0.089882	8.576541	0.107486	-0.383655	0.047320	-0.018584	-0.188350	0.043280	-0.718018	0.327393	-0.423828	0.048718	-0.000880	0.085811	0.244940	-0.249825	-0.039370	-0.935971	-3.195342	-29.139920	-149.838823
06693		5.262020	-0.387936	8.362676	-0.401053	-0.326590	0.061834	-0.027609	-0.180207	0.024621	-0.726807	0.322754	-0.414795	0.052545	-0.003861	0.083675	0.244985	-0.250741	-0.039415	-0.935712	-3.225530	-29.245605	-149.814868
06694		5.166881	-0.810466	8.095552	-0.632261	0.040054	-0.195510	-0.032603	-0.161703	-0.005217	-0.724365	0.318359	-0.423584	0.051603	-0.008093	0.080999	0.244927	-0.251708	-0.039522	-0.935463	-3.246443	-29.359528	-149.805199
06695		4.984516	-0.934521	8.364023	-0.419118	0.287801	-0.044520	-0.015377	-0.132393	-0.040924	-0.733398	0.318115	-0.423584	0.049788	-0.009349	0.083674	0.244690	-0.252373	-0.039647	-0.935341	-3.247759	-29.439976	-149.825936
06696		4.651558	-0.795818	8.337380	-0.101492	0.315736	-0.238126	0.009932	-0.109651	-0.050601	-0.737549	0.313721	-0.418945	0.046468	-0.007974	0.083399	0.244482	-0.253035	-0.039946	-0.935204	-3.228804	-29.525530	-149.848062
06697		4.978893	-0.477678	8.282398	-0.213382	-0.109094	-0.140138	0.027185	-0.091341	-0.057171	-0.735596	0.318115	-0.423584	0.049750	-0.004802	0.082846	0.244230	-0.253452	-0.040241	-0.935144	-3.199625	-29.583006	-149.881083
06698		5.349958	-0.312129	8.005495	-0.531390	-0.462072	-0.204799	0.024920	-0.076911	-0.070021	-0.739990	0.315918	-0.419189	0.053468	-0.003150	0.080075	0.244074	-0.253921	-0.040584	-0.935043	-3.169743	-29.647628	-149.901989
06699		5.461196	-0.452144	7.848373	-0.749401	-0.410139	-0.278736	0.016465	-0.066637	-0.107913	-0.746582	0.309082	-0.423340	0.054583	-0.004557	0.078502	0.243577	-0.254224	-0.040863	-0.935078	-3.129611	-29.692536	-149.969427
06700		5.362337	-0.177688	8.027354	-0.457338	-0.562245	-0.184636	0.000940	-0.058660	-0.125706	-0.744141	0.306885	-0.421143	0.053599	-0.001811	0.080289	0.243102	-0.254630	-0.041145	-0.935079	-3.093554	-29.749098	-150.031788
06701		4.902502	-0.130619	8.398620	0.084364	-0.322107	-0.092732	-0.027535	-0.074149	-0.117953	-0.748779	0.309082	-0.421143	0.048993	-0.001324	0.084005	0.242500	-0.255020	-0.041240	-0.935124	-3.075307	-29.798547	-150.105704
06702		4.233336	-0.934768	8.703069	0.353673	0.743726	-0.124544	-0.006487	-0.084489	-0.105294	-0.757568	0.306641	-0.416504	0.042292	-0.009367	0.087049	0.242083	-0.255561	-0.041496	-0.935073	-3.049400	-29.869628	-150.156939
06703		4.323633	-0.567797	8.891216	0.553419	0.429111	0.065546	0.006604	-0.114267	-0.122460	-0.761963	0.302002	-0.416504	0.043182	-0.005707	0.088937	0.241495	-0.256096	-0.041805	-0.935065	-3.010585	-29.942106	-150.232580
06704		4.821161	-0.042911	8.844352	0.419424	-0.242727	0.248780	-0.011517	-0.171814	-0.129537	-0.770752	0.295166	-0.416260	0.048135	-0.000455	0.088485	0.240884	-0.257052	-0.042177	-0.934944	-2.978636	-30.064689	-150.304306
06705		5.117488	-0.129831	8.896756	0.197366	-0.270266	0.446249	-0.067425	-0.233925	-0.133871	-0.779541	0.292725	-0.411865	0.051070	-0.001303	0.089028	0.240122	-0.258232	-0.042299	-0.934809	-2.980127	-30.205916	-150.383625
06706		4.984925	-0.252998	8.755845	0.202002	-0.120015	0.263176	-0.115434	-0.301552	-0.121899	-0.783936	0.290527	-0.407227	0.049716	-0.002510	0.087635	0.239303	-0.259928	-0.042338	-0.934548	-3.008674	-30.403962	-150.456871
06707		4.636929	0.192458	9.013492	0.826991	-0.301710	0.287120	-0.136558	-0.394074	-0.071535	-0.797363	0.288086	-0.398193	0.046192	0.001970	0.090225	0.238707	-0.261951	-0.042248	-0.934139	-3.073142	-30.634997	-150.489273
06708		4.655509	0.662739	9.351924	1.241492	-0.644544	0.561053	-0.206295	-0.489277	0.008294	-0.801758	0.287842	-0.389404	0.046326	0.006726	0.093626	0.238278	-0.264661	-0.041918	-0.933499	-3.198960	-30.937252	-150.476308
06709		4.776094	0.287342	9.252206	0.990627	-0.378899	0.549341	-0.260596	-0.606365	0.077209	-0.808350	0.281006	-0.371338	0.047479	0.003012	0.092662	0.238164	-0.267851	-0.041305	-0.932646	-3.390291	-31.284943	-150.400173
06710		4.208004	0.299609	9.476796	1.607700	-0.096778	0.434848	-0.339775	-0.787428	0.109637	-0.817139	0.276367	-0.364502	0.041705	0.003180	0.094927	0.238092	-0.272106	-0.040566	-0.931464	-3.640975	-31.751126	-150.287458
06711		4.148480	-0.418995	9.989804	1.672934	0.675621	0.860886	-0.449939	-1.044031	0.110432	-0.830566	0.276123	-0.342285	0.040965	-0.003942	0.100122	0.237777	-0.277556	-0.039546	-0.929979	-3.966502	-32.347174	-150.164876
06712		4.056163	-0.722141	10.074726	1.783131	1.015186	0.876645	-0.550593	-1.340791	0.048081	-0.832275	0.267090	-0.328857	0.039887	-0.006934	0.101036	0.236999	-0.284601	-0.038567	-0.928087	-4.335988	-33.130640	-150.059531
06713		3.801966	-0.449344	10.375558	2.421276	0.961806	0.935247	-0.695737	-1.668296	0.004531	-0.839111	0.269043	-0.295410	0.037152	-0.004131	0.104083	0.235698	-0.293190	-0.037290	-0.925795	-4.790318	-34.086629	-149.963761
06714		3.350719	-0.131956	11.138318	3.512002	1.051264	1.226427	-0.848489	-2.054853	-0.000288	-0.845459	0.260010	-0.270752	0.032360	-0.000846	0.111724	0.234085	-0.303832	-0.035836	-0.922825	-5.349068	-35.278011	-149.831083
06715		2.923132	-1.980521	11.408204	3.392940	2.957257	1.248438	-0.932874	-2.491215	-0.030279	-0.854736	0.268555	-0.237793	0.027804	-0.019276	0.114525	0.232059	-0.316419	-0.034474	-0.919151	-5.976902	-36.703455	-149.676874
06716		3.727338	-1.602162	11.400931	3.333033	2.348831	1.580417	-1.020312	-2.999420	-0.116160	-0.874756	0.261475	-0.204102	0.035548	-0.015459	0.114631	0.229390	-0.331466	-0.033495	-0.914543	-6.657049	-38.436523	-149.515724
06717		3.953813	-1.650517	11.532437	3.624540	2.413480	1.692729	-0.983349	-3.547948	-0.210211	-0.872314	0.259277	-0.159668	0.037466	-0.015976	0.116081	0.226164	-0.348758	-0.033393	-0.908902	-7.329570	-40.472194	-149.348369
06718		3.496874	-0.845302	11.753871	4.851401	2.037418	1.295219	-0.927001	-4.209774	-0.202456	-0.878418	0.250000	-0.114990	0.032476	-0.007940	0.118277	0.222890	-0.368951	-0.034334	-0.901674	-8.047067	-42.894661	-149.064481
06719		3.288503	-0.922602	12.394322	5.872942	2.475207	1.351112	-1.079170	-5.004563	-0.227520	-0.885254	0.251953	-0.061768	0.029760	-0.008589	0.124762	0.218938	-0.392586	-0.035437	-0.892573	-8.957719	-45.753105	-148.650243
06720		2.907799	-0.906305	13.303147	7.324365	2.987078	1.306081	-1.159653	-5.800204	-0.358563	-0.889404	0.245117	0.004883	0.025188	-0.008336	0.133849	0.213950	-0.419617	-0.037344	-0.881336	-9.998930	-49.080113	-148.135659
06721		2.680365	-0.399317	13.410324	8.397857	2.822902	0.609143	-1.389125	-6.717343	-0.491577	-0.889160	0.240479	0.071533	0.022272	-0.003116	0.134926	0.207485	-0.450389	-0.039400	-0.867495	-11.337894	-52.917737	-147.441097
06722		3.437267	-0.472657	14.180765	9.336175	3.048355	0.983784	-1.664364	-7.770839	-0.572772	-0.886475	0.233643	0.151611	0.028819	-0.003627	0.143033	0.199561	-0.485440	-0.041543	-0.850175	-13.191417	-57.351729	-146.342970
06723		5.265743	-3.126385	12.993207	7.451770	4.881808	1.449064	-1.681093	-8.787983	-0.724560	-0.870117	0.222656	0.240723	0.046766	-0.030335	0.132331	0.190371	-0.523851	-0.044864	-0.829051	-15.626278	-62.335357	-144.646407
06724		13.224615	-2.279685	15.665605	8.374395	3.130806	8.767643	-1.833066	-9.579640	-0.693664	-0.840820	0.222900	0.318115	0.124463	-0.021763	0.162946	0.180315	-0.564585	-0.048182	-0.803995	-19.416103	-67.702082	-141.626636
06725		13.098728	1.132837	17.231258	12.611587	0.911517	7.782178	-2.145416	-8.977914	-0.733187	-0.814941	0.200928	0.394043	0.123130	0.012756	0.177827	0.168950	-0.601843	-0.049652	-0.778958	-24.966706	-72.630253	-137.041015
06726		18.845352	-2.474867	16.586923	11.275906	3.364373	12.493366	-2.764076	-8.088337	-0.914160	-0.787598	0.192383	0.460693	0.181426	-0.023224	0.173631	0.154897	-0.634943	-0.048459	-0.755318	-33.162005	-76.951883	-130.194522
06727		20.277860	-11.246038	15.702047	9.404978	11.720920	13.809872	-2.141116	-6.909137	-1.704826	-0.766602	0.170410	0.507568	0.196209	-0.112413	0.165079	0.139873	-0.661863	-0.051084	-0.734686	-42.855670	-80.685001	-121.572225
06728		16.159643	-8.557738	15.209945	11.374545	10.170651	8.427719	-1.422865	-5.551714	-2.177168	-0.738770	0.150879	0.550049	0.156345	-0.086193	0.157100	0.125666	-0.682418	-0.056939	-0.717824	-55.313730	-83.732466	-109.826225
06729		8.792461	-2.384045	14.015022	12.838759	5.021707	-0.363314	-1.468218	-5.179628	-1.987731	-0.719971	0.133301	0.583740	0.084018	-0.023648	0.142534	0.111986	-0.701106	-0.061664	-0.701504	-82.489154	-85.921547	-83.395663
06730		20.183795	-3.355615	28.667259	27.528454	8.839241	10.296233	-1.855690	-3.433244	-1.754571	-0.716797	0.106689	0.588623	0.196585	-0.032613	0.290383	0.098224	-0.713502	-0.063217	-0.690848	-116.350696	-86.620770	-50.533636
06731		19.726736	-8.416708	26.261634	24.461020	13.274936	9.554541	-1.627244	0.057237	-2.099773	-0.725098	0.091064	0.577881	0.196459	-0.084092	0.263244	0.085162	-0.713400	-0.065035	-0.692516	-129.959947	-87.649598	-37.844214
06732		-4.978359	-9.045313	21.826237	19.392262	13.430938	-14.962317	-1.022303	2.092934	-2.425500	-0.742432	0.070801	0.554199	-0.048576	-0.088740	0.219231	0.073769	-0.705683	-0.069225	-0.701269	-128.362910	-89.486703	-40.030517
06733		-10.870530	-6.654683	15.964459	14.388660	9.606401	-20.674511	-0.831592	1.770018	-2.750015	-0.759766	0.050537	0.534668	-0.108180	-0.064390	0.160874	0.061782	-0.698755	-0.075330	-0.708696	59.292550	-88.638329	131.835700
06734		-7.882649	-5.622872	14.017460	12.899388	7.930561	-17.619255	-0.874081	1.248479	-2.768029	-0.774658	0.030273	0.524170	-0.078711	-0.054524	0.140907	0.049367	-0.693432	-0.081459	-0.714199	62.402918	-86.902318	128.216836
06735		-1.502047	-5.761959	13.821865	12.629794	8.064304	-11.209743	-1.118429	1.338850	-2.299247	-0.782959	0.010254	0.502441	-0.014748	-0.056674	0.138637	0.037806	-0.687942	-0.085078	-0.719770	61.036303	-85.381110	128.941502
06736		2.180065	-7.662239	13.773773	12.164414	10.005217	-7.554776	-1.241843	2.017299	-1.546497	-0.796143	0.003418	0.475830	0.022603	-0.075939	0.137985	0.028579	-0.680155	-0.085369	-0.727519	54.798933	-84.005245	134.456831
06737		2.698463	-8.939660	12.520277	10.726914	10.994761	-6.984852	-1.054266	2.876253	-0.701666	-0.816162	-0.003662	0.442871	0.028474	-0.088835	0.125270	0.023653	-0.669483	-0.083478	-0.737743	45.586085	-82.640349	143.120844
06738		1.876072	-8.578813	11.281323	9.633681	10.309034	-7.513811	-0.725553	3.644135	0.071783	-0.832275	0.000488	0.405029	0.020846	-0.085372	0.112756	0.022726	-0.655993	-0.079923	-0.750179	35.444535	-81.062135	152.905677
06739		1.127487	-6.581305	10.301467	8.991264	8.098264	-7.748563	-0.492913	4.203122	0.751492	-0.850586	0.007080	0.365234	0.013685	-0.065511	0.102906	0.025590	-0.640458	-0.075092	-0.763885	25.954562	-79.208546	162.246819
06740		1.358145	-3.905328	9.782336	8.701394	5.346580	-6.902663	-0.546052	4.617034	1.367579	-0.867188	0.029053	0.313721	0.016101	-0.038682	0.097577	0.030591	-0.623147	-0.067843	-0.778556	17.496819	-77.023082	170.537152
06741		1.527010	-2.486162	9.286997	8.225979	3.802460	-6.261186	-0.798729	4.943250	1.882063	-0.878906	0.040039	0.260254	0.017791	-0.024332	0.092549	0.037083	-0.604469	-0.058069	-0.793643	10.223555	-74.530559	177.563244
06742		1.796062	-2.088681	8.799233	7.559149	3.223859	-5.634403	-1.016244	5.183078	2.232023	-0.884277	0.060059	0.215332	0.020462	-0.020222	0.087587	0.044286	-0.584392	-0.046170	-0.808945	4.195125	-71.726819	-176.766277
06743		2.559238	-1.958655	8.708483	7.021878	2.906258	-4.479269	-1.092722	5.364183	2.431916	-0.892090	0.084473	0.159424	0.028149	-0.018781	0.086457	0.052137	-0.563266	-0.033415	-0.823952	-0.578754	-68.700198	-172.363060
06744		3.874874	-1.712072	9.063148	6.590638	2.419431	-2.687718	-1.031891	5.553976	2.512074	-0.895264	0.109131	0.107910	0.041453	-0.016147	0.089590	0.060453	-0.540688	-0.020497	-0.838798	-4.275450	-65.441115	-169.007863
06745		5.218876	-0.914780	9.783450	6.365315	1.319769	-0.785487	-0.924613	5.772623	2.509465	-0.894287	0.140381	0.053955	0.055089	-0.008021	0.096311	0.069030	-0.516772	-0.008060	-0.853297	-7.048650	-62.010517	-166.510328
06746		6.248604	0.051382	10.533587	6.131359	-0.016206	0.787319	-0.893632	6.013516	2.447195	-0.890381	0.154053	-0.001953	0.065598	0.001769	0.103388	0.077431	-0.491110	0.004273	-0.867639	-9.161110	-58.380729	-164.675020
06747		6.784250	0.379446	11.116836	5.761784	-0.743921	1.846791	-0.911817	6.190638	2.348238	-0.880371	0.178711	-0.062500	0.071184	0.005117	0.108978	0.085197	-0.464316	0.016409	-0.881410	-10.764715	-54.657509	-163.382904
06748		7.320860	-0.051884	12.083925	5.471494	-0.766276	3.188197	-0.928908	6.263778	2.182243	-0.867676	0.197021	-0.116211	0.076940	0.000861	0.118466	0.092077	-0.436523	0.028347	-0.894520	-11.990430	-50.871840	-162.527119
06749		8.958893	-1.154419	13.018906	4.232603	-0.410017	5.448810	-0.885859	6.225752	1.985775	-0.852539	0.212891	-0.183105	0.093688	-0.010059	0.127362	0.098089	-0.408601	0.039513	-0.906567	-12.896826	-47.146534	-162.002804
06750		11.468042	-3.459671	13.814112	1.892885	0.837875	8.350947	-0.715971	6.042644	1.830933	-0.826172	0.229248	-0.234863	0.119093	-0.033033	0.134707	0.103663	-0.380836	0.049555	-0.917476	-13.548339	-43.514749	-161.678734
06751		16.865012	-5.063203	15.482746	-2.063037	0.616557	13.531940	-0.321547	5.846719	1.838185	-0.797607	0.238770	-0.283936	0.173535	-0.048808	0.149881	0.109984	-0.353581	0.057558	-0.927131	-13.939695	-40.013650	-161.372032
06752		22.591831	-4.131882	16.765783	-6.682908	-2.353592	17.720631	0.025003	5.990384	2.101304	-0.759766	0.248535	-0.333252	0.231221	-0.038928	0.160780	0.117969	-0.324853	0.064530	-0.936157	-14.195930	-36.370325	-160.950833
06753		25.086380	-0.768248	16.235071	-9.917786	-6.974465	17.503359	0.016205	6.191907	2.541416	-0.708496	0.256348	-0.371338	0.255799	-0.004465	0.154481	0.127827	-0.294895	0.072218	-0.944183	-14.554333	-32.575262	-160.306321
06754		26.588195	-1.912995	12.852568	-14.810657	-6.965366	14.836142	-0.240945	6.221002	2.959641	-0.670654	0.266113	-0.398438	0.269950	-0.015007	0.120190	0.139101	-0.264288	0.081744	-0.950853	-15.128756	-28.676052	-159.466271
06755		27.233463	-4.099382	8.379759	-19.454481	-5.631840	10.636562	0.039723	5.967171	3.291113	-0.623779	0.271484	-0.431885	0.275297	-0.036495	0.075605	0.152282	-0.234430	0.090025	-0.955902	-15.570697	-24.882899	-158.441407
06756		27.933061	-6.031869	5.445928	-22.942169	-4.664490	7.446705	0.869749	5.489060	3.641641	-0.596924	0.274170	-0.445557	0.281719	-0.055417	0.046500	0.168133	-0.205644	0.094340	-0.959449	-15.573972	-21.277616	-157.177940
06757		28.060869	-7.675895	3.362655	-25.209033	-3.888608	4.565028	2.059775	4.919894	3.919097	-0.570068	0.277100	-0.479004	0.282746	-0.071525	0.025933	0.186641	-0.178387	0.092593	-0.961650	-14.905173	-17.970562	-155.662877
06758		30.966533	-4.144424	0.218036	-28.232047	-8.928975	0.139706	3.045398	4.334454	4.240728	-0.547607	0.275391	-0.496826	0.310393	-0.034826	-0.005106	0.207611	-0.152561	0.085789	-0.962425	-13.679286	-14.953549	-153.850030
06759		27.652582	-1.230611	-3.945625	-25.621559	-10.760979	-6.771614	3.178828	3.826002	4.157835	-0.525146	0.273682	-0.523438	0.275869	-0.005881	-0.044866	0.228297	-0.129024	0.077609	-0.961878	-12.303650	-12.285000	-151.967242
06760		28.710536	2.810906	-7.555948	-25.473518	-15.335143	-12.061324	2.165954	3.218863	3.131265	-0.507080	0.271729	-0.543457	0.285348	0.033435	-0.079819	0.243419	-0.109788	0.072911	-0.960925	-11.339690	-10.107815	-150.563891
06761		29.356347	9.541395	-9.701872	-23.014372	-21.791581	-16.319253	0.066578	2.506069	2.014672	-0.493896	0.281006	-0.550537	0.291336	0.098389	-0.100646	0.252197	-0.096953	0.076754	-0.959743	-11.443221	-8.475409	-149.703129
06762		29.128827	8.493294	-12.032074	-23.513785	-20.591080	-19.217789	-2.140561	1.743793	1.240231	-0.483398	0.296631	-0.548584	0.289690	0.085420	-0.123764	0.256417	-0.090821	0.089835	-0.958087	-12.740149	-7.351663	-149.211782
06763		29.998436	-0.625814	-15.266658	-29.237350	-12.637041	-20.714084	-2.717016	0.913441	0.678330	-0.479492	0.314697	-0.546875	0.299307	-0.007328	-0.153940	0.258003	-0.089649	0.104335	-0.956301	-14.331384	-6.755033	-148.952833
06764		30.066129	-6.599476	-16.207060	-32.399544	-7.261484	-20.192043	-1.354567	0.093612	0.099295	-0.486328	0.314453	-0.546875	0.300619	-0.066942	-0.161760	0.257835	-0.090975	0.110972	-0.955474	-15.114845	-6.697297	-148.907319
06765		29.760986	-4.339114	-13.850366	-30.593801	-9.318136	-18.389649	0.325110	-0.692828	-0.459606	-0.483887	0.312256	-0.535645	0.297987	-0.043852	-0.137543	0.256177	-0.094154	0.108331	-0.955915	-14.913063	-7.152026	-149.058216
06766		27.297008	-0.884116	-10.522357	-26.169272	-11.514098	-16.074434	1.025213	-1.342136	-0.883340	-0.494629	0.303223	-0.528809	0.273627	-0.009515	-0.103436	0.253177	-0.099869	0.101285	-0.956906	-14.290359	-8.038882	-149.351312
06767		22.684464	-1.259625	-6.905426	-21.632253	-9.352896	-12.711631	0.931092	-1.988878	-1.278161	-0.501221	0.296387	-0.517578	0.227431	-0.013734	-0.066857	0.248521	-0.108880	0.093682	-0.957918	-13.693358	-9.324814	-149.789747
06768		-10.753727	-19.453455	15.091081	4.382370	20.416986	7.089344	1.682607	-2.918666	-1.652272	-0.522949	0.275879	-0.505859	-0.111317	-0.194877	0.147666	0.242879	-0.121708	0.081063	-0.958971	-12.635774	-11.189305	-150.332365
06769		-5.964864	-24.317670	30.038748	2.475087	21.898099	22.487734	3.938179	-2.175478	-1.515846	-0.531006	0.253418	-0.505371	-0.064746	-0.248541	0.294843	0.238827	-0.127970	0.058611	-0.960807	-10.255108	-12.586445	-150.947899
06770		-14.653498	4.224135	11.355931	17.462253	2.876713	-2.862740	3.829792	-1.640183	-0.105326	-0.539307	0.231201	-0.504883	-0.147442	0.040150	0.113135	0.241216	-0.131444	0.038199	-0.960770	-8.089879	-13.541336	-150.850639
06771		-0.567222	8.249021	1.994078	4.838054	-6.955013	-9.064613	2.863685	-3.656541	0.831332	-0.552734	0.230713	-0.480225	-0.006392	0.082169	0.021006	0.247727	-0.145393	0.020586	-0.957637	-6.644301	-15.561273	-150.083792
06772		21.231713	14.675215	13.787958	-6.413007	-22.408566	7.874595	1.568890	-4.151255	0.932043	-0.561523	0.230469	-0.464600	0.208695	0.146620	0.143387	0.253711	-0.163338	0.008621	-0.953350	-5.990375	-17.882266	-149.251712
06773		21.653097	15.469541	17.575812	-4.458358	-22.644112	12.195971	0.994931	-2.474125	0.135151	-0.574951	0.228027	-0.446777	0.214224	0.153955	0.179185	0.255255	-0.173883	0.000866	-0.951109	-5.496992	-19.288302	-149.019500
06774		8.564221	14.102524	12.839408	4.251817	-15.205541	3.890710	0.310575	-2.212931	-0.807836	-0.577148	0.228027	-0.437988	0.084781	0.140481	0.129554	0.251711	-0.184167	-0.004168	-0.950109	-5.197795	-20.613044	-149.377303
06775		11.225914	4.492390	12.938594	-2.236802	-7.871207	5.892030	-0.289002	-2.453082	-0.766818	-0.581787	0.232178	-0.431396	0.110833	0.044685	0.130687	0.247733	-0.196187	-0.006572	-0.948734	-5.245593	-22.056061	-149.708440
06776		12.954650	-6.387268	11.244725	-9.083202	0.863072	6.055601	-0.129499	-2.115740	-0.229566	-0.595215	0.231934	-0.424561	0.128274	-0.063947	0.113850	0.246476	-0.206531	-0.008858	-0.946845	-5.312181	-23.295496	-149.722203
06777		11.083544	-1.608446	10.589610	-5.349301	-2.402370	4.441429	0.147363	-1.701199	-0.037236	-0.597656	0.234131	-0.422363	0.109926	-0.016183	0.106822	0.246369	-0.214429	-0.011674	-0.945085	-5.261163	-24.271378	-149.646000
06778		7.922246	3.478110	10.497024	-0.330553	-5.315375	2.704578	0.111539	-1.269462	-0.132060	-0.602539	0.245117	-0.424805	0.078577	0.034670	0.105490	0.245827	-0.220456	-0.013961	-0.943808	-5.194324	-25.024109	-149.648390
06779		6.227211	0.965089	8.837091	-0.749750	-2.479998	0.727242	-0.114872	-1.090353	-0.259928	-0.611816	0.251709	-0.427246	0.061802	0.009621	0.088703	0.244396	-0.225755	-0.015029	-0.942910	-5.219983	-25.663122	-149.748474
06780		8.701394	-5.491833	8.057383	-5.924206	2.034811	1.657188	0.047371	-0.939447	-0.186117	-0.614258	0.256104	-0.427246	0.086583	-0.055018	0.080968	0.243541	-0.230288	-0.016672	-0.942007	-5.165310	-26.230754	-149.804718
06781		7.325917	-3.419361	8.670014	-3.566164	0.979471	1.450216	0.301316	-0.534737	-0.096824	-0.623291	0.258057	-0.433838	0.073010	-0.034360	0.086844	0.243387	-0.232465	-0.018838	-0.941471	-4.981951	-26.544193	-149.834868
06782		4.924605	0.016918	10.034960	0.514752	-0.711181	1.330986	0.243779	-0.391304	-0.125531	-0.627930	0.260254	-0.438477	0.049050	0.000016	0.100446	0.243084	-0.234183	-0.020664	-0.941085	-4.817218	-26.796194	-149.885874
06783		5.695813	-1.206921	8.998005	-1.081608	-0.094537	0.849588	0.220392	-0.236113	-0.156271	-0.632568	0.269043	-0.443115	0.056842	-0.012213	0.090034	0.242583	-0.235044	-0.022154	-0.940966	-4.654650	-26.941766	-149.972109
06784		6.077995	-2.005041	8.659597	-1.885821	0.424973	0.780413	0.270429	-0.190487	-0.144074	-0.641846	0.271240	-0.451904	0.060683	-0.020211	0.086627	0.242242	-0.235780	-0.023884	-0.940827	-4.463409	-27.079558	-150.047070
06785		6.006911	0.054252	8.473898	-0.948926	-1.351040	0.442408	0.287264	-0.138859	-0.164943	-0.648682	0.275391	-0.456299	0.060011	0.000371	0.084781	0.241789	-0.236099	-0.025581	-0.940819	-4.256899	-27.169440	-150.144898
06786		4.867251	-0.570052	8.920943	-0.165627	-0.186973	0.362569	0.228442	-0.155210	-0.156055	-0.657715	0.279785	-0.454102	0.048599	-0.005840	0.089241	0.241346	-0.236718	-0.027084	-0.940735	-4.084695	-27.287243	-150.230281
06787		4.870286	-0.077318	9.179983	0.177603	-0.548000	0.563526	0.222194	-0.183735	-0.125773	-0.664551	0.281738	-0.456543	0.048618	-0.000906	0.091844	0.240993	-0.237331	-0.028483	-0.940630	-3.927264	-27.400666	-150.301699
06788		4.930555	-0.548036	8.901200	-0.200655	-0.175033	0.374124	0.173865	-0.168107	-0.101475	-0.673828	0.290527	-0.463379	0.049228	-0.005583	0.089049	0.240739	-0.238082	-0.029680	-0.940468	-3.802001	-27.523189	-150.352235
06789		4.724320	-0.700710	9.062057	-0.035144	0.103370	0.430314	0.165047	-0.197434	-0.074478	-0.685303	0.294678	-0.461182	0.047151	-0.007099	0.090661	0.240556	-0.238835	-0.030766	-0.940289	-3.692297	-27.642236	-150.390719
06790		5.399261	-0.406040	8.728686	-0.547457	-0.482533	0.433006	0.153415	-0.227270	-0.049329	-0.685303	0.292480	-0.465576	0.053892	-0.004141	0.087345	0.240513	-0.239894	-0.031876	-0.939994	-3.595056	-27.796374	-150.405807
06791		5.097519	-0.307952	8.630393	-0.297946	-0.431296	0.201721	0.123467	-0.227743	-0.037773	-0.692383	0.303467	-0.461182	0.050876	-0.003142	0.086360	0.240448	-0.240844	-0.032759	-0.939737	-3.520421	-27.931336	-150.419873
06792		5.220829	-0.357972	8.651689	-0.387909	-0.414013	0.282608	0.109001	-0.242572	-0.030369	-0.696777	0.301270	-0.465576	0.052103	-0.003635	0.086578	0.240437	-0.242030	-0.033655	-0.939403	-3.454322	-28.093498	-150.422595
06793		4.928312	-0.607179	8.625929	-0.274539	-0.051313	0.136459	0.093446	-0.233142	-0.034604	-0.706055	0.305420	-0.458984	0.049181	-0.006121	0.086314	0.240348	-0.243041	-0.034400	-0.939138	-3.397707	-28.231410	-150.434786
06794		4.636689	-1.017038	8.897161	-0.105133	0.508197	0.258229	0.108807	-0.225167	-0.045220	-0.705811	0.303223	-0.458984	0.046264	-0.010229	0.089018	0.240269	-0.244142	-0.035292	-0.938840	-3.326611	-28.384041	-150.448258
06795		4.936898	-0.775623	8.541320	-0.364671	0.120925	0.075742	0.122831	-0.217618	-0.057527	-0.712891	0.309814	-0.450195	0.049274	-0.007823	0.085462	0.240111	-0.245039	-0.036184	-0.938612	-3.245527	-28.513799	-150.476358
06796		5.761402	-0.672029	8.301554	-1.037141	-0.347999	0.255299	0.141077	-0.208330	-0.055454	-0.717529	0.314209	-0.454590	0.057526	-0.006795	0.083071	0.240025	-0.246019	-0.037219	-0.938338	-3.152250	-28.656937	-150.497680
06797		5.249442	0.090447	8.623625	-0.133090	-0.717663	0.257017	0.106130	-0.199850	-0.044742	-0.719727	0.311768	-0.447998	0.052408	0.000847	0.086289	0.239908	-0.246855	-0.037995	-0.938117	-3.084081	-28.776059	-150.518576
06798		4.725110	-0.034883	8.838332	0.320197	-0.321714	0.199202	0.087969	-0.199983	-0.026694	-0.721924	0.311768	-0.450195	0.047163	-0.000394	0.088430	0.240137	-0.247824	-0.038705	-0.937774	-3.040304	-28.907339	-150.489814
06799		4.724010	-0.119897	8.863934	0.308202	-0.225391	0.224949	0.052575	-0.213619	-0.015905	-0.724121	0.313965	-0.445801	0.047145	-0.001226	0.088689	0.240086	-0.248793	-0.039211	-0.937509	-3.011972	-29.033437	-150.491643
06800		4.218632	0.006987	9.054715	0.857208	-0.068293	0.139461	0.046828	-0.204085	0.000163	-0.726563	0.313965	-0.441406	0.042094	0.000049	0.090590	0.240381	-0.249834	-0.039703	-0.937136	-2.999769	-29.166251	-150.446251
06801		4.611200	0.041990	8.729092	0.446800	-0.320027	0.044284	0.012123	-0.206149	0.013335	-0.738037	0.320313	-0.439209	0.046022	0.000418	0.087338	0.240418	-0.250822	-0.039974	-0.936851	-3.003809	-29.287198	-150.429230
06802		5.354016	0.175395	8.351278	-0.201428	-0.822043	0.072844	-0.002707	-0.222251	0.036942	-0.735596	0.315918	-0.441406	0.053447	0.001765	0.083572	0.240807	-0.252015	-0.040215	-0.936420	-3.031266	-29.429470	-150.360657
06803		5.027729	0.057297	8.592745	0.120464	-0.522418	0.128597	-0.021429	-0.214633	0.032828	-0.735352	0.313721	-0.438965	0.050185	0.000590	0.085981	0.240891	-0.253086	-0.040315	-0.936106	-3.061127	-29.554667	-150.330374
06804		4.734100	-0.691065	8.461797	-0.046392	0.244257	-0.095207	-0.026119	-0.219154	0.034766	-0.735596	0.318115	-0.437012	0.047249	-0.006891	0.084671	0.241212	-0.254294	-0.040450	-0.935690	-3.100244	-29.695752	-150.266808
06805		4.760343	-0.765126	8.237540	-0.184525	0.260833	-0.273231	-0.008510	-0.187348	-0.004553	-0.733398	0.322754	-0.428223	0.047526	-0.007649	0.082420	0.241141	-0.255214	-0.040625	-0.935450	-3.110225	-29.806472	-150.261906
06806		5.058943	-0.622434	8.443817	-0.230619	0.057250	0.047429	0.028317	-0.159968	-0.032593	-0.735352	0.313721	-0.430176	0.050521	-0.006245	0.084478	0.241251	-0.256059	-0.041028	-0.935173	-3.096005	-29.915045	-150.241695
06807		5.205450	-0.721240	8.023449	-0.568973	0.007783	-0.238304	0.028237	-0.139153	-0.052880	-0.735352	0.311523	-0.423584	0.051997	-0.007237	0.080270	0.241012	-0.256699	-0.041379	-0.935044	-3.068134	-29.999682	-150.270459
06808		5.392733	-0.204454	8.227362	-0.360438	-0.475387	0.008562	0.032125	-0.115553	-0.068545	-0.739990	0.313721	-0.427979	0.053879	-0.002076	0.082304	0.240910	-0.257333	-0.041797	-0.934877	-3.036629	-30.085250	-150.283252
06809		5.531159	0.064016	8.251389	-0.318150	-0.756772	0.087278	0.004989	-0.115227	-0.053120	-0.746582	0.309082	-0.429932	0.055264	0.000623	0.082546	0.240643	-0.257888	-0.042011	-0.934783	-3.021438	-30.156183	-150.313150
06810		4.762593	-0.420700	8.568832	0.189667	0.071218	-0.002330	-0.020352	-0.116602	-0.038664	-0.739746	0.306885	-0.425537	0.047575	-0.004207	0.085716	0.240594	-0.258599	-0.042150	-0.934593	-3.028923	-30.241837	-150.308737
06811		4.481280	-0.168382	9.028143	0.745772	0.068618	0.240008	-0.038928	-0.160408	-0.047228	-0.746582	0.311279	-0.427734	0.044740	-0.001677	0.090318	0.240289	-0.259419	-0.042205	-0.934442	-3.041566	-30.338444	-150.333185
06812		4.930972	-0.096845	8.834262	0.373501	-0.218468	0.295763	-0.078690	-0.215205	-0.057607	-0.748535	0.304443	-0.418701	0.049214	-0.000948	0.088396	0.240037	-0.260656	-0.042216	-0.934162	-3.077059	-30.481226	-150.340158
06813		5.228384	-0.268686	8.366682	-0.122872	-0.282276	0.052134	-0.103558	-0.285330	-0.040800	-0.753174	0.308838	-0.418945	0.052164	-0.002654	0.083743	0.239651	-0.262138	-0.042112	-0.933851	-3.131124	-30.649130	-150.355767
06814		5.442641	0.640467	8.684922	0.330091	-1.102622	0.391995	-0.151789	-0.356361	0.014270	-0.759766	0.304443	-0.416504	0.054271	0.006475	0.086941	0.239568	-0.264140	-0.041861	-0.933319	-3.233836	-30.871232	-150.314662
06815		5.460675	0.544371	8.556919	0.255191	-1.049994	0.295150	-0.228872	-0.420499	0.072268	-0.762207	0.311035	-0.418945	0.054425	0.005561	0.085677	0.239514	-0.266424	-0.041185	-0.932714	-3.401481	-31.112752	-150.248936
06816		4.939244	0.079391	8.654604	0.527747	-0.399559	0.130459	-0.290846	-0.493310	0.115042	-0.770996	0.304199	-0.412109	0.049178	0.000948	0.086666	0.239667	-0.269250	-0.040320	-0.931900	-3.621788	-31.409801	-150.135619
06817		4.878982	-0.124215	8.920042	0.669028	-0.144143	0.332177	-0.311078	-0.580702	0.159384	-0.775879	0.315186	-0.405518	0.048531	-0.001065	0.089343	0.239872	-0.272393	-0.039335	-0.930976	-3.872728	-31.739224	-150.001859
06818		4.970616	0.211631	9.064305	0.908362	-0.452278	0.477268	-0.374242	-0.691229	0.194209	-0.782227	0.306152	-0.396484	0.049390	0.002334	0.090810	0.240197	-0.276254	-0.038215	-0.929800	-4.175308	-32.146069	-149.827192
06819		4.729128	0.102731	9.545500	1.368082	-0.160715	0.751088	-0.470599	-0.862833	0.222342	-0.793701	0.310303	-0.387695	0.046878	0.001304	0.095655	0.240412	-0.280903	-0.036739	-0.928410	-4.552766	-32.632681	-149.630886
06820		4.117377	-0.110637	9.938202	2.033901	0.365260	0.744831	-0.584007	-1.097796	0.227053	-0.795898	0.310059	-0.369873	0.040628	-0.000769	0.099609	0.240440	-0.286900	-0.035091	-0.926631	-5.004190	-33.269358	-149.411676
06821		3.491446	-0.190322	10.503092	2.890312	0.813215	0.842057	-0.727621	-1.387932	0.227103	-0.816162	0.314209	-0.349854	0.034186	-0.001481	0.105276	0.240197	-0.294270	-0.033045	-0.924456	-5.559580	-34.052584	-149.166640
06822		3.773398	-0.091317	10.820797	3.099932	0.673476	1.199539	-0.850782	-1.756938	0.269152	-0.818604	0.316406	-0.334473	0.036782	-0.000402	0.108536	0.239836	-0.303605	-0.030887	-0.921601	-6.220790	-35.059091	-148.859311
06823		3.796758	-0.643035	10.931978	3.134756	1.180963	1.282763	-1.005730	-2.195495	0.294311	-0.834229	0.318115	-0.305420	0.036773	-0.005824	0.109758	0.239308	-0.314984	-0.028420	-0.917992	-7.025047	-36.292500	-148.472971
06824		3.994874	-0.821255	11.048549	3.285762	1.301892	1.421319	-1.098562	-2.694614	0.296361	-0.850342	0.326660	-0.267822	0.038467	-0.007546	0.111053	0.238445	-0.328831	-0.026191	-0.913416	-7.929263	-37.821900	-148.018833
06825		3.847347	-0.356448	11.266199	4.083195	1.032325	1.327492	-1.268971	-3.260415	0.332843	-0.861328	0.323975	-0.225586	0.036635	-0.002785	0.113289	0.237413	-0.345260	-0.023715	-0.907672	-9.032463	-39.644719	-147.422133
06826		3.315458	-1.928570	11.500284	4.289196	2.755722	1.185353	-1.235442	-3.888706	0.361021	-0.870361	0.330322	-0.190186	0.030943	-0.018515	0.115735	0.236432	-0.364479	-0.022155	-0.900425	-10.238192	-41.824217	-146.654050
06827		3.201376	-1.651545	11.727540	5.102773	2.701426	1.010799	-1.205068	-4.578015	0.349074	-0.875000	0.334717	-0.136963	0.029345	-0.015753	0.118064	0.235231	-0.386481	-0.021482	-0.891537	-11.581167	-44.365246	-145.703288
06828		2.663423	-0.320093	12.537895	7.079122	2.044269	0.678358	-1.302555	-5.240530	0.356351	-0.883545	0.327637	-0.076904	0.023342	-0.002338	0.126036	0.233669	-0.411390	-0.021198	-0.880742	-13.197691	-47.270452	-144.486100
06829		2.626317	-1.539097	12.239522	6.940627	3.225440	0.209580	-1.472116	-6.038236	0.293653	-0.887939	0.329590	-0.012451	0.022573	-0.014451	0.123223	0.231178	-0.439560	-0.021139	-0.867696	-15.207546	-50.586436	-142.943495
06830		2.875344	-0.101622	13.751853	9.215318	2.401823	0.512817	-1.530108	-6.999655	0.231740	-0.888184	0.336182	0.053955	0.023919	0.000070	0.138414	0.227939	-0.471539	-0.022121	-0.851590	-17.735791	-54.409818	-140.859822
06831		4.400032	-0.168761	14.632527	9.998018	2.356244	1.494762	-1.927100	-7.915635	0.147804	-0.881104	0.331543	0.145020	0.038166	-0.000238	0.147920	0.222956	-0.507085	-0.022553	-0.832254	-21.258364	-58.660930	-137.966884
06832		9.705559	-2.558150	15.924292	9.228220	3.317254	6.247261	-2.204260	-8.722980	0.097273	-0.869629	0.327148	0.227295	0.089996	-0.023750	0.163540	0.216561	-0.545413	-0.022887	-0.809384	-26.244456	-63.228450	-133.709555
06833		10.410189	-4.840295	14.031189	7.820956	5.021506	5.746937	-2.049130	-8.104932	-0.280717	-0.844482	0.322998	0.300537	0.098225	-0.047075	0.144860	0.208715	-0.579941	-0.024099	-0.787099	-32.041995	-67.369036	-128.627961
06834		15.663305	-4.620876	13.963278	7.966923	3.706659	9.788006	-1.769334	-8.110262	-0.591627	-0.826172	0.314209	0.369385	0.150656	-0.045386	0.146228	0.200089	-0.613191	-0.027337	-0.763685	-39.559826	-71.353387	-121.681857
06835		19.292867	-6.389099	14.272934	8.597409	5.030193	12.930428	-1.831569	-7.158842	-0.861768	-0.801025	0.307861	0.431641	0.187370	-0.063354	0.150085	0.190058	-0.641837	-0.030112	-0.742305	-48.827671	-74.649263	-113.096145
06836		19.387816	-7.830371	15.570565	10.790830	7.340394	12.750328	-1.591535	-6.052417	-1.320861	-0.772949	0.283691	0.471924	0.188520	-0.078288	0.162088	0.179024	-0.665334	-0.034216	-0.723955	-59.234729	-77.315509	-103.312996
06837		13.762551	-3.672433	13.540567	11.465079	4.572079	5.477278	-1.751255	-5.405600	-1.597714	-0.756592	0.263916	0.514404	0.133601	-0.036594	0.139374	0.166403	-0.685928	-0.037998	-0.707368	-72.174556	-79.436577	-91.133556
06838		7.885276	-7.199635	15.252564	12.809732	9.668361	-0.378991	-2.408401	-4.914536	-1.396800	-0.739746	0.239746	0.557129	0.074563	-0.070668	0.155250	0.152184	-0.704805	-0.038369	-0.691823	-88.737808	-80.707805	-75.723453
06839		18.359790	-9.283967	25.438951	23.107705	12.892087	9.426034	-1.705906	-2.940126	-2.018071	-0.734619	0.222168	0.563965	0.178890	-0.092471	0.257832	0.138586	-0.715771	-0.041793	-0.683168	-101.268248	-81.716785	-64.037389
06840		14.433172	-9.149312	25.570371	23.320119	13.576541	4.942282	-0.557161	0.074451	-2.816601	-0.740723	0.201904	0.549072	0.143126	-0.092802	0.255908	0.126955	-0.715248	-0.049916	-0.685428	-103.963311	-83.302509	-61.642811
06841		-4.798356	-4.053848	20.527397	18.682598	9.419990	-14.613530	-0.375869	1.567655	-3.154675	-0.757813	0.177246	0.529541	-0.047000	-0.039406	0.205720	0.115158	-0.709239	-0.058889	-0.693001	-99.020871	-85.253170	-66.828351
06842		-6.384795	-2.726167	16.668287	15.397436	7.028137	-16.100645	-0.928108	1.535280	-3.468418	-0.776611	0.143555	0.512695	-0.063016	-0.025389	0.167289	0.100178	-0.703285	-0.067015	-0.700616	-87.810530	-87.303909	-78.606534
06843		-5.714242	-4.529021	13.899565	12.513595	7.746641	-15.266739	-1.439800	1.463457	-3.492829	-0.782471	0.116943	0.504395	-0.056889	-0.043291	0.139729	0.083337	-0.697590	-0.073488	-0.707830	-37.520106	-88.848722	-129.745758
06844		-1.111432	-7.196158	12.790024	10.994006	9.749315	-10.638035	-1.572036	1.690535	-3.253210	-0.792725	0.087891	0.478516	-0.011187	-0.070771	0.128554	0.066838	-0.690899	-0.078472	-0.715565	31.148265	-87.790017	160.648999
06845		0.899822	-9.594582	11.922939	9.735756	11.790043	-8.703700	-1.281474	2.287769	-2.763937	-0.807373	0.061035	0.452637	0.009046	-0.095304	0.119738	0.053396	-0.681956	-0.082636	-0.724745	39.870386	-85.799716	151.176575
06846		1.510005	-9.754598	11.067043	8.910042	11.726425	-8.077103	-0.796980	2.951347	-2.096717	-0.831543	0.042725	0.415283	0.015714	-0.097267	0.110830	0.044189	-0.670448	-0.085994	-0.735630	37.963988	-83.722300	152.615359
06847		1.488783	-8.402998	10.330355	8.432793	10.231848	-7.880116	-0.454301	3.555131	-1.321909	-0.840088	0.029297	0.386719	0.016168	-0.083899	0.103214	0.039312	-0.656806	-0.087932	-0.747882	33.271216	-81.627067	157.080810
06848		1.261789	-6.578092	9.618938	8.033602	8.279540	-7.742123	-0.387485	4.032374	-0.513471	-0.855713	0.027100	0.340332	0.014387	-0.065630	0.096038	0.037767	-0.641388	-0.087233	-0.761305	27.508515	-79.474283	162.676376
06849		1.615188	-5.070759	9.130941	7.660782	6.701735	-6.970190	-0.553259	4.404661	0.289535	-0.860840	0.035889	0.300293	0.018232	-0.050430	0.091063	0.038995	-0.624720	-0.083324	-0.775411	21.385227	-77.246076	168.600476
06850		1.747906	-4.502763	8.480818	6.974626	5.973184	-6.509270	-0.780671	4.740011	0.999261	-0.878906	0.040039	0.255859	0.019708	-0.044603	0.084533	0.042331	-0.606651	-0.076104	-0.790184	15.273323	-74.834740	174.419483
06851		1.750236	-4.408833	8.093595	6.470043	5.726278	-6.160830	-0.904273	4.992119	1.553372	-0.879639	0.055664	0.210938	0.019858	-0.043575	0.080658	0.047599	-0.587525	-0.066716	-0.805045	9.715460	-72.235663	179.670185
06852		2.537336	-3.523705	8.156777	6.227673	4.739440	-4.901580	-0.937359	5.199107	1.959205	-0.889160	0.069092	0.155273	0.027826	-0.034592	0.081029	0.054417	-0.567153	-0.055799	-0.819916	4.856454	-69.408051	-175.770193
06853		3.529189	-2.547093	8.544378	6.109597	3.631431	-3.377797	-0.983706	5.407486	2.243713	-0.894775	0.093506	0.108154	0.037866	-0.024638	0.084566	0.062300	-0.545658	-0.043888	-0.834535	0.752480	-66.378297	-171.953500
06854		4.347116	-1.742886	9.171903	6.110073	2.639044	-1.955984	-1.033981	5.621972	2.421539	-0.891113	0.113770	0.054443	0.046230	-0.016410	0.090532	0.070789	-0.522687	-0.031068	-0.849012	-2.693172	-63.117290	-168.813263
06855		5.242775	-0.983464	9.944418	6.057485	1.606722	-0.430346	-1.090276	5.821586	2.491915	-0.887207	0.129639	-0.005859	0.055405	-0.008620	0.097909	0.079378	-0.498509	-0.017832	-0.863058	-5.499006	-59.690956	-166.333558
06856		6.282546	-0.768599	10.972667	5.902153	1.010307	1.347434	-1.163676	5.998539	2.460058	-0.874756	0.149902	-0.064209	0.066161	-0.006255	0.107815	0.087559	-0.472920	-0.004160	-0.876734	-7.781375	-56.096509	-164.443183
06857		8.158467	-2.101313	12.035052	4.868682	1.687660	3.941808	-1.184696	6.162545	2.308236	-0.859863	0.170410	-0.126709	0.085472	-0.019338	0.117874	0.094950	-0.446241	0.009210	-0.889814	-9.542957	-52.409803	-163.113334
06858		10.614709	-4.107135	12.755195	2.803097	2.748449	6.822054	-0.956617	6.326930	2.095455	-0.831299	0.186768	-0.178223	0.110532	-0.039329	0.124292	0.101766	-0.418069	0.021265	-0.902447	-10.763163	-48.611284	-162.259747
06859		12.760712	-5.126442	12.984481	0.398210	2.779528	8.887437	-0.574938	6.436182	1.952315	-0.807373	0.202881	-0.236572	0.132189	-0.049623	0.125784	0.108628	-0.388909	0.031223	-0.914317	-11.506044	-44.780204	-161.695738
06860		14.169147	-5.293646	13.199149	-1.609004	2.091163	10.084458	-0.235050	6.340186	1.937667	-0.769287	0.208252	-0.276855	0.146283	-0.051382	0.127463	0.115950	-0.359400	0.039618	-0.925104	-11.975284	-40.978613	-161.223085
06861		18.020701	-3.314969	13.553045	-5.008629	-1.332935	12.376892	-0.072123	6.078961	2.133589	-0.727051	0.218018	-0.314941	0.184554	-0.031149	0.129976	0.124423	-0.330750	0.047308	-0.934283	-12.394987	-37.319217	-160.628313
06862		23.822884	4.175289	13.979267	-8.855893	-10.836222	14.359310	-0.561697	5.764988	2.731001	-0.691895	0.234375	-0.339844	0.241520	0.045416	0.132738	0.134792	-0.303217	0.058131	-0.941547	-13.292214	-33.732433	-159.659404
06863		27.529416	1.644242	10.831907	-15.296052	-10.404108	13.325148	-1.504997	5.595557	3.367788	-0.665527	0.248291	-0.358154	0.277840	0.021883	0.100417	0.146662	-0.276776	0.074078	-0.946783	-14.840004	-30.156567	-158.370113
06864		28.384366	-3.819975	6.665660	-20.531101	-6.390936	10.237897	-1.166002	5.233156	3.705888	-0.631836	0.253418	-0.375977	0.286099	-0.032551	0.059390	0.160551	-0.251222	0.088615	-0.950399	-16.188567	-26.683902	-156.959498
06865		29.389656	-4.295843	4.549826	-23.327537	-7.187789	7.702904	0.110742	4.679472	3.788177	-0.612305	0.267090	-0.398682	0.295597	-0.037392	0.038573	0.176547	-0.227139	0.096581	-0.952844	-16.747560	-23.500335	-155.498613
06866		28.388123	-6.708891	2.382638	-24.834522	-5.344579	4.713517	1.576356	4.288418	3.729650	-0.596191	0.258545	-0.422852	0.285485	-0.061928	0.017214	0.193936	-0.203338	0.097127	-0.954782	-16.394950	-20.524839	-154.048396
06867		31.316462	-0.666285	-0.234254	-26.726861	-12.701906	0.449772	3.015566	3.654521	3.888329	-0.583008	0.263428	-0.447510	0.313101	-0.000481	-0.008103	0.213701	-0.181019	0.090201	-0.955734	-15.218488	-17.906265	-152.380658
06868		30.142319	-0.386393	-5.274430	-27.439612	-12.980477	-5.958417	3.585128	3.336178	3.956731	-0.567383	0.268311	-0.476563	0.300472	0.003093	-0.057748	0.234223	-0.159340	0.080232	-0.955674	-13.684815	-15.484075	-150.588815
06869		23.756101	-0.276609	-8.442474	-22.717188	-10.753677	-11.773545	3.709350	2.715654	3.456489	-0.560547	0.259521	-0.498535	0.236368	0.002932	-0.087621	0.252512	-0.140604	0.068427	-0.954875	-11.972556	-13.530376	-148.949600
06870		28.613256	5.105621	-9.805086	-24.148138	-18.486848	-13.804054	2.809101	1.971869	2.360966	-0.549072	0.257568	-0.511963	0.284512	0.055818	-0.100100	0.265020	-0.126820	0.059192	-0.954032	-10.620087	-12.157839	-147.816295
06871		29.842254	9.932840	-10.824424	-22.582419	-23.632959	-15.966483	0.700148	1.452865	1.377001	-0.535645	0.257813	-0.520996	0.296932	0.101759	-0.110051	0.271594	-0.118581	0.058663	-0.953275	-10.350939	-11.198952	-147.177303
06872		29.371380	6.176618	-12.806399	-24.360426	-20.219095	-17.723435	-1.198224	0.796624	0.797075	-0.534180	0.275635	-0.519043	0.292952	0.062161	-0.129604	0.274451	-0.116240	0.065936	-0.952269	-11.111334	-10.672279	-146.804151
06873		28.311274	-0.523828	-14.349938	-27.266370	-13.865659	-18.298628	-1.456442	0.025283	0.405697	-0.534668	0.286865	-0.512695	0.283106	-0.005709	-0.143495	0.275527	-0.118016	0.073154	-0.951213	-11.991028	-10.614744	-146.573817
06874		24.984448	-4.347695	-13.406518	-26.275187	-8.918673	-17.087743	-0.493860	-0.794849	0.124263	-0.538818	0.280029	-0.501465	0.250401	-0.043651	-0.132963	0.276141	-0.122550	0.074468	-0.950359	-12.308962	-11.058123	-146.399918
06875		15.984446	-4.416029	-16.674829	-19.953842	-3.911606	-21.626902	1.681411	-2.529410	-1.100214	-0.553955	0.266357	-0.492188	0.161698	-0.043654	-0.165079	0.272856	-0.132675	0.062318	-0.950823	-11.281296	-12.608808	-146.726110
06876		-1.561586	-10.373924	11.788578	-0.351014	9.303407	2.927122	1.693216	-4.117195	-2.080041	-0.575684	0.250244	-0.469482	-0.019110	-0.104544	0.116633	0.265323	-0.150705	0.047237	-0.951136	-10.134393	-15.165946	-147.474058
06877		4.847800	-6.662291	28.950147	2.018020	3.478188	20.015112	2.365041	-2.929065	-1.958993	-0.592773	0.227539	-0.446777	0.043562	-0.070488	0.289345	0.258427	-0.161959	0.030634	-0.951865	-8.541371	-17.007312	-148.341814
06878		9.226790	0.869773	12.402283	-3.038284	-4.854239	4.571142	2.313114	-1.767462	-0.808394	-0.592285	0.214355	-0.446533	0.091197	0.006886	0.124919	0.256721	-0.167641	0.016679	-0.951689	-7.120011	-18.090545	-148.672382
06879		6.975381	2.957162	6.485957	-2.033155	-5.556374	-1.784433	1.645897	-2.734358	-0.296127	-0.607910	0.211670	-0.424072	0.068899	0.028929	0.066045	0.256890	-0.178576	0.005104	-0.949785	-6.184454	-19.669630	-148.657356
06880		17.521770	8.663721	16.405430	-4.030961	-14.508195	10.788753	1.137459	-2.985554	-0.313006	-0.607910	0.209473	-0.406250	0.172872	0.085421	0.167135	0.256493	-0.191436	-0.004427	-0.947388	-5.536024	-21.407494	-148.654902
06881		16.522030	8.405356	14.602390	-3.629262	-13.606695	9.122064	0.534501	-1.982477	-0.252918	-0.612305	0.209473	-0.399658	0.163866	0.083452	0.147876	0.255752	-0.200159	-0.009727	-0.945744	-5.217641	-22.555301	-148.694428
06882		9.835960	2.883188	10.630304	-2.277139	-5.861916	3.548017	0.192634	-1.896609	-0.236597	-0.610107	0.209473	-0.390625	0.097379	0.028613	0.107257	0.254763	-0.209030	-0.013342	-0.944047	-5.093663	-23.669877	-148.727474
06883		12.118702	-0.341511	11.192696	-5.192330	-3.930045	5.347901	0.121523	-1.764533	0.124549	-0.610352	0.216064	-0.390869	0.120195	-0.003408	0.112988	0.255352	-0.217239	-0.016017	-0.941991	-5.099441	-24.673901	-148.549844
06884		11.467773	2.914052	11.043079	-2.944859	-6.369400	4.771759	0.143648	-1.249870	0.247900	-0.612793	0.224854	-0.377686	0.113948	0.029202	0.111165	0.256614	-0.223133	-0.018070	-0.940231	-5.114881	-25.395754	-148.315322
06885		6.967761	4.997710	10.356072	1.404245	-6.085136	2.094157	-0.051079	-0.899611	0.270526	-0.604004	0.227295	-0.391113	0.069143	0.050097	0.103860	0.257746	-0.227485	-0.018666	-0.938866	-5.243836	-25.898453	-148.091170
06886		6.815740	2.380855	10.079881	0.235939	-3.764422	1.998291	-0.326188	-0.795617	0.291171	-0.608887	0.238281	-0.393555	0.067721	0.024072	0.101030	0.258711	-0.231844	-0.017892	-0.937548	-5.534094	-26.358589	-147.850088
06887		7.987200	-1.570388	9.406914	-2.792997	-1.016753	2.266896	-0.256666	-0.499759	0.411335	-0.602539	0.245117	-0.400391	0.079668	-0.015419	0.094288	0.260296	-0.234588	-0.016843	-0.936446	-5.815414	-26.623569	-147.555076
06888		5.836709	-0.749043	9.089379	-0.830882	-0.769380	0.955897	-0.257856	-0.309181	0.528716	-0.598633	0.260742	-0.403076	0.058246	-0.007219	0.090993	0.262489	-0.236597	-0.015484	-0.935351	-6.124824	-26.790594	-147.188542
06889		4.413092	-1.186841	9.520042	0.253231	0.327606	0.739254	-0.292587	-0.180398	0.535911	-0.605713	0.271729	-0.416504	0.044076	-0.011611	0.095257	0.264635	-0.237899	-0.013703	-0.934444	-6.455834	-26.863022	-146.832450
06890		3.116254	-3.107848	9.516169	0.294988	2.578208	0.345702	-0.279095	-0.201763	0.513974	-0.603760	0.278564	-0.425537	0.031146	-0.030866	0.095236	0.266734	-0.239427	-0.012120	-0.933478	-6.772132	-26.966233	-146.480718
06891		5.965506	-2.523610	8.695246	-1.857540	0.519311	0.857030	-0.146908	-0.200281	0.495301	-0.599609	0.289795	-0.427979	0.059630	-0.025024	0.087031	0.268858	-0.240621	-0.011093	-0.932574	-7.010239	-27.049426	-146.147613
06892		5.414159	-1.653940	8.218245	-1.186051	-0.051950	0.095825	-0.208828	-0.148764	0.442582	-0.604492	0.300781	-0.437256	0.054117	-0.016334	0.082240	0.270704	-0.241801	-0.009847	-0.931748	-7.265830	-27.124597	-145.844333
06893		5.328074	-2.486957	8.386817	-1.444013	0.698596	0.303573	-0.165433	-0.142233	0.371968	-0.618164	0.302734	-0.443848	0.053267	-0.024701	0.083927	0.272231	-0.242740	-0.008804	-0.931069	-7.477717	-27.181380	-145.593581
06894		5.366823	-2.472088	8.421971	-1.422369	0.651822	0.355672	-0.098964	-0.163247	0.327590	-0.618652	0.313721	-0.444092	0.053640	-0.024591	0.084276	0.273670	-0.243832	-0.008226	-0.930367	-7.638786	-27.271563	-145.361626
06895		5.523919	-1.646336	8.114520	-1.227359	-0.189690	0.062893	-0.064523	-0.194154	0.297916	-0.630371	0.326904	-0.453125	0.055185	-0.016355	0.081204	0.274969	-0.244869	-0.007813	-0.929715	-7.774176	-27.362212	-145.152967
06896		6.192573	-1.251648	8.286139	-1.405613	-0.847818	0.477118	-0.062796	-0.179920	0.274806	-0.636963	0.324707	-0.453125	0.061868	-0.012405	0.082921	0.276203	-0.245987	-0.007489	-0.929057	-7.901061	-27.465068	-144.952462
06897		5.756964	-0.609907	8.545406	-0.616603	-1.144324	0.426886	-0.091536	-0.099482	0.276360	-0.637695	0.342285	-0.460205	0.057535	-0.005980	0.085485	0.277371	-0.246620	-0.006846	-0.928546	-8.042555	-27.502851	-144.765284
06898		5.760012	-1.359023	8.329792	-1.083409	-0.561379	0.332318	-0.136351	-0.047303	0.270496	-0.642090	0.342285	-0.462402	0.057599	-0.013456	0.083321	0.278498	-0.247223	-0.006002	-0.928054	-8.205414	-27.530138	-144.578892
06899		5.664041	-1.085928	8.333856	-0.854521	-0.764522	0.257020	-0.128815	-0.016824	0.273189	-0.644775	0.353271	-0.462646	0.056648	-0.010728	0.083350	0.279606	-0.247523	-0.005075	-0.927646	-8.364032	-27.520411	-144.401135
06900		5.170639	-0.637601	8.836721	-0.018608	-0.835909	0.411330	-0.166348	0.014557	0.272643	-0.656250	0.359863	-0.467041	0.051721	-0.006232	0.088369	0.280705	-0.247881	-0.004003	-0.927224	-8.542167	-27.511656	-144.219118
06901		4.236425	-1.070365	9.070060	0.545904	0.019438	0.240198	-0.199480	0.065443	0.275067	-0.663330	0.368652	-0.462891	0.042409	-0.010555	0.090697	0.281735	-0.247897	-0.002630	-0.926912	-8.737962	-27.454190	-144.048283
06902		4.556866	-1.167351	8.893388	0.195840	-0.119435	0.245513	-0.193805	0.075308	0.269150	-0.667969	0.372803	-0.462891	0.045618	-0.011526	0.088928	0.282783	-0.248010	-0.001349	-0.926565	-8.927675	-27.410191	-143.874882
06903		4.733014	-0.637044	8.680871	0.260310	-0.718002	0.065642	-0.221531	0.065415	0.265751	-0.661377	0.375244	-0.462891	0.047367	-0.006211	0.086800	0.283740	-0.248056	0.000114	-0.926261	-9.132829	-27.352549	-143.710583
06904		5.425592	-1.276461	8.154458	-0.798654	-0.650357	0.010788	-0.257270	0.065374	0.263983	-0.670654	0.381836	-0.469727	0.054299	-0.012588	0.081543	0.284682	-0.248302	0.001668	-0.925905	-9.357334	-27.313463	-143.540125
06905		4.643378	-1.132934	8.458952	-0.010950	-0.349215	-0.103095	-0.260064	0.063605	0.262385	-0.673340	0.392822	-0.465576	0.046475	-0.011158	0.084589	0.285574	-0.248410	0.003303	-0.925597	-9.583130	-27.256041	-143.378420
06906		3.866488	-1.395649	8.798307	0.577882	0.296959	-0.123233	-0.285765	0.043641	0.254946	-0.673584	0.399414	-0.467773	0.038702	-0.013781	0.087994	0.286527	-0.248782	0.004964	-0.925195	-9.826097	-27.225884	-143.200099
06907		3.939387	-1.552159	8.431586	0.288907	0.310393	-0.387205	-0.253583	0.002123	0.212607	-0.673584	0.403809	-0.461426	0.039411	-0.015373	0.084335	0.287196	-0.249165	0.006419	-0.924875	-10.036399	-27.206927	-143.063776
06908		3.927040	-1.676199	8.382172	0.227550	0.390812	-0.416543	-0.224927	-0.029618	0.196070	-0.676025	0.406006	-0.463623	0.039274	-0.016629	0.083846	0.287986	-0.249782	0.007626	-0.924454	-10.232390	-27.221544	-142.910594
06909		3.759625	-1.732626	8.259149	0.277090	0.493306	-0.591508	-0.197881	-0.096284	0.153112	-0.685303	0.414795	-0.454834	0.037570	-0.017216	0.082627	0.288451	-0.250541	0.008607	-0.924095	-10.398710	-27.263349	-142.800750
06910		4.211959	-2.015154	7.666572	-0.447871	0.400101	-0.856290	-0.139165	-0.163044	0.095607	-0.682861	0.410400	-0.452637	0.042067	-0.020078	0.076714	0.288874	-0.251655	0.009097	-0.923655	-10.523142	-27.363151	-142.697298
06911		3.403464	-2.802658	7.581018	-0.312278	1.478949	-1.174085	-0.076662	-0.251550	0.088181	-0.685303	0.412598	-0.452637	0.033952	-0.027983	0.075864	0.289197	-0.252957	0.009213	-0.923197	-10.609995	-27.498803	-142.609886
06912		3.178541	-2.702448	8.195169	0.213843	1.606057	-0.760510	0.025175	-0.331949	0.068689	-0.689941	0.419189	-0.439453	0.031659	-0.027024	0.082001	0.289678	-0.254617	0.008663	-0.922595	-10.641163	-27.697115	-142.506957
06913		3.538533	-2.703727	8.170605	-0.029828	1.430410	-0.617956	0.115573	-0.345966	-0.046712	-0.696533	0.416748	-0.443848	0.035238	-0.027093	0.081751	0.289625	-0.256081	0.007584	-0.922216	-10.583767	-27.900111	-142.493741
06914		4.186300	-3.059993	7.666659	-0.894595	1.343557	-0.698921	0.226451	-0.344660	-0.162520	-0.694336	0.414551	-0.443604	0.041706	-0.030721	0.076704	0.289288	-0.257513	0.005793	-0.921936	-10.431439	-28.129739	-142.537794
06915		4.753417	-2.810045	7.520696	-1.217592	0.854336	-0.601848	0.310958	-0.348304	-0.257438	-0.698730	0.412354	-0.437012	0.047367	-0.028278	0.075246	0.288512	-0.258710	0.003539	-0.921855	-10.197966	-28.355729	-142.660286
06916		5.559819	-2.382006	7.501720	-1.555282	0.118350	-0.303316	0.378521	-0.337770	-0.329203	-0.702637	0.401123	-0.434570	0.055432	-0.024053	0.075066	0.287599	-0.259889	0.000844	-0.921815	-9.905945	-28.597514	-142.814276
06917		4.459525	-2.016211	7.960517	-0.368957	0.523993	-0.490064	0.398502	-0.330675	-0.397014	-0.707031	0.398682	-0.432129	0.044423	-0.020409	0.079638	0.286288	-0.260875	-0.001969	-0.921943	-9.575823	-28.825988	-143.031704
06918		4.322707	-0.939142	8.699264	0.656640	-0.128141	-0.076310	0.390109	-0.366752	-0.390881	-0.711670	0.398682	-0.432129	0.043049	-0.009645	0.087053	0.285055	-0.262171	-0.004844	-0.921947	-9.254503	-29.089590	-143.232016
06919		4.883925	-0.539813	8.837837	0.546122	-0.671963	0.262102	0.336556	-0.349814	-0.410294	-0.709229	0.396484	-0.427734	0.048673	-0.005647	0.088454	0.283596	-0.263327	-0.007417	-0.922051	-8.953069	-29.327961	-143.460006
06920		4.996376	-0.899002	8.361568	0.058222	-0.445519	-0.041012	0.290898	-0.368409	-0.418392	-0.722412	0.389648	-0.425293	0.049791	-0.009216	0.083694	0.282132	-0.264757	-0.009871	-0.922067	-8.677212	-29.591842	-143.678127
06921		5.373026	-0.502745	8.525601	0.092727	-0.886126	0.237880	0.288408	-0.409678	-0.367979	-0.720459	0.391846	-0.425293	0.053546	-0.005249	0.085358	0.280796	-0.266254	-0.012251	-0.922015	-8.416280	-29.858583	-143.876460
06922		5.626570	-0.266870	8.610006	0.099443	-1.140913	0.412275	0.228424	-0.449091	-0.307497	-0.728760	0.378174	-0.418213	0.056068	-0.002853	0.086223	0.279740	-0.268145	-0.014386	-0.921757	-8.211822	-30.157468	-144.019479
06923		4.549616	-0.568660	9.079168	0.947445	-0.203997	0.312239	0.192714	-0.477825	-0.225828	-0.729004	0.380615	-0.418457	0.045273	-0.005825	0.090894	0.278922	-0.270095	-0.016231	-0.921405	-8.052624	-30.450087	-144.121417
06924		4.610930	-0.534012	9.329800	1.078650	-0.168427	0.550655	0.180007	-0.517785	-0.123427	-0.739990	0.378174	-0.420410	0.045864	-0.005453	0.093412	0.278609	-0.272381	-0.017996	-0.920794	-7.936510	-30.773244	-144.143738
06925		4.446201	-0.340085	9.205204	1.270806	-0.227326	0.333900	0.134567	-0.548014	-0.048622	-0.744629	0.380127	-0.409424	0.044209	-0.003474	0.092171	0.278518	-0.274746	-0.019430	-0.920090	-7.872206	-31.091381	-144.124007
06926		4.909647	-0.032193	9.280555	1.197463	-0.664244	0.596870	0.033402	-0.622454	0.012116	-0.747070	0.384521	-0.405029	0.048807	-0.000334	0.092958	0.278605	-0.277723	-0.020483	-0.919146	-7.890517	-31.463102	-144.048717
06927		5.619646	-0.192341	8.919141	0.504605	-0.921017	0.678506	-0.072238	-0.695150	0.073884	-0.753418	0.375488	-0.400391	0.055887	-0.001870	0.089387	0.278771	-0.281059	-0.021001	-0.918070	-7.995179	-31.855024	-143.933224
06928		5.047558	0.187623	9.216794	1.324793	-0.869445	0.577245	-0.183258	-0.779456	0.162875	-0.758057	0.379883	-0.387207	0.050114	0.002002	0.092362	0.279216	-0.285066	-0.021068	-0.916696	-8.200608	-32.303415	-143.740895
06929		4.755082	0.028525	9.610915	1.736414	-0.491771	0.757240	-0.322957	-0.915260	0.253688	-0.771729	0.384033	-0.382813	0.047110	0.000501	0.096325	0.279818	-0.289769	-0.020489	-0.915050	-8.529686	-32.804387	-143.478151
06930		4.109016	0.023352	9.962759	2.472861	-0.079731	0.676271	-0.529258	-1.079291	0.300579	-0.778564	0.388184	-0.367188	0.040551	0.000559	0.099846	0.280314	-0.295633	-0.019197	-0.913048	-9.006911	-33.409299	-143.158069
06931		4.535628	-1.289469	9.790985	1.554829	0.790532	0.913609	-0.580579	-1.343585	0.313305	-0.782959	0.388184	-0.347168	0.044717	-0.012539	0.098248	0.280748	-0.302636	-0.017951	-0.910642	-9.544657	-34.143387	-142.793946
06932		5.016584	-1.733919	9.543277	1.054834	0.894988	1.019191	-0.801008	-1.668218	0.294171	-0.798584	0.385498	-0.333740	0.049392	-0.016883	0.095915	0.280682	-0.311528	-0.016255	-0.907691	-10.231890	-35.076308	-142.392654
06933		4.720061	-2.103244	9.716968	1.371093	1.420255	1.014141	-0.814042	-2.036632	0.275789	-0.805664	0.394287	-0.307373	0.046236	-0.020571	0.097728	0.280482	-0.321950	-0.014973	-0.904131	-10.967280	-36.197474	-141.935609
06934		4.123639	-2.138607	10.211129	2.270269	1.902294	1.007002	-0.887504	-2.371869	0.193032	-0.825439	0.387207	-0.271484	0.040041	-0.020892	0.102684	0.279645	-0.334064	-0.014027	-0.900002	-11.756843	-37.528912	-141.471680
06935		3.708264	-2.389003	10.598590	2.919464	2.469392	1.011274	-0.980790	-2.771250	0.137623	-0.832764	0.400146	-0.242920	0.035625	-0.023343	0.106602	0.278400	-0.347913	-0.013242	-0.895140	-12.648654	-39.067378	-140.943825
06936		3.373549	-1.691341	11.061214	4.090688	2.235177	0.904100	-1.015725	-3.186540	0.115818	-0.839111	0.393311	-0.207275	0.031976	-0.016331	0.111215	0.276778	-0.363700	-0.012969	-0.889353	-13.630831	-40.850950	-140.329500
06937		3.408566	-2.588190	11.027806	3.971342	3.079969	0.895002	-1.130527	-3.719721	0.143573	-0.852783	0.399658	-0.160645	0.032043	-0.025232	0.111031	0.275065	-0.381777	-0.012811	-0.882282	-14.823939	-42.899771	-139.516716
06938		4.353256	-2.204230	11.315527	4.266532	2.517189	1.469423	-1.156858	-4.318858	0.080362	-0.861572	0.396973	-0.107422	0.041083	-0.021367	0.114185	0.272882	-0.402456	-0.013535	-0.873717	-16.175560	-45.288026	-138.525368
06939		3.152801	-2.613932	11.859994	5.570482	3.742337	0.787437	-1.180870	-5.021424	-0.047423	-0.865967	0.396729	-0.058350	0.028529	-0.025442	0.119493	0.269865	-0.425897	-0.015303	-0.863453	-17.718517	-48.051232	-137.338543
06940		3.651091	-0.487998	12.896247	7.652583	2.197553	0.977889	-1.323558	-5.858848	-0.152767	-0.870117	0.392090	0.006104	0.032709	-0.004048	0.129987	0.265826	-0.452883	-0.017853	-0.850832	-19.652381	-51.274010	-135.795957
06941		4.847334	-2.980649	14.143001	7.590605	4.435351	2.638306	-1.646012	-6.574920	-0.251730	-0.872314	0.394043	0.079346	0.043749	-0.028690	0.143159	0.260285	-0.482785	-0.020134	-0.835922	-22.212644	-54.847428	-133.777462
06942		4.396128	-2.283502	12.560844	7.580257	3.891614	0.657476	-1.529385	-7.366081	-0.330921	-0.863037	0.389648	0.156982	0.039256	-0.021933	0.127282	0.254286	-0.515276	-0.024149	-0.818074	-25.440842	-58.798470	-130.968747
06943		11.193744	1.067055	16.053778	10.622653	-0.195697	6.651921	-1.760635	-7.891622	-0.387298	-0.851563	0.385254	0.230225	0.105515	0.011900	0.164685	0.247000	-0.549346	-0.027943	-0.797765	-29.870484	-62.911268	-127.058486
06944		7.936205	-3.853342	11.557175	6.625201	4.354827	2.370104	-1.943646	-8.072657	-0.670498	-0.823730	0.369873	0.303711	0.074476	-0.037643	0.119013	0.237640	-0.583446	-0.032013	-0.775947	-35.668454	-67.022903	-121.892115
06945		16.483561	-1.278154	14.878901	10.077102	0.886318	9.989116	-1.812470	-8.096365	-0.741328	-0.802734	0.352295	0.375000	0.158587	-0.011989	0.155406	0.227968	-0.616405	-0.036720	-0.752813	-43.560538	-70.876907	-114.557321
06946		18.434482	-6.662777	15.257434	9.580706	5.943420	12.314224	-2.173152	-7.230249	-0.989928	-0.781982	0.341553	0.435059	0.178327	-0.065810	0.159813	0.216040	-0.645523	-0.039839	-0.731464	-53.472486	-74.063675	-105.473615
06947		20.675807	-9.689735	17.281550	11.635672	9.471687	14.572941	-1.938358	-5.833156	-1.420292	-0.760986	0.321777	0.473145	0.200897	-0.096619	0.179670	0.203311	-0.668369	-0.043599	-0.714175	-63.871175	-76.505902	-95.877250
06948		17.516241	-4.147693	15.720674	13.316353	5.217734	9.330927	-1.966026	-4.927908	-1.653187	-0.746338	0.292969	0.515869	0.170870	-0.041325	0.161859	0.189670	-0.687386	-0.047116	-0.699504	-75.452535	-78.387582	-85.169899
06949		10.151128	-8.131238	17.020353	13.909608	11.043007	2.159326	-2.902639	-4.125889	-1.194740	-0.725586	0.277832	0.547363	0.097478	-0.079401	0.173404	0.174469	-0.704080	-0.044952	-0.686885	-88.598271	-79.398234	-73.472984
06950		16.273051	-17.539234	26.316671	20.899556	21.689104	9.100245	-1.630316	-2.270344	-1.292137	-0.729736	0.268799	0.547363	0.158590	-0.174263	0.266406	0.163744	-0.712948	-0.045881	-0.680286	-96.932550	-80.077455	-65.954391
06951		10.885332	-12.767429	25.728286	21.591736	17.992366	2.577281	0.004059	0.767011	-1.475383	-0.738525	0.264404	0.527588	0.108893	-0.128483	0.256863	0.158898	-0.709997	-0.050509	-0.684182	-94.854729	-80.962368	-68.061243
06952		-15.080279	-2.154807	19.117696	16.911812	9.778000	-24.506609	0.146438	1.575872	-1.599636	-0.753906	0.252930	0.512451	-0.149457	-0.020490	0.192343	0.154235	-0.704043	-0.055357	-0.690992	-88.975008	-81.911912	-73.936397
06953		-12.228693	0.666037	16.182980	15.275624	5.612984	-21.937507	-0.792095	0.656340	-1.814425	-0.761963	0.232666	0.510742	-0.121684	0.008408	0.162199	0.145338	-0.701871	-0.058482	-0.694862	-86.311041	-82.934806	-77.084211
06954		-2.390527	-4.430438	16.270964	14.351489	9.012694	-11.511633	-1.489541	0.663523	-1.755356	-0.768066	0.210449	0.493408	-0.023745	-0.042882	0.163112	0.134107	-0.700066	-0.058895	-0.698896	-83.036330	-83.902096	-81.253725
06955		2.266130	-9.461052	16.520198	13.447167	13.201590	-6.284102	-1.214249	1.727472	-1.473017	-0.788086	0.203613	0.469238	0.023398	-0.093777	0.165573	0.125194	-0.694376	-0.058627	-0.706209	-72.443733	-84.519541	-92.602059
06956		-0.419512	-7.851171	14.832806	12.344844	11.341399	-8.920495	-0.596510	2.865944	-1.117959	-0.803467	0.192139	0.440674	-0.002504	-0.078052	0.148605	0.119889	-0.684182	-0.058486	-0.717008	-54.615607	-84.355992	-110.874640
06957		-2.527144	-4.433209	12.949073	11.545555	7.675650	-11.032408	-0.445217	3.376376	-0.715408	-0.814697	0.194336	0.411865	-0.023237	-0.043958	0.129993	0.116758	-0.672057	-0.057287	-0.728989	-39.168847	-83.325234	-126.668575
06958		-0.870031	-3.837571	11.964625	10.693234	6.615516	-9.098843	-0.548929	3.696957	-0.232289	-0.830322	0.187500	0.372070	-0.006530	-0.038038	0.119885	0.114997	-0.658666	-0.053770	-0.741650	-29.548345	-81.636392	-136.707332
06959		1.278521	-4.756783	11.512034	9.783409	7.081769	-6.510959	-0.463447	4.188507	0.216640	-0.846191	0.189453	0.332275	0.015245	-0.047286	0.114928	0.115363	-0.643339	-0.048899	-0.755259	-24.005492	-79.437790	-142.597356
06960		1.954866	-3.968591	11.132439	9.385946	6.039873	-5.465265	-0.208696	4.770681	0.581420	-0.855469	0.196045	0.278809	0.022312	-0.039508	0.110855	0.117953	-0.625326	-0.043351	-0.770178	-20.656166	-76.768289	-146.156939
06961		2.053704	-2.155529	10.795021	9.280657	4.077310	-5.057481	-0.054034	5.245058	0.845987	-0.862549	0.202637	0.236572	0.023449	-0.021431	0.107366	0.122127	-0.605152	-0.037370	-0.785799	-18.593744	-73.777301	-148.323429
06962		2.978569	-0.425996	10.788935	9.200243	2.116689	-3.788083	-0.095488	5.637654	1.052030	-0.872070	0.209473	0.178711	0.032832	-0.004041	0.106994	0.126957	-0.582913	-0.030236	-0.801985	-17.346052	-70.501917	-149.702668
06963		4.053320	0.666475	10.920250	8.913588	0.701214	-2.319971	-0.263709	6.036146	1.199959	-0.876953	0.222656	0.125244	0.043762	0.007064	0.107905	0.131843	-0.558813	-0.021817	-0.818456	-16.599183	-66.996328	-150.668591
06964		4.508047	0.815623	10.744442	8.184351	0.171565	-1.483706	-0.428856	6.371743	1.285734	-0.877441	0.227295	0.065186	0.048417	0.008689	0.105919	0.136522	-0.532753	-0.012142	-0.835098	-16.158666	-63.267660	-151.435682
06965		4.951308	0.674806	10.733183	7.445729	-0.095671	-0.610897	-0.487611	6.602774	1.294683	-0.869141	0.243164	0.007080	0.052973	0.007342	0.105603	0.140945	-0.505326	-0.002126	-0.851337	-15.840475	-59.429652	-152.119395
06966		5.733509	0.710821	11.451501	7.109024	-0.559799	0.845699	-0.510029	6.734320	1.262931	-0.858398	0.257080	-0.062012	0.061098	0.007775	0.112480	0.145013	-0.476609	0.008094	-0.867035	-15.594388	-55.499948	-152.768778
06967		7.665698	-0.818893	12.517084	5.897971	0.129698	3.649171	-0.553325	6.805681	1.217016	-0.847656	0.266357	-0.124512	0.080903	-0.007364	0.122487	0.148603	-0.447206	0.018340	-0.881809	-15.415210	-51.559134	-153.388921
06968		10.879769	-4.028140	12.655673	2.477887	1.838729	7.072875	-0.351812	6.896401	1.189781	-0.825195	0.264648	-0.186768	0.113311	-0.039398	0.122771	0.152313	-0.416540	0.027771	-0.895837	-15.171377	-47.548057	-153.986585
06969		12.686725	-5.859297	12.316647	-0.458745	2.534057	8.632222	0.133372	6.893116	1.262067	-0.798584	0.267578	-0.242432	0.131376	-0.057853	0.118651	0.157190	-0.385169	0.035052	-0.908685	-14.771278	-43.548935	-154.443421
06970		14.924179	-4.786638	12.596350	-2.683133	0.346754	10.108036	0.534739	6.631214	1.494293	-0.754150	0.279541	-0.291748	0.153658	-0.047057	0.120790	0.163725	-0.353990	0.040798	-0.919903	-14.358280	-39.636332	-154.618096
06971		19.256204	0.609128	13.362216	-4.984049	-6.701348	12.091366	0.443045	6.234116	2.037300	-0.711426	0.276123	-0.331787	0.196528	0.007793	0.127553	0.172518	-0.324383	0.047466	-0.928849	-14.299700	-35.889797	-154.303601
06972		25.835813	2.619071	12.584038	-10.916308	-11.723842	14.183377	-0.442023	5.869035	2.782470	-0.673584	0.288086	-0.358887	0.261500	0.030081	0.118133	0.183210	-0.296532	0.059161	-0.935416	-15.025158	-32.214092	-153.475028
06973		30.396139	-3.166151	8.556095	-19.588483	-9.160643	13.407328	-0.681597	5.655685	3.274873	-0.638428	0.304443	-0.383789	0.306681	-0.026382	0.077009	0.195744	-0.269613	0.072370	-0.940083	-15.972586	-28.593038	-152.380721
06974		32.537540	-4.659987	4.476497	-24.891817	-9.669623	9.858848	0.282189	5.403353	3.370188	-0.606934	0.307373	-0.408447	0.327149	-0.041151	0.035881	0.209889	-0.242465	0.080905	-0.943722	-16.316697	-25.067018	-151.271604
06975		32.834170	-0.346957	1.274362	-25.810636	-14.473486	4.464870	1.142594	4.955679	3.130586	-0.586914	0.307617	-0.426270	0.328524	0.001631	0.004604	0.223950	-0.216545	0.084490	-0.946476	-16.069218	-21.843054	-150.255251
06976		33.549771	0.015443	-2.299995	-28.156376	-15.650374	-0.173246	1.476704	4.289866	2.620104	-0.572998	0.299072	-0.448486	0.334860	0.004749	-0.030164	0.236045	-0.193336	0.085159	-0.948500	-15.514482	-19.059859	-149.430228
06977		32.546271	-4.525884	-7.683405	-31.502630	-11.391406	-5.762557	1.988467	3.728395	1.904413	-0.552734	0.292969	-0.470459	0.324356	-0.041360	-0.083312	0.245352	-0.172480	0.081964	-0.950439	-14.539622	-16.716920	-148.903084
06978		28.340586	-0.177929	-10.121951	-26.937749	-13.302992	-11.532364	2.512142	3.103807	1.287063	-0.536621	0.284424	-0.488281	0.281788	0.001346	-0.105597	0.252306	-0.154065	0.074952	-0.952359	-13.184256	-14.810838	-148.602284
06979		27.819060	5.261976	-10.650165	-23.913315	-17.989588	-14.227279	1.855094	2.221408	1.215151	-0.529785	0.282471	-0.501465	0.276658	0.055308	-0.109076	0.258663	-0.140707	0.069863	-0.953108	-12.224777	-13.419298	-148.188941
