// General information: 
//  MT Manager version: 2019.2.0 
//  XDA version: 2019.2.0 build 3853 rev 94535 built on 2019-09-09
// Device information: 
//  DeviceId: 00B40A8D
//  ProductCode: MTW2-3A7G6
//  Firmware Version: 4.3.5
//  Hardware Version: 1.1.0
// Device settings: 
//  Filter Profile: human(46.1)
//  Option Flags: Orientation Smoother Disabled, AHS Disabled, ICC Disabled
// Coordinate system: ENU
PacketCounter	SampleTimeFine	Acc_X	Acc_Y	Acc_Z	FreeAcc_E	FreeAcc_N	FreeAcc_U	Gyr_X	Gyr_Y	Gyr_Z	Mag_X	Mag_Y	Mag_Z	VelInc_X	VelInc_Y	VelInc_Z	Quat_q0	Quat_q1	Quat_q2	Quat_q3	Roll	Pitch	Yaw
21835		6.505514	1.632359	2.347001	-0.655594	1.239667	-2.846477	0.390801	0.472675	0.187195	-0.847900	-0.278809	-0.712158	0.065095	0.016339	0.023348	0.798894	0.134718	-0.563498	0.161519	5.771957	-70.712054	18.762779
21836		6.155768	1.495032	2.115517	-0.487510	1.182668	-3.257722	0.363237	0.526831	0.143834	-0.843018	-0.285400	-0.718750	0.061602	0.014956	0.021020	0.799978	0.135298	-0.561251	0.163482	5.646556	-70.426968	19.112859
21837		6.179108	1.672310	1.820190	-0.277264	1.477642	-3.329577	0.301420	0.507032	0.106983	-0.845703	-0.278809	-0.718750	0.061828	0.016729	0.018070	0.801075	0.135740	-0.559103	0.165101	5.553402	-70.150445	19.390125
21838		6.111840	1.735495	1.573196	-0.093909	1.637986	-3.476315	0.204792	0.403685	0.057560	-0.843506	-0.278564	-0.732178	0.061145	0.017357	0.015626	0.801980	0.136028	-0.557411	0.166189	5.503671	-69.930379	19.564366
21839		6.371965	1.792946	1.391599	0.135456	1.800982	-3.294157	0.093391	0.233274	0.014008	-0.843262	-0.282959	-0.729980	0.063735	0.017927	0.013850	0.802523	0.136121	-0.556463	0.166666	5.484255	-69.804715	19.636889
21840		6.540673	1.783749	1.555293	0.064281	1.749767	-3.081025	-0.019966	0.099557	-0.030912	-0.843262	-0.282959	-0.727783	0.065417	0.017829	0.015519	0.802805	0.136003	-0.556115	0.166564	5.490415	-69.753167	19.614188
21841		6.594436	1.665646	1.792895	-0.065147	1.553774	-2.952879	-0.125514	0.021967	-0.069039	-0.836182	-0.287109	-0.732178	0.065952	0.016645	0.017911	0.802977	0.135625	-0.556141	0.165955	5.505800	-69.743459	19.515984
21842		6.651379	1.545632	1.878161	-0.065405	1.416964	-2.874010	-0.215686	0.000928	-0.091504	-0.843018	-0.285156	-0.729980	0.066521	0.015446	0.018765	0.803167	0.134975	-0.556310	0.164999	5.508552	-69.744880	19.377708
21843		6.584291	1.428658	1.845900	-0.008206	1.316238	-2.952020	-0.313144	-0.014856	-0.107060	-0.843262	-0.280762	-0.732178	0.065849	0.014280	0.018442	0.803393	0.133979	-0.556611	0.163690	5.480694	-69.754089	19.211010
21844		6.604333	1.283327	1.663811	0.215210	1.259086	-3.000875	-0.390566	-0.046779	-0.111974	-0.843994	-0.269775	-0.729980	0.066047	0.012829	0.016628	0.803579	0.132721	-0.557099	0.162132	5.422165	-69.781737	19.031259
21845		6.387856	1.173485	1.448421	0.374275	1.220070	-3.281911	-0.432598	-0.043571	-0.102414	-0.843750	-0.271973	-0.736572	0.063881	0.011733	0.014473	0.803794	0.131255	-0.557611	0.160489	5.323177	-69.807699	18.867475
21846		6.257920	1.108588	1.162924	0.603119	1.258495	-3.504331	-0.430157	-0.046062	-0.084851	-0.839355	-0.271729	-0.736572	0.062581	0.011084	0.011620	0.803979	0.129757	-0.558142	0.158925	5.199501	-69.836600	18.732444
21847		6.276772	1.022463	0.925290	0.846680	1.273716	-3.570873	-0.411057	-0.090313	-0.060658	-0.841797	-0.267334	-0.732178	0.062767	0.010225	0.009260	0.804009	0.128297	-0.558847	0.157479	5.054664	-69.891616	18.630711
21848		6.305915	1.018617	0.835220	0.930775	1.307418	-3.573773	-0.369562	-0.143014	-0.025570	-0.843994	-0.265137	-0.732178	0.063054	0.010194	0.008378	0.803830	0.126954	-0.559752	0.156259	4.887047	-69.978999	18.579766
21849		6.499818	1.139929	1.114559	0.697746	1.334421	-3.291814	-0.299791	-0.170782	0.011682	-0.844238	-0.260742	-0.729980	0.064988	0.011420	0.011184	0.803501	0.125801	-0.560735	0.155362	4.702887	-70.083626	18.587808
21850		6.765194	1.145116	1.541053	0.402184	1.209002	-2.896725	-0.252887	-0.193251	0.039436	-0.848877	-0.258789	-0.734375	0.067635	0.011484	0.015461	0.803051	0.124784	-0.561789	0.154697	4.504723	-70.202928	18.640471
21851		7.884663	1.280818	1.919464	0.365881	1.314184	-1.711343	-0.222727	-0.241506	0.017649	-0.846680	-0.258789	-0.725586	0.078822	0.012837	0.019276	0.802465	0.123978	-0.562996	0.153995	4.362002	-70.348200	18.651385
21852		8.352554	0.811802	1.856415	0.731979	0.951741	-1.302175	-0.137385	-0.239875	-0.026467	-0.851563	-0.252197	-0.721191	0.083504	0.008120	0.018659	0.801859	0.123645	-0.564105	0.153361	4.339463	-70.491202	18.587807
21853		8.792089	0.709022	1.738783	0.994418	0.938983	-0.926950	0.021265	-0.215663	-0.034030	-0.848877	-0.260986	-0.723389	0.087903	0.007073	0.017483	0.801231	0.123942	-0.564987	0.153154	4.416409	-70.619447	18.514003
21854		9.272318	0.666463	1.943384	0.964077	0.862406	-0.403992	0.142814	-0.262244	-0.016779	-0.851074	-0.259033	-0.714355	0.092698	0.006643	0.019560	0.800378	0.124723	-0.565975	0.153335	4.543413	-70.775716	18.462258
21855		9.735581	0.075313	1.899525	1.352722	0.370641	0.007095	0.081604	-0.235731	0.005467	-0.855713	-0.256836	-0.714355	0.097333	0.000748	0.019110	0.799623	0.125165	-0.566914	0.153444	4.594997	-70.917142	18.452032
21856		10.849583	-0.647516	1.511349	2.296022	-0.044463	0.917792	0.141269	-0.166756	-0.010704	-0.853271	-0.259033	-0.714355	0.108483	-0.006492	0.015199	0.799033	0.125849	-0.567524	0.153705	4.700345	-71.019206	18.422414
21857		11.970943	-1.151249	0.860427	3.391434	-0.157214	1.756350	0.122444	-0.081701	-0.036296	-0.853027	-0.263428	-0.709961	0.119704	-0.011539	0.008646	0.798720	0.126455	-0.567788	0.153859	4.824922	-71.070686	18.359762
21858		12.399612	-1.326287	0.234854	4.124997	-0.047345	1.957899	0.053079	-0.115646	-0.036269	-0.857666	-0.261475	-0.709961	0.123992	-0.013286	0.002417	0.798349	0.126820	-0.568245	0.153799	4.916547	-71.142288	18.291326
21859		12.260966	-0.933055	0.245992	3.898125	0.284834	1.848606	-0.032341	-0.275935	-0.013974	-0.857666	-0.259277	-0.701172	0.122605	-0.009339	0.002631	0.797563	0.126893	-0.569416	0.153479	4.944142	-71.305683	18.237504
21860		12.516304	0.073488	1.701320	2.275474	0.671453	2.594119	-0.095189	-0.461608	0.011589	-0.862305	-0.257080	-0.696777	0.125123	0.000750	0.017302	0.796260	0.126795	-0.571396	0.152969	4.921481	-71.577343	18.200127
21861		13.652134	1.423670	3.598342	0.375401	1.293616	4.313206	-0.180207	-0.530867	0.024630	-0.866699	-0.259521	-0.698975	0.136423	0.014286	0.036333	0.794804	0.126364	-0.573715	0.152218	4.836305	-71.888170	18.176003
21862		15.179385	1.858510	4.580329	-0.270242	1.456779	6.082330	-0.183961	-0.445372	0.016663	-0.864746	-0.255127	-0.687988	0.151690	0.018640	0.046124	0.793588	0.125884	-0.575694	0.151482	4.750731	-72.150901	18.151425
21863		16.581202	2.411244	6.012039	-1.389611	1.541643	7.867442	0.047021	-0.334918	-0.041748	-0.864746	-0.255127	-0.685791	0.165716	0.024064	0.060404	0.792593	0.126395	-0.577015	0.151243	4.884350	-72.346669	18.034340
21864		17.091662	1.610397	7.737354	-2.491335	0.155199	8.851546	0.364237	-0.283605	-0.121062	-0.868896	-0.259766	-0.683594	0.170816	0.015859	0.077645	0.791595	0.128363	-0.577845	0.151642	5.340408	-72.509972	17.771150
21865		16.447982	0.238564	8.873789	-3.157108	-1.682064	8.532328	0.660356	-0.206301	-0.231748	-0.864502	-0.259521	-0.683594	0.164391	0.001902	0.088914	0.790713	0.131752	-0.578063	0.152501	6.159123	-72.620907	17.304523
21866		15.384582	-1.539793	6.627640	-0.781157	-2.633835	6.783520	0.485518	-0.004904	-0.320441	-0.868652	-0.266357	-0.678955	0.153819	-0.015805	0.066242	0.790583	0.134561	-0.577558	0.152639	7.004596	-72.610191	16.706156
21867		13.531644	-2.034299	3.903778	1.299046	-2.240694	4.179264	0.322192	0.163076	-0.296194	-0.861572	-0.270508	-0.683350	0.135318	-0.020606	0.038894	0.791029	0.136516	-0.576521	0.152509	7.669459	-72.502589	16.197680
21868		12.275572	-1.736917	4.306342	0.497580	-2.275704	3.103367	0.414214	-0.070846	-0.313606	-0.861328	-0.277344	-0.678955	0.122713	-0.017651	0.043071	0.790742	0.139069	-0.576329	0.152420	8.473476	-72.525156	15.599471
21869		12.545018	-1.610117	5.825958	-0.775397	-2.802522	3.805529	0.483763	-0.085315	-0.413214	-0.860840	-0.286133	-0.676758	0.125392	-0.016501	0.058273	0.790439	0.142188	-0.576062	0.152122	9.501346	-72.543306	14.807431
21870		10.777260	-1.579057	5.759229	-1.185647	-2.938408	2.094061	0.453285	0.535919	-0.416842	-0.853516	-0.296875	-0.681152	0.107893	-0.016145	0.057267	0.791934	0.144730	-0.573357	0.152167	10.320038	-72.207364	14.217106
21871		8.946401	-0.864802	4.978340	-1.243026	-2.131376	0.161323	0.252225	0.986116	-0.456540	-0.844482	-0.301025	-0.692383	0.089688	-0.008915	0.049330	0.794883	0.146236	-0.568977	0.151795	10.917114	-71.610788	13.735933
21872		9.300710	0.081506	4.633253	-1.123207	-1.111069	0.457665	0.105953	0.765969	-0.423818	-0.842041	-0.303223	-0.698975	0.093185	0.000593	0.045976	0.797264	0.147241	-0.565593	0.150979	11.418614	-71.140654	13.267224
21873		9.308876	1.498316	5.116352	-2.039910	-0.024885	0.718934	-0.125436	0.416347	-0.415688	-0.837646	-0.300781	-0.694580	0.093226	0.014821	0.050960	0.798813	0.147553	-0.563775	0.149275	11.869651	-70.865960	12.709090
21874		9.531437	2.366331	5.318777	-2.444703	0.692169	1.063036	-0.339575	0.245523	-0.442503	-0.828613	-0.302734	-0.705566	0.095432	0.023542	0.053031	0.800048	0.147218	-0.562778	0.146739	12.287761	-70.682977	12.056297
21875		9.508787	2.371225	5.015380	-2.146165	0.813209	0.954215	-0.406635	0.347015	-0.439732	-0.824219	-0.302490	-0.709961	0.095227	0.023605	0.049941	0.801611	0.146524	-0.561416	0.144092	12.616139	-70.441569	11.455883
21876		9.107270	2.539759	4.496665	-1.840331	1.150559	0.429468	-0.326271	0.533880	-0.369158	-0.822021	-0.302490	-0.714355	0.091239	0.025302	0.044682	0.803577	0.145823	-0.559293	0.142093	12.803405	-70.103932	11.054074
21877		8.712617	2.450087	3.892098	-1.359133	1.287860	-0.140305	-0.192880	0.483529	-0.257179	-0.823975	-0.309082	-0.718750	0.087251	0.024426	0.038687	0.805219	0.145373	-0.557353	0.140875	12.903868	-69.808143	10.824353
21878		9.012305	2.375676	3.566879	-0.910330	1.369914	0.030212	0.008124	0.254514	-0.113275	-0.817383	-0.304443	-0.723389	0.090182	0.023704	0.035555	0.805969	0.145500	-0.556297	0.140634	12.978541	-69.658930	10.745663
21879		9.144206	2.199916	3.968338	-1.119308	1.061400	0.278120	0.095503	0.185137	-0.018471	-0.819580	-0.306641	-0.727783	0.091481	0.021972	0.039609	0.806397	0.145756	-0.555525	0.140962	12.983249	-69.560287	10.793863
21880		8.832556	1.737083	4.206438	-1.227814	0.528695	0.033048	0.019344	0.310002	-0.021781	-0.813232	-0.302002	-0.725586	0.088393	0.017357	0.041929	0.807227	0.145631	-0.554301	0.141160	12.907631	-69.391707	10.882106
21881		8.342705	0.850075	3.764144	-0.640441	-0.132051	-0.644025	-0.177364	0.461625	-0.104308	-0.810547	-0.308594	-0.736572	0.083518	0.008490	0.037441	0.808677	0.144829	-0.552541	0.140586	12.791017	-69.127640	10.892969
21882		7.677756	0.278997	3.053848	-0.006525	-0.410768	-1.555396	-0.335763	0.490569	-0.195259	-0.806152	-0.306152	-0.745361	0.076855	0.002766	0.030345	0.810378	0.143621	-0.550705	0.139230	12.708458	-68.836039	10.770922
21883		7.245762	-0.139387	2.454475	0.545670	-0.585059	-2.203165	-0.432326	0.388313	-0.254005	-0.806885	-0.295166	-0.747559	0.072503	-0.001433	0.024407	0.811901	0.142248	-0.549303	0.137291	12.686319	-68.594087	10.523658
21884		6.731735	-0.238193	2.169119	0.665705	-0.599678	-2.793054	-0.513848	0.271148	-0.295861	-0.799805	-0.299316	-0.747559	0.067343	-0.002426	0.021606	0.813180	0.140739	-0.548398	0.134876	12.711987	-68.412396	10.174755
21885		6.196038	-0.574819	1.907653	0.835177	-0.850163	-3.414240	-0.620206	0.188162	-0.346400	-0.802246	-0.294922	-0.756348	0.061968	-0.005796	0.019036	0.814331	0.138990	-0.547859	0.131901	12.771081	-68.270553	9.723628
21886		5.793077	-0.645924	1.860782	0.761773	-0.928273	-3.812898	-0.760754	0.152967	-0.341495	-0.788818	-0.294434	-0.760986	0.057934	-0.006487	0.018588	0.815466	0.136677	-0.547551	0.128537	12.751128	-68.149091	9.270796
21887		5.725142	-0.907539	1.929031	0.775373	-1.202494	-3.873424	-0.839943	0.163363	-0.317435	-0.800293	-0.290283	-0.765381	0.057253	-0.009085	0.019282	0.816654	0.133965	-0.547258	0.125058	12.646732	-68.024881	8.859384
21888		5.792078	-0.959568	2.031467	0.731467	-1.281907	-3.777999	-0.832789	0.185799	-0.239458	-0.791748	-0.281250	-0.769775	0.057928	-0.009580	0.020301	0.817833	0.131052	-0.546908	0.121930	12.430289	-67.898166	8.573136
21889		6.085026	-1.061038	2.117605	0.800707	-1.384484	-3.481838	-0.782655	0.159298	-0.155993	-0.791992	-0.278809	-0.771973	0.060859	-0.010575	0.021169	0.818840	0.128130	-0.546682	0.119259	12.135578	-67.797028	8.401950
21890		6.717948	-0.927618	2.278948	0.851237	-1.268409	-2.823308	-0.657628	0.129066	-0.024823	-0.785400	-0.276367	-0.782959	0.067193	-0.009210	0.022776	0.819596	0.125375	-0.546581	0.117447	11.741693	-67.728767	8.415081
21891		7.105930	-0.694190	2.378369	0.831094	-1.044017	-2.406469	-0.472366	0.095099	0.097912	-0.792480	-0.267822	-0.776367	0.071074	-0.006851	0.023766	0.820062	0.123064	-0.546583	0.116621	11.297128	-67.693594	8.597823
21892		7.321645	-0.369798	2.293738	0.875233	-0.678211	-2.211475	-0.310176	0.032977	0.192184	-0.795166	-0.261230	-0.776367	0.073224	-0.003592	0.022931	0.820201	0.121196	-0.546799	0.116587	10.833313	-67.703044	8.901842
21893		7.499681	-0.373893	2.060310	1.137805	-0.575177	-2.131254	-0.177689	-0.028697	0.234025	-0.792969	-0.259033	-0.778564	0.074998	-0.003633	0.020617	0.820064	0.119793	-0.547215	0.117048	10.403587	-67.750870	9.250978
21894		7.461613	-0.726749	1.998925	1.279070	-0.873225	-2.209993	-0.010284	-0.097702	0.240009	-0.799805	-0.254639	-0.774170	0.074615	-0.007177	0.020026	0.819631	0.119098	-0.547822	0.117952	10.076169	-67.837674	9.592938
21895		7.279011	-1.319916	2.149787	1.259150	-1.481352	-2.358300	0.142221	-0.139768	0.207613	-0.795166	-0.261230	-0.774170	0.072789	-0.013139	0.021539	0.819010	0.119143	-0.548488	0.119113	9.889642	-67.944082	9.877008
21896		6.744327	-1.722853	2.527699	0.852327	-2.013389	-2.737150	0.227039	-0.181393	0.155427	-0.797607	-0.256836	-0.771973	0.067434	-0.017205	0.025319	0.818252	0.119704	-0.549245	0.120272	9.832319	-68.069104	10.074155
21897		6.696743	-1.761099	2.479906	0.879694	-2.036606	-2.800117	0.281905	-0.175516	0.110849	-0.806152	-0.261719	-0.765381	0.066955	-0.017609	0.024833	0.817503	0.120607	-0.549913	0.121399	9.866860	-68.185959	10.205776
21898		6.587958	-1.630193	2.362910	0.892342	-1.884041	-2.935466	0.315958	-0.129118	0.080003	-0.803955	-0.261475	-0.769775	0.065871	-0.016313	0.023646	0.816875	0.121708	-0.550354	0.122525	9.952430	-68.274198	10.303794
21899		6.895911	-1.533314	2.250720	1.066145	-1.738638	-2.684514	0.288987	-0.109188	0.041435	-0.803711	-0.268311	-0.758789	0.068950	-0.015351	0.022523	0.816343	0.122790	-0.550702	0.123427	10.072586	-68.346853	10.347476
21900		7.044967	-1.620263	2.145747	1.238244	-1.780134	-2.590574	0.260909	-0.090555	-0.002636	-0.805664	-0.272705	-0.754150	0.070440	-0.016232	0.021468	0.815901	0.123871	-0.550966	0.124089	10.234853	-68.405147	10.329239
21901		7.242299	-1.737855	2.054567	1.424801	-1.855177	-2.449229	0.299545	-0.178014	-0.045112	-0.808105	-0.270508	-0.758789	0.072401	-0.017426	0.020584	0.815222	0.125276	-0.551532	0.124624	10.503435	-68.507766	10.219807
21902		7.753643	-1.162735	2.059912	1.396471	-1.298798	-1.933784	0.339482	-0.307903	-0.051081	-0.812256	-0.275146	-0.749756	0.077502	-0.011682	0.020699	0.814155	0.126948	-0.552601	0.125170	10.840914	-68.683409	10.062143
21903		8.586740	-0.006747	1.781929	1.511806	-0.087378	-1.174743	0.344218	-0.465640	-0.038038	-0.809570	-0.284180	-0.749756	0.085826	-0.000115	0.018019	0.812641	0.128694	-0.554309	0.125674	11.211081	-68.948092	9.871484
21904		9.108181	0.687714	1.900222	1.308394	0.527252	-0.590293	0.395676	-0.609337	-0.014163	-0.813965	-0.284180	-0.743164	0.091024	0.006833	0.019293	0.810666	0.130679	-0.556582	0.126332	11.626296	-69.296426	9.665845
21905		9.721346	1.167489	3.027221	0.313708	0.578504	0.414632	0.601317	-0.702918	0.015248	-0.820557	-0.286621	-0.732178	0.097105	0.011591	0.030649	0.808269	0.133466	-0.559109	0.127610	12.155937	-69.699361	9.463059
21906		11.319538	1.433891	5.290772	-1.274492	0.050915	2.699406	0.901972	-0.647600	0.084703	-0.831543	-0.289307	-0.716553	0.113017	0.014147	0.053338	0.805756	0.137242	-0.561257	0.130050	12.748220	-70.079872	9.378728
21907		14.445416	1.410343	7.679569	-2.352231	-0.749763	6.421197	1.261567	-0.349113	0.248748	-0.828613	-0.307129	-0.709961	0.144302	0.013797	0.077135	0.803701	0.141800	-0.562056	0.134353	13.196103	-70.313885	9.665816
21908		17.799266	2.406939	9.855807	-3.549389	-0.531522	10.358157	1.332519	-0.182145	0.578982	-0.842041	-0.307617	-0.705566	0.177833	0.023926	0.098880	0.801797	0.145606	-0.562349	0.140304	13.105669	-70.499159	10.568731
21909		18.696619	3.941198	9.263269	-3.420580	1.162355	11.112234	0.827704	-0.145298	0.836746	-0.842041	-0.303223	-0.701172	0.186733	0.039809	0.092933	0.800154	0.146621	-0.563005	0.145879	12.289794	-70.692848	11.931408
21910		14.224146	3.654054	5.865003	-1.916973	2.006549	5.755711	0.301812	-0.045962	0.694773	-0.844238	-0.305420	-0.698975	0.142100	0.036946	0.058738	0.799253	0.145865	-0.563536	0.149485	11.348504	-70.808371	13.108133
21911		10.620692	2.742778	4.715439	-1.772252	1.415175	1.909660	0.171699	-0.209316	0.491880	-0.846924	-0.296631	-0.690186	0.106090	0.027648	0.047289	0.798136	0.145272	-0.564656	0.151783	10.699354	-70.986965	13.894104
21912		9.995239	2.076780	5.561575	-2.472527	0.431940	1.538471	0.347639	-0.272897	0.362098	-0.851318	-0.299072	-0.690186	0.099839	0.020852	0.055788	0.796796	0.145807	-0.565803	0.154023	10.372762	-71.186754	14.446712
21913		9.409500	1.886311	6.486343	-3.404082	-0.166331	1.257725	0.364093	-0.127157	0.300305	-0.844482	-0.298828	-0.696777	0.094025	0.018886	0.064958	0.795907	0.146456	-0.566302	0.156158	10.105469	-71.295970	14.944210
21914		9.496507	1.386077	7.139006	-3.751254	-0.879496	1.510952	0.059811	-0.124666	0.193925	-0.851318	-0.299072	-0.690186	0.094907	0.013931	0.071453	0.795321	0.146205	-0.566951	0.157018	9.837880	-71.393173	15.259445
21915		10.286762	0.644027	6.545472	-2.706879	-1.226454	2.029779	-0.228314	0.024827	0.104835	-0.853516	-0.299072	-0.698975	0.102872	0.006569	0.065435	0.795444	0.144931	-0.567164	0.156807	9.508302	-71.396143	15.464070
21916		11.234223	-0.430250	4.149460	0.081293	-1.117256	2.118615	-0.270028	0.166626	0.080130	-0.847412	-0.287842	-0.698975	0.112378	-0.004202	0.041407	0.796013	0.143463	-0.566827	0.156491	9.158998	-71.316732	15.666220
21917		11.670652	-1.115146	2.653301	1.789033	-1.070053	2.025470	-0.144650	0.173521	0.112700	-0.849365	-0.292236	-0.701172	0.116736	-0.011067	0.026440	0.796489	0.142383	-0.566385	0.156656	8.826166	-71.235481	15.925040
21918		12.031751	-1.350605	2.597502	2.052138	-1.206757	2.339128	0.014698	0.113800	0.147681	-0.852051	-0.285645	-0.698975	0.120342	-0.013419	0.025906	0.796650	0.141893	-0.566081	0.157377	8.544329	-71.190954	16.227960
21919		12.291151	-1.069174	2.920495	1.741920	-1.037032	2.702706	0.132361	0.056999	0.164416	-0.854004	-0.288086	-0.692383	0.122929	-0.010610	0.029163	0.796556	0.141862	-0.565922	0.158449	8.316538	-71.179277	16.543624
21920		11.518281	-0.435088	3.319841	0.898681	-0.677149	2.129477	0.270365	0.045495	0.169650	-0.854004	-0.290283	-0.696777	0.115194	-0.004298	0.033166	0.796320	0.142383	-0.565705	0.159934	8.162490	-71.175004	16.866578
21921		10.116375	0.347134	3.711185	-0.190424	-0.246176	0.964026	0.406427	0.127375	0.191843	-0.854004	-0.290283	-0.698975	0.101184	0.003493	0.037054	0.796205	0.143308	-0.565064	0.161939	8.030327	-71.125027	17.247189
21922		9.076438	1.107854	3.683232	-0.797351	0.363979	0.006019	0.492523	0.221630	0.212862	-0.858154	-0.296875	-0.703369	0.090793	0.011085	0.036759	0.796265	0.144449	-0.563991	0.164349	7.893367	-71.023609	17.687003
21923		8.314001	1.624156	3.282661	-0.900150	0.930367	-0.820441	0.528580	0.272206	0.231308	-0.851318	-0.296631	-0.707764	0.083166	0.016251	0.032756	0.796426	0.145628	-0.562693	0.166958	7.738196	-70.893893	18.166429
21924		7.821602	1.759624	2.866714	-0.749743	1.185659	-1.414839	0.535407	0.257483	0.248570	-0.855713	-0.299072	-0.705566	0.078231	0.017617	0.028614	0.796513	0.146808	-0.561455	0.169653	7.567106	-70.773819	18.669074
21925		7.515333	1.751143	2.778399	-0.761433	1.192328	-1.734024	0.549215	0.238928	0.277073	-0.853516	-0.301270	-0.705566	0.075162	0.017539	0.027742	0.796510	0.147966	-0.560295	0.172474	7.364848	-70.665463	19.211606
21926		7.499845	1.707124	2.848373	-0.801426	1.130839	-1.728500	0.581899	0.258663	0.304485	-0.848633	-0.305664	-0.701172	0.075009	0.017103	0.028436	0.796501	0.149171	-0.559042	0.175520	7.138374	-70.547705	19.801937
21927		7.337997	1.582110	2.868279	-0.805760	1.003701	-1.880500	0.576283	0.322277	0.307179	-0.851074	-0.305664	-0.703369	0.073402	0.015851	0.028610	0.796666	0.150276	-0.557535	0.178595	6.896382	-70.392658	20.403916
21928		7.285291	1.596790	2.625104	-0.614697	1.131509	-2.011523	0.550279	0.381955	0.300918	-0.846191	-0.309814	-0.709961	0.072879	0.016005	0.026156	0.797006	0.151254	-0.555802	0.181626	6.647066	-70.202929	21.000749
21929		7.160735	1.607126	2.395279	-0.454044	1.243730	-2.207210	0.525471	0.407068	0.275769	-0.843750	-0.314209	-0.716553	0.071634	0.016107	0.023849	0.797453	0.152164	-0.553964	0.184494	6.425138	-69.995883	21.551826
21930		6.926667	1.767452	2.227188	-0.449767	1.446967	-2.480094	0.474387	0.393575	0.237431	-0.839600	-0.307373	-0.714355	0.069289	0.017704	0.022178	0.797925	0.153002	-0.552190	0.187065	6.245752	-69.793565	22.029385
21931		6.743855	1.823713	2.090931	-0.410801	1.546838	-2.698194	0.391399	0.310744	0.175650	-0.846191	-0.312012	-0.716553	0.067455	0.018256	0.020840	0.798285	0.153741	-0.550774	0.189085	6.131492	-69.634071	22.385135
21932		6.624637	2.014077	2.126566	-0.560630	1.689895	-2.791679	0.312552	0.203839	0.109707	-0.837158	-0.313965	-0.714355	0.066257	0.020144	0.021230	0.798466	0.154458	-0.549805	0.190550	6.094793	-69.531572	22.612005
21933		6.748062	2.053500	2.157433	-0.559762	1.729740	-2.664094	0.221262	0.136388	0.038466	-0.843750	-0.314209	-0.718750	0.067491	0.020524	0.021551	0.798602	0.155059	-0.549136	0.191419	6.124914	-69.462874	22.710037
21934		6.917788	1.960274	2.208949	-0.496527	1.647699	-2.490361	0.123903	0.132781	-0.019669	-0.841309	-0.318604	-0.720947	0.069194	0.019582	0.022056	0.798854	0.155448	-0.548529	0.191794	6.190064	-69.392972	22.713055
21935		7.102874	1.826108	2.128080	-0.297718	1.593162	-2.350288	0.018281	0.136502	-0.049326	-0.839355	-0.316406	-0.712158	0.071048	0.018242	0.021234	0.799230	0.155479	-0.547985	0.191755	6.236951	-69.318827	22.668982
21936		7.210317	1.624951	2.135574	-0.162968	1.429980	-2.255016	-0.072031	0.128926	-0.062848	-0.845947	-0.318604	-0.718750	0.072122	0.016235	0.021303	0.799664	0.155208	-0.547547	0.191418	6.255508	-69.248551	22.601966
21937		7.416515	1.560750	2.103950	-0.029681	1.420075	-2.076426	-0.148741	0.107565	-0.051619	-0.839111	-0.320801	-0.723389	0.074180	0.015604	0.020988	0.800091	0.154605	-0.547277	0.190890	6.214517	-69.190739	22.549491
21938		7.572718	1.540926	2.202363	-0.040860	1.385135	-1.897472	-0.212022	0.109344	-0.037272	-0.841553	-0.314209	-0.720947	0.075742	0.015418	0.021966	0.800554	0.153723	-0.547070	0.190256	6.117771	-69.133279	22.520073
21939		7.632795	1.439015	2.173338	0.059341	1.325518	-1.856986	-0.252526	0.119357	-0.023490	-0.837402	-0.309570	-0.723389	0.076343	0.014409	0.021670	0.801065	0.152617	-0.546872	0.189565	5.973675	-69.070508	22.514271
21940		7.679342	1.359091	2.039412	0.230468	1.332331	-1.865966	-0.283886	0.127160	-0.011889	-0.837402	-0.307373	-0.727783	0.076807	0.013615	0.020326	0.801604	0.151357	-0.546680	0.188847	5.795133	-69.004485	22.527837
21941		7.497281	1.302687	1.918410	0.304993	1.323161	-2.083346	-0.294292	0.144335	-0.014010	-0.830811	-0.304932	-0.723389	0.074988	0.013050	0.019111	0.802202	0.150032	-0.546426	0.188098	5.610292	-68.928027	22.540044
21942		7.425818	1.067346	1.719331	0.563686	1.204338	-2.231797	-0.322410	0.132931	-0.033628	-0.830811	-0.304932	-0.729980	0.074271	0.010689	0.017127	0.802803	0.148670	-0.546228	0.187191	5.442025	-68.857389	22.518739
21943		7.920409	0.974791	1.545724	0.922806	1.274343	-1.837926	-0.357546	0.082813	-0.082831	-0.830811	-0.304932	-0.734375	0.079215	0.009743	0.015407	0.803340	0.147336	-0.546225	0.185945	5.332050	-68.812300	22.411813
21944		7.212073	0.814923	1.503962	0.801494	1.056643	-2.520150	-0.375694	0.067963	-0.097658	-0.829102	-0.298096	-0.736572	0.072130	0.008142	0.015000	0.803857	0.145996	-0.546285	0.184586	5.237278	-68.775262	22.279045
21945		7.598206	0.773633	1.586240	0.886791	1.037921	-2.132601	-0.359793	0.001200	-0.114739	-0.833496	-0.298340	-0.734375	0.075987	0.007721	0.015848	0.804196	0.144815	-0.546585	0.183145	5.183879	-68.775199	22.110001
21946		7.886925	0.752260	1.736711	0.869362	0.991031	-1.809706	-0.294165	-0.060162	-0.094542	-0.831543	-0.291504	-0.732178	0.078868	0.007511	0.017380	0.804296	0.143908	-0.547085	0.181926	5.148098	-68.811629	21.963807
21947		8.652021	0.807651	1.760803	1.076427	1.128806	-1.084727	-0.220202	-0.115982	-0.085593	-0.833496	-0.298340	-0.729980	0.086513	0.008059	0.017649	0.804183	0.143315	-0.547747	0.180898	5.147843	-68.880001	21.823620
21948		9.561293	0.761979	1.576257	1.545084	1.280565	-0.301832	-0.070583	-0.146960	-0.062499	-0.838135	-0.296143	-0.727783	0.095604	0.007595	0.015830	0.803851	0.143299	-0.548415	0.180357	5.205368	-68.967835	21.714968
21949		10.490973	0.733695	1.488059	1.927550	1.404924	0.537378	0.042012	-0.182383	-0.046291	-0.835693	-0.298340	-0.729980	0.104898	0.007310	0.014978	0.803331	0.143712	-0.549134	0.180159	5.307499	-69.076059	21.626195
21950		11.087037	0.411972	1.333362	2.382401	1.249695	1.033158	0.111975	-0.155612	-0.028280	-0.833496	-0.298340	-0.723389	0.110861	0.004097	0.013422	0.802812	0.144345	-0.549697	0.180250	5.421750	-69.170638	21.569135
21951		11.737665	0.045573	1.340820	2.739213	0.992412	1.636525	0.089425	-0.176339	-0.020225	-0.840088	-0.300781	-0.725586	0.117365	0.000438	0.013512	0.802250	0.144871	-0.550366	0.180290	5.512922	-69.276720	21.521257
21952		11.829888	-0.089799	1.725596	2.489588	0.706028	1.859305	0.037887	-0.215064	0.004828	-0.840332	-0.296387	-0.720947	0.118280	-0.000898	0.017383	0.801589	0.145169	-0.551258	0.180267	5.544799	-69.406997	21.506986
21953		12.156253	0.099698	2.828678	1.561511	0.427726	2.563274	-0.014963	-0.347095	0.022899	-0.837891	-0.300781	-0.714355	0.121513	0.001013	0.028498	0.800590	0.145312	-0.552735	0.180068	5.536676	-69.612823	21.501351
21954		13.289382	0.255269	4.327402	0.560207	0.044190	4.154529	-0.065378	-0.449759	0.012460	-0.846924	-0.296631	-0.709961	0.132796	0.002575	0.043572	0.799344	0.145386	-0.554662	0.179619	5.532959	-69.877458	21.461932
21955		14.777170	0.155807	5.414783	0.114474	-0.354869	5.921655	-0.083515	-0.417002	-0.060405	-0.846924	-0.296631	-0.705566	0.147659	0.001536	0.054455	0.798269	0.145546	-0.556415	0.178844	5.627287	-70.118505	21.305488
21956		15.935928	-0.241818	5.704983	0.374591	-0.731910	7.095383	0.043638	-0.246145	-0.184215	-0.842285	-0.298584	-0.707764	0.159287	-0.002577	0.057245	0.797678	0.146418	-0.557285	0.178060	5.968666	-70.255752	20.965778
21957		15.816201	-0.956247	5.234504	1.036861	-1.234871	6.796538	0.313295	-0.168486	-0.246081	-0.844727	-0.298828	-0.705566	0.158106	-0.009839	0.052463	0.797165	0.148456	-0.557553	0.177830	6.552750	-70.343005	20.530917
21958		14.630106	-1.856502	4.292397	1.855541	-1.827010	5.324354	0.542980	-0.198099	-0.202851	-0.842041	-0.305420	-0.701172	0.146239	-0.018830	0.043018	0.796350	0.151324	-0.557766	0.178395	7.211412	-70.449154	20.158296
21959		13.590277	-2.066129	3.625578	2.186551	-1.885924	4.107496	0.713757	-0.128817	-0.089081	-0.852539	-0.316895	-0.696777	0.135870	-0.020851	0.036269	0.795494	0.154481	-0.557628	0.179934	7.774359	-70.522429	19.989794
21960		12.431137	-1.397519	4.112946	1.125468	-1.676333	3.199832	0.865067	-0.072113	-0.024982	-0.848145	-0.318848	-0.694580	0.124295	-0.014169	0.041113	0.794602	0.158019	-0.557172	0.182198	8.312208	-70.568935	19.941637
21961		10.166617	-0.455580	5.882517	-1.462059	-1.948017	1.686831	0.991424	-0.006802	-0.055532	-0.847656	-0.327881	-0.690186	0.101663	-0.004876	0.058805	0.793810	0.162070	-0.556303	0.184733	8.955477	-70.574844	19.856750
21962		11.738056	-0.017178	5.917351	-1.162957	-1.450849	3.200360	0.916433	0.225920	-0.114944	-0.844971	-0.334473	-0.690186	0.117447	-0.000510	0.059039	0.793756	0.165782	-0.554520	0.187016	9.591254	-70.444124	19.735922
21963		10.640377	0.237583	4.861993	-0.698799	-0.883112	1.833954	0.737031	0.590764	-0.132215	-0.838379	-0.334229	-0.692383	0.106548	0.002127	0.048313	0.794867	0.168473	-0.551429	0.189024	10.045694	-70.104592	19.696638
21964		8.854735	0.187916	4.041866	-0.506163	-0.747047	-0.119202	0.465638	0.607583	-0.184840	-0.835449	-0.345215	-0.701172	0.088671	0.001704	0.040154	0.796283	0.170220	-0.548474	0.190092	10.414735	-69.750793	19.584132
21965		8.123858	0.416219	4.162857	-0.902852	-0.698528	-0.746461	0.279325	0.296414	-0.217425	-0.826172	-0.353760	-0.703369	0.081305	0.004016	0.041514	0.797032	0.171600	-0.546900	0.190245	10.806260	-69.567885	19.332105
21966		8.374742	1.312580	5.159483	-2.040265	-0.387396	-0.108738	0.038192	0.004758	-0.266739	-0.833252	-0.345215	-0.701172	0.083766	0.013004	0.051595	0.797231	0.172442	-0.546673	0.189299	11.216434	-69.543284	18.914298
21967		9.142633	2.301524	5.977617	-2.919726	0.147483	0.960895	-0.165854	-0.022173	-0.309914	-0.833008	-0.349609	-0.703369	0.091455	0.022923	0.059767	0.797576	0.172603	-0.546709	0.187592	11.580441	-69.527653	18.419189
21968		9.015542	2.635898	5.739912	-2.912521	0.532379	0.789588	-0.265883	0.182693	-0.324981	-0.828613	-0.349365	-0.705566	0.090251	0.026289	0.057282	0.798573	0.172220	-0.546007	0.185734	11.844587	-69.394853	17.970461
21969		8.452915	2.905025	4.760087	-2.403355	1.177991	-0.046142	-0.223951	0.325418	-0.309143	-0.824463	-0.344727	-0.707764	0.084651	0.028973	0.047431	0.799909	0.171820	-0.544706	0.184169	12.058637	-69.182804	17.599281
21970		8.341275	2.777425	4.092431	-1.801975	1.375761	-0.384060	-0.115723	0.287081	-0.246686	-0.824219	-0.346924	-0.714355	0.083506	0.027695	0.040788	0.800983	0.171724	-0.543511	0.183121	12.250151	-68.999631	17.319116
21971		8.696107	2.545449	4.263626	-1.679387	1.129443	-0.005340	-0.038227	0.170123	-0.167587	-0.817383	-0.353271	-0.718750	0.087019	0.025390	0.042557	0.801601	0.171824	-0.542778	0.182493	12.404317	-68.890968	17.125279
21972		9.349817	2.341053	4.684596	-1.679116	0.819331	0.739768	0.003003	0.110559	-0.079776	-0.821777	-0.353516	-0.714355	0.093533	0.023373	0.046795	0.801940	0.171910	-0.542321	0.182282	12.473332	-68.826421	17.048863
21973		9.787224	2.077385	4.710854	-1.409151	0.626353	1.138084	-0.055490	0.151697	-0.039914	-0.812988	-0.348877	-0.718750	0.097912	0.020767	0.047029	0.802406	0.171611	-0.541787	0.182104	12.437334	-68.743689	17.048194
21974		9.443929	1.400090	3.928845	-0.556987	0.377139	0.489320	-0.219587	0.188763	-0.078066	-0.812988	-0.348633	-0.727783	0.094482	0.014007	0.039184	0.803144	0.170730	-0.541220	0.181364	12.351458	-68.635638	17.001197
21975		8.685167	0.800781	3.259814	0.021021	0.096662	-0.501944	-0.380044	0.169851	-0.155514	-0.815430	-0.344482	-0.725586	0.086886	0.008002	0.032509	0.804037	0.169423	-0.540806	0.179857	12.289302	-68.528612	16.828876
21976		8.257869	0.300646	2.973059	0.352963	-0.248584	-1.041400	-0.503619	0.111697	-0.235517	-0.804443	-0.341797	-0.732178	0.082599	0.002984	0.029677	0.804945	0.167891	-0.540665	0.177647	12.287688	-68.444325	16.515830
21977		7.782096	-0.153164	2.602718	0.706889	-0.527306	-1.652977	-0.606926	0.083512	-0.295634	-0.817871	-0.342285	-0.732178	0.077830	-0.001568	0.025999	0.805908	0.166125	-0.540674	0.174887	12.318994	-68.368543	16.102977
21978		7.039463	-0.546679	2.193154	0.964606	-0.768339	-2.522830	-0.701177	0.090337	-0.334501	-0.811279	-0.337402	-0.738770	0.070395	-0.005508	0.021919	0.806991	0.164079	-0.540698	0.171722	12.347476	-68.284020	15.635286
21979		6.322205	-0.759747	1.947259	1.009472	-0.924142	-3.296076	-0.784322	0.080623	-0.349899	-0.802490	-0.337158	-0.738770	0.063217	-0.007632	0.019477	0.808116	0.161743	-0.540812	0.168256	12.350815	-68.203084	15.142643
21980		6.038932	-0.823794	1.921608	0.957035	-1.003099	-3.574275	-0.848907	0.063584	-0.344085	-0.807129	-0.333008	-0.745361	0.060381	-0.008260	0.019232	0.809226	0.159142	-0.541041	0.164625	12.312661	-68.132308	14.654986
21981		6.064600	-0.849030	1.964545	0.938622	-1.046408	-3.537045	-0.879342	0.045899	-0.315524	-0.800781	-0.325928	-0.749756	0.060637	-0.008500	0.019669	0.810272	0.156351	-0.541379	0.161007	12.221256	-68.075260	14.205297
21982		6.182226	-1.003299	1.919387	1.080313	-1.158043	-3.456396	-0.840998	0.067776	-0.275495	-0.803223	-0.321533	-0.751953	0.061815	-0.010037	0.019215	0.811298	0.153585	-0.541616	0.157670	12.088449	-68.010876	13.823938
21983		6.534682	-0.816117	2.211512	0.882666	-1.080231	-3.007329	-0.765154	0.069213	-0.212307	-0.803467	-0.314941	-0.754150	0.065346	-0.008146	0.022124	0.812204	0.150952	-0.541828	0.154791	11.910663	-67.953840	13.537613
21984		6.970476	-0.902510	2.290905	1.007411	-1.150232	-2.579956	-0.663350	0.060376	-0.161137	-0.801514	-0.310547	-0.756348	0.069704	-0.009005	0.022918	0.812959	0.148597	-0.542027	0.152389	11.721940	-67.908039	13.325834
21985		7.424740	-0.722147	2.403974	1.001490	-0.988357	-2.102465	-0.542263	0.048803	-0.094853	-0.799316	-0.312500	-0.763184	0.074250	-0.007192	0.024041	0.813534	0.146563	-0.542226	0.150573	11.515121	-67.876727	13.208506
21986		7.736279	-0.702645	2.347567	1.151801	-0.914753	-1.832000	-0.417555	0.046018	-0.039617	-0.803955	-0.306152	-0.760986	0.077367	-0.006993	0.023472	0.813964	0.144887	-0.542378	0.149318	11.303653	-67.853220	13.173256
21987		7.823550	-0.690591	2.261434	1.247668	-0.855310	-1.780832	-0.308909	0.019151	-0.001299	-0.799805	-0.303711	-0.763184	0.078238	-0.006871	0.022617	0.814211	0.143570	-0.542585	0.148492	11.109799	-67.849309	13.186250
21988		7.846553	-0.728019	2.213775	1.305676	-0.863149	-1.778424	-0.215660	-0.021960	0.016511	-0.797852	-0.296875	-0.760986	0.078464	-0.007250	0.022154	0.814263	0.142612	-0.542903	0.147964	10.955004	-67.870487	13.214721
21989		8.023121	-0.850760	2.052373	1.548533	-0.892683	-1.681780	-0.110645	-0.031223	0.036972	-0.806641	-0.299561	-0.758545	0.080230	-0.008481	0.020541	0.814201	0.142035	-0.543194	0.147795	10.835216	-67.899036	13.270381
21990		9.003521	-1.280520	1.666819	2.394969	-1.044292	-0.943923	0.100658	-0.053422	0.134607	-0.804199	-0.301514	-0.756348	0.090039	-0.012753	0.016686	0.813853	0.142067	-0.543491	0.148585	10.705435	-67.950758	13.467303
21991		7.202146	-0.348999	1.988920	1.089655	-0.466531	-2.427330	0.163787	-0.024263	0.187195	-0.802002	-0.303711	-0.756348	0.072022	-0.003439	0.019895	0.813502	0.142194	-0.543656	0.149777	10.531423	-67.991145	13.751044
21992		6.887591	-0.823549	1.918309	1.212763	-0.894521	-2.775211	0.049701	-0.182651	0.138756	-0.809082	-0.295166	-0.754150	0.068864	-0.008192	0.019244	0.812833	0.142109	-0.544518	0.150355	10.399144	-68.115806	13.919743
21993		6.798239	-0.766979	1.865152	1.184392	-0.827402	-2.870375	-0.032553	-0.254601	0.128917	-0.808838	-0.299561	-0.751953	0.067963	-0.007623	0.018739	0.812036	0.141768	-0.545725	0.150613	10.250355	-68.279500	14.054706
21994		6.985592	-0.936983	1.812872	1.342665	-0.943798	-2.722596	-0.089786	-0.242339	0.109226	-0.808838	-0.299561	-0.754150	0.069839	-0.009324	0.018218	0.811322	0.141239	-0.546913	0.150647	10.090723	-68.434685	14.166195
21995		7.294079	-1.079853	1.477176	1.772963	-0.912563	-2.561789	-0.078327	-0.216217	0.114918	-0.811523	-0.288574	-0.743164	0.072931	-0.010751	0.014855	0.810669	0.140721	-0.547985	0.150749	9.921777	-68.575046	14.294348
21996		7.874547	-1.053236	1.081676	2.282808	-0.678199	-2.156539	-0.013753	-0.214962	0.112687	-0.817871	-0.297607	-0.740967	0.078740	-0.010487	0.010902	0.809971	0.140470	-0.549005	0.151025	9.790204	-68.714837	14.422323
21997		8.650666	-1.170634	0.993288	2.657824	-0.680933	-1.466233	0.107014	-0.229842	0.073798	-0.817627	-0.300049	-0.736572	0.086499	-0.011680	0.010026	0.809179	0.140825	-0.549962	0.151459	9.787573	-68.858706	14.485737
21998		9.121298	-0.910511	1.176684	2.544276	-0.475871	-0.940716	0.246687	-0.205403	0.065129	-0.815674	-0.297607	-0.736572	0.091204	-0.009090	0.011849	0.808353	0.141758	-0.550712	0.152267	9.871608	-68.988850	14.543309
21999		9.798335	-0.257039	1.643476	2.103197	-0.006154	-0.099245	0.130889	-0.174643	0.070441	-0.817627	-0.300049	-0.734375	0.097970	-0.002547	0.016519	0.807695	0.142177	-0.551424	0.152792	9.873193	-69.101264	14.616746
22000		10.374357	0.066071	1.231909	2.499640	0.503822	0.318807	0.005064	-0.191271	0.089168	-0.824463	-0.298096	-0.729980	0.103731	0.000707	0.012418	0.807061	0.142055	-0.552316	0.153040	9.778612	-69.225610	14.717013
22001		11.214482	0.808541	0.643845	2.954538	1.488677	0.952407	-0.035619	-0.366669	0.093409	-0.826904	-0.298096	-0.732178	0.112129	0.008139	0.006643	0.805970	0.141885	-0.553944	0.153061	9.697993	-69.448627	14.776203
22002		11.646373	1.264261	0.639582	2.866747	1.931153	1.398799	0.104346	-0.594915	0.068197	-0.831299	-0.298340	-0.714355	0.116440	0.012679	0.006749	0.804155	0.142529	-0.556368	0.153213	9.794850	-69.799101	14.732743
22003		11.515813	2.021558	2.273042	1.053616	1.935459	1.892469	-0.000743	-0.687769	0.091800	-0.833740	-0.291748	-0.709961	0.115070	0.020268	0.023126	0.802137	0.142748	-0.559252	0.153091	9.821562	-70.203274	14.698726
22004		12.147554	1.615933	3.862820	-0.004687	0.964664	2.999991	0.163573	-0.482563	0.155857	-0.837891	-0.298584	-0.712158	0.121369	0.016222	0.038934	0.800509	0.143296	-0.561235	0.153840	9.785861	-70.499247	14.832413
22005		13.078802	1.372307	5.634201	-1.173178	0.093957	4.445545	0.574307	-0.258980	0.247870	-0.846924	-0.298828	-0.694580	0.130698	0.013723	0.056551	0.799145	0.145048	-0.562060	0.156259	9.774044	-70.676508	15.188710
22006		15.496146	1.925750	7.343214	-2.135960	0.087710	7.310149	0.805055	-0.240185	0.352226	-0.842285	-0.298828	-0.690186	0.154839	0.019234	0.073696	0.797562	0.147423	-0.562704	0.159765	9.717426	-70.854603	15.733787
22007		17.570194	3.535202	8.870700	-3.538958	1.085089	9.839184	0.475795	-0.376781	0.517392	-0.849365	-0.294434	-0.692383	0.175442	0.035594	0.089122	0.795701	0.148116	-0.564259	0.162890	9.228908	-71.123224	16.533717
22008		17.066407	4.104053	8.260733	-3.571940	1.828423	9.167303	-0.118173	-0.826990	0.587467	-0.853760	-0.292480	-0.676758	0.170199	0.041590	0.083287	0.792926	0.146619	-0.568137	0.164289	8.372878	-71.651224	17.361731
22009		14.110510	2.855838	6.149837	-2.292488	1.340050	5.615532	-0.261981	-0.742227	0.462587	-0.860840	-0.286133	-0.676758	0.140809	0.028965	0.061984	0.790590	0.144826	-0.571684	0.164834	7.584213	-72.115958	18.028512
22010		11.857763	2.152541	6.113776	-2.712057	0.541138	3.414929	-0.381784	-0.214622	0.286205	-0.858887	-0.279297	-0.676758	0.118481	0.021812	0.061223	0.789973	0.142638	-0.573116	0.164728	6.890963	-72.266738	18.523477
22011		11.079995	1.775927	6.956740	-3.529771	-0.173776	2.908425	-0.454681	0.066759	0.210202	-0.863770	-0.272949	-0.678955	0.110804	0.018034	0.069490	0.790281	0.140136	-0.573430	0.164303	6.225341	-72.249185	18.943746
22012		10.155730	1.276709	7.319515	-3.912444	-0.812981	2.119444	-0.442888	0.026604	0.183625	-0.866211	-0.270752	-0.681152	0.101555	0.013022	0.073153	0.790476	0.137796	-0.573877	0.163786	5.622396	-72.252538	19.306528
22013		9.878676	1.135116	7.130693	-3.774351	-0.842377	1.796273	-0.379394	0.222816	0.144244	-0.862305	-0.259521	-0.685791	0.098858	0.011558	0.071175	0.791224	0.135652	-0.573460	0.163422	5.093791	-72.139754	19.628340
22014		10.047159	0.585470	6.123216	-2.605810	-0.873247	1.642829	-0.249307	0.454584	0.073897	-0.853271	-0.261475	-0.685791	0.100608	0.005968	0.060996	0.792596	0.134039	-0.571974	0.163315	4.734322	-71.891332	19.852014
22015		11.152693	-0.290268	5.270192	-1.151036	-1.178162	2.415503	-0.163902	0.339608	0.020720	-0.855713	-0.257080	-0.690186	0.111617	-0.002848	0.052515	0.793627	0.133004	-0.570830	0.163157	4.538768	-71.704899	19.953931
22016		11.742421	-1.146741	4.840898	-0.226203	-1.701047	2.824121	0.008629	0.263488	0.059599	-0.855225	-0.263672	-0.690186	0.117491	-0.011434	0.048254	0.794286	0.132611	-0.569875	0.163602	4.388116	-71.564307	20.113852
22017		10.995327	-1.719905	4.878579	-0.212373	-2.294561	2.118176	0.159871	0.381232	0.158885	-0.855469	-0.261230	-0.701172	0.110060	-0.017151	0.048562	0.795103	0.132432	-0.568390	0.164943	4.142845	-71.359777	20.464066
22018		10.068054	-1.931957	4.766117	-0.268016	-2.514135	1.206437	0.110813	0.415364	0.210146	-0.846680	-0.258789	-0.707764	0.100799	-0.019240	0.047441	0.795997	0.131894	-0.566843	0.166379	3.786925	-71.137883	20.903405
22019		9.940134	-1.784181	4.348107	0.017206	-2.195339	0.961156	-0.040114	0.255269	0.177157	-0.851318	-0.254639	-0.701172	0.099472	-0.017745	0.043358	0.796566	0.130971	-0.566032	0.167141	3.424090	-71.004771	21.257581
22020		10.644818	-1.432799	3.789657	0.570114	-1.546386	1.457192	-0.111819	0.051039	0.121769	-0.853516	-0.254639	-0.705566	0.106467	-0.014242	0.037877	0.796646	0.130096	-0.566059	0.167353	3.135038	-70.986452	21.491506
22021		10.967704	-0.783248	3.803719	0.383371	-0.906712	1.780551	-0.051701	0.035154	0.089488	-0.855957	-0.252441	-0.705566	0.109687	-0.007774	0.038020	0.796672	0.129559	-0.566076	0.167588	2.936030	-70.975484	21.665566
22022		9.722759	0.282029	4.142710	-0.724866	-0.208054	0.732686	0.047673	0.106056	0.113482	-0.851074	-0.259033	-0.705566	0.097248	0.002866	0.041376	0.796809	0.129297	-0.565746	0.168255	2.748380	-70.925090	21.889122
22023		8.760814	0.934323	4.274916	-1.394214	0.228954	-0.122308	0.148736	0.155830	0.156298	-0.849121	-0.252197	-0.712158	0.087634	0.009380	0.042688	0.796989	0.129268	-0.565156	0.169402	2.545765	-70.846437	22.188642
22024		8.159958	1.284668	4.022488	-1.499098	0.586745	-0.767019	0.203935	0.180559	0.210342	-0.848877	-0.256592	-0.716553	0.081622	0.012892	0.040164	0.797152	0.129293	-0.564455	0.170945	2.286750	-70.754938	22.583020
22025		8.072050	1.435939	3.556482	-1.181936	0.915469	-1.001707	0.221259	0.252416	0.244336	-0.851318	-0.256592	-0.716553	0.080748	0.014419	0.035479	0.797479	0.129222	-0.563473	0.172708	1.981100	-70.621986	23.036108
22026		7.837579	1.319489	2.975174	-0.695378	1.033428	-1.418120	0.222462	0.338878	0.260389	-0.846924	-0.254395	-0.721191	0.078409	0.013264	0.029634	0.798027	0.129043	-0.562151	0.174603	1.652017	-70.439194	23.516679
22027		6.995203	1.133380	2.614957	-0.552486	0.919879	-2.335794	0.264848	0.383411	0.272044	-0.844727	-0.251953	-0.725586	0.069987	0.011394	0.026030	0.798662	0.128952	-0.560620	0.176683	1.333964	-70.229957	24.010451
22028		7.166668	1.046829	2.549595	-0.388928	0.914626	-2.198915	0.334820	0.440201	0.292643	-0.838135	-0.251709	-0.725586	0.071707	0.010531	0.025356	0.799383	0.129038	-0.558807	0.179083	1.030680	-69.987631	24.532976
22029		6.929537	1.116400	2.538880	-0.462970	0.970539	-2.426593	0.353553	0.456621	0.254657	-0.846924	-0.254150	-0.729980	0.069339	0.011208	0.025250	0.800167	0.129282	-0.556883	0.181385	0.806374	-69.734638	24.982509
22030		6.483148	1.375890	2.261750	-0.459599	1.271178	-2.941545	0.371787	0.506024	0.198298	-0.838135	-0.251709	-0.736572	0.064875	0.013781	0.022479	0.801117	0.129717	-0.554703	0.183550	0.686709	-69.452643	25.333452
22031		6.243116	1.457156	1.859486	-0.212376	1.487739	-3.308921	0.338595	0.414238	0.121242	-0.835938	-0.251709	-0.743164	0.062461	0.014578	0.018490	0.801900	0.130310	-0.552866	0.185245	0.671727	-69.222384	25.551642
22032		6.333812	1.591167	1.661393	-0.061195	1.711689	-3.295358	0.291212	0.282285	0.044919	-0.837646	-0.258301	-0.743164	0.063358	0.015902	0.016548	0.802414	0.131047	-0.551548	0.186421	0.748575	-69.067205	25.643399
22033		6.330924	1.828233	1.786443	-0.262823	1.872564	-3.252288	0.241724	0.129427	-0.023276	-0.837891	-0.256104	-0.738770	0.063323	0.018253	0.017846	0.802601	0.131914	-0.550845	0.187083	0.901993	-68.999118	25.622252
22034		6.500082	1.813777	1.999739	-0.376385	1.791096	-3.016356	0.188696	0.009445	-0.074598	-0.835205	-0.264893	-0.736572	0.065009	0.018095	0.020011	0.802538	0.132826	-0.550638	0.187317	1.104513	-68.999450	25.516854
22035		6.640980	1.790647	2.163592	-0.457215	1.714058	-2.823903	0.098259	-0.060380	-0.110433	-0.833008	-0.264893	-0.736572	0.066413	0.017859	0.021665	0.802378	0.133534	-0.550771	0.187108	1.310700	-69.038989	25.351152
22036		6.808033	1.772004	2.188529	-0.416854	1.702641	-2.656836	-0.013765	-0.075038	-0.128490	-0.837402	-0.262695	-0.740967	0.068083	0.017678	0.021910	0.802266	0.133865	-0.551056	0.186514	1.482073	-69.086749	25.155398
22037		6.729356	1.531322	2.097693	-0.259707	1.506022	-2.763295	-0.153718	-0.075901	-0.135205	-0.839844	-0.262939	-0.734375	0.067296	0.015284	0.020991	0.802253	0.133645	-0.551470	0.185500	1.583014	-69.134462	24.947918
22038		6.775834	1.351071	1.963940	-0.053477	1.402987	-2.768318	-0.279712	-0.080905	-0.129017	-0.842041	-0.260742	-0.740967	0.067759	0.013494	0.019648	0.802301	0.132913	-0.552024	0.184164	1.603995	-69.185383	24.749775
22039		6.723696	1.028645	1.862876	0.154787	1.146406	-2.855799	-0.367736	-0.089956	-0.094966	-0.833496	-0.256104	-0.738770	0.067233	0.010289	0.018640	0.802351	0.131736	-0.552716	0.182711	1.523296	-69.241734	24.605564
22040		6.811332	0.905817	1.659401	0.403486	1.133589	-2.847019	-0.404240	-0.096779	-0.059608	-0.837891	-0.256104	-0.734375	0.068108	0.009071	0.016609	0.802369	0.130325	-0.553490	0.181297	1.369106	-69.302830	24.518282
22041		6.798338	0.695384	1.341620	0.752420	1.074232	-2.973039	-0.418456	-0.102225	-0.022509	-0.840088	-0.253906	-0.740967	0.067977	0.006974	0.013436	0.802345	0.128753	-0.554320	0.179985	1.149785	-69.367392	24.491281
22042		6.734552	0.637222	1.046124	0.999183	1.134641	-3.136698	-0.404771	-0.112448	0.005337	-0.840576	-0.247314	-0.743164	0.067339	0.006395	0.010486	0.802252	0.127175	-0.555195	0.178818	0.896403	-69.438470	24.509957
22043		6.616798	0.766381	1.034527	0.907628	1.240920	-3.249462	-0.340153	-0.143111	0.022883	-0.840576	-0.245117	-0.738770	0.066160	0.007689	0.010380	0.802017	0.125827	-0.556143	0.177878	0.652039	-69.526886	24.557624
22044		6.840408	1.017734	1.434146	0.522261	1.342525	-2.898311	-0.255097	-0.183764	0.026963	-0.842773	-0.247559	-0.729980	0.068389	0.010205	0.014391	0.801608	0.124849	-0.557180	0.177166	0.450183	-69.638805	24.612446
22045		7.023183	1.275852	1.884513	0.074474	1.424028	-2.569009	-0.199622	-0.217124	0.022537	-0.847656	-0.238770	-0.736572	0.070210	0.012785	0.018909	0.801075	0.124131	-0.558296	0.176568	0.285382	-69.769504	24.661062
22046		7.515566	1.221181	2.090092	0.060452	1.362847	-2.035640	-0.205650	-0.244294	0.012935	-0.847656	-0.238770	-0.734375	0.075129	0.012238	0.020980	0.800472	0.123446	-0.559522	0.175900	0.131871	-69.916236	24.694825
22047		7.984387	0.810412	2.079743	0.368838	1.058849	-1.598353	-0.215373	-0.245922	0.001756	-0.847656	-0.238770	-0.725586	0.079818	0.008127	0.020887	0.799882	0.122748	-0.560752	0.175156	-0.011846	-70.063331	24.711312
22048		8.214422	0.180476	1.887831	0.848293	0.591846	-1.445890	-0.232057	-0.200728	-0.000176	-0.850098	-0.234375	-0.727783	0.082125	0.001827	0.018959	0.799425	0.121955	-0.561815	0.174387	-0.162140	-70.185037	24.725429
22049		8.813073	-0.395640	1.647246	1.460309	0.243340	-0.961221	-0.212420	-0.183283	-0.013054	-0.848145	-0.227539	-0.725586	0.088115	-0.003945	0.016557	0.799018	0.121254	-0.562780	0.173629	-0.282387	-70.296246	24.718749
22050		9.337925	-1.058718	1.203858	2.257777	-0.119251	-0.611861	-0.180717	-0.174738	-0.017113	-0.854736	-0.229980	-0.723389	0.093368	-0.010584	0.012130	0.798614	0.120688	-0.563682	0.172951	-0.377928	-70.403106	24.705559
22051		10.311318	-1.406434	0.931448	2.911298	-0.203128	0.219858	-0.172256	-0.220292	-0.038019	-0.854980	-0.225586	-0.723389	0.103100	-0.014076	0.009440	0.798097	0.120250	-0.564743	0.172183	-0.436196	-70.535627	24.657543
22052		10.405929	-1.505330	0.765101	3.095355	-0.230452	0.262049	-0.222625	-0.328183	-0.045174	-0.850342	-0.229980	-0.714355	0.104043	-0.015068	0.007839	0.797305	0.119727	-0.566275	0.171181	-0.512863	-70.730723	24.598915
22053		10.431189	-1.220268	1.641161	2.188883	-0.321747	0.584293	-0.268767	-0.482216	-0.012252	-0.859375	-0.228027	-0.714355	0.104271	-0.012187	0.016679	0.796075	0.119054	-0.568474	0.170085	-0.673686	-71.013207	24.601035
22054		11.172777	-0.673839	3.614066	0.415687	-0.497377	1.931493	-0.253951	-0.657552	0.018146	-0.861816	-0.221436	-0.705566	0.111609	-0.006682	0.036516	0.794299	0.118509	-0.571373	0.169049	-0.883062	-71.396682	24.664297
22055		13.879809	-0.357629	5.459571	-0.623031	-0.578838	5.082265	-0.178535	-0.758628	0.024331	-0.870850	-0.221924	-0.698975	0.138590	-0.003510	0.055125	0.792178	0.118323	-0.574602	0.168188	-1.069132	-71.837147	24.747491
22056		16.290044	0.355420	6.536863	-1.269195	-0.057334	7.697522	-0.058032	-0.578045	-0.010215	-0.868408	-0.224121	-0.690186	0.162711	0.003565	0.065838	0.790518	0.118565	-0.576992	0.167643	-1.123558	-72.175403	24.765301
22057		17.519766	0.502704	7.672317	-2.045634	-0.244863	9.208731	0.208949	-0.304415	-0.125340	-0.879639	-0.224365	-0.694580	0.175084	0.004837	0.076995	0.789586	0.119959	-0.577999	0.167572	-0.808626	-72.357110	24.555282
22058		17.730567	-0.269563	8.178310	-2.150782	-1.193852	9.559419	0.536610	-0.305816	-0.183212	-0.872559	-0.230957	-0.685791	0.177178	-0.003078	0.082046	0.788491	0.122821	-0.578704	0.168221	-0.193524	-72.540251	24.228439
22059		16.473493	-1.230232	6.900207	-0.996471	-1.807192	7.970536	0.675367	-0.117669	-0.107687	-0.874512	-0.235352	-0.683594	0.164688	-0.012624	0.069057	0.787789	0.125845	-0.578585	0.169679	0.370316	-72.613768	24.037992
22060		14.020956	-1.376090	4.866338	0.177225	-1.476321	5.018060	0.607893	0.031013	0.026225	-0.872070	-0.241943	-0.687988	0.140219	-0.013890	0.048600	0.787433	0.128096	-0.578019	0.171565	0.650993	-72.603085	24.104731
22061		12.544898	-0.670671	4.899382	-0.543587	-1.050182	3.619728	0.569804	-0.151821	0.059770	-0.874268	-0.239746	-0.685791	0.125414	-0.006809	0.049070	0.786541	0.130248	-0.578219	0.173351	0.851619	-72.696762	24.231521
22062		12.337354	-0.400033	5.391479	-1.138337	-1.053091	3.567653	0.500462	0.006186	0.008771	-0.871582	-0.248535	-0.683594	0.123375	-0.004130	0.053901	0.786188	0.132142	-0.577822	0.174841	1.102775	-72.699959	24.264461
22063		10.251977	-1.109945	4.557907	-0.649230	-1.617249	1.326087	0.404708	0.413388	-0.026893	-0.872070	-0.244141	-0.696777	0.102612	-0.011205	0.045344	0.787102	0.133401	-0.575878	0.176178	1.347948	-72.469118	24.245471
22064		9.681192	-0.487464	4.546963	-1.006689	-1.116240	0.788171	0.289357	0.572803	-0.086449	-0.867188	-0.250732	-0.692383	0.096939	-0.004982	0.045185	0.788596	0.134239	-0.573364	0.177056	1.623290	-72.146177	24.125922
22065		9.208307	-0.278574	4.639515	-1.256882	-1.021504	0.374180	0.029930	0.369092	-0.183119	-0.860596	-0.248291	-0.692383	0.092166	-0.002877	0.046225	0.789762	0.134507	-0.571814	0.176669	1.924796	-71.937887	23.821929
22066		8.945985	0.711816	4.878292	-1.927559	-0.258519	0.214906	-0.251856	0.305207	-0.270963	-0.860352	-0.250488	-0.698975	0.089544	0.007058	0.048637	0.791007	0.133973	-0.570704	0.175089	2.215875	-71.764133	23.359197
22067		9.233456	1.673222	4.903950	-2.248245	0.639988	0.514017	-0.529614	0.207290	-0.366231	-0.858398	-0.245850	-0.707764	0.092416	0.016693	0.048900	0.792237	0.132693	-0.570155	0.172269	2.513163	-71.643186	22.721393
22068		9.468883	1.745408	4.437586	-1.779046	0.928043	0.597500	-0.650006	0.171894	-0.442995	-0.856201	-0.243652	-0.703369	0.094765	0.017388	0.044238	0.793500	0.131185	-0.569791	0.168777	2.869997	-71.539304	21.947848
22069		9.494869	1.658655	4.052047	-1.371340	1.007718	0.503639	-0.645269	0.176798	-0.425077	-0.856445	-0.243652	-0.709961	0.095020	0.016515	0.040383	0.794747	0.129637	-0.569407	0.165369	3.192431	-71.431698	21.212835
22070		9.002487	1.421621	3.588937	-0.992777	0.915996	-0.111062	-0.452138	0.144407	-0.334976	-0.854004	-0.247803	-0.714355	0.090074	0.014146	0.035792	0.795692	0.128625	-0.569044	0.162847	3.469431	-71.344568	20.642073
22071		9.154153	1.200177	3.748716	-0.979687	0.662408	0.081413	-0.194061	0.015171	-0.210366	-0.847412	-0.240967	-0.712158	0.091557	0.011942	0.037469	0.795998	0.128390	-0.569061	0.161470	3.695007	-71.334836	20.281528
22072		9.763877	1.046381	4.402280	-1.300546	0.324441	0.864933	0.014135	-0.125928	-0.095625	-0.856201	-0.248047	-0.714355	0.097616	0.010414	0.044085	0.795676	0.128772	-0.569543	0.161052	3.861426	-71.409633	20.109417
22073		10.658339	0.866931	5.158165	-1.621169	-0.046092	1.948610	0.066602	-0.047503	-0.029936	-0.858398	-0.248047	-0.716553	0.106572	0.008636	0.051610	0.795490	0.129111	-0.569715	0.161094	3.938224	-71.442119	20.063563
22074		10.667508	0.596172	4.922822	-1.298817	-0.200616	1.877399	-0.011859	0.183546	-0.008962	-0.856445	-0.243408	-0.721191	0.106720	0.005960	0.049130	0.795995	0.128895	-0.569043	0.161147	3.907651	-71.343311	20.083845
22075		9.794920	-0.020633	3.945047	-0.444629	-0.468315	0.727103	-0.133432	0.304977	-0.027748	-0.849854	-0.240967	-0.723389	0.098009	-0.000194	0.039301	0.796938	0.128148	-0.567973	0.160856	3.825541	-71.174393	20.084724
22076		8.814999	-0.550275	3.089807	0.234410	-0.716488	-0.486083	-0.257456	0.291790	-0.068824	-0.847168	-0.247559	-0.723389	0.088193	-0.005493	0.030776	0.797955	0.127031	-0.567026	0.160038	3.742333	-71.011156	20.011223
22077		8.278211	-0.922336	2.520754	0.727417	-0.888946	-1.186315	-0.403017	0.213564	-0.116652	-0.847412	-0.243164	-0.732178	0.082804	-0.009221	0.025138	0.798876	0.125533	-0.566476	0.158568	3.664188	-70.891214	19.844500
22078		7.940130	-1.232439	1.996533	1.208173	-1.007130	-1.683929	-0.531917	0.166671	-0.137296	-0.847900	-0.231934	-0.732178	0.079409	-0.012326	0.019932	0.799757	0.123618	-0.566195	0.156621	3.550969	-70.797096	19.636861
22079		7.308164	-1.402309	1.701635	1.336857	-1.120529	-2.381098	-0.668635	0.145221	-0.146058	-0.845703	-0.231934	-0.738770	0.073084	-0.014020	0.017010	0.800659	0.121194	-0.566099	0.154236	3.375304	-70.715452	19.412037
22080		6.690433	-1.726621	1.291950	1.623607	-1.337387	-3.105412	-0.689272	0.137774	-0.170542	-0.837158	-0.227051	-0.747559	0.066899	-0.017279	0.012933	0.801563	0.118756	-0.566026	0.151686	3.227010	-70.637204	19.144947
22081		6.205184	-1.798508	1.179402	1.595608	-1.420497	-3.602523	-0.580235	0.159508	-0.212458	-0.841309	-0.229492	-0.743164	0.062042	-0.018017	0.011797	0.802484	0.116861	-0.565753	0.149290	3.207547	-70.545570	18.807984
22082		6.109258	-1.601832	1.418232	1.284266	-1.338463	-3.611119	-0.479440	0.131759	-0.188554	-0.843994	-0.220703	-0.745361	0.061087	-0.016042	0.014181	0.803240	0.115329	-0.565525	0.147262	3.209098	-70.470863	18.510785
22083		6.242481	-1.734442	1.595625	1.218432	-1.513612	-3.429328	-0.416299	0.055732	-0.138113	-0.844238	-0.216309	-0.745361	0.062417	-0.017354	0.015975	0.803706	0.113957	-0.565581	0.145565	3.170816	-70.441021	18.293181
22084		6.581519	-1.749608	2.034357	0.942379	-1.646074	-2.962980	-0.307922	0.010802	-0.067083	-0.851318	-0.212158	-0.749756	0.065810	-0.017487	0.020367	0.803925	0.112857	-0.565778	0.144439	3.084754	-70.439470	18.193085
22085		6.700728	-1.672456	2.493097	0.544087	-1.717111	-2.694549	-0.229150	0.008219	0.008414	-0.842041	-0.216309	-0.747559	0.067009	-0.016693	0.024947	0.804040	0.111857	-0.565969	0.143833	2.921840	-70.441448	18.221520
22086		7.181996	-1.600155	2.513055	0.647031	-1.598436	-2.230910	-0.227480	0.009208	0.078356	-0.846680	-0.214111	-0.751953	0.071827	-0.015945	0.025145	0.804102	0.110669	-0.566194	0.143518	2.647553	-70.445063	18.370062
22087		7.334819	-1.581166	2.322529	0.849000	-1.488464	-2.147346	-0.163666	0.004414	0.129243	-0.844482	-0.211914	-0.747559	0.073359	-0.015745	0.023237	0.804079	0.109592	-0.566419	0.143580	2.327604	-70.452138	18.604955
22088		7.428711	-1.517089	2.215275	0.942711	-1.369584	-2.090623	-0.080351	-0.022429	0.167248	-0.840332	-0.209473	-0.756592	0.074297	-0.015100	0.022167	0.803905	0.108767	-0.566713	0.144022	1.995684	-70.475255	18.904066
22089		7.491425	-1.508657	2.151527	1.006991	-1.320366	-2.049367	-0.006802	-0.050852	0.194034	-0.847168	-0.205322	-0.747559	0.074923	-0.015013	0.021535	0.803592	0.108177	-0.567082	0.144759	1.662937	-70.514261	19.247817
22090		7.489415	-1.531613	2.017777	1.124337	-1.283336	-2.092746	0.050026	-0.025784	0.208301	-0.847168	-0.203125	-0.749756	0.074907	-0.015243	0.020184	0.803306	0.107761	-0.567317	0.145733	1.337491	-70.538776	19.619166
22091		7.508244	-1.422625	1.742679	1.328879	-1.071883	-2.162873	0.097594	0.017780	0.210013	-0.844971	-0.202881	-0.754150	0.075099	-0.014156	0.017413	0.803118	0.107495	-0.567341	0.146867	1.034352	-70.537365	19.994861
22092		7.439825	-1.247232	1.529463	1.430370	-0.828745	-2.295171	0.115272	0.040678	0.203646	-0.846924	-0.209717	-0.751953	0.074414	-0.012405	0.015272	0.802987	0.107305	-0.567258	0.148043	0.751224	-70.522474	20.360956
22093		7.233858	-1.002271	1.488191	1.312372	-0.596426	-2.500375	0.084789	0.019418	0.180638	-0.852051	-0.198730	-0.749756	0.072349	-0.009964	0.014871	0.802830	0.107069	-0.567268	0.149023	0.488700	-70.518707	20.685829
22094		7.242448	-0.878937	1.310950	1.421629	-0.409296	-2.549382	0.069417	-0.044021	0.150148	-0.849365	-0.205322	-0.749756	0.072428	-0.008740	0.013122	0.802520	0.106909	-0.567529	0.149809	0.267113	-70.551078	20.958761
22095		7.504090	-1.902461	0.185865	2.863519	-0.938501	-2.679334	0.808195	-0.024152	0.088763	-0.848877	-0.216553	-0.745361	0.075049	-0.018999	0.001791	0.801914	0.109868	-0.567117	0.152448	0.568089	-70.571508	21.125527
22096		7.150624	1.171605	2.176659	-0.125877	1.182219	-2.340845	0.542663	-0.080397	0.115419	-0.848877	-0.216553	-0.743164	0.071491	0.011698	0.021827	0.801261	0.111732	-0.567144	0.154415	0.674135	-70.624941	21.338458
22097		7.214564	-1.088454	0.687971	2.029473	-0.383792	-2.781194	0.360607	-0.221594	0.050796	-0.855469	-0.218994	-0.738770	0.072141	-0.010879	0.006940	0.800358	0.113155	-0.567835	0.155520	0.784025	-70.758512	21.435831
22098		7.552531	0.385152	0.809972	1.459081	0.972988	-2.412046	0.904856	-0.104081	0.056585	-0.854980	-0.225586	-0.732178	0.075520	0.003836	0.008156	0.799463	0.116650	-0.567631	0.158265	1.193803	-70.825412	21.546616
22099		7.311719	0.884358	1.388789	0.673314	1.183552	-2.442622	0.428073	-0.269147	0.042845	-0.856934	-0.230225	-0.732178	0.073097	0.008829	0.014005	0.798380	0.118403	-0.568446	0.159497	1.359840	-70.986422	21.625353
22100		8.064646	-0.152909	0.609516	1.964478	0.596702	-1.988484	0.593593	-0.230800	0.001143	-0.858887	-0.239014	-0.725586	0.080639	-0.001547	0.006184	0.797332	0.120909	-0.568949	0.161060	1.689734	-71.125432	21.631856
22101		8.510873	1.024987	1.509284	0.837726	1.381578	-1.259739	0.609324	-0.146831	0.007277	-0.861084	-0.237061	-0.718994	0.085097	0.010207	0.015186	0.796504	0.123386	-0.569100	0.162735	2.016329	-71.215989	21.650552
22102		9.329675	0.245185	1.267318	1.587953	0.842017	-0.567234	0.407978	-0.214581	-0.016352	-0.860840	-0.241455	-0.716553	0.093283	0.002418	0.012778	0.795617	0.125188	-0.569669	0.163707	2.272923	-71.345349	21.622233
22103		10.294178	0.343264	1.384312	1.716870	0.985506	0.389535	0.402593	-0.188307	-0.026542	-0.854004	-0.243408	-0.709961	0.102929	0.003391	0.013947	0.794816	0.126970	-0.570125	0.164632	2.543944	-71.458890	21.574565
22104		10.975261	0.297718	1.362637	1.936667	1.014754	1.032649	0.329740	-0.227769	-0.047926	-0.858398	-0.245850	-0.707764	0.109738	0.002928	0.013756	0.793958	0.128560	-0.570786	0.165244	2.814694	-71.594968	21.483899
22105		11.859690	0.166946	1.171655	2.391712	1.050261	1.816132	0.213952	-0.281283	-0.097407	-0.867432	-0.246094	-0.709961	0.118581	0.001599	0.011885	0.793065	0.129871	-0.571717	0.165289	3.112441	-71.759457	21.294299
22106		11.983132	-0.068266	0.760455	2.854804	0.984233	1.808829	0.176771	-0.279393	-0.145748	-0.862305	-0.257080	-0.703369	0.119820	-0.000777	0.007771	0.792234	0.131174	-0.572643	0.165041	3.477323	-71.921599	21.012362
22107		11.780812	-0.525381	0.312839	3.353637	0.693132	1.475981	0.231894	-0.198064	-0.187809	-0.866943	-0.255127	-0.696777	0.117800	-0.005368	0.003239	0.791636	0.132745	-0.573167	0.164833	3.944530	-72.034363	20.655695
22108		11.938964	-1.237397	0.765744	3.294860	-0.148201	1.753567	0.356357	-0.147059	-0.202151	-0.864258	-0.261719	-0.687988	0.119371	-0.012508	0.007723	0.791105	0.134814	-0.573380	0.164965	4.506885	-72.117182	20.275349
22109		12.964424	-1.820104	2.293620	2.514409	-1.213890	3.181693	0.498072	-0.125228	-0.144127	-0.868652	-0.266357	-0.685791	0.129617	-0.018352	0.022972	0.790494	0.137252	-0.573420	0.165740	5.048355	-72.188370	20.001237
22110		13.854645	-1.641378	4.024213	1.216726	-1.689995	4.557525	0.664624	0.000399	-0.033358	-0.868652	-0.266357	-0.685791	0.138544	-0.016570	0.040187	0.790023	0.139933	-0.572903	0.167524	5.470356	-72.193991	19.954305
22111		15.227688	-0.019179	5.759720	-0.559738	-0.826320	6.437266	0.812591	-0.114024	0.087277	-0.863770	-0.272949	-0.676758	0.152244	-0.000360	0.057683	0.789017	0.142939	-0.572784	0.170116	5.782817	-72.270537	20.110026
22112		18.148110	2.088843	7.209116	-1.911325	0.726410	9.719520	0.781580	-0.323865	0.214326	-0.874512	-0.279785	-0.678955	0.181342	0.020800	0.072466	0.787302	0.145641	-0.573606	0.172976	5.887251	-72.475251	20.466344
22113		19.059407	3.545539	8.572856	-3.556967	1.516142	11.028943	0.237392	-0.530358	0.342404	-0.879395	-0.275635	-0.663574	0.190305	0.035679	0.086276	0.785275	0.146003	-0.575790	0.174618	5.476936	-72.803689	21.033691
22114		15.659607	3.273218	7.245079	-3.381356	1.470546	7.357943	-0.000664	-0.771555	0.323921	-0.874756	-0.277832	-0.654785	0.156262	0.032986	0.073054	0.782725	0.145700	-0.579113	0.175333	4.984084	-73.268410	21.544898
22115		12.238223	3.084991	4.923385	-2.338777	1.919966	3.392399	0.371569	-0.507992	0.188060	-0.876953	-0.277832	-0.654785	0.122228	0.030873	0.049602	0.780782	0.147007	-0.580964	0.176775	4.901562	-73.574247	21.848090
22116		10.355499	2.133773	5.502467	-2.944154	0.596350	1.721731	0.362704	-0.033270	0.075433	-0.879150	-0.275635	-0.652588	0.103538	0.021277	0.055081	0.780311	0.148196	-0.580887	0.178108	4.950130	-73.604351	22.010749
22117		10.021944	1.387184	6.480695	-3.532458	-0.544135	1.658525	0.259554	0.046092	0.099271	-0.876953	-0.275635	-0.652588	0.100227	0.013837	0.064802	0.780131	0.148831	-0.580605	0.179283	4.879415	-73.589487	22.234457
22118		10.109949	1.693518	7.260123	-4.297991	-0.607564	1.974871	0.302769	0.256376	0.084966	-0.881348	-0.280273	-0.656982	0.101185	0.016868	0.072497	0.780534	0.149496	-0.579455	0.180691	4.827992	-73.454484	22.465193
22119		10.044954	1.367157	7.637505	-4.440348	-1.064567	2.030084	0.269920	0.609992	0.025839	-0.876709	-0.282227	-0.663574	0.100680	0.013582	0.076087	0.782040	0.149875	-0.576902	0.182029	4.816700	-73.114033	22.633420
22120		10.094023	0.520383	7.045728	-3.464172	-1.528549	1.911849	0.160982	0.722609	-0.037860	-0.867920	-0.277588	-0.670166	0.101195	0.005128	0.070096	0.783996	0.149916	-0.573956	0.182894	4.847685	-72.706714	22.693828
22121		10.895737	-0.888273	5.282846	-1.038065	-1.878032	2.137611	0.161223	0.539448	0.019740	-0.865723	-0.279541	-0.674561	0.109100	-0.008914	0.052527	0.785370	0.149950	-0.571763	0.183838	4.803087	-72.406249	22.832343
22122		11.468120	-1.493381	4.307792	0.276236	-1.889299	2.379893	0.347173	0.408931	0.098594	-0.865479	-0.283936	-0.678955	0.114776	-0.014952	0.042817	0.786150	0.150614	-0.569967	0.185531	4.746476	-72.184353	23.096490
22123		10.475983	-1.034839	4.489130	-0.328225	-1.661614	1.505466	0.283288	0.305083	0.152347	-0.869873	-0.286377	-0.678955	0.104836	-0.010332	0.044717	0.786630	0.150963	-0.568675	0.187167	4.577317	-72.023782	23.439742
22124		10.364479	-0.795226	4.720141	-0.644874	-1.547872	1.479909	0.065090	0.159293	0.128641	-0.865479	-0.283936	-0.678955	0.103687	-0.007901	0.047116	0.786877	0.150665	-0.568142	0.187988	4.348978	-71.945429	23.715340
22125		11.084187	-0.675851	4.711355	-0.483341	-1.332867	2.166572	-0.123681	0.077366	0.037234	-0.867676	-0.284180	-0.681152	0.110861	-0.006709	0.047075	0.787123	0.149953	-0.568038	0.187842	4.184760	-71.909338	23.808463
22126		11.591988	-0.536477	4.489245	-0.213699	-1.035468	2.584790	-0.192402	0.102308	-0.054008	-0.870117	-0.281982	-0.685791	0.115941	-0.005353	0.044838	0.787571	0.149214	-0.567833	0.187170	4.137865	-71.855511	23.738174
22127		10.095787	0.238543	4.360288	-0.876178	-0.468289	1.142077	-0.144754	0.261475	-0.066735	-0.868164	-0.277344	-0.692383	0.101016	0.002383	0.043469	0.788451	0.148541	-0.566945	0.186692	4.120041	-71.709849	23.664543
22128		9.664302	0.586237	3.978558	-0.813574	-0.028581	0.623236	-0.032986	0.349800	-0.007762	-0.861328	-0.279297	-0.692383	0.096713	0.005865	0.039616	0.789438	0.148065	-0.565647	0.186837	4.053401	-71.516419	23.710932
22129		9.253487	1.170456	3.571345	-0.829418	0.637782	0.119918	0.086194	0.428082	0.055275	-0.865479	-0.283936	-0.696777	0.092608	0.011715	0.035520	0.790499	0.147802	-0.563973	0.187616	3.940381	-71.280457	23.877197
22130		8.202455	1.341232	2.831889	-0.564121	1.004194	-1.107978	0.157453	0.521846	0.096573	-0.858643	-0.288086	-0.705566	0.082092	0.013430	0.028115	0.791725	0.147622	-0.561889	0.188837	3.792427	-70.992628	24.125129
22131		7.370721	1.658307	2.219798	-0.419523	1.469285	-2.088043	0.114638	0.428559	0.131844	-0.849854	-0.283447	-0.709961	0.073744	0.016619	0.022050	0.792686	0.147254	-0.560237	0.189999	3.577731	-70.758927	24.416777
22132		6.404089	2.057176	2.649320	-1.235463	1.523110	-2.854461	-0.139177	0.343742	0.224190	-0.850098	-0.278809	-0.709961	0.064063	0.020662	0.026369	0.793502	0.145709	-0.559226	0.190760	3.082841	-70.576316	24.852987
22133		5.964134	1.124604	2.352659	-0.675727	0.797312	-3.387873	-0.346795	0.320244	0.212998	-0.854980	-0.272461	-0.714355	0.059667	0.011350	0.023411	0.794412	0.143385	-0.558497	0.190870	2.497410	-70.405401	25.258155
22134		5.708461	0.875359	2.179492	-0.479218	0.644943	-3.692453	-0.065478	0.494065	0.241061	-0.850342	-0.276611	-0.721191	0.057128	0.008830	0.021651	0.795571	0.141939	-0.556824	0.192007	2.026587	-70.134533	25.714428
22135		5.438476	1.264920	2.028836	-0.595393	1.043822	-3.994694	0.040989	0.631641	0.228551	-0.848145	-0.271973	-0.727783	0.054434	0.012707	0.020119	0.797045	0.140812	-0.554488	0.193479	1.642109	-69.783342	26.143548
22136		5.430043	0.900754	1.273205	0.222078	1.075875	-4.270949	0.076312	0.583134	0.150807	-0.845947	-0.271973	-0.734375	0.054330	0.009044	0.012577	0.798424	0.140094	-0.552251	0.194711	1.412564	-69.458082	26.431132
22137		5.510494	1.242452	1.319998	0.069583	1.385392	-4.179976	0.393118	0.435196	0.087658	-0.843750	-0.274170	-0.734375	0.055128	0.012423	0.013104	0.799229	0.140951	-0.550247	0.196453	1.470925	-69.216381	26.604326
22138		5.696985	1.486176	1.556934	-0.167611	1.530569	-3.920518	0.297388	0.235224	0.001928	-0.843506	-0.278564	-0.732178	0.056988	0.014839	0.015524	0.799629	0.141863	-0.549072	0.197453	1.612397	-69.088156	26.631210
22139		6.145518	1.390582	1.808226	-0.177117	1.404051	-3.412059	0.230795	0.114874	-0.085747	-0.838867	-0.280518	-0.734375	0.061472	0.013859	0.018063	0.799833	0.142861	-0.548381	0.197828	1.850904	-69.027213	26.512255
22140		5.911885	1.044618	2.063275	-0.288832	0.940816	-3.541313	0.197696	0.099236	-0.156336	-0.838867	-0.280518	-0.736572	0.059137	0.010380	0.020614	0.800083	0.143945	-0.547734	0.197825	2.176219	-68.973851	26.281295
22141		6.135885	0.988367	2.208824	-0.298409	0.852044	-3.278944	0.114326	0.103038	-0.212563	-0.834229	-0.284912	-0.738770	0.061381	0.009806	0.022062	0.800461	0.144836	-0.547113	0.197365	2.534923	-68.916237	25.961950
22142		6.393539	0.784893	2.163183	-0.069458	0.722483	-3.056510	-0.015033	0.056276	-0.272036	-0.833984	-0.287109	-0.736572	0.063952	0.007764	0.021613	0.800860	0.145425	-0.546762	0.196283	2.910040	-68.883157	25.546505
22143		6.351145	0.430068	1.912637	0.298947	0.502369	-3.191629	-0.144221	-0.012104	-0.297948	-0.832031	-0.282715	-0.734375	0.063517	0.004220	0.019127	0.801191	0.145628	-0.546792	0.194689	3.253455	-68.887340	25.084622
22144		6.369215	0.335004	1.650754	0.568515	0.525420	-3.270148	-0.225896	-0.065531	-0.241925	-0.840576	-0.289551	-0.736572	0.063691	0.003292	0.016525	0.801377	0.145408	-0.547155	0.193062	3.472793	-68.923332	24.706611
22145		6.512774	0.252427	1.487556	0.786631	0.536135	-3.195549	-0.281772	-0.128062	-0.167766	-0.840820	-0.287354	-0.738770	0.065120	0.002491	0.014914	0.801361	0.144815	-0.547874	0.191528	3.556195	-68.997146	24.439106
22146		6.694974	0.356426	1.266453	0.971979	0.744401	-3.100405	-0.319071	-0.198757	-0.097298	-0.843262	-0.282959	-0.729980	0.066939	0.003552	0.012725	0.801104	0.143954	-0.548963	0.190129	3.521565	-69.114146	24.276454
22147		6.931826	0.560388	1.200846	0.993193	0.980427	-2.894699	-0.310579	-0.337379	-0.040122	-0.841064	-0.282959	-0.734375	0.069299	0.005609	0.012117	0.800406	0.143095	-0.550636	0.188875	3.418453	-69.312171	24.191246
22148		6.806050	0.944382	1.312431	0.661994	1.246611	-2.961094	-0.273328	-0.364386	0.008475	-0.839111	-0.276123	-0.729980	0.068036	0.009465	0.013235	0.799553	0.142282	-0.552416	0.187903	3.265406	-69.527743	24.183383
22149		7.089357	1.143148	1.572593	0.421001	1.344560	-2.597864	-0.241005	-0.385552	0.033248	-0.845703	-0.276367	-0.721191	0.070861	0.011462	0.015849	0.798595	0.141541	-0.554263	0.187098	3.092285	-69.755809	24.215605
22150		7.638895	1.207149	1.735578	0.403225	1.403236	-2.022280	-0.190381	-0.350018	0.042543	-0.854736	-0.276855	-0.718750	0.076356	0.012104	0.017478	0.797683	0.140950	-0.555925	0.186499	2.929214	-69.964173	24.268902
22151		8.474377	0.998157	1.663004	0.792919	1.359624	-1.262857	-0.142644	-0.328099	0.027814	-0.848145	-0.272217	-0.718750	0.084715	0.010005	0.016762	0.796812	0.140563	-0.557442	0.185984	2.812405	-70.159142	24.301086
22152		9.126835	0.594130	1.654610	1.157800	1.086243	-0.654666	-0.092574	-0.297668	0.026335	-0.857422	-0.265869	-0.716553	0.091243	0.005961	0.016679	0.795986	0.140358	-0.558791	0.185629	2.723896	-70.337170	24.334800
22153		9.664854	0.122256	1.629916	1.529055	0.741175	-0.159007	-0.059435	-0.307373	0.016731	-0.857422	-0.268066	-0.716553	0.096623	0.001236	0.016447	0.795120	0.140313	-0.560137	0.185316	2.668748	-70.519944	24.352068
22154		10.309301	-0.456060	1.503824	2.061506	0.355549	0.403713	-0.034915	-0.330415	-0.000259	-0.854980	-0.270264	-0.712158	0.103068	-0.004558	0.015209	0.794183	0.140439	-0.561542	0.184990	2.656921	-70.715990	24.338939
22155		10.810326	-1.060491	1.464133	2.486880	-0.115298	0.861277	-0.009752	-0.330705	-0.037000	-0.859375	-0.272461	-0.707764	0.108077	-0.010624	0.014821	0.793262	0.140763	-0.562894	0.184585	2.719989	-70.910673	24.261138
22156		10.875671	-1.422412	1.162047	2.890993	-0.321799	0.826499	-0.048177	-0.372592	-0.084951	-0.859375	-0.272705	-0.701172	0.108729	-0.014267	0.011826	0.792288	0.141115	-0.564414	0.183857	2.846916	-71.128472	24.093655
22157		10.561225	-1.247277	1.627393	2.285250	-0.437487	0.691099	-0.062783	-0.545888	-0.090629	-0.868652	-0.266357	-0.692383	0.105562	-0.012515	0.016566	0.790840	0.141576	-0.566624	0.182936	2.993058	-71.444616	23.896283
22158		11.338731	-0.591227	3.314239	0.726690	-0.519376	1.981465	-0.039923	-0.774439	-0.072290	-0.868408	-0.268555	-0.685791	0.113256	-0.005947	0.033582	0.788696	0.142290	-0.569727	0.181994	3.149110	-71.892707	23.703764
22159		13.643322	-0.271843	4.993114	-0.274421	-0.727683	4.697284	0.040533	-0.828040	-0.090113	-0.877197	-0.275391	-0.678955	0.136224	-0.002790	0.050495	0.786351	0.143412	-0.572943	0.181165	3.397695	-72.369869	23.461914
22160		16.359662	0.099489	6.143253	-0.761963	-0.638333	7.634339	0.230339	-0.670455	-0.085380	-0.881348	-0.277832	-0.674561	0.163390	0.000854	0.061982	0.784300	0.145130	-0.575365	0.181014	3.743297	-72.757518	23.234168
22161		17.658248	0.939504	6.931922	-1.535256	-0.162952	9.117802	0.484334	-0.466339	-0.106528	-0.881348	-0.280029	-0.674561	0.176425	0.009132	0.069753	0.782666	0.147710	-0.576731	0.181651	4.260256	-73.026307	22.978579
22162		16.899592	0.275090	7.281010	-1.774615	-1.082196	8.472933	0.618347	-0.299141	-0.147244	-0.887451	-0.289307	-0.665771	0.168889	0.002401	0.073071	0.781438	0.150786	-0.577286	0.182642	4.918912	-73.197558	22.656701
22163		14.840155	0.068259	6.815061	-1.835786	-1.362710	6.356804	0.677618	-0.072831	-0.142566	-0.878662	-0.289063	-0.661377	0.148377	0.000346	0.068206	0.780810	0.153864	-0.576897	0.183985	5.570766	-73.238246	22.376329
22164		13.016927	0.782571	5.811997	-1.789783	-0.538499	4.341410	0.632378	-0.044261	-0.190414	-0.885010	-0.293701	-0.661377	0.130164	0.007518	0.058173	0.780330	0.156884	-0.576397	0.185037	6.285023	-73.259434	22.005159
22165		13.072644	0.828896	4.213113	-0.437475	0.185226	3.938876	0.487363	-0.081961	-0.246526	-0.877930	-0.302246	-0.654785	0.130719	0.008025	0.042204	0.779904	0.159525	-0.576127	0.185415	7.031093	-73.296404	21.512677
22166		12.810279	0.599870	2.908354	0.720632	0.520081	3.307207	0.487007	0.200242	-0.221790	-0.873047	-0.311035	-0.670166	0.128138	0.005786	0.028970	0.780259	0.161838	-0.574774	0.186118	7.662825	-73.173654	21.140548
22167		11.445140	0.344596	3.106198	0.355108	0.040647	2.046082	0.477703	0.365858	-0.226597	-0.879883	-0.309082	-0.661377	0.114512	0.003242	0.030860	0.781099	0.163965	-0.572773	0.186902	8.245940	-72.954874	20.812068
22168		7.392005	0.089608	4.247434	-1.533845	-1.155766	-1.505957	0.265044	0.429322	-0.314129	-0.872803	-0.315430	-0.665771	0.074012	0.000724	0.042317	0.782367	0.165458	-0.570645	0.186790	8.839376	-72.691904	20.345985
22169		8.891407	0.492858	5.059245	-1.941165	-1.045495	0.189045	-0.068290	0.268864	-0.420631	-0.870361	-0.319824	-0.663574	0.088992	0.004759	0.050471	0.783549	0.166093	-0.569364	0.185171	9.464555	-72.508353	19.644769
22170		9.829291	1.385503	5.353070	-2.305504	-0.317679	1.222415	-0.446313	0.274934	-0.512883	-0.868164	-0.317383	-0.674561	0.098402	0.013722	0.053365	0.785137	0.165511	-0.568328	0.182125	10.022954	-72.310700	18.786988
22171		9.290081	1.427387	4.821607	-1.987178	-0.082471	0.562039	-0.720175	0.431468	-0.566993	-0.857178	-0.314941	-0.683350	0.093045	0.014183	0.047964	0.787434	0.163853	-0.566871	0.178207	10.451289	-72.016620	17.898497
22172		9.024631	1.658635	3.634473	-1.124536	0.651366	-0.029270	-0.716801	0.433530	-0.534299	-0.857178	-0.317139	-0.685791	0.090369	0.016475	0.036090	0.789684	0.162114	-0.565414	0.174429	10.804134	-71.723040	17.090675
22173		9.110596	1.687944	3.076209	-0.592798	0.941186	-0.113319	-0.570492	0.313646	-0.440085	-0.854980	-0.316895	-0.692383	0.091191	0.016766	0.030571	0.791379	0.160783	-0.564369	0.171332	11.103901	-71.505677	16.425251
22174		9.340897	1.803685	3.413766	-0.822175	0.912391	0.219807	-0.353047	0.156451	-0.277200	-0.854980	-0.316895	-0.698975	0.093461	0.017967	0.034033	0.792307	0.159991	-0.563885	0.169370	11.299341	-71.394020	16.001520
22175		9.904288	1.705904	4.113730	-1.177157	0.561481	0.968167	-0.131407	0.022627	-0.116934	-0.848389	-0.312256	-0.696777	0.099057	0.017028	0.041115	0.792544	0.159733	-0.563869	0.168555	11.396342	-71.375136	15.814627
22176		10.266730	1.590117	4.759267	-1.549801	0.204938	1.507249	0.005936	0.086631	0.009437	-0.850586	-0.312256	-0.694580	0.102687	0.015905	0.047549	0.792744	0.159612	-0.563584	0.168682	11.340093	-71.334473	15.873006
22177		10.345631	1.337901	4.623746	-1.281236	0.061168	1.525552	0.012584	0.332239	0.070519	-0.850586	-0.314453	-0.707764	0.103528	0.013413	0.046066	0.793579	0.159135	-0.562368	0.169263	11.106310	-71.162620	16.122413
22178		9.584902	0.723956	3.661640	-0.399118	-0.101436	0.465067	-0.111358	0.525158	0.030131	-0.846191	-0.314453	-0.705566	0.095944	0.007274	0.036361	0.795086	0.158118	-0.560456	0.169490	10.811930	-70.877361	16.361592
22179		8.691326	-0.152437	2.744458	0.522577	-0.533801	-0.727743	-0.257681	0.538835	-0.062090	-0.841797	-0.312012	-0.712158	0.086986	-0.001516	0.027212	0.796818	0.156763	-0.558537	0.168948	10.585357	-70.574363	16.440101
22180		8.204756	-0.579949	2.220606	1.032735	-0.714313	-1.386030	-0.441809	0.445334	-0.180609	-0.837158	-0.316162	-0.720947	0.082091	-0.005825	0.022036	0.798525	0.155086	-0.557047	0.167347	10.472923	-70.311459	16.286364
22181		7.725273	-0.792198	1.804995	1.347044	-0.763587	-1.991704	-0.625682	0.346851	-0.292867	-0.837646	-0.305176	-0.727783	0.077272	-0.007979	0.017941	0.800185	0.153065	-0.556011	0.164705	10.457753	-70.092509	15.916351
22182		6.934158	-0.977588	1.697357	1.278717	-0.959180	-2.786730	-0.796426	0.326380	-0.340387	-0.837891	-0.300537	-0.732178	0.069353	-0.009827	0.016899	0.801944	0.150509	-0.555148	0.161382	10.420579	-69.879905	15.465667
22183		6.498986	-1.033226	1.539506	1.304935	-0.985418	-3.255208	-0.914473	0.301991	-0.341019	-0.824463	-0.300049	-0.736572	0.064995	-0.010373	0.015344	0.803704	0.147495	-0.554467	0.157703	10.319304	-69.681481	15.010088
22184		6.254207	-1.021967	1.436394	1.315997	-0.956191	-3.521695	-0.962487	0.316403	-0.304029	-0.829102	-0.295898	-0.747559	0.062549	-0.010246	0.014314	0.805491	0.144169	-0.553777	0.154048	10.126684	-69.478844	14.622054
22185		6.158130	-1.113667	1.241213	1.495736	-0.969870	-3.686878	-0.930974	0.313391	-0.262194	-0.822754	-0.291016	-0.751953	0.061586	-0.011160	0.012368	0.807191	0.140853	-0.553092	0.150641	9.889028	-69.282836	14.300905
22186		6.503954	-0.957245	1.255053	1.547905	-0.801762	-3.350949	-0.814769	0.230912	-0.199162	-0.818604	-0.282227	-0.749756	0.065044	-0.009586	0.012514	0.808517	0.137890	-0.552681	0.147750	9.644161	-69.139513	14.058337
22187		6.930760	-0.678571	1.554738	1.336723	-0.622979	-2.831415	-0.659079	0.162730	-0.151975	-0.820801	-0.284424	-0.754150	0.069315	-0.006787	0.015513	0.809499	0.135475	-0.552457	0.145429	9.436341	-69.040029	13.871397
22188		7.369249	-0.659114	1.953902	1.143346	-0.715673	-2.280187	-0.520843	0.086049	-0.100702	-0.818604	-0.284180	-0.760986	0.073698	-0.006577	0.019524	0.810130	0.133532	-0.552471	0.143646	9.250291	-68.988724	13.746001
22189		7.609833	-0.612365	2.292811	0.918000	-0.774966	-1.932444	-0.363962	0.027530	-0.054498	-0.816650	-0.275391	-0.756348	0.076100	-0.006103	0.022929	0.810456	0.132139	-0.552639	0.142441	9.100875	-68.975046	13.677500
22190		7.447277	-0.588853	2.515544	0.658544	-0.845915	-2.003244	-0.207226	0.008178	-0.023161	-0.816650	-0.277588	-0.758789	0.074473	-0.005871	0.025158	0.810603	0.131309	-0.552791	0.141787	8.999497	-68.974879	13.654102
22191		7.415301	-0.871440	2.461776	0.797330	-1.087418	-2.067481	-0.047517	0.008229	0.008206	-0.821533	-0.268799	-0.767578	0.074154	-0.008706	0.024617	0.810621	0.131038	-0.552852	0.141698	8.943653	-68.977815	13.679594
22192		7.316358	-1.202309	2.174888	1.133244	-1.293791	-2.279651	0.104715	0.022696	0.043007	-0.819092	-0.275391	-0.751953	0.073169	-0.012019	0.021734	0.810555	0.131275	-0.552767	0.142182	8.919262	-68.975319	13.764657
22193		7.372845	-1.617747	2.053575	1.416753	-1.625264	-2.293084	0.203117	0.055886	0.065264	-0.816650	-0.279785	-0.758789	0.073739	-0.016174	0.020499	0.810499	0.131829	-0.552494	0.143048	8.912034	-68.956337	13.891918
22194		7.056019	-1.619589	1.951724	1.399788	-1.612257	-2.625134	0.234137	0.043714	0.083843	-0.816650	-0.277588	-0.756348	0.070571	-0.016189	0.019483	0.810374	0.132468	-0.552259	0.144072	8.898020	-68.945957	14.046154
22195		7.066033	-1.622300	2.081191	1.297107	-1.658166	-2.569757	0.258934	0.000646	0.103664	-0.819092	-0.275391	-0.754150	0.070669	-0.016213	0.020791	0.810098	0.133181	-0.552193	0.145210	8.879089	-68.961623	14.220232
22196		7.098048	-1.343868	2.319158	0.999959	-1.484079	-2.439469	0.236125	0.002001	0.110764	-0.820801	-0.284424	-0.749756	0.070988	-0.013427	0.023175	0.809834	0.133780	-0.552143	0.146320	8.835301	-68.977215	14.407211
22197		7.369741	-1.328643	2.283218	1.121981	-1.427437	-2.197240	0.147824	0.059809	0.083353	-0.823242	-0.282227	-0.758789	0.073710	-0.013273	0.022800	0.809809	0.134056	-0.551904	0.147109	8.768952	-68.957507	14.563872
22198		7.593005	-0.998475	2.091858	1.240823	-1.025295	-2.038649	0.103363	0.098368	0.046439	-0.823242	-0.277832	-0.745361	0.075943	-0.009978	0.020876	0.809944	0.134229	-0.551517	0.147659	8.722918	-68.912965	14.672460
22199		8.098102	-0.536650	1.968641	1.347198	-0.503785	-1.586263	0.096011	0.035855	0.027013	-0.821045	-0.280029	-0.749756	0.080985	-0.005365	0.019669	0.809928	0.134468	-0.551374	0.148060	8.715526	-68.901849	14.734172
22200		8.708295	0.426495	1.903175	1.237067	0.462142	-0.986904	0.067416	-0.117972	0.011656	-0.818359	-0.286621	-0.745361	0.087071	0.004264	0.019085	0.809513	0.134749	-0.551870	0.148224	8.748164	-68.977276	14.736138
22201		9.532917	1.270422	1.671042	1.375075	1.394670	-0.249902	0.031902	-0.278212	-0.003359	-0.832031	-0.282471	-0.745361	0.095306	0.012700	0.016845	0.808695	0.135044	-0.553025	0.148115	8.820303	-69.141364	14.673305
22202		9.904897	1.420333	1.345322	1.691422	1.675564	-0.001181	0.062354	-0.415558	-0.024085	-0.829590	-0.287109	-0.736572	0.099022	0.014187	0.013663	0.807484	0.135628	-0.554701	0.147921	8.974635	-69.382097	14.542611
22203		10.160489	1.296622	1.902156	1.307406	1.347094	0.434787	0.244888	-0.505948	-0.035749	-0.829590	-0.287109	-0.729980	0.101559	0.012925	0.019294	0.805908	0.137041	-0.556592	0.148115	9.277403	-69.671936	14.364052
22204		11.220085	1.251343	3.462218	0.292221	0.758332	1.967899	0.496706	-0.546316	-0.012188	-0.838135	-0.296143	-0.723389	0.112106	0.012420	0.034959	0.804013	0.139440	-0.558474	0.149085	9.706994	-69.987387	14.206014
22205		13.390988	1.010530	5.498498	-0.699263	-0.130218	4.680986	0.788165	-0.544840	0.070978	-0.842285	-0.300781	-0.720947	0.133756	0.009935	0.055389	0.801850	0.142765	-0.560175	0.151192	10.182021	-70.308812	14.175965
22206		16.252025	1.741688	8.322734	-2.546913	-0.414900	8.346882	0.838909	-0.437576	0.259679	-0.844238	-0.305420	-0.707764	0.162315	0.017277	0.083655	0.799781	0.145694	-0.561534	0.154281	10.362741	-70.589991	14.491147
22207		18.269297	2.974904	9.536485	-3.538220	0.360658	10.703441	0.280164	-0.423029	0.495431	-0.851318	-0.301270	-0.707764	0.182416	0.030067	0.095793	0.797971	0.145700	-0.563423	0.156742	9.829920	-70.885315	15.220494
22208		15.957951	3.602788	6.844299	-2.342215	1.877093	7.665013	-0.166606	-0.359508	0.556529	-0.856201	-0.292480	-0.696777	0.159355	0.036529	0.068699	0.796600	0.143714	-0.565450	0.158243	8.903243	-71.148354	16.096509
22209		13.689843	3.495966	5.114156	-1.598058	2.341661	4.943687	-0.294420	-0.195701	0.361171	-0.856445	-0.288086	-0.705566	0.136785	0.035282	0.051224	0.795939	0.141625	-0.566776	0.158709	8.165522	-71.296783	16.692432
22210		12.299923	2.393764	5.583753	-2.019850	1.057059	3.715030	-0.300106	-0.269438	0.163211	-0.849854	-0.285645	-0.703369	0.122904	0.024122	0.055967	0.795217	0.140145	-0.568261	0.158329	7.766878	-71.470517	16.928344
22211		11.314600	1.526337	6.491720	-2.773969	-0.172051	3.023502	-0.050778	-0.066520	0.123349	-0.859131	-0.277100	-0.707764	0.113115	0.015350	0.064951	0.794935	0.139596	-0.568708	0.158630	7.527078	-71.524467	17.145449
22212		10.961124	1.282836	6.494880	-2.798402	-0.418039	2.676090	-0.115301	-0.070451	0.024248	-0.856689	-0.279053	-0.703369	0.109587	0.012879	0.064980	0.794760	0.139084	-0.569152	0.158358	7.419519	-71.573404	17.185366
22213		9.801075	0.699334	5.871203	-2.379422	-0.796966	1.355318	-0.307101	0.039562	-0.061469	-0.859131	-0.279297	-0.703369	0.098025	0.007053	0.058682	0.795103	0.137958	-0.569250	0.157269	7.322922	-71.553158	17.096629
22214		9.416155	-0.030097	5.092078	-1.523300	-1.172336	0.718186	-0.290765	0.153276	-0.042175	-0.861328	-0.279297	-0.703369	0.094200	-0.000247	0.050849	0.795736	0.136762	-0.568896	0.156389	7.178987	-71.470229	17.069111
22215		9.659395	-0.665121	4.513756	-0.684440	-1.483296	0.744378	-0.202476	0.176725	0.029571	-0.854736	-0.274658	-0.716553	0.096635	-0.006591	0.045059	0.796322	0.135685	-0.568427	0.156053	6.959164	-71.378560	17.173541
22216		9.942443	-1.038061	3.855247	0.134009	-1.516580	0.792717	-0.080049	0.262306	0.121303	-0.859375	-0.272461	-0.709961	0.099481	-0.010305	0.038426	0.796991	0.134777	-0.567582	0.156497	6.640760	-71.244625	17.457673
22217		10.014324	-1.061482	3.333009	0.637096	-1.297649	0.695998	0.004107	0.339921	0.178677	-0.847900	-0.278809	-0.716553	0.100209	-0.010526	0.033160	0.797780	0.133972	-0.566399	0.157452	6.264163	-71.069290	17.852986
22218		9.938502	-0.864048	3.136299	0.727323	-1.016632	0.569707	0.011598	0.323080	0.180503	-0.847656	-0.281006	-0.716553	0.099443	-0.008553	0.031202	0.798508	0.133215	-0.565277	0.158433	5.899843	-70.903194	18.242069
22219		9.974263	-0.730233	3.093446	0.739273	-0.847630	0.595170	-0.023091	0.210499	0.130348	-0.852783	-0.272217	-0.727783	0.099780	-0.007234	0.030830	0.798983	0.132538	-0.564596	0.159030	5.621010	-70.797330	18.518124
22220		10.150747	-0.639005	3.575759	0.349676	-0.918522	0.923517	-0.077945	0.058951	0.051317	-0.850586	-0.272217	-0.729980	0.101520	-0.006350	0.035730	0.799126	0.132000	-0.564510	0.159067	5.467862	-70.773301	18.630005
22221		10.071575	-0.399529	4.114533	-0.234523	-0.909134	1.033699	-0.122188	0.048156	0.009724	-0.852783	-0.270020	-0.725586	0.100726	-0.003965	0.041124	0.799303	0.131397	-0.564477	0.158796	5.357687	-70.752972	18.667440
22222		9.793616	0.196872	4.279742	-0.698469	-0.447027	0.844806	-0.124885	0.135767	0.008752	-0.854980	-0.270020	-0.723389	0.097965	0.002000	0.042730	0.799727	0.130726	-0.564093	0.158579	5.235212	-70.682634	18.717881
22223		8.874588	0.643811	3.840864	-0.775175	0.048848	-0.152371	-0.053850	0.227154	0.054145	-0.848389	-0.267578	-0.732178	0.088788	0.006472	0.038306	0.800328	0.130129	-0.563317	0.158795	5.066482	-70.562389	18.858924
22224		8.215342	1.157017	3.270900	-0.683462	0.684738	-0.947401	0.022752	0.232245	0.118438	-0.857422	-0.270020	-0.732178	0.082184	0.011615	0.032615	0.800837	0.129663	-0.562502	0.159497	4.839976	-70.442508	19.109624
22225		7.665794	1.458091	2.763310	-0.529902	1.114415	-1.627118	0.065204	0.243281	0.180300	-0.853027	-0.265625	-0.736572	0.076678	0.014641	0.027545	0.801303	0.129174	-0.561647	0.160562	4.539737	-70.318591	19.462909
22226		7.265683	1.673238	2.473512	-0.484331	1.397431	-2.097721	0.123081	0.273483	0.209382	-0.848633	-0.263184	-0.738770	0.072673	0.016793	0.024646	0.801786	0.128821	-0.560643	0.161936	4.227577	-70.178415	19.866094
22227		6.718209	1.694908	2.195448	-0.417976	1.480569	-2.709152	0.197926	0.335670	0.223802	-0.846436	-0.265137	-0.743164	0.067200	0.017003	0.021859	0.802385	0.128667	-0.559335	0.163607	3.933252	-70.002215	20.294612
22228		6.140951	1.584867	2.089927	-0.453579	1.369501	-3.292751	0.324669	0.438366	0.217809	-0.843994	-0.267334	-0.747559	0.061438	0.015882	0.020790	0.803187	0.128960	-0.557503	0.165681	3.717289	-69.766458	20.718889
22229		6.059607	1.513567	1.900324	-0.269794	1.383949	-3.438301	0.418850	0.522684	0.193351	-0.843750	-0.271729	-0.751953	0.060631	0.015155	0.018877	0.804178	0.129621	-0.555234	0.167965	3.591594	-69.481132	21.103832
22230		5.776975	1.413897	1.727683	-0.152107	1.339187	-3.767787	0.436243	0.549904	0.146355	-0.837158	-0.271484	-0.756348	0.057807	0.014144	0.017149	0.805260	0.130469	-0.552801	0.170131	3.552422	-69.178305	21.409345
22231		5.758670	1.498922	1.682717	-0.134964	1.442065	-3.800800	0.399728	0.448524	0.096480	-0.834961	-0.271484	-0.760986	0.057617	0.014984	0.016728	0.806122	0.131381	-0.550772	0.171920	3.579244	-68.931730	21.620694
22232		5.842747	1.462856	1.759379	-0.140470	1.395295	-3.696605	0.305770	0.297759	0.034996	-0.830078	-0.278076	-0.760986	0.058451	0.014612	0.017529	0.806678	0.132221	-0.549384	0.173108	3.659633	-68.769022	21.718463
22233		6.229265	1.594246	2.021360	-0.276414	1.461734	-3.238634	0.196775	0.148597	0.002292	-0.832275	-0.278076	-0.760986	0.062307	0.015923	0.020183	0.806922	0.132832	-0.548672	0.173759	3.738824	-68.690630	21.749294
22234		6.622504	1.625508	2.276437	-0.365449	1.439199	-2.778688	0.059053	0.073060	-0.025437	-0.834473	-0.278076	-0.758789	0.066235	0.016240	0.022745	0.807072	0.133039	-0.548362	0.173878	3.788226	-68.654289	21.728967
22235		7.107607	1.607350	2.318079	-0.224448	1.471602	-2.312078	-0.081610	0.044272	-0.046342	-0.836914	-0.275879	-0.758789	0.071085	0.016066	0.023158	0.807257	0.132751	-0.548280	0.173500	3.788939	-68.633717	21.672817
22236		7.343825	1.510151	2.060693	0.116440	1.521525	-2.188372	-0.204644	0.022388	-0.053043	-0.837402	-0.267090	-0.760986	0.073445	0.015103	0.020583	0.807465	0.132012	-0.548388	0.172750	3.731957	-68.625703	21.604319
22237		7.305238	1.464668	1.877936	0.279498	1.552649	-2.292743	-0.301489	0.021715	-0.046170	-0.836914	-0.273682	-0.758789	0.073058	0.014658	0.018749	0.807732	0.130855	-0.548586	0.171755	3.608600	-68.618077	21.546108
22238		7.530167	1.427554	1.716364	0.509684	1.618340	-2.144022	-0.373857	-0.018711	-0.051639	-0.830322	-0.271240	-0.765381	0.075304	0.014288	0.017144	0.807933	0.129461	-0.549006	0.170517	3.455958	-68.633792	21.475827
22239		7.331363	1.160255	1.489819	0.745172	1.442600	-2.418212	-0.415824	-0.045593	-0.050366	-0.832764	-0.266846	-0.763184	0.073313	0.011615	0.014891	0.808087	0.127911	-0.549567	0.169146	3.279206	-68.664634	21.404621
22240		7.176310	0.949116	1.427959	0.829896	1.256482	-2.589680	-0.383364	-0.080669	-0.044211	-0.835205	-0.267090	-0.760986	0.071759	0.009503	0.014290	0.808113	0.126511	-0.550243	0.167871	3.115806	-68.715991	21.340234
22241		6.868976	1.056354	1.349900	0.744636	1.345644	-2.902137	-0.344514	-0.068526	-0.038181	-0.835205	-0.264893	-0.765381	0.068687	0.010574	0.013504	0.808142	0.125233	-0.550840	0.166729	2.963635	-68.760473	21.286537
22242		6.897832	1.008455	1.355288	0.765612	1.304607	-2.873976	-0.297681	-0.089740	-0.037243	-0.837402	-0.267090	-0.758789	0.068974	0.010092	0.013569	0.808076	0.124169	-0.551484	0.165713	2.839501	-68.817508	21.232912
22243		7.261389	0.839210	1.823864	0.551294	1.016683	-2.368162	-0.279692	-0.151235	-0.059460	-0.835693	-0.255859	-0.767578	0.072603	0.008396	0.018282	0.807850	0.123280	-0.552344	0.164611	2.761803	-68.908807	21.139234
22244		7.704247	0.885938	2.214467	0.338557	0.965325	-1.812832	-0.240330	-0.149327	-0.060590	-0.833496	-0.255859	-0.756348	0.077029	0.008863	0.022192	0.807600	0.122560	-0.553164	0.163620	2.709457	-68.999392	21.043886
22245		8.419579	0.696764	2.246890	0.614789	0.867197	-1.135517	-0.187380	-0.159333	-0.071167	-0.840332	-0.253906	-0.763184	0.084180	0.006959	0.022529	0.807300	0.122082	-0.553972	0.162720	2.703168	-69.095065	20.930494
22246		8.871188	0.671433	2.188486	0.812585	0.915390	-0.733039	-0.081476	-0.178135	-0.073712	-0.837891	-0.256104	-0.760986	0.088695	0.006691	0.021961	0.806881	0.122061	-0.554769	0.162097	2.764383	-69.201813	20.810949
22247		9.335292	0.533637	2.080469	1.098650	0.876193	-0.337139	0.034947	-0.209806	-0.067423	-0.837891	-0.256104	-0.754150	0.093333	0.005301	0.020904	0.806300	0.122511	-0.555601	0.161797	2.885318	-69.326391	20.697892
22248		10.058816	0.224255	1.981787	1.527697	0.704141	0.303034	0.116308	-0.216160	-0.074066	-0.844482	-0.258545	-0.745361	0.100567	0.002194	0.019928	0.805653	0.123320	-0.556390	0.161698	3.066176	-69.454717	20.571851
22249		10.994439	-0.283374	1.378747	2.536237	0.564016	0.962667	0.222077	-0.210301	-0.078021	-0.835449	-0.258301	-0.749756	0.109929	-0.002892	0.013900	0.804961	0.124553	-0.557064	0.161875	3.314150	-69.578983	20.437821
22250		11.912112	-0.801829	0.854633	3.476489	0.381517	1.634590	0.316042	-0.185649	-0.077746	-0.841797	-0.267334	-0.740967	0.119110	-0.008078	0.008644	0.804273	0.126151	-0.557564	0.162335	3.616756	-69.689474	20.304249
22251		12.368261	-1.010551	1.199318	3.399261	0.094395	2.181875	0.365201	-0.193196	-0.064866	-0.846680	-0.260742	-0.745361	0.123668	-0.010168	0.012094	0.803524	0.127909	-0.558058	0.162973	3.929578	-69.803973	20.188706
22252		12.536908	-0.404067	2.866866	1.757775	-0.001698	2.933539	0.331548	-0.339560	-0.038645	-0.848389	-0.269775	-0.732178	0.125319	-0.004113	0.028875	0.802357	0.129585	-0.559184	0.163534	4.201972	-70.003621	20.096979
22253		13.369128	0.091974	4.753550	0.165405	-0.221726	4.373976	0.185295	-0.446893	-0.028197	-0.848145	-0.271973	-0.727783	0.133585	0.000857	0.047835	0.800977	0.130724	-0.560861	0.163652	4.389047	-70.264274	20.005825
22254		14.602168	0.601329	5.562432	-0.405692	0.030602	5.819317	0.054931	-0.486507	-0.026965	-0.848145	-0.272217	-0.723389	0.145887	0.005978	0.055981	0.799560	0.131379	-0.562804	0.163388	4.508788	-70.548244	19.908382
22255		15.629063	0.718913	5.992572	-0.562876	0.044717	6.931749	0.120953	-0.392482	-0.074711	-0.853027	-0.263428	-0.716553	0.156175	0.007094	0.060237	0.798403	0.132344	-0.564280	0.163175	4.734293	-70.775495	19.737728
22256		16.234917	0.179062	6.680842	-0.791529	-0.710248	7.711773	0.362816	-0.359628	-0.168107	-0.852539	-0.276611	-0.714355	0.162230	0.001533	0.067103	0.797246	0.134520	-0.565365	0.163296	5.254629	-70.979638	19.403047
22257		16.571913	-0.734589	6.512247	-0.197265	-1.520309	7.941925	0.586374	-0.337309	-0.231651	-0.856934	-0.274658	-0.712158	0.165600	-0.007729	0.065380	0.796051	0.137738	-0.566127	0.163805	6.014172	-71.165569	18.950165
22258		15.703119	-1.528966	5.282618	0.919881	-1.911849	6.689738	0.632958	-0.084281	-0.205313	-0.854248	-0.285645	-0.705566	0.156993	-0.015618	0.052843	0.795504	0.140867	-0.565858	0.164728	6.719909	-71.207814	18.583789
22259		14.069751	-1.320702	4.210891	1.269208	-1.499606	4.801479	0.675366	-0.013422	-0.112118	-0.854248	-0.285645	-0.707764	0.140687	-0.013428	0.042073	0.795047	0.143832	-0.565328	0.166184	7.280456	-71.214346	18.395335
22260		12.744714	-0.541317	4.307550	0.464519	-1.008870	3.605286	0.710700	-0.084298	-0.085443	-0.853516	-0.299072	-0.703369	0.127427	-0.005621	0.043109	0.794327	0.146927	-0.565067	0.167799	7.833563	-71.263180	18.237289
22261		11.976854	-0.329458	4.272629	0.190166	-0.916379	2.873242	0.673436	0.136236	-0.137752	-0.857910	-0.301514	-0.701172	0.119795	-0.003521	0.042633	0.794297	0.149828	-0.563912	0.169255	8.400615	-71.181564	18.040809
22262		11.158497	-0.221425	4.128408	0.057963	-0.865233	2.055445	0.617429	0.330454	-0.156334	-0.853027	-0.307861	-0.705566	0.111651	-0.002429	0.041092	0.794857	0.152401	-0.562016	0.170631	8.914552	-70.988382	17.867784
22263		7.173501	-0.154580	4.870418	-1.782461	-1.544225	-1.467510	0.477704	0.395836	-0.174802	-0.845947	-0.318848	-0.705566	0.071830	-0.001725	0.048558	0.795719	0.154405	-0.559955	0.171580	9.353936	-70.755433	17.687321
22264		7.257986	1.143577	5.603519	-2.912240	-0.715438	-1.072410	0.233998	0.227675	-0.250593	-0.846191	-0.314453	-0.709961	0.072658	0.011279	0.055966	0.796354	0.155803	-0.558713	0.171423	9.815474	-70.610332	17.336677
22265		9.584242	2.719322	5.640398	-2.891980	0.883704	1.229140	-0.057626	-0.061351	-0.293742	-0.847656	-0.325439	-0.703369	0.095865	0.027069	0.056426	0.796448	0.156399	-0.558834	0.170046	10.255747	-70.622548	16.829837
22266		9.264863	3.091812	5.380825	-2.925202	1.286545	0.870860	-0.341386	0.093960	-0.365019	-0.845947	-0.318848	-0.707764	0.092730	0.030841	0.053712	0.797250	0.155941	-0.558520	0.167720	10.601908	-70.539178	16.251751
22267		8.399194	3.016429	4.176061	-2.126194	1.663264	-0.336533	-0.356567	0.247046	-0.362344	-0.839111	-0.318604	-0.720947	0.084098	0.030086	0.041603	0.798488	0.155275	-0.557607	0.165474	10.882992	-70.368388	15.731573
22268		8.040879	2.734093	3.307219	-1.355587	1.752047	-0.971798	-0.258182	0.179889	-0.321359	-0.837158	-0.316162	-0.720947	0.080482	0.027254	0.032965	0.799420	0.154951	-0.556908	0.163618	11.171096	-70.239311	15.264496
22269		7.953837	2.260087	3.529133	-1.344958	1.215619	-1.007028	-0.106833	0.013587	-0.227880	-0.843506	-0.322998	-0.718750	0.079566	0.022529	0.035274	0.799696	0.155099	-0.556821	0.162421	11.447260	-70.213082	14.900859
22270		8.545017	1.805037	4.334170	-1.630423	0.498811	-0.213032	0.036098	-0.149798	-0.130577	-0.841064	-0.322998	-0.712158	0.085429	0.017987	0.043409	0.799324	0.155688	-0.557346	0.161890	11.706632	-70.289463	14.643224
22271		9.286084	1.548050	5.107632	-1.937202	-0.017572	0.721193	0.117011	-0.134623	-0.052921	-0.838867	-0.322998	-0.714355	0.092831	0.015426	0.051148	0.798869	0.156364	-0.557805	0.161901	11.886410	-70.365807	14.518381
22272		9.718239	1.208078	5.102564	-1.647685	-0.295221	1.102337	0.094204	0.043990	-0.037490	-0.839355	-0.316406	-0.716553	0.097196	0.012039	0.051010	0.798915	0.156769	-0.557580	0.162056	11.971532	-70.344055	14.481487
22273		9.393073	0.679611	4.109265	-0.676547	-0.369881	0.433443	-0.013131	0.208765	-0.080870	-0.836914	-0.318359	-0.720947	0.093976	0.006761	0.040994	0.799542	0.156725	-0.556750	0.161862	12.006845	-70.224476	14.430862
22274		8.715984	0.079549	3.291524	0.069319	-0.611282	-0.515896	-0.124549	0.222626	-0.148720	-0.834473	-0.322754	-0.729980	0.087197	0.000751	0.032818	0.800347	0.156417	-0.555900	0.161099	12.079098	-70.089173	14.273754
22275		8.034077	-0.473378	2.929504	0.405078	-1.011114	-1.317629	-0.225324	0.169655	-0.213311	-0.832520	-0.318115	-0.732178	0.080361	-0.004787	0.029232	0.801135	0.155923	-0.555292	0.159753	12.208447	-69.975492	13.993644
22276		7.608465	-0.744229	2.641639	0.633305	-1.172081	-1.834842	-0.342747	0.106416	-0.252697	-0.827637	-0.324707	-0.736572	0.076089	-0.007493	0.026389	0.801867	0.155122	-0.554997	0.157876	12.350472	-69.892175	13.628847
22277		6.793297	-0.880970	2.429039	0.603625	-1.277279	-2.683213	-0.460018	0.084771	-0.272835	-0.834717	-0.320557	-0.736572	0.067931	-0.008847	0.024282	0.802642	0.153919	-0.554863	0.155573	12.460701	-69.818231	13.225556
22278		6.353842	-1.075838	2.262534	0.680011	-1.423803	-3.167527	-0.574619	0.080473	-0.294713	-0.828125	-0.315918	-0.740967	0.063532	-0.010787	0.022631	0.803501	0.152324	-0.554812	0.152863	12.538788	-69.743709	12.787100
22279		6.136446	-1.168477	2.267632	0.639159	-1.530656	-3.377469	-0.694605	0.085353	-0.287987	-0.823975	-0.311279	-0.740967	0.061357	-0.011694	0.022691	0.804451	0.150217	-0.554833	0.149845	12.533833	-69.667238	12.362923
22280		6.210575	-1.291592	2.113108	0.842970	-1.576375	-3.369930	-0.711222	0.122647	-0.266498	-0.828613	-0.306885	-0.745361	0.062101	-0.012924	0.021139	0.805489	0.147955	-0.554723	0.146895	12.472990	-69.572600	11.988329
22281		6.324653	-1.229390	2.089414	0.875252	-1.502103	-3.266245	-0.683094	0.126098	-0.207963	-0.826416	-0.304688	-0.751953	0.063247	-0.012288	0.020896	0.806462	0.145638	-0.554615	0.144257	12.337959	-69.483516	11.709548
22282		6.721300	-1.115331	2.168518	0.897438	-1.397658	-2.858303	-0.628317	0.121650	-0.139020	-0.826660	-0.300049	-0.749756	0.067218	-0.011132	0.021679	0.807323	0.143353	-0.554529	0.142047	12.132100	-69.405598	11.539967
22283		7.373112	-1.064876	2.177912	1.093023	-1.303020	-2.239876	-0.501959	0.097630	-0.057224	-0.826904	-0.297852	-0.751953	0.073739	-0.010615	0.021770	0.807961	0.141366	-0.554505	0.140496	11.884945	-69.351113	11.491601
22284		7.609467	-1.017168	2.242697	1.098541	-1.258516	-1.991073	-0.327979	0.062915	0.035649	-0.822998	-0.286621	-0.749756	0.076104	-0.010121	0.022420	0.808310	0.139849	-0.554561	0.139781	11.610324	-69.327177	11.579430
22285		8.151461	-0.683933	2.184592	1.204610	-0.879170	-1.478272	-0.137821	0.018219	0.125111	-0.827148	-0.291260	-0.754150	0.081521	-0.006773	0.021843	0.808339	0.138883	-0.554727	0.139920	11.325616	-69.338218	11.794172
22286		8.043101	-0.337480	2.225524	0.992876	-0.569554	-1.539351	-0.037176	-0.031212	0.185459	-0.822510	-0.293457	-0.749756	0.080431	-0.003296	0.022268	0.808117	0.138190	-0.555064	0.140550	11.021964	-69.383591	12.090808
22287		7.699752	-0.244430	2.216050	0.837369	-0.492156	-1.855717	0.037511	-0.053647	0.205260	-0.827393	-0.286865	-0.754150	0.076994	-0.002369	0.022181	0.807767	0.137760	-0.555451	0.141449	10.737193	-69.442957	12.412813
22288		7.489030	-0.301065	2.103152	0.873975	-0.505638	-2.093883	0.107519	-0.045422	0.198975	-0.831543	-0.291504	-0.751953	0.074888	-0.002947	0.021047	0.807394	0.137626	-0.555752	0.142527	10.497831	-69.496705	12.729508
22289		7.185205	-0.322094	1.841110	0.995019	-0.438742	-2.468436	0.166645	-0.044508	0.189449	-0.829346	-0.291260	-0.751953	0.071851	-0.003168	0.018424	0.806990	0.137754	-0.555998	0.143727	10.305305	-69.548338	13.031795
22290		6.996982	-0.474356	1.755611	1.054673	-0.553294	-2.682017	0.195170	-0.085442	0.175341	-0.831787	-0.286865	-0.749756	0.069966	-0.004699	0.017581	0.806459	0.138069	-0.556379	0.144926	10.160312	-69.621560	13.301366
22291		7.069513	-0.741387	1.830024	1.107700	-0.816577	-2.602775	0.180582	-0.161950	0.160427	-0.840820	-0.287354	-0.743164	0.070686	-0.007374	0.018351	0.805736	0.138419	-0.557067	0.145966	10.048764	-69.735973	13.525511
22292		7.213637	-0.811386	2.169237	0.875980	-0.996740	-2.353489	0.117458	-0.235519	0.171928	-0.836182	-0.289307	-0.740967	0.072118	-0.008065	0.021773	0.804839	0.138538	-0.558106	0.146830	9.900608	-69.893304	13.750446
22293		7.533928	-0.943126	2.295591	0.905984	-1.137140	-2.014908	0.069735	-0.221839	0.163262	-0.838379	-0.289551	-0.738770	0.075321	-0.009378	0.023036	0.804020	0.138476	-0.559116	0.147531	9.732332	-70.041412	13.966955
22294		8.117350	-0.887957	2.310821	1.045131	-1.039562	-1.455253	0.038712	-0.173000	0.157813	-0.840820	-0.287354	-0.743164	0.081160	-0.008820	0.023177	0.803359	0.138273	-0.559949	0.148162	9.538950	-70.161594	14.191921
22295		8.633447	-0.985916	2.239172	1.296874	-1.053078	-0.996144	-0.025090	-0.149419	0.123893	-0.840820	-0.285156	-0.732178	0.086324	-0.009803	0.022457	0.802835	0.137887	-0.560708	0.148489	9.353865	-70.264587	14.368219
22296		9.257484	-0.900092	1.836636	1.797646	-0.761819	-0.535161	0.005799	-0.112102	0.074606	-0.840820	-0.285156	-0.734375	0.092568	-0.008967	0.018418	0.802428	0.137738	-0.561263	0.148736	9.252812	-70.342183	14.474723
22297		10.140220	-0.411237	1.344359	2.303603	-0.045925	0.161869	0.035948	-0.093924	0.055559	-0.842773	-0.289551	-0.734375	0.101397	-0.004087	0.013490	0.802067	0.137747	-0.561706	0.148997	9.194184	-70.407283	14.553716
22298		10.782646	0.784220	1.144123	2.197767	1.182561	0.768467	-0.009886	-0.168864	0.044149	-0.844971	-0.291992	-0.732178	0.107815	0.007867	0.011532	0.801532	0.137665	-0.562478	0.149040	9.146099	-70.514169	14.594601
22299		11.510398	2.172000	1.047057	1.940710	2.549727	1.502593	-0.129710	-0.354192	0.049667	-0.845459	-0.281006	-0.725586	0.115080	0.021755	0.010660	0.800556	0.137220	-0.564083	0.148632	9.067735	-70.725923	14.593779
22300		11.617607	2.677266	0.854147	1.893633	3.083907	1.578952	-0.177144	-0.579209	0.038483	-0.856445	-0.287842	-0.716553	0.116146	0.026803	0.008854	0.798976	0.136789	-0.566615	0.147898	9.038538	-71.064577	14.513250
22301		10.917767	2.533079	0.626374	1.863429	2.959895	0.853739	-0.049506	-0.690600	0.016744	-0.856689	-0.283447	-0.707764	0.109153	0.025342	0.006634	0.797005	0.137004	-0.569473	0.147354	9.150764	-71.463675	14.359703
22302		10.753613	2.025960	1.374003	1.298063	2.165273	0.923180	0.130755	-0.592698	0.003790	-0.865234	-0.288330	-0.703369	0.107494	0.020253	0.014072	0.795183	0.137910	-0.571799	0.147345	9.368393	-71.806989	14.205722
22303		11.690267	1.115359	2.090055	1.263409	1.098445	1.997127	0.176033	-0.401504	0.006207	-0.865479	-0.283936	-0.698975	0.116860	0.011139	0.021145	0.793876	0.138838	-0.573323	0.147598	9.558214	-72.041382	14.107072
22304		13.042088	0.468932	2.901821	1.178279	0.273191	3.501721	0.286734	-0.226588	0.060574	-0.869873	-0.286377	-0.696777	0.130386	0.004687	0.029173	0.792944	0.139929	-0.574112	0.148512	9.668142	-72.183072	14.160566
22305		14.014869	0.277613	3.710741	0.808587	-0.156498	4.664358	0.315785	-0.205014	0.119288	-0.867188	-0.292969	-0.696777	0.140109	0.002801	0.037255	0.792013	0.140941	-0.574827	0.149750	9.683951	-72.317261	14.328880
22306		14.841067	0.334924	4.638236	0.168966	-0.415923	5.733395	0.237336	-0.453552	0.225744	-0.872070	-0.284180	-0.690186	0.148301	0.003461	0.046723	0.790332	0.141531	-0.576662	0.151015	9.538035	-72.602907	14.620927
22307		15.176121	0.299853	5.782265	-0.822007	-0.885715	6.385380	0.082896	-0.795356	0.338165	-0.878906	-0.284424	-0.681152	0.151524	0.003231	0.058427	0.787685	0.141434	-0.580031	0.152027	9.189503	-73.090955	15.030342
22308		14.389154	0.696619	6.500846	-1.970938	-0.874158	5.844375	-0.003352	-0.828647	0.378552	-0.881104	-0.282227	-0.676758	0.143607	0.007239	0.065604	0.784950	0.140909	-0.583619	0.152929	8.701023	-73.601508	15.534366
22309		12.665046	1.455347	6.765864	-3.082973	-0.407926	4.280816	-0.002430	-0.348683	0.333041	-0.890381	-0.275879	-0.667969	0.126508	0.014765	0.067879	0.783645	0.140145	-0.585277	0.153983	8.135565	-73.833900	16.116978
22310		12.223337	1.303949	7.144663	-3.517422	-0.704526	3.945499	-0.048726	-0.064584	0.310084	-0.890625	-0.273682	-0.670166	0.122190	0.013246	0.071483	0.783212	0.139055	-0.585843	0.155019	7.498664	-73.902377	16.747230
22311		11.463867	1.310435	7.786617	-4.314335	-0.984169	3.385292	-0.003478	-0.137478	0.327260	-0.885986	-0.273682	-0.665771	0.114563	0.013293	0.077945	0.782524	0.138140	-0.586665	0.156195	6.865330	-74.010714	17.399141
22312		8.872447	1.550037	7.636587	-4.974810	-0.888439	0.859812	0.124520	0.249539	0.394916	-0.888428	-0.271484	-0.670166	0.088789	0.015628	0.076265	0.782821	0.137233	-0.585921	0.158286	6.080502	-73.901597	18.286463
22313		10.060217	1.348428	6.174604	-3.275403	-0.340648	1.602532	0.003289	0.563756	0.291107	-0.888672	-0.269287	-0.676758	0.100756	0.013630	0.061462	0.784204	0.135898	-0.583963	0.159822	5.383162	-73.603495	19.009751
22314		9.865236	0.591878	5.108147	-2.045754	-0.574117	1.107539	-0.106067	0.498013	0.174871	-0.886475	-0.264648	-0.681152	0.098774	0.006032	0.050832	0.785550	0.134534	-0.582269	0.160546	4.882029	-73.335438	19.465693
22315		9.680092	-0.424139	4.477167	-1.094339	-1.230217	0.733303	-0.092935	0.417504	0.096091	-0.879883	-0.262207	-0.687988	0.096896	-0.004174	0.044571	0.786717	0.133505	-0.580821	0.160934	4.562516	-73.108135	19.738762
22316		10.019507	-1.279266	4.279658	-0.448223	-1.871879	0.987199	0.002959	0.359730	0.076256	-0.877686	-0.262207	-0.687988	0.100277	-0.012755	0.042616	0.787660	0.132965	-0.579510	0.161492	4.350795	-72.913050	19.958243
22317		10.008517	-1.604656	4.141563	-0.165656	-2.092055	0.934107	0.028809	0.377116	0.070086	-0.880127	-0.260010	-0.694580	0.100169	-0.016017	0.041224	0.788643	0.132522	-0.578102	0.162103	4.167211	-72.707087	20.162644
22318		9.865583	-1.708436	3.761757	0.198018	-2.028908	0.687004	-0.025133	0.341275	0.056747	-0.875732	-0.259766	-0.698975	0.098725	-0.017052	0.037451	0.789563	0.131941	-0.576870	0.162490	3.986331	-72.521307	20.333390
22319		10.185322	-1.624920	2.915731	1.012555	-1.566146	0.742146	-0.088080	0.255468	0.022726	-0.875488	-0.264160	-0.698975	0.101892	-0.016225	0.029034	0.790306	0.131272	-0.576003	0.162496	3.844583	-72.382670	20.424073
22320		10.635319	-1.123450	2.149184	1.615997	-0.747524	0.949324	-0.079829	0.132982	-0.014162	-0.875488	-0.261963	-0.698975	0.106367	-0.011233	0.021426	0.790716	0.130849	-0.575589	0.162309	3.790046	-72.312977	20.429761
22321		9.857286	-0.321641	2.091473	1.126480	-0.071208	0.205784	0.059154	0.075987	-0.007901	-0.880127	-0.262207	-0.703369	0.098581	-0.003226	0.020876	0.790870	0.130995	-0.575290	0.162499	3.810545	-72.275731	20.438762
22322		8.918572	0.491096	2.645952	0.048051	0.351597	-0.503700	0.252895	-0.017953	0.043928	-0.873291	-0.261963	-0.701172	0.089182	0.004897	0.026474	0.790579	0.131844	-0.575241	0.163401	3.860674	-72.294708	20.534828
22323		8.011732	1.242143	3.065310	-0.888305	0.767973	-1.225021	0.398665	-0.079718	0.108138	-0.877930	-0.259766	-0.701172	0.080098	0.012404	0.030710	0.789965	0.133125	-0.575355	0.164924	3.886307	-72.350965	20.742605
22324		7.517825	1.646339	3.051437	-1.194713	1.081044	-1.692134	0.468970	-0.053745	0.157912	-0.881836	-0.268799	-0.694580	0.075157	0.016451	0.030573	0.789329	0.134525	-0.575341	0.166871	3.858701	-72.394696	21.049685
22325		7.165504	1.732578	3.018183	-1.309656	1.130607	-2.036941	0.470447	0.062376	0.202315	-0.877441	-0.268799	-0.698975	0.071647	0.017327	0.030200	0.788988	0.135699	-0.574891	0.169065	3.737949	-72.373209	21.454131
22326		7.000926	1.772501	2.861750	-1.239229	1.214919	-2.240857	0.446515	0.194701	0.230610	-0.879883	-0.264404	-0.698975	0.070017	0.017742	0.028589	0.789010	0.136594	-0.573957	0.171401	3.539675	-72.277223	21.927345
22327		6.899006	1.471056	2.372201	-0.713051	1.141378	-2.493095	0.426888	0.277854	0.230571	-0.877441	-0.268799	-0.701172	0.069006	0.014740	0.023658	0.789283	0.137330	-0.572706	0.173727	3.325155	-72.132686	22.404461
22328		6.718312	1.335324	2.178788	-0.529247	1.089924	-2.727642	0.457955	0.349234	0.212736	-0.881836	-0.273193	-0.701172	0.067207	0.013375	0.021701	0.789744	0.138183	-0.571130	0.176126	3.158702	-71.946631	22.851354
22329		6.826541	1.187260	1.932190	-0.209018	1.085139	-2.704708	0.499371	0.365883	0.188632	-0.872559	-0.275146	-0.705566	0.068289	0.011889	0.019227	0.790241	0.139245	-0.569429	0.178550	3.062572	-71.749611	23.248550
22330		6.738477	1.300773	1.795703	-0.153905	1.244100	-2.830415	0.510931	0.341539	0.148650	-0.876953	-0.279785	-0.709961	0.067406	0.013012	0.017875	0.790685	0.140498	-0.567781	0.180840	3.049810	-71.565607	23.566923
22331		6.577194	1.518430	1.754323	-0.251227	1.442398	-2.993660	0.437305	0.251224	0.096110	-0.878906	-0.286377	-0.709961	0.065787	0.015178	0.017494	0.790969	0.141679	-0.566514	0.182638	3.094866	-71.431264	23.778544
22332		6.658452	1.578332	1.727858	-0.226306	1.518763	-2.924019	0.318663	0.108232	0.032141	-0.870361	-0.277344	-0.705566	0.066591	0.015767	0.017268	0.790983	0.142714	-0.565874	0.183756	3.196034	-71.377216	23.861263
22333		6.769684	1.623839	1.721221	-0.207960	1.572925	-2.819066	0.173681	-0.007054	-0.034272	-0.874756	-0.279785	-0.712158	0.067699	0.016212	0.017229	0.790838	0.143457	-0.565774	0.184108	3.336456	-71.386587	23.813009
22334		6.964206	1.586397	1.681736	-0.102667	1.574636	-2.646445	0.042122	-0.069858	-0.094204	-0.872314	-0.281738	-0.709961	0.069644	0.015828	0.016845	0.790661	0.143915	-0.566001	0.183813	3.510362	-71.430144	23.651022
22335		7.185315	1.528844	1.778359	-0.096370	1.500359	-2.405373	-0.088756	-0.121157	-0.129794	-0.872314	-0.284180	-0.705566	0.071852	0.015250	0.017820	0.790468	0.143995	-0.566524	0.182962	3.675945	-71.501244	23.417663
22336		7.165467	1.374997	1.670943	0.053306	1.396996	-2.459311	-0.218812	-0.174092	-0.162039	-0.876953	-0.279785	-0.703369	0.071651	0.013710	0.016757	0.790245	0.143710	-0.567352	0.181585	3.830888	-71.601509	23.118398
22337		7.092213	1.289291	1.616620	0.109386	1.323820	-2.545587	-0.329012	-0.231789	-0.172174	-0.879150	-0.281982	-0.703369	0.070914	0.012859	0.016227	0.789946	0.143061	-0.568498	0.179805	3.948629	-71.733819	22.790696
22338		7.070801	1.128580	1.411883	0.338008	1.253836	-2.630978	-0.413384	-0.284746	-0.171238	-0.876709	-0.281982	-0.701172	0.070697	0.011255	0.014196	0.789546	0.142132	-0.569928	0.177758	4.027023	-71.896812	22.455079
22339		7.032807	1.036879	1.357025	0.400899	1.178687	-2.683384	-0.471877	-0.322131	-0.154315	-0.874756	-0.277588	-0.701172	0.070314	0.010347	0.013659	0.789065	0.140947	-0.571562	0.175575	4.049725	-72.081209	22.141843
22340		7.158373	0.972831	1.180724	0.599476	1.198630	-2.616390	-0.483589	-0.331448	-0.136800	-0.881592	-0.277832	-0.696777	0.071571	0.009708	0.011902	0.788539	0.139682	-0.573252	0.173427	4.040563	-72.271991	21.856751
22341		7.138825	0.929931	1.042048	0.716140	1.204761	-2.674822	-0.440457	-0.290855	-0.122401	-0.882080	-0.264404	-0.703369	0.071379	0.009279	0.010504	0.788084	0.138501	-0.574749	0.171479	4.026528	-72.439807	21.601601
22342		7.207113	1.261094	1.185485	0.457963	1.442619	-2.556840	-0.318139	-0.216209	-0.097578	-0.881836	-0.268799	-0.690186	0.072064	0.012595	0.011913	0.787729	0.137671	-0.575862	0.170036	4.030890	-72.566356	21.401760
22343		7.251700	2.050180	1.737100	-0.347644	1.933339	-2.332765	-0.607289	-0.158869	-0.039042	-0.886719	-0.262451	-0.692383	0.072507	0.020540	0.017366	0.787687	0.135478	-0.577029	0.168025	3.755218	-72.662156	21.320972
22344		7.987499	1.040339	1.327219	0.630792	1.268844	-1.773030	-0.479804	-0.108593	-0.039405	-0.880127	-0.262207	-0.696777	0.079870	0.010420	0.013291	0.787692	0.133752	-0.577890	0.166417	3.547342	-72.729999	21.246795
22345		8.357998	1.742624	1.645382	0.157471	1.821435	-1.312233	-0.421384	-0.156632	-0.004874	-0.891357	-0.260254	-0.692383	0.083568	0.017459	0.016483	0.787490	0.132188	-0.578908	0.165077	3.313176	-72.825882	21.234140
22346		9.311778	0.787677	0.599598	1.720016	1.476006	-0.726868	-0.316785	0.058172	-0.000303	-0.882080	-0.264404	-0.692383	0.093120	0.007886	0.005956	0.787831	0.130854	-0.578997	0.164203	3.108411	-72.799611	21.254631
22347		10.023408	0.474107	0.650705	2.005331	1.250094	-0.038599	0.065679	0.070126	0.000142	-0.884766	-0.255615	-0.692383	0.100236	0.004739	0.006473	0.787958	0.131006	-0.578722	0.164441	3.119570	-72.765939	21.277301
22348		10.981526	0.302032	1.048652	1.997818	1.037827	0.990851	0.285839	0.016389	-0.015992	-0.882080	-0.266602	-0.692383	0.109816	0.002997	0.010482	0.787793	0.132128	-0.578469	0.165223	3.294003	-72.763193	21.262629
22349		11.757543	0.556515	1.463313	1.746354	1.180496	1.859822	0.238520	-0.039026	-0.047133	-0.886963	-0.258057	-0.690186	0.117574	0.005520	0.014663	0.787528	0.133188	-0.578449	0.165703	3.502844	-72.790378	21.182016
22350		12.282399	-0.547962	1.069962	2.689305	0.377336	2.225902	-0.268927	-0.021739	-0.144133	-0.877686	-0.262207	-0.687988	0.122819	-0.005554	0.010720	0.787725	0.132526	-0.578719	0.164350	3.600296	-72.804965	20.915103
22351		11.611314	-1.059166	1.047575	2.733193	-0.170683	1.568979	0.047330	-0.102374	-0.201587	-0.882324	-0.262207	-0.685791	0.116097	-0.010711	0.010533	0.787530	0.133332	-0.579005	0.163626	3.994107	-72.862340	20.526270
22352		11.320331	-0.534941	0.164279	3.194200	0.599109	1.045538	-0.262243	-0.241860	-0.231022	-0.880127	-0.260010	-0.678955	0.113195	-0.005478	0.001787	0.787153	0.133128	-0.580075	0.161802	4.289230	-72.998383	20.056726
22353		12.090232	0.540451	-0.149348	3.218869	1.747374	1.723062	-0.299436	-0.308622	-0.183751	-0.882324	-0.260010	-0.683594	0.120909	0.005291	-0.001315	0.786571	0.132683	-0.581463	0.160006	4.488398	-73.173177	19.664196
22354		12.127285	1.529993	0.946413	1.842313	2.188203	2.108935	-0.462303	-0.436194	-0.181721	-0.886475	-0.264648	-0.678955	0.121266	0.015212	0.009693	0.785711	0.131702	-0.583485	0.157663	4.617830	-73.421648	19.248663
22355		13.028581	2.057841	2.477125	0.492298	2.123783	3.429733	-0.514357	-0.507758	-0.202226	-0.889404	-0.251465	-0.674561	0.130243	0.020511	0.025049	0.784690	0.130622	-0.585802	0.155034	4.776086	-73.708674	18.771384
22356		14.840730	2.079663	3.813669	-0.261430	1.752512	5.548833	-0.486867	-0.505404	-0.242988	-0.886963	-0.255859	-0.670166	0.148336	0.020710	0.038461	0.783671	0.129775	-0.588060	0.152329	5.044092	-73.992978	18.198204
22357		16.088991	1.293381	4.718150	-0.484254	0.743984	6.980194	-0.331803	-0.489258	-0.250960	-0.887207	-0.249268	-0.663574	0.160790	0.012811	0.047554	0.782602	0.129535	-0.590118	0.150052	5.428009	-74.265618	17.596422
22358		16.755999	0.111846	6.169542	-1.204067	-0.906776	7.979624	0.151690	-0.514693	-0.229798	-0.893799	-0.253906	-0.656982	0.167402	0.000879	0.062127	0.781115	0.131152	-0.591927	0.149271	6.072367	-74.553531	17.013696
22359		16.464810	-0.952817	7.711105	-2.289183	-2.588396	8.062371	0.434689	-0.487393	-0.261338	-0.895752	-0.258545	-0.652588	0.164447	-0.009911	0.077491	0.779545	0.133936	-0.593385	0.149217	6.960873	-74.820689	16.345719
22360		15.196248	-2.276228	6.962438	-1.455800	-3.691512	6.583524	0.239240	-0.194613	-0.258458	-0.900146	-0.258545	-0.650391	0.151865	-0.023042	0.069745	0.778958	0.135739	-0.593852	0.148793	7.675614	-74.920363	15.743297
22361		14.173884	-2.584558	6.411826	-1.117255	-3.884530	5.430423	-0.042605	-0.200741	-0.245818	-0.897705	-0.262939	-0.652588	0.141642	-0.026006	0.064266	0.778540	0.136402	-0.594552	0.147573	8.210644	-75.021610	15.159054
22362		13.635200	-2.676310	6.645731	-1.449673	-4.140607	4.952155	-0.112585	-0.281523	-0.299184	-0.899658	-0.269775	-0.652588	0.136218	-0.026929	0.066664	0.777960	0.137016	-0.595585	0.145885	8.853986	-75.163563	14.422232
22363		11.447484	-2.889124	6.252510	-1.549920	-4.356915	2.721289	-0.054606	0.381006	-0.378907	-0.890869	-0.269287	-0.656982	0.114539	-0.029091	0.062315	0.779373	0.137604	-0.593935	0.144509	9.475960	-74.920344	13.741074
22364		9.500473	-2.297483	5.264100	-1.309452	-3.556652	0.621989	-0.099312	1.135524	-0.473482	-0.877441	-0.268799	-0.674561	0.095247	-0.023174	0.052112	0.783105	0.137757	-0.589302	0.143153	9.972861	-74.240682	13.162655
22365		9.162694	-2.281292	4.391966	-0.507572	-3.219250	0.078009	-0.100086	1.334483	-0.535708	-0.872559	-0.277588	-0.687988	0.091856	-0.023037	0.043319	0.787438	0.137935	-0.583818	0.141677	10.472402	-73.440678	12.577860
22366		8.926155	-0.854588	4.354126	-0.965852	-1.899466	-0.074973	0.017936	1.068625	-0.457625	-0.861084	-0.281494	-0.690186	0.089473	-0.008754	0.043063	0.790825	0.138533	-0.579325	0.140666	10.939800	-72.797109	12.095456
22367		9.441333	1.132703	4.952460	-2.011249	-0.267207	0.714973	0.006944	0.610647	-0.374759	-0.852295	-0.281250	-0.694580	0.094585	0.011148	0.049236	0.792816	0.139166	-0.576697	0.139628	11.384107	-72.419286	11.628987
22368		9.189103	2.548313	5.712277	-3.232441	0.725282	0.798095	-0.187445	0.318168	-0.382532	-0.854248	-0.283447	-0.701172	0.092030	0.025361	0.056953	0.794096	0.139257	-0.575352	0.137798	11.819331	-72.203690	11.055088
22369		9.186015	2.931099	5.612927	-3.244079	1.114999	0.803888	-0.385876	0.322979	-0.392905	-0.852051	-0.283447	-0.705566	0.092008	0.029238	0.055924	0.795530	0.138582	-0.574114	0.135354	12.145525	-71.982981	10.474882
22370		9.010280	3.194965	4.754640	-2.591844	1.680344	0.407784	-0.417802	0.419626	-0.331384	-0.852295	-0.281250	-0.712158	0.090255	0.031899	0.047290	0.797212	0.137538	-0.572549	0.133132	12.301363	-71.714848	10.054325
22371		8.699454	3.000304	3.854406	-1.775154	1.829743	-0.166992	-0.295545	0.409927	-0.210653	-0.847656	-0.283203	-0.716553	0.087105	0.029968	0.038321	0.798696	0.136639	-0.571019	0.131729	12.320946	-71.466715	9.850141
22372		7.917911	2.665869	3.621838	-1.656779	1.572482	-0.997916	-0.077859	0.296063	-0.077549	-0.847900	-0.278809	-0.714355	0.079243	0.026642	0.036091	0.799613	0.136305	-0.569888	0.131405	12.282560	-71.298607	9.838764
22373		8.294538	2.154405	3.781958	-1.469903	1.064772	-0.623039	0.011516	0.182783	-0.040338	-0.843506	-0.278564	-0.721191	0.082984	0.021525	0.037745	0.800122	0.136295	-0.569177	0.131403	12.275350	-71.198431	9.848258
22374		9.309700	1.538151	4.084066	-1.170287	0.441119	0.392793	-0.016096	0.176284	-0.044576	-0.841064	-0.280762	-0.721191	0.093136	0.015364	0.040757	0.800632	0.136190	-0.568507	0.131303	12.260817	-71.101550	9.848786
22375		8.999718	0.710571	3.948753	-0.823789	-0.287843	0.002144	-0.128072	0.347867	-0.099511	-0.843262	-0.282959	-0.734375	0.090069	0.007086	0.039326	0.801741	0.135681	-0.567184	0.130780	12.211980	-70.901748	9.817734
22376		8.329002	0.085502	3.312547	-0.222611	-0.663918	-0.876129	-0.244962	0.411129	-0.164998	-0.838867	-0.280762	-0.732178	0.083359	0.000827	0.032953	0.803150	0.134848	-0.565635	0.129706	12.179066	-70.658369	9.699016
22377		7.864457	-0.364072	2.984929	0.105235	-0.983032	-1.451195	-0.374975	0.340100	-0.240316	-0.834473	-0.278320	-0.734375	0.078691	-0.003679	0.029722	0.804487	0.133750	-0.564403	0.127912	12.214409	-70.445880	9.428580
22378		7.262964	-0.736935	2.881896	0.150949	-1.324026	-2.078142	-0.530699	0.262177	-0.280954	-0.832275	-0.278076	-0.745361	0.072657	-0.007395	0.028743	0.805727	0.132189	-0.563551	0.125464	12.247206	-70.271986	9.065922
22379		6.741942	-1.045781	2.557349	0.380808	-1.522569	-2.697616	-0.718501	0.225094	-0.269032	-0.832764	-0.269287	-0.743164	0.067434	-0.010457	0.025535	0.806968	0.129859	-0.562967	0.122506	12.164019	-70.120408	8.711670
22380		6.310180	-1.262089	2.160675	0.663405	-1.604365	-3.250244	-0.855627	0.276900	-0.229611	-0.825928	-0.269043	-0.747559	0.063117	-0.012601	0.021573	0.808406	0.126828	-0.562272	0.119354	11.921434	-69.944705	8.442788
22381		5.895306	-1.710502	1.525380	1.235984	-1.826285	-3.884428	-0.817947	0.334023	-0.205948	-0.824219	-0.262207	-0.754150	0.058961	-0.017103	0.015225	0.809948	0.123849	-0.561327	0.116436	11.646840	-69.740301	8.230939
22382		6.092828	-1.441979	1.658576	1.104318	-1.603185	-3.635066	-0.680440	0.309903	-0.138163	-0.819824	-0.257568	-0.760986	0.060944	-0.014406	0.016540	0.811284	0.121246	-0.560432	0.114163	11.355402	-69.557424	8.120677
22383		6.054457	-1.328054	2.157667	0.615619	-1.649663	-3.490085	-0.809581	0.168405	-0.057512	-0.818115	-0.250977	-0.767578	0.060559	-0.013211	0.021579	0.812243	0.117975	-0.560225	0.111766	10.914010	-69.463389	8.091554
22384		6.679416	-1.215972	2.494722	0.491882	-1.603322	-2.776765	-0.790441	0.074194	0.012001	-0.815918	-0.248535	-0.767578	0.066804	-0.012057	0.024970	0.812877	0.114631	-0.560418	0.109648	10.405964	-69.429422	8.144725
22385		7.406323	-0.815483	2.744090	0.389448	-1.241942	-1.979775	-0.712304	0.027122	0.105517	-0.816650	-0.233154	-0.765381	0.074071	-0.008018	0.027460	0.813267	0.111373	-0.560809	0.108100	9.817487	-69.431676	8.332216
