// General information: 
//  MT Manager version: 2019.2.0 
//  XDA version: 2019.2.0 build 3853 rev 94535 built on 2019-09-09
// Device information: 
//  DeviceId: 00B40A23
//  ProductCode: MTW2-3A7G6
//  Firmware Version: 4.3.5
//  Hardware Version: 1.1.0
// Device settings: 
//  Filter Profile: human(46.1)
//  Option Flags: Orientation Smoother Disabled, AHS Disabled, ICC Disabled
// Coordinate system: ENU
PacketCounter	SampleTimeFine	Acc_X	Acc_Y	Acc_Z	FreeAcc_E	FreeAcc_N	FreeAcc_U	Gyr_X	Gyr_Y	Gyr_Z	Mag_X	Mag_Y	Mag_Z	VelInc_X	VelInc_Y	VelInc_Z	Quat_q0	Quat_q1	Quat_q2	Quat_q3	Roll	Pitch	Yaw
48552		4.923197	-0.466810	8.537072	0.013639	-0.024396	0.053243	-0.033136	-0.019700	-0.000328	-0.318359	0.252197	-0.985840	0.049224	-0.004654	0.085376	0.941796	-0.080445	-0.245570	-0.215046	-3.032960	-29.811779	-24.916902
48553		4.845895	-0.486101	8.543252	-0.059240	-0.007815	0.021060	-0.027287	-0.018716	0.006480	-0.322998	0.252197	-0.988037	0.048451	-0.004848	0.085438	0.941762	-0.080632	-0.245648	-0.215037	-3.054323	-29.825525	-24.910608
48554		4.825843	-0.461183	8.538680	-0.062468	0.023807	0.005971	-0.015515	-0.007177	0.005439	-0.313965	0.252441	-0.992432	0.048255	-0.004604	0.085389	0.941746	-0.080751	-0.245683	-0.215022	-3.068676	-29.832618	-24.905281
48555		4.812737	-0.458105	8.485732	-0.048778	0.019461	-0.046563	-0.005840	0.002429	0.001960	-0.320801	0.254395	-0.988037	0.048128	-0.004578	0.084857	0.941741	-0.080808	-0.245686	-0.215016	-3.075902	-29.834402	-24.902707
48556		4.841280	-0.476504	8.511046	-0.045224	0.000024	-0.009580	0.000805	0.002381	0.004120	-0.313965	0.256836	-0.988037	0.048414	-0.004764	0.085110	0.941742	-0.080838	-0.245694	-0.214991	-3.080304	-29.836063	-24.898586
48557		4.825440	-0.462426	8.538841	-0.063330	0.025866	0.005960	0.006902	0.005982	0.000861	-0.320557	0.247803	-0.981201	0.048257	-0.004627	0.085387	0.941746	-0.080830	-0.245695	-0.214976	-3.079807	-29.835849	-24.896863
48558		4.876861	-0.484728	8.558139	-0.041111	-0.007957	0.049296	0.008375	0.004316	0.000986	-0.318359	0.250000	-0.985596	0.048770	-0.004851	0.085580	0.941749	-0.080818	-0.245703	-0.214957	-3.078809	-29.836497	-24.894878
48559		4.849700	-0.443699	8.523144	-0.029516	0.029369	0.003560	0.013483	0.004426	0.003347	-0.315918	0.247803	-0.983398	0.048499	-0.004442	0.085230	0.941757	-0.080784	-0.245717	-0.214921	-3.075384	-29.837096	-24.891460
48560		4.824250	-0.459834	8.539653	-0.064161	0.027955	0.005949	0.016312	0.003819	0.001465	-0.318359	0.254395	-0.981445	0.048244	-0.004605	0.085395	0.941763	-0.080736	-0.245736	-0.214891	-3.070003	-29.838014	-24.889143
48561		4.677841	-0.581563	8.476650	-0.207117	-0.044524	-0.115825	0.017110	0.002786	-0.003181	-0.316162	0.252197	-0.981445	0.046779	-0.005824	0.084765	0.941763	-0.080679	-0.245764	-0.214881	-3.062387	-29.839752	-24.889973
48562		4.795309	-0.549508	8.505987	-0.114430	-0.052543	-0.033479	0.031246	-0.005988	-0.009811	-0.318115	0.245605	-0.985596	0.047950	-0.005511	0.085060	0.941751	-0.080558	-0.245850	-0.214881	-3.044922	-29.846622	-24.894747
48563		4.939933	-0.445410	8.579131	0.012215	0.004789	0.097038	0.028235	-0.004166	-0.009735	-0.318115	0.247803	-0.985596	0.049397	-0.004469	0.085792	0.941740	-0.080447	-0.245926	-0.214885	-3.028900	-29.852536	-24.899659
48564		4.763790	-0.458741	8.509246	-0.104333	0.037936	-0.050563	0.024043	-0.010353	-0.003060	-0.313965	0.252441	-0.985840	0.047633	-0.004598	0.085094	0.941726	-0.080372	-0.246022	-0.214860	-3.017854	-29.861696	-24.899832
48565		4.703171	-0.544194	8.540081	-0.205667	-0.009436	-0.050179	0.025757	-0.015145	-0.010216	-0.318359	0.254395	-0.983643	0.047025	-0.005455	0.085404	0.941700	-0.080285	-0.246146	-0.214866	-3.003280	-29.873905	-24.904684
48566		4.937473	-0.535905	8.537650	-0.019658	-0.089386	0.063999	0.028029	-0.017846	-0.014736	-0.320557	0.247803	-0.989990	0.049367	-0.005375	0.085380	0.941667	-0.080185	-0.246287	-0.214888	-2.986238	-29.887697	-24.912308
48567		4.783125	-0.464218	8.479980	-0.087377	0.014803	-0.066099	0.030565	-0.011098	-0.011797	-0.322998	0.252197	-0.983398	0.047826	-0.004658	0.084802	0.941646	-0.080068	-0.246398	-0.214896	-2.968314	-29.897635	-24.918352
48568		4.722651	-0.516769	8.581048	-0.204784	0.014221	-0.006427	0.030551	-0.020257	-0.017771	-0.318359	0.252197	-0.979004	0.047217	-0.005185	0.085814	0.941607	-0.079956	-0.246553	-0.214929	-2.948862	-29.912892	-24.927908
48569		4.920938	-0.498855	8.531707	-0.023477	-0.056419	0.048894	0.032027	-0.021923	-0.017644	-0.322754	0.250000	-0.987793	0.049200	-0.005007	0.085322	0.941567	-0.079837	-0.246720	-0.214959	-2.928349	-29.929192	-24.937455
48570		4.810898	-0.458466	8.471712	-0.069534	0.002486	-0.059739	0.035427	-0.008970	-0.022471	-0.320313	0.245605	-0.989990	0.048105	-0.004605	0.084718	0.941539	-0.079683	-0.246829	-0.215012	-2.904356	-29.938118	-24.950510
48571		4.667958	-0.571080	8.600426	-0.290968	-0.015256	-0.014811	0.033747	-0.026724	-0.024793	-0.316162	0.252197	-0.983643	0.046667	-0.005731	0.086010	0.941486	-0.079552	-0.247023	-0.215071	-2.880569	-29.957365	-24.964635
48572		5.078103	-0.376384	8.623339	0.103453	0.013209	0.201298	0.031168	-0.025823	-0.021428	-0.316162	0.252197	-0.976807	0.050769	-0.003783	0.086239	0.941437	-0.079439	-0.247206	-0.215118	-2.859628	-29.975891	-24.976455
48573		5.040192	-0.329133	8.533935	0.129078	0.045409	0.103017	0.022061	-0.027600	-0.018083	-0.322998	0.254395	-0.990234	0.050390	-0.003305	0.085346	0.941385	-0.079372	-0.247389	-0.215160	-2.844748	-29.995440	-24.986139
48574		4.988661	-0.405432	8.585638	0.028622	0.008881	0.125290	0.018191	-0.026245	-0.013035	-0.318359	0.250000	-0.983398	0.049875	-0.004065	0.085863	0.941339	-0.079330	-0.247557	-0.215183	-2.834004	-30.013967	-24.992416
48575		5.027456	-0.444511	8.560831	0.049083	-0.046517	0.124926	0.012844	-0.023226	-0.008114	-0.318115	0.247803	-0.981201	0.050264	-0.004453	0.085614	0.941299	-0.079314	-0.247705	-0.215191	-2.827619	-30.030727	-24.995666
48576		5.040985	-0.469104	8.622635	0.019081	-0.057205	0.186202	0.011306	-0.023070	-0.007912	-0.324951	0.247803	-0.979004	0.050400	-0.004698	0.086232	0.941260	-0.079308	-0.247849	-0.215200	-2.822455	-30.047293	-24.998668
48577		4.993518	-0.423250	8.592054	0.012035	-0.005541	0.134050	0.000092	-0.035954	-0.012956	-0.318359	0.252197	-0.979004	0.049919	-0.004236	0.085930	0.941194	-0.079359	-0.248045	-0.215241	-2.821977	-30.071473	-25.004708
48578		4.900710	-0.479888	8.565261	-0.078200	-0.027083	0.066791	-0.004707	-0.040005	-0.011363	-0.324951	0.245361	-0.983398	0.048990	-0.004800	0.085663	0.941124	-0.079442	-0.248253	-0.215280	-2.825118	-30.097829	-25.009441
48579		4.999877	-0.454373	8.518257	0.027586	-0.050949	0.074808	0.001006	-0.028251	-0.021052	-0.318115	0.247803	-0.979004	0.049986	-0.004549	0.085190	0.941059	-0.079471	-0.248417	-0.215361	-2.821298	-30.117829	-25.021092
48580		5.048355	-0.430974	8.574591	0.048522	-0.032200	0.146823	0.001272	-0.024522	-0.010814	-0.322754	0.247803	-0.983398	0.050473	-0.004313	0.085752	0.941011	-0.079510	-0.248558	-0.215395	-2.820939	-30.135309	-25.025968
48581		4.946409	-0.385108	8.535585	0.003314	0.037409	0.060006	-0.001495	-0.022406	-0.009256	-0.331787	0.247559	-0.981201	0.049454	-0.003853	0.085361	0.940966	-0.079559	-0.248687	-0.215427	-2.822367	-30.151632	-25.030008
48582		5.000175	-0.407657	8.553470	0.025499	0.003659	0.103417	-0.003702	-0.018194	-0.005065	-0.327393	0.250000	-0.983398	0.049994	-0.004076	0.085539	0.940929	-0.079622	-0.248791	-0.215443	-2.826662	-30.165329	-25.031287
48583		5.043637	-0.382248	8.498602	0.093115	-0.002246	0.076800	-0.002900	-0.010067	-0.003747	-0.320557	0.252197	-0.979004	0.050432	-0.003822	0.084989	0.940905	-0.079671	-0.248858	-0.215455	-2.830524	-30.174435	-25.032082
48584		4.963442	-0.453625	8.445919	0.020710	-0.049018	-0.005943	-0.006275	-0.002388	0.001470	-0.329590	0.254150	-0.981201	0.049633	-0.004533	0.084460	0.940894	-0.079737	-0.248882	-0.215450	-2.838207	-30.178905	-25.029551
48585		4.531511	-0.709591	8.571558	-0.486736	-0.086725	-0.103656	0.001648	-0.006310	-0.006823	-0.322754	0.250000	-0.979004	0.045312	-0.007098	0.085717	0.940872	-0.079757	-0.248938	-0.215472	-2.838378	-30.185949	-25.032504
48586		4.918543	-0.490124	8.589984	-0.095339	-0.027200	0.097423	0.008945	-0.008104	-0.020216	-0.327393	0.250000	-0.985596	0.049181	-0.004910	0.085902	0.940837	-0.079730	-0.249014	-0.215548	-2.830220	-30.194298	-25.044141
48587		4.961428	-0.462671	8.535551	-0.027721	-0.033114	0.070814	0.013931	-0.005263	-0.020003	-0.327148	0.245361	-0.987793	0.049612	-0.004638	0.085356	0.940807	-0.079675	-0.249083	-0.215617	-2.818945	-30.201114	-25.055857
48588		4.963507	-0.327126	8.533490	0.033637	0.086095	0.064322	0.008276	-0.004048	-0.016228	-0.325195	0.252197	-0.981201	0.049633	-0.003279	0.085336	0.940781	-0.079652	-0.249137	-0.215677	-2.812429	-30.207026	-25.064989
48589		4.956326	-0.446346	8.503851	-0.013407	-0.026051	0.040181	0.008896	-0.000443	-0.013925	-0.329346	0.247559	-0.979004	0.049563	-0.004471	0.085038	0.940762	-0.079623	-0.249176	-0.215726	-2.805982	-30.210910	-25.072841
48590		4.981554	-0.395488	8.557484	0.004572	0.023621	0.097017	0.007177	-0.004809	-0.012734	-0.329590	0.249756	-0.981201	0.049813	-0.003961	0.085576	0.940739	-0.079610	-0.249232	-0.215770	-2.801268	-30.217157	-25.079638
48591		4.891705	-0.496729	8.493891	-0.084412	-0.050534	0.001182	0.005948	-0.002850	-0.011379	-0.327148	0.247559	-0.983398	0.048916	-0.004973	0.084939	0.940718	-0.079601	-0.249278	-0.215810	-2.797395	-30.222346	-25.085728
48592		4.838788	-0.542025	8.616959	-0.201020	-0.040169	0.082646	0.009079	-0.010825	-0.018075	-0.322754	0.247803	-0.981201	0.048383	-0.005429	0.086172	0.940682	-0.079579	-0.249366	-0.215874	-2.789907	-30.232184	-25.095870
48593		5.016799	-0.476322	8.552975	-0.006978	-0.063368	0.114269	0.007903	-0.016531	-0.023009	-0.334229	0.251953	-0.983398	0.050160	-0.004772	0.085534	0.940633	-0.079561	-0.249482	-0.215961	-2.781254	-30.245526	-25.109225
48594		4.970078	-0.375542	8.583057	-0.014378	0.051621	0.112468	0.008474	-0.020165	-0.017581	-0.322754	0.250000	-0.983398	0.049692	-0.003763	0.085835	0.940585	-0.079552	-0.249614	-0.216019	-2.774424	-30.260691	-25.118744
48595		5.018394	-0.383756	8.569291	0.022640	0.023542	0.125282	0.007329	-0.028165	-0.010961	-0.331543	0.245361	-0.985596	0.050172	-0.003843	0.085700	0.940534	-0.079564	-0.249780	-0.216046	-2.770302	-30.280353	-25.123750
48596		4.957553	-0.413648	8.548026	-0.032340	0.014863	0.077506	0.000558	-0.031151	-0.012446	-0.324951	0.245605	-0.985596	0.049562	-0.004140	0.085488	0.940475	-0.079611	-0.249952	-0.216086	-2.769891	-30.301662	-25.129521
48597		4.908967	-0.469857	8.589412	-0.117124	-0.005160	0.090998	-0.001524	-0.038829	-0.012075	-0.320313	0.245605	-0.987793	0.049073	-0.004701	0.085904	0.940406	-0.079675	-0.250159	-0.216124	-2.770636	-30.327458	-25.134926
48598		4.979373	-0.426243	8.516747	-0.015081	-0.008961	0.062054	0.004383	-0.039748	-0.014373	-0.329346	0.245361	-0.985596	0.049776	-0.004268	0.085177	0.940335	-0.079711	-0.250376	-0.216165	-2.767522	-30.353738	-25.141702
48599		4.777373	-0.471372	8.553327	-0.213484	0.035622	-0.006667	0.005114	-0.042301	-0.018687	-0.331787	0.249756	-0.983398	0.047755	-0.004720	0.085543	0.940257	-0.079739	-0.250610	-0.216225	-2.762295	-30.381703	-25.151388
48600		4.707340	-0.665636	8.522219	-0.346648	-0.118890	-0.060967	0.006034	-0.055240	-0.027149	-0.331787	0.249756	-0.983398	0.047049	-0.006665	0.085235	0.940154	-0.079768	-0.250907	-0.216317	-2.754186	-30.417197	-25.166155
48601		4.670723	-0.545270	8.651904	-0.385114	0.037312	0.026962	0.008321	-0.072859	-0.034827	-0.333984	0.247559	-0.981201	0.046675	-0.005464	0.086536	0.940021	-0.079794	-0.251294	-0.216437	-2.742168	-30.463091	-25.185597
48602		4.908236	-0.478946	8.592590	-0.152894	-0.003764	0.093339	0.008039	-0.089578	-0.039132	-0.331787	0.247559	-0.981201	0.049043	-0.004803	0.085948	0.939862	-0.079835	-0.251759	-0.216570	-2.729396	-30.518550	-25.207261
48603		5.088797	-0.345190	8.552245	0.055599	0.042083	0.144774	0.000659	-0.099985	-0.031018	-0.331543	0.243164	-0.985596	0.050845	-0.003460	0.085548	0.939696	-0.079931	-0.252263	-0.216670	-2.723439	-30.579858	-25.223355
48604		5.073912	-0.371480	8.483500	0.052838	0.010264	0.079201	-0.006210	-0.096823	-0.025868	-0.333984	0.247559	-0.983398	0.050698	-0.003719	0.084860	0.939536	-0.080064	-0.252742	-0.216755	-2.723378	-30.639097	-25.236010
48605		5.155441	-0.452362	8.430677	0.094048	-0.101225	0.078744	-0.005496	-0.097448	-0.021097	-0.333984	0.247559	-0.985596	0.051513	-0.004527	0.084332	0.939381	-0.080199	-0.253223	-0.216817	-2.724233	-30.698683	-25.245607
48606		5.165786	-0.397549	8.485644	0.093353	-0.037111	0.129115	-0.008000	-0.095046	-0.018047	-0.343018	0.249512	-0.981201	0.051617	-0.003977	0.084881	0.939231	-0.080348	-0.253688	-0.216869	-2.727800	-30.756695	-25.253122
48607		5.085371	-0.334584	8.486078	0.049884	0.054043	0.085850	-0.015246	-0.102443	-0.010578	-0.340820	0.249512	-0.981201	0.050810	-0.003342	0.084887	0.939076	-0.080547	-0.254178	-0.216892	-2.737892	-30.818853	-25.255553
48608		5.163374	-0.349917	8.461184	0.105589	0.011625	0.105135	-0.021040	-0.105768	-0.005785	-0.338379	0.245117	-0.980957	0.051589	-0.003492	0.084639	0.938920	-0.080785	-0.254674	-0.216898	-2.753290	-30.882670	-25.254538
48609		5.213458	-0.326074	8.401237	0.173225	0.005661	0.078582	-0.026144	-0.096730	-0.002148	-0.336426	0.254150	-0.985596	0.052094	-0.003250	0.084038	0.938776	-0.081040	-0.255122	-0.216897	-2.772433	-30.941327	-25.251496
48610		5.297003	-0.365461	8.328023	0.245922	-0.072842	0.060609	-0.025695	-0.075489	0.001173	-0.340576	0.245117	-0.980957	0.052939	-0.003644	0.083301	0.938664	-0.081275	-0.255468	-0.216889	-2.792406	-30.987625	-25.246770
48611		5.306953	-0.402762	8.366081	0.214999	-0.094265	0.100040	-0.021606	-0.052448	0.006697	-0.343018	0.251709	-0.972412	0.053048	-0.004017	0.083675	0.938588	-0.081472	-0.255710	-0.216859	-2.811275	-31.020692	-25.239219
48612		5.261786	-0.449475	8.317030	0.177865	-0.128227	0.036847	-0.019417	-0.027250	-0.000594	-0.336182	0.249756	-0.981201	0.052607	-0.004487	0.083178	0.938537	-0.081624	-0.255837	-0.216870	-2.826247	-31.039441	-25.237222
48613		5.278771	-0.432446	8.358664	0.179225	-0.105833	0.080562	-0.011021	0.000777	0.000016	-0.343018	0.249512	-0.979004	0.052788	-0.004320	0.083587	0.938527	-0.081704	-0.255842	-0.216880	-2.835860	-31.042235	-25.235869
48614		5.241493	-0.291046	8.311524	0.236025	0.022485	0.014987	-0.008936	0.024891	0.002470	-0.340820	0.251953	-0.985596	0.052425	-0.002906	0.083109	0.938551	-0.081754	-0.255735	-0.216884	-2.844996	-31.031065	-25.233543
48615		5.302811	-0.229432	8.402676	0.274247	0.079570	0.121892	-0.014691	0.047173	0.016064	-0.345215	0.249512	-0.981201	0.053048	-0.002284	0.084014	0.938615	-0.081822	-0.255512	-0.216842	-2.861438	-31.006851	-25.223017
48616		5.221966	-0.296479	8.545893	0.123199	0.087995	0.205606	-0.026625	0.051711	0.018589	-0.336426	0.251953	-0.974609	0.052242	-0.002949	0.085446	0.938683	-0.081946	-0.255253	-0.216805	-2.885775	-30.979878	-25.210841
48617		5.288519	-0.325716	8.447822	0.210763	0.015069	0.157045	-0.071308	0.029048	0.016284	-0.343262	0.256104	-0.979004	0.052898	-0.003223	0.084472	0.938701	-0.082300	-0.255054	-0.216826	-2.935024	-30.966020	-25.199587
48618		5.197779	-0.349630	8.517187	0.105247	0.051197	0.170695	-0.089263	0.044462	0.015883	-0.343262	0.253906	-0.981201	0.051997	-0.003454	0.085162	0.938731	-0.082723	-0.254763	-0.216879	-2.994409	-30.943262	-25.189023
48619		5.375932	-0.562677	8.398211	0.208695	-0.228549	0.169867	-0.115316	0.055817	0.016052	-0.338623	0.254150	-0.979004	0.053783	-0.005574	0.083970	0.938765	-0.083254	-0.254390	-0.216968	-3.068279	-30.914074	-25.178908
48620		5.344393	-0.225242	8.514522	0.295621	0.123049	0.237577	-0.123560	0.082376	0.041828	-0.334229	0.256348	-0.979004	0.053479	-0.002189	0.085125	0.938856	-0.083829	-0.253872	-0.216958	-3.155441	-30.868802	-25.152495
48621		5.516702	-0.464651	8.408086	0.383334	-0.173166	0.245585	-0.132912	0.113884	0.068336	-0.331787	0.251953	-0.979004	0.055216	-0.004572	0.084052	0.939011	-0.084446	-0.253186	-0.216849	-3.256067	-30.804695	-25.109826
48622		5.156095	-0.231564	8.549815	0.163663	0.214193	0.170577	-0.147284	0.129903	0.109964	-0.336670	0.258545	-0.981445	0.051618	-0.002224	0.085466	0.939225	-0.085167	-0.252390	-0.216568	-3.378918	-30.729908	-25.040114
48623		5.129479	-0.714145	8.476778	-0.021966	-0.214866	0.118608	-0.142484	0.139609	0.135661	-0.329834	0.260986	-0.979248	0.051359	-0.007046	0.084737	0.939480	-0.085886	-0.251544	-0.216165	-3.507070	-30.648620	-24.954073
48624		5.093360	-0.474348	8.578915	0.034769	0.051217	0.175367	-0.140174	0.149795	0.155336	-0.334473	0.258545	-0.979248	0.051001	-0.004644	0.085754	0.939768	-0.086610	-0.250642	-0.215671	-3.640343	-30.560573	-24.855549
48625		5.225884	-0.483903	8.639401	0.131009	0.023560	0.295008	-0.152814	0.157184	0.171616	-0.330078	0.263184	-0.977051	0.052331	-0.004728	0.086357	0.940075	-0.087403	-0.249685	-0.215118	-3.785614	-30.467555	-24.747004
48626		5.218625	-0.641234	8.587857	0.101817	-0.113840	0.255734	-0.172400	0.157064	0.187363	-0.321289	0.270020	-0.977295	0.052260	-0.006289	0.085843	0.940390	-0.088310	-0.248700	-0.214516	-3.947302	-30.373685	-24.628286
48627		5.270972	-0.641057	8.727243	0.109351	-0.078703	0.402039	-0.174605	0.169143	0.207386	-0.328125	0.271973	-0.977295	0.052790	-0.006280	0.087233	0.940737	-0.089237	-0.247647	-0.213827	-4.116011	-30.271872	-24.497428
48628		4.892039	-0.673291	8.646243	-0.139939	0.021784	0.143353	-0.192022	0.194493	0.193918	-0.323486	0.270020	-0.979492	0.049011	-0.006602	0.086421	0.941091	-0.090203	-0.246461	-0.213234	-4.289391	-30.155744	-24.377083
48629		5.203312	-0.529167	8.689520	0.181598	0.066734	0.327564	-0.204585	0.215744	0.193185	-0.314697	0.276855	-0.972900	0.052132	-0.005152	0.086844	0.941462	-0.091204	-0.245161	-0.212668	-4.468425	-30.027247	-24.258980
48630		4.977942	-0.579239	8.726636	-0.000986	0.127715	0.249776	-0.220144	0.245496	0.178604	-0.319336	0.276611	-0.977295	0.049892	-0.005652	0.087211	0.941843	-0.092229	-0.243710	-0.212203	-4.650489	-29.882041	-24.152566
48631		4.863493	-0.907067	8.639982	-0.165996	-0.134213	0.141203	-0.220026	0.259658	0.171088	-0.310303	0.279053	-0.981934	0.048755	-0.008934	0.086346	0.942231	-0.093227	-0.242196	-0.211780	-4.828808	-29.728875	-24.052674
48632		4.584181	-0.760754	8.617796	-0.278639	0.101561	-0.026380	-0.201546	0.262802	0.155115	-0.314941	0.281250	-0.975342	0.045961	-0.007485	0.086125	0.942611	-0.094118	-0.240692	-0.211409	-4.990946	-29.574378	-23.964012
48633		4.558979	-0.806776	8.637297	-0.294671	0.085772	-0.017597	-0.193658	0.240713	0.134674	-0.308350	0.285889	-0.979980	0.045699	-0.007953	0.086326	0.942943	-0.094968	-0.239311	-0.211115	-5.141841	-29.433375	-23.888201
48634		4.634606	-0.774897	8.674141	-0.205076	0.108973	0.049703	-0.196761	0.222828	0.122912	-0.303955	0.288086	-0.979980	0.046447	-0.007635	0.086697	0.943238	-0.095838	-0.238014	-0.210870	-5.291100	-29.302944	-23.819434
48635		4.525806	-0.784358	8.626056	-0.248031	0.136539	-0.044026	-0.190598	0.205495	0.109647	-0.297119	0.286133	-0.979980	0.045351	-0.007737	0.086221	0.943499	-0.096680	-0.236813	-0.210673	-5.432501	-29.183033	-23.758852
48636		4.702642	-0.816080	8.597988	-0.082562	0.049664	0.020769	-0.200908	0.193276	0.099379	-0.297607	0.294922	-0.980225	0.047114	-0.008051	0.085943	0.943727	-0.097574	-0.235662	-0.210529	-5.576864	-29.070441	-23.704506
48637		4.389098	-1.037501	8.425761	-0.337047	-0.075134	-0.262047	-0.185896	0.180754	0.090171	-0.290771	0.292725	-0.975586	0.043972	-0.010277	0.084227	0.943936	-0.098396	-0.234590	-0.210404	-5.709585	-28.965475	-23.655836
48638		4.551397	-0.993741	8.566724	-0.221824	-0.042639	-0.063819	-0.163086	0.154387	0.077738	-0.295410	0.299316	-0.982422	0.045584	-0.009850	0.085640	0.944111	-0.099126	-0.233672	-0.210298	-5.826193	-28.876075	-23.613725
48639		4.578564	-1.087645	8.395842	-0.153219	-0.175718	-0.190734	-0.147758	0.152208	0.064939	-0.288818	0.299561	-0.982422	0.045853	-0.010800	0.083932	0.944276	-0.099769	-0.232787	-0.210234	-5.929650	-28.788687	-23.580137
48640		4.236323	-1.155719	8.367971	-0.429336	-0.117423	-0.373041	-0.114811	0.134468	0.052543	-0.293213	0.299316	-0.982422	0.042423	-0.011498	0.083658	0.944424	-0.100262	-0.232026	-0.210180	-6.011063	-28.712006	-23.553476
48641		4.403796	-1.133910	8.436927	-0.297943	-0.131992	-0.233820	-0.087494	0.107179	0.028593	-0.284424	0.303955	-0.978271	0.044085	-0.011296	0.084351	0.944527	-0.100625	-0.231435	-0.210194	-6.069912	-28.652382	-23.540730
48642		4.302329	-1.113021	8.351927	-0.325911	-0.098908	-0.358190	-0.059453	0.081159	0.020030	-0.284180	0.299561	-0.978027	0.043058	-0.011101	0.083505	0.944605	-0.100875	-0.230999	-0.210203	-6.111121	-28.607990	-23.531692
48643		4.432485	-1.002140	8.484195	-0.216559	-0.004738	-0.190533	-0.049942	0.047077	0.018762	-0.291016	0.301758	-0.980225	0.044346	-0.009996	0.084834	0.944647	-0.101112	-0.230736	-0.210190	-6.147333	-28.583189	-23.521253
48644		4.417237	-0.999795	8.432587	-0.202698	-0.009401	-0.243000	-0.034591	0.030421	0.003961	-0.286621	0.301758	-0.984863	0.044185	-0.009982	0.084321	0.944662	-0.101280	-0.230574	-0.210220	-6.170977	-28.568672	-23.519150
48645		4.417625	-1.039194	8.473219	-0.233655	-0.030744	-0.203565	-0.019595	0.003918	0.003628	-0.289063	0.306152	-0.982666	0.044178	-0.010383	0.084732	0.944653	-0.101402	-0.230555	-0.210221	-6.186539	-28.569381	-23.515524
48646		4.490198	-0.952852	8.580066	-0.178935	0.053953	-0.083740	-0.015358	-0.014391	0.000149	-0.282227	0.304199	-0.978271	0.044896	-0.009522	0.085805	0.944622	-0.101521	-0.230627	-0.210225	-6.199488	-28.580617	-23.512748
48647		4.596448	-0.980998	8.608637	-0.118768	0.002545	-0.005333	-0.011924	-0.027487	-0.001043	-0.293213	0.299316	-0.978027	0.045953	-0.009805	0.086093	0.944576	-0.101635	-0.230766	-0.210223	-6.210267	-28.599503	-23.509936
48648		4.465096	-1.045807	8.539102	-0.229128	-0.026772	-0.122804	-0.001915	-0.041189	-0.010924	-0.297607	0.297119	-0.980225	0.044633	-0.010460	0.085400	0.944509	-0.101706	-0.230984	-0.210250	-6.212984	-28.626684	-23.512448
48649		4.591172	-1.033397	8.601130	-0.151611	-0.039891	-0.009544	0.008625	-0.057140	-0.015744	-0.293213	0.301758	-0.978027	0.045886	-0.010341	0.086024	0.944424	-0.101736	-0.231293	-0.210279	-6.208423	-28.663371	-23.517079
48650		4.655707	-0.989104	8.590247	-0.082294	-0.024085	0.007645	0.008618	-0.068915	-0.019837	-0.293457	0.303955	-0.982666	0.046526	-0.009899	0.085918	0.944321	-0.101777	-0.231657	-0.210321	-6.203265	-28.706892	-23.523424
48651		4.224533	-1.088004	8.470668	-0.434091	0.006100	-0.294590	0.021115	-0.089253	-0.030412	-0.295654	0.303711	-0.982666	0.042206	-0.010895	0.084724	0.944189	-0.101765	-0.232138	-0.210389	-6.188043	-28.762777	-23.535334
48652		4.679492	-1.122590	8.631005	-0.158647	-0.135764	0.067013	0.033759	-0.122623	-0.043294	-0.295654	0.303711	-0.982666	0.046740	-0.011251	0.086337	0.944011	-0.101716	-0.232794	-0.210485	-6.162930	-28.838326	-23.553182
48653		4.767470	-0.917187	8.553467	0.020816	-0.004828	0.022521	0.036400	-0.114935	-0.051398	-0.286621	0.303955	-0.980469	0.047623	-0.009200	0.085560	0.943834	-0.101635	-0.233422	-0.210621	-6.133168	-28.910120	-23.577013
48654		4.397850	-1.088805	8.523975	-0.354181	-0.036426	-0.166033	0.049418	-0.126220	-0.063746	-0.297607	0.299316	-0.975830	0.043921	-0.010923	0.085265	0.943638	-0.101491	-0.234122	-0.210794	-6.092664	-28.988948	-23.608043
48655		4.796407	-1.094491	8.529088	-0.055049	-0.180069	0.031767	0.061133	-0.141360	-0.072037	-0.295410	0.299316	-0.980225	0.047900	-0.010988	0.085321	0.943420	-0.101297	-0.234912	-0.210984	-6.042961	-29.077018	-23.643644
48656		4.313235	-1.030813	8.453332	-0.400226	0.022491	-0.275147	0.076266	-0.142242	-0.086656	-0.299805	0.297119	-0.971191	0.043068	-0.010359	0.084560	0.943193	-0.101017	-0.235727	-0.211225	-5.980158	-29.166300	-23.688725
48657		4.912772	-1.086729	8.572929	-0.013008	-0.205420	0.125573	0.084783	-0.167604	-0.100417	-0.299561	0.292725	-0.977783	0.049050	-0.010928	0.085766	0.942924	-0.100705	-0.236679	-0.211508	-5.908492	-29.270942	-23.741355
48658		4.732498	-0.945641	8.503058	-0.086111	-0.040395	-0.035996	0.101829	-0.150341	-0.101453	-0.304199	0.292480	-0.968994	0.047256	-0.009524	0.085061	0.942683	-0.100296	-0.237566	-0.211784	-5.826275	-29.365602	-23.795906
48659		4.632148	-0.994897	8.505346	-0.209808	-0.053491	-0.079209	0.116081	-0.163593	-0.115194	-0.313232	0.294678	-0.977783	0.046246	-0.010025	0.085085	0.942417	-0.099815	-0.238539	-0.212101	-5.731416	-29.468677	-23.858921
48660		4.867563	-1.000480	8.567743	-0.072654	-0.129428	0.090760	0.123719	-0.169210	-0.124684	-0.308594	0.290283	-0.977783	0.048597	-0.010088	0.085712	0.942137	-0.099294	-0.239549	-0.212450	-5.629369	-29.575254	-23.927926
48661		4.754402	-0.893145	8.489179	-0.105595	-0.023982	-0.042506	0.136659	-0.165984	-0.135083	-0.310791	0.287842	-0.973145	0.047467	-0.009022	0.084925	0.941854	-0.098694	-0.240565	-0.212834	-5.515868	-29.680601	-24.004393
48662		4.623601	-1.022895	8.535496	-0.310862	-0.088477	-0.056963	0.152304	-0.178181	-0.150808	-0.310791	0.290283	-0.973389	0.046152	-0.010329	0.085388	0.941547	-0.098017	-0.241660	-0.213267	-5.388673	-29.793475	-24.090630
48663		4.702777	-1.024855	8.488172	-0.256026	-0.141803	-0.059238	0.168617	-0.194382	-0.170584	-0.317383	0.287842	-0.973145	0.046936	-0.010360	0.084919	0.941204	-0.097254	-0.242859	-0.213765	-5.245483	-29.916610	-24.189425
48664		4.774413	-0.943760	8.439576	-0.171759	-0.120476	-0.072665	0.190115	-0.209031	-0.188287	-0.324219	0.289795	-0.970947	0.047647	-0.009563	0.084437	0.940833	-0.096385	-0.244157	-0.214313	-5.084460	-30.048638	-24.299376
48665		4.820960	-0.959008	8.465385	-0.184099	-0.156103	-0.026690	0.202684	-0.222483	-0.203287	-0.319336	0.276611	-0.972900	0.048106	-0.009725	0.084698	0.940433	-0.095452	-0.245540	-0.214908	-4.910813	-30.188965	-24.419184
48666		4.813759	-0.882206	8.502434	-0.204295	-0.088364	-0.004921	0.213607	-0.238824	-0.217457	-0.332764	0.278564	-0.977295	0.048026	-0.008965	0.085072	0.939999	-0.094468	-0.247015	-0.215548	-4.726365	-30.338827	-24.547988
48667		4.832749	-0.786931	8.522687	-0.190147	-0.018567	0.014534	0.210589	-0.249232	-0.222757	-0.328125	0.274170	-0.975098	0.048212	-0.008013	0.085279	0.939542	-0.093502	-0.248539	-0.216212	-4.541144	-30.494671	-24.680650
48668		4.852476	-0.691435	8.542013	-0.175955	0.051266	0.033981	0.211093	-0.260922	-0.225176	-0.332520	0.271973	-0.972900	0.048405	-0.007059	0.085476	0.939064	-0.092544	-0.250117	-0.216879	-4.354730	-30.656771	-24.814969
48669		4.755390	-0.848162	8.511014	-0.346365	-0.074796	-0.032872	0.201127	-0.261576	-0.239212	-0.341309	0.267334	-0.974854	0.047432	-0.008624	0.085164	0.938561	-0.091614	-0.251695	-0.217624	-4.168184	-30.819622	-24.959573
48670		4.752098	-0.849675	8.606779	-0.428744	-0.061859	0.045975	0.226331	-0.266929	-0.248345	-0.341309	0.265137	-0.970459	0.047395	-0.008653	0.086121	0.938049	-0.090561	-0.253327	-0.218376	-3.963726	-30.985315	-25.110751
48671		4.840709	-0.532815	8.705927	-0.298817	0.199651	0.156275	0.236605	-0.284221	-0.266909	-0.347900	0.262695	-0.977051	0.048276	-0.005496	0.087122	0.937495	-0.089453	-0.255059	-0.219194	-3.746156	-31.161292	-25.274675
48672		4.605620	-0.489395	8.674109	-0.488641	0.300092	0.003749	0.219418	-0.303477	-0.288579	-0.343506	0.260742	-0.972412	0.045917	-0.005055	0.086805	0.936880	-0.088421	-0.256870	-0.220125	-3.530670	-31.348362	-25.453213
48673		4.429437	-0.661258	8.711236	-0.764302	0.209496	-0.049769	0.213522	-0.357606	-0.314278	-0.354492	0.256104	-0.974609	0.044128	-0.006775	0.087184	0.936159	-0.087440	-0.258939	-0.221159	-3.309181	-31.566859	-25.648187
48674		4.394101	-0.506970	8.895152	-0.854289	0.400367	0.076625	0.221359	-0.452403	-0.317812	-0.356445	0.249268	-0.967773	0.043731	-0.005238	0.089045	0.935307	-0.086525	-0.261459	-0.222156	-3.082662	-31.838852	-25.843340
48675		4.427952	-0.098367	9.111178	-0.797854	0.804869	0.254352	0.197998	-0.552180	-0.308703	-0.365723	0.255859	-0.969971	0.044026	-0.001142	0.091232	0.934316	-0.085838	-0.264414	-0.223096	-2.872440	-32.167224	-26.030859
48676		4.756671	-0.845026	9.174522	-0.994878	0.042531	0.508150	0.173746	-0.723417	-0.299904	-0.374512	0.249023	-0.967773	0.047222	-0.008601	0.091909	0.933085	-0.085468	-0.268132	-0.223950	-2.680472	-32.592563	-26.208777
48677		4.553549	-0.382829	9.229332	-1.049548	0.554315	0.417283	0.205769	-0.910461	-0.303244	-0.383301	0.244385	-0.969727	0.045109	-0.003992	0.092495	0.931593	-0.085150	-0.272758	-0.224692	-2.468949	-33.124741	-26.386129
48678		4.457309	-0.459778	9.224412	-1.261362	0.540462	0.350211	0.192560	-1.092264	-0.299591	-0.401367	0.248291	-0.963135	0.044061	-0.004753	0.092481	0.929827	-0.085102	-0.278203	-0.225351	-2.266135	-33.760108	-26.559149
48679		4.606401	-0.703464	9.279109	-1.413359	0.315287	0.469194	0.167785	-1.283672	-0.318320	-0.414307	0.237061	-0.956055	0.045456	-0.007185	0.093078	0.927725	-0.085354	-0.284510	-0.226042	-2.068679	-34.505222	-26.744353
48680		4.927557	-0.661770	9.301135	-1.312761	0.279280	0.648015	0.182090	-1.507187	-0.354247	-0.425537	0.232422	-0.953613	0.048561	-0.006789	0.093373	0.925223	-0.085738	-0.291867	-0.226772	-1.846986	-35.378165	-26.954280
48681		4.787521	-1.025715	9.337444	-1.772706	0.067433	0.580111	0.237270	-1.743190	-0.396558	-0.450195	0.231934	-0.940186	0.047038	-0.010462	0.093775	0.922285	-0.086065	-0.300379	-0.227500	-1.571695	-36.386534	-27.196442
48682		4.787949	-0.627960	9.313194	-1.766355	0.463658	0.517630	0.291643	-2.005754	-0.437481	-0.474609	0.226807	-0.937744	0.046928	-0.006519	0.093596	0.918843	-0.086372	-0.310149	-0.228199	-1.241046	-37.544470	-27.473199
48683		5.293107	-0.649002	9.330975	-1.652718	0.326490	0.801549	0.314823	-2.251668	-0.480212	-0.490234	0.219971	-0.922119	0.051860	-0.006763	0.093887	0.914868	-0.086774	-0.321060	-0.228926	-0.866331	-38.842699	-27.791668
48684		5.320723	-0.917222	9.322459	-2.007833	0.142860	0.770385	0.443538	-2.479466	-0.529418	-0.518799	0.208252	-0.919434	0.052021	-0.009519	0.093854	0.910391	-0.086759	-0.333128	-0.229537	-0.378297	-40.269424	-28.163469
48685		5.355518	-0.705785	9.325008	-2.163521	0.383626	0.737182	0.522684	-2.725743	-0.558709	-0.554688	0.203125	-0.903564	0.052257	-0.007450	0.093949	0.905335	-0.086599	-0.346364	-0.230002	0.194330	-41.834969	-28.583277
48686		5.136871	-0.482174	9.420564	-2.560052	0.758216	0.590624	0.635533	-2.994985	-0.579871	-0.576904	0.195801	-0.892334	0.049936	-0.005269	0.094944	0.899638	-0.086184	-0.360876	-0.230198	0.875783	-43.550637	-29.055462
48687		5.654938	-0.713559	9.713761	-2.862269	0.542310	1.065982	0.724580	-3.305644	-0.624209	-0.614746	0.186279	-0.874023	0.054911	-0.007663	0.098027	0.893124	-0.085620	-0.376814	-0.230238	1.680305	-45.439512	-29.614608
48688		5.436652	-1.275195	9.013381	-3.191092	-0.026645	0.298050	0.860061	-3.642164	-0.734207	-0.649902	0.169922	-0.846924	0.052666	-0.013338	0.091047	0.885614	-0.084606	-0.394328	-0.230293	2.695547	-47.511545	-30.339023
48689		5.687532	-1.747605	9.226986	-3.816735	-0.384050	0.473528	1.063455	-4.044169	-0.919938	-0.687500	0.153564	-0.833008	0.054913	-0.018226	0.093298	0.876817	-0.082751	-0.413777	-0.230505	4.054522	-49.797044	-31.340727
48690		5.784951	-2.365419	9.695883	-4.842838	-0.730068	0.630484	1.184961	-4.503893	-1.131747	-0.727295	0.135010	-0.799316	0.055512	-0.024552	0.098083	0.866425	-0.080415	-0.435249	-0.231084	5.803240	-52.315207	-32.719517
48691		5.963844	-2.498919	9.843366	-5.448762	-0.783120	0.597304	1.403124	-5.057439	-1.403585	-0.780273	0.111572	-0.760742	0.056947	-0.026092	0.099716	0.854030	-0.077126	-0.459199	-0.231992	8.171204	-55.097279	-34.662382
48692		6.996709	-2.965836	10.863196	-6.573468	-1.099082	1.645370	1.534097	-5.655839	-1.664109	-0.819580	0.083984	-0.722168	0.066608	-0.031064	0.110313	0.839302	-0.073313	-0.485566	-0.233287	11.304470	-58.133299	-37.364413
48693		8.494697	-2.208689	12.848154	-7.926923	-0.104737	3.573125	1.390083	-6.112055	-1.858780	-0.867920	0.060791	-0.674805	0.080757	-0.023755	0.130831	0.822345	-0.070087	-0.513271	-0.235348	15.252133	-61.301899	-41.014530
48694		9.387903	-3.626594	10.898043	-7.543705	-2.174506	2.770222	1.140306	-6.491006	-2.101772	-0.918457	0.028564	-0.618408	0.089890	-0.037857	0.111729	0.803116	-0.067636	-0.541735	-0.238650	20.365528	-64.479917	-46.025699
48695		15.696636	-0.562204	14.029280	-8.026061	-0.109473	9.652503	1.284273	-6.794400	-2.444180	-0.968994	0.005127	-0.559814	0.151991	-0.008423	0.145465	0.781679	-0.063951	-0.571023	-0.242530	27.523064	-67.478173	-53.054909
48696		13.951606	-1.282064	13.426653	-9.523385	-0.233380	7.088932	0.876746	-6.440102	-2.593006	-1.001709	-0.020264	-0.501465	0.134912	-0.015191	0.138598	0.759945	-0.060927	-0.597737	-0.247956	36.248461	-69.835854	-61.882543
48697		17.006194	-7.101771	15.565039	-14.780932	-5.196519	8.522896	1.084517	-6.411501	-2.901265	-1.031494	-0.060791	-0.444824	0.163904	-0.074287	0.160574	0.737022	-0.056076	-0.623959	-0.253632	47.396996	-71.475533	-73.037054
48698		17.340695	-9.715170	14.357168	-16.094273	-7.937258	6.889593	1.594789	-5.794396	-3.211245	-1.052246	-0.103760	-0.388428	0.167566	-0.101041	0.147688	0.714889	-0.047534	-0.647871	-0.258723	59.727931	-71.972486	-85.059552
48699		15.502168	-10.511228	17.114879	-19.970228	-7.027021	4.163815	2.260192	-4.785085	-3.040082	-1.071045	-0.139648	-0.354248	0.149247	-0.109363	0.173546	0.695646	-0.035807	-0.668330	-0.261017	70.807459	-71.538081	-95.361594
48700		24.959124	-9.974893	32.331972	-34.672009	-3.642835	13.687129	1.377354	-2.635266	-1.315718	-1.075439	-0.146484	-0.345215	0.244635	-0.103608	0.325860	0.685274	-0.030094	-0.679440	-0.260490	76.529354	-71.241693	-100.569880
48701		5.951034	-22.596786	22.626692	-30.039043	-12.474236	-9.602306	0.557738	-0.799023	0.475262	-1.076172	-0.128662	-0.350098	0.059145	-0.226457	0.225873	0.683234	-0.030866	-0.682836	-0.256851	78.005503	-71.609935	-101.792755
48702		9.279137	-20.893364	21.202641	-28.164244	-12.798111	-5.920188	1.320678	0.118203	1.610803	-1.078857	-0.115479	-0.367920	0.094602	-0.209570	0.210588	0.685876	-0.031745	-0.683836	-0.246849	77.959801	-72.501729	-100.953594
48703		0.966632	-12.311326	19.953401	-23.136563	-3.714478	-11.040120	1.573235	1.360098	2.351641	-1.064209	-0.086182	-0.402100	0.012477	-0.124542	0.198480	0.693576	-0.032736	-0.680670	-0.233600	75.355539	-73.635214	-97.292039
48704		-3.918797	-5.585191	18.130590	-18.826624	2.530826	-13.606969	0.973893	1.818562	2.744575	-1.054443	-0.050293	-0.434082	-0.036760	-0.057251	0.181371	0.703035	-0.036618	-0.674940	-0.221035	70.747210	-74.840354	-91.928840
48705		-4.194475	-3.961851	16.782842	-17.110074	3.293530	-13.178857	0.147046	2.121450	2.840895	-1.037842	-0.016357	-0.477051	-0.039592	-0.040316	0.168227	0.713232	-0.043365	-0.667035	-0.210915	64.147045	-75.881448	-85.023646
48706		-2.565931	-4.196650	15.961537	-16.487043	2.235055	-11.270674	-0.273467	2.532059	2.674800	-1.007568	0.017578	-0.511230	-0.023073	-0.042068	0.159976	0.724326	-0.050630	-0.657007	-0.202805	55.740001	-76.485581	-76.533029
48707		-1.379610	-3.639355	14.945151	-15.307850	2.028490	-9.622602	-0.345084	3.035353	2.381980	-0.964111	0.049561	-0.554199	-0.011093	-0.036278	0.149696	0.736471	-0.056645	-0.644955	-0.196050	46.349970	-76.456234	-67.082237
48708		-0.334413	-2.059175	13.982575	-13.721115	2.853915	-7.961515	-0.363908	3.494341	2.108746	-0.927002	0.077148	-0.601563	-0.000685	-0.020354	0.139890	0.749560	-0.061395	-0.630979	-0.190410	37.076135	-75.764643	-57.749928
48709		0.861251	-1.022435	13.007704	-12.192785	3.179572	-6.321223	-0.464878	3.883985	1.894657	-0.880371	0.091553	-0.635498	0.011231	-0.009824	0.129899	0.763279	-0.065430	-0.615268	-0.185929	28.816089	-74.487604	-49.483303
48710		2.418538	-0.719799	12.122147	-10.818122	2.812039	-4.488205	-0.585748	4.195535	1.713683	-0.822510	0.108154	-0.665039	0.026780	-0.006622	0.120698	0.777401	-0.069067	-0.597967	-0.182518	21.937995	-72.733126	-42.670093
48711		4.014285	-0.691343	11.454887	-9.573426	2.269166	-2.672619	-0.678715	4.440961	1.590507	-0.764648	0.118408	-0.689941	0.042724	-0.006194	0.113641	0.791657	-0.072416	-0.579387	-0.179852	16.419531	-70.630427	-37.270812
48712		5.910180	-0.788568	11.093022	-8.386695	1.674140	-0.569540	-0.730837	4.668849	1.572507	-0.706543	0.126221	-0.708008	0.061727	-0.007005	0.109536	0.805863	-0.076462	-0.559386	-0.178397	11.894448	-68.257461	-33.042491
48713		6.978054	-1.092374	10.586867	-7.229146	0.977857	0.613979	-0.704550	4.889502	1.642473	-0.654785	0.125000	-0.721680	0.072426	-0.009967	0.104156	0.820444	-0.079535	-0.538259	-0.175562	8.159864	-65.664823	-29.426921
48714		7.210544	-1.058785	10.050095	-6.116509	0.759944	0.961903	-0.615163	5.026015	1.761718	-0.612061	0.128174	-0.730713	0.074688	-0.009632	0.098676	0.834847	-0.082857	-0.516118	-0.172591	5.016342	-62.918499	-26.431133
48715		7.591306	-0.648620	9.766715	-4.982233	0.931273	1.488215	-0.530671	5.088435	1.908666	-0.576416	0.131104	-0.737793	0.078420	-0.005490	0.095709	0.849078	-0.085604	-0.493459	-0.168039	2.352352	-60.081971	-23.749765
48716		8.101516	-0.475695	9.764380	-4.051772	0.958546	2.180175	-0.472018	5.114647	2.065526	-0.556152	0.131348	-0.744385	0.083518	-0.003676	0.095539	0.862842	-0.088652	-0.470209	-0.162938	0.025931	-57.174011	-21.401643
48717		8.246063	-0.409170	9.643943	-3.201906	0.929209	2.435390	-0.368402	5.108662	2.203856	-0.538574	0.138428	-0.764648	0.084925	-0.002990	0.094297	0.876134	-0.091254	-0.446733	-0.156499	-1.968085	-54.228789	-19.247430
48718		8.123984	0.086844	9.818945	-2.559435	1.450805	2.585893	-0.258969	5.047106	2.271125	-0.522949	0.141113	-0.798096	0.083665	0.001935	0.096096	0.888699	-0.093650	-0.423157	-0.149603	-3.651497	-51.273412	-17.358185
48719		8.034828	0.410170	10.144810	-2.079519	1.848927	2.831052	-0.188698	4.948183	2.258955	-0.503418	0.159424	-0.838623	0.082771	0.005122	0.099416	0.900427	-0.095560	-0.399839	-0.142226	-5.037667	-48.351344	-15.689238
48720		8.088323	0.448754	10.527686	-1.642766	1.966688	3.220036	-0.108266	4.810189	2.164812	-0.472412	0.171143	-0.881104	0.083328	0.005437	0.103289	0.911228	-0.096965	-0.376899	-0.134942	-6.140417	-45.483644	-14.271360
48721		7.715492	0.638118	10.954601	-1.481217	2.302084	3.317922	-0.015707	4.612602	1.998533	-0.437256	0.187500	-0.926025	0.079585	0.007177	0.107729	0.920961	-0.097688	-0.354809	-0.128059	-6.963910	-42.730448	-13.105219
48722		6.904101	0.989590	11.322885	-1.593218	2.833297	3.081528	0.026543	4.302463	1.784226	-0.386230	0.201904	-0.959961	0.071363	0.010511	0.111712	0.929508	-0.097991	-0.334011	-0.121859	-7.575285	-40.151698	-12.165756
48723		6.906139	1.350255	11.928711	-1.308350	3.299904	3.573429	-0.044966	3.836341	1.553434	-0.332764	0.216553	-0.989258	0.071224	0.014077	0.117932	0.936629	-0.098463	-0.315346	-0.116565	-8.076639	-37.855991	-11.414404
48724		8.920224	1.031518	13.169835	-0.012315	2.984716	5.844451	-0.186249	3.336314	1.347984	-0.281738	0.233154	-1.000977	0.091310	0.011048	0.130177	0.942440	-0.099540	-0.298860	-0.112165	-8.554866	-35.848615	-10.802538
48725		14.492672	0.152359	15.101862	3.735778	1.799203	10.703097	-0.269217	3.004717	1.149153	-0.237061	0.240723	-1.014648	0.147161	0.002566	0.148816	0.947308	-0.100855	-0.283964	-0.108629	-8.984153	-34.049862	-10.327055
48726		23.684746	0.471463	17.038384	11.077260	1.241160	17.153510	-0.248564	3.094050	0.992857	-0.190186	0.245850	-1.012939	0.239417	0.006108	0.166686	0.951996	-0.101785	-0.268598	-0.105820	-9.314568	-32.204993	-9.991023
48727		34.788354	2.170478	18.272395	21.244881	1.482053	23.279327	-0.226002	3.850094	0.785714	-0.127441	0.249512	-1.020020	0.351225	0.023282	0.175958	0.957274	-0.101887	-0.249725	-0.104317	-9.498011	-29.958211	-9.891619
48728		41.953952	6.575952	16.504403	30.820345	3.932268	23.502890	-0.454490	5.286890	0.643024	-0.058105	0.259521	-1.009277	0.423488	0.067475	0.153731	0.963594	-0.102229	-0.223694	-0.104867	-9.690211	-26.906815	-10.098695
48729		39.923214	9.948006	9.193277	34.578314	5.312983	13.698478	-1.056901	6.697778	0.668962	0.018066	0.270020	-1.000977	0.401663	0.101258	0.077975	0.970328	-0.104525	-0.190429	-0.106182	-10.166889	-23.063724	-10.410365
48730		34.166679	9.350547	-1.058815	33.975977	2.774700	-0.155026	-1.492126	7.262307	0.780222	0.102783	0.287109	-0.981934	0.340598	0.094692	-0.023674	0.976143	-0.108722	-0.153793	-0.108040	-10.907006	-18.889265	-10.811951
48731		27.336960	1.573553	-12.554239	29.095440	-6.590721	-13.940515	-1.160547	6.968675	0.524465	0.167725	0.292725	-0.962402	0.268733	0.015679	-0.135052	0.980535	-0.110984	-0.118804	-0.110085	-11.429841	-14.916938	-11.310319
48732		22.875031	1.318139	-18.769254	25.512291	-7.791930	-22.676261	-0.011266	5.575679	-0.481290	0.214844	0.300293	-0.953857	0.223431	0.012629	-0.193972	0.983123	-0.107757	-0.091615	-0.116039	-11.230575	-11.838081	-12.295008
48733		27.697342	14.399173	-18.498679	32.687108	3.357834	-25.201429	-0.343256	3.910835	-1.023339	0.243408	0.314209	-0.936523	0.274014	0.142261	-0.190610	0.983930	-0.106711	-0.072751	-0.123299	-11.237232	-9.757461	-13.323148
48734		27.630554	9.053616	-22.256613	31.176678	-3.154472	-28.752790	-1.561554	2.459218	-1.126629	0.254150	0.332031	-0.930420	0.274033	0.087229	-0.226635	0.983123	-0.112532	-0.060239	-0.131059	-11.991213	-8.507652	-14.291352
48735		24.301562	-6.385902	-35.667966	24.578498	-20.537648	-39.437626	0.249164	0.316481	-1.786423	0.240967	0.322998	-0.927734	0.241870	-0.065578	-0.357144	0.982144	-0.110584	-0.059873	-0.139927	-11.695557	-8.543255	-15.340247
48736		28.726620	8.780444	-38.055510	33.867658	-7.984088	-43.569172	2.871286	-3.005642	-1.796614	0.194580	0.299805	-0.936035	0.293734	0.090594	-0.374886	0.981298	-0.098078	-0.077610	-0.146327	-9.940570	-10.429237	-16.052958
48737		10.725152	15.076539	0.993937	14.468668	11.548712	-9.074797	1.589146	-5.572347	0.293214	0.147705	0.290039	-0.953369	0.106676	0.150821	0.014116	0.979713	-0.094458	-0.105957	-0.141469	-9.180609	-13.552783	-15.340004
48738		16.365235	0.089795	39.803161	7.186867	4.611361	32.363881	1.045141	-4.655186	0.741170	0.109863	0.278320	-0.959473	0.154331	-0.000611	0.401696	0.977953	-0.093063	-0.129117	-0.135192	-8.808577	-16.123120	-14.491275
48739		8.249252	20.370947	8.547101	11.411908	19.161586	-2.154545	1.136713	-4.148155	-0.656089	0.058594	0.270752	-0.963623	0.081347	0.202945	0.088321	0.975124	-0.089890	-0.150466	-0.135695	-8.153629	-18.532370	-14.512001
48740		18.786205	5.627729	14.976919	14.393456	4.178943	9.787210	0.273797	-4.774504	-0.907909	0.013916	0.263184	-0.965332	0.184467	0.055226	0.154276	0.970730	-0.091141	-0.174298	-0.137827	-7.953390	-21.316257	-14.662862
48741		26.007275	-6.459529	19.370280	14.939083	-7.791233	18.635837	0.360220	-3.539186	-0.510592	-0.022461	0.271240	-0.967529	0.256426	-0.065607	0.198145	0.967295	-0.091400	-0.191951	-0.138349	-7.744891	-23.368125	-14.675215
48742		16.881632	-8.379257	12.336861	7.924668	-8.982458	9.263138	0.887466	-2.909933	-0.155725	-0.048828	0.257568	-0.967285	0.166936	-0.084477	0.125433	0.964668	-0.089017	-0.206700	-0.136988	-7.299149	-25.035684	-14.541910
48743		15.298142	1.785164	13.736361	8.581643	1.323075	8.908712	1.251680	-2.197685	-0.226027	-0.066406	0.248291	-0.966797	0.151478	0.016813	0.139141	0.962715	-0.084272	-0.218265	-0.135789	-6.596669	-26.304410	-14.513985
48744		8.647267	5.210848	10.434371	4.780970	5.295215	2.832479	0.939965	-1.770731	-0.298021	-0.086182	0.236816	-0.973145	0.085620	0.051487	0.105347	0.960905	-0.080681	-0.227557	-0.135535	-6.033346	-27.334945	-14.588711
48745		11.363633	-0.193178	11.110464	4.988246	-0.337582	5.274092	0.686386	-1.284906	-0.274106	-0.097168	0.227539	-0.968506	0.112916	-0.002470	0.111824	0.959501	-0.077968	-0.234323	-0.135543	-5.600510	-28.086428	-14.679399
48746		10.004698	-0.350660	10.460576	3.890611	-0.364776	4.128947	0.626774	-0.737693	-0.182689	-0.099365	0.225342	-0.970703	0.099657	-0.003926	0.104962	0.958723	-0.075308	-0.238374	-0.135487	-5.211229	-28.520619	-14.762187
48747		6.383317	2.196387	10.121907	1.619575	2.759768	1.925457	0.435454	-0.437838	-0.158566	-0.105957	0.218506	-0.972656	0.063629	0.021693	0.101406	0.958246	-0.073355	-0.240850	-0.135557	-4.927719	-28.781707	-14.838569
48748		5.589575	0.499261	9.547570	0.640575	1.180347	1.180261	0.222277	-0.406243	-0.110636	-0.110352	0.216309	-0.970459	0.055704	0.004856	0.095594	0.957737	-0.072495	-0.243005	-0.135767	-4.780840	-29.022661	-14.898622
48749		4.767996	-0.732326	9.185936	-0.303086	0.111700	0.557800	0.116765	-0.386049	-0.049923	-0.116943	0.213867	-0.970459	0.047501	-0.007389	0.091947	0.957267	-0.072165	-0.244975	-0.135718	-4.711577	-29.248644	-14.908836
48750		5.857442	-1.142162	9.419830	0.346746	-0.476136	1.322854	0.112376	-0.357386	-0.067119	-0.119141	0.213867	-0.970215	0.058402	-0.011494	0.094296	0.956800	-0.071850	-0.246804	-0.135866	-4.639452	-29.459529	-14.943672
48751		5.888931	-0.709675	9.386361	0.480585	-0.079001	1.280087	0.082733	-0.239827	-0.032202	-0.119141	0.213867	-0.968018	0.058776	-0.007145	0.093931	0.956503	-0.071605	-0.248043	-0.135827	-4.591228	-29.601167	-14.950636
48752		4.589619	0.427502	9.500112	-0.354717	1.323880	0.657315	-0.006886	-0.272589	-0.007766	-0.121582	0.220459	-0.968262	0.045767	0.004277	0.095063	0.956133	-0.071877	-0.249364	-0.135870	-4.604246	-29.760894	-14.951566
48753		5.640374	-0.438922	9.134359	0.408112	0.201253	0.922107	-0.070767	-0.319649	0.001426	-0.128174	0.213623	-0.965820	0.056258	-0.004356	0.091435	0.955701	-0.072462	-0.250867	-0.135832	-4.657090	-29.946564	-14.932108
48754		4.694709	-0.312722	8.912023	-0.274675	0.505058	0.248705	-0.091583	-0.334074	0.014936	-0.130615	0.218018	-0.963623	0.046798	-0.003083	0.089200	0.955233	-0.073210	-0.252413	-0.135855	-4.728058	-30.140333	-14.915130
48755		5.015222	-0.680937	8.694576	-0.046363	0.058024	0.247439	-0.116825	-0.356962	0.010354	-0.130615	0.220215	-0.963867	0.049997	-0.006756	0.087039	0.954738	-0.074052	-0.254058	-0.135818	-4.811716	-30.346840	-14.887114
48756		4.992147	-0.931302	8.633838	-0.143285	-0.166014	0.201493	-0.117875	-0.354673	0.019762	-0.139893	0.226807	-0.963867	0.049769	-0.009257	0.086432	0.954231	-0.074946	-0.255682	-0.135843	-4.900511	-30.552051	-14.864983
48757		5.241173	-0.939020	8.513266	0.086149	-0.231797	0.225543	-0.120619	-0.368245	0.015542	-0.146240	0.217773	-0.961426	0.052256	-0.009335	0.085235	0.953716	-0.075819	-0.257374	-0.135780	-4.989038	-30.764668	-14.832025
48758		5.225400	-1.087725	8.431139	0.035528	-0.365552	0.159126	-0.108276	-0.349511	0.021891	-0.148682	0.219971	-0.963623	0.052108	-0.010826	0.084408	0.953213	-0.076667	-0.258977	-0.135784	-5.073615	-30.966746	-14.808041
48759		5.319128	-0.741971	8.513320	0.146431	-0.018154	0.252022	-0.111405	-0.355027	0.017429	-0.150879	0.224365	-0.963867	0.053041	-0.007368	0.085232	0.952713	-0.077490	-0.260610	-0.135704	-5.157763	-31.171638	-14.773733
48760		5.207510	-0.924148	8.432739	0.006724	-0.162667	0.140035	-0.127606	-0.351944	0.013304	-0.150879	0.224365	-0.959229	0.051927	-0.009184	0.084425	0.952188	-0.078418	-0.262212	-0.135767	-5.251145	-31.375441	-14.753724
48761		4.938732	-0.957237	8.448199	-0.264045	-0.110666	0.015708	-0.116530	-0.368458	-0.000810	-0.160156	0.226318	-0.968262	0.049232	-0.009523	0.084578	0.951649	-0.079250	-0.263910	-0.135774	-5.332968	-31.588868	-14.729895
48762		4.909893	-1.398829	8.445518	-0.453132	-0.504092	0.032666	-0.108521	-0.389172	-0.027884	-0.162354	0.226318	-0.961426	0.048933	-0.013949	0.084558	0.951048	-0.080059	-0.265717	-0.135991	-5.402782	-31.816032	-14.734295
48763		4.975705	-1.645050	8.312425	-0.445404	-0.765368	-0.026169	-0.066085	-0.390279	-0.085409	-0.160156	0.226318	-0.957031	0.049588	-0.016444	0.083227	0.950434	-0.080553	-0.267585	-0.136324	-5.426869	-32.046435	-14.765281
48764		5.120049	-1.234451	8.202699	-0.187882	-0.419965	-0.075581	-0.035524	-0.384249	-0.134408	-0.173828	0.230469	-0.966064	0.051034	-0.012364	0.082127	0.949788	-0.080868	-0.269458	-0.136948	-5.416701	-32.276534	-14.841132
48765		5.258516	-0.906110	8.192015	-0.008279	-0.133435	-0.036996	-0.014193	-0.376492	-0.148257	-0.171387	0.226074	-0.957031	0.052424	-0.009094	0.082020	0.949164	-0.081021	-0.271319	-0.137514	-5.387517	-32.502459	-14.915669
48766		5.240149	-0.322156	8.319976	0.054281	0.460855	0.014291	-0.029165	-0.368985	-0.132513	-0.176025	0.232666	-0.957275	0.052246	-0.003244	0.083297	0.948534	-0.081300	-0.273121	-0.138127	-5.373205	-32.723719	-14.991889
48767		5.245725	-0.364222	8.362724	-0.011602	0.438708	0.056088	-0.065334	-0.369107	-0.128553	-0.177979	0.226074	-0.957031	0.052300	-0.003649	0.083725	0.947904	-0.081717	-0.274902	-0.138671	-5.379566	-32.944344	-15.054013
48768		5.206519	-0.707226	8.208923	-0.108524	0.097875	-0.067281	-0.077062	-0.376839	-0.133969	-0.185059	0.232666	-0.952637	0.051906	-0.007075	0.082190	0.947235	-0.082226	-0.276706	-0.139353	-5.391831	-33.170167	-15.131167
48769		5.127495	-0.985377	8.104838	-0.242880	-0.161100	-0.176012	-0.083138	-0.377937	-0.148516	-0.191406	0.225830	-0.961426	0.051114	-0.009858	0.081149	0.946564	-0.082705	-0.278522	-0.140011	-5.400697	-33.396923	-15.206569
48770		5.189972	-0.675470	8.137393	-0.150400	0.137046	-0.139648	-0.055319	-0.397308	-0.157406	-0.193848	0.228027	-0.957031	0.051733	-0.006773	0.081479	0.945850	-0.083092	-0.280445	-0.140760	-5.391766	-33.635685	-15.298334
48771		5.091866	-0.561270	8.163475	-0.246713	0.283133	-0.182357	-0.068384	-0.425812	-0.162360	-0.196289	0.232422	-0.950439	0.050740	-0.005626	0.081745	0.945099	-0.083515	-0.282501	-0.141442	-5.387846	-33.890488	-15.380586
48772		4.953442	-1.145900	8.141925	-0.573670	-0.233134	-0.233701	-0.058523	-0.461590	-0.176664	-0.207520	0.232178	-0.950439	0.049336	-0.011479	0.081537	0.944270	-0.083934	-0.284731	-0.142258	-5.374743	-34.166927	-15.481944
48773		5.178379	-1.172476	8.124525	-0.442424	-0.301389	-0.121897	-0.035919	-0.517664	-0.193579	-0.203125	0.236572	-0.948242	0.051562	-0.011760	0.081381	0.943368	-0.084224	-0.287252	-0.143001	-5.342354	-34.475761	-15.580521
48774		5.214251	-0.818775	8.152584	-0.370633	0.042103	-0.107842	-0.020380	-0.574822	-0.205525	-0.218750	0.231934	-0.947998	0.051899	-0.008233	0.081676	0.942356	-0.084505	-0.290051	-0.143855	-5.298882	-34.818258	-15.696306
48775		5.038003	-0.488366	8.214938	-0.496797	0.420411	-0.185575	-0.033612	-0.649066	-0.197558	-0.220947	0.231934	-0.947998	0.050108	-0.004919	0.082313	0.941244	-0.084871	-0.293190	-0.144555	-5.266703	-35.202161	-15.790512
48776		4.818700	-0.187277	8.465010	-0.771852	0.832285	-0.136820	-0.054031	-0.772671	-0.169543	-0.236816	0.236084	-0.945801	0.047858	-0.001891	0.084836	0.939933	-0.085503	-0.296873	-0.145195	-5.262498	-35.655533	-15.869097
48777		4.615631	-0.627620	8.660665	-1.257205	0.536079	-0.074288	-0.096679	-0.927059	-0.159711	-0.240967	0.224854	-0.936768	0.045749	-0.006271	0.086822	0.938380	-0.086420	-0.301248	-0.145687	-5.290825	-36.196037	-15.919678
48778		4.599210	-0.477199	8.904453	-1.448157	0.778004	0.085101	-0.131092	-1.114998	-0.160957	-0.254395	0.226807	-0.936768	0.045491	-0.004750	0.089302	0.936486	-0.087671	-0.306464	-0.146244	-5.346549	-36.844241	-15.969468
48779		4.616911	-0.348805	9.111826	-1.621742	0.993827	0.229403	-0.166068	-1.348864	-0.127702	-0.270508	0.235352	-0.932373	0.045551	-0.003441	0.091430	0.934222	-0.089265	-0.312730	-0.146497	-5.445186	-37.623710	-15.968024
48780		5.073192	0.105803	9.304883	-1.374668	1.434004	0.597916	-0.210057	-1.653818	-0.079139	-0.286377	0.237305	-0.927979	0.049961	0.001136	0.093463	0.931426	-0.091398	-0.320341	-0.146536	-5.606488	-38.574708	-15.918133
48781		4.798664	-0.151056	9.633165	-2.028125	1.417160	0.662158	-0.245846	-1.983758	-0.026980	-0.306641	0.239014	-0.916748	0.047028	-0.001398	0.096803	0.928060	-0.093977	-0.329418	-0.146138	-5.830714	-39.710366	-15.790219
48782		4.872591	-0.534179	9.659574	-2.325269	1.145538	0.704452	-0.261962	-2.357181	0.022339	-0.329102	0.240723	-0.907715	0.047584	-0.005209	0.097168	0.923980	-0.097016	-0.340144	-0.145437	-6.116139	-41.055649	-15.598208
48783		4.995436	-0.281227	9.704870	-2.425202	1.481267	0.729358	-0.235037	-2.735782	0.067723	-0.362793	0.244629	-0.901123	0.048622	-0.002681	0.097723	0.919164	-0.100225	-0.352569	-0.144179	-6.442663	-42.612643	-15.314510
48784		4.811854	-0.048734	9.639920	-2.718845	1.841607	0.448455	-0.259900	-3.151053	0.137924	-0.385254	0.241699	-0.880859	0.046592	-0.000329	0.097142	0.913437	-0.103994	-0.366761	-0.142493	-6.869891	-44.399982	-14.926620
48785		5.219674	-0.619946	9.270751	-2.713634	1.262950	0.414956	-0.258434	-3.646109	0.186173	-0.416992	0.250000	-0.867676	0.050501	-0.006031	0.093646	0.906584	-0.108124	-0.383092	-0.140194	-7.392798	-46.462793	-14.404244
48786		4.225284	-1.779368	9.653086	-4.380469	0.611557	-0.085267	-0.212923	-4.161254	0.133319	-0.461914	0.253418	-0.843018	0.040244	-0.017663	0.097401	0.898370	-0.112311	-0.401658	-0.137800	-7.952407	-48.818549	-13.827552
48787		4.728212	-2.404821	9.520466	-4.589090	0.054961	0.071316	-0.117377	-4.835468	0.001609	-0.506836	0.252686	-0.816162	0.044962	-0.023992	0.096325	0.888319	-0.116167	-0.423198	-0.135270	-8.500902	-51.563563	-13.204682
48788		3.761594	-3.695248	9.491216	-6.045400	-0.885102	-0.838793	0.077456	-5.484408	-0.169397	-0.549072	0.242920	-0.793457	0.034964	-0.037020	0.095881	0.876284	-0.119211	-0.447553	-0.132707	-8.971159	-54.687059	-12.577186
48789		5.204795	-1.659102	8.846405	-4.570610	0.755210	-0.506486	0.338587	-6.296735	-0.326023	-0.607666	0.248291	-0.751221	0.049203	-0.016824	0.090015	0.861730	-0.121143	-0.475353	-0.129557	-9.372052	-58.281611	-11.867072
48790		6.256687	-2.766827	9.762700	-5.766446	0.054293	0.618023	0.342276	-7.097089	-0.374124	-0.663330	0.238037	-0.701904	0.059001	-0.027950	0.099715	0.844259	-0.123381	-0.506078	-0.126050	-10.013436	-62.328637	-10.917695
48791		8.004383	-2.539945	9.850900	-5.754823	0.314261	1.774545	0.467822	-7.708574	-0.542862	-0.721436	0.232422	-0.643799	0.076101	-0.025845	0.101433	0.824056	-0.124825	-0.538880	-0.122309	-10.783041	-66.732175	-9.771947
48792		8.128511	-4.267408	10.491376	-7.730393	-0.915121	1.748140	0.318683	-8.242234	-0.702716	-0.768555	0.229004	-0.579102	0.076723	-0.043120	0.108070	0.800905	-0.126580	-0.573014	-0.119099	-12.018269	-71.443419	-8.258271
48793		11.553449	-5.283903	12.490205	-9.848576	-1.156386	4.982231	0.449205	-8.545136	-1.106097	-0.821777	0.214600	-0.505371	0.109769	-0.053744	0.129555	0.775291	-0.126609	-0.607675	-0.116726	-13.353657	-76.362551	-6.604600
48794		17.051092	-2.810021	14.563940	-11.107258	1.941997	9.764502	0.396807	-8.760820	-1.456943	-0.872803	0.199951	-0.429199	0.163707	-0.029608	0.152854	0.747294	-0.125717	-0.642175	-0.115575	-15.362131	-81.434822	-4.341053
48795		18.039864	-1.586307	14.141482	-11.864688	3.197453	9.593486	-0.035546	-8.669447	-1.546841	-0.910156	0.185547	-0.344482	0.173917	-0.017199	0.149052	0.717806	-0.125796	-0.674904	-0.115912	-22.820495	-86.432073	3.128984
48796		22.002027	-1.337069	19.688777	-18.495403	5.632119	12.530868	-0.422043	-8.108923	-1.500910	-0.934326	0.173828	-0.268555	0.211694	-0.014553	0.205615	0.688693	-0.126866	-0.704126	-0.117529	-158.777582	-88.538384	138.873070
48797		18.561993	-5.108521	18.602809	-20.272727	1.939109	7.553756	-0.480169	-7.631783	-1.975254	-0.960205	0.148682	-0.194580	0.177828	-0.052410	0.193039	0.659807	-0.125977	-0.730836	-0.121094	173.858316	-84.228601	165.992868
48798		20.823370	-4.928723	16.811149	-20.078661	1.627727	8.474277	-0.212592	-6.531942	-2.652478	-0.970459	0.121582	-0.129639	0.201920	-0.051810	0.174830	0.633789	-0.120891	-0.753465	-0.126439	167.236942	-80.280780	172.545206
48799		15.999184	9.619200	30.379121	-27.685052	19.856248	0.700158	-1.117347	-4.666425	-3.042871	-0.978516	0.099121	-0.089111	0.154312	0.095524	0.306901	0.613334	-0.115895	-0.769093	-0.137426	161.745929	-77.232626	177.486249
48800		40.577532	3.977851	44.857119	-48.618321	19.833425	20.475808	-2.738145	-0.853496	-3.995533	-0.974609	0.054688	-0.088135	0.404626	0.037839	0.449773	0.605539	-0.109510	-0.771901	-0.159685	152.158564	-75.884484	-174.274563
48801		4.130976	-14.271989	25.394842	-29.060557	-3.385753	-12.918366	-2.694788	2.350073	-4.369974	-0.968506	0.010498	-0.102783	0.041223	-0.140187	0.255364	0.609379	-0.098909	-0.764733	-0.184545	139.479426	-75.588138	-162.790622
48802		-2.351863	-17.334704	16.766396	-20.975740	-8.716079	-18.248468	-0.845986	2.356146	-4.523509	-0.959961	-0.038086	-0.121582	-0.025437	-0.172074	0.168686	0.613609	-0.082021	-0.758733	-0.202684	128.538050	-74.661435	-151.978571
48803		-0.024200	-12.107493	16.322949	-19.155288	-4.286146	-15.078964	0.102204	2.291141	-3.893198	-0.963135	-0.071533	-0.136475	-0.000730	-0.121147	0.163174	0.618219	-0.064623	-0.753223	-0.215137	120.361183	-73.560571	-143.420295
48804		2.896841	-9.621874	16.028865	-18.632813	-2.733977	-11.611952	0.089877	2.501369	-2.678796	-0.955566	-0.093506	-0.156006	0.029677	-0.096685	0.159877	0.624707	-0.051597	-0.746299	-0.223869	113.854220	-72.850297	-136.575723
48805		5.486387	-9.611506	15.578154	-18.748281	-3.566292	-8.847131	-0.369012	3.004228	-1.230057	-0.950684	-0.106689	-0.186768	0.056606	-0.096173	0.155117	0.634341	-0.044817	-0.736733	-0.229843	107.631984	-72.800571	-130.287686
48806		5.526363	-11.665625	13.557460	-17.590750	-6.316616	-8.775858	-0.592758	3.644695	0.067283	-0.948730	-0.099854	-0.218018	0.057765	-0.116237	0.134882	0.647632	-0.042794	-0.724317	-0.232609	100.647995	-73.353359	-123.349230
48807		5.533708	-12.180637	11.796511	-16.067255	-7.583267	-8.247900	-0.319221	4.188923	1.066809	-0.944824	-0.088623	-0.253906	0.058442	-0.121313	0.116957	0.663802	-0.042837	-0.709997	-0.231162	92.502735	-74.238293	-115.061588
48808		5.506113	-9.464130	10.557767	-13.749610	-5.797862	-6.872766	0.068630	4.678921	1.806165	-0.938965	-0.068359	-0.291992	0.058362	-0.094160	0.104206	0.682338	-0.043647	-0.693897	-0.225868	82.549478	-75.163819	-104.710139
48809		4.670976	-5.858613	9.594661	-11.243898	-2.898973	-6.161418	0.210213	5.046173	2.322802	-0.926270	-0.045898	-0.341553	0.049786	-0.058120	0.094655	0.702230	-0.045302	-0.676160	-0.218238	70.603477	-75.792516	-92.251411
48810		3.707504	-3.190268	8.667791	-9.157501	-0.733275	-5.987972	0.091398	5.248750	2.608412	-0.911621	-0.018799	-0.395264	0.039744	-0.031435	0.085644	0.722573	-0.048101	-0.656906	-0.209879	57.314491	-75.816427	-78.499781
48811		3.584502	-1.984547	8.182128	-8.031211	0.120065	-5.431388	-0.091532	5.325169	2.662414	-0.894775	0.008545	-0.444824	0.038266	-0.019310	0.080833	0.742495	-0.051594	-0.636658	-0.201757	44.413829	-75.071886	-65.232232
48812		4.485694	-1.490522	8.163707	-7.443501	0.277496	-4.026376	-0.211823	5.380613	2.530121	-0.870850	0.024658	-0.489746	0.047214	-0.014232	0.080403	0.761826	-0.055032	-0.615485	-0.194347	33.328309	-73.571959	-53.854148
48813		5.890672	-1.173415	8.571932	-7.077908	0.310691	-2.110076	-0.244601	5.504339	2.309315	-0.849365	0.049561	-0.545898	0.061365	-0.010931	0.084067	0.780582	-0.057725	-0.593391	-0.187738	24.652702	-71.451746	-44.911001
48814		7.094177	-0.910463	8.913012	-6.517313	0.313775	-0.432635	-0.249461	5.684606	2.097305	-0.807617	0.072754	-0.602051	0.073526	-0.008233	0.087075	0.799019	-0.059606	-0.570039	-0.181856	18.094901	-68.847452	-38.099771
48815		7.867069	-0.422560	9.327201	-5.892289	0.631158	0.859826	-0.270034	5.867994	1.949615	-0.765625	0.091553	-0.651611	0.081397	-0.003317	0.090915	0.817035	-0.060905	-0.545519	-0.176504	13.177998	-65.911452	-32.945802
48816		8.610651	0.267083	9.885150	-5.186675	1.176638	2.170212	-0.366539	6.025265	1.889726	-0.726074	0.110107	-0.698730	0.089000	0.003681	0.096193	0.834648	-0.062256	-0.519674	-0.171538	9.340206	-62.728975	-28.928794
48817		9.011270	0.463275	9.926247	-4.224938	1.193026	2.860694	-0.505635	6.154824	1.844880	-0.666260	0.129395	-0.750488	0.093060	0.005728	0.096415	0.851615	-0.063877	-0.492736	-0.166983	6.285249	-59.381159	-25.773452
48818		8.733278	0.247339	9.885434	-3.590967	0.960357	2.843417	-0.593037	6.177404	1.784208	-0.613281	0.152588	-0.789063	0.090301	0.003558	0.096086	0.867705	-0.065692	-0.465042	-0.162814	3.831586	-55.937772	-23.289663
48819		8.900782	-0.102393	10.242450	-3.091751	0.613423	3.383774	-0.613141	6.061724	1.726457	-0.555420	0.169434	-0.825195	0.092059	0.000070	0.099666	0.882554	-0.067427	-0.437469	-0.158660	1.864907	-52.520974	-21.303043
48820		9.818434	-0.230821	11.080058	-2.383763	0.432685	4.791587	-0.561181	5.894970	1.731561	-0.495361	0.184082	-0.854736	0.101406	-0.001134	0.107847	0.896226	-0.069062	-0.410146	-0.154241	0.239362	-49.154104	-19.639436
48821		11.042483	-0.424396	12.465093	-1.746644	0.255314	6.749232	-0.482016	5.732300	1.755524	-0.433105	0.198730	-0.886475	0.113966	-0.002959	0.121426	0.908750	-0.070399	-0.383321	-0.149273	-1.111711	-45.865220	-18.186027
48822		12.718728	-0.768993	14.547910	-1.102786	-0.006838	9.492177	-0.356615	5.584798	1.788569	-0.377686	0.217529	-0.902588	0.131243	-0.006273	0.141864	0.920282	-0.071321	-0.356808	-0.143813	-2.231160	-42.628473	-16.893034
48823		15.410762	-0.037678	17.811639	0.164107	0.788846	13.723517	-0.192464	5.436722	1.864258	-0.317627	0.236572	-0.921143	0.158866	0.001258	0.173840	0.930861	-0.071622	-0.330867	-0.137457	-3.147166	-39.469852	-15.670625
48824		22.452916	1.611307	21.194136	5.402603	1.566742	20.585117	-0.096867	5.501117	1.924512	-0.252930	0.244385	-0.926025	0.230074	0.018410	0.205655	0.940864	-0.071512	-0.304288	-0.130654	-3.914304	-36.247427	-14.530166
48825		32.149591	4.568640	22.554572	15.054077	2.667523	26.642019	-0.139387	6.065004	1.932198	-0.188232	0.256836	-0.935547	0.327673	0.048985	0.215637	0.950817	-0.071137	-0.274848	-0.123877	-4.579252	-32.703072	-13.501721
48826		41.399446	7.109322	21.078720	26.603207	2.929150	28.807175	-0.508784	7.150316	1.742536	-0.105225	0.262939	-0.933838	0.420527	0.075249	0.195640	0.960898	-0.071530	-0.239662	-0.118835	-5.257477	-28.527536	-12.762566
48827		42.081494	5.461217	14.413830	32.450494	-0.234799	21.075788	-1.028351	8.485336	1.328825	-0.020264	0.277832	-0.925537	0.426035	0.058110	0.125840	0.970579	-0.072982	-0.197621	-0.116602	-5.988061	-23.617755	-12.447954
48828		36.105890	2.033612	4.089809	32.078021	-4.612581	6.719371	-1.151832	9.018402	0.642830	0.060303	0.286133	-0.915039	0.362341	0.021672	0.024453	0.978441	-0.073905	-0.152699	-0.117787	-6.576444	-18.434694	-12.660339
48829		31.490998	3.444486	-6.152568	31.838723	-4.593667	-7.368775	-1.095959	8.399913	-0.192897	0.127197	0.300781	-0.908936	0.311985	0.033757	-0.074859	0.983452	-0.074133	-0.110931	-0.122557	-7.012236	-13.671861	-13.365365
48830		30.003125	9.934748	-14.880668	33.583237	-0.097881	-19.402966	-1.716286	6.834936	-0.734978	0.185303	0.312988	-0.880615	0.295054	0.096917	-0.159787	0.985541	-0.077962	-0.076434	-0.129570	-7.808331	-9.837843	-14.306557
48831		35.603357	14.093171	-22.269365	40.168312	0.381962	-28.465122	-3.069209	5.111923	-0.801104	0.222412	0.342529	-0.863770	0.350703	0.135988	-0.233816	0.985331	-0.089458	-0.049562	-0.136615	-9.437792	-7.013985	-15.207615
48832		40.079413	10.430062	-28.935326	42.807186	-6.764334	-35.767996	-4.022884	3.476506	-0.558219	0.243164	0.389404	-0.842773	0.395939	0.097251	-0.298268	0.983659	-0.106761	-0.029892	-0.141857	-11.674766	-5.111601	-15.889524
48833		42.072025	2.016877	-33.296622	41.373445	-17.432455	-39.256283	-3.444137	1.836484	-0.130714	0.246582	0.413818	-0.830078	0.417648	0.014114	-0.337089	0.981813	-0.122383	-0.018505	-0.143956	-13.626459	-4.104334	-16.192295
48834		36.267823	-4.346204	-31.929372	33.476573	-22.099787	-37.100786	-1.303732	0.083385	0.329326	0.239746	0.420410	-0.825684	0.362618	-0.044946	-0.319155	0.981235	-0.128784	-0.016948	-0.142494	-14.389604	-4.011838	-16.018650
48835		22.639744	-10.500817	-35.069135	19.214710	-24.682401	-39.377558	2.424571	-2.911960	0.020684	0.204834	0.393066	-0.844971	0.231494	-0.100750	-0.348584	0.982386	-0.118969	-0.032969	-0.140274	-13.037436	-5.632798	-15.608416
48836		-11.355603	11.979601	-0.867820	-7.435197	13.958395	-14.617426	2.699236	-5.760779	0.132013	0.151123	0.381104	-0.857666	-0.113353	0.119853	-0.010328	0.982634	-0.109758	-0.063066	-0.135666	-11.594289	-8.842756	-14.822031
48837		10.470402	2.449248	33.058718	6.566419	7.387353	23.510916	1.843865	-5.642543	0.379902	0.097656	0.373291	-0.863770	0.095277	0.021613	0.333572	0.981687	-0.104625	-0.091823	-0.130052	-10.694528	-11.975685	-13.968030
48838		9.771844	19.753456	9.513449	12.930461	18.576201	-1.823092	1.807320	-5.606044	-0.504853	0.041748	0.363281	-0.865723	0.095465	0.196405	0.099610	0.979298	-0.099160	-0.120742	-0.128697	-9.732133	-15.189300	-13.672865
48839		19.600027	17.002255	14.305916	19.506934	14.971384	6.710856	0.658958	-6.338232	-0.869512	-0.025879	0.366455	-0.865479	0.192060	0.168696	0.149745	0.974728	-0.099463	-0.152589	-0.129339	-9.391836	-18.856190	-13.554159
48840		31.045547	2.879254	23.377108	22.145864	1.371348	22.217002	0.555646	-5.371076	-1.337532	-0.077393	0.365479	-0.864990	0.304209	0.026079	0.242072	0.969661	-0.099198	-0.179742	-0.132704	-8.978006	-22.018421	-13.835580
48841		30.887329	-17.049230	15.319966	17.226274	-19.317647	18.635568	1.246617	-4.239796	-1.165027	-0.112793	0.351563	-0.864502	0.304545	-0.173252	0.158612	0.965437	-0.094923	-0.201677	-0.135086	-8.138466	-24.523003	-14.158943
48842		27.802465	-5.955669	15.958520	16.505695	-8.146817	17.098781	2.245078	-2.940553	-0.683971	-0.141113	0.326416	-0.866211	0.275435	-0.062318	0.162958	0.962897	-0.085398	-0.217701	-0.134695	-6.775313	-26.247702	-14.344989
48843		9.997857	14.524442	14.372133	7.074429	14.694004	6.045576	1.776848	-1.987543	-0.579637	-0.152100	0.321777	-0.868164	0.098953	0.143666	0.145989	0.961005	-0.077571	-0.228717	-0.134685	-5.655879	-27.418868	-14.575274
48844		9.787983	6.835084	11.870522	5.323040	6.778832	4.648901	0.783021	-1.578148	-0.726066	-0.176758	0.314697	-0.870117	0.097184	0.067530	0.119739	0.958963	-0.074067	-0.237130	-0.136653	-5.036113	-28.361935	-14.946837
48845		9.976952	-4.989083	9.407279	2.832485	-5.092949	3.565055	0.552405	-0.979403	-0.467875	-0.176514	0.310303	-0.863525	0.099190	-0.050384	0.094421	0.957661	-0.071559	-0.242395	-0.137871	-4.602718	-28.946801	-15.196049
48846		6.912968	-0.422973	10.265107	1.102735	0.076492	2.520910	0.600763	-0.564430	-0.289718	-0.185303	0.305664	-0.865479	0.068833	-0.004638	0.102832	0.956974	-0.068749	-0.245646	-0.138320	-4.183500	-29.286251	-15.355504
48847		7.038148	-0.144502	10.136622	1.282419	0.233995	2.459550	0.373949	-0.198967	-0.333719	-0.189697	0.301025	-0.865479	0.070278	-0.001752	0.101433	0.956616	-0.066715	-0.246994	-0.139384	-3.869801	-29.416585	-15.563719
48848		5.993656	-0.708132	10.089970	0.222468	-0.107936	1.941953	0.231580	-0.144577	-0.244975	-0.189697	0.303223	-0.865479	0.059855	-0.007272	0.100935	0.956333	-0.065435	-0.247962	-0.140215	-3.664394	-29.512849	-15.716747
48849		5.152862	0.523512	9.042021	0.344844	1.035739	0.550348	0.107017	-0.080552	-0.203501	-0.189453	0.298828	-0.863037	0.051497	0.005134	0.090444	0.956117	-0.064755	-0.248512	-0.141024	-3.542083	-29.569436	-15.845766
48850		5.625599	-0.332549	8.932113	0.515846	0.074991	0.735717	0.071737	-0.133511	-0.141076	-0.194092	0.298828	-0.867432	0.056194	-0.003397	0.089357	0.955865	-0.064360	-0.249280	-0.141560	-3.461062	-29.655135	-15.931653
48851		5.301401	-0.119363	8.973921	0.270284	0.358077	0.601200	0.039834	-0.185558	-0.098709	-0.191895	0.298828	-0.865234	0.052930	-0.001238	0.089788	0.955569	-0.064206	-0.250250	-0.141918	-3.412969	-29.767852	-15.987920
48852		5.037214	-0.434948	8.979565	-0.074392	0.121833	0.491430	0.037866	-0.270502	-0.098056	-0.198486	0.298828	-0.867432	0.050248	-0.004391	0.089863	0.955162	-0.064123	-0.251635	-0.142246	-3.367607	-29.930329	-16.040495
48853		5.144002	0.503201	9.006458	0.255881	0.997365	0.520267	0.007770	-0.318374	-0.089087	-0.203125	0.298584	-0.865234	0.051299	0.005006	0.090147	0.954692	-0.064228	-0.253213	-0.142555	-3.343191	-30.118622	-16.085624
48854		5.369060	0.059913	8.854628	0.344554	0.501566	0.524838	-0.044818	-0.348412	-0.048538	-0.203125	0.298584	-0.867432	0.053536	0.000606	0.088639	0.954190	-0.064658	-0.254893	-0.142726	-3.362720	-30.323977	-16.102753
48855		5.261514	-0.167434	8.742584	0.204426	0.304118	0.385839	-0.067069	-0.357964	-0.010065	-0.205322	0.298584	-0.860840	0.052458	-0.001648	0.087520	0.953696	-0.065248	-0.256579	-0.142739	-3.408206	-30.532261	-16.093983
48856		5.271733	-0.511370	8.632387	0.125831	-0.029222	0.314206	-0.075928	-0.364725	0.009363	-0.209961	0.305176	-0.863037	0.052560	-0.005078	0.086422	0.953198	-0.065911	-0.258295	-0.142667	-3.465500	-30.744997	-16.071726
48857		5.449869	-0.477186	8.496902	0.314924	-0.047569	0.288034	-0.069280	-0.349347	0.023813	-0.209717	0.298584	-0.858643	0.054351	-0.004736	0.085066	0.952732	-0.066549	-0.259925	-0.142523	-3.523956	-30.947155	-16.040239
48858		5.450551	-0.702390	8.390587	0.265969	-0.265208	0.210417	-0.065070	-0.333895	0.024138	-0.223389	0.304932	-0.854248	0.054366	-0.006990	0.083999	0.952281	-0.067156	-0.261495	-0.142376	-3.579893	-31.141721	-16.008808
48859		5.134932	-0.528978	8.444525	0.004399	0.001768	0.084647	-0.065788	-0.314488	0.011417	-0.225586	0.302490	-0.856445	0.051217	-0.005259	0.084528	0.951847	-0.067736	-0.262965	-0.142298	-3.631774	-31.324339	-15.986493
48860		5.129262	-0.787515	8.476495	-0.123376	-0.220535	0.122932	-0.058760	-0.310178	0.001101	-0.230225	0.302490	-0.858643	0.051161	-0.007850	0.084847	0.951408	-0.068266	-0.264433	-0.142259	-3.675976	-31.506157	-15.970981
48861		4.833565	-0.889288	8.511554	-0.442927	-0.226852	0.003269	-0.043404	-0.318821	-0.023609	-0.227783	0.302490	-0.856445	0.048199	-0.008880	0.085194	0.950946	-0.068696	-0.265950	-0.142315	-3.703142	-31.692516	-15.971591
48862		4.712831	-1.029432	8.544563	-0.632421	-0.313258	-0.025865	-0.030826	-0.343298	-0.068077	-0.230225	0.302490	-0.858643	0.046978	-0.010297	0.085528	0.950418	-0.069025	-0.267617	-0.142556	-3.707824	-31.895813	-16.000904
48863		4.675631	-1.349901	8.539356	-0.795061	-0.601200	-0.034617	-0.011124	-0.382451	-0.140837	-0.239014	0.302246	-0.856201	0.046583	-0.013527	0.085484	0.949792	-0.069190	-0.269498	-0.143104	-3.676064	-32.122880	-16.077784
48864		4.671950	-1.383185	8.531087	-0.847147	-0.629096	-0.045079	0.031260	-0.428910	-0.215934	-0.236816	0.302490	-0.858398	0.046521	-0.013895	0.085409	0.949057	-0.069086	-0.271665	-0.143933	-3.593399	-32.380439	-16.203803
48865		5.181499	-0.719173	8.411355	-0.217453	-0.144064	0.089220	0.062066	-0.477781	-0.255984	-0.243652	0.302246	-0.849609	0.051605	-0.007284	0.084235	0.948233	-0.068816	-0.274087	-0.144894	-3.478652	-32.665912	-16.355953
48866		5.099820	0.068665	8.426354	-0.097436	0.625473	0.016625	0.043572	-0.507990	-0.238167	-0.250244	0.302002	-0.849609	0.050785	0.000608	0.084393	0.947365	-0.068680	-0.276642	-0.145782	-3.380442	-32.969058	-16.495743
48867		5.122156	0.359736	8.422349	-0.039810	0.899371	0.010304	0.004238	-0.551877	-0.209586	-0.254639	0.297607	-0.853760	0.050993	0.003542	0.084364	0.946438	-0.068800	-0.279353	-0.146575	-3.315226	-33.294937	-16.615406
48868		5.302120	-0.216861	8.227491	-0.035451	0.278702	-0.026376	-0.050317	-0.595831	-0.202143	-0.266113	0.301758	-0.844971	0.052774	-0.002201	0.082433	0.945424	-0.069221	-0.282237	-0.147391	-3.283916	-33.646859	-16.728940
48869		5.050631	-0.740215	8.222630	-0.459654	-0.143863	-0.146451	-0.064254	-0.631014	-0.225717	-0.274902	0.299316	-0.847168	0.050238	-0.007432	0.082387	0.944331	-0.069699	-0.285272	-0.148326	-3.251424	-34.018394	-16.858121
48870		5.000185	-0.988771	8.160919	-0.611814	-0.365672	-0.217288	-0.069362	-0.680949	-0.276309	-0.279541	0.301514	-0.842773	0.049710	-0.009928	0.081782	0.943113	-0.070165	-0.288563	-0.149486	-3.201931	-34.421267	-17.021192
48871		4.792374	-1.000982	8.247032	-0.895266	-0.295235	-0.268410	-0.039952	-0.735730	-0.345499	-0.283691	0.294678	-0.844727	0.047603	-0.010076	0.082648	0.941763	-0.070433	-0.292145	-0.150910	-3.107739	-34.856273	-17.231781
48872		4.941121	-0.902199	8.275480	-0.840528	-0.221170	-0.171307	-0.020018	-0.817452	-0.404203	-0.295166	0.296875	-0.838135	0.049054	-0.009113	0.082957	0.940235	-0.070582	-0.296151	-0.152548	-2.977536	-35.340663	-17.482509
48873		4.863347	-0.797733	8.332954	-0.985625	-0.081010	-0.182116	-0.004981	-0.907198	-0.451635	-0.301758	0.296631	-0.835938	0.048237	-0.008084	0.083549	0.938525	-0.070656	-0.300590	-0.154353	-2.817589	-35.876080	-17.766612
48874		5.288165	-0.338414	8.331940	-0.604312	0.256006	0.039660	0.022047	-1.029166	-0.478540	-0.317627	0.296387	-0.837891	0.052444	-0.003519	0.083590	0.936589	-0.070656	-0.305633	-0.156195	-2.628577	-36.482453	-18.069646
48875		5.236831	0.025728	8.516954	-0.735869	0.666286	0.136027	0.024797	-1.177157	-0.441276	-0.324219	0.293945	-0.835693	0.051866	0.000132	0.085476	0.934427	-0.070812	-0.311337	-0.157801	-2.451093	-37.170678	-18.346407
48876		5.109870	0.045605	8.773949	-1.097782	0.796557	0.249805	0.035319	-1.368389	-0.402103	-0.337646	0.295898	-0.820068	0.050498	0.000339	0.088086	0.931956	-0.071128	-0.317924	-0.159132	-2.282103	-37.967851	-18.594456
48877		5.049747	0.025535	9.020226	-1.438964	0.881527	0.386091	0.021344	-1.593785	-0.346097	-0.351074	0.293457	-0.820068	0.049777	0.000159	0.090601	0.929115	-0.071772	-0.325502	-0.160135	-2.144154	-38.891228	-18.800927
48878		4.949681	-0.432352	9.190256	-1.942900	0.560647	0.436931	0.035509	-1.863138	-0.297208	-0.369141	0.292969	-0.813232	0.048631	-0.004413	0.092358	0.925803	-0.072641	-0.334308	-0.160779	-2.019174	-39.968407	-18.969557
48879		4.809227	-0.313400	9.725066	-2.527678	0.890284	0.704788	0.090334	-2.182891	-0.278194	-0.393555	0.290283	-0.799805	0.047023	-0.003244	0.097766	0.921898	-0.073537	-0.344588	-0.161110	-1.870848	-41.227035	-19.121965
48880		5.274881	-0.288062	9.448494	-2.262215	0.793982	0.743210	0.135747	-2.542940	-0.274479	-0.416016	0.289795	-0.795166	0.051538	-0.003016	0.095143	0.917257	-0.074509	-0.356520	-0.161190	-1.695977	-42.692252	-19.270881
48881		5.455159	-0.061605	9.009458	-2.059875	0.924100	0.474576	0.175685	-2.936066	-0.259034	-0.447510	0.286865	-0.779541	0.053220	-0.000765	0.090882	0.911769	-0.075629	-0.370206	-0.160951	-1.502616	-44.381222	-19.409234
48882		4.850489	-0.019969	9.880586	-3.336582	1.412226	0.580344	0.252400	-3.336249	-0.230861	-0.469238	0.273193	-0.765625	0.046847	-0.000380	0.099596	0.905362	-0.076753	-0.385679	-0.160250	-1.274598	-46.299262	-19.529962
48883		4.550094	-0.182719	9.836523	-3.915314	1.406685	0.195865	0.314979	-3.808860	-0.251250	-0.505371	0.274658	-0.747803	0.043614	-0.002039	0.099205	0.897759	-0.077909	-0.403220	-0.159288	-0.988253	-48.487244	-19.677310
48884		4.959024	-1.848573	9.803988	-4.625191	-0.155542	0.320941	0.358470	-4.440651	-0.362817	-0.539063	0.273926	-0.720947	0.047364	-0.018750	0.099075	0.888420	-0.079114	-0.423501	-0.158423	-0.582022	-51.037745	-19.943600
48885		4.333401	-2.793570	9.897221	-5.855432	-0.781958	-0.346305	0.536150	-5.154660	-0.660865	-0.583496	0.261963	-0.691650	0.040673	-0.028340	0.099968	0.876879	-0.079417	-0.446958	-0.158130	0.202390	-53.995685	-20.547996
48886		4.924148	-2.764816	10.372292	-6.422861	-0.644050	0.074942	0.632154	-6.012427	-0.955390	-0.632568	0.258545	-0.651367	0.045963	-0.028204	0.105049	0.862516	-0.079256	-0.474005	-0.158444	1.435958	-57.435743	-21.605172
48887		5.546551	-3.419477	10.574555	-7.150042	-1.219271	0.267350	0.868879	-6.857498	-1.223272	-0.681152	0.235352	-0.608398	0.051589	-0.034983	0.107408	0.845096	-0.078022	-0.504473	-0.158846	3.393679	-61.335468	-23.303299
48888		6.645849	-2.613343	10.863363	-7.401025	-0.483375	0.860238	1.057664	-7.794696	-1.515915	-0.738770	0.216309	-0.552246	0.061960	-0.027197	0.110965	0.823958	-0.075888	-0.538442	-0.159416	6.507994	-65.713941	-26.106072
48889		9.216812	-1.857175	13.222009	-9.231595	0.614151	3.508396	0.779632	-8.598156	-1.656581	-0.791992	0.201660	-0.480713	0.086215	-0.019828	0.135937	0.798981	-0.075024	-0.574602	-0.160728	11.165831	-70.442944	-30.643747
48890		12.307389	-4.066417	12.171769	-9.421366	-2.093427	5.113738	0.724607	-8.920942	-1.923353	-0.838135	0.178223	-0.406738	0.117089	-0.042263	0.126879	0.771239	-0.073725	-0.610939	-0.162817	19.353103	-75.097852	-38.775831
48891		20.102528	0.523973	16.902046	-12.349033	2.722898	13.202081	0.305541	-8.920368	-2.049328	-0.882080	0.157227	-0.326172	0.193263	0.002965	0.177763	0.741617	-0.073499	-0.645706	-0.166331	34.257156	-79.168230	-53.873011
48892		19.617871	-1.757371	18.036283	-16.209458	1.472263	11.349699	-0.291702	-8.957693	-2.037864	-0.917480	0.140869	-0.247803	0.187652	-0.019244	0.188924	0.710116	-0.075404	-0.678737	-0.171365	61.817379	-81.812366	-81.967502
48893		21.212661	0.900049	21.378343	-20.190795	5.409832	11.875048	-0.714199	-8.369722	-1.999729	-0.936768	0.122314	-0.174072	0.203020	0.007724	0.222379	0.679056	-0.078281	-0.707970	-0.177578	95.782842	-81.612454	-116.686091
48894		19.357941	-4.396178	21.659201	-23.723749	1.339893	7.453164	-0.395206	-7.561085	-2.713396	-0.955566	0.086426	-0.106689	0.184593	-0.046070	0.223775	0.649188	-0.076701	-0.733766	-0.185093	117.245781	-78.842104	-138.684320
48895		12.724603	-2.576782	19.276154	-20.927500	3.185275	-0.232027	0.080520	-6.556322	-3.626657	-0.969727	0.048096	-0.043701	0.120343	-0.028071	0.196772	0.621337	-0.069176	-0.756006	-0.193932	126.373597	-75.083156	-148.002919
48896		34.082019	12.571118	41.548565	-41.523023	22.561323	18.691277	-1.710736	-3.910223	-4.302197	-0.979004	-0.000977	-0.022461	0.335276	0.122044	0.421023	0.601525	-0.062026	-0.767617	-0.212331	126.525264	-71.772448	-149.187630
48897		22.627724	-9.196553	36.672409	-42.208666	2.911899	2.491694	-2.990429	0.582555	-3.843858	-0.984375	-0.038818	-0.043945	0.225594	-0.090815	0.367430	0.598551	-0.055657	-0.763664	-0.235494	120.491267	-70.118202	-144.620293
48898		2.049345	-24.327071	18.775806	-26.231878	-13.642577	-18.430997	-1.691106	1.808185	-3.042793	-0.992676	-0.063477	-0.067627	0.018514	-0.241964	0.189634	0.601323	-0.047004	-0.756923	-0.251535	114.866228	-69.060057	-139.658956
48899		1.507096	-21.191238	15.426454	-21.985286	-12.031516	-17.636012	0.039062	1.976593	-1.827091	-0.994385	-0.078857	-0.093994	0.014657	-0.212078	0.154077	0.606440	-0.037509	-0.751401	-0.257333	111.151597	-68.538515	-135.653720
48900		2.328154	-15.746517	14.346535	-19.185517	-8.144427	-14.789582	0.876704	2.183809	-0.211698	-1.005615	-0.079102	-0.122803	0.024674	-0.158117	0.142509	0.614543	-0.031297	-0.745847	-0.255087	108.513221	-68.856124	-132.289388
48901		4.934763	-10.403392	14.931123	-18.369216	-4.230383	-10.222543	0.810245	2.676216	1.371320	-1.008545	-0.061279	-0.165283	0.052050	-0.104285	0.148205	0.626305	-0.030532	-0.738364	-0.248250	105.688922	-70.058539	-128.780625
48902		4.772747	-8.532867	14.039667	-16.796974	-3.160050	-9.081565	0.501947	3.363031	2.456446	-1.007568	-0.030029	-0.217041	0.051122	-0.085065	0.139342	0.641766	-0.033906	-0.727861	-0.239174	101.478607	-71.888371	-124.030393
48903		4.216429	-7.161818	12.694024	-14.891038	-2.541521	-8.413183	0.457503	4.019682	2.953622	-0.990967	0.003906	-0.280029	0.045756	-0.071249	0.125881	0.659783	-0.038397	-0.714795	-0.228649	95.133403	-73.899710	-117.121706
48904		3.765647	-4.782384	11.557480	-12.814361	-0.931518	-7.465491	0.560136	4.599807	3.037946	-0.972168	0.037842	-0.347412	0.041022	-0.047539	0.114524	0.679612	-0.042192	-0.699337	-0.217427	85.760061	-75.673969	-107.084959
48905		3.354645	-2.167956	10.645289	-10.860142	1.014115	-6.607782	0.541597	5.082699	2.906796	-0.926025	0.061035	-0.423828	0.036549	-0.021449	0.105491	0.700344	-0.044999	-0.681756	-0.206645	73.121502	-76.786547	-93.759551
48906		3.421339	-0.604113	9.587613	-9.139424	1.908817	-5.714792	0.349393	5.452746	2.667919	-0.873535	0.095703	-0.491211	0.036887	-0.005727	0.094884	0.721506	-0.047274	-0.662033	-0.197248	58.345931	-76.898658	-78.391510
48907		3.725137	-0.236315	8.619402	-7.855946	1.743058	-4.970413	0.102902	5.692163	2.410874	-0.813721	0.116943	-0.538574	0.039709	-0.001938	0.085086	0.742384	-0.049275	-0.640733	-0.189470	44.261697	-75.932980	-63.848770
48908		4.279593	-0.744583	7.795562	-6.904451	0.797820	-4.217355	-0.074505	5.823715	2.177394	-0.738037	0.138428	-0.583984	0.045118	-0.006934	0.076667	0.762791	-0.051043	-0.618114	-0.182974	32.743402	-74.083617	-51.980131
48909		5.243251	-1.314484	7.612413	-6.395063	-0.081264	-3.012881	-0.116626	5.869163	2.023673	-0.662354	0.153564	-0.615723	0.054765	-0.012555	0.074547	0.782364	-0.052376	-0.594830	-0.177033	24.155221	-71.675570	-43.069947
48910		6.683063	-1.622411	7.886011	-5.943069	-0.686451	-1.230244	-0.066375	5.910219	1.946046	-0.585938	0.155029	-0.629395	0.069275	-0.015532	0.076842	0.801330	-0.053224	-0.570761	-0.171083	17.790079	-68.898951	-36.359046
48911		8.007699	-1.429953	8.545445	-5.494965	-0.700797	0.601787	0.002344	6.001807	1.937228	-0.520752	0.151855	-0.636230	0.082726	-0.013508	0.082998	0.819699	-0.053611	-0.545939	-0.164832	13.022790	-65.879120	-31.198507
48912		9.234234	-0.788985	9.573748	-5.040706	-0.185330	2.518073	0.023291	6.123925	1.967151	-0.457520	0.144043	-0.629883	0.095287	-0.006973	0.092849	0.837677	-0.053866	-0.519949	-0.158264	9.308529	-62.641692	-27.069926
48913		10.167632	-0.424370	10.040538	-4.110576	-0.019888	3.876880	-0.021771	6.297539	1.964744	-0.421143	0.131592	-0.620850	0.104805	-0.003214	0.097138	0.855126	-0.054081	-0.492769	-0.151706	6.397897	-59.223179	-23.758830
48914		10.338689	-0.500056	10.198359	-3.273932	-0.187727	4.340564	-0.065768	6.412123	1.901762	-0.397949	0.114014	-0.613770	0.106626	-0.003964	0.098601	0.871924	-0.054209	-0.464406	-0.145385	4.116566	-55.650958	-21.106316
48915		10.499968	-0.751412	10.581754	-2.623228	-0.469948	4.870794	-0.083242	6.401268	1.815655	-0.382080	0.107910	-0.635986	0.108376	-0.006497	0.102387	0.887587	-0.054132	-0.435716	-0.139320	2.359082	-52.050687	-18.993280
48916		11.077241	-0.584327	11.485247	-1.925196	-0.326114	6.032045	-0.075991	6.313400	1.786313	-0.376953	0.090332	-0.666748	0.114369	-0.004790	0.111282	0.902136	-0.053987	-0.406813	-0.133190	0.946693	-48.450403	-17.222735
48917		12.043946	-0.407011	12.876821	-1.194577	-0.149029	7.779379	-0.119774	6.197207	1.784532	-0.354736	0.095215	-0.715820	0.124381	-0.002896	0.124956	0.915415	-0.054031	-0.378113	-0.126989	-0.233686	-44.909100	-15.699021
48918		13.516567	-0.729875	14.602826	-0.263198	-0.485597	10.088011	-0.135719	6.096384	1.763893	-0.316406	0.091797	-0.769043	0.139589	-0.005983	0.141822	0.927605	-0.054139	-0.349338	-0.120751	-1.227692	-41.389152	-14.369766
48919		14.613597	0.077229	16.640133	0.750034	0.387844	12.314022	-0.094999	5.999752	1.740033	-0.264893	0.092773	-0.815918	0.151024	0.002150	0.161918	0.938646	-0.053998	-0.320840	-0.114411	-2.031041	-37.927677	-13.200990
48920		16.849502	1.512357	19.257115	2.722960	1.766146	15.609776	-0.203203	5.895512	1.677862	-0.208740	0.091797	-0.862793	0.173936	0.016760	0.187480	0.948602	-0.054294	-0.292329	-0.108395	-2.756425	-34.498014	-12.181680
48921		23.536749	3.612408	21.385351	9.125431	2.976230	20.714793	-0.472663	5.891096	1.532054	-0.139160	0.093262	-0.900879	0.241238	0.038451	0.206716	0.957464	-0.055585	-0.263607	-0.103366	-3.477286	-31.083065	-11.356051
48922		33.877202	6.461219	21.959744	20.243798	4.126992	25.460772	-0.965965	6.329110	1.253776	-0.055908	0.090576	-0.934570	0.345068	0.067787	0.208420	0.965703	-0.058605	-0.232200	-0.100334	-4.301826	-27.402139	-10.814032
48923		40.277562	8.167583	19.345731	29.777801	4.317554	24.200843	-1.782933	7.239324	0.913822	0.053711	0.101563	-0.948730	0.409022	0.085168	0.177976	0.973354	-0.064627	-0.195952	-0.100038	-5.407821	-23.228094	-10.623851
48924		40.372489	6.001753	11.615333	34.569579	0.821342	14.765149	-2.487977	8.143253	0.515683	0.165039	0.130371	-0.940918	0.407826	0.062367	0.098834	0.979991	-0.072913	-0.154685	-0.101854	-6.747687	-18.543938	-10.764438
48925		36.368071	3.124939	0.335702	34.885899	-3.655679	0.252991	-2.568144	8.334061	-0.148239	0.274414	0.152344	-0.899902	0.363412	0.030890	-0.012192	0.984487	-0.081092	-0.112486	-0.107499	-8.020360	-13.822554	-11.489438
48926		32.748931	6.135978	-11.190187	34.652697	-2.861096	-14.884674	-2.444602	7.482400	-0.958664	0.340820	0.182617	-0.863037	0.323265	0.058330	-0.124776	0.986536	-0.088324	-0.074646	-0.115644	-9.163981	-9.654746	-12.596093
48927		33.840182	12.318191	-20.244201	37.596740	0.003743	-26.916851	-2.903669	5.958177	-1.490333	0.379639	0.225342	-0.830811	0.333028	0.117634	-0.214153	0.986044	-0.098619	-0.044223	-0.126632	-10.629066	-6.441496	-14.036394
48928		36.419016	12.882301	-26.290510	39.479465	-2.792603	-34.641417	-3.639790	4.202295	-1.585370	0.404785	0.272461	-0.801025	0.359508	0.121056	-0.272743	0.983762	-0.113547	-0.021914	-0.137254	-12.591166	-4.260209	-15.414970
48929		40.146506	7.351940	-30.256848	40.439991	-11.534746	-38.315879	-3.590284	2.461756	-1.431168	0.408203	0.308105	-0.779541	0.398176	0.065157	-0.308703	0.980752	-0.129356	-0.008173	-0.146036	-14.578695	-3.084748	-16.543812
48930		38.042412	0.420806	-30.428360	35.589245	-18.750894	-37.289531	-2.334468	0.791141	-1.115997	0.407471	0.325684	-0.770996	0.379219	-0.001474	-0.305790	0.978367	-0.140207	-0.003290	-0.152084	-15.883221	-2.813482	-17.278844
48931		32.538978	-1.946764	-24.223847	29.633035	-18.238228	-30.755457	-0.414472	-0.930646	-0.676735	0.394287	0.314453	-0.775146	0.326443	-0.021071	-0.240679	0.977526	-0.142956	-0.008025	-0.154733	-16.111098	-3.435763	-17.503073
48932		31.058867	3.167847	-12.744344	30.330000	-9.926759	-20.703284	0.719939	-2.279933	-0.012331	0.383545	0.300781	-0.779297	0.312016	0.032109	-0.123777	0.977879	-0.141227	-0.019752	-0.153030	-15.727903	-4.695171	-17.139534
48933		6.358514	-18.639731	-0.601688	0.466424	-19.085531	-4.939262	2.048162	-2.580103	0.876069	0.360596	0.256104	-0.800293	0.064488	-0.186047	-0.007095	0.979596	-0.133280	-0.033335	-0.146688	-14.638652	-5.993274	-16.262312
48934		-12.280634	-1.755264	28.223264	-13.634562	8.906322	16.359383	4.197668	-3.538850	1.090951	0.344238	0.209229	-0.823730	-0.127649	-0.024127	0.279542	0.982214	-0.115508	-0.053028	-0.138208	-12.371062	-7.822164	-15.170052
48935		-20.958187	10.889449	13.159855	-18.239311	18.520835	-2.380061	3.682910	-3.522134	0.786757	0.307129	0.181885	-0.845215	-0.212299	0.105661	0.129841	0.983621	-0.100053	-0.072421	-0.131278	-10.393153	-9.714468	-14.318366
48936		-5.679637	34.035686	3.026200	3.478997	34.246016	-13.677315	2.329580	-6.344908	-0.608322	0.253906	0.160889	-0.864502	-0.056767	0.340160	0.032424	0.981521	-0.092535	-0.105420	-0.130157	-9.119613	-13.357804	-14.037478
48937		29.096554	21.428257	18.717722	29.249734	17.453586	12.448319	0.873111	-6.081278	-1.174824	0.197510	0.164307	-0.873047	0.286326	0.211746	0.196860	0.977471	-0.091571	-0.136343	-0.132576	-8.587375	-16.907257	-14.169360
48938		19.249208	6.908185	14.360934	15.883284	5.136542	8.780500	0.643328	-4.881525	-1.410066	0.150391	0.165527	-0.875000	0.189386	0.067267	0.148476	0.973178	-0.090699	-0.161245	-0.136741	-8.091357	-19.794298	-14.582519
48939		18.475328	-12.029860	14.042216	8.646554	-12.608714	11.385553	0.609167	-5.068548	-1.204056	0.098877	0.160156	-0.879150	0.180392	-0.121830	0.144661	0.968205	-0.090226	-0.186835	-0.139755	-7.633971	-22.768525	-14.887974
48940		31.981733	-17.730948	15.143396	17.368030	-20.971340	18.908729	2.113878	-4.350439	-0.937620	0.061279	0.141602	-0.889648	0.315610	-0.180432	0.156434	0.964138	-0.082160	-0.209767	-0.140307	-6.323311	-25.311735	-15.138465
48941		28.953535	10.457619	18.977160	20.720924	7.061628	18.969926	2.447519	-2.703339	-0.544322	0.043945	0.125732	-0.893799	0.287203	0.101428	0.194918	0.961756	-0.071702	-0.224726	-0.139223	-4.845954	-26.886739	-15.314761
48942		13.141127	19.404033	17.407502	9.775483	18.759884	10.304763	1.211352	-1.289140	-0.626209	0.035400	0.110107	-0.891113	0.130885	0.192567	0.176089	0.960251	-0.066101	-0.232029	-0.140396	-4.000544	-27.656756	-15.651172
48943		8.224374	2.958933	11.419593	2.950817	3.037179	3.930272	0.237363	-1.057377	-0.428254	0.021729	0.114258	-0.891113	0.081701	0.029278	0.114664	0.958779	-0.065234	-0.237434	-0.141820	-3.759595	-28.280986	-15.880535
48944		6.614964	-3.976936	8.347249	0.707711	-3.774525	0.887864	0.277430	-0.774202	-0.162494	0.012939	0.111816	-0.897705	0.065794	-0.039939	0.083672	0.957813	-0.064283	-0.241443	-0.142012	-3.567851	-28.735887	-15.953014
48945		6.985984	-1.784059	9.755562	0.977511	-1.523591	2.182331	0.346802	-0.533387	-0.195553	0.015381	0.109619	-0.890869	0.069582	-0.018078	0.097710	0.957129	-0.062793	-0.244329	-0.142353	-3.320849	-29.050866	-16.058399
48946		6.862341	-0.117071	9.767195	1.317745	0.072141	2.051617	0.234571	-0.225333	-0.115146	0.008789	0.100586	-0.895264	0.068513	-0.001325	0.097748	0.956830	-0.061715	-0.245661	-0.142541	-3.156356	-29.189946	-16.124293
48947		4.359853	0.914596	9.654119	-0.447221	1.628414	0.684695	0.069038	-0.215867	-0.072199	0.013184	0.105225	-0.888672	0.043498	0.009097	0.096591	0.956527	-0.061478	-0.246789	-0.142731	-3.100737	-29.318900	-16.162528
48948		5.644135	-1.745568	8.813548	0.178620	-1.371912	0.707189	-0.003724	-0.207764	-0.072394	0.004150	0.107178	-0.890869	0.056343	-0.017474	0.088194	0.956203	-0.061580	-0.247854	-0.143013	-3.085582	-29.446495	-16.201623
48949		5.088700	-0.811840	8.708805	0.023509	-0.366318	0.299803	0.045324	-0.192188	-0.063154	-0.000244	0.104980	-0.895264	0.050801	-0.008154	0.087135	0.955926	-0.061451	-0.248848	-0.143195	-3.045796	-29.561588	-16.235003
48950		5.485224	-0.283741	8.659948	0.516876	0.030993	0.429126	0.015911	-0.175474	-0.072336	0.003906	0.111572	-0.897705	0.054775	-0.002864	0.086647	0.955645	-0.061436	-0.249772	-0.143463	-3.018682	-29.670719	-16.275367
48951		5.056427	-0.712439	8.617245	0.029354	-0.279834	0.199941	0.018790	-0.164714	-0.085170	0.001953	0.107178	-0.890869	0.050490	-0.007154	0.086213	0.955377	-0.061386	-0.250622	-0.143791	-2.986220	-29.770721	-16.324419
48952		5.222983	-0.350517	8.777269	0.184023	0.053500	0.405243	0.033040	-0.193954	-0.108988	-0.000488	0.111572	-0.886475	0.052143	-0.003548	0.087823	0.955050	-0.061257	-0.251658	-0.144206	-2.937324	-29.891513	-16.388567
48953		5.196864	-0.025706	8.745997	0.253985	0.362764	0.351189	0.018215	-0.207464	-0.088606	-0.009521	0.111328	-0.890869	0.051878	-0.000288	0.087514	0.954723	-0.061237	-0.252712	-0.144538	-2.904465	-30.016017	-16.438726
48954		5.131142	-0.315873	8.742061	0.088891	0.105165	0.327975	-0.001067	-0.221287	-0.065785	-0.009766	0.115723	-0.891113	0.051214	-0.003175	0.087477	0.954380	-0.061344	-0.253840	-0.144781	-2.889444	-30.151165	-16.473737
48955		5.321362	-0.279913	8.610475	0.296377	0.072408	0.308696	0.000365	-0.220352	-0.048491	-0.009277	0.106934	-0.890869	0.053118	-0.002812	0.086163	0.954057	-0.061469	-0.254930	-0.144940	-2.880086	-30.281859	-16.497126
48956		5.188508	-0.345971	8.523269	0.184087	0.031640	0.169872	-0.007038	-0.223819	-0.022169	-0.013916	0.111328	-0.895264	0.051789	-0.003462	0.085291	0.953738	-0.061662	-0.256052	-0.144981	-2.882909	-30.417223	-16.503285
48957		5.200750	-0.513716	8.422378	0.168800	-0.143239	0.096859	-0.005932	-0.211523	-0.017403	-0.009521	0.113525	-0.890869	0.051918	-0.005139	0.084279	0.953444	-0.061849	-0.257085	-0.145002	-2.887355	-30.541968	-16.506389
48958		5.098459	-0.462276	8.498351	0.043481	-0.048466	0.108284	-0.001196	-0.201858	-0.027086	-0.016113	0.108887	-0.888672	0.050898	-0.004629	0.085035	0.953149	-0.061992	-0.258108	-0.145066	-2.884761	-30.664941	-16.516562
48959		5.057982	-0.474360	8.491220	-0.010638	-0.045969	0.082097	-0.001217	-0.209910	-0.039498	-0.020752	0.111084	-0.897461	0.050490	-0.004753	0.084965	0.952841	-0.062127	-0.259143	-0.145187	-2.878942	-30.789400	-16.534446
48960		4.836348	-0.438574	8.541992	-0.228286	0.057220	0.010388	0.002127	-0.220831	-0.048515	-0.020996	0.115479	-0.890869	0.048268	-0.004398	0.085473	0.952504	-0.062240	-0.260265	-0.145342	-2.867375	-30.923859	-16.558330
48961		4.643305	-0.788495	8.538428	-0.517209	-0.224022	-0.077750	0.005434	-0.251592	-0.078232	-0.022949	0.111084	-0.886475	0.046322	-0.007905	0.085442	0.952113	-0.062324	-0.261514	-0.145625	-2.845010	-31.073269	-16.600799
48962		4.591186	-0.798628	8.568375	-0.605399	-0.211592	-0.080139	0.022455	-0.281103	-0.113832	-0.025391	0.113281	-0.888672	0.045787	-0.008022	0.085747	0.951653	-0.062298	-0.262957	-0.146046	-2.800019	-31.244019	-16.666584
48963		4.554985	-0.426141	8.607206	-0.569252	0.160692	-0.083170	0.022616	-0.319398	-0.155547	-0.027588	0.111084	-0.888672	0.045409	-0.004307	0.086144	0.951117	-0.062247	-0.264564	-0.146652	-2.741579	-31.434321	-16.759073
48964		4.548220	-0.649219	8.577651	-0.666787	-0.052245	-0.105142	-0.001076	-0.379607	-0.195480	-0.029785	0.115479	-0.888672	0.045313	-0.006536	0.085863	0.950454	-0.062298	-0.266481	-0.147460	-2.682303	-31.663499	-16.877213
48965		4.553237	-0.561703	8.533910	-0.655658	0.025494	-0.146023	-0.018711	-0.434598	-0.242569	-0.032227	0.117676	-0.895264	0.045340	-0.005664	0.085438	0.949679	-0.062412	-0.268631	-0.148498	-2.617450	-31.921874	-17.025633
48966		4.644549	-0.400396	8.680183	-0.652746	0.189111	0.016639	0.022086	-0.526388	-0.267795	-0.043457	0.119629	-0.888672	0.046211	-0.004076	0.086923	0.948760	-0.062364	-0.271281	-0.149571	-2.519680	-32.236609	-17.189530
48967		4.396806	-0.259911	8.670521	-0.861431	0.388587	-0.133637	-0.019584	-0.615069	-0.288636	-0.052490	0.119385	-0.893066	0.043697	-0.002654	0.086840	0.947691	-0.062554	-0.274295	-0.150770	-2.439015	-32.599054	-17.365819
48968		4.764697	-0.154309	8.562293	-0.544247	0.386065	-0.035503	-0.061476	-0.725932	-0.313097	-0.057129	0.121582	-0.890869	0.047333	-0.001591	0.085796	0.946416	-0.062988	-0.277836	-0.152106	-2.372388	-33.028628	-17.557295
48969		4.595392	0.063686	8.561946	-0.683527	0.652848	-0.141356	-0.107255	-0.828913	-0.314362	-0.063965	0.121338	-0.890869	0.045600	0.000611	0.085809	0.944974	-0.063717	-0.281796	-0.153476	-2.331922	-33.513768	-17.747849
48970		4.838829	-0.086681	8.457137	-0.569386	0.451731	-0.095899	-0.139761	-0.948069	-0.313589	-0.072998	0.125732	-0.888672	0.047985	-0.000883	0.084800	0.943325	-0.064688	-0.286314	-0.154847	-2.308977	-34.070204	-17.936456
48971		4.808894	-0.140366	8.616451	-0.788672	0.473221	0.012866	-0.150789	-1.079350	-0.297325	-0.086670	0.129883	-0.888672	0.047621	-0.001410	0.086423	0.941477	-0.065836	-0.291403	-0.156110	-2.299314	-34.698192	-18.111191
48972		5.075471	-0.237817	8.676701	-0.755248	0.363131	0.207220	-0.132951	-1.236687	-0.278094	-0.102295	0.129639	-0.890869	0.050214	-0.002390	0.087080	0.939379	-0.067046	-0.297255	-0.157200	-2.286025	-35.418886	-18.270165
48973		5.059501	-0.446416	8.607201	-0.926512	0.197144	0.136323	-0.118973	-1.396757	-0.281457	-0.114014	0.140381	-0.879883	0.049986	-0.004483	0.086425	0.937009	-0.068311	-0.303831	-0.158223	-2.264259	-36.228157	-18.428296
48974		4.863318	-0.181081	9.033485	-1.365446	0.640393	0.336780	-0.107400	-1.601258	-0.260955	-0.129639	0.140137	-0.884277	0.047905	-0.001825	0.090721	0.934285	-0.069707	-0.311375	-0.159054	-2.243723	-37.157001	-18.568757
48975		4.814790	-0.811231	9.281361	-1.925300	0.174673	0.494757	-0.078255	-1.868617	-0.238551	-0.152344	0.141846	-0.882080	0.047268	-0.008133	0.093261	0.931108	-0.071213	-0.320134	-0.159629	-2.218733	-38.235368	-18.687234
48976		4.831628	-0.192746	9.454559	-2.000487	0.858626	0.580909	-0.049532	-2.171007	-0.219143	-0.170410	0.145996	-0.877686	0.047284	-0.001956	0.095063	0.927367	-0.072846	-0.330306	-0.159944	-2.186942	-39.489198	-18.786132
48977		5.259826	0.063023	9.546908	-1.888283	1.094565	0.866417	-0.046686	-2.509833	-0.148646	-0.193115	0.154297	-0.871094	0.051395	0.000614	0.096119	0.923003	-0.074847	-0.341956	-0.159781	-2.191773	-40.932649	-18.824140
48978		5.081070	0.266827	9.352637	-2.094924	1.375543	0.534859	-0.035630	-2.865978	-0.101925	-0.220215	0.158203	-0.870850	0.049465	0.002660	0.094241	0.917894	-0.077144	-0.355200	-0.159222	-2.218905	-42.581545	-18.816912
48979		5.308398	0.342725	9.258310	-2.150753	1.473164	0.541388	0.049142	-3.249998	-0.046293	-0.254150	0.162109	-0.853027	0.051571	0.003392	0.093430	0.911972	-0.079442	-0.370147	-0.158070	-2.238041	-44.446498	-18.752037
48980		4.253475	-0.534363	10.034284	-4.011134	1.210114	0.261893	0.073360	-3.720621	-0.029369	-0.294678	0.167969	-0.850830	0.040658	-0.005387	0.101109	0.904915	-0.082003	-0.387158	-0.156564	-2.266546	-46.582767	-18.655862
48981		3.960983	-2.182376	10.401755	-5.403405	-0.057969	0.158755	0.263155	-4.246789	-0.179990	-0.335205	0.169189	-0.837402	0.037370	-0.021996	0.104798	0.896445	-0.083798	-0.406585	-0.155090	-2.108404	-49.021380	-18.669310
48982		4.415383	-1.677710	9.942456	-5.068592	0.308696	-0.047904	0.276213	-5.057779	-0.430841	-0.373535	0.175293	-0.819580	0.041585	-0.017007	0.100475	0.885636	-0.085603	-0.429551	-0.154292	-1.772561	-51.930929	-18.902097
48983		4.245826	-2.882088	10.602713	-6.596376	-0.476904	-0.067374	0.460156	-5.920824	-0.709041	-0.429443	0.165039	-0.799072	0.039194	-0.029209	0.107153	0.872162	-0.086600	-0.456253	-0.153840	-1.075794	-55.335625	-19.442890
48984		5.106497	-3.373081	11.161319	-7.376645	-0.809209	0.526325	0.621786	-6.906537	-0.966532	-0.499023	0.168213	-0.763184	0.047009	-0.034315	0.113177	0.855382	-0.086968	-0.487011	-0.153554	0.087975	-59.301841	-20.404242
48985		5.826813	-3.908825	10.518331	-7.450594	-1.504263	0.287421	0.904412	-7.790588	-1.229392	-0.557129	0.160156	-0.729492	0.053875	-0.039910	0.107160	0.835177	-0.086047	-0.521186	-0.153102	2.055418	-63.755255	-22.054296
48986		7.684446	-1.474074	12.345488	-8.306039	1.164886	2.151870	0.981049	-8.594749	-1.436819	-0.621826	0.147705	-0.682373	0.071339	-0.015882	0.126524	0.811273	-0.084796	-0.557949	-0.152771	5.177212	-68.623671	-24.863441
48987		11.260567	-3.236305	13.028099	-9.515348	-0.621389	4.879572	0.605014	-9.067340	-1.522408	-0.688965	0.146240	-0.626465	0.106300	-0.033592	0.135096	0.784202	-0.084959	-0.595250	-0.153254	10.074462	-73.664815	-29.669668
48988		18.415999	-0.955712	15.965985	-11.324136	1.761822	11.709232	0.527358	-9.268688	-1.773872	-0.746826	0.133789	-0.568115	0.176407	-0.011581	0.167928	0.754583	-0.084730	-0.632078	-0.154605	19.907091	-78.553347	-39.492457
48989		17.759444	-1.355213	16.569431	-14.010041	2.057537	9.957174	-0.071409	-9.067718	-1.797009	-0.793945	0.135010	-0.499268	0.169713	-0.015040	0.173515	0.723692	-0.086266	-0.666324	-0.157608	41.245786	-82.576965	-61.147994
48990		21.460266	0.701410	21.443342	-19.465249	5.716843	12.741498	-0.457184	-8.710455	-1.618294	-0.833984	0.127441	-0.441162	0.205049	0.005833	0.223490	0.692464	-0.089458	-0.697507	-0.161166	83.801897	-84.172738	-104.244060
48991		18.985706	-3.473366	20.961410	-22.073521	2.387558	8.033369	-0.197513	-8.158544	-2.206226	-0.876221	0.117432	-0.378662	0.180703	-0.036549	0.217147	0.661514	-0.088968	-0.725965	-0.165706	119.625712	-81.873105	-140.427625
48992		13.886255	-4.916719	15.739061	-18.334841	-0.159365	1.513695	0.309109	-7.298413	-3.021683	-0.895264	0.088135	-0.329102	0.132235	-0.051447	0.162219	0.632157	-0.082987	-0.751117	-0.171213	133.024926	-77.977170	-153.850689
48993		17.376502	14.106841	34.092981	-30.153034	23.879047	3.738867	-0.875641	-5.520928	-3.895238	-0.903320	0.065674	-0.295166	0.167002	0.139276	0.344990	0.607340	-0.075831	-0.769008	-0.184430	135.401193	-74.168906	-156.817049
48994		38.430611	5.049858	44.655109	-48.555742	17.246422	19.193467	-2.972708	-1.398637	-4.322302	-0.891357	0.043701	-0.310303	0.382242	0.048879	0.448495	0.596658	-0.069534	-0.771835	-0.208409	130.112942	-71.810017	-153.074315
48995		7.967951	-16.966640	24.711934	-30.360725	-6.144521	-11.383725	-3.067915	1.444988	-3.820227	-0.855469	0.040039	-0.339111	0.078263	-0.167359	0.249130	0.596971	-0.062442	-0.765416	-0.232088	122.597745	-70.535220	-146.995437
48996		1.857207	-21.427927	16.724385	-23.337394	-11.956626	-17.208788	-1.235150	2.094931	-2.987046	-0.805664	0.034424	-0.377197	0.017139	-0.213505	0.168380	0.601089	-0.052299	-0.758458	-0.246371	116.647937	-69.647578	-141.428178
48997		1.162756	-19.131075	13.366599	-19.324111	-11.153769	-16.754421	0.194579	2.247494	-1.545201	-0.743164	0.040039	-0.399658	0.011648	-0.191531	0.133349	0.607682	-0.043109	-0.752288	-0.250852	112.643941	-69.379265	-137.037901
48998		4.193587	-13.482732	13.697783	-18.265318	-6.986120	-11.947037	0.759553	2.540525	0.228182	-0.637939	0.053223	-0.405029	0.043821	-0.135296	0.135916	0.617714	-0.038526	-0.745330	-0.247847	109.503993	-70.034586	-133.234273
48999		6.018532	-9.812610	13.469460	-17.069339	-4.575272	-8.545935	0.650107	3.170674	1.845077	-0.534424	0.052979	-0.361084	0.063211	-0.097987	0.133390	0.631815	-0.039486	-0.735870	-0.240304	105.829725	-71.594233	-128.952886
49000		4.966342	-8.757837	11.892906	-14.928110	-4.240303	-8.423531	0.583458	3.834658	2.875478	-0.460693	0.009766	-0.253906	0.053183	-0.087175	0.117677	0.649400	-0.043664	-0.723586	-0.229774	100.469585	-73.711089	-122.996425
49001		4.067588	-6.727945	10.562073	-12.698920	-2.939109	-7.962440	0.805296	4.368999	3.294169	-0.531250	-0.078857	-0.116211	0.044071	-0.066994	0.104412	0.668897	-0.047959	-0.709344	-0.217042	92.569572	-75.877208	-114.336929
49002		3.442260	-3.105863	9.954398	-10.626773	0.047210	-7.051632	0.990478	4.822858	3.329573	-0.748047	-0.169678	-0.077637	0.037323	-0.030943	0.098514	0.689654	-0.051262	-0.693075	-0.203461	80.850022	-77.640450	-101.725795
49003		2.998021	0.079734	9.406577	-8.829465	2.691776	-6.312477	0.863640	5.182555	3.155142	-0.974854	-0.184814	-0.240479	0.032390	0.000892	0.093251	0.710699	-0.053949	-0.674967	-0.190832	65.352020	-78.517693	-85.388158
49004		3.185292	1.572214	8.808598	-7.583824	3.711718	-5.465260	0.549082	5.421161	2.864617	-1.025146	-0.114014	-0.479248	0.033998	0.015959	0.087227	0.731636	-0.056526	-0.655019	-0.180178	48.529713	-78.192334	-67.903861
49005		4.281567	1.681891	8.383021	-6.820474	3.385444	-4.030391	0.238625	5.611069	2.501695	-0.913330	-0.046875	-0.645508	0.044931	0.017273	0.082610	0.751967	-0.058792	-0.633711	-0.171753	34.242000	-76.718996	-53.134367
49006		5.496720	1.172407	8.176944	-6.275366	2.550649	-2.564341	0.066915	5.804937	2.127301	-0.756348	0.018555	-0.723145	0.057180	0.012297	0.080135	0.771944	-0.060322	-0.610886	-0.165173	23.803282	-74.379619	-42.326474
49007		6.492300	0.744407	8.202448	-5.785532	1.894350	-1.275091	0.032912	5.993986	1.809948	-0.598145	0.054932	-0.738037	0.067271	0.008033	0.080033	0.791358	-0.060771	-0.586955	-0.159820	16.760928	-71.515370	-34.946466
49008		7.443990	0.805532	8.486311	-5.221948	1.759215	0.070407	0.035001	6.154640	1.607399	-0.437988	0.100342	-0.724365	0.076936	0.008652	0.082522	0.810407	-0.060453	-0.561706	-0.155152	11.915324	-68.307281	-29.775486
49009		8.427120	1.225335	9.156471	-4.718756	2.040839	1.583634	-0.003867	6.308123	1.504434	-0.271240	0.152100	-0.639648	0.087007	0.012903	0.088849	0.828845	-0.059797	-0.535416	-0.150897	8.468474	-64.904207	-26.027043
49010		9.454889	1.524445	9.669870	-3.912655	2.139312	3.043296	-0.104907	6.465766	1.439317	-0.221191	0.201660	-0.501221	0.097495	0.015989	0.093570	0.846840	-0.059223	-0.507667	-0.147068	5.860798	-61.311742	-23.179939
49011		10.299620	1.415563	10.014230	-2.995070	1.828553	4.186632	-0.208161	6.622491	1.350636	-0.305664	0.239990	-0.461670	0.106136	0.014967	0.096647	0.864081	-0.058657	-0.478809	-0.143757	3.883972	-57.599507	-21.027381
49012		10.684123	0.770241	10.387216	-2.344208	1.086191	4.880096	-0.265818	6.726704	1.243899	-0.353271	0.308105	-0.525146	0.110201	0.008516	0.100192	0.880572	-0.057960	-0.448751	-0.140912	2.365357	-53.769839	-19.382511
49013		11.241206	-0.135857	11.042897	-1.793752	0.106397	5.839904	-0.229151	6.740237	1.189447	-0.311768	0.400146	-0.549561	0.116052	-0.000552	0.106559	0.895936	-0.056883	-0.418333	-0.138061	1.209225	-49.934172	-18.083489
49014		12.134645	-0.371890	12.194322	-1.051413	-0.217688	7.357722	-0.136804	6.699740	1.245836	-0.324707	0.448242	-0.401855	0.125359	-0.002865	0.117790	0.910318	-0.055488	-0.387461	-0.134594	0.270716	-46.084449	-16.936091
49015		13.439070	-0.714273	13.841946	-0.202556	-0.647166	9.477659	-0.085243	6.631029	1.362730	-0.690186	0.374268	-0.294189	0.138924	-0.006149	0.133866	0.923524	-0.054050	-0.356651	-0.130319	-0.532518	-42.286488	-15.858123
49016		15.078439	-0.695785	16.058343	0.923096	-0.708011	12.191405	-0.024113	6.557585	1.538586	-1.248779	0.202637	-0.787109	0.155987	-0.005752	0.155526	0.935747	-0.052642	-0.325564	-0.124956	-1.256124	-38.495073	-14.773539
49017		18.078884	-0.387530	19.228091	2.982062	-0.599778	16.401968	-0.002987	6.504969	1.723412	-1.064941	0.172852	-1.582031	0.186937	-0.002279	0.186267	0.946872	-0.051396	-0.294519	-0.118538	-1.918406	-34.745167	-13.671154
49018		23.832811	0.490939	21.147431	8.659954	-0.673971	20.840658	0.014219	6.595061	1.809685	-0.431885	0.245361	-1.719727	0.245069	0.007092	0.203467	0.957152	-0.050092	-0.262493	-0.111573	-2.492754	-30.908523	-12.608448
49019		31.540818	3.866118	20.784340	18.290287	1.038857	23.437316	-0.073128	6.925397	1.757620	-0.015381	0.295166	-1.491943	0.321993	0.041545	0.196753	0.966584	-0.048881	-0.228733	-0.104919	-2.988759	-26.900049	-11.675002
49020		39.474373	6.652435	18.193928	29.394294	1.942343	22.817909	-0.647143	7.595739	1.415329	0.197510	0.325195	-1.242920	0.400779	0.069902	0.166570	0.975158	-0.049637	-0.191007	-0.100592	-3.622703	-22.489282	-11.058514
49021		37.994938	4.195967	10.418845	32.543069	-1.306392	12.728215	-1.217777	8.272877	0.832656	0.293945	0.339844	-1.057129	0.383636	0.044121	0.088103	0.982308	-0.052192	-0.149720	-0.099654	-4.377144	-17.730740	-10.902527
49022		33.464420	3.197406	0.041588	32.321397	-3.083571	-1.135949	-1.277120	8.066920	0.025584	0.334229	0.349365	-0.942139	0.334289	0.031961	-0.013279	0.987220	-0.054447	-0.109209	-0.102498	-5.013531	-13.108021	-11.278620
49023		31.178788	7.136842	-10.006700	33.212011	-0.565028	-14.211911	-1.391636	6.958104	-0.782292	0.347900	0.351563	-0.884521	0.308319	0.069409	-0.111323	0.989608	-0.057314	-0.074326	-0.108939	-5.653092	-9.183346	-12.109651
49024		33.938806	12.086688	-18.035166	37.521616	1.912541	-24.345136	-2.021969	5.448270	-1.306858	0.358154	0.374023	-0.860596	0.335058	0.116775	-0.190714	0.989906	-0.063865	-0.046517	-0.117658	-6.670705	-6.149537	-13.197734
49025		38.146052	11.931611	-23.752427	41.136292	-1.029696	-31.444813	-2.731145	4.033450	-1.407382	0.364014	0.398438	-0.841309	0.377358	0.113323	-0.246738	0.988825	-0.074687	-0.025408	-0.126499	-8.141388	-3.964854	-14.298017
49026		40.400815	5.031594	-28.726049	40.751399	-10.165940	-36.616090	-2.429652	2.620874	-1.340691	0.372314	0.423096	-0.828613	0.400502	0.044086	-0.293085	0.987223	-0.084879	-0.011362	-0.134379	-9.480005	-2.593291	-15.287615
49027		36.557951	1.708344	-30.338308	35.423477	-13.559329	-38.466889	-1.094145	1.032143	-1.285245	0.367432	0.434082	-0.826660	0.364100	0.013074	-0.305343	0.985904	-0.089535	-0.006102	-0.141205	-10.075474	-2.138590	-16.112879
49028		29.886008	3.342133	-23.874888	29.381769	-9.553981	-32.611089	0.137524	-0.862339	-1.199160	0.346924	0.435791	-0.824219	0.300080	0.031788	-0.237435	0.985065	-0.089457	-0.010986	-0.146710	-9.974908	-2.745022	-16.702432
49029		17.109251	-2.620436	-14.591005	15.700811	-10.014064	-22.683977	0.907870	-2.506820	-0.835534	0.311035	0.433105	-0.837402	0.172795	-0.026268	-0.143870	0.984623	-0.086796	-0.024394	-0.149628	-9.443401	-4.244516	-16.930935
49030		-6.991208	5.796948	8.614267	-5.314556	8.996801	-2.921833	1.363094	-4.324315	-0.099224	0.270752	0.427734	-0.852539	-0.071730	0.057423	0.084997	0.984357	-0.083324	-0.046767	-0.148022	-8.698272	-6.703896	-16.593068
49031		-3.920147	7.921748	21.807257	-3.327901	12.578783	9.790414	-0.008716	-4.675413	0.461485	0.227783	0.435791	-0.861328	-0.044467	0.079128	0.217071	0.983328	-0.086939	-0.069588	-0.143754	-8.800226	-9.314408	-15.916209
49032		-2.633355	7.062011	5.232775	-1.141522	8.405907	-6.317704	-0.314449	-5.861065	0.211868	0.173340	0.450439	-0.874756	-0.027924	0.070672	0.051414	0.980877	-0.092759	-0.098074	-0.140204	-9.107741	-12.615504	-15.260307
49033		19.719915	8.245459	11.512636	18.604524	5.318184	4.843864	-0.401513	-6.620660	-0.618674	0.109863	0.467041	-0.883789	0.193503	0.082092	0.121408	0.976463	-0.099041	-0.130513	-0.140277	-9.408358	-16.419527	-14.989762
49034		24.102851	-5.014717	15.717111	16.638999	-6.930445	13.165855	-0.211526	-5.459449	-1.161188	0.064453	0.477295	-0.892578	0.236323	-0.051358	0.163719	0.971595	-0.103122	-0.157570	-0.143321	-9.484711	-19.618017	-15.139063
49035		20.544592	-16.397151	13.090721	9.407664	-17.114923	12.113322	0.455671	-5.059538	-0.963812	0.019043	0.485352	-0.903809	0.201260	-0.165254	0.135659	0.966823	-0.103768	-0.182940	-0.144980	-9.198099	-22.571151	-15.217109
49036		31.649192	-18.177435	15.267246	16.853871	-20.863571	19.267773	2.145703	-4.387156	-0.763975	-0.011475	0.462402	-0.911865	0.312369	-0.184646	0.157584	0.963062	-0.095874	-0.206090	-0.144383	-7.945791	-25.127898	-15.279047
49037		26.736783	8.660112	16.455832	19.572167	5.655610	15.593417	2.582655	-2.777445	-0.683232	-0.028564	0.437744	-0.922363	0.265327	0.083526	0.169344	0.960759	-0.084750	-0.221640	-0.143646	-6.376799	-26.758699	-15.488778
49038		15.458588	14.176174	16.873982	10.764852	13.423265	10.889236	1.426180	-1.466507	-0.721612	-0.039795	0.435303	-0.926758	0.153845	0.139992	0.170872	0.959145	-0.078181	-0.230074	-0.144894	-5.395954	-27.645817	-15.852370
49039		10.191629	3.249519	12.053591	4.565124	3.187200	5.310656	0.606167	-1.047545	-0.495364	-0.050781	0.430664	-0.931152	0.101362	0.031877	0.121165	0.957791	-0.075490	-0.235749	-0.146154	-4.930591	-28.272269	-16.109757
49040		7.538835	-1.572515	9.777766	1.633020	-1.256178	2.461918	0.436170	-0.680611	-0.206562	-0.050781	0.428467	-0.928711	0.075039	-0.016016	0.097999	0.956973	-0.073677	-0.239482	-0.146368	-4.636020	-28.680421	-16.206093
49041		8.345250	0.741521	9.970543	2.881514	0.747676	2.865731	0.366455	-0.333092	-0.139509	-0.059570	0.423828	-0.937500	0.083291	0.007174	0.099858	0.956596	-0.072028	-0.241418	-0.146468	-4.393862	-28.880130	-16.278414
49042		5.747057	-1.008866	9.641937	0.247430	-0.363987	1.448734	0.209491	-0.187868	-0.097440	-0.059570	0.423828	-0.933105	0.057375	-0.010218	0.096463	0.956350	-0.071069	-0.242587	-0.146611	-4.249110	-29.001697	-16.331989
49043		4.931801	-0.482400	9.249805	-0.122001	0.240344	0.677383	0.142390	-0.155406	-0.066006	-0.059570	0.423828	-0.930908	0.049245	-0.004906	0.092533	0.956156	-0.070450	-0.243481	-0.146693	-4.153523	-29.096438	-16.366234
49044		5.453130	-0.341159	9.031091	0.435815	0.193446	0.731801	0.070679	-0.145314	-0.082988	-0.064209	0.426025	-0.937500	0.054464	-0.003466	0.090349	0.955921	-0.070141	-0.244339	-0.146950	-4.091485	-29.192948	-16.412930
49045		5.223268	-1.239935	8.890815	0.005069	-0.634212	0.553810	0.058787	-0.130310	-0.081581	-0.066162	0.421387	-0.937500	0.052170	-0.012447	0.088938	0.955715	-0.069884	-0.245057	-0.147217	-4.037994	-29.273906	-16.458864
49046		5.079899	-0.381157	8.892890	0.136161	0.211515	0.432840	0.053294	-0.159957	-0.087857	-0.066162	0.423828	-0.939697	0.050726	-0.003858	0.088968	0.955450	-0.069662	-0.245974	-0.147512	-3.984426	-29.378949	-16.508357
49047		5.265113	-0.199090	8.759470	0.389378	0.309707	0.397200	0.019877	-0.173652	-0.072764	-0.061768	0.421631	-0.928467	0.052574	-0.002019	0.087640	0.955182	-0.069634	-0.246867	-0.147770	-3.956784	-29.484265	-16.546772
49048		5.058500	-0.605557	8.692215	0.097656	-0.035815	0.261977	0.009300	-0.189924	-0.073471	-0.066162	0.423828	-0.935303	0.050500	-0.006078	0.086970	0.954873	-0.069662	-0.247889	-0.148040	-3.933401	-29.605851	-16.585741
49049		5.193933	-0.461539	8.624209	0.266927	0.055219	0.261667	0.009839	-0.185500	-0.074619	-0.070801	0.423584	-0.935303	0.051858	-0.004639	0.086290	0.954583	-0.069688	-0.248831	-0.148315	-3.910943	-29.717985	-16.625032
49050		5.054222	-0.496167	8.583248	0.137495	0.051482	0.159369	0.005702	-0.184810	-0.061240	-0.073242	0.427979	-0.930908	0.050461	-0.004980	0.085879	0.954287	-0.069744	-0.249822	-0.148533	-3.893253	-29.836175	-16.656384
49051		5.113886	-0.638838	8.538253	0.143041	-0.104091	0.158791	0.004488	-0.186155	-0.047823	-0.070801	0.421387	-0.939697	0.051058	-0.006403	0.085430	0.954012	-0.069829	-0.250753	-0.148686	-3.882461	-29.947622	-16.678145
49052		5.095986	-0.449304	8.540613	0.167681	0.084658	0.141091	0.001839	-0.181194	-0.029306	-0.079834	0.425781	-0.935303	0.050882	-0.004501	0.085452	0.953740	-0.069941	-0.251712	-0.148757	-3.877266	-30.062522	-16.688713
49053		5.053072	-0.559773	8.464682	0.114068	-0.019459	0.060727	-0.010957	-0.178933	-0.021331	-0.077393	0.421387	-0.937256	0.050454	-0.005598	0.084692	0.953488	-0.070128	-0.252588	-0.148805	-3.883838	-30.168810	-16.693356
49054		5.058352	-0.649801	8.445074	0.080494	-0.103871	0.051954	-0.012114	-0.173061	-0.024184	-0.073242	0.430176	-0.935303	0.050510	-0.006499	0.084495	0.953223	-0.070306	-0.253496	-0.148872	-3.888101	-30.278885	-16.700928
49055		5.050121	-0.640710	8.442331	0.061790	-0.088647	0.045075	-0.006439	-0.154391	-0.036167	-0.077637	0.427979	-0.935303	0.050435	-0.006414	0.084462	0.952990	-0.070434	-0.254263	-0.148994	-3.886554	-30.371722	-16.716496
49056		4.874690	-0.742470	8.479104	-0.149328	-0.130053	-0.006065	0.002967	-0.147358	-0.053925	-0.080078	0.430176	-0.937500	0.048682	-0.007439	0.084827	0.952740	-0.070484	-0.255070	-0.149193	-3.871578	-30.468273	-16.744969
49057		4.720259	-0.996253	8.407510	-0.340090	-0.346095	-0.131565	0.025605	-0.133576	-0.094867	-0.082031	0.425537	-0.939697	0.047142	-0.009996	0.084105	0.952500	-0.070369	-0.255781	-0.149560	-3.831333	-30.551461	-16.800514
49058		4.867250	-0.988775	8.401430	-0.232026	-0.379599	-0.063130	0.046150	-0.155018	-0.136350	-0.079834	0.425781	-0.937500	0.048601	-0.009940	0.084050	0.952192	-0.070113	-0.256685	-0.150093	-3.763771	-30.655457	-16.883582
49059		4.802721	-0.611740	8.398532	-0.180794	-0.014351	-0.120279	0.064693	-0.129925	-0.192326	-0.091064	0.423340	-0.941895	0.047967	-0.006191	0.084014	0.951895	-0.069684	-0.257443	-0.150875	-3.667637	-30.740063	-17.004424
49060		5.011286	-0.869111	8.293102	-0.064058	-0.341194	-0.090377	0.063429	-0.161169	-0.221254	-0.084229	0.425537	-0.941895	0.050036	-0.008773	0.082969	0.951518	-0.069242	-0.258418	-0.151788	-3.560875	-30.850388	-17.144275
49061		4.973584	-0.378076	8.340190	0.021073	0.132011	-0.095675	0.057070	-0.152554	-0.248032	-0.093262	0.423096	-0.937256	0.049667	-0.003866	0.083439	0.951144	-0.068794	-0.259295	-0.152836	-3.449834	-30.949505	-17.301936
49062		4.859419	-0.275088	8.433936	-0.105837	0.269106	-0.079382	0.037845	-0.182179	-0.242114	-0.093506	0.427734	-0.937500	0.048514	-0.002826	0.084383	0.950711	-0.068463	-0.260356	-0.153873	-3.350117	-31.072100	-17.455657
49063		4.787790	-0.437853	8.433889	-0.241164	0.127335	-0.108528	0.015974	-0.201575	-0.260821	-0.095459	0.425293	-0.935059	0.047787	-0.004448	0.084387	0.950244	-0.068231	-0.261439	-0.155018	-3.258214	-31.199204	-17.620770
49064		4.789566	-0.542283	8.313729	-0.244089	-0.001461	-0.205791	0.008625	-0.239347	-0.254790	-0.100098	0.425293	-0.939453	0.047789	-0.005487	0.083194	0.949711	-0.068065	-0.262752	-0.156133	-3.170816	-31.354438	-17.781747
49065		4.412698	-0.742082	8.291326	-0.634964	-0.099035	-0.412921	-0.002402	-0.268668	-0.287242	-0.100098	0.429688	-0.935303	0.044005	-0.007483	0.082973	0.949124	-0.067937	-0.264146	-0.157404	-3.080222	-31.520311	-17.963112
49066		4.288905	-0.488644	8.490213	-0.780982	0.212639	-0.322591	0.010790	-0.350906	-0.305561	-0.106689	0.425049	-0.932861	0.042732	-0.004956	0.084977	0.948397	-0.067781	-0.266004	-0.158717	-2.974288	-31.740386	-18.155439
49067		4.227084	-0.288970	8.659537	-0.887978	0.453160	-0.223877	0.005739	-0.458175	-0.336827	-0.109131	0.427246	-0.935059	0.042067	-0.002963	0.086692	0.947510	-0.067698	-0.268317	-0.160147	-2.862807	-32.015584	-18.365273
49068		4.634876	-0.492501	8.671208	-0.690353	0.159416	0.006283	0.006684	-0.590964	-0.325476	-0.116211	0.433838	-0.937500	0.046084	-0.005003	0.086848	0.946430	-0.067725	-0.271311	-0.161476	-2.753475	-32.372812	-18.565314
49069		4.180732	-0.143425	9.151700	-1.239750	0.722690	0.146878	0.007530	-0.759794	-0.309533	-0.125000	0.431396	-0.937256	0.041457	-0.001502	0.091675	0.945136	-0.067911	-0.275038	-0.162668	-2.652384	-32.819224	-18.749826
49070		4.245238	-0.266681	9.220991	-1.353184	0.623584	0.232165	-0.015149	-0.971957	-0.290810	-0.133789	0.426758	-0.935059	0.042000	-0.002721	0.092415	0.943521	-0.068394	-0.279793	-0.163729	-2.570325	-33.392847	-18.917875
49071		4.525795	-0.177369	9.405090	-1.303388	0.701806	0.520621	-0.041425	-1.225386	-0.287653	-0.143066	0.433350	-0.928467	0.044678	-0.001819	0.094326	0.941530	-0.069218	-0.285655	-0.164717	-2.508232	-34.104760	-19.077085
49072		4.540231	-0.179980	9.585223	-1.524182	0.777879	0.655943	-0.039522	-1.506187	-0.254641	-0.158691	0.430664	-0.926025	0.044676	-0.001838	0.096191	0.939103	-0.070300	-0.292869	-0.165445	-2.457439	-34.982720	-19.208408
49073		4.408264	-0.166615	9.837598	-1.922521	0.938805	0.754156	-0.038397	-1.831558	-0.226871	-0.178955	0.432617	-0.926025	0.043177	-0.001697	0.098774	0.936171	-0.071689	-0.301527	-0.165912	-2.422093	-36.039916	-19.311648
49074		4.626854	-0.513595	9.830086	-2.079378	0.624404	0.844875	-0.046352	-2.203910	-0.208131	-0.197266	0.441162	-0.915039	0.045176	-0.005160	0.098804	0.932576	-0.073437	-0.311933	-0.166155	-2.400579	-37.315709	-19.393853
49075		4.606358	-0.170590	9.899637	-2.253235	1.049756	0.820506	0.011827	-2.572859	-0.180653	-0.221680	0.436279	-0.914795	0.044783	-0.001753	0.099578	0.928330	-0.075260	-0.324002	-0.166017	-2.364341	-38.796087	-19.445898
49076		4.643083	0.366218	9.905784	-2.315595	1.639696	0.758866	-0.027669	-2.934530	-0.134817	-0.244385	0.442383	-0.908203	0.044973	0.003645	0.099724	0.923327	-0.077618	-0.337685	-0.165566	-2.374916	-40.487962	-19.455885
49077		5.351417	0.069908	9.630825	-2.063670	1.226087	0.940091	0.028849	-3.308453	-0.092550	-0.280518	0.448242	-0.894775	0.051912	0.000661	0.097176	0.917539	-0.080086	-0.352993	-0.164635	-2.384746	-42.387342	-19.420022
49078		4.266473	-0.436737	10.269649	-3.752672	1.308560	0.582016	0.108153	-3.745046	-0.089074	-0.312012	0.445557	-0.890137	0.040730	-0.004442	0.103469	0.910710	-0.082520	-0.370301	-0.163326	-2.359542	-44.541705	-19.368226
49079		4.178240	-1.862940	11.225149	-5.349882	0.389592	1.056394	0.123669	-4.287580	-0.198710	-0.348145	0.449219	-0.872314	0.039345	-0.018739	0.113101	0.902439	-0.085100	-0.389942	-0.162194	-2.277712	-47.004113	-19.387180
49080		3.643346	-1.787253	10.020482	-5.303981	0.367787	-0.400630	0.430343	-4.959480	-0.427547	-0.384033	0.450684	-0.849854	0.033896	-0.018164	0.101028	0.892297	-0.086339	-0.412784	-0.161126	-1.872039	-49.860269	-19.601514
49081		4.185313	-3.317634	10.995040	-6.736267	-0.781871	0.355115	0.533386	-5.828189	-0.692621	-0.448975	0.447021	-0.827393	0.038512	-0.033609	0.111016	0.879541	-0.087216	-0.439353	-0.160529	-1.182931	-53.212216	-20.094324
49082		4.863247	-3.255344	11.122357	-7.074260	-0.702595	0.548543	0.778452	-6.795073	-1.056597	-0.498291	0.443848	-0.787109	0.044646	-0.033233	0.112657	0.863553	-0.086894	-0.470100	-0.160410	0.078217	-57.117921	-21.088695
49083		5.302585	-4.894419	11.287653	-8.323892	-2.149086	0.458199	0.972294	-7.707015	-1.391869	-0.562744	0.429199	-0.742188	0.048287	-0.049846	0.114558	0.844062	-0.085567	-0.504406	-0.160661	2.118743	-61.521328	-22.814985
49084		6.666376	-3.216280	13.356906	-9.746518	-0.078677	1.936416	1.213587	-8.575659	-1.677477	-0.623291	0.429932	-0.686279	0.060587	-0.033509	0.136054	0.820765	-0.083046	-0.541824	-0.160858	5.438357	-66.367764	-25.735299
49085		11.655474	-3.099933	13.486879	-9.245754	-0.624866	5.719447	0.945434	-9.068713	-1.817541	-0.683838	0.424072	-0.625977	0.109997	-0.032672	0.139805	0.794233	-0.081474	-0.579975	-0.161818	10.515598	-71.376618	-30.595082
49086		18.095907	-0.687725	16.942320	-11.452528	1.940587	12.087111	0.850827	-9.127528	-1.985587	-0.732666	0.411865	-0.550049	0.172898	-0.009364	0.177402	0.765619	-0.079660	-0.617090	-0.163344	19.429988	-76.152538	-39.365280
49087		17.134594	-1.095361	16.472203	-13.236694	1.908437	9.856546	0.124583	-9.007836	-1.898659	-0.781738	0.410645	-0.460938	0.163586	-0.012637	0.172201	0.735505	-0.080625	-0.651782	-0.166470	35.617702	-80.271963	-55.816242
49088		21.260545	0.025789	21.269078	-18.761863	4.449338	13.252985	-0.101522	-8.502645	-1.827020	-0.819092	0.389648	-0.371582	0.203304	-0.001517	0.221468	0.705536	-0.082072	-0.683084	-0.169941	65.380275	-82.646265	-85.952991
49089		19.548227	-6.333506	21.076338	-22.562916	-0.932603	9.055838	0.333334	-7.758348	-2.551660	-0.853760	0.359863	-0.292969	0.186286	-0.066111	0.218001	0.676405	-0.078733	-0.711219	-0.174484	99.639153	-81.737306	-120.322526
49090		11.794909	-3.426598	19.708872	-20.855673	2.294899	0.128391	1.036571	-6.696688	-3.427364	-0.876709	0.317139	-0.214355	0.110647	-0.037238	0.200688	0.649537	-0.068858	-0.735589	-0.179636	117.669058	-78.615118	-138.010654
