// General information: 
//  MT Manager version: 2019.2.0 
//  XDA version: 2019.2.0 build 3853 rev 94535 built on 2019-09-09
// Device information: 
//  DeviceId: 00B40AC5
//  ProductCode: MTW2-3A7G6
//  Firmware Version: 4.3.5
//  Hardware Version: 1.1.0
// Device settings: 
//  Filter Profile: human(46.1)
//  Option Flags: Orientation Smoother Disabled, AHS Disabled, ICC Disabled
// Coordinate system: ENU
PacketCounter	SampleTimeFine	Acc_X	Acc_Y	Acc_Z	FreeAcc_E	FreeAcc_N	FreeAcc_U	Gyr_X	Gyr_Y	Gyr_Z	Mag_X	Mag_Y	Mag_Z	VelInc_X	VelInc_Y	VelInc_Z	Quat_q0	Quat_q1	Quat_q2	Quat_q3	Roll	Pitch	Yaw
23654		19.591165	-2.584510	25.034230	25.180096	11.747365	5.803960	1.851841	-5.192953	2.346601	-0.436523	0.188965	0.766602	0.449814	-0.065957	0.654420	0.090553	-0.765271	-0.134776	-0.622893	171.964967	-77.897158	26.474813
23655		14.045459	17.834369	26.520955	32.875790	-6.576642	-0.113500	3.234408	3.833881	1.308665	-0.512695	0.248291	0.664551	0.375851	0.425061	0.662872	0.137890	-0.732449	-0.142689	-0.651264	-171.920780	-83.406598	14.845949
23656		-2.716722	8.527703	14.453510	16.454586	-2.184194	-13.449347	0.112284	5.640695	1.577006	-0.574707	0.281250	0.545898	-0.046418	0.211624	0.365416	0.161380	-0.687236	-0.118999	-0.698213	-64.038264	-86.451998	-93.080405
23657		2.282141	1.528134	10.356861	9.902341	2.408686	-6.538498	0.590344	6.260409	0.047361	-0.640137	0.285156	0.412598	0.077034	0.036359	0.253684	0.175621	-0.629394	-0.110693	-0.748844	-16.790836	-78.966631	-139.737800
23658		3.571279	2.823152	8.671412	7.970398	0.189766	-4.147278	0.316883	7.119136	-1.336313	-0.681885	0.260498	0.267090	0.109216	0.068028	0.207922	0.174700	-0.557679	-0.108030	-0.804241	-3.403034	-69.189795	-153.141374
23659		6.120678	-0.801996	8.446506	4.204366	2.613615	-0.612549	-0.604405	7.388168	-1.896183	-0.703125	0.220703	0.128662	0.171094	-0.022446	0.196066	0.160592	-0.479667	-0.098493	-0.856988	1.623806	-58.624399	-159.684429
23660		8.419001	-3.703200	10.196818	1.462760	4.949058	2.894697	-0.439268	7.531786	-1.942254	-0.703857	0.174316	0.008301	0.230889	-0.096700	0.234325	0.145666	-0.395252	-0.089783	-0.902495	3.996398	-47.695815	-163.429875
23661		14.408838	-4.307387	12.779762	-3.734590	4.544942	8.996721	0.556427	7.499564	-1.334823	-0.688965	0.135010	-0.145508	0.386045	-0.116045	0.283287	0.141100	-0.306380	-0.088499	-0.937225	5.693975	-36.817490	-164.773191
23662		22.304200	-0.447803	12.285093	-12.713938	-1.550137	12.156167	1.326184	7.426929	-0.741055	-0.631348	0.089355	-0.290283	0.582656	-0.021023	0.253463	0.145060	-0.214889	-0.093266	-0.961292	7.485096	-26.116699	-164.575982
23663		27.462724	-0.720967	8.642975	-22.256488	-3.911565	7.984410	0.939900	6.632378	-1.525302	-0.564941	0.050537	-0.397461	0.700744	-0.033391	0.157991	0.136455	-0.130973	-0.096183	-0.977228	9.131042	-16.393337	-165.419869
23664		32.564803	3.372089	-1.421048	-30.218403	-11.014222	-3.682671	0.049293	5.337291	-2.110441	-0.518799	0.015869	-0.456055	0.811186	0.062909	-0.089698	0.116842	-0.062890	-0.090797	-0.986990	9.572788	-8.358219	-167.198368
23665		33.004630	-1.951213	-14.710847	-33.501569	-7.244513	-21.362700	-0.412388	3.491222	-2.581798	-0.490479	-0.023682	-0.487793	0.805856	-0.077020	-0.402882	0.088496	-0.017522	-0.082432	-0.992505	9.248870	-2.829887	-170.038475
23666		29.697295	-0.507963	-19.414292	-29.580640	-6.841333	-28.164909	-0.934529	1.166299	-2.301683	-0.483154	-0.036865	-0.496094	0.734372	-0.039659	-0.495746	0.060940	-0.001909	-0.069940	-0.995686	7.993090	-0.706206	-173.044655
23667		28.140224	0.276561	-17.333959	-28.228520	-5.443045	-26.111908	-0.845893	-1.583210	-1.265500	-0.505859	-0.032959	-0.460938	0.711840	-0.008787	-0.419278	0.043830	-0.021437	-0.060569	-0.996971	6.836075	-2.754359	-175.130018
23668		0.248199	-1.941299	11.888580	0.826158	3.270358	1.744798	-1.028786	-5.146561	-0.989438	-0.559326	-0.040527	-0.380859	-0.013499	-0.044621	0.297359	0.027315	-0.085665	-0.050663	-0.994660	5.599866	-9.972909	-177.342951
23669		18.344867	-14.011500	14.523746	-15.430649	14.851476	7.055007	0.364896	-4.724586	-0.107912	-0.593262	-0.036621	-0.307861	0.435727	-0.352617	0.387682	0.023392	-0.144393	-0.056779	-0.987613	6.318433	-16.730137	-178.216320
23670		21.499263	10.898847	10.791445	-16.260990	-10.212002	8.313395	-0.131545	-2.496466	0.408170	-0.602295	-0.030029	-0.285889	0.527325	0.275641	0.285898	0.026465	-0.175866	-0.055010	-0.982520	6.049998	-20.395312	-178.003405
23671		12.279924	-1.502104	9.415533	-8.303933	2.141933	3.154893	-0.288098	-0.428711	0.194864	-0.616211	-0.021484	-0.288330	0.305819	-0.035955	0.237161	0.027989	-0.181805	-0.051104	-0.981607	5.544686	-21.086831	-177.766251
23672		7.037081	2.396522	8.332188	-3.430888	-1.737177	0.670644	-0.169068	0.025762	0.039819	-0.634277	-0.017090	-0.292969	0.175964	0.060441	0.208121	0.028169	-0.182044	-0.048843	-0.981673	5.267198	-21.110392	-177.694810
23673		6.762342	1.421709	8.027268	-3.361799	-0.836947	0.196564	-0.121041	0.143864	0.103922	-0.634277	-0.014893	-0.292969	0.169372	0.036066	0.200323	0.029317	-0.180863	-0.046988	-0.981948	5.018102	-20.974398	-177.509191
23674		6.051853	1.095258	8.414346	-2.599386	-0.486455	0.268590	-0.079068	0.078085	0.119525	-0.634521	-0.012695	-0.281982	0.151460	0.027815	0.210184	0.030713	-0.180491	-0.045638	-0.982037	4.824389	-20.934504	-177.309145
23675		5.702649	0.403879	8.710964	-2.215968	0.216431	0.366057	-0.033172	-0.017869	0.089644	-0.644043	0.004883	-0.276123	0.142506	0.010347	0.217802	0.031790	-0.181267	-0.044957	-0.981891	4.717160	-21.028229	-177.167151
23676		5.621555	1.391632	8.665023	-2.047133	-0.780343	0.376588	0.001183	-0.130536	0.066789	-0.632813	0.002686	-0.264893	0.140156	0.034905	0.216855	0.032602	-0.183404	-0.044792	-0.981475	4.676195	-21.280493	-177.074020
23677		5.633416	0.839348	8.470589	-2.126032	-0.262097	0.167389	-0.022699	-0.132406	0.078656	-0.630859	0.011719	-0.265137	0.140464	0.021182	0.211991	0.033503	-0.185584	-0.044309	-0.981057	4.594121	-21.537211	-176.962493
23678		5.762122	0.755814	8.331677	-2.257477	-0.208657	0.089348	0.009936	-0.132181	0.061694	-0.617676	0.020752	-0.267822	0.143694	0.018980	0.208532	0.034271	-0.187741	-0.044266	-0.980622	4.567781	-21.792089	-176.876547
23679		5.132379	0.325159	8.836794	-1.479775	0.301283	0.299452	0.032911	-0.141078	0.038372	-0.620117	0.029541	-0.274658	0.127916	0.008099	0.221149	0.034803	-0.189988	-0.044562	-0.980157	4.587730	-22.057558	-176.827397
23680		5.578672	1.028019	8.439959	-1.932561	-0.457230	0.160644	0.026629	-0.143597	0.049738	-0.629150	0.029541	-0.276855	0.139072	0.025717	0.211257	0.035458	-0.192276	-0.044754	-0.979678	4.591768	-22.328204	-176.760962
23681		5.621468	0.819331	8.475012	-1.923978	-0.247374	0.204047	0.049243	-0.183944	0.089200	-0.635986	0.031738	-0.290283	0.140026	0.020509	0.212210	0.036629	-0.195073	-0.045146	-0.979064	4.606497	-22.661438	-176.638433
23682		5.793741	0.442065	8.371944	-2.088432	0.120008	0.161075	0.121070	-0.263355	0.050061	-0.651611	0.029297	-0.296875	0.144147	0.010825	0.209790	0.037450	-0.198787	-0.046549	-0.978220	4.750882	-23.104047	-176.586694
23683		5.256248	0.679358	9.065473	-1.198821	0.025048	0.619622	0.184001	-0.500130	0.015186	-0.660400	0.022461	-0.290039	0.129983	0.016486	0.227491	0.037865	-0.205344	-0.048916	-0.976733	5.019546	-23.880961	-176.622048
23684		5.292887	0.904087	9.769601	-0.709755	-0.054964	1.312177	0.249914	-1.065479	0.061460	-0.689209	0.010986	-0.271973	0.129036	0.021935	0.246042	0.038664	-0.218776	-0.052230	-0.973609	5.388771	-25.470294	-176.670447
23685		5.766663	0.109286	9.417637	-0.952375	0.767400	1.161812	0.316377	-1.871582	0.056159	-0.716309	0.014893	-0.229980	0.138605	0.001891	0.238736	0.039042	-0.241893	-0.056737	-0.967856	5.923050	-28.207468	-176.869461
23686		4.787643	0.140441	10.094217	0.868449	1.011092	1.278208	0.349577	-2.753791	0.004706	-0.747070	-0.001221	-0.171631	0.110913	0.002403	0.256287	0.038240	-0.275405	-0.062177	-0.958553	6.659202	-32.190526	-177.354486
23687		4.305038	1.375146	10.817083	2.732878	0.079601	1.582376	0.373905	-3.923626	0.185379	-0.778564	-0.001709	-0.078613	0.094118	0.033327	0.275423	0.038708	-0.322532	-0.067729	-0.943339	7.482658	-37.861654	-177.870179
23688		4.030173	2.150501	11.337495	4.728487	-0.438458	1.439039	0.299543	-5.650191	0.787033	-0.801270	0.010742	0.060547	0.079898	0.053540	0.289776	0.044359	-0.389279	-0.070554	-0.917342	7.865976	-46.092733	-177.813839
23689		2.866650	4.324021	12.613287	8.665018	-2.229119	0.447881	0.083559	-8.247818	1.761280	-0.784424	0.048340	0.263428	0.036373	0.108828	0.320414	0.057455	-0.483463	-0.067034	-0.870901	6.667953	-58.189884	-176.164615
23690		14.755051	3.168901	13.534902	6.652118	-1.210863	9.234585	0.206679	-10.496506	1.923552	-0.698242	0.090820	0.492676	0.318485	0.086347	0.382667	0.070319	-0.594936	-0.064516	-0.798088	3.892362	-73.475032	-172.835203
23691		28.127809	2.027825	12.939779	8.210119	-0.131660	20.032441	0.797177	-9.471833	1.123474	-0.584717	0.120850	0.651367	0.657713	0.056397	0.403831	0.079294	-0.685484	-0.071870	-0.720179	-5.940759	-87.124777	-161.783323
23692		8.725240	8.974654	18.129866	20.004584	-4.845375	-2.041035	0.822208	-7.003650	1.775814	-0.467285	0.173096	0.738281	0.172344	0.223743	0.471989	0.095669	-0.746677	-0.070612	-0.654472	-158.029112	-82.251909	-8.435119
23693		30.425976	6.232491	31.547721	36.364261	1.807176	15.359170	3.500982	-1.393755	1.423434	-0.465820	0.255371	0.695557	0.744166	0.134068	0.807943	0.138587	-0.754439	-0.087464	-0.635583	-147.489663	-79.501540	-14.036718
23694		0.500828	15.138454	22.330401	25.839548	-7.152306	-12.719667	0.479448	5.841929	0.553608	-0.554199	0.276855	0.592529	0.050680	0.375379	0.557743	0.153462	-0.705978	-0.075653	-0.687256	-94.190149	-83.511891	-67.132639
23695		-1.141891	-1.126857	13.160595	12.123199	5.332882	-9.900140	0.225506	6.346947	-1.032198	-0.625977	0.269531	0.457520	-0.002753	-0.028955	0.329835	0.152044	-0.647956	-0.074264	-0.742644	-30.157385	-80.058409	-131.355880
23696		4.038231	-0.043932	11.273371	9.506755	2.918866	-3.175053	0.698931	7.579885	-2.105962	-0.694824	0.242432	0.296387	0.126850	-0.006613	0.270579	0.144432	-0.571382	-0.083000	-0.803600	-5.425750	-70.441633	-155.790093
23697		3.625628	-6.318134	8.886612	4.159831	7.984841	-2.689271	0.000061	7.942228	-1.711372	-0.718750	0.216064	0.135498	0.108632	-0.160152	0.211964	0.134733	-0.487111	-0.080427	-0.859128	0.775145	-59.165807	-162.614349
23698		6.333741	-8.041608	10.074582	1.558700	9.314247	0.989882	1.137352	7.470129	-1.392947	-0.702148	0.189941	-0.010010	0.177130	-0.207424	0.232971	0.133585	-0.401534	-0.088100	-0.901756	4.457847	-48.392256	-165.151052
23699		12.256503	-7.845068	12.808601	-3.003974	8.546941	7.299009	1.519535	7.132202	-0.556270	-0.669922	0.164063	-0.137695	0.331641	-0.204050	0.287542	0.142228	-0.316502	-0.095646	-0.932979	6.457710	-38.154634	-164.899928
23700		17.551164	-5.603050	14.917537	-8.661768	5.431760	11.542940	1.869242	6.602358	-0.530540	-0.638672	0.109375	-0.268799	0.466334	-0.151189	0.331730	0.150799	-0.234556	-0.107328	-0.954318	8.793630	-28.688806	-164.293839
23701		28.274769	-1.393546	14.414800	-20.302258	-2.020522	14.492468	1.255291	6.354894	-0.356606	-0.572266	0.070557	-0.384766	0.732253	-0.043117	0.302199	0.158256	-0.155326	-0.110887	-0.968779	10.132151	-19.636423	-163.202556
23702		28.437529	2.048818	3.633454	-24.881464	-8.856613	1.454733	0.849865	6.033750	-1.258505	-0.506104	0.038086	-0.456787	0.715787	0.039391	0.037397	0.152574	-0.078614	-0.111229	-0.978861	11.377869	-10.827096	-163.363024
23703		30.770865	1.753283	-7.450664	-29.369312	-11.504801	-12.831386	0.175724	4.635197	-2.515891	-0.470947	-0.003418	-0.508301	0.757657	0.020345	-0.230349	0.128131	-0.018197	-0.106673	-0.985836	11.892376	-3.624340	-165.566933
23704		25.991190	0.282800	-16.346873	-24.977363	-9.236276	-25.076033	-1.273461	2.411193	-2.614389	-0.445801	-0.011963	-0.534668	0.636703	-0.020595	-0.427817	0.098768	0.012614	-0.087531	-0.991173	10.137670	0.441979	-168.579548
23705		30.145825	-2.129353	-17.488301	-29.371605	-5.884416	-27.742219	-1.036449	-0.063703	-2.150689	-0.454102	-0.031982	-0.531738	0.752098	-0.079121	-0.435695	0.072256	0.012451	-0.074347	-0.994533	8.609232	0.803409	-171.628689
23706		9.267752	3.359935	-7.261651	-8.793126	-5.483253	-16.327460	-0.840082	-3.032545	-1.219439	-0.496826	-0.030518	-0.474121	0.239596	0.078536	-0.173401	0.054442	-0.025412	-0.066357	-0.995985	7.448264	-3.316173	-173.958450
23707		9.925912	-9.192225	15.490068	-9.178542	10.227869	5.472944	-0.866634	-4.470999	-0.912200	-0.541748	-0.029053	-0.405518	0.223313	-0.228139	0.402678	0.039108	-0.081398	-0.058778	-0.994178	6.434542	-9.581258	-176.034473
23708		18.646721	-7.975765	15.780365	-15.668216	8.904364	8.494022	1.028651	-3.886938	0.100361	-0.568359	-0.038330	-0.356445	0.446620	-0.204066	0.413927	0.038583	-0.129735	-0.073223	-0.988088	8.022742	-15.190511	-176.599172
23709		16.942303	8.578662	10.544420	-12.379900	-7.609962	6.327084	0.487957	-2.542507	-0.069027	-0.597412	-0.045410	-0.325195	0.415054	0.212439	0.278193	0.036258	-0.161395	-0.080458	-0.982936	8.903330	-18.851515	-177.255899
23710		10.191475	2.336963	8.703773	-6.539954	-1.288502	2.046609	-0.225800	-0.991202	0.048474	-0.624512	-0.041504	-0.321045	0.252031	0.059197	0.220562	0.035481	-0.174377	-0.077961	-0.980946	8.622832	-20.343077	-177.406921
23711		9.088304	1.455643	8.322452	-5.513039	-0.455280	1.294858	-0.113447	-0.324562	0.067677	-0.629150	-0.032715	-0.310059	0.226330	0.036879	0.208929	0.035830	-0.179153	-0.076502	-0.980188	8.440930	-20.897043	-177.372372
23712		6.323253	2.906348	8.345340	-2.700037	-1.796326	0.558321	-0.118823	-0.131833	0.122830	-0.636230	-0.026123	-0.305908	0.157625	0.073211	0.208785	0.037026	-0.181635	-0.074766	-0.979820	8.204886	-21.190837	-177.209173
23713		5.277740	1.304783	9.055235	-1.576133	-0.107149	0.630401	-0.176508	-0.152820	0.194493	-0.641113	-0.017334	-0.284180	0.131430	0.033439	0.226559	0.038947	-0.184470	-0.072173	-0.979411	7.847111	-21.528545	-176.939693
23714		5.692791	1.176262	8.298656	-2.168824	-0.171749	0.083032	-0.135765	-0.258743	0.169934	-0.632324	-0.008301	-0.277832	0.141585	0.030060	0.207874	0.040562	-0.188557	-0.070184	-0.978711	7.566788	-22.010615	-176.727161
23715		5.667993	1.543126	8.236069	-2.046464	-0.589037	0.076937	-0.142555	-0.228607	0.192093	-0.632813	0.002686	-0.267090	0.141017	0.039285	0.206236	0.042456	-0.192297	-0.068042	-0.978054	7.258619	-22.453317	-176.471499
23716		5.384843	1.351034	8.329227	-1.700471	-0.430799	0.042262	-0.204904	-0.138486	0.258361	-0.615479	0.020752	-0.274414	0.134149	0.034743	0.208375	0.045083	-0.195023	-0.064929	-0.977608	6.812240	-22.778279	-176.093130
23717		5.290478	1.627769	8.440075	-1.496275	-0.758875	0.140120	-0.222327	0.011529	0.246928	-0.620117	0.025146	-0.281250	0.132165	0.041688	0.210868	0.047645	-0.195914	-0.061542	-0.977528	6.334648	-22.885248	-175.702688
23718		5.713789	0.945122	8.236905	-2.037191	-0.213498	0.045868	-0.188528	0.162637	0.126164	-0.620117	0.027344	-0.296875	0.143225	0.024338	0.205575	0.048926	-0.194844	-0.058774	-0.977849	5.967934	-22.755921	-175.473265
23719		5.451381	0.522606	8.698117	-1.684222	0.227783	0.324332	-0.117313	0.108574	0.163461	-0.620605	0.042969	-0.308350	0.136552	0.013663	0.217248	0.050794	-0.194419	-0.056817	-0.977954	5.684814	-22.708143	-175.195954
23720		5.272831	0.739601	8.710993	-1.488461	-0.012632	0.287580	-0.052822	0.056007	0.132142	-0.629639	0.040771	-0.312744	0.131942	0.018852	0.217670	0.052397	-0.194574	-0.055754	-0.977899	5.515639	-22.730027	-174.975378
23721		5.576678	0.960205	8.706878	-1.714170	-0.284741	0.425059	-0.029187	-0.104900	0.173909	-0.636230	0.038330	-0.317139	0.139079	0.024387	0.217846	0.054454	-0.196708	-0.054980	-0.977404	5.363563	-22.986491	-174.713671
23722		5.689632	1.005670	9.010663	-1.616226	-0.331898	0.763327	-0.057713	-0.325936	0.256206	-0.654297	0.042480	-0.315186	0.141240	0.025758	0.225825	0.057292	-0.201616	-0.053804	-0.976306	5.129923	-23.568331	-174.354041
23723		5.177709	-0.203486	10.047879	-0.719513	1.038249	1.421591	0.100432	-0.895454	0.230206	-0.676758	0.042236	-0.303955	0.126635	-0.005037	0.252619	0.059823	-0.213325	-0.055024	-0.973594	5.165088	-24.958812	-174.111544
23724		4.769531	-0.229151	10.503564	0.208594	1.252880	1.654311	0.332668	-1.697961	0.020248	-0.710205	0.030518	-0.259277	0.113632	-0.006798	0.265014	0.059849	-0.234408	-0.060208	-0.968425	5.727900	-27.465831	-174.328056
23725		4.810936	0.448326	10.764042	1.041406	0.815997	1.909122	0.451033	-2.828574	-0.068407	-0.743652	0.025635	-0.201416	0.110670	0.009578	0.273185	0.058249	-0.268795	-0.067872	-0.959036	6.663487	-31.565696	-174.933913
23726		3.861543	1.641363	11.445889	3.416359	0.062161	1.883160	0.344361	-4.329209	0.219541	-0.788086	0.018066	-0.092529	0.080763	0.040024	0.290978	0.058349	-0.320880	-0.074234	-0.942402	7.455465	-37.839998	-175.472812
23727		2.621089	2.446794	12.688532	6.813426	-0.217997	1.457324	0.181697	-6.329119	1.037675	-0.806885	0.041748	0.068359	0.039412	0.061067	0.321161	0.065292	-0.395792	-0.076505	-0.912816	7.426634	-47.101550	-175.058074
23728		2.269116	4.040097	13.137080	9.753440	-1.500633	-0.025021	-0.084042	-9.106958	2.055506	-0.783691	0.090332	0.284180	0.016415	0.102118	0.331723	0.079186	-0.499383	-0.072207	-0.859728	5.246587	-60.470602	-172.534456
23729		18.344928	3.494899	13.363783	6.283331	-1.678238	12.129941	0.112335	-11.203534	2.182735	-0.679443	0.131104	0.522217	0.403582	0.098384	0.393448	0.092399	-0.616648	-0.070060	-0.778652	-1.209812	-76.719118	-165.507796
23730		33.100065	4.660442	15.307604	12.212908	-2.561363	24.685521	0.474102	-8.966441	1.458702	-0.566162	0.167725	0.663086	0.775560	0.128362	0.472421	0.101777	-0.700909	-0.073239	-0.702143	-80.413042	-87.685236	-85.366318
23731		9.402453	0.412337	19.019221	19.080435	4.228923	-1.584421	1.515583	-5.222254	2.029314	-0.483154	0.235107	0.711670	0.203192	0.006544	0.489594	0.127770	-0.745160	-0.075125	-0.650205	-142.722268	-81.193899	-20.731342
23732		17.626218	13.096467	26.107530	31.003341	-4.938054	3.522712	4.138790	1.620036	1.658238	-0.508545	0.317383	0.620117	0.447527	0.302620	0.659758	0.181042	-0.725976	-0.090492	-0.657262	-116.086987	-80.779597	-41.700756
23733		-3.401770	11.901726	14.490447	17.616285	-4.669403	-15.370883	1.491493	3.559623	0.881818	-0.552734	0.359131	0.534180	-0.071882	0.289837	0.371109	0.205575	-0.693755	-0.086523	-0.684804	-82.336685	-80.314577	-73.736785
23734		0.182891	4.096229	10.113818	10.895682	0.431247	-9.515735	1.189107	3.951144	-1.109832	-0.610840	0.349854	0.436768	0.018475	0.098446	0.253645	0.210320	-0.654957	-0.096020	-0.719428	-48.009277	-79.351380	-106.859997
23735		2.948434	3.777403	9.454668	9.719028	-0.007463	-5.602947	0.658169	4.747003	-2.546360	-0.656982	0.318359	0.333740	0.090483	0.089810	0.232079	0.197993	-0.606245	-0.110059	-0.762334	-16.709890	-75.444286	-137.919666
23736		6.048705	-1.305095	9.534028	6.105268	3.938657	-1.083454	-0.304867	5.647544	-2.935156	-0.700439	0.273682	0.213379	0.166204	-0.037666	0.227099	0.174845	-0.547499	-0.115057	-0.810208	-0.768155	-68.034534	-155.125910
23737		7.556566	-5.163450	9.614001	2.661327	7.045098	1.106478	-0.319991	6.405441	-2.678442	-0.712158	0.218506	0.088867	0.202901	-0.134808	0.224996	0.154086	-0.477698	-0.115693	-0.857133	5.648067	-58.710546	-162.796122
23738		9.395555	-6.472771	10.420162	-0.053364	8.016112	3.380389	0.488948	6.760684	-1.891408	-0.699707	0.185547	-0.042969	0.251746	-0.169148	0.238666	0.145929	-0.400034	-0.118708	-0.896987	8.396708	-48.789725	-165.332734
23739		12.387073	-5.204949	11.329923	-3.428463	6.265051	6.224659	1.148737	6.650750	-0.898693	-0.673584	0.141846	-0.167969	0.330125	-0.137553	0.254407	0.150940	-0.320881	-0.123442	-0.926830	9.804130	-39.202900	-164.999264
23740		18.007658	-3.555118	13.831914	-8.685445	3.821547	11.095335	1.416700	5.997933	-0.465906	-0.632080	0.109375	-0.286377	0.473752	-0.097288	0.309170	0.160040	-0.247328	-0.129941	-0.946748	11.185794	-30.657532	-163.885760
23741		26.242671	-1.472293	12.462577	-18.603452	-1.437596	12.465268	1.638704	6.072896	-0.307585	-0.560791	0.063965	-0.380127	0.676950	-0.045064	0.259802	0.170852	-0.171236	-0.137620	-0.960494	12.835509	-22.084068	-162.342448
23742		26.473669	5.925076	3.370101	-21.071000	-11.990139	2.772850	0.797819	5.619421	-1.164390	-0.514893	0.035889	-0.452148	0.667695	0.137893	0.038872	0.167842	-0.099983	-0.137225	-0.971083	13.885299	-13.901165	-162.088760
23743		29.535191	0.887690	-8.708234	-28.309579	-11.765024	-12.608782	-0.126480	4.550472	-2.390371	-0.471191	0.005371	-0.508789	0.724637	0.000005	-0.259215	0.146202	-0.041135	-0.128785	-0.979973	14.009506	-6.792840	-163.864830
23744		27.168250	-3.697590	-19.528653	-27.589130	-8.410534	-27.154755	-0.184505	1.834476	-2.553284	-0.463135	-0.032227	-0.522949	0.664348	-0.114954	-0.503319	0.117765	-0.015356	-0.124353	-0.985105	13.993582	-3.413632	-166.784883
23745		31.510056	-5.122542	-19.223694	-32.058254	-6.365080	-27.707044	-0.690719	-0.520173	-1.543869	-0.474365	-0.034668	-0.502930	0.788129	-0.147385	-0.474251	0.097890	-0.020964	-0.116867	-0.988089	13.139147	-3.687122	-169.109126
23746		4.491307	6.930347	4.113600	-2.740279	-6.610132	-3.990246	-3.086411	-3.786539	-0.154218	-0.507324	0.009277	-0.440186	0.107803	0.176976	0.101233	0.089568	-0.071915	-0.083222	-0.989889	8.846805	-9.049249	-170.361096
23747		7.446997	-16.210527	10.848120	-7.902674	16.484632	0.246214	-2.326581	-4.856345	-0.962645	-0.557373	0.028320	-0.365479	0.163980	-0.399007	0.293282	0.070404	-0.134095	-0.060587	-0.986606	6.006902	-15.850572	-172.673534
23748		21.048301	-14.075713	15.221014	-17.529840	13.617247	9.674605	0.753642	-3.609471	0.313044	-0.582031	0.030273	-0.321289	0.509817	-0.353587	0.400453	0.072806	-0.178738	-0.072421	-0.978523	7.125242	-21.121343	-172.819717
23749		21.399422	6.437808	11.112331	-14.566143	-6.902004	9.239388	-0.280628	-1.588962	0.095078	-0.598145	0.041016	-0.314941	0.529143	0.162574	0.287789	0.071972	-0.199242	-0.070110	-0.974786	6.762882	-23.486244	-172.962054
23750		8.175192	1.119882	8.029379	-4.186909	-0.682383	0.890717	0.002628	-0.116033	-0.014894	-0.605469	0.054443	-0.326660	0.204094	0.027952	0.201032	0.071780	-0.201451	-0.070206	-0.974339	6.768924	-23.743458	-172.997716
23751		7.144963	1.351694	8.011959	-3.189688	-0.790337	0.496062	-0.006707	0.016190	-0.044867	-0.617188	0.067627	-0.329346	0.178684	0.033709	0.200260	0.071317	-0.202040	-0.070147	-0.974255	6.770844	-23.808562	-173.055649
23752		5.706324	1.935408	8.523868	-1.578029	-1.108597	0.446216	0.040093	0.008216	-0.051993	-0.624512	0.085205	-0.325439	0.142711	0.048186	0.213106	0.070878	-0.202682	-0.070686	-0.974115	6.845267	-23.884372	-173.126246
23753		5.257898	0.923314	9.070913	-1.106072	0.042999	0.654124	0.065526	-0.081986	-0.048047	-0.620361	0.096436	-0.312500	0.131229	0.022818	0.226926	0.070473	-0.204403	-0.071609	-0.973717	6.961284	-24.088969	-173.207936
23754		6.440354	1.080578	7.852068	-2.579243	-0.412105	0.060416	0.090979	-0.191459	-0.081250	-0.623047	0.107422	-0.304199	0.160566	0.026628	0.196717	0.069631	-0.207400	-0.073022	-0.973039	7.144437	-24.442839	-173.363137
23755		5.669174	1.113551	8.562703	-1.537839	-0.200458	0.399754	0.106662	-0.201564	-0.082827	-0.620850	0.111816	-0.297607	0.141218	0.027407	0.214461	0.068803	-0.210504	-0.074641	-0.972308	7.353751	-24.810616	-173.524412
23756		5.406266	1.802529	8.450643	-1.172111	-0.840634	0.277383	0.028863	-0.165451	0.016186	-0.618896	0.116211	-0.302246	0.134710	0.045014	0.211561	0.069007	-0.213325	-0.075022	-0.971649	7.384557	-25.144840	-173.524402
23757		5.560929	1.678666	8.224204	-1.367623	-0.781811	0.132039	-0.064289	-0.115189	0.127285	-0.621338	0.123047	-0.311279	0.138660	0.042353	0.205771	0.070358	-0.215716	-0.073934	-0.971108	7.203109	-25.427596	-173.339374
23758		6.192231	1.065303	7.877106	-2.133820	-0.341308	0.028935	-0.095378	-0.042258	0.166772	-0.623535	0.125244	-0.322510	0.154645	0.027190	0.196977	0.072169	-0.217282	-0.072297	-0.970749	6.942968	-25.612817	-173.076602
23759		5.480075	1.463743	8.331357	-1.214589	-0.619762	0.173592	-0.088466	0.056210	0.186234	-0.634766	0.120605	-0.333496	0.137062	0.037143	0.208147	0.074321	-0.217664	-0.070600	-0.970626	6.670240	-25.660300	-172.763602
23760		4.912649	1.209516	8.826046	-0.533668	-0.267781	0.343073	-0.056574	0.072311	0.245725	-0.641602	0.127197	-0.331543	0.122922	0.030771	0.220518	0.077292	-0.217869	-0.069112	-0.970455	6.400776	-25.692967	-172.353654
23761		5.860464	0.293230	8.472644	-1.662290	0.414174	0.350077	-0.037242	-0.073263	0.241399	-0.653076	0.131592	-0.336182	0.146294	0.007871	0.211947	0.080135	-0.219811	-0.068006	-0.969864	6.171611	-25.930033	-171.975464
23762		5.854899	-0.103454	9.062276	-1.399553	0.890555	0.848575	0.066189	-0.415954	0.136662	-0.668701	0.131348	-0.324951	0.145196	-0.002526	0.227312	0.081699	-0.225708	-0.068779	-0.968324	6.186111	-26.638179	-171.820437
23763		5.136930	0.288148	9.859725	-0.141751	0.803318	1.278413	0.289333	-1.036265	0.041629	-0.697510	0.117432	-0.309082	0.125212	0.006374	0.248153	0.082202	-0.238773	-0.073142	-0.964822	6.639374	-28.214348	-171.930766
23764		4.571305	0.143200	10.555040	1.046270	1.300805	1.567725	0.393215	-1.893375	0.003727	-0.735352	0.108154	-0.255371	0.107996	0.002279	0.266495	0.081747	-0.261926	-0.079719	-0.958309	7.370989	-31.000528	-172.295397
23765		4.920196	-0.007874	10.482302	1.375034	1.643718	1.563947	0.509270	-3.053242	-0.053683	-0.772705	0.087402	-0.181641	0.112888	-0.001962	0.266487	0.079749	-0.298493	-0.088972	-0.946904	8.530098	-35.413859	-173.099695
23766		3.795822	1.110453	12.005666	4.464684	1.347736	1.927714	0.636588	-4.742319	0.153705	-0.801270	0.073242	-0.054688	0.076843	0.025504	0.305264	0.078607	-0.354337	-0.100405	-0.926383	10.139183	-42.243881	-174.225286
23767		1.261785	2.773238	13.988120	9.617696	0.837462	0.731340	0.734210	-7.257372	0.858916	-0.817627	0.090332	0.126465	-0.001023	0.066215	0.351213	0.082433	-0.437814	-0.111696	-0.888283	12.045222	-52.770754	-175.388320
23768		6.170379	5.259873	14.934620	10.620800	-1.084986	3.351984	0.260230	-10.019498	1.464996	-0.769043	0.119385	0.349609	0.103689	0.132458	0.388919	0.085521	-0.547647	-0.115881	-0.824221	14.616144	-67.306969	-177.912460
23769		29.640520	-0.027488	13.165098	4.330950	4.105728	21.973591	0.450636	-10.348364	1.210933	-0.661621	0.137939	0.559814	0.690358	0.007836	0.420812	0.085399	-0.651104	-0.122192	-0.744204	30.025836	-81.881686	166.898742
23770		16.965754	10.343671	16.728574	18.256503	-4.058716	8.159383	0.786152	-7.474160	1.024797	-0.559570	0.174316	0.673828	0.379253	0.259274	0.457629	0.089552	-0.718787	-0.128470	-0.677363	145.662247	-85.393244	52.088882
23771		15.958246	-2.004187	23.915352	23.509512	10.565200	3.053270	2.221986	-4.402572	2.180494	-0.501221	0.237305	0.689453	0.366817	-0.056781	0.617154	0.120679	-0.755803	-0.132217	-0.629855	-174.890983	-79.738241	15.577390
23772		8.206537	13.687448	21.973548	26.508198	-3.938072	-5.447248	3.356323	2.714180	1.738283	-0.541992	0.310303	0.598145	0.216789	0.323574	0.555953	0.170336	-0.731314	-0.137765	-0.645900	-146.517022	-82.587739	-8.262583
23773		-2.833564	9.320264	11.764191	14.311085	-3.091433	-14.153267	0.851668	4.185577	1.775158	-0.579346	0.347900	0.512451	-0.060348	0.228416	0.299895	0.199344	-0.697848	-0.119180	-0.677544	-91.173554	-83.295568	-62.748168
23774		1.962201	4.319175	8.683503	9.696896	-0.265939	-7.884166	0.727323	4.713967	0.113918	-0.619629	0.340820	0.406250	0.061605	0.106101	0.214673	0.213292	-0.655333	-0.112313	-0.715843	-45.709820	-80.450222	-107.573638
23775		4.648932	5.030085	8.108100	8.858757	-1.738202	-4.248509	0.382010	5.747439	-1.700157	-0.661377	0.316406	0.282715	0.133007	0.122101	0.194132	0.208663	-0.598961	-0.113950	-0.764670	-16.440051	-74.486988	-136.938884
23776		6.095586	1.241576	8.131711	5.784006	1.019620	-1.441065	-0.577048	6.378459	-2.456134	-0.688965	0.265137	0.153809	0.168787	0.027425	0.190054	0.189193	-0.534121	-0.109720	-0.816629	-3.233898	-66.046183	-151.809847
23777		8.553884	-2.258926	9.177286	2.631154	3.684851	2.088158	-0.439806	6.893028	-2.418148	-0.698486	0.216553	0.033447	0.230715	-0.062091	0.210351	0.170256	-0.459584	-0.104567	-0.865368	2.522906	-56.204177	-159.086512
23778		10.315813	-4.782069	8.947409	-1.586647	5.183055	3.585062	0.529144	6.907957	-1.673069	-0.679688	0.188232	-0.092041	0.273245	-0.126539	0.199690	0.163569	-0.380059	-0.104719	-0.904342	5.393834	-46.192095	-161.797067
23779		15.272741	-2.067198	10.959473	-5.109916	1.836557	8.281490	1.286282	6.158301	-1.065089	-0.655518	0.142334	-0.205566	0.400545	-0.061006	0.242681	0.165200	-0.305530	-0.111302	-0.931113	7.679319	-37.282109	-162.472218
23780		24.949525	-1.784201	13.896319	-14.048877	-0.436726	15.080969	1.274726	5.784405	-0.767558	-0.609131	0.096436	-0.323730	0.646104	-0.055775	0.300372	0.168750	-0.233980	-0.116718	-0.950344	9.397729	-28.954582	-162.293744
23781		25.064314	2.988139	7.112007	-18.258115	-7.546059	7.392613	0.590572	6.153928	-1.360729	-0.549561	0.062012	-0.415527	0.638948	0.062823	0.129425	0.162810	-0.157306	-0.114276	-0.967310	10.412021	-19.970606	-162.730040
23782		26.786804	0.434333	-0.695772	-24.660826	-7.914525	-3.014335	-0.559084	5.304731	-1.900892	-0.497070	0.038330	-0.481201	0.666558	-0.005341	-0.061687	0.145963	-0.091632	-0.100111	-0.979937	9.978318	-12.052811	-164.112050
23783		23.451436	-2.531365	-10.864961	-24.232180	-5.832434	-17.063392	-0.199449	3.757622	-2.013620	-0.464600	0.010010	-0.522217	0.570833	-0.078508	-0.298504	0.125645	-0.043817	-0.092929	-0.986741	9.987443	-6.305236	-166.038229
23784		26.790859	-5.496730	-14.791493	-28.069904	-3.720812	-22.653802	0.301090	0.815666	-1.280555	-0.461670	-0.007813	-0.525879	0.663653	-0.146664	-0.377115	0.111029	-0.032353	-0.096009	-0.988640	10.563209	-4.892732	-167.637051
23785		26.116280	1.018755	-12.126905	-25.907167	-8.722583	-18.913732	-0.371995	-1.125877	-0.403523	-0.477783	-0.001221	-0.504150	0.657201	0.020780	-0.294047	0.104626	-0.046959	-0.093092	-0.989031	10.103455	-6.451812	-168.493664
23786		1.977635	-1.031416	6.525940	-1.227981	1.789376	-3.271744	-2.318357	-4.741182	-0.214036	-0.527832	0.022217	-0.422852	0.039580	-0.021108	0.166347	0.094969	-0.108966	-0.070561	-0.986979	6.996558	-13.208568	-169.818644
23787		11.864296	-12.364286	10.883467	-10.723173	12.025498	2.518345	-0.816657	-4.625106	-1.100497	-0.570557	0.021484	-0.356445	0.275855	-0.310087	0.291605	0.076120	-0.166539	-0.067337	-0.980783	6.509112	-19.689862	-172.254972
23788		18.610419	-2.163559	14.523648	-12.318247	2.329693	10.299147	0.755744	-3.336066	0.224676	-0.599854	0.023193	-0.312256	0.449759	-0.056358	0.381540	0.077655	-0.207511	-0.079177	-0.971926	7.688404	-24.561332	-172.539774
23789		19.184604	1.453714	10.072222	-12.912971	-1.847731	7.549326	-0.441980	-0.701764	0.111308	-0.611328	0.031982	-0.316895	0.477330	0.038414	0.255791	0.077243	-0.217368	-0.074116	-0.970202	7.025368	-25.672763	-172.498656
23790		7.645823	1.727402	7.639762	-3.367726	-1.213079	0.531163	0.051321	-0.050057	-0.129210	-0.618408	0.042969	-0.312988	0.191095	0.042754	0.191141	0.075853	-0.218648	-0.075062	-0.969951	7.175695	-25.819814	-172.703561
23791		6.817203	1.982242	8.310696	-2.302566	-1.221098	0.802311	0.037317	0.104661	-0.091271	-0.623291	0.049561	-0.302002	0.170758	0.049264	0.207567	0.075031	-0.218105	-0.075592	-0.970096	7.267341	-25.754072	-172.818122
23792		5.584220	1.685273	8.373837	-1.238839	-0.772632	0.287465	0.008061	0.091715	-0.018614	-0.621094	0.051758	-0.297607	0.139855	0.042078	0.209190	0.074998	-0.217817	-0.075586	-0.970164	7.268841	-25.719964	-172.820712
23793		5.477382	1.253649	8.713683	-1.073372	-0.283576	0.496001	-0.034054	0.000076	0.027337	-0.616943	0.062988	-0.284668	0.136924	0.031481	0.217829	0.075320	-0.218719	-0.075032	-0.969979	7.186793	-25.824037	-172.769333
23794		6.239910	1.349709	8.100876	-1.956424	-0.586998	0.297214	-0.063502	-0.102586	0.056668	-0.608154	0.072021	-0.287354	0.155714	0.034014	0.202695	0.075818	-0.220918	-0.074137	-0.969511	7.050952	-26.078725	-172.691730
23795		5.325041	1.414271	8.570113	-0.889821	-0.483283	0.325243	-0.084792	-0.067735	0.082380	-0.606445	0.085205	-0.287842	0.132908	0.035721	0.214328	0.076600	-0.222736	-0.072881	-0.969128	6.863116	-26.288094	-172.565942
23796		5.042347	1.328818	8.679242	-0.572245	-0.375259	0.289386	-0.090913	-0.025632	0.090303	-0.602051	0.087646	-0.303467	0.125951	0.033609	0.216983	0.077496	-0.224052	-0.071488	-0.968857	6.656753	-26.438028	-172.418949
23797		5.756483	1.084510	8.222223	-1.416886	-0.329979	0.177391	-0.081635	0.003125	0.099332	-0.602051	0.087646	-0.318848	0.143886	0.027501	0.205522	0.078550	-0.225013	-0.070154	-0.968647	6.454378	-26.547413	-172.251871
23798		5.926857	0.517748	8.293520	-1.621411	0.189920	0.262684	-0.039430	0.019220	0.084925	-0.615723	0.089844	-0.325684	0.148207	0.013203	0.207296	0.079561	-0.225722	-0.069355	-0.968457	6.320947	-26.630874	-172.104555
23799		4.884203	0.678760	8.871788	-0.401893	0.249941	0.326385	0.032625	-0.020515	0.041949	-0.622314	0.089600	-0.325684	0.122039	0.016943	0.221833	0.080220	-0.226801	-0.069587	-0.968134	6.324018	-26.763750	-172.032474
23800		5.014447	1.401154	8.805756	-0.373750	-0.480098	0.399021	0.030797	-0.119507	0.074551	-0.635742	0.087402	-0.332275	0.124999	0.035061	0.220344	0.081181	-0.229101	-0.069800	-0.967497	6.308316	-27.041939	-171.925621
23801		5.903328	0.838461	8.388405	-1.373144	-0.113313	0.386274	0.021957	-0.274453	0.158154	-0.649170	0.087158	-0.325684	0.146821	0.021195	0.210220	0.082992	-0.233348	-0.069824	-0.966326	6.230137	-27.553025	-171.711519
23802		5.452465	0.117566	9.348963	-0.562949	0.834988	0.963680	0.120250	-0.583449	0.117680	-0.673584	0.077881	-0.320801	0.134598	0.002786	0.234714	0.084327	-0.241175	-0.071469	-0.964166	6.346026	-28.497445	-171.616227
23803		4.951513	0.342325	10.102117	0.506230	0.904444	1.394618	0.303204	-1.162036	0.013330	-0.695801	0.072998	-0.287354	0.120101	0.007617	0.254345	0.084430	-0.255645	-0.076228	-0.960055	6.861064	-30.247663	-171.804774
23804		4.727025	0.481124	10.459959	1.337233	1.039520	1.549077	0.409901	-1.995377	-0.015812	-0.738037	0.061279	-0.242676	0.111607	0.010656	0.264394	0.083987	-0.279808	-0.083197	-0.952750	7.657128	-33.171652	-172.208219
23805		5.400361	-0.220246	9.776822	0.976835	1.758989	1.173020	0.499242	-3.125569	-0.034099	-0.778076	0.049561	-0.166992	0.125325	-0.007107	0.249403	0.082088	-0.317003	-0.092397	-0.940337	8.848174	-37.687138	-173.046824
23806		3.854356	1.412753	11.377470	4.532460	1.017017	1.347629	0.578244	-4.670561	0.167895	-0.806885	0.040039	-0.044678	0.079472	0.033416	0.289653	0.080892	-0.371655	-0.103069	-0.919079	10.431251	-44.413784	-174.208425
23807		2.073678	2.416578	12.946766	8.577152	0.938782	0.330367	0.572532	-6.734838	0.847568	-0.821045	0.061523	0.132080	0.023765	0.058432	0.326883	0.084382	-0.448783	-0.112040	-0.882565	12.040935	-54.200507	-175.255629
23808		4.080375	4.861721	13.634006	10.681973	-0.972660	0.678889	0.225326	-9.445024	1.550670	-0.768066	0.092529	0.359375	0.058630	0.121983	0.349836	0.088960	-0.552057	-0.114878	-0.821049	13.947629	-67.967553	-177.059795
23809		25.530223	0.965500	13.086975	6.093734	2.971431	17.989836	0.297909	-10.781888	1.381496	-0.663330	0.120117	0.578125	0.586197	0.033157	0.408795	0.088916	-0.659439	-0.119218	-0.736899	29.842634	-83.256486	167.113189
23810		25.649663	10.298410	17.223800	19.183683	-3.812686	16.156111	-0.035946	-8.328836	1.254858	-0.535645	0.134521	0.704102	0.587832	0.267184	0.493606	0.087290	-0.734712	-0.117037	-0.662481	165.936570	-83.667079	30.703425
23811		11.039362	-1.027817	22.046336	22.291898	7.932788	-2.875373	0.794855	-5.654601	2.037064	-0.456543	0.184326	0.751221	0.236822	-0.024924	0.568581	0.102900	-0.781854	-0.110654	-0.604873	-173.754124	-75.607922	11.263512
23812		17.622105	13.376673	26.760293	32.900985	-3.242260	0.784708	3.228044	2.198038	1.327420	-0.506348	0.257324	0.670898	0.453617	0.314854	0.669631	0.147358	-0.762203	-0.118996	-0.619010	-157.881563	-78.150774	-0.288538
23813		-2.114929	10.735893	14.393915	16.776700	-4.469180	-14.846356	0.321754	4.807840	1.705338	-0.570068	0.281250	0.563721	-0.036783	0.266041	0.363456	0.170417	-0.725668	-0.096071	-0.659647	-120.717081	-81.936715	-37.505367
23814		0.454900	2.210364	9.149170	9.321086	1.334241	-9.684734	0.588217	5.330088	0.406368	-0.629395	0.300781	0.445313	0.026299	0.053690	0.227707	0.185066	-0.679578	-0.085613	-0.704695	-64.762246	-81.681155	-93.109807
23815		2.918464	4.521754	8.014667	8.858257	-1.655292	-6.373648	0.656679	6.003611	-1.151881	-0.673828	0.284912	0.312744	0.089340	0.110219	0.194981	0.186344	-0.622208	-0.086988	-0.755358	-25.507461	-76.507256	-132.047181
23816		5.336633	0.642570	8.101997	6.208230	1.230797	-2.446317	-0.438095	6.469628	-1.830916	-0.701904	0.251709	0.189697	0.149509	0.013830	0.190804	0.172012	-0.558223	-0.081681	-0.807544	-9.393205	-68.384857	-149.561124
23817		7.262526	-3.101323	9.192457	3.727245	4.335230	0.858533	-0.193902	6.867855	-2.140596	-0.707031	0.205322	0.062744	0.198213	-0.082162	0.213452	0.155375	-0.485159	-0.079525	-0.856829	-1.606071	-58.882360	-158.537142
23818		10.013223	-3.917312	10.571695	1.135295	4.667869	4.462043	0.547323	6.933372	-1.627534	-0.685547	0.168213	-0.057861	0.269805	-0.104997	0.240748	0.147547	-0.406572	-0.081417	-0.897942	2.290037	-48.953950	-162.380131
23819		14.580773	-4.063210	12.161838	-3.523441	4.005404	8.832365	1.356387	6.722959	-1.059965	-0.666504	0.133057	-0.185303	0.386766	-0.111388	0.270305	0.148842	-0.326284	-0.089244	-0.929204	5.092469	-39.267024	-163.616775
23820		22.944431	-1.469230	14.353305	-11.183931	-0.100899	14.844650	1.506859	6.150482	-0.812493	-0.617676	0.087402	-0.316650	0.598390	-0.048911	0.312585	0.151960	-0.250374	-0.098240	-0.951089	7.379536	-30.405283	-163.852483
23821		27.852356	0.952041	8.239373	-20.702219	-5.573183	9.759471	1.026693	6.276869	-1.395841	-0.558105	0.046387	-0.419434	0.709840	0.009313	0.150784	0.145825	-0.171584	-0.102478	-0.968913	9.170604	-21.246938	-164.605724
23822		30.078626	0.714141	-2.567569	-28.169616	-8.515842	-3.155461	-0.277326	5.225208	-1.842977	-0.507568	0.016113	-0.475830	0.745782	0.000280	-0.113082	0.129311	-0.106404	-0.093238	-0.981460	9.201146	-13.472327	-166.077693
23823		27.553141	-1.374398	-14.476333	-28.842174	-7.444120	-18.894706	-0.213166	3.411872	-2.441150	-0.472656	-0.016846	-0.514648	0.671081	-0.056040	-0.390660	0.102952	-0.062345	-0.088183	-0.988806	9.392405	-8.131795	-168.780970
23824		29.900776	-3.524690	-17.122910	-31.606380	-4.729087	-23.157313	-0.690258	0.467472	-1.917635	-0.474609	-0.025635	-0.511963	0.742547	-0.109671	-0.431537	0.079270	-0.055851	-0.080490	-0.992027	8.743234	-7.098303	-171.406054
23825		14.134949	-1.768815	-21.401303	-17.168890	-3.540617	-28.604715	-1.225437	-3.498951	-0.825788	-0.524170	-0.019775	-0.439209	0.375749	-0.056048	-0.518122	0.064649	-0.100184	-0.069236	-0.990449	7.293757	-11.970457	-173.296656
23826		19.001087	-4.774951	20.329020	-13.666072	5.749601	14.190472	-0.949099	-5.140977	-0.362292	-0.560059	-0.018311	-0.365967	0.440519	-0.115149	0.538671	0.054466	-0.164720	-0.061943	-0.982886	6.315718	-19.302069	-174.731561
23827		18.017944	-8.467696	13.804897	-12.734404	8.966073	8.734634	0.478516	-3.829603	0.046250	-0.596191	-0.016602	-0.317383	0.433416	-0.213582	0.364873	0.053065	-0.211999	-0.070223	-0.973298	7.229318	-24.842709	-175.352825
23828		17.315754	7.339465	9.782823	-10.334587	-6.952901	7.339556	-0.306332	-1.735317	0.222674	-0.612061	-0.008057	-0.300049	0.426949	0.185639	0.253167	0.053501	-0.234218	-0.066965	-0.968398	6.770917	-27.438604	-175.330453
23829		9.649377	-0.555344	9.374773	-4.387956	1.288397	2.851866	-0.100455	-0.119189	0.047605	-0.617188	0.005371	-0.304932	0.240893	-0.013446	0.234745	0.053753	-0.236561	-0.065637	-0.967906	6.591826	-27.709782	-175.270189
23830		7.044743	0.907170	8.273331	-2.353635	-0.138105	0.833470	0.002110	0.018455	-0.088965	-0.628418	0.005127	-0.300537	0.176191	0.022478	0.206793	0.052769	-0.237064	-0.065856	-0.967822	6.648819	-27.763466	-175.403145
23831		6.280195	2.124413	8.062401	-1.606688	-1.297924	0.419135	0.052435	0.035090	-0.082954	-0.635254	0.007324	-0.287109	0.157148	0.052815	0.201526	0.052022	-0.237339	-0.066655	-0.967740	6.772171	-27.794444	-175.523384
23832		5.472867	1.198180	8.736466	-0.701353	-0.202079	0.540137	0.078657	-0.022632	-0.056029	-0.633057	0.009521	-0.285156	0.136781	0.029644	0.218480	0.051630	-0.238316	-0.067734	-0.967446	6.918879	-27.911712	-175.611748
23833		5.691305	1.029837	8.795979	-0.848608	-0.010144	0.680179	0.120636	-0.184942	-0.033407	-0.628418	0.009521	-0.269531	0.141784	0.025355	0.220266	0.051500	-0.241241	-0.069359	-0.966613	7.124385	-28.262875	-175.696327
23834		6.608862	1.139293	7.966411	-1.950905	-0.273412	0.412650	0.109357	-0.257996	-0.028639	-0.619629	0.013916	-0.265137	0.164588	0.028151	0.199730	0.051331	-0.245052	-0.070878	-0.965552	7.318490	-28.717931	-175.789662
23835		5.363850	1.528417	8.652813	-0.410691	-0.433620	0.464522	0.078167	-0.255350	-0.005675	-0.622070	0.020752	-0.274414	0.133407	0.037989	0.216784	0.051346	-0.248867	-0.071949	-0.964496	7.451216	-29.173187	-175.846918
23836		5.457476	1.390875	8.385538	-0.564513	-0.329202	0.267420	0.032955	-0.196360	0.019838	-0.626953	0.027344	-0.279053	0.135913	0.034719	0.209987	0.051581	-0.252013	-0.072357	-0.963635	7.493644	-29.548650	-175.851032
23837		5.894126	1.030662	8.060811	-1.087318	-0.046781	0.167046	0.022218	-0.157419	0.020459	-0.626953	0.029541	-0.290283	0.146950	0.025748	0.201817	0.051823	-0.254690	-0.072609	-0.962899	7.516278	-29.868305	-175.846041
23838		5.867661	0.947454	7.982907	-1.057881	0.034504	0.083446	0.060468	-0.164075	0.025418	-0.640381	0.024902	-0.287842	0.146274	0.023582	0.199891	0.052241	-0.257422	-0.073309	-0.962097	7.590396	-30.197946	-175.834595
23839		5.195362	1.268550	8.393202	-0.174966	-0.150545	0.136852	0.113403	-0.186805	0.040931	-0.649170	0.024902	-0.299072	0.129377	0.031482	0.210177	0.052995	-0.260400	-0.074608	-0.961154	7.730069	-30.562419	-175.803150
23840		5.308740	1.833851	8.590320	-0.019743	-0.659819	0.429535	0.088273	-0.271440	0.111412	-0.660645	0.029053	-0.294678	0.131925	0.045793	0.215257	0.054434	-0.264467	-0.075430	-0.959898	7.783805	-31.059900	-175.674726
23841		6.261930	0.956993	8.278693	-1.008905	0.094398	0.562117	0.022611	-0.405542	0.127164	-0.675781	0.015625	-0.287598	0.155458	0.024114	0.207764	0.055717	-0.270187	-0.075502	-0.958224	7.744290	-31.749940	-175.549872
23842		5.472102	0.382728	9.413545	0.328786	0.942500	1.036500	0.166682	-0.785513	0.033092	-0.695801	0.010742	-0.267578	0.134479	0.009132	0.236686	0.055998	-0.280245	-0.077874	-0.955124	8.041396	-32.960396	-175.671853
23843		5.090761	0.681041	9.923771	1.279673	0.876274	1.252582	0.365409	-1.487557	-0.073363	-0.724854	0.005859	-0.236328	0.122641	0.015772	0.250477	0.055010	-0.298360	-0.083461	-0.949205	8.836595	-35.141129	-176.169575
23844		5.077764	1.016619	10.257602	2.077725	0.791783	1.458933	0.429255	-2.443360	-0.011526	-0.762939	-0.001465	-0.176270	0.119036	0.024008	0.260288	0.053831	-0.327626	-0.090170	-0.938953	9.888116	-38.679158	-176.915506
23845		5.012919	1.135099	10.312488	3.054286	0.916280	1.254995	0.522533	-3.828304	0.169639	-0.795898	-0.015381	-0.082520	0.112740	0.026916	0.263588	0.053354	-0.372717	-0.097984	-0.921214	11.322778	-44.199573	-177.980802
23846		3.345676	1.471781	11.507978	6.373499	1.130529	0.368116	0.470939	-5.633679	0.560541	-0.809570	-0.007080	0.067871	0.062877	0.035569	0.292829	0.055023	-0.437614	-0.104225	-0.891405	13.020891	-52.340203	-179.355217
23847		1.780639	2.906953	12.871195	10.246764	0.240985	-1.348536	0.313992	-7.902642	1.359909	-0.794922	0.021484	0.257568	0.011303	0.071784	0.324275	0.061354	-0.525461	-0.105109	-0.842068	14.808776	-63.876275	179.071653
23848		12.352127	5.836826	12.554695	8.932783	-2.323061	6.222645	0.326052	-10.555610	1.340281	-0.717041	0.050781	0.496338	0.261537	0.149192	0.351130	0.063209	-0.633600	-0.106809	-0.763641	25.472970	-78.869080	168.402422
23849		31.117818	0.979227	11.916788	9.856202	3.690972	21.720246	0.988830	-10.274517	1.401679	-0.574463	0.085205	0.681641	0.730805	0.033099	0.394350	0.070144	-0.727540	-0.112256	-0.673175	149.657665	-84.425714	45.180893
23850		17.311424	11.909572	19.627640	24.631618	-4.918630	4.094972	1.535958	-7.341881	1.340658	-0.464111	0.142090	0.766113	0.380164	0.294439	0.532906	0.084740	-0.786811	-0.118808	-0.599693	178.033287	-74.542070	18.670189
23851		25.175048	4.881588	29.454317	35.255782	6.441042	5.684176	3.434827	-1.792438	1.796213	-0.455811	0.224365	0.723145	0.610129	0.103731	0.754893	0.129139	-0.798437	-0.128527	-0.573849	-169.209537	-71.724488	10.478079
23852		1.672621	17.335804	21.975116	26.416014	-7.809291	-15.005964	1.591924	4.934502	1.220308	-0.533691	0.268066	0.617432	0.069404	0.423313	0.554157	0.161352	-0.760915	-0.119444	-0.617015	-152.244889	-77.832711	-4.718964
23853		-2.174662	3.072781	12.098633	11.847634	2.125984	-13.742542	0.805446	5.234860	0.319529	-0.599609	0.285400	0.503418	-0.034712	0.073585	0.305919	0.178856	-0.717933	-0.111762	-0.663395	-117.225345	-82.989661	-39.012254
23854		3.209545	4.120503	9.955810	10.815854	0.083757	-6.786967	1.325064	6.102088	-1.290740	-0.655518	0.276123	0.370605	0.100559	0.097434	0.243382	0.187903	-0.660515	-0.120281	-0.716899	-37.566376	-82.861233	-117.210159
23855		5.441966	1.722334	8.742842	7.736038	1.354451	-2.954077	0.005605	6.985129	-1.969285	-0.699219	0.238281	0.221191	0.155393	0.039374	0.205557	0.179987	-0.592464	-0.119667	-0.776061	-5.837098	-74.291891	-149.461608
23856		6.869935	-2.453739	8.671088	4.133320	4.540415	-0.305763	-0.253908	7.447134	-2.269174	-0.704590	0.196289	0.078613	0.189073	-0.065895	0.199900	0.166393	-0.514831	-0.116676	-0.832856	2.976939	-63.687355	-159.252927
23857		7.919170	-4.564085	9.428194	1.597111	6.222435	1.623303	0.401175	7.226209	-1.914024	-0.694336	0.156982	-0.048584	0.215282	-0.120238	0.216168	0.158847	-0.433954	-0.117592	-0.878990	6.593730	-53.153109	-162.813920
23858		14.775585	-3.594848	11.211681	-3.266909	4.342326	8.258641	1.288214	6.558754	-1.263734	-0.679199	0.110840	-0.177979	0.389057	-0.100081	0.247349	0.161007	-0.356111	-0.125089	-0.911929	9.016758	-43.612362	-163.588273
23859		22.728610	-1.961589	13.317050	-10.312390	1.291489	14.443238	1.330510	6.069960	-0.736383	-0.632813	0.069336	-0.291748	0.590689	-0.059451	0.287714	0.167534	-0.282198	-0.130860	-0.935506	10.555793	-34.878890	-163.018265
23860		27.590791	0.332508	8.856408	-18.943975	-4.323388	11.645099	1.287531	6.251623	-1.123682	-0.568604	0.032715	-0.392334	0.704229	-0.004497	0.166711	0.168627	-0.203880	-0.136277	-0.954687	12.277216	-25.800754	-162.788419
23861		28.922070	3.643755	0.589711	-24.229895	-10.920223	2.116298	-0.216785	5.525054	-1.693704	-0.514160	0.013672	-0.462402	0.723470	0.075720	-0.035461	0.156874	-0.135279	-0.125946	-0.970169	12.229325	-17.577900	-163.527681
23862		27.443318	-0.075738	-10.762189	-27.566099	-9.812318	-13.236985	-0.713855	4.148199	-2.441162	-0.479492	-0.016846	-0.505615	0.670389	-0.025128	-0.303946	0.132364	-0.082639	-0.113020	-0.981263	11.754664	-11.075364	-165.778969
23863		25.960263	-4.646772	-18.075884	-28.267803	-5.508630	-23.688060	-0.479155	1.181240	-2.232703	-0.474365	-0.034668	-0.511719	0.638621	-0.136833	-0.460600	0.106151	-0.066176	-0.107424	-0.986313	11.550218	-8.820893	-168.608359
23864		26.174986	1.407910	-22.270637	-28.076750	-10.723129	-26.527450	-1.700046	-1.934479	-0.903574	-0.506348	-0.015137	-0.465820	0.667842	0.016092	-0.541201	0.091016	-0.091552	-0.089716	-0.987565	9.424564	-11.370781	-170.409097
23865		11.906829	-10.979687	11.583069	-10.534471	11.077498	2.915898	-2.085951	-6.059571	-0.580136	-0.558594	0.003906	-0.357910	0.272326	-0.268481	0.317917	0.074455	-0.168319	-0.071280	-0.980329	7.006717	-19.915254	-172.545237
23866		19.099026	-16.466673	14.263204	-14.937101	16.381733	8.823403	0.074986	-4.550394	0.190616	-0.585449	0.001221	-0.291260	0.457179	-0.410912	0.382593	0.072836	-0.224518	-0.075890	-0.968776	7.339535	-26.491856	-173.130682
23867		25.059706	7.226853	11.857014	-15.359948	-7.569127	13.152711	-0.313017	-2.126844	0.181413	-0.604004	0.014160	-0.274170	0.617918	0.183280	0.312217	0.072181	-0.251326	-0.073410	-0.962412	6.939098	-29.627269	-173.258867
23868		8.518436	-0.778718	8.054171	-3.642957	1.344444	1.276083	0.024488	-0.188784	-0.115929	-0.603760	0.011963	-0.289551	0.212456	-0.019838	0.201850	0.070758	-0.254197	-0.074172	-0.961705	7.073807	-29.961758	-173.479166
23869		6.530393	2.972031	8.318988	-1.110660	-2.054342	0.921866	-0.003528	-0.057765	-0.126502	-0.617676	0.018555	-0.298584	0.163227	0.074052	0.208089	0.069241	-0.255513	-0.074510	-0.961440	7.164459	-30.108481	-173.690837
23870		7.160705	1.017759	7.756717	-2.247777	-0.292610	0.547816	-0.014131	0.059948	-0.009818	-0.626709	0.025146	-0.298828	0.179166	0.025456	0.193779	0.069201	-0.255529	-0.074255	-0.961459	7.133024	-30.108405	-173.687294
23871		6.079362	1.414206	8.385143	-0.943978	-0.469068	0.587222	0.011406	0.036434	0.013807	-0.631836	0.038330	-0.294922	0.152073	0.035352	0.209564	0.069504	-0.255829	-0.074251	-0.961357	7.121129	-30.146138	-173.649792
23872		5.765490	0.862076	8.681818	-0.613401	0.154129	0.625608	0.020038	-0.006620	0.026214	-0.636475	0.047119	-0.281982	0.144112	0.021545	0.217063	0.069943	-0.256647	-0.074349	-0.961100	7.115869	-30.246907	-173.600784
23873		5.395152	1.419606	8.631309	-0.193877	-0.364427	0.456295	0.014056	-0.094298	0.048203	-0.627686	0.051758	-0.270996	0.134603	0.035533	0.215948	0.070546	-0.258539	-0.074380	-0.960546	7.092494	-30.475662	-173.533391
23874		6.240527	1.549715	7.830382	-1.239109	-0.725269	0.217226	-0.033359	-0.115522	0.099221	-0.623535	0.060547	-0.275879	0.155682	0.039018	0.195968	0.071586	-0.260769	-0.073696	-0.959919	6.960068	-30.742779	-173.385648
23875		5.576366	1.135151	8.490433	-0.375288	-0.154792	0.400391	-0.043780	-0.081348	0.122009	-0.612549	0.067383	-0.269287	0.139150	0.028707	0.212387	0.072896	-0.262615	-0.072782	-0.959387	6.788885	-30.964657	-173.192374
23876		5.400061	0.894692	8.664210	-0.140530	0.110647	0.434146	-0.024409	-0.081461	0.105564	-0.612793	0.071777	-0.280518	0.134751	0.022611	0.216736	0.074069	-0.264423	-0.072153	-0.958847	6.658280	-31.182897	-173.025432
23877		5.692618	0.881748	8.389903	-0.488178	0.030531	0.352673	-0.012223	-0.073734	0.091934	-0.617432	0.078613	-0.289795	0.142097	0.022239	0.209875	0.075126	-0.266108	-0.071705	-0.958332	6.554987	-31.386893	-172.878838
23878		5.783153	0.862109	8.476370	-0.483151	0.047819	0.473280	0.020704	-0.110404	0.092968	-0.622070	0.078369	-0.296387	0.144261	0.021666	0.212114	0.076270	-0.268197	-0.071682	-0.957661	6.500605	-31.642512	-172.736839
23879		5.401169	0.772219	8.680467	-0.012983	0.215855	0.437794	0.058338	-0.234497	0.113508	-0.635498	0.082764	-0.301025	0.134365	0.019338	0.217420	0.077674	-0.271746	-0.072156	-0.956512	6.493179	-32.077444	-172.583344
23880		5.516407	0.485453	8.638231	-0.093356	0.500273	0.435513	0.131113	-0.377629	0.046356	-0.650879	0.071533	-0.309570	0.136882	0.011861	0.216623	0.078393	-0.276862	-0.073863	-0.954854	6.663994	-32.704449	-172.570469
23881		5.650477	0.738783	8.966116	0.166608	0.361320	0.803486	0.227361	-0.740259	0.017735	-0.666504	0.069092	-0.287354	0.139175	0.017861	0.225499	0.078765	-0.286159	-0.077167	-0.951816	7.041454	-33.841583	-172.683428
23882		5.509007	0.769109	9.634057	0.931845	0.583878	1.256833	0.282739	-1.349306	0.035428	-0.693359	0.064209	-0.262695	0.133628	0.018431	0.243194	0.078945	-0.302597	-0.081648	-0.946328	7.567779	-35.845637	-172.913383
23883		5.291873	0.737436	9.654819	1.587626	0.792054	1.077022	0.309210	-2.137723	0.090673	-0.726807	0.059082	-0.209229	0.125764	0.017639	0.244859	0.079036	-0.328214	-0.086966	-0.937265	8.219254	-38.975976	-173.272748
23884		4.865857	0.967608	10.100698	2.932482	0.884049	1.012930	0.248825	-3.051386	0.146374	-0.755615	0.052002	-0.138184	0.111856	0.023606	0.256983	0.078712	-0.364231	-0.092167	-0.923388	8.937894	-43.405848	-173.818864
23885		4.960904	1.694381	10.111116	4.021353	0.371334	0.830464	0.205170	-4.365850	0.465276	-0.789307	0.053467	-0.036133	0.109745	0.042366	0.259137	0.079960	-0.414979	-0.096493	-0.901159	9.583598	-49.760964	-174.311550
23886		3.541601	1.842952	11.554744	7.383127	0.863447	-0.123220	0.181175	-6.201992	1.167185	-0.801270	0.075195	0.118164	0.065155	0.046475	0.294633	0.086174	-0.485285	-0.098247	-0.864535	9.603390	-58.873041	-174.043475
23887		4.377193	4.398300	12.889540	10.545695	-1.112638	-0.254954	0.007916	-8.771901	1.870924	-0.766357	0.110596	0.329834	0.070769	0.111884	0.331434	0.095134	-0.579613	-0.095725	-0.803639	8.007081	-71.770618	-172.295185
23888		22.266569	1.844334	12.277083	7.930612	0.905126	14.325784	0.160021	-10.106288	1.720452	-0.666504	0.148926	0.534912	0.511043	0.056742	0.373634	0.100690	-0.678381	-0.096004	-0.721418	1.784436	-86.491665	-165.787196
23889		27.742466	5.126138	14.550881	16.555275	-0.801141	17.194272	0.562590	-8.147729	1.110072	-0.557373	0.172119	0.665039	0.649959	0.134501	0.432460	0.105141	-0.749103	-0.101305	-0.646164	-169.449693	-81.645819	6.282697
23890		5.520535	1.290318	17.945997	18.270110	4.183819	-8.300771	0.876362	-5.623133	2.037872	-0.467041	0.226563	0.725342	0.105271	0.030239	0.457160	0.122336	-0.794053	-0.096316	-0.587569	-163.824928	-73.075077	1.810706
23891		23.494144	9.824754	27.506537	34.749917	0.009276	4.237064	3.429494	0.803419	1.767426	-0.492432	0.304199	0.653809	0.589106	0.229019	0.691809	0.170124	-0.784324	-0.102517	-0.587694	-149.786347	-73.090610	-7.735355
23892		-0.988865	12.536670	15.961436	18.648410	-5.104475	-16.054032	0.907517	4.136953	1.528092	-0.534180	0.345947	0.565674	-0.009859	0.308573	0.403322	0.195220	-0.752919	-0.085184	-0.622692	-128.282378	-76.151777	-28.675052
23893		1.223209	3.697884	10.352910	11.029744	0.619787	-10.250111	0.644772	4.641604	0.025317	-0.585938	0.345703	0.465820	0.045511	0.090382	0.257204	0.206041	-0.714126	-0.078464	-0.664390	-99.637073	-78.887409	-57.040427
23894		4.137007	4.475512	9.191825	10.325491	-1.130743	-6.135624	0.664895	5.757960	-1.617964	-0.643799	0.327393	0.342285	0.121826	0.107677	0.222371	0.203581	-0.661168	-0.083354	-0.717261	-53.229150	-79.234238	-103.253234
23895		5.272924	0.041157	8.584391	7.130864	2.164302	-3.049911	-0.233225	6.497112	-2.260673	-0.685059	0.280762	0.213135	0.148601	-0.002412	0.202989	0.187446	-0.598886	-0.083110	-0.774140	-19.619668	-73.415618	-138.085565
23896		7.324277	-3.876355	9.375380	4.495441	5.342038	0.556251	0.100563	6.859300	-2.524151	-0.698975	0.231934	0.083984	0.199068	-0.103309	0.217629	0.170219	-0.527331	-0.086558	-0.827923	-4.824284	-64.508002	-153.718632
23897		10.113158	-4.455402	10.171606	1.770174	5.336304	4.095341	0.647607	7.161372	-1.929732	-0.686523	0.192383	-0.045410	0.271315	-0.119714	0.229584	0.161525	-0.447666	-0.090322	-0.874841	1.318524	-54.336125	-159.754924
23898		12.483462	-5.357569	10.470471	-2.267812	5.484299	6.259037	1.297024	6.534652	-1.241705	-0.666992	0.148682	-0.166016	0.329745	-0.142906	0.233016	0.162000	-0.370749	-0.097869	-0.909243	4.684814	-44.903258	-161.731978
23899		22.319147	-2.374328	15.024767	-8.127685	1.435572	15.879523	1.250552	5.692396	-0.828678	-0.629639	0.107178	-0.281982	0.582038	-0.070746	0.333703	0.164910	-0.301651	-0.104049	-0.933266	6.783021	-36.680956	-162.209267
23900		25.812723	0.395586	8.913023	-16.507314	-4.365370	11.468052	0.892976	6.019482	-1.155543	-0.567383	0.061523	-0.380127	0.659653	-0.001698	0.173542	0.162152	-0.227372	-0.106019	-0.954342	8.370531	-27.928086	-162.798858
23901		27.893003	1.915479	0.307009	-23.630313	-8.874832	2.166711	-0.113076	4.947473	-1.771476	-0.517090	0.033447	-0.443359	0.696851	0.032416	-0.035504	0.146944	-0.165966	-0.099379	-0.970045	8.848822	-20.560383	-164.380514
23902		27.749010	-0.845018	-9.439065	-28.205793	-7.931709	-10.467396	0.093135	3.922148	-2.338931	-0.493408	-0.003906	-0.484131	0.680050	-0.040847	-0.269593	0.123463	-0.115355	-0.097942	-0.980743	9.730553	-14.504236	-166.891079
23903		25.334524	-4.057296	-14.973466	-27.870986	-4.411814	-19.084788	-0.445688	1.637600	-1.797406	-0.474854	-0.021240	-0.496582	0.623011	-0.117640	-0.386536	0.102789	-0.094084	-0.092461	-0.985918	9.584124	-11.801727	-169.088832
23904		28.123422	-3.943946	-14.629529	-30.409372	-3.946010	-18.764887	-0.310890	-0.279127	-1.021218	-0.481445	-0.021484	-0.487793	0.703008	-0.108987	-0.362875	0.089573	-0.097200	-0.090150	-0.987118	9.448224	-12.007869	-170.626085
23905		8.223337	4.211523	-0.857632	-7.267888	-5.478630	-8.013214	-1.439296	-3.055659	-0.214759	-0.513428	-0.004150	-0.444092	0.206531	0.104420	-0.015447	0.081722	-0.136745	-0.075970	-0.984302	7.618115	-16.356507	-171.604207
23906		5.998377	-8.514867	12.625445	-3.185495	9.708175	2.964775	-1.007855	-3.878422	-0.969506	-0.551758	-0.002686	-0.384277	0.131789	-0.210487	0.324983	0.064348	-0.184957	-0.069084	-0.978201	6.886196	-21.761328	-173.798034
23907		18.070882	-10.896382	14.115416	-12.509628	11.415721	9.092770	0.736400	-3.638546	0.125288	-0.580566	-0.014160	-0.337402	0.435616	-0.275075	0.370423	0.064437	-0.229332	-0.080598	-0.967863	8.161090	-27.020599	-174.346118
23908		17.194600	10.508274	10.387978	-8.618584	-9.800627	8.723294	-0.057462	-1.858926	0.108420	-0.603516	0.000977	-0.318115	0.423323	0.263475	0.269398	0.063766	-0.252530	-0.080974	-0.962084	8.184901	-29.751384	-174.593628
23909		9.869953	-0.785391	9.265881	-4.142408	1.677270	2.990152	-0.248255	-0.569272	0.149258	-0.619629	0.009766	-0.311768	0.245127	-0.018454	0.233454	0.064262	-0.260360	-0.077907	-0.960215	7.760598	-30.664937	-174.473210
23910		7.363748	1.657979	8.087010	-2.060786	-0.760146	1.029302	-0.051357	0.015486	0.019033	-0.631104	0.020752	-0.307617	0.184123	0.041623	0.202113	0.064403	-0.260886	-0.077147	-0.960125	7.656753	-30.723956	-174.431350
23911		6.179453	1.768107	8.172539	-0.979373	-0.763729	0.510092	-0.013930	0.040465	-0.004132	-0.635742	0.024902	-0.292236	0.154592	0.044230	0.204228	0.064412	-0.261061	-0.076893	-0.960097	7.623455	-30.743289	-174.422314
23912		5.383217	1.319218	8.928608	0.012069	-0.124715	0.695581	-0.013840	-0.021838	0.012655	-0.629395	0.033936	-0.288086	0.134514	0.033040	0.223246	0.064561	-0.261997	-0.076638	-0.959852	7.583430	-30.854034	-174.399460
23913		5.295569	1.348005	8.813381	0.069555	-0.168993	0.555647	-0.016548	-0.132290	0.017662	-0.625244	0.042969	-0.281738	0.132017	0.033775	0.220546	0.064655	-0.264260	-0.076424	-0.959242	7.547706	-31.121885	-174.392566
23914		6.432168	1.114512	7.907696	-1.334029	-0.199140	0.352307	-0.014005	-0.173382	0.026046	-0.612061	0.052002	-0.275391	0.160366	0.027950	0.198035	0.064817	-0.267013	-0.076245	-0.958483	7.513037	-31.448982	-174.380653
23915		5.650387	1.255079	8.515419	-0.287694	-0.161609	0.478351	-0.006320	-0.138444	0.033720	-0.611816	0.049805	-0.279785	0.140878	0.031453	0.213127	0.065129	-0.269347	-0.076104	-0.957820	7.478501	-31.727801	-174.348063
23916		5.428133	1.342162	8.534052	-0.032217	-0.228655	0.387446	-0.023010	-0.083377	0.039058	-0.616943	0.060791	-0.298096	0.135464	0.033682	0.213483	0.065500	-0.271034	-0.075700	-0.957350	7.408743	-31.928847	-174.294225
23917		5.600940	1.169167	8.371533	-0.259372	-0.111907	0.323398	-0.032271	-0.033406	0.036651	-0.616943	0.060791	-0.309082	0.139923	0.029378	0.209335	0.065857	-0.272123	-0.075153	-0.957060	7.321865	-32.057775	-174.233308
23918		5.772703	0.793315	8.120770	-0.573965	0.186212	0.164097	-0.020387	-0.012569	0.044545	-0.627930	0.058594	-0.317871	0.144275	0.019965	0.203037	0.066367	-0.272955	-0.074704	-0.956823	7.242353	-32.157926	-174.154475
23919		5.519847	1.325541	8.222364	-0.196761	-0.308599	0.172254	-0.027169	-0.038758	0.088311	-0.634766	0.056152	-0.317871	0.137860	0.033361	0.205615	0.067353	-0.274143	-0.074044	-0.956466	7.116377	-32.302601	-174.007337
23920		4.982329	1.161013	8.822285	0.570620	-0.005003	0.369580	0.013075	-0.094978	0.123250	-0.654785	0.055908	-0.324463	0.124251	0.029181	0.220710	0.068840	-0.275996	-0.073792	-0.955846	7.022082	-32.532570	-173.812584
23921		5.543558	1.044142	8.951020	0.222645	0.076707	0.764920	0.032689	-0.342799	0.178843	-0.666016	0.051270	-0.308838	0.137570	0.026320	0.224377	0.070829	-0.280832	-0.073794	-0.954291	6.930674	-33.123425	-173.573760
23922		5.406121	0.076136	9.555475	0.654624	1.177405	1.083178	0.161410	-0.825242	0.098402	-0.692627	0.046387	-0.295410	0.132677	0.001584	0.240267	0.071860	-0.291207	-0.076033	-0.950922	7.152328	-34.385492	-173.572499
23923		4.943533	0.413643	10.101107	1.719252	1.108378	1.252598	0.395529	-1.564641	-0.017297	-0.719482	0.039307	-0.261963	0.118620	0.009059	0.254927	0.071914	-0.309930	-0.082111	-0.944473	7.920855	-36.673276	-173.920515
23924		4.772152	0.522050	10.486593	2.655704	1.299326	1.333052	0.471416	-2.536466	-0.019486	-0.754395	0.016602	-0.198975	0.110916	0.011464	0.265841	0.071084	-0.339815	-0.089917	-0.933482	9.023466	-40.331182	-174.610487
23925		4.767827	0.906624	10.622475	3.695493	1.223393	1.193079	0.534982	-3.913434	0.100984	-0.797363	0.020264	-0.105957	0.105993	0.021004	0.271108	0.069891	-0.385251	-0.098997	-0.914821	10.547516	-45.947982	-175.744219
23926		3.175120	2.257380	11.941117	7.258442	0.591184	0.407809	0.461450	-5.744594	0.580501	-0.824219	0.023926	0.049072	0.057288	0.055162	0.303494	0.071239	-0.450729	-0.106098	-0.883466	12.176726	-54.245126	-177.034377
23927		1.520377	4.410244	13.712752	11.735160	-0.774196	-1.402850	0.203349	-8.276852	1.551667	-0.807373	0.061279	0.258545	0.000253	0.109630	0.344428	0.078169	-0.541791	-0.106291	-0.830093	13.229067	-66.361115	-177.913303
23928		13.374057	5.145630	13.258031	9.934905	-1.499461	6.856414	0.148636	-10.715894	1.931808	-0.712158	0.104004	0.492188	0.283015	0.135235	0.371981	0.084250	-0.650412	-0.104150	-0.747675	19.237579	-81.949038	176.111798
23929		30.206093	2.054174	12.219561	11.812705	2.028157	20.465593	0.474742	-9.855539	1.547104	-0.580566	0.129639	0.666504	0.708919	0.063214	0.395228	0.089056	-0.739036	-0.105485	-0.659369	176.268149	-83.405199	19.571722
23930		10.402583	8.876303	18.384807	21.782646	-3.018837	-3.490271	0.670570	-7.115116	1.643119	-0.467529	0.175293	0.747314	0.213256	0.222632	0.481859	0.098996	-0.796161	-0.103223	-0.587939	-172.850683	-73.062976	9.475059
23931		27.757932	3.525889	30.074967	36.741488	7.192178	7.077681	3.356648	-1.641785	1.643711	-0.463867	0.261963	0.715332	0.676713	0.070136	0.769079	0.142165	-0.805353	-0.113348	-0.564223	-162.617386	-70.224542	3.753028
23932		0.140518	16.100529	21.227647	24.622005	-7.016252	-17.155758	1.397855	5.011876	1.175892	-0.541016	0.283691	0.601318	0.031178	0.393494	0.536246	0.171244	-0.767558	-0.102153	-0.609176	-145.199805	-75.963602	-12.336417
23933		-1.883090	1.688533	12.193441	11.384659	3.366358	-13.543824	0.714949	5.148425	0.252274	-0.611572	0.305176	0.489502	-0.027468	0.039365	0.307386	0.186038	-0.725662	-0.093846	-0.655742	-115.723859	-80.613988	-41.369035
23934		3.879354	3.476109	10.563113	11.220578	0.593482	-6.326056	1.395312	6.213364	-1.482598	-0.658447	0.296143	0.336670	0.118665	0.080311	0.256856	0.193141	-0.667457	-0.103928	-0.711616	-51.508943	-81.927438	-104.178114
23935		4.932438	1.181476	9.322026	8.277655	1.847467	-3.457816	-0.153821	7.040085	-2.025817	-0.697510	0.256104	0.200684	0.143824	0.026498	0.220931	0.182370	-0.599866	-0.102089	-0.772321	-13.251212	-74.539370	-143.325330
23936		6.289189	-4.226665	9.374014	4.530039	6.195017	-0.533560	-0.309931	7.289895	-2.289985	-0.697998	0.203125	0.058350	0.174592	-0.109633	0.219372	0.166772	-0.524598	-0.099248	-0.828935	-1.390708	-64.531131	-156.371157
23937		8.878494	-4.654912	10.815555	2.624549	6.275810	3.252801	0.504106	7.115209	-1.862577	-0.680908	0.161621	-0.057617	0.241923	-0.123470	0.248680	0.158886	-0.445397	-0.101380	-0.875271	3.529023	-54.282100	-161.232006
23938		14.801641	-4.945710	12.820756	-2.105849	5.694961	9.425268	1.306684	6.621350	-1.207213	-0.663818	0.117676	-0.182617	0.392736	-0.134328	0.286476	0.160747	-0.367280	-0.108798	-0.909631	6.448353	-44.680805	-162.609032
23939		24.872965	-0.946971	15.572077	-9.583366	0.123065	17.906742	1.469508	6.190241	-0.806231	-0.622070	0.080811	-0.316406	0.649054	-0.036670	0.339152	0.166219	-0.291744	-0.116329	-0.934732	8.536398	-35.737828	-162.590210
23940		29.610346	1.603170	9.629110	-19.504745	-6.063243	13.691170	1.239235	6.807418	-1.241431	-0.548584	0.037598	-0.418945	0.757621	0.025327	0.177166	0.165493	-0.206840	-0.120652	-0.956699	10.394172	-25.829948	-162.761448
23941		28.800284	2.516006	-0.531420	-24.984965	-10.087901	0.594694	0.053886	6.010354	-2.066795	-0.480225	0.005371	-0.493164	0.717609	0.044360	-0.067263	0.149490	-0.131266	-0.113760	-0.973386	10.974615	-16.831462	-164.166273
23942		28.446334	0.026719	-11.480096	-28.756671	-9.685132	-14.166494	-0.416894	4.314674	-2.803749	-0.447754	-0.025391	-0.538574	0.693729	-0.025487	-0.324661	0.120571	-0.075521	-0.104944	-0.984249	11.027965	-10.018634	-167.001711
23943		27.131535	-3.951662	-18.999309	-29.255290	-5.520822	-24.841744	-0.942282	1.303099	-2.453796	-0.429443	-0.036133	-0.547119	0.666879	-0.125037	-0.484539	0.091180	-0.057938	-0.093606	-0.989731	10.152065	-7.571134	-170.146344
23944		20.071337	-1.637221	-23.668582	-23.017412	-5.860200	-29.840407	-1.226524	-2.690642	-0.985293	-0.479004	-0.030273	-0.489746	0.520653	-0.056155	-0.573629	0.074953	-0.091813	-0.082123	-0.989550	8.722422	-11.187339	-172.192752
23945		14.280501	-4.456504	17.654756	-10.031235	5.727518	10.212463	-1.149877	-6.014835	-0.320348	-0.541992	-0.022461	-0.399170	0.322037	-0.106146	0.468026	0.063351	-0.167085	-0.073660	-0.981144	7.530141	-19.706490	-173.920954
23946		16.298390	-11.887731	13.385698	-11.693427	12.516164	7.282272	0.232159	-4.794959	0.078381	-0.584717	-0.025391	-0.328125	0.386777	-0.297823	0.357383	0.060332	-0.225934	-0.079967	-0.968978	8.210332	-26.583399	-174.817041
23947		21.917800	11.079769	11.267369	-12.159343	-10.481207	11.914678	-0.032946	-3.104549	0.358979	-0.609619	-0.014648	-0.295166	0.535222	0.279537	0.302508	0.061503	-0.264258	-0.080747	-0.959096	8.218933	-31.119845	-174.953976
23948		11.290552	-2.796572	9.478729	-5.212281	3.564927	3.798134	-0.587942	-0.732783	0.443146	-0.619385	0.002930	-0.298096	0.280449	-0.066601	0.240040	0.064184	-0.274477	-0.072736	-0.956688	7.064062	-32.311003	-174.372295
23949		7.840822	2.654496	8.616629	-1.691749	-1.773518	1.881905	-0.170152	-0.098160	0.067515	-0.633057	0.009521	-0.298340	0.195700	0.066986	0.215514	0.064377	-0.276417	-0.070479	-0.956285	6.757457	-32.530062	-174.270933
23950		7.958239	0.772853	7.469746	-2.661868	-0.177103	0.799141	-0.125550	0.033767	0.098654	-0.635254	0.011719	-0.291748	0.199010	0.019860	0.186629	0.065210	-0.276772	-0.068546	-0.956267	6.472368	-32.566351	-174.090267
23951		6.261985	1.085787	8.452500	-0.668624	-0.211846	0.739285	-0.069323	0.048588	0.102653	-0.635742	0.020508	-0.287598	0.156643	0.027529	0.211194	0.066296	-0.276911	-0.067258	-0.956243	6.262383	-32.582087	-173.899921
23952		5.602522	0.603412	8.789098	-0.005916	0.354206	0.621635	-0.010941	-0.023941	0.072674	-0.633545	0.027100	-0.274658	0.139983	0.015243	0.219767	0.067164	-0.277841	-0.066832	-0.955943	6.170286	-32.695785	-173.773555
23953		5.839057	1.004771	8.503980	-0.248870	-0.110783	0.548175	0.028353	-0.157205	0.033586	-0.631348	0.024902	-0.263428	0.145548	0.025105	0.212895	0.067590	-0.280293	-0.067120	-0.955177	6.182857	-32.992628	-173.737448
23954		6.381973	1.202766	7.872479	-0.947803	-0.455827	0.338465	0.009464	-0.155535	0.050825	-0.617920	0.031738	-0.265869	0.159147	0.030147	0.197125	0.068156	-0.282749	-0.067121	-0.954412	6.151927	-33.289322	-173.671563
23955		5.296970	0.969186	8.769247	0.435798	0.023218	0.468674	0.015431	-0.095157	0.052699	-0.614014	0.042969	-0.277344	0.132147	0.024274	0.219393	0.068815	-0.284479	-0.067135	-0.953850	6.121365	-33.500168	-173.591112
23956		5.345300	0.834611	8.718880	0.379379	0.145642	0.440239	0.031331	-0.065941	0.020544	-0.616211	0.045166	-0.277344	0.133447	0.020814	0.218090	0.069171	-0.285813	-0.067427	-0.953404	6.140658	-33.663780	-173.560084
23957		6.316917	0.532379	7.928788	-0.874434	0.228137	0.298487	0.048507	-0.042089	-0.011048	-0.625244	0.045166	-0.295166	0.157820	0.013167	0.198311	0.069232	-0.286815	-0.068016	-0.953057	6.212053	-33.787898	-173.578794
23958		5.772220	0.481971	8.455034	-0.127531	0.444075	0.425711	0.128999	-0.079234	-0.078232	-0.627441	0.042969	-0.297363	0.144108	0.011567	0.211538	0.068750	-0.288131	-0.069835	-0.952563	6.467023	-33.954056	-173.720059
23959		5.203950	1.012132	8.440244	0.456854	0.020160	0.143908	0.165422	-0.153652	-0.100533	-0.645020	0.033691	-0.308105	0.129724	0.024703	0.211307	0.068070	-0.290275	-0.072230	-0.951782	6.804989	-34.221308	-173.915633
23960		5.398447	1.318409	8.458799	0.408154	-0.243177	0.297042	0.157997	-0.203183	-0.049140	-0.658203	0.026855	-0.303467	0.134443	0.032459	0.211876	0.067930	-0.293052	-0.074392	-0.950774	7.090440	-34.566306	-174.035356
23961		6.122309	1.045575	8.386365	-0.185360	-0.001857	0.621465	0.165851	-0.417770	0.021781	-0.676025	0.022217	-0.296631	0.151953	0.025745	0.210508	0.068461	-0.298425	-0.076569	-0.948890	7.346294	-35.227871	-174.081907
23962		5.328885	0.738902	9.463767	1.181249	0.640836	0.989844	0.266645	-0.878720	0.011469	-0.696045	0.015381	-0.278809	0.130610	0.017699	0.238098	0.068800	-0.309139	-0.080367	-0.945114	7.824169	-36.541283	-174.259656
23963		4.826109	0.799814	9.914538	2.171397	0.837554	0.994596	0.375528	-1.503135	0.001423	-0.722656	0.001465	-0.244873	0.115966	0.018827	0.250162	0.068798	-0.327033	-0.086003	-0.938573	8.584990	-38.735256	-174.638087
23964		5.285565	0.565461	9.836891	2.235537	1.196664	1.075636	0.396850	-2.323264	-0.020362	-0.762695	-0.003418	-0.191650	0.124927	0.012872	0.249686	0.067453	-0.354309	-0.092621	-0.928082	9.626834	-42.078754	-175.396591
23965		5.326210	0.936880	9.820711	3.040000	1.055157	0.923068	0.454962	-3.492604	0.077275	-0.796143	-0.008545	-0.100586	0.122249	0.022126	0.251143	0.065942	-0.394697	-0.100300	-0.910937	11.063911	-47.080906	-176.551424
23966		4.114783	2.130316	10.821494	5.904454	0.418253	0.353807	0.380644	-4.971580	0.395190	-0.818604	-0.009277	0.034668	0.085544	0.052403	0.276466	0.065457	-0.451195	-0.106407	-0.883638	12.746106	-54.224783	-178.072851
23967		2.735808	2.754343	11.998840	9.164856	0.307315	-1.178402	0.263951	-6.870327	1.239429	-0.815186	0.025879	0.213135	0.041286	0.068638	0.304523	0.070451	-0.527202	-0.107224	-0.839999	14.109391	-64.264247	-179.300662
23968		7.299519	5.032606	12.076382	9.875429	-1.751360	1.270132	0.090146	-9.395078	1.707544	-0.751221	0.061523	0.433838	0.142793	0.128796	0.320405	0.075881	-0.624415	-0.104339	-0.770365	18.395748	-77.928868	176.329150
23969		27.502553	1.434869	11.645937	9.294871	2.308032	18.427337	0.366159	-10.088733	1.692594	-0.624268	0.095947	0.630127	0.642827	0.048223	0.374447	0.081236	-0.718334	-0.103282	-0.683176	155.410112	-86.636970	39.590411
23970		20.816869	9.545102	17.798412	22.519589	-3.652388	8.015821	0.432799	-8.134460	1.484745	-0.499512	0.125977	0.742188	0.467170	0.245045	0.495641	0.086834	-0.785538	-0.101264	-0.604265	-176.843766	-75.224323	12.259124
23971		14.553202	-0.206641	21.099296	23.746769	6.626012	-2.879473	1.430750	-5.785354	2.239879	-0.407227	0.189209	0.782227	0.324632	-0.005435	0.551825	0.110128	-0.828153	-0.095964	-0.541134	-168.615322	-66.551664	5.734054
23972		19.220814	16.351299	26.922496	35.745113	-6.362390	-3.252364	3.249839	2.693841	1.054458	-0.468262	0.257568	0.697754	0.497973	0.387935	0.672531	0.153904	-0.805637	-0.103099	-0.562701	-157.550644	-69.784687	-1.174448
23973		-1.560960	8.827492	15.185909	16.083919	-2.665925	-16.516076	0.059286	4.843795	0.731630	-0.540771	0.279297	0.601318	-0.017976	0.220176	0.381325	0.165048	-0.771049	-0.086286	-0.608931	-143.766137	-75.355720	-15.589739
23974		3.027247	0.446333	11.196648	11.004184	3.387947	-8.420849	0.639777	5.511764	-1.062257	-0.623779	0.271729	0.475098	0.094819	0.007776	0.273891	0.168388	-0.724816	-0.089673	-0.662002	-118.048286	-81.833056	-40.869527
23975		4.942766	1.850757	9.779501	9.877383	1.270732	-4.913789	0.177819	6.778277	-1.950942	-0.683350	0.238037	0.329834	0.144714	0.042382	0.232910	0.160763	-0.663432	-0.094183	-0.724667	-36.987444	-82.665294	-122.198019
23976		5.106627	-3.480784	8.672273	5.953662	5.561469	-2.971863	-0.552811	7.275181	-2.062144	-0.708740	0.191650	0.189697	0.144390	-0.089157	0.204782	0.145479	-0.593297	-0.091263	-0.786451	-5.942444	-73.689118	-154.585197
23977		7.826689	-5.665392	9.983938	4.207257	7.390450	1.156633	-0.068026	7.368066	-1.873185	-0.709961	0.156494	0.046631	0.214115	-0.146308	0.230548	0.134491	-0.516221	-0.090671	-0.840956	1.734736	-63.205213	-162.895036
23978		11.487175	-6.710053	11.766969	1.337342	8.050431	5.937302	0.750000	7.429092	-1.119498	-0.692871	0.121338	-0.083008	0.310268	-0.174564	0.264431	0.135361	-0.433369	-0.092813	-0.886146	4.442253	-52.483994	-164.820791
23979		18.411709	-4.453373	12.257258	-5.165620	4.435741	11.664778	1.500045	7.161301	-0.738711	-0.662598	0.086670	-0.225830	0.483980	-0.120924	0.261564	0.143018	-0.348880	-0.100818	-0.920687	6.651077	-42.164025	-164.907166
23980		26.072655	0.252996	11.712052	-13.439174	-2.360410	15.267469	0.912821	6.465977	-0.748890	-0.609619	0.049805	-0.348633	0.672598	-0.002845	0.238961	0.146036	-0.270758	-0.102583	-0.945960	7.866319	-32.834511	-164.769155
23981		31.322775	3.412827	3.309828	-24.252154	-9.293746	8.269267	0.013134	6.310546	-1.720645	-0.539063	0.022217	-0.447266	0.787928	0.068389	0.020686	0.133355	-0.193095	-0.096604	-0.967263	8.491757	-23.535271	-166.072564
23982		31.112289	1.027741	-9.078225	-30.963087	-9.271833	-7.552602	-0.777420	4.795458	-2.588275	-0.495605	-0.006104	-0.497314	0.762593	-0.001662	-0.273069	0.105700	-0.132966	-0.085157	-0.981782	8.329063	-16.205852	-168.898084
23983		26.831932	-1.949148	-18.051251	-29.976838	-5.743286	-20.651190	-0.396560	2.019555	-2.525903	-0.480957	-0.039063	-0.511475	0.657101	-0.071915	-0.467670	0.076153	-0.106110	-0.081687	-0.988063	8.568137	-12.834059	-172.150948
23984		30.537409	-2.388314	-17.395380	-33.445541	-4.228775	-20.021565	-0.205247	-0.500567	-1.416884	-0.491455	-0.054688	-0.502197	0.764905	-0.074354	-0.429923	0.057912	-0.111317	-0.081440	-0.988748	8.755533	-13.271304	-174.316451
23985		7.473765	5.285017	-5.720308	-7.964839	-6.792780	-12.432207	-0.722589	-4.010673	-0.247386	-0.536865	-0.042236	-0.433838	0.194139	0.130291	-0.134577	0.049758	-0.161395	-0.075605	-0.982731	8.055488	-18.949823	-175.549501
23986		11.564113	-6.628009	15.307729	-5.855638	8.282817	7.755382	-0.725963	-4.609369	-0.356537	-0.583984	-0.042969	-0.358643	0.265650	-0.163341	0.399946	0.039536	-0.218247	-0.070119	-0.972568	7.582944	-25.471652	-177.060499
23987		24.034825	-1.608021	15.621571	-14.235768	3.137229	14.911508	0.693487	-3.476308	0.226335	-0.615234	-0.047852	-0.322998	0.583282	-0.042065	0.415786	0.041151	-0.260569	-0.079516	-0.961295	8.773851	-30.498259	-177.493749
23988		15.213506	3.885298	8.018219	-8.407779	-3.071879	5.375593	-0.651741	-1.303030	0.275405	-0.633545	-0.037109	-0.303467	0.376673	0.100096	0.205803	0.041091	-0.277266	-0.071368	-0.957257	7.754402	-32.458930	-177.344483
23989		8.829560	0.137741	8.926565	-2.701409	0.926381	2.414637	-0.109971	-0.183264	0.075167	-0.640137	-0.039551	-0.307617	0.220223	0.003958	0.223664	0.041501	-0.280081	-0.069817	-0.956534	7.540782	-32.793289	-177.253181
23990		6.810511	1.700367	8.380817	-1.067383	-0.629579	1.049020	0.029301	-0.014511	-0.055151	-0.646973	-0.041748	-0.298828	0.170254	0.042315	0.209567	0.040988	-0.280697	-0.070296	-0.956341	7.624344	-32.863962	-177.343308
23991		6.105657	1.405579	8.199381	-0.594203	-0.322265	0.484282	0.066974	-0.020838	-0.046202	-0.651123	-0.046387	-0.285400	0.152608	0.034880	0.205054	0.040709	-0.281376	-0.071200	-0.956086	7.754941	-32.945210	-177.420040
23992		5.691934	1.862031	8.791428	0.153990	-0.644516	0.804054	0.052553	-0.154356	-0.003718	-0.647217	-0.032959	-0.272461	0.141876	0.046400	0.220090	0.040768	-0.283694	-0.071850	-0.955350	7.843021	-33.223901	-177.456131
23993		6.168391	1.375273	8.359660	-0.474416	-0.245336	0.653392	-0.008598	-0.208316	0.052221	-0.640137	-0.041748	-0.265381	0.153642	0.034505	0.209388	0.041229	-0.286731	-0.071601	-0.954442	7.798687	-33.589593	-177.410118
23994		6.113954	0.954206	8.037877	-0.585917	0.120896	0.313526	0.027749	-0.226566	0.046634	-0.633545	-0.037109	-0.270020	0.152265	0.023874	0.201387	0.041737	-0.289957	-0.071815	-0.953428	7.813737	-33.979871	-177.377660
23995		5.120228	1.491512	8.674597	0.715235	-0.266313	0.341488	0.006512	-0.190891	0.049571	-0.627441	-0.021484	-0.272949	0.127465	0.037349	0.217173	0.042234	-0.292768	-0.071744	-0.952552	7.790453	-34.319909	-177.331583
23996		5.597528	1.173440	8.389552	0.180927	-0.019871	0.339189	-0.022564	-0.155590	0.032965	-0.632080	-0.017090	-0.284180	0.139518	0.029453	0.210002	0.042457	-0.295150	-0.071370	-0.951835	7.736665	-34.605920	-177.305465
23997		6.124845	0.688666	8.125696	-0.408462	0.398927	0.370082	0.026672	-0.160941	-0.020038	-0.640869	-0.019531	-0.288574	0.152716	0.017111	0.203456	0.042225	-0.297517	-0.071780	-0.951077	7.806180	-34.888784	-177.372147
23998		5.426957	0.570915	8.528200	0.433348	0.637368	0.282533	0.153865	-0.251440	-0.076164	-0.651855	-0.026367	-0.297119	0.135016	0.013733	0.213657	0.041719	-0.300837	-0.073955	-0.949888	8.127399	-35.288443	-177.559378
23999		5.157034	1.355560	8.854749	1.030734	-0.013202	0.472013	0.205014	-0.465339	-0.086948	-0.660645	-0.030762	-0.292480	0.127671	0.033181	0.222199	0.041079	-0.306645	-0.076887	-0.947824	8.568538	-35.987382	-177.824403
24000		5.740296	1.054907	8.429521	0.421399	0.262870	0.427991	0.203044	-0.637105	-0.073651	-0.685059	-0.040039	-0.283447	0.141847	0.025705	0.211938	0.040422	-0.314475	-0.079827	-0.945039	9.029575	-36.929844	-178.122272
24001		6.584887	1.212527	7.971398	-0.312627	0.087520	0.592337	0.239532	-0.823187	-0.111949	-0.702881	-0.049316	-0.260986	0.162601	0.029484	0.201054	0.039267	-0.324411	-0.083436	-0.941411	9.631273	-38.123597	-178.557865
24002		5.652427	1.090251	8.920956	1.247021	0.508669	0.718157	0.319625	-1.231016	-0.126721	-0.724854	-0.060791	-0.233887	0.137898	0.026139	0.225269	0.037833	-0.339023	-0.088231	-0.935867	10.473830	-39.884145	-179.179490
24003		5.493537	1.226237	9.319055	2.042878	0.603546	0.862859	0.463711	-1.849716	-0.097084	-0.753662	-0.072266	-0.184814	0.131937	0.029130	0.236241	0.036168	-0.360730	-0.094834	-0.927131	11.721572	-42.512238	179.894833
24004		5.554466	1.176888	9.451578	2.671243	0.857268	0.848202	0.476893	-2.607762	0.001338	-0.780518	-0.072754	-0.115967	0.131060	0.027998	0.240817	0.034630	-0.391026	-0.101360	-0.914126	13.218190	-46.212726	178.678753
24005		5.443521	1.795118	9.316529	3.570985	0.414912	0.513925	0.576066	-3.737971	0.164442	-0.804932	-0.075684	-0.020508	0.124915	0.043434	0.239242	0.033902	-0.433725	-0.108465	-0.893851	15.325610	-51.510703	176.916144
24006		3.966390	1.946490	11.021185	6.936488	0.766795	-0.216552	0.523519	-5.149880	0.575675	-0.821045	-0.067383	0.125488	0.080816	0.047458	0.281442	0.035323	-0.491336	-0.112872	-0.862903	18.034047	-58.861996	174.456084
24007		3.211436	4.236652	13.266874	11.076368	-0.899907	-0.856964	0.421644	-7.346647	0.996464	-0.794434	-0.052002	0.304688	0.048121	0.104879	0.337635	0.037131	-0.570024	-0.113600	-0.812889	23.697800	-69.255491	168.743067
24008		15.481482	5.739862	11.504044	8.531686	-1.759562	8.272983	0.484995	-9.753624	1.336899	-0.698975	-0.013672	0.527344	0.345817	0.147587	0.332399	0.040036	-0.666505	-0.112574	-0.735864	52.494035	-81.861074	139.927268
24009		27.140290	2.295878	12.931363	13.389166	3.281939	16.921219	1.099669	-9.436382	1.610285	-0.570068	0.023193	0.690430	0.632948	0.065302	0.400720	0.050399	-0.750202	-0.113085	-0.649514	154.756366	-80.378134	38.567378
24010		11.410749	13.939149	19.835042	24.615107	-7.952192	-2.980842	0.821170	-7.472091	2.065759	-0.452637	0.071045	0.784180	0.228212	0.349591	0.522580	0.064019	-0.809785	-0.104468	-0.573791	177.217250	-70.504998	16.668944
24011		27.820937	-1.215928	23.426636	30.948390	9.092726	7.001294	2.352456	-4.080885	2.650533	-0.401855	0.162598	0.787598	0.665395	-0.025900	0.619332	0.101273	-0.838883	-0.097476	-0.525850	-171.019322	-64.421646	7.591037
24012		8.558080	18.783240	21.238282	27.361733	-11.176941	-11.588451	2.325345	4.014605	0.697984	-0.493652	0.215088	0.697021	0.236650	0.456105	0.532850	0.134885	-0.809045	-0.100124	-0.563229	-162.233265	-69.778954	1.669117
24013		-0.593225	5.600007	11.498392	11.941436	-1.565893	-14.141452	-0.480123	4.697058	0.535121	-0.563477	0.221191	0.607910	0.001086	0.141695	0.286860	0.138809	-0.776150	-0.082869	-0.609472	-152.357913	-75.717106	-9.463290
24014		4.483142	0.278972	9.137191	9.420115	2.370952	-6.791621	0.126913	5.698030	-0.926165	-0.635254	0.216064	0.481689	0.128010	0.005200	0.219694	0.138128	-0.729623	-0.082535	-0.664649	-130.456073	-83.066870	-31.557337
24015		4.944976	0.005657	7.875149	7.578539	2.020604	-4.838230	-0.274192	6.783480	-1.479999	-0.688477	0.193604	0.342529	0.139668	-0.001696	0.185483	0.129697	-0.669518	-0.081694	-0.726808	-31.350412	-83.940869	-131.432168
24016		6.104380	-3.655899	7.611477	5.118100	5.088283	-2.312603	-0.533244	7.319315	-1.548676	-0.718994	0.162598	0.199463	0.167369	-0.093339	0.176028	0.118160	-0.599399	-0.077607	-0.787868	-4.110888	-74.330290	-159.824357
24017		7.135011	-4.894003	8.706709	4.007325	6.219474	-0.035389	0.069223	7.467806	-1.449052	-0.722656	0.134033	0.060791	0.195341	-0.125968	0.199835	0.111297	-0.521659	-0.077763	-0.842281	1.920884	-63.647080	-166.137531
24018		11.129011	-5.096099	11.061358	1.920778	6.306124	5.286957	0.799536	7.427304	-0.899156	-0.703613	0.105713	-0.075684	0.300677	-0.133277	0.247973	0.113745	-0.439208	-0.081302	-0.887439	4.224030	-52.943045	-167.496353
24019		16.787377	-3.925851	11.299797	-4.219687	4.118597	9.909083	1.575006	7.179803	-0.489356	-0.669189	0.082031	-0.223389	0.441969	-0.105834	0.241424	0.123747	-0.354995	-0.090818	-0.922181	6.213927	-42.626520	-167.140721
24020		24.756325	-2.484738	11.054014	-13.397282	0.826022	13.841558	1.438219	6.171296	-0.514283	-0.618652	0.047607	-0.341797	0.637235	-0.070551	0.226412	0.130795	-0.279933	-0.099752	-0.945822	7.982910	-33.753936	-166.678749
24021		30.711442	2.184992	4.529734	-23.436224	-6.964087	9.392177	0.965612	6.078713	-1.161348	-0.552490	0.015381	-0.440430	0.774125	0.042510	0.055105	0.127619	-0.204228	-0.104894	-0.964884	9.536924	-24.890547	-167.040561
24022		31.745178	1.422719	-7.990908	-31.033480	-9.431606	-5.311758	-0.294035	4.507892	-1.949357	-0.504395	-0.010498	-0.494873	0.781243	0.015580	-0.244128	0.109048	-0.147471	-0.098863	-0.978053	9.763393	-18.061098	-168.831593
24023		28.367216	-0.929593	-17.327514	-31.194980	-7.473266	-18.541789	-0.287835	2.477367	-2.366767	-0.478516	-0.041260	-0.513672	0.694191	-0.045540	-0.454707	0.082583	-0.114679	-0.096184	-0.985280	10.126114	-13.996864	-171.663995
24024		29.251236	-4.267519	-18.565090	-32.807251	-3.269742	-21.275016	-0.160781	-0.079939	-1.507555	-0.484863	-0.054688	-0.508789	0.729549	-0.121379	-0.463164	0.063726	-0.114252	-0.096388	-0.986709	10.418581	-13.753924	-173.869398
24025		7.110162	4.887025	-4.197638	-7.189975	-6.228509	-11.053225	-1.401245	-3.162523	-0.385917	-0.521240	-0.039795	-0.449463	0.182351	0.119524	-0.099901	0.053158	-0.154149	-0.082049	-0.983199	8.775327	-18.170216	-175.216442
24026		8.232988	-12.477160	15.048450	-3.841213	14.298085	5.361884	-1.034760	-4.745393	-0.481838	-0.571045	-0.031738	-0.376709	0.181033	-0.308070	0.391447	0.040342	-0.212717	-0.073245	-0.973529	7.945867	-24.839719	-177.006683
24027		22.977857	-1.710894	15.934544	-13.430236	3.462593	14.517110	0.958826	-3.611804	0.260071	-0.595459	-0.034424	-0.330078	0.555855	-0.045919	0.423207	0.042760	-0.256555	-0.085879	-0.961757	9.526427	-30.055004	-177.471607
24028		17.282174	4.260520	8.478862	-9.971034	-3.303316	6.870877	-0.617755	-1.501404	0.203563	-0.622803	-0.025879	-0.312744	0.427710	0.109279	0.219189	0.041656	-0.275518	-0.078492	-0.957180	8.660048	-32.274788	-177.526319
24029		9.352224	0.943169	8.967121	-3.046247	0.265030	2.813146	-0.131759	-0.359427	0.111958	-0.627441	-0.021484	-0.308350	0.232762	0.024276	0.225186	0.042241	-0.280442	-0.076632	-0.955874	8.406987	-32.861435	-177.422697
24030		7.701843	1.570730	8.053020	-1.994018	-0.474029	1.252388	-0.036034	-0.012159	0.040170	-0.636475	-0.021729	-0.295166	0.192496	0.039456	0.201337	0.042636	-0.281101	-0.075982	-0.955715	8.308026	-32.941569	-177.351606
24031		5.596900	2.046774	8.361206	0.004941	-0.826999	0.421586	-0.038214	0.028496	0.069372	-0.629883	-0.012695	-0.284180	0.139952	0.051391	0.208956	0.043410	-0.281306	-0.075182	-0.955683	8.173660	-32.970391	-177.221080
24032		5.229155	1.138188	8.993859	0.561532	0.174058	0.636394	-0.025572	-0.127398	0.058209	-0.632568	-0.003906	-0.275635	0.130350	0.028622	0.225045	0.043948	-0.283352	-0.074659	-0.955095	8.088253	-33.217477	-177.147047
24033		5.476789	1.273537	8.691488	0.272658	-0.028339	0.535429	-0.024855	-0.264137	0.054802	-0.630371	-0.003906	-0.269043	0.136179	0.031999	0.217728	0.044320	-0.287020	-0.074231	-0.954015	8.024374	-33.657176	-177.111053
24034		5.878797	1.093755	8.362722	-0.181680	0.073867	0.466066	-0.011079	-0.275982	0.042371	-0.619385	0.007324	-0.273926	0.146233	0.027450	0.209570	0.044580	-0.290802	-0.074017	-0.952874	7.993105	-34.110733	-177.098567
24035		5.485856	1.548392	8.410935	0.299476	-0.355815	0.337161	-0.047353	-0.198438	0.052777	-0.621826	0.009521	-0.276123	0.136599	0.038925	0.210590	0.044903	-0.293684	-0.073289	-0.952031	7.888853	-34.456067	-177.048969
24036		5.611240	1.409964	8.382233	0.213133	-0.245272	0.367202	-0.067119	-0.107537	0.053404	-0.624268	0.018555	-0.285400	0.139976	0.035519	0.209714	0.045243	-0.295491	-0.072273	-0.951533	7.742853	-34.672001	-176.975846
24037		5.988976	0.590980	8.200466	-0.267926	0.502408	0.343124	-0.021857	-0.085237	0.027516	-0.628906	0.020752	-0.298828	0.149501	0.014882	0.205167	0.045462	-0.296978	-0.071879	-0.951089	7.683767	-34.850793	-176.941694
24038		5.660718	0.660693	8.351563	0.129719	0.480862	0.285861	0.086685	-0.124924	-0.015991	-0.639893	0.013916	-0.300781	0.141195	0.016263	0.209027	0.045530	-0.298834	-0.072957	-0.950422	7.828390	-35.077289	-176.992230
24039		5.365742	1.320631	8.494036	0.593290	-0.098327	0.302731	0.186977	-0.269177	0.007320	-0.653076	0.007080	-0.302734	0.133425	0.032531	0.212877	0.046119	-0.302361	-0.075219	-0.949101	8.114239	-35.512501	-177.038420
24040		5.581252	1.151332	8.569260	0.536176	0.114759	0.463806	0.144166	-0.442312	0.040130	-0.666504	0.002441	-0.295898	0.138329	0.028466	0.215050	0.046771	-0.307984	-0.076947	-0.947121	8.332735	-36.199158	-177.073572
24041		5.915833	1.149292	8.658686	0.468058	0.162665	0.724989	0.175536	-0.651710	0.072496	-0.688721	-0.002441	-0.289063	0.146100	0.028388	0.217725	0.047724	-0.316076	-0.079040	-0.944230	8.597605	-37.188653	-177.110461
24042		5.471372	0.832256	9.450226	1.487584	0.707144	1.013853	0.300381	-1.126069	0.084896	-0.713379	-0.000488	-0.253662	0.133419	0.020057	0.238226	0.048841	-0.329652	-0.082827	-0.939193	9.115634	-38.851519	-177.266885
24043		5.215552	0.832019	9.751488	2.275382	0.900429	1.002776	0.441168	-1.862304	0.083939	-0.739990	-0.011963	-0.211182	0.124645	0.019578	0.246844	0.049784	-0.351636	-0.088684	-0.930596	10.007354	-41.551413	-177.680394
24044		5.270591	0.516499	9.830063	2.859970	1.403814	0.886527	0.500078	-2.810437	0.086335	-0.775391	-0.023682	-0.144287	0.123012	0.011493	0.250251	0.049769	-0.384282	-0.095715	-0.916891	11.310178	-45.579071	-178.550733
24045		4.523726	1.361504	10.699089	5.051945	1.004114	0.681514	0.594738	-4.220716	0.201511	-0.809082	-0.026855	-0.026611	0.098693	0.032281	0.273184	0.049559	-0.432359	-0.103916	-0.894321	13.309665	-51.594738	179.888012
24046		2.914181	2.239344	12.446591	8.847391	0.766065	-0.367407	0.552875	-6.210153	0.927554	-0.816406	-0.007324	0.136719	0.047800	0.054461	0.315907	0.054232	-0.501624	-0.108385	-0.856554	15.502549	-60.585852	178.152636
24047		4.571932	6.346270	14.450633	12.492181	-2.592962	0.489036	0.184569	-8.918681	1.570830	-0.779297	0.025879	0.353027	0.070103	0.159475	0.371104	0.059311	-0.596042	-0.105576	-0.793769	19.935259	-73.488635	173.596586
24048		23.971988	2.118448	12.246411	8.499602	1.801657	15.673119	0.297050	-10.241906	1.842261	-0.672852	0.071045	0.559814	0.552375	0.064746	0.379242	0.065763	-0.694767	-0.101408	-0.709007	75.015627	-86.889409	118.566782
24049		24.410031	8.784563	15.366568	18.878954	-3.547334	13.357287	0.833183	-8.204263	1.626912	-0.559326	0.105469	0.687500	0.562009	0.226950	0.445862	0.076619	-0.765072	-0.100747	-0.631384	177.007892	-78.975459	17.469053
24050		3.535891	0.762647	15.922214	15.886068	3.567114	-10.744241	1.619626	-6.597584	2.637348	-0.449707	0.182129	0.762451	0.054725	0.013098	0.403805	0.104217	-0.815796	-0.094133	-0.561030	-169.535473	-69.226928	5.931141
24051		26.498944	8.935862	24.202505	33.641417	0.155480	5.535442	4.875287	-0.358630	1.604506	-0.460205	0.288818	0.692139	0.655556	0.199073	0.620645	0.164461	-0.812267	-0.112143	-0.548270	-157.298641	-68.058898	0.282475
24052		0.284548	15.720425	15.206576	19.138605	-8.187384	-16.517264	1.536316	4.107604	0.837437	-0.528809	0.319336	0.606689	0.022799	0.385807	0.386720	0.190939	-0.780987	-0.105305	-0.585245	-144.137123	-72.621363	-11.394402
24053		-1.512960	3.591018	9.462823	9.412945	0.814254	-13.735339	0.001026	3.837599	-0.383033	-0.585205	0.323242	0.520020	-0.025996	0.089916	0.238008	0.192688	-0.751567	-0.099636	-0.622970	-132.104608	-77.111017	-23.882879
24054		5.476180	2.550226	9.121580	10.052515	0.917876	-5.612642	0.066830	4.672977	-2.017478	-0.639893	0.282959	0.416992	0.151442	0.059871	0.219524	0.183017	-0.710997	-0.107666	-0.670371	-106.448253	-83.059298	-49.784877
24055		7.330975	0.471342	8.791665	8.248468	2.240743	-2.201426	-1.136570	6.155243	-2.273408	-0.694824	0.240234	0.294434	0.199710	0.009242	0.204692	0.161583	-0.656507	-0.103929	-0.729444	-27.479926	-82.461197	-130.830070
24056		7.627012	-5.826536	8.234103	4.110508	7.473641	-0.488278	-0.966639	6.961510	-2.209305	-0.708740	0.191650	0.163086	0.203616	-0.148809	0.190280	0.142126	-0.589318	-0.098808	-0.789140	-2.317000	-73.374337	-157.854409
24057		9.450509	-5.258011	9.350332	3.034816	6.793000	2.376280	0.083288	7.415867	-1.803829	-0.707520	0.156494	0.024414	0.253468	-0.137269	0.210629	0.133432	-0.511153	-0.099239	-0.843250	3.869180	-62.690659	-164.373965
24058		12.098968	-5.412524	10.608759	0.245353	6.587580	5.807492	0.810359	7.497288	-0.921713	-0.688477	0.123779	-0.107422	0.323800	-0.141444	0.234096	0.137555	-0.427366	-0.100641	-0.887867	5.682163	-51.866710	-165.151529
24059		18.454691	-4.017478	10.694701	-6.373102	3.664696	10.578640	1.521009	6.935743	-0.457947	-0.658447	0.097900	-0.243896	0.481465	-0.107697	0.224167	0.148738	-0.345528	-0.107544	-0.920284	7.346096	-41.909686	-164.454854
24060		25.773739	-1.472841	9.554299	-14.987219	-1.306525	13.207549	1.318189	6.003597	-0.599651	-0.603271	0.058838	-0.368896	0.659467	-0.045120	0.189015	0.155130	-0.272181	-0.113709	-0.942827	8.942295	-33.265472	-163.989194
24061		30.525084	4.391276	-1.654995	-24.816615	-11.713646	4.303246	-0.293184	5.304648	-1.288784	-0.546631	0.039795	-0.445801	0.759768	0.097242	-0.092226	0.146115	-0.207794	-0.103995	-0.961591	8.874400	-25.468626	-164.729220
24062		31.722394	-1.664450	-13.805798	-33.480582	-8.782687	-10.437986	-0.573564	3.617757	-2.438697	-0.507080	0.000488	-0.486328	0.774587	-0.068061	-0.380039	0.119816	-0.161959	-0.096601	-0.974721	9.143627	-19.808510	-167.584125
24063		27.210145	-1.111544	-17.104118	-30.375449	-7.335160	-17.375556	-1.306172	1.491663	-2.351167	-0.493164	-0.006104	-0.492920	0.670788	-0.054710	-0.439424	0.090278	-0.142958	-0.083084	-0.982095	8.268807	-17.205426	-170.748897
24064		19.522593	-4.119088	-23.952072	-26.077147	-2.803420	-26.651803	-1.308014	-1.991660	-1.348570	-0.518066	-0.006348	-0.448486	0.500799	-0.120985	-0.584558	0.069318	-0.167663	-0.071591	-0.980795	7.155056	-19.804451	-173.165289
24065		11.786042	-5.310169	18.843382	-4.444637	7.113556	11.427368	-0.717008	-4.967965	-0.416910	-0.580811	-0.005127	-0.371094	0.263948	-0.129851	0.489292	0.058184	-0.228790	-0.067793	-0.969368	6.745469	-26.836934	-174.741230
24066		22.054946	-3.954445	14.859669	-12.669008	4.733393	13.414431	0.606567	-3.607921	0.093083	-0.614258	-0.012451	-0.324219	0.534023	-0.101169	0.395081	0.057979	-0.272243	-0.077348	-0.957361	7.899931	-32.021540	-175.338864
24067		16.772074	2.008835	8.712323	-9.199439	-1.609582	6.740403	-0.420300	-0.914626	0.205063	-0.630371	0.000732	-0.306885	0.416645	0.052451	0.222310	0.058160	-0.284056	-0.072178	-0.954316	7.206391	-33.405105	-175.189940
24068		7.149780	1.140322	8.035720	-1.478085	-0.247830	0.899283	-0.031330	-0.020117	-0.041097	-0.632568	0.000732	-0.300293	0.178709	0.028495	0.200927	0.057589	-0.284697	-0.071870	-0.954183	7.187607	-33.475793	-175.256420
24069		6.122151	1.510107	8.829633	-0.135753	-0.400744	1.029108	0.005862	0.014249	-0.068761	-0.637451	0.007324	-0.291748	0.153125	0.037605	0.220716	0.056852	-0.284879	-0.072081	-0.954157	7.244215	-33.492949	-175.362706
24070		6.890357	2.029268	7.680922	-1.305233	-1.151741	0.558492	0.003100	-0.013981	-0.022992	-0.628174	0.002930	-0.282715	0.172240	0.050675	0.192055	0.056626	-0.285438	-0.072117	-0.954001	7.257495	-33.558229	-175.397229
24071		5.814429	1.456079	8.617545	0.018560	-0.363715	0.678127	-0.050609	-0.013431	0.036036	-0.626221	0.007324	-0.278320	0.145308	0.036604	0.215440	0.056912	-0.286084	-0.071305	-0.953851	7.138580	-33.633606	-175.331032
24072		5.503087	0.970548	8.813171	0.330948	0.153992	0.616341	-0.031862	-0.063684	0.035510	-0.615234	0.018555	-0.281006	0.137391	0.024412	0.220429	0.057214	-0.287313	-0.070756	-0.953505	7.052893	-33.779948	-175.276276
24073		5.821576	1.081458	8.226015	-0.210320	-0.083055	0.320253	-0.011300	-0.034583	0.015314	-0.613037	0.018555	-0.291992	0.145445	0.027093	0.205709	0.057374	-0.288158	-0.070504	-0.953259	7.012186	-33.880919	-175.249698
24074		5.926841	1.253158	8.027025	-0.366061	-0.301240	0.232521	-0.032356	0.009719	0.033145	-0.615723	0.027588	-0.305664	0.148182	0.031471	0.200645	0.057709	-0.288505	-0.069904	-0.953178	6.919035	-33.921779	-175.183185
24075		4.799289	1.255158	8.734190	0.953534	-0.121552	0.185845	-0.039489	0.048631	0.040977	-0.624756	0.027344	-0.312256	0.120099	0.031548	0.218266	0.058145	-0.288398	-0.069164	-0.953238	6.803765	-33.908412	-175.095208
24076		4.652728	0.483355	9.059052	1.142609	0.695861	0.294644	0.025772	-0.036842	0.010802	-0.628906	0.022949	-0.323242	0.116212	0.012027	0.226534	0.058383	-0.289231	-0.069373	-0.952956	6.820683	-34.010787	-175.076524
24077		5.802851	0.504269	8.358994	-0.148700	0.492389	0.362545	0.082718	-0.190806	-0.017577	-0.646973	0.020508	-0.321045	0.144575	0.012359	0.209333	0.058354	-0.291824	-0.070472	-0.952086	6.964269	-34.326514	-175.138648
24078		5.560608	1.018385	8.569177	0.311927	0.070599	0.448180	0.112891	-0.302495	-0.019074	-0.653320	0.011475	-0.320557	0.138210	0.025124	0.214789	0.058319	-0.295718	-0.072015	-0.950770	7.167048	-34.800358	-175.228576
24079		4.976304	1.268584	9.267129	1.332821	0.026723	0.697950	0.151342	-0.561056	0.057844	-0.678223	0.017822	-0.309814	0.122756	0.031364	0.232603	0.059106	-0.302710	-0.073917	-0.948372	7.383323	-35.654867	-175.244887
24080		5.338073	0.626521	9.394520	1.206390	0.724217	0.918555	0.246596	-0.885568	0.008078	-0.700439	0.010742	-0.289551	0.130839	0.014949	0.236368	0.059357	-0.313396	-0.077368	-0.944602	7.837278	-36.959799	-175.431575
24081		5.651048	0.259057	9.503850	1.279734	1.210183	1.105515	0.411268	-1.496359	-0.036392	-0.731201	-0.005127	-0.247070	0.136802	0.005183	0.240212	0.059146	-0.331036	-0.083368	-0.938065	8.692243	-39.118727	-175.877841
24082		5.184319	0.866745	10.012923	2.586893	0.930235	1.154859	0.493021	-2.481253	0.006657	-0.769287	-0.010254	-0.189209	0.121759	0.020120	0.254308	0.058526	-0.359985	-0.090813	-0.926681	9.881395	-42.672998	-176.640381
24083		4.721964	0.917662	10.178208	3.844787	1.167865	0.699276	0.545601	-3.594364	0.110738	-0.802734	-0.017578	-0.093506	0.106431	0.021335	0.259561	0.057913	-0.401336	-0.099047	-0.908716	11.467031	-47.805899	-177.802798
24084		3.898797	1.719879	10.853113	6.116662	0.803615	0.072112	0.514367	-5.010348	0.358697	-0.827148	-0.018311	0.041748	0.080045	0.041613	0.276978	0.057854	-0.457857	-0.106335	-0.880746	13.532804	-54.966315	-179.547141
24085		2.685931	2.433283	11.563963	8.887477	0.478962	-1.612154	0.419947	-7.072209	1.232011	-0.819092	0.010254	0.229248	0.040363	0.060056	0.293777	0.063802	-0.535432	-0.108360	-0.835165	15.615038	-65.254349	178.703861
24086		7.408148	6.163154	13.402248	11.530511	-2.467239	1.682887	0.209079	-9.694112	1.595231	-0.748291	0.045898	0.463135	0.139872	0.156264	0.354274	0.068242	-0.634575	-0.106669	-0.762417	23.866400	-79.167147	170.406752
24087		29.872955	2.008905	12.151697	10.477793	2.295352	20.573808	0.285115	-10.094287	1.784783	-0.616699	0.075928	0.644043	0.699440	0.064908	0.394418	0.073468	-0.727624	-0.102869	-0.674228	158.331658	-85.059372	36.007392
24088		20.541834	9.082506	16.979514	21.886135	-3.387272	7.500896	0.657528	-7.758076	1.416006	-0.496826	0.112793	0.749512	0.465109	0.231831	0.473103	0.081015	-0.790706	-0.102049	-0.598169	-178.726018	-74.256708	13.743413
24089		15.564921	-1.970076	20.802208	23.399518	8.358210	-2.030225	2.032015	-5.339831	2.386285	-0.413818	0.182617	0.782471	0.354879	-0.051930	0.543223	0.111812	-0.829308	-0.098677	-0.538525	-168.665375	-66.244542	6.162034
24090		17.090489	15.524149	23.089339	31.478065	-6.626439	-4.225873	3.589036	2.213501	1.615830	-0.473145	0.268555	0.699463	0.435721	0.370798	0.582151	0.162379	-0.810130	-0.102748	-0.553864	-155.901181	-68.555393	-2.099405
24091		-1.894590	10.152067	12.086929	13.534341	-4.689993	-16.703589	0.508338	4.387774	1.479667	-0.534668	0.297119	0.605225	-0.035311	0.251137	0.305933	0.182587	-0.779346	-0.081852	-0.593786	-140.603370	-72.827440	-17.595418
24092		0.536625	2.798843	8.052141	8.410478	0.448760	-11.209759	0.564776	4.449582	-0.111595	-0.591553	0.312012	0.504883	0.024687	0.068523	0.200626	0.191179	-0.743735	-0.076674	-0.635948	-122.282318	-77.231397	-35.744090
24093		4.052503	4.426823	7.941229	9.394833	-1.617796	-6.975433	0.284794	5.300956	-1.650768	-0.649170	0.287354	0.383545	0.116409	0.107681	0.191534	0.185231	-0.697541	-0.081399	-0.687386	-84.688424	-81.538838	-73.516706
24094		6.068013	0.127574	8.042443	7.288012	1.824260	-3.114381	-0.839805	6.206729	-2.198214	-0.690430	0.244873	0.269775	0.166704	0.000767	0.188489	0.164782	-0.641498	-0.078735	-0.745069	-29.758722	-79.072826	-130.319250
24095		7.073706	-3.707033	8.548002	5.077353	5.124149	-0.617199	-0.491053	6.909554	-2.430730	-0.708984	0.193848	0.131836	0.191513	-0.097102	0.198154	0.144511	-0.573038	-0.079122	-0.802798	-6.653790	-70.550378	-154.881569
24096		9.355320	-3.535345	9.700113	3.640933	4.727979	2.758893	0.105961	7.150334	-1.880754	-0.705322	0.156494	-0.002197	0.252083	-0.094475	0.220370	0.132834	-0.496784	-0.080357	-0.853876	0.609564	-60.427436	-162.670191
24097		14.086754	-4.826951	9.082045	-2.112063	4.786725	6.803169	0.991676	6.979749	-1.019601	-0.684326	0.128418	-0.125244	0.368459	-0.127847	0.193793	0.134563	-0.417625	-0.085299	-0.894542	3.614289	-50.364938	-164.590454
24098		20.074436	0.224761	9.816946	-6.792704	-1.198415	11.421080	1.477404	5.933850	-0.728088	-0.660889	0.097900	-0.243896	0.518191	-0.003117	0.207363	0.140032	-0.346725	-0.095303	-0.922545	6.062111	-41.792137	-165.054324
24099		30.598003	1.354095	7.756245	-18.790340	-5.133489	15.024898	1.234971	5.839607	-1.434516	-0.603027	0.047852	-0.361816	0.776794	0.017567	0.137810	0.135368	-0.274465	-0.105180	-0.946193	8.574956	-33.220989	-166.278748
24100		29.657655	3.933197	-1.921696	-24.935596	-9.889218	3.515257	0.092266	5.375437	-2.136382	-0.547852	0.010986	-0.442383	0.738265	0.078669	-0.097650	0.117136	-0.207226	-0.104170	-0.965653	9.705881	-25.126645	-168.335235
24101		28.141541	-1.863203	-11.414450	-29.886553	-5.603493	-10.009510	-0.276948	4.023522	-2.444842	-0.497070	-0.028320	-0.485352	0.686143	-0.068802	-0.319963	0.091973	-0.155595	-0.101049	-0.978325	10.292692	-18.846387	-170.971497
24102		26.467864	-4.766743	-16.481420	-30.302206	-2.577843	-18.165077	-0.028412	1.651895	-1.727103	-0.487549	-0.041504	-0.507080	0.650224	-0.133440	-0.425496	0.072881	-0.133318	-0.102083	-0.983104	10.874969	-16.081835	-173.061307
24103		25.120771	3.227763	-19.003548	-28.351073	-9.820612	-19.926018	-0.861705	-1.006690	-0.579910	-0.501709	-0.023926	-0.487793	0.634476	0.071044	-0.467931	0.063072	-0.145946	-0.093325	-0.982859	9.958432	-17.377165	-174.182042
24104		2.366836	-11.613511	11.527504	0.060558	13.300167	-0.005530	-1.943345	-5.011527	-0.284796	-0.551758	-0.000244	-0.406494	0.039680	-0.283339	0.298025	0.050109	-0.208657	-0.073715	-0.973918	7.744360	-24.444905	-175.789301
24105		17.710344	-15.963696	14.343908	-11.355712	17.097780	8.962481	0.366169	-4.384985	0.238417	-0.594238	-0.005371	-0.337646	0.423492	-0.399519	0.380342	0.049900	-0.261996	-0.080121	-0.960442	8.548841	-30.747750	-176.406291
24106		22.960833	11.197988	10.565481	-12.396658	-10.365965	12.614529	-0.448046	-1.919155	0.268017	-0.615234	0.016357	-0.305176	0.566545	0.283381	0.276208	0.049753	-0.285837	-0.074911	-0.954049	7.897704	-33.563386	-176.414734
24107		10.687206	-1.797066	8.798053	-4.361842	2.709027	3.167548	-0.094708	-0.202979	0.043959	-0.628906	0.022949	-0.301025	0.266645	-0.044519	0.220681	0.049793	-0.288725	-0.073660	-0.953275	7.733288	-33.904119	-176.380419
24108		6.033506	1.821002	8.675524	-0.033202	-0.633161	0.891608	0.009779	-0.003332	-0.087491	-0.633789	0.031738	-0.294678	0.150878	0.045334	0.216900	0.048827	-0.289054	-0.073993	-0.953199	7.816457	-33.936749	-176.523647
24109		5.890097	2.178896	8.239659	-0.100528	-1.043555	0.494285	0.009250	0.022353	-0.028699	-0.634033	0.040527	-0.281738	0.147330	0.054396	0.205957	0.048583	-0.289124	-0.074095	-0.953183	7.839825	-33.943492	-176.560456
24110		6.422415	0.714876	8.312628	-0.692928	0.388441	0.686228	0.020667	-0.025768	-0.018260	-0.620605	0.042969	-0.275146	0.160498	0.017782	0.207872	0.048460	-0.289763	-0.074329	-0.952977	7.876487	-34.019762	-176.590938
24111		5.739208	1.061498	8.870427	0.248849	0.186722	0.801119	0.043409	-0.118995	-0.024587	-0.612061	0.052002	-0.282227	0.143158	0.026373	0.221988	0.048257	-0.291488	-0.074912	-0.952415	7.964315	-34.226397	-176.654619
24112		5.464201	1.109604	8.816289	0.495165	0.163027	0.605744	0.072047	-0.164187	-0.028209	-0.609619	0.047607	-0.281982	0.136162	0.027493	0.220712	0.048071	-0.293720	-0.075875	-0.951662	8.103466	-34.495359	-176.736159
24113		6.119047	1.613530	7.865662	-0.457999	-0.512570	0.259169	0.030299	-0.113273	0.013314	-0.614258	0.049805	-0.288818	0.152691	0.040289	0.196873	0.048275	-0.295402	-0.076159	-0.951108	8.135799	-34.699418	-176.734385
24114		5.965630	1.305026	8.017101	-0.264991	-0.177564	0.260246	-0.011393	-0.021747	0.050586	-0.620850	0.049561	-0.308594	0.149066	0.032748	0.200463	0.048854	-0.296050	-0.075756	-0.950910	8.059153	-34.780552	-176.645808
24115		4.954760	1.071596	8.852955	1.010594	0.235424	0.336009	-0.012510	-0.019898	0.046112	-0.629883	0.051758	-0.311035	0.123798	0.026896	0.221350	0.049376	-0.296666	-0.075356	-0.950722	7.984955	-34.857367	-176.564366
24116		5.292352	0.732589	8.519954	0.522086	0.493809	0.218207	0.035927	-0.081930	0.012307	-0.638916	0.049561	-0.315430	0.132088	0.018239	0.213142	0.049617	-0.297948	-0.075695	-0.950282	8.022036	-35.014312	-176.556395
24117		6.150446	0.762464	7.978182	-0.435773	0.348473	0.274388	0.131607	-0.214809	-0.004795	-0.654297	0.040283	-0.314941	0.153226	0.018724	0.199897	0.049885	-0.300724	-0.077315	-0.949262	8.232299	-35.355331	-176.611370
24118		5.219103	1.456695	8.831276	0.983847	-0.099630	0.501066	0.157643	-0.402334	0.025306	-0.672119	0.033447	-0.305908	0.129353	0.036022	0.221506	0.050426	-0.305726	-0.079245	-0.947475	8.478692	-35.967631	-176.663806
24119		5.479993	0.882913	8.652825	0.714541	0.466377	0.431889	0.163317	-0.552953	0.024449	-0.689941	0.033203	-0.294922	0.135493	0.021671	0.217305	0.050826	-0.312487	-0.081337	-0.945068	8.760932	-36.791893	-176.761887
24120		5.370471	1.002475	9.167472	1.300355	0.520548	0.766681	0.266247	-0.832726	-0.026809	-0.716553	0.021729	-0.276855	0.131874	0.024251	0.230649	0.050734	-0.322399	-0.085016	-0.941412	9.300726	-37.998986	-177.039053
24121		5.988389	0.751187	8.962496	0.948918	0.820801	0.918760	0.402549	-1.425046	-0.043002	-0.751953	0.007813	-0.234131	0.145696	0.017564	0.226772	0.050643	-0.339055	-0.090709	-0.935013	10.176978	-40.033031	-177.515313
24122		5.252027	1.464761	9.848891	2.669007	0.491374	1.111140	0.445969	-2.255645	0.063196	-0.787598	0.000488	-0.174072	0.124259	0.035332	0.249992	0.050848	-0.365319	-0.096947	-0.924423	11.250580	-43.257485	-178.176282
24123		4.618088	0.975387	10.194392	4.002179	1.248638	0.606377	0.483600	-3.231802	0.148485	-0.822998	-0.011230	-0.084961	0.104989	0.023027	0.259385	0.050839	-0.402477	-0.103728	-0.908112	12.697582	-47.862445	-179.245179
24124		4.483694	1.530522	10.661166	5.532440	1.023887	0.399936	0.486441	-4.604769	0.325095	-0.843506	-0.005127	0.045654	0.096360	0.037030	0.272607	0.050789	-0.454411	-0.110233	-0.882485	14.773623	-54.411669	178.962205
24125		3.028093	2.319108	11.735497	8.715904	0.666248	-1.123981	0.378677	-6.689263	1.093691	-0.828369	0.019043	0.231201	0.050074	0.057373	0.298565	0.055448	-0.527977	-0.111891	-0.840028	17.226690	-64.084373	176.721221
24126		5.725737	5.632883	13.843491	12.074261	-1.872293	0.467787	0.139988	-9.464326	1.542875	-0.757324	0.045898	0.460938	0.098314	0.142387	0.359755	0.058929	-0.625564	-0.108831	-0.770294	25.877196	-77.570839	167.829149
24127		27.553575	2.452645	11.674306	9.654261	1.957756	18.457684	0.413238	-10.441741	1.724607	-0.610596	0.091553	0.661377	0.641639	0.073706	0.378185	0.064014	-0.722512	-0.105967	-0.680184	142.164537	-85.169575	51.654413
24128		21.366175	6.927035	15.817463	20.203959	-1.194749	8.682795	1.249972	-8.546863	1.234633	-0.481689	0.132813	0.770996	0.485145	0.174151	0.451802	0.074050	-0.791488	-0.111538	-0.596341	176.742693	-73.844937	18.490762
24129		7.324696	2.814034	17.638041	19.087153	2.663077	-9.423978	2.183167	-7.124061	2.232631	-0.358154	0.198730	0.822021	0.141065	0.062353	0.456551	0.101919	-0.841938	-0.111699	-0.517954	-172.801633	-63.500576	10.656329
24130		30.265758	13.310249	26.275005	39.606604	-1.763158	4.729757	3.700168	0.427155	1.109423	-0.401367	0.273926	0.759277	0.755762	0.312523	0.667608	0.148445	-0.835075	-0.123222	-0.515198	-164.115685	-63.771999	6.867156
24131		0.994739	13.101297	16.011563	18.683877	-6.042950	-16.375432	0.087677	5.197635	0.287813	-0.502930	0.283936	0.663330	0.049609	0.327244	0.397959	0.158829	-0.800155	-0.110836	-0.567662	-157.183619	-70.672759	-0.510682
24132		0.060520	0.253885	9.704423	8.785869	3.386611	-12.147122	-0.466825	5.185713	-0.645817	-0.585693	0.274414	0.557129	0.017270	0.007663	0.241789	0.156209	-0.761718	-0.103337	-0.620246	-148.871064	-77.738936	-9.855370
24133		6.767188	1.311092	8.882067	9.564683	1.675699	-4.169374	-0.124829	6.202489	-1.551219	-0.656494	0.244873	0.420654	0.186276	0.029605	0.207993	0.150545	-0.709458	-0.104700	-0.680473	-111.897550	-85.603933	-47.290928
24134		6.387727	-2.235945	7.715467	6.203579	4.265117	-2.855352	-0.910577	7.309024	-1.462300	-0.702881	0.213623	0.273193	0.175388	-0.056928	0.177970	0.139124	-0.643989	-0.095748	-0.746160	-13.413635	-80.996765	-147.406751
24135		7.718388	-4.229766	8.104052	4.334750	5.750840	-0.275695	-0.528331	7.560226	-1.493358	-0.713135	0.185059	0.118896	0.208948	-0.108291	0.184049	0.129670	-0.569620	-0.089271	-0.806690	-0.632006	-70.418498	-161.290377
24136		11.233515	-3.645601	10.175315	3.039433	4.950989	4.628763	0.070649	7.838371	-1.073803	-0.694336	0.158936	-0.022217	0.302627	-0.095317	0.225328	0.127434	-0.486572	-0.084418	-0.860164	2.371692	-59.157325	-164.492079
24137		15.069583	-3.960758	10.189877	-2.111848	4.160956	8.180605	1.278305	7.671410	-0.576347	-0.672852	0.121826	-0.156006	0.397941	-0.105495	0.215572	0.136466	-0.399221	-0.088955	-0.902268	4.430899	-48.132203	-164.778382
24138		23.161776	1.612695	9.756707	-9.554259	-3.245104	13.230231	1.866180	6.658570	-0.619554	-0.631104	0.082764	-0.290039	0.596936	0.030796	0.195481	0.145651	-0.318809	-0.101297	-0.931067	7.033030	-38.548173	-164.680136
24139		32.780925	3.410847	5.354697	-22.495393	-8.513202	13.297311	1.278456	6.142062	-1.724222	-0.571045	0.032715	-0.405518	0.828181	0.065994	0.071616	0.137968	-0.241831	-0.111440	-0.953972	9.647936	-29.482070	-166.085378
24140		32.274729	4.609254	-7.169958	-29.789662	-12.560320	-1.617467	-0.309950	5.273897	-2.636790	-0.513672	-0.001953	-0.481934	0.795910	0.088030	-0.232367	0.112583	-0.175244	-0.106254	-0.972278	10.341930	-21.388855	-168.748158
24141		29.619417	-1.614533	-17.283989	-32.836117	-7.175158	-16.727144	-0.587391	3.389367	-2.719726	-0.476563	-0.034668	-0.520508	0.719307	-0.068388	-0.462450	0.082613	-0.131127	-0.100097	-0.982833	10.490587	-15.919789	-171.861433
24142		27.741157	-2.660526	-19.073542	-31.447216	-4.676727	-21.188561	-0.384046	0.882801	-1.895467	-0.469238	-0.052246	-0.531006	0.686343	-0.085145	-0.484060	0.059815	-0.118434	-0.097494	-0.986352	10.589661	-14.199422	-174.381984
24143		10.155589	6.009656	-13.029501	-12.262001	-9.183490	-18.427451	-1.454300	-2.343364	-0.750660	-0.503662	-0.030518	-0.476318	0.264693	0.141930	-0.320719	0.045567	-0.147651	-0.082327	-0.984553	8.959816	-17.352131	-176.070188
24144		7.559166	-15.079631	15.525634	-3.065859	17.013452	5.219645	-1.718231	-5.315985	-1.080016	-0.566895	-0.018311	-0.397217	0.157288	-0.370642	0.407311	0.023591	-0.212767	-0.065983	-0.974587	7.499159	-24.697882	-178.870799
24145		22.154575	-13.060716	16.145780	-13.234428	14.995772	13.022692	0.833813	-4.405541	0.427802	-0.616211	-0.021240	-0.330566	0.532414	-0.328023	0.429953	0.027391	-0.266432	-0.076119	-0.960453	8.838712	-31.061655	-179.193659
24146		21.708086	10.083553	10.088012	-11.974773	-8.756690	11.505847	-0.854389	-2.144234	0.507824	-0.630615	0.007324	-0.296143	0.534107	0.258274	0.263858	0.028626	-0.293107	-0.064762	-0.953454	7.416714	-34.238306	-178.847913
24147		9.301593	-0.095910	8.553375	-2.926825	1.124537	2.428961	-0.085939	-0.108011	0.074010	-0.640137	0.018311	-0.285400	0.232253	-0.001953	0.214150	0.029144	-0.294784	-0.063415	-0.953012	7.222736	-34.441270	-178.738098
24148		6.932834	2.698635	8.274038	-0.846000	-1.668090	1.155824	-0.088064	0.014527	0.028445	-0.640381	0.031494	-0.277100	0.173334	0.067755	0.206745	0.029209	-0.294968	-0.062162	-0.953035	7.054126	-34.462132	-178.679384
24149		6.495528	0.963317	8.184882	-0.693012	0.020078	0.657815	-0.073523	0.029834	0.064596	-0.633789	0.031494	-0.265869	0.162445	0.024402	0.204539	0.029770	-0.294992	-0.060948	-0.953089	6.869699	-34.467329	-178.555184
24150		6.513530	1.060873	8.122083	-0.723330	-0.114569	0.626821	-0.071347	-0.035226	0.093451	-0.625244	0.045166	-0.266357	0.162718	0.026893	0.203100	0.030632	-0.295811	-0.059677	-0.952888	6.667542	-34.569525	-178.394437
24151		5.946083	0.904854	8.550120	-0.009729	0.081845	0.640655	-0.053347	-0.051405	0.089581	-0.621094	0.053955	-0.268799	0.148489	0.022930	0.213833	0.031502	-0.296812	-0.058640	-0.952613	6.496209	-34.693623	-178.243031
24152		5.682133	1.319860	8.457923	0.217096	-0.358803	0.453237	-0.042253	-0.043384	0.093819	-0.618896	0.058594	-0.275635	0.141900	0.033275	0.211508	0.032470	-0.297713	-0.057717	-0.952356	6.335022	-34.806398	-178.082093
24153		5.829042	1.119777	8.211811	-0.044947	-0.219753	0.317224	-0.034354	-0.003829	0.106998	-0.623535	0.058350	-0.289063	0.145679	0.028277	0.205290	0.033652	-0.298147	-0.056822	-0.952233	6.167373	-34.864263	-177.890277
24154		5.739589	0.579198	8.249267	0.003254	0.306921	0.248850	0.016814	0.024340	0.074849	-0.632568	0.060547	-0.300293	0.143539	0.014571	0.206191	0.034661	-0.298198	-0.056645	-0.952191	6.101736	-34.876577	-177.748821
24155		5.255147	0.675916	8.595907	0.608423	0.268923	0.263053	0.056441	0.011441	0.042275	-0.634766	0.060547	-0.309082	0.131401	0.016816	0.214891	0.035421	-0.298362	-0.057066	-0.952087	6.126400	-34.902048	-177.666258
24156		5.375430	0.861578	8.506385	0.484322	0.074084	0.274735	0.055958	-0.005554	0.042463	-0.650146	0.051514	-0.311035	0.134360	0.021462	0.212684	0.036170	-0.298725	-0.057486	-0.951919	6.151845	-34.951438	-177.586493
24157		5.739231	1.126490	8.413399	0.182750	-0.212756	0.430081	0.035933	-0.099527	0.089797	-0.668213	0.051270	-0.315430	0.143187	0.028229	0.210526	0.037339	-0.300245	-0.057534	-0.951393	6.111157	-35.141594	-177.441815
24158		5.220476	0.499470	8.928861	0.885482	0.497507	0.492430	0.076491	-0.248536	0.102885	-0.683838	0.046631	-0.308594	0.129802	0.012440	0.223637	0.038708	-0.303524	-0.058085	-0.950264	6.130580	-35.545734	-177.301622
24159		5.340539	0.515968	9.118491	1.000374	0.527356	0.706538	0.157667	-0.492020	0.038583	-0.699219	0.041992	-0.297363	0.132102	0.012513	0.228803	0.039443	-0.309597	-0.059958	-0.948156	6.358806	-36.286399	-177.321326
24160		5.524671	0.682615	9.453208	1.261480	0.463279	1.074877	0.266530	-0.952040	0.013287	-0.734863	0.032471	-0.272705	0.135288	0.016297	0.238007	0.040331	-0.320970	-0.063397	-0.944104	6.807342	-37.674302	-177.432458
24161		5.442792	0.671349	9.715950	1.842704	0.617664	1.172680	0.329639	-1.683054	0.040685	-0.770264	0.018799	-0.225586	0.130911	0.015842	0.245756	0.041075	-0.340868	-0.067849	-0.936759	7.445631	-40.105500	-177.699691
24162		4.845371	0.474129	10.054286	3.068285	1.014269	0.878563	0.355185	-2.613464	0.116816	-0.805908	0.009277	-0.156738	0.112822	0.010895	0.255184	0.041835	-0.371451	-0.072720	-0.924654	8.246368	-43.869069	-178.144596
24163		4.334752	1.012122	10.417034	4.584560	0.695092	0.518550	0.298572	-3.715527	0.245534	-0.828369	0.010742	-0.048096	0.096047	0.024627	0.265171	0.042633	-0.414297	-0.076794	-0.905893	9.144084	-49.215000	-178.806114
24164		4.802989	1.791777	10.144516	5.325341	-0.006427	0.219667	0.245878	-5.165057	0.688787	-0.848877	0.025635	0.104492	0.102998	0.044936	0.260772	0.046598	-0.472634	-0.078486	-0.876519	9.811159	-56.705450	-179.217344
24165		2.772762	1.852961	11.492140	8.961517	0.283908	-1.913763	0.222807	-7.273418	1.401679	-0.809570	0.056641	0.298584	0.042069	0.046411	0.292088	0.055935	-0.551639	-0.076447	-0.828687	9.712474	-67.342485	-178.755906
24166		7.944155	4.387169	12.906693	10.874569	-1.875414	1.407200	0.213961	-9.875223	1.709450	-0.714111	0.092773	0.532471	0.154567	0.112399	0.343893	0.065220	-0.650997	-0.073087	-0.752733	10.048763	-81.724680	-178.794646
24167		28.111881	-0.836777	10.647609	9.753075	3.183378	18.369521	0.693337	-10.158135	1.241249	-0.564697	0.125244	0.708984	0.661902	-0.013227	0.351986	0.072689	-0.741681	-0.077084	-0.662332	-177.080980	-83.557283	9.258977
24168		19.630441	4.406652	15.669049	20.023422	0.150398	5.896760	2.373062	-8.358617	0.345822	-0.436035	0.173340	0.793945	0.445756	0.099510	0.442991	0.089012	-0.804665	-0.100520	-0.578348	-175.107649	-71.558724	10.714375
24169		17.871863	3.617155	20.960160	26.179911	3.867027	-1.449783	3.550001	-5.542125	1.566824	-0.353516	0.254395	0.802246	0.407392	0.074432	0.556702	0.128672	-0.839912	-0.116127	-0.514301	-167.547105	-63.357213	8.040291
24170		18.231251	17.939255	25.513855	35.255697	-6.702392	-5.687166	2.494833	3.036053	1.275159	-0.434082	0.306885	0.711426	0.472875	0.436116	0.633844	0.167226	-0.817180	-0.113670	-0.539751	-157.378276	-66.950232	0.769282
24171		-1.269676	7.612322	14.048408	14.516691	-1.417883	-16.441152	-0.010702	5.058220	0.528454	-0.526611	0.319336	0.613281	-0.010737	0.190238	0.352307	0.177226	-0.782258	-0.097221	-0.589247	-146.169752	-73.008049	-11.198690
24172		3.976446	2.162333	9.636479	10.355998	1.535840	-7.930249	0.662152	5.699074	-1.106269	-0.607422	0.314209	0.487061	0.116943	0.050567	0.233421	0.181948	-0.735420	-0.100006	-0.645020	-126.265713	-80.101377	-30.646595
24173		5.604519	2.117881	8.360881	8.837087	0.752383	-4.630082	0.049982	6.900642	-1.841924	-0.673828	0.282715	0.334961	0.158567	0.049309	0.195895	0.175618	-0.674453	-0.101296	-0.709937	-53.167411	-83.322818	-104.209845
24174		6.123996	-2.999944	7.483050	4.956597	4.760646	-2.393519	-0.385080	7.279547	-2.173713	-0.719482	0.240234	0.183350	0.167159	-0.078563	0.172650	0.161845	-0.604890	-0.099822	-0.773272	-9.470378	-75.420803	-149.028416
24175		9.015157	-3.362240	8.673057	3.604639	4.822552	1.638443	-0.104133	7.446518	-2.171069	-0.706787	0.198730	0.029541	0.241826	-0.090213	0.194919	0.149038	-0.527549	-0.099697	-0.830385	1.126104	-64.938768	-160.366292
24176		10.873776	-4.931651	9.376458	0.576699	5.875942	4.153327	0.383826	7.369209	-1.432365	-0.680908	0.163818	-0.102051	0.289530	-0.129415	0.207647	0.145199	-0.446289	-0.098895	-0.877475	4.318200	-54.285316	-163.422919
24177		17.056960	-2.736219	11.381865	-3.617459	2.921323	10.320314	1.242166	6.586451	-0.895686	-0.648682	0.133545	-0.218506	0.446980	-0.077371	0.247126	0.149894	-0.369119	-0.105124	-0.911171	6.543656	-44.762950	-164.013273
24178		27.573026	0.195138	12.042345	-13.143711	-2.388236	17.113150	1.049583	6.203907	-0.727535	-0.613281	0.089844	-0.338867	0.709849	-0.004994	0.246481	0.154104	-0.294401	-0.108398	-0.936926	7.965680	-35.808193	-163.896676
24179		28.239414	4.254359	3.769503	-20.090438	-9.369452	8.534997	0.537925	6.224862	-1.554995	-0.553711	0.050781	-0.443848	0.712370	0.092155	0.039585	0.145799	-0.217460	-0.108004	-0.959056	9.255955	-26.654305	-164.908880
24180		29.131722	1.471741	-7.115909	-27.932785	-9.701536	-4.740406	-0.139046	4.982718	-2.183442	-0.491943	0.018555	-0.511475	0.715981	0.016769	-0.222811	0.125652	-0.154601	-0.102886	-0.974538	9.851671	-19.097955	-166.967443
24181		25.621082	-2.735556	-16.884027	-28.771732	-6.379660	-18.752818	0.219178	2.793049	-2.148893	-0.458984	-0.020996	-0.543213	0.623152	-0.084090	-0.444280	0.103397	-0.117420	-0.105176	-0.982069	10.859206	-14.618311	-169.376457
24182		29.652362	-4.529046	-18.074656	-32.988104	-4.745663	-20.567396	0.218330	0.314415	-1.236571	-0.460693	-0.036621	-0.547119	0.737669	-0.123408	-0.455098	0.088976	-0.111794	-0.109211	-0.983696	11.584073	-13.849807	-171.074882
24183		7.887860	6.049294	-8.923275	-8.509860	-8.872228	-15.030910	-2.263390	-3.309795	0.044120	-0.507568	0.020508	-0.487061	0.206230	0.145111	-0.218836	0.081777	-0.155145	-0.084836	-0.980839	8.556306	-18.555279	-171.868252
24184		9.772929	-15.184533	15.204218	-6.129267	16.486988	5.905487	-1.783975	-5.160724	-1.103992	-0.566406	0.030518	-0.405518	0.213618	-0.373884	0.402938	0.059182	-0.218892	-0.070170	-0.971422	7.038614	-25.694907	-174.634581
24185		20.549194	-13.309385	15.693909	-12.757686	14.187898	12.122966	0.828333	-4.160292	0.369693	-0.615723	0.025391	-0.341064	0.494081	-0.334640	0.414931	0.062246	-0.269044	-0.082120	-0.957600	8.365677	-31.701688	-174.940902
24186		23.844789	8.305452	10.455215	-13.092610	-8.011169	12.796450	-0.713383	-1.710839	0.328456	-0.629883	0.047363	-0.302002	0.589510	0.212461	0.272155	0.062040	-0.290623	-0.073674	-0.951978	7.240801	-34.227072	-174.774727
24187		7.036166	0.708262	7.977016	-1.320037	0.169968	0.764200	-0.096917	-0.102472	0.051211	-0.632813	0.067139	-0.291504	0.175637	0.018061	0.199629	0.062243	-0.292278	-0.072323	-0.951561	7.050481	-34.419265	-174.701321
24188		6.618339	3.037387	8.395281	-0.351278	-2.035365	1.107144	-0.077176	0.007241	0.018157	-0.626465	0.076172	-0.285156	0.165460	0.076175	0.209794	0.062224	-0.292585	-0.071241	-0.951550	6.906931	-34.449820	-174.660972
24189		6.125115	1.219871	8.432370	-0.213142	-0.232844	0.675890	-0.078096	0.043394	0.080573	-0.620117	0.089600	-0.281250	0.153211	0.030857	0.210696	0.062976	-0.292518	-0.069897	-0.951621	6.697639	-34.439507	-174.505634
24190		6.814744	0.848887	7.915345	-1.113011	-0.038337	0.607184	-0.051094	-0.021859	0.078014	-0.604492	0.092041	-0.279053	0.170294	0.021515	0.197916	0.063738	-0.293203	-0.068935	-0.951429	6.536899	-34.521178	-174.367812
24191		6.001233	0.627764	8.395685	-0.198971	0.311550	0.519774	0.003743	-0.048383	0.042238	-0.602295	0.096436	-0.285889	0.149896	0.015763	0.209984	0.064253	-0.294130	-0.068777	-0.951120	6.492355	-34.634809	-174.296723
24192		5.566785	1.267388	8.470204	0.322406	-0.266825	0.393416	0.044886	-0.053983	0.014973	-0.609131	0.094238	-0.301514	0.139021	0.031592	0.211867	0.064591	-0.295066	-0.069213	-0.950775	6.533930	-34.751929	-174.273797
24193		5.850290	1.011247	8.347146	-0.002755	-0.048213	0.430408	0.071600	-0.027557	0.005686	-0.620361	0.093994	-0.310303	0.146184	0.025105	0.208752	0.064939	-0.295657	-0.069979	-0.950512	6.620084	-34.829755	-174.261835
24194		5.809709	0.604267	8.277878	-0.067765	0.366801	0.311634	0.130832	-0.002242	-0.059193	-0.635986	0.091797	-0.321289	0.145248	0.014661	0.206975	0.064758	-0.295841	-0.071668	-0.950341	6.852519	-34.860601	-174.357367
24195		5.302343	0.689961	8.688388	0.595153	0.436518	0.362479	0.159905	-0.055984	-0.100651	-0.644531	0.080566	-0.325439	0.132428	0.016648	0.217336	0.064143	-0.296600	-0.073898	-0.949975	7.174386	-34.960127	-174.536399
