// General information: 
//  MT Manager version: 2019.2.0 
//  XDA version: 2019.2.0 build 3853 rev 94535 built on 2019-09-09
// Device information: 
//  DeviceId: 00B40AC7
//  ProductCode: MTW2-3A7G6
//  Firmware Version: 4.3.5
//  Hardware Version: 1.1.0
// Device settings: 
//  Filter Profile: human(46.1)
//  Option Flags: Orientation Smoother Disabled, AHS Disabled, ICC Disabled
// Coordinate system: ENU
PacketCounter	SampleTimeFine	Acc_X	Acc_Y	Acc_Z	FreeAcc_E	FreeAcc_N	FreeAcc_U	Gyr_X	Gyr_Y	Gyr_Z	Mag_X	Mag_Y	Mag_Z	VelInc_X	VelInc_Y	VelInc_Z	Quat_q0	Quat_q1	Quat_q2	Quat_q3	Roll	Pitch	Yaw
26877		6.142248	0.198900	-2.931282	0.000000	0.000000	-3.003965	0.849849	-0.073666	-1.643206	-0.302002	-0.837158	0.094727	0.061448	0.001609	-0.029283	0.402113	0.572632	-0.622199	0.351093	176.855550	-64.486328	-92.767269
26878		2.800899	-3.901328	-2.995682	0.000000	-0.000000	-4.152362	1.162201	-0.126111	-0.818713	-0.297607	-0.839111	0.101563	0.027868	-0.038953	-0.030166	-0.050720	-0.431864	0.761551	-0.480584	-127.754888	-29.494945	-135.596729
26879		0.141986	-4.770261	-2.869527	4.183800	1.784250	-6.599965	1.287832	-0.384400	-0.290230	-0.295166	-0.841064	0.116943	0.001406	-0.047519	-0.028999	-0.246875	-0.516906	0.704116	-0.419620	-147.450651	-51.395022	-123.427528
26880		-0.111341	-3.408658	-2.233490	3.014902	1.577388	-7.567298	1.301825	-0.560950	0.120153	-0.311035	-0.832275	0.123291	-0.001030	-0.033941	-0.022559	-0.241278	-0.519254	0.702370	-0.422891	-146.849875	-51.087673	-123.241430
26881		0.589271	-0.935424	-1.941270	0.453578	1.229929	-8.003754	1.225958	-0.692284	0.509020	-0.306641	-0.832275	0.134521	0.005984	-0.009220	-0.019449	-0.232962	-0.519180	0.703096	-0.426424	-145.870310	-50.387123	-123.548343
26882		1.300553	0.896052	-1.811641	-1.512796	0.912811	-8.183420	0.986912	-0.744611	0.913771	-0.322510	-0.827881	0.143066	0.013031	0.009109	-0.018023	-0.225827	-0.518690	0.704210	-0.429012	-145.078456	-49.738898	-123.843595
26883		1.244263	1.051591	-1.921345	-1.675486	1.028406	-8.237683	0.642176	-0.669916	1.381021	-0.333984	-0.816895	0.145020	0.012434	0.010663	-0.019138	-0.217510	-0.516677	0.708331	-0.428954	-144.527460	-48.711804	-124.260827
26884		0.800539	-0.074255	-1.674747	-0.466268	0.946413	-8.283633	0.280552	-0.577715	1.873007	-0.352051	-0.810303	0.146973	0.008060	-0.000644	-0.016725	-0.210712	-0.511562	0.713161	-0.430471	-143.610379	-47.814012	-125.274353
26885		0.809968	-1.086696	-1.433441	0.472374	0.599523	-7.993616	0.078662	-0.517909	2.342632	-0.381104	-0.803955	0.142334	0.008263	-0.010765	-0.014317	-0.203121	-0.506995	0.721281	-0.425972	-143.622983	-46.464360	-125.848624
26886		1.066611	-1.099519	-1.022002	0.401938	0.097605	-8.018300	0.013145	-0.500374	2.759855	-0.397217	-0.788818	0.144043	0.010842	-0.010846	-0.010194	-0.195386	-0.498071	0.728686	-0.427512	-142.490025	-45.284741	-127.416339
26887		1.521825	-0.439244	-0.668233	-0.374187	-0.387909	-8.180294	0.033132	-0.544447	3.154958	-0.433350	-0.771484	0.147949	0.015303	-0.004150	-0.006641	-0.184521	-0.489151	0.739147	-0.424671	-141.938273	-43.490330	-128.675705
26888		2.061703	0.189558	-0.471594	-1.198931	-0.753762	-8.230631	0.035989	-0.589258	3.535493	-0.456055	-0.758301	0.145264	0.020593	0.002261	-0.004655	-0.174719	-0.477291	0.748142	-0.426557	-140.652461	-41.960017	-130.540185
26889		2.437134	0.328132	-0.447933	-1.551091	-0.956337	-8.101927	0.032483	-0.646644	3.875892	-0.487793	-0.743164	0.149414	0.024316	0.003754	-0.004400	-0.166085	-0.465860	0.757660	-0.425842	-139.881189	-40.423873	-132.141227
26890		2.931751	0.300302	-0.642049	-1.893124	-1.073962	-7.724877	0.008284	-0.760886	4.193300	-0.521973	-0.719238	0.148682	0.029270	0.003617	-0.006309	-0.154218	-0.451497	0.767869	-0.427486	-138.611673	-38.524973	-134.130300
26891		3.718808	0.311570	-0.773650	-2.419780	-1.376848	-7.210452	0.023748	-0.884764	4.534971	-0.551758	-0.695313	0.150146	0.037138	0.003959	-0.007572	-0.148878	-0.439000	0.775952	-0.427800	-137.878339	-37.347814	-135.831928
26892		4.310135	0.077987	-0.584778	-2.686618	-1.893786	-6.963625	-0.060441	-0.990103	4.872510	-0.588379	-0.662598	0.151367	0.043094	0.001828	-0.005635	-0.134702	-0.422034	0.787273	-0.428887	-136.693413	-35.036955	-137.896673
26893		4.920489	-0.220239	-0.290076	-2.877529	-2.475907	-6.661802	-0.147253	-1.025851	5.116520	-0.620605	-0.632080	0.159424	0.049254	-0.000945	-0.002647	-0.133276	-0.408528	0.794010	-0.429989	-136.017474	-34.261397	-139.738311
26894		5.548995	-0.333677	0.167925	-3.331866	-3.179161	-6.695783	-0.166370	-1.076911	5.245618	-0.655029	-0.597168	0.160645	0.055542	-0.001879	0.001980	-0.118016	-0.389762	0.805514	-0.430470	-135.001500	-31.714684	-141.778783
26895		6.358580	0.016234	0.405975	-4.216910	-3.555632	-6.624938	-0.092687	-1.185862	5.319655	-0.680908	-0.553467	0.163818	0.063526	0.001855	0.004436	-0.119693	-0.376318	0.809362	-0.434732	-134.038320	-31.395669	-143.720831
26896		7.780552	1.111598	0.547901	-6.190011	-3.940155	-6.946379	0.009522	-1.364883	5.404528	-0.708984	-0.516113	0.173828	0.077428	0.013212	0.006009	-0.102360	-0.357276	0.820011	-0.435267	-133.127003	-28.613192	-145.531662
26897		9.012598	1.443516	0.786964	-7.378486	-4.407328	-6.643989	-0.036038	-1.471632	5.511116	-0.741211	-0.483154	0.186035	0.089622	0.016911	0.008527	-0.108100	-0.345643	0.821125	-0.441134	-132.117370	-28.847268	-147.373244
26898		10.418573	1.682451	0.897897	-8.823034	-4.942211	-6.669232	0.050252	-1.551696	5.535494	-0.753662	-0.439453	0.185059	0.103593	0.019695	0.009789	-0.089391	-0.326226	0.831079	-0.441469	-131.339077	-25.888293	-149.003008
26899		11.826749	2.283014	0.999827	-10.340567	-5.155945	-6.272516	0.336762	-1.688617	5.480043	-0.779785	-0.391113	0.208008	0.117493	0.026039	0.011035	-0.100721	-0.318606	0.828521	-0.449332	-130.246465	-26.950386	-150.611945
26900		12.769429	2.744853	0.888286	-11.635761	-5.155820	-6.753153	0.675497	-1.885382	5.441890	-0.794434	-0.344971	0.217773	0.126793	0.030874	0.010182	-0.079569	-0.300507	0.836272	-0.451678	-129.306002	-23.862806	-151.901118
26901		14.261153	2.924936	0.187751	-12.997875	-4.864021	-5.418562	1.188128	-2.029860	5.353645	-0.811768	-0.294189	0.243164	0.141731	0.033034	0.003508	-0.094907	-0.298657	0.829527	-0.462257	-127.986876	-25.694221	-153.096701
26902		16.059555	4.487543	-0.171662	-15.660355	-4.599180	-6.406741	1.810974	-2.117716	5.176779	-0.815430	-0.250000	0.261963	0.159366	0.049014	0.000407	-0.071417	-0.282812	0.833718	-0.468862	-126.576268	-22.599211	-154.007499
26903		17.544620	6.824229	-0.683046	-18.161509	-3.700224	-6.462993	2.235570	-2.075142	5.010082	-0.817139	-0.199463	0.280518	0.173716	0.072666	-0.004226	-0.091161	-0.288634	0.822708	-0.481178	-125.144477	-25.325898	-154.636187
26904		18.390577	8.746536	-1.406468	-20.172047	-2.687663	-8.247569	2.402770	-1.921127	4.783263	-0.818359	-0.157471	0.294922	0.181859	0.091978	-0.011224	-0.068249	-0.274561	0.824373	-0.490274	-123.485872	-22.441806	-155.331508
26905		19.956955	10.820449	-1.763700	-22.543350	-2.320245	-7.627605	2.265658	-1.440656	4.433210	-0.821777	-0.117920	0.309326	0.197218	0.112773	-0.014950	-0.096622	-0.289872	0.811596	-0.497946	-122.834374	-26.456430	-155.286843
26906		21.008553	13.464833	-1.153409	-24.863275	-2.269169	-10.561662	1.625333	-0.848441	4.021621	-0.825439	-0.073975	0.310547	0.207364	0.138919	-0.009533	-0.080789	-0.276380	0.813590	-0.505132	-121.516530	-24.247210	-156.189257
26907		18.835638	14.001969	-0.354906	-23.361258	-2.251237	-10.106997	0.781313	-0.406719	3.499135	-0.821777	-0.049561	0.321045	0.185874	0.143298	-0.002614	-0.121000	-0.302398	0.801302	-0.501826	-122.574172	-29.829345	-155.250665
26908		16.936540	13.684554	-0.426291	-21.670618	-1.369475	-11.477703	0.157461	-0.236029	2.819234	-0.815918	-0.025391	0.320313	0.167419	0.139218	-0.003956	-0.112731	-0.291761	0.805232	-0.503755	-122.066663	-28.391983	-156.108330
26909		16.023493	14.373870	-1.426653	-21.567108	-0.373974	-9.500363	-0.183659	-0.132610	2.187921	-0.818848	-0.003418	0.322021	0.158659	0.145467	-0.014294	-0.156876	-0.328042	0.791057	-0.491942	-124.648813	-34.816625	-153.630076
26910		16.271473	16.027568	-3.824065	-23.037937	2.344621	-9.687711	-0.525413	-0.298510	1.430192	-0.821045	-0.001221	0.326416	0.161621	0.161333	-0.038422	-0.153035	-0.322698	0.794905	-0.490481	-124.726585	-34.045514	-154.024963
26911		13.271156	16.878763	-3.204991	-21.585184	2.286623	-9.441256	-0.807093	-0.826306	0.765264	-0.816650	0.000977	0.328613	0.132198	0.169164	-0.032185	-0.193398	-0.372141	0.778061	-0.467686	-129.875353	-40.469359	-148.437802
26912		16.042840	25.955019	-0.236510	-30.146309	1.257347	-14.363361	-0.953165	-0.778136	-0.332971	-0.814453	-0.003418	0.333008	0.160871	0.259269	-0.002976	-0.192920	-0.374326	0.780406	-0.462198	-130.815773	-40.326159	-147.829429
26913		21.094752	21.047286	-2.610356	-28.931435	-2.216073	-2.544061	-1.068209	-0.303904	-1.422527	-0.813965	-0.018555	0.340088	0.212477	0.208823	-0.026900	-0.235213	-0.438398	0.753646	-0.429535	-139.705561	-46.982781	-137.746817
26914		18.931073	-15.793919	-3.135762	4.128832	-9.922772	12.596053	-1.417083	0.795362	-0.852735	-0.818359	-0.020996	0.337891	0.188511	-0.158965	-0.030984	-0.243138	-0.438218	0.753853	-0.424918	-140.607705	-47.645740	-137.624126
26915		13.206453	-39.663925	4.996196	31.603694	-18.846407	10.647398	-0.911887	1.167733	-0.216457	-0.824707	-0.029785	0.324951	0.131931	-0.396551	0.051000	-0.284579	-0.479794	0.725210	-0.403588	-148.632106	-53.133654	-129.007791
26916		22.554260	-11.570433	0.936736	2.435941	-13.668492	11.415967	0.640097	0.909459	-2.081033	-0.828613	-0.047607	0.316406	0.224361	-0.118070	0.007970	-0.290521	-0.486382	0.717581	-0.405101	-149.289120	-54.195032	-127.736999
26917		15.973870	6.668070	-5.053316	-10.879283	-0.869426	4.541031	1.447120	-0.097409	-3.108964	-0.819092	-0.062744	0.325684	0.160778	0.064550	-0.049983	-0.330626	-0.495978	0.692897	-0.405691	-152.616181	-59.384873	-124.627153
26918		14.528332	7.436761	-0.229492	-11.127986	-4.731911	1.150162	1.839580	-0.515028	-2.994488	-0.822754	-0.088867	0.337402	0.146379	0.072196	-0.001248	-0.330302	-0.510360	0.682482	-0.405772	-154.408426	-59.886214	-121.328605
26919		13.066680	0.686372	0.561290	-3.390417	-5.499913	1.578906	0.365946	-0.363829	-2.849459	-0.815674	-0.106445	0.337891	0.130736	0.004991	0.005861	-0.367792	-0.518792	0.661386	-0.397684	-160.731402	-64.044704	-115.898903
26920		5.585307	5.254451	-2.172745	-5.998339	0.500964	-4.588512	0.225027	0.109463	-2.401619	-0.812744	-0.124023	0.338379	0.056467	0.051893	-0.021700	-0.372320	-0.526892	0.654459	-0.394267	-163.280508	-64.529641	-112.926716
26921		6.850874	12.730107	-5.382556	-12.812065	4.316249	-2.384804	0.106025	-0.652280	-2.106548	-0.803467	-0.141357	0.343262	0.070020	0.126597	-0.053532	-0.403271	-0.530675	0.638698	-0.384476	-170.547602	-67.398483	-106.867360
26922		13.582974	3.640762	-6.202558	-4.331863	1.209658	4.883940	-0.519819	0.113501	-1.495869	-0.807373	-0.154541	0.343506	0.136061	0.035229	-0.062195	-0.407876	-0.534169	0.635479	-0.380089	-172.869912	-67.586513	-104.676042
26923		8.260435	-1.548525	-0.755830	1.252510	-2.419187	-1.826332	-0.520438	0.524357	-1.091987	-0.811279	-0.172363	0.339600	0.082498	-0.015956	-0.007734	-0.432580	-0.541021	0.619033	-0.370093	178.392917	-69.393358	-96.581812
26924		11.730197	1.694493	-1.801058	-1.825965	-2.193533	1.830536	-0.864334	0.163103	-1.236265	-0.808838	-0.178955	0.339600	0.117389	0.016141	-0.018177	-0.437699	-0.542661	0.616917	-0.365174	176.000647	-69.452107	-94.555554
26925		10.961542	-0.035355	-3.045211	0.642190	-0.798397	1.517743	-0.575280	0.345940	-0.996373	-0.810791	-0.191895	0.342285	0.109559	-0.000987	-0.030639	-0.459704	-0.544090	0.604617	-0.356478	167.918812	-70.700190	-87.446750
26926		9.331216	-2.034394	-1.802146	2.492727	-1.716631	-0.577063	-0.196123	0.102160	-0.986184	-0.812744	-0.200684	0.344727	0.093201	-0.020821	-0.018049	-0.462299	-0.546432	0.602040	-0.353892	166.199194	-70.630720	-85.743489
26927		10.606365	0.900930	-2.925064	0.216446	-0.446939	1.215236	-0.203193	0.107785	-0.943740	-0.810303	-0.209473	0.344971	0.106089	0.008479	-0.029317	-0.479744	-0.545910	0.592781	-0.347044	159.394077	-71.383231	-79.834431
26928		11.357475	0.075845	-0.935582	0.790607	-2.678682	1.235940	-0.420235	0.188428	-0.780769	-0.814209	-0.222656	0.343018	0.113568	0.000295	-0.009464	-0.482800	-0.546884	0.590920	-0.344436	157.801967	-71.320518	-78.408268
26929		9.697205	-1.312160	-0.707417	2.236443	-2.478086	-0.586922	-0.379742	-0.048530	-0.882406	-0.807373	-0.227051	0.345459	0.096915	-0.013563	-0.007025	-0.497512	-0.544333	0.584914	-0.337728	152.106598	-71.745632	-73.753901
26930		9.564841	-0.976933	-2.187548	2.298617	-1.013803	-0.277811	-0.209143	-0.079358	-0.866693	-0.807129	-0.238037	0.345703	0.095613	-0.010207	-0.021827	-0.499308	-0.546476	0.583099	-0.334740	150.740281	-71.468157	-72.440358
26931		10.254661	0.988839	-3.623454	0.978121	0.604615	1.047444	-0.276053	-0.009821	-0.706277	-0.800049	-0.246826	0.350342	0.102582	0.009476	-0.036243	-0.510858	-0.541995	0.579980	-0.329983	146.695057	-71.855364	-69.419818
26932		9.710731	0.262738	-3.777530	1.732410	0.758507	0.437193	-0.469379	0.142363	-0.550101	-0.808838	-0.253418	0.345947	0.097087	0.002272	-0.037850	-0.513448	-0.542153	0.578895	-0.327600	145.491585	-71.747225	-68.436118
26933		9.693091	0.613071	-3.461996	1.467844	0.623035	0.374268	-0.609571	0.216871	-0.520535	-0.802002	-0.262207	0.343994	0.096909	0.005773	-0.034743	-0.522422	-0.538140	0.576865	-0.323585	142.330719	-71.989960	-66.145319
26934		9.751730	-0.539210	-2.385552	2.371704	-0.635659	-0.063405	-0.517658	0.218950	-0.436887	-0.801514	-0.273193	0.339844	0.097479	-0.005667	-0.023948	-0.525151	-0.537690	0.575950	-0.321538	141.191505	-71.933540	-65.259191
26935		9.851890	-0.448083	-2.570481	2.433816	-0.418993	0.075115	-0.356335	0.156060	-0.416946	-0.810303	-0.275391	0.344238	0.098489	-0.004732	-0.025773	-0.531066	-0.534747	0.574737	-0.318891	139.104053	-72.082195	-63.770508
26936		9.938435	0.265894	-3.020043	1.932880	0.143460	0.395499	-0.299999	0.167298	-0.317989	-0.810059	-0.286377	0.340332	0.099363	0.002456	-0.030287	-0.532856	-0.534596	0.573918	-0.317630	138.313578	-72.033961	-63.120344
26937		9.666632	-0.284544	-2.727036	2.394413	-0.136412	-0.055152	-0.338874	0.212663	-0.267393	-0.801270	-0.284180	0.346924	0.096633	-0.003021	-0.027368	-0.537464	-0.531411	0.573518	-0.315931	136.831257	-72.226093	-62.166049
26938		9.461801	-0.761174	-2.589383	2.813381	-0.310910	-0.389414	-0.299358	0.195647	-0.222147	-0.805420	-0.292969	0.338135	0.094584	-0.007756	-0.025975	-0.539171	-0.530933	0.572873	-0.314994	136.130649	-72.219703	-61.610476
26939		9.480339	-0.726960	-2.720630	2.849661	-0.151519	-0.343605	-0.224926	0.195781	-0.190583	-0.807373	-0.299561	0.340576	0.094770	-0.007391	-0.027291	-0.542587	-0.527915	0.572979	-0.314006	135.128260	-72.424375	-61.044338
26940		9.150554	-0.629719	-2.775456	2.750130	0.022787	-0.632897	-0.144736	0.195265	-0.171461	-0.804932	-0.303955	0.340576	0.091473	-0.006396	-0.027839	-0.543798	-0.527707	0.572222	-0.313641	134.575585	-72.433599	-60.551646
26941		9.222524	-0.263924	-2.902472	2.467373	0.245364	-0.463850	-0.129617	0.196655	-0.157320	-0.809326	-0.308350	0.336426	0.092195	-0.002731	-0.029114	-0.546464	-0.524873	0.572564	-0.313138	133.855837	-72.647330	-60.198683
26942		8.980705	-0.696032	-2.722679	2.805984	0.044335	-0.830765	-0.122066	0.193066	-0.138783	-0.809326	-0.310547	0.334229	0.089776	-0.007039	-0.027309	-0.547555	-0.524634	0.571862	-0.312915	133.353321	-72.666003	-59.745547
26943		9.182581	-0.705223	-2.686606	2.840902	-0.017980	-0.649506	-0.111034	0.186615	-0.144287	-0.806885	-0.317139	0.341064	0.091796	-0.007133	-0.026948	-0.549710	-0.522105	0.572302	-0.312564	132.799293	-72.858902	-59.507870
26944		9.448786	-0.954090	-2.538197	3.089390	-0.276168	-0.484684	-0.112540	0.178571	-0.143749	-0.806885	-0.317139	0.332031	0.094458	-0.009623	-0.025461	-0.550740	-0.521928	0.571610	-0.312312	132.309258	-72.867384	-59.062590
26945		9.340677	-0.885206	-2.214853	2.912018	-0.510072	-0.636777	-0.102004	0.174383	-0.181422	-0.806885	-0.319336	0.341064	0.093379	-0.008948	-0.022225	-0.552739	-0.519495	0.572130	-0.311884	131.803733	-73.042581	-58.868357
26946		9.383046	-1.129516	-2.681153	3.314532	-0.140759	-0.566069	-0.089130	0.176645	-0.200766	-0.806396	-0.330322	0.334717	0.093795	-0.011401	-0.026889	-0.553789	-0.519547	0.571258	-0.311532	131.253877	-73.023526	-58.346914
26947		9.672678	-1.032038	-2.963412	3.362019	0.097435	-0.216082	-0.125019	0.220280	-0.248508	-0.808594	-0.330322	0.332520	0.096681	-0.010459	-0.029734	-0.556051	-0.516987	0.571692	-0.310967	130.626677	-73.198400	-58.056717
26948		9.131369	-2.113334	-2.952142	4.320193	-0.060908	-0.986854	-0.108677	0.243024	-0.287727	-0.806152	-0.336914	0.332764	0.091247	-0.021281	-0.029621	-0.557473	-0.517128	0.570440	-0.310484	129.860009	-73.162475	-57.320881
26949		9.410721	-1.494594	-2.631372	3.695921	-0.240504	-0.647440	-0.087898	0.247832	-0.381580	-0.805908	-0.350098	0.330811	0.094046	-0.015137	-0.026424	-0.559824	-0.514916	0.570548	-0.309732	129.103876	-73.292425	-56.879589
26950		9.520155	-1.425951	-1.995015	3.489458	-0.827572	-0.659253	-0.056946	0.244119	-0.457747	-0.803467	-0.352539	0.324219	0.095144	-0.014483	-0.020062	-0.561375	-0.515683	0.568771	-0.308915	128.164606	-73.174830	-55.932739
26951		9.238030	-1.659240	-2.318791	3.786522	-0.509827	-0.931632	-0.019467	0.221069	-0.541664	-0.801025	-0.363281	0.326660	0.092309	-0.016845	-0.023288	-0.563816	-0.513822	0.568658	-0.307777	127.306724	-73.240184	-55.385679
26952		9.757936	-0.902206	-2.065957	3.141052	-0.647534	-0.325137	-0.001503	0.226230	-0.621750	-0.791748	-0.369873	0.324707	0.097527	-0.009325	-0.020770	-0.565418	-0.515235	0.566421	-0.306599	126.259232	-73.032426	-54.292065
26953		10.063813	-0.865244	-1.969469	3.160408	-0.783933	-0.050280	-0.007733	0.228661	-0.703370	-0.793701	-0.380859	0.320557	0.100584	-0.009007	-0.019809	-0.568121	-0.513692	0.565975	-0.305009	125.236371	-73.027860	-53.585495
26954		9.366748	-1.674273	-2.569198	4.057941	-0.290875	-0.835606	-0.001344	0.224105	-0.737859	-0.791504	-0.380859	0.324951	0.093576	-0.017088	-0.025797	-0.569880	-0.515431	0.563441	-0.303482	124.110762	-72.753159	-52.408620
26955		9.771284	-0.822438	-2.686280	3.422179	-0.022602	-0.238862	-0.021739	0.248394	-0.774031	-0.788818	-0.394287	0.314209	0.097647	-0.008605	-0.026983	-0.572794	-0.513864	0.562902	-0.301651	123.012358	-72.720618	-51.649998
26956		9.860608	-0.790750	-2.570957	3.449015	-0.137520	-0.192320	-0.090035	0.273279	-0.789415	-0.777344	-0.405029	0.314453	0.098539	-0.008308	-0.025841	-0.574981	-0.515411	0.560221	-0.299835	121.767364	-72.422488	-50.399217
26957		10.119784	0.007970	-2.290707	2.719757	-0.210289	0.198078	-0.205351	0.289834	-0.814589	-0.777100	-0.413818	0.312500	0.101164	-0.000356	-0.023053	-0.578426	-0.513464	0.559733	-0.297451	120.523220	-72.361787	-49.585015
26958		10.341579	0.419680	-1.945714	2.360498	-0.456601	0.440551	-0.293867	0.305600	-0.864112	-0.772217	-0.424805	0.308350	0.103403	0.003721	-0.019621	-0.581315	-0.514572	0.557060	-0.294910	119.115173	-72.019230	-48.282998
26959		10.251884	-0.352419	-2.028824	3.142208	-0.575800	0.143995	-0.326562	0.320150	-0.894276	-0.769775	-0.435791	0.304199	0.102469	-0.004016	-0.020446	-0.585184	-0.512570	0.556395	-0.291986	117.739332	-71.899611	-47.388906
26960		10.148857	-0.297685	-2.575746	3.363327	-0.029475	0.107423	-0.394507	0.307378	-0.908929	-0.764648	-0.451172	0.300293	0.101434	-0.003489	-0.025907	-0.588370	-0.513489	0.553734	-0.289012	116.322380	-71.515679	-46.134661
26961		10.293036	0.581163	-2.833536	2.764494	0.455544	0.505366	-0.502763	0.300498	-0.929917	-0.753174	-0.464355	0.293945	0.102913	0.005262	-0.028504	-0.592615	-0.511072	0.553325	-0.285385	114.924428	-71.355678	-45.323916
26962		10.638962	-0.297220	-2.525612	3.636905	-0.186743	0.501933	-0.672222	0.325538	-0.935725	-0.752930	-0.473389	0.278809	0.106333	-0.003555	-0.025418	-0.596559	-0.511195	0.550918	-0.281579	113.397735	-70.942773	-44.117734
26963		11.041979	-0.107125	-2.158890	3.508755	-0.551067	0.863504	-0.793654	0.370368	-0.998826	-0.741211	-0.486572	0.276855	0.110372	-0.001709	-0.021787	-0.601640	-0.508170	0.550465	-0.277093	111.790798	-70.731835	-43.234917
26964		10.890454	-0.622577	-1.702032	3.886166	-1.109624	0.461133	-0.863582	0.404170	-1.066146	-0.734375	-0.495361	0.266113	0.108834	-0.006880	-0.017212	-0.606409	-0.507934	0.547722	-0.272528	110.069483	-70.243917	-41.933729
26965		10.848692	-1.285901	-1.646821	4.531441	-1.381457	0.168065	-0.907387	0.442213	-1.188434	-0.727051	-0.510742	0.259766	0.108371	-0.013578	-0.016647	-0.612256	-0.504627	0.546907	-0.267184	108.269184	-69.942738	-40.955001
26966		10.949687	-2.033459	-2.110110	5.540574	-1.257939	-0.004506	-0.846982	0.451879	-1.314993	-0.713135	-0.528320	0.251465	0.109312	-0.021144	-0.021260	-0.617365	-0.505010	0.543318	-0.261974	106.512225	-69.301021	-39.598498
26967		10.470453	-2.818122	-2.225972	6.240519	-1.358171	-0.771902	-0.760945	0.506560	-1.443243	-0.703857	-0.541504	0.242920	0.104440	-0.029021	-0.022415	-0.623445	-0.502081	0.541856	-0.256171	104.696751	-68.886940	-38.593350
26968		11.061751	-2.559012	-2.535705	6.469766	-1.138552	-0.211493	-0.654805	0.514092	-1.616759	-0.694580	-0.552490	0.234375	0.110340	-0.026566	-0.025555	-0.628527	-0.503741	0.537011	-0.250636	103.033580	-68.058064	-37.208857
26969		11.497931	-2.693563	-2.366747	6.766102	-1.485757	0.039563	-0.602613	0.551593	-1.834148	-0.678467	-0.570068	0.232666	0.114660	-0.028060	-0.023901	-0.634839	-0.501607	0.534682	-0.243896	101.277096	-67.451238	-36.246720
26970		11.921429	-3.000860	-2.047344	7.221292	-2.015422	0.142324	-0.509638	0.558929	-2.039258	-0.662109	-0.587646	0.217773	0.118842	-0.031274	-0.020727	-0.640061	-0.504730	0.528383	-0.237448	99.746517	-66.360732	-34.900354
26971		13.761991	-2.802443	-2.251300	7.908140	-2.246799	1.794119	-0.440841	0.612532	-2.287136	-0.648438	-0.603027	0.216064	0.137217	-0.029645	-0.022870	-0.646686	-0.503403	0.525081	-0.229505	98.084561	-65.531894	-34.034816
26972		16.303501	-3.351060	-2.269666	9.558329	-3.081026	3.652602	-0.383295	0.681606	-2.557266	-0.627686	-0.620605	0.207764	0.162510	-0.035635	-0.023184	-0.652317	-0.508050	0.516833	-0.221925	96.640903	-64.128671	-32.682515
26973		17.030347	-5.356708	-3.197003	12.112380	-3.339138	3.266520	-0.358206	0.694295	-2.763731	-0.609375	-0.640137	0.203857	0.169429	-0.055970	-0.032460	-0.659535	-0.506903	0.512809	-0.212344	95.050879	-63.088513	-31.991663
26974		17.902764	-5.999267	-3.859531	13.654947	-3.283675	3.382996	-0.317334	0.700203	-3.017417	-0.586426	-0.655518	0.202148	0.177958	-0.062745	-0.039122	-0.665258	-0.512788	0.503127	-0.203329	93.853837	-61.395898	-30.844599
26975		19.707236	-4.740905	-3.936979	13.721044	-3.382841	5.240480	-0.453999	0.705459	-3.361346	-0.565674	-0.677246	0.198242	0.196097	-0.050801	-0.039950	-0.673339	-0.511098	0.498971	-0.190843	92.344993	-60.115544	-30.521418
26976		21.113260	-6.013547	-3.877350	15.796189	-4.454775	5.271849	-0.705114	0.670936	-3.637171	-0.538330	-0.694824	0.185547	0.209860	-0.064098	-0.039258	-0.680166	-0.517067	0.488002	-0.178519	91.191887	-58.044370	-29.648445
26977		21.115932	-8.095844	-3.945173	17.655580	-5.668069	3.717777	-0.927742	0.673470	-3.840376	-0.513428	-0.712402	0.175049	0.209417	-0.085175	-0.039770	-0.689518	-0.513167	0.484662	-0.162255	89.633057	-56.604839	-29.815529
26978		20.299161	-8.727321	-3.820535	18.126819	-6.020645	1.931220	-1.053457	0.739972	-3.906276	-0.483887	-0.729736	0.168945	0.201091	-0.091416	-0.038477	-0.697038	-0.518292	0.472840	-0.148100	88.466810	-54.359945	-29.132901
26979		20.737469	-7.210248	-3.455731	17.249486	-6.334971	2.686302	-1.267355	0.960116	-3.936850	-0.465332	-0.747314	0.153809	0.205732	-0.076384	-0.035073	-0.707595	-0.510811	0.470591	-0.130097	86.641884	-53.023808	-29.551435
26980		20.128181	-7.106538	-3.376097	17.284532	-6.339854	1.502310	-1.394137	1.310224	-3.839406	-0.435791	-0.764893	0.143311	0.199641	-0.075148	-0.034558	-0.716573	-0.513942	0.456949	-0.116550	85.090175	-50.775554	-28.594995
26981		19.154636	-5.474921	-3.176507	15.719573	-5.922936	1.355064	-1.224299	1.754515	-3.776936	-0.417236	-0.786865	0.135254	0.190178	-0.058549	-0.033087	-0.728041	-0.503795	0.454094	-0.099727	82.909698	-49.612742	-28.817806
26982		17.481593	-3.010376	-2.640842	13.458986	-4.705498	1.064309	-0.802798	1.961064	-3.678312	-0.392334	-0.800049	0.122314	0.173952	-0.033419	-0.027987	-0.736185	-0.508132	0.437989	-0.089433	81.514229	-47.372335	-27.568950
26983		15.800449	-0.383590	-3.068380	11.367693	-2.831654	1.229918	-0.174354	1.808072	-3.586053	-0.376465	-0.808838	0.113770	0.157616	-0.006692	-0.032105	-0.744169	-0.500493	0.436075	-0.074554	80.097373	-46.357000	-28.144119
26984		12.816359	-1.068527	-5.284256	11.547353	-0.425915	-2.080673	0.401249	1.305786	-3.363647	-0.354004	-0.815186	0.118408	0.127612	-0.012727	-0.053701	-0.747143	-0.508750	0.422578	-0.066170	79.919935	-44.329246	-27.571535
26985		10.112985	-2.163046	-6.712721	11.361187	0.787663	-5.089618	0.695328	0.829455	-2.993110	-0.331543	-0.819336	0.123047	0.100514	-0.022903	-0.067623	-0.749595	-0.504190	0.425571	-0.052806	79.687139	-43.730017	-28.967810
26986		6.965292	-3.999731	-6.594072	10.300418	0.912026	-8.782204	0.653245	0.378418	-2.361107	-0.326660	-0.832275	0.134521	0.069051	-0.040599	-0.066204	-0.749319	-0.511523	0.417996	-0.046298	80.083960	-42.360260	-29.000793
26987		5.684241	-3.521279	-2.582015	6.860078	-1.816347	-8.804797	0.395751	0.456966	-1.697081	-0.317871	-0.832275	0.132324	0.056482	-0.035642	-0.026020	-0.750464	-0.504541	0.425309	-0.036791	79.916581	-42.491746	-30.473415
26988		4.625851	1.863212	-2.730695	3.694609	1.320133	-5.697630	0.991018	0.412736	-1.488420	-0.311035	-0.834229	0.147705	0.046340	0.018423	-0.027311	-0.749084	-0.511327	0.419806	-0.034354	80.405677	-41.611229	-30.355861
26989		7.027239	5.047779	-3.181807	3.969618	2.197142	-1.787751	1.122977	0.018949	-1.522111	-0.302246	-0.834229	0.150146	0.070652	0.050119	-0.031543	-0.746900	-0.507991	0.428232	-0.026521	80.959342	-41.808049	-32.042230
26990		7.545107	3.942862	-5.247758	6.116965	3.000221	-2.491825	1.254801	0.329759	-1.133247	-0.297852	-0.831787	0.158936	0.075588	0.039329	-0.052355	-0.744541	-0.515040	0.423940	-0.025813	81.600259	-41.137798	-31.924364
26991		3.249252	-1.449828	-4.216099	5.330445	1.261627	-9.157419	1.239375	0.733988	-0.267662	-0.306885	-0.833984	0.169922	0.032318	-0.014279	-0.042369	-0.742872	-0.511082	0.431594	-0.025736	81.889727	-41.877874	-32.761907
26992		1.209152	-3.224368	-4.370949	4.987189	1.423871	-11.828613	1.060998	0.565717	0.401458	-0.315918	-0.829590	0.171875	0.012032	-0.031987	-0.043914	-0.741315	-0.514073	0.430375	-0.030963	82.180284	-42.060984	-32.287310
26993		1.820044	-2.102861	-3.456545	4.292228	0.939506	-10.426002	0.856191	0.516744	0.922299	-0.336182	-0.820801	0.178223	0.018207	-0.020796	-0.034702	-0.739756	-0.507088	0.440943	-0.034517	82.335909	-43.423656	-33.052615
26994		2.254144	0.274802	-2.928260	3.027261	1.545774	-8.337087	0.714908	0.495506	1.390319	-0.352051	-0.812256	0.180176	0.022448	0.003009	-0.029328	-0.738771	-0.506564	0.442499	-0.042492	82.374130	-44.175667	-32.515980
26995		2.460327	1.782888	-2.429064	2.036173	1.825524	-7.046228	0.482190	0.532214	1.769555	-0.367920	-0.801270	0.175537	0.024379	0.018104	-0.024312	-0.737809	-0.497039	0.454096	-0.048864	82.272687	-45.942850	-33.056244
26996		2.061317	2.104318	-2.485554	1.617093	2.232239	-7.118844	0.187380	0.573295	2.120540	-0.390381	-0.797119	0.175293	0.020317	0.021283	-0.024894	-0.738081	-0.492744	0.457179	-0.058536	81.860175	-47.101182	-32.339783
26997		1.419273	1.489406	-2.821945	1.756611	2.444881	-8.042777	0.020205	0.528324	2.485515	-0.406250	-0.788574	0.168457	0.013932	0.015071	-0.028255	-0.737733	-0.480685	0.469267	-0.066942	81.425799	-49.177881	-32.617382
26998		1.101438	0.443407	-2.870496	2.151927	2.076726	-8.972560	-0.061503	0.424601	2.854951	-0.444580	-0.773438	0.161377	0.010889	0.004581	-0.028730	-0.737844	-0.473566	0.474536	-0.078343	80.803758	-50.756808	-31.851011
26999		1.184410	0.032136	-2.675976	2.298373	1.674887	-9.122162	-0.078132	0.333191	3.213950	-0.469482	-0.760498	0.156494	0.011792	0.000501	-0.026780	-0.736542	-0.460077	0.487748	-0.089088	80.312335	-53.174909	-31.994281
27000		1.547869	-0.002291	-2.298263	2.235281	1.282106	-8.794160	-0.062533	0.277908	3.522175	-0.501221	-0.740967	0.155762	0.015444	0.000242	-0.023004	-0.735678	-0.451061	0.494781	-0.102534	79.571681	-55.134564	-31.124835
27001		1.919753	-0.076461	-2.335187	2.449392	1.172961	-8.482804	0.014113	0.188826	3.786307	-0.532959	-0.726074	0.148682	0.019185	-0.000400	-0.023370	-0.733001	-0.436711	0.508595	-0.115431	79.041430	-57.824522	-31.091641
27002		2.002280	-0.089802	-1.942452	2.195812	0.892909	-8.339306	0.195818	0.065088	3.966401	-0.558105	-0.701904	0.150146	0.020029	-0.000482	-0.019432	-0.730304	-0.427218	0.516805	-0.130587	78.353619	-60.046192	-30.157778
27003		2.197175	0.102690	-2.177008	2.247694	1.170960	-8.036905	0.383954	-0.185142	4.091013	-0.590332	-0.671387	0.151611	0.021964	0.001518	-0.021747	-0.725081	-0.413531	0.531311	-0.144769	78.168344	-62.900945	-30.250739
27004		2.614658	0.173240	-2.451188	2.466364	1.387671	-7.607052	0.678836	-0.445457	4.218867	-0.611084	-0.647461	0.155273	0.026156	0.002367	-0.024446	-0.719272	-0.405011	0.541037	-0.160914	78.045703	-65.319350	-29.682059
27005		3.153870	-0.041525	-2.736008	2.875186	1.410547	-7.133949	1.015955	-0.751655	4.386672	-0.645752	-0.610107	0.167480	0.031638	0.000417	-0.027241	-0.710289	-0.393062	0.556558	-0.176736	78.817653	-68.367853	-30.383509
27006		3.946344	-0.042733	-2.674265	2.943790	1.306720	-6.298479	1.313418	-1.018620	4.572060	-0.673584	-0.579346	0.182129	0.039592	0.000652	-0.026539	-0.700622	-0.385786	0.567837	-0.194575	79.807941	-71.050699	-30.636690
27007		4.945367	0.767562	-2.789675	2.489388	1.832015	-4.989000	1.552479	-1.204113	4.717313	-0.697021	-0.544189	0.198975	0.049417	0.009056	-0.027532	-0.688136	-0.374848	0.583907	-0.212157	82.125865	-74.294945	-32.582326
27008		5.925571	1.841227	-2.493902	1.453953	2.265004	-3.691609	1.569324	-1.312362	4.888429	-0.720703	-0.500244	0.213135	0.058940	0.020048	-0.024398	-0.675935	-0.367236	0.595716	-0.231025	84.699883	-77.164356	-34.309672
27009		6.634488	2.695285	-2.632242	0.642147	2.954290	-2.808731	1.460015	-1.402879	5.092223	-0.741943	-0.458496	0.227539	0.065808	0.028822	-0.025654	-0.661555	-0.354879	0.611816	-0.249173	90.179666	-80.523156	-39.422934
27010		7.518641	3.221346	-2.114477	-0.387114	2.941085	-1.903235	1.306196	-1.489803	5.308286	-0.756836	-0.412354	0.241699	0.074448	0.034331	-0.020369	-0.647800	-0.344675	0.624291	-0.267984	98.673780	-83.496955	-47.241431
27011		9.096936	3.444548	-2.199807	-0.924232	3.194347	-0.412016	1.108340	-1.589370	5.489596	-0.778320	-0.368408	0.256104	0.090146	0.037046	-0.021079	-0.631712	-0.330291	0.640411	-0.285872	126.924039	-86.331801	-75.236861
27012		10.733573	4.065972	-2.297277	-1.905525	3.764228	1.104189	1.096009	-1.633443	5.667395	-0.793213	-0.317871	0.274658	0.106306	0.043804	-0.021867	-0.616286	-0.317792	0.653075	-0.304456	-173.810590	-86.828770	-133.960751
27013		12.174718	4.868523	-2.480233	-3.223722	4.575100	2.299276	0.978832	-1.769147	5.757765	-0.810547	-0.269531	0.286621	0.120488	0.052283	-0.023483	-0.598083	-0.302738	0.668477	-0.322158	-138.316439	-84.080357	-169.161898
27014		13.907989	5.485130	-2.439967	-4.658437	5.146919	3.648797	0.519772	-1.792087	5.810537	-0.816406	-0.221191	0.296631	0.137618	0.058925	-0.023012	-0.581667	-0.287617	0.681483	-0.338408	-126.667624	-80.915652	179.394286
27015		15.699585	6.510639	-2.209331	-6.737189	5.869386	4.810128	0.056791	-1.464188	5.677383	-0.822266	-0.175049	0.299805	0.155220	0.069536	-0.020933	-0.564649	-0.270534	0.695355	-0.352795	-121.493642	-77.461137	174.137197
27016		18.417926	6.881235	-0.676938	-9.298672	5.315615	6.686289	-0.138971	-1.154530	5.272979	-0.821533	-0.131104	0.305176	0.182315	0.073632	-0.005763	-0.551313	-0.253747	0.705740	-0.365510	-117.879690	-74.506639	170.331731
27017		20.376417	7.687780	-0.456313	-11.398195	6.026837	7.742192	-0.266248	-1.024599	4.789203	-0.831787	-0.089355	0.312988	0.201866	0.081722	-0.003632	-0.536883	-0.239618	0.715948	-0.376507	-116.415957	-71.658383	168.790585
27018		20.345466	10.725257	-1.320029	-13.809266	8.941734	6.311205	-0.471749	-0.908650	4.301894	-0.832520	-0.062988	0.312500	0.201144	0.111566	-0.012543	-0.525963	-0.224603	0.724256	-0.385188	-114.997581	-69.210766	166.998951
27019		19.998341	13.279060	-1.140413	-16.234062	10.492608	4.465277	-0.672744	-0.610578	3.796189	-0.828857	-0.034424	0.318359	0.197450	0.136517	-0.011254	-0.514749	-0.214329	0.731532	-0.392374	-114.646068	-67.117617	166.560697
27020		18.488364	14.425879	-0.686206	-17.056780	11.039144	1.915608	-0.742039	-0.463360	3.231373	-0.825439	-0.005615	0.326416	0.182537	0.147195	-0.006980	-0.507434	-0.201477	0.737542	-0.397428	-113.893444	-65.319921	165.273902
27021		16.543643	13.953252	-0.425092	-16.405359	10.326107	-0.180632	-0.464243	-0.556296	2.555810	-0.828125	0.011719	0.325928	0.163647	0.141622	-0.004121	-0.498185	-0.198807	0.741925	-0.402286	-114.284399	-64.051465	166.004169
27022		18.785040	15.069603	-5.007556	-15.674300	14.960549	1.829208	-0.148371	-1.170819	1.420198	-0.819580	0.018555	0.332520	0.187063	0.151990	-0.049091	-0.491107	-0.195514	0.746522	-0.404094	-114.914435	-63.031689	166.613080
27023		16.895639	19.264375	2.734651	-22.509031	10.619053	-3.132045	-0.192897	-1.294476	0.560451	-0.817383	0.025391	0.345703	0.168235	0.193143	0.028251	-0.482564	-0.204549	0.749571	-0.404270	-116.908784	-62.725114	169.498355
27024		23.455174	27.373375	3.228929	-31.467269	15.383364	-0.700805	-0.098503	-0.805695	-0.881798	-0.821533	0.012207	0.352539	0.235623	0.272713	0.033103	-0.481414	-0.209239	0.750801	-0.400945	-118.218693	-62.958761	170.907274
27025		26.738241	13.561082	3.677714	-23.417779	6.271406	8.204404	-0.473411	0.403752	-1.704775	-0.825684	-0.001221	0.343994	0.268599	0.133410	0.035918	-0.484057	-0.225046	0.746851	-0.396555	-120.076461	-64.359095	173.663469
27026		19.507980	-36.121395	5.390807	14.789498	-24.564831	20.057218	-0.732612	1.565074	-0.860457	-0.825195	-0.012207	0.335449	0.193945	-0.361853	0.053712	-0.492405	-0.223371	0.743515	-0.393482	-119.360813	-65.231222	172.408766
27027		12.450019	-30.384027	4.149088	15.048556	-20.421592	11.444859	0.642518	1.271772	-1.304829	-0.829346	-0.021240	0.322510	0.122770	-0.304775	0.039728	-0.497299	-0.235388	0.735711	-0.394988	-119.122143	-66.590334	173.278930
27028		20.212806	2.944484	5.793647	-13.063797	-2.146825	6.785140	0.514001	1.279829	-2.691641	-0.833252	-0.038818	0.322754	0.202864	0.026571	0.056711	-0.506656	-0.244012	0.728264	-0.391650	-119.091271	-68.293879	173.564531
27029		13.426273	6.891408	-8.125094	-5.717696	10.934501	2.082973	2.241736	-0.037880	-3.196077	-0.825928	-0.060547	0.325684	0.135366	0.067662	-0.080462	-0.509172	-0.266278	0.718326	-0.392233	-120.731097	-70.117188	177.155223
27030		8.654047	-0.602587	-5.494679	0.452646	4.370902	-0.531723	2.824370	-0.137973	-3.144845	-0.825439	-0.073730	0.332520	0.086478	-0.006610	-0.054978	-0.510966	-0.284973	0.708794	-0.394102	-122.011330	-71.614375	-179.776871
27031		9.142326	4.182519	-2.174480	-5.132085	3.855060	-1.775445	1.769409	-0.404631	-2.942028	-0.824951	-0.093262	0.337402	0.092070	0.040663	-0.021196	-0.511625	-0.305656	0.700372	-0.392802	-125.262687	-73.093439	-174.828776
27032		7.203818	10.229703	-3.975826	-8.710252	8.306149	-4.570468	1.685531	0.206797	-2.372030	-0.824463	-0.106445	0.340088	0.073207	0.101764	-0.038974	-0.514374	-0.317834	0.692836	-0.392912	-126.696238	-74.262539	-172.328714
27033		11.409945	5.015724	-6.830479	-4.149593	7.838021	1.293296	1.547947	-0.034558	-2.155209	-0.824219	-0.115234	0.338135	0.114647	0.049450	-0.067900	-0.514724	-0.334409	0.684551	-0.393217	-129.653973	-75.398002	-167.853790
27034		9.847910	-0.592998	-1.361544	-1.234570	0.383191	0.062206	0.615186	0.366001	-1.705763	-0.823730	-0.130615	0.340576	0.098399	-0.006727	-0.013815	-0.518276	-0.341096	0.679521	-0.391530	-131.179794	-76.277623	-165.916552
27035		11.443989	3.781011	-0.604036	-5.547871	1.512049	0.796617	-0.231791	0.486740	-1.555326	-0.825684	-0.141602	0.338623	0.114714	0.036911	-0.006362	-0.522105	-0.349535	0.674262	-0.388076	-134.130607	-77.255323	-162.558173
27036		12.688194	2.119968	-2.027499	-3.532406	1.916912	2.574309	-0.970129	0.620747	-1.634507	-0.829346	-0.163574	0.334717	0.126985	0.020062	-0.020768	-0.529034	-0.351290	0.671636	-0.381606	-136.598234	-78.165989	-160.601517
27037		9.803509	0.094922	-1.833309	-1.062880	0.944677	0.059215	-0.993542	0.562663	-1.387918	-0.820068	-0.176758	0.333008	0.097986	0.000177	-0.018611	-0.534232	-0.356541	0.667842	-0.376113	-140.304428	-79.041502	-156.971640
27038		8.857692	-1.069275	-1.199490	-0.019735	-0.109703	-0.811174	0.004431	0.258714	-1.290918	-0.822266	-0.181152	0.333008	0.088490	-0.011264	-0.012110	-0.537500	-0.360369	0.664830	-0.373134	-142.888932	-79.616770	-154.339003
27039		10.678657	-0.226210	-2.143198	-0.501113	0.900651	1.032345	0.408923	0.122211	-1.177230	-0.826172	-0.196533	0.331299	0.106758	-0.002847	-0.021503	-0.538441	-0.368790	0.660067	-0.372003	-146.766664	-80.129225	-149.793212
27040		11.456310	1.592123	-0.877687	-2.670708	0.487931	1.464731	0.084535	0.136861	-1.076908	-0.819336	-0.205322	0.329346	0.114641	0.015308	-0.008849	-0.540729	-0.372311	0.657548	-0.369631	-149.549478	-80.521009	-146.921031
27041		8.943246	-0.083556	-0.566576	-0.843942	-0.380881	-0.899124	-0.071430	0.137408	-1.031043	-0.818848	-0.214111	0.336182	0.089423	-0.001299	-0.005727	-0.542415	-0.378448	0.653971	-0.367266	-153.788476	-80.905960	-142.340479
27042		9.719639	-0.422429	-1.730124	-0.052526	0.399156	0.060532	0.076262	0.055586	-0.893659	-0.823242	-0.218506	0.342773	0.097171	-0.004652	-0.017330	-0.544085	-0.381471	0.651985	-0.365195	-156.602880	-81.149305	-139.446883
27043		10.600313	0.492288	-2.599425	-0.506279	1.434363	1.006358	0.070166	0.083266	-0.768554	-0.816162	-0.229492	0.336426	0.106010	0.004525	-0.026037	-0.544945	-0.386742	0.648915	-0.363833	-160.269013	-81.365245	-135.416154
27044		10.557561	1.023934	-1.932332	-1.188948	1.052155	0.851427	-0.117667	0.154590	-0.686321	-0.818359	-0.236084	0.338867	0.105595	0.009866	-0.019411	-0.546916	-0.388364	0.647379	-0.361879	-162.632546	-81.573936	-133.094253
27045		10.486941	0.907823	-2.331398	-0.817826	1.327693	0.855181	-0.302944	0.221920	-0.613587	-0.820313	-0.242432	0.347900	0.104871	0.008721	-0.023444	-0.548703	-0.391595	0.644984	-0.359965	-165.990985	-81.781229	-129.618996
27046		10.339842	0.379133	-2.986369	0.027793	1.696481	0.821932	-0.569196	0.315058	-0.524182	-0.815430	-0.253662	0.339355	0.103361	0.003435	-0.030037	-0.551769	-0.391153	0.644115	-0.357306	-168.087861	-82.024144	-127.830312
27047		9.886559	-0.008359	-2.336524	0.221840	0.982525	0.296145	-0.657947	0.363727	-0.438912	-0.819824	-0.258057	0.337158	0.098822	-0.000378	-0.023544	-0.554412	-0.392373	0.642384	-0.354985	-171.042287	-82.248786	-124.990991
27048		9.421148	-0.313531	-1.546052	0.250104	0.203239	-0.265829	-0.502877	0.345300	-0.384963	-0.819580	-0.266846	0.330811	0.094178	-0.003356	-0.015615	-0.557184	-0.391600	0.641562	-0.352979	-172.748598	-82.475402	-123.560009
27049		9.237491	-1.130948	-1.406800	0.999104	-0.268414	-0.457532	-0.281683	0.290033	-0.364418	-0.817139	-0.273438	0.337646	0.092334	-0.011498	-0.014186	-0.558769	-0.393486	0.639620	-0.351899	-175.338405	-82.627905	-120.899254
27050		9.496315	-0.895808	-1.871145	1.018667	0.224828	-0.148565	-0.071135	0.236306	-0.382090	-0.823730	-0.277832	0.331055	0.094924	-0.009146	-0.018820	-0.560332	-0.394092	0.638333	-0.351069	-177.012011	-82.777275	-119.252969
27051		9.539005	-1.214389	-2.268903	1.530829	0.427942	-0.061352	-0.064428	0.240720	-0.372495	-0.816650	-0.286621	0.333496	0.095340	-0.012329	-0.022800	-0.561403	-0.396396	0.636259	-0.350530	-179.546857	-82.881902	-116.553468
27052		9.274453	-1.232683	-2.285283	1.611802	0.468518	-0.329021	-0.137484	0.253774	-0.351256	-0.818848	-0.286621	0.333496	0.092694	-0.012505	-0.022962	-0.563094	-0.396681	0.635092	-0.349609	178.740502	-83.025582	-114.907063
27053		9.516271	-1.453775	-1.847254	1.658505	-0.047353	-0.151829	-0.181442	0.286017	-0.329673	-0.814209	-0.297607	0.333740	0.095112	-0.014711	-0.018595	-0.564490	-0.398200	0.633301	-0.348880	176.321532	-83.136005	-112.416710
27054		9.515965	-0.685579	-1.677479	0.937076	0.146841	-0.172267	-0.197445	0.284297	-0.336968	-0.818604	-0.299805	0.331787	0.095124	-0.007033	-0.016903	-0.566367	-0.398213	0.632173	-0.347870	174.485432	-83.282622	-110.681465
27055		9.949708	0.207183	-1.715335	0.093830	0.549706	0.270506	-0.244264	0.312356	-0.368678	-0.816162	-0.302002	0.327393	0.099474	0.001867	-0.017311	-0.535400	-0.453258	0.592905	-0.395432	171.790104	-83.388284	-97.890510
27056		9.705740	-0.333853	-1.639139	0.643931	0.374456	0.007931	-0.293992	0.326739	-0.361039	-0.815674	-0.315186	0.321045	0.097024	-0.003538	-0.016545	-0.537744	-0.452894	0.591794	-0.394333	169.578549	-83.539294	-95.833934
27057		9.824656	0.025506	-1.516256	0.261849	0.399173	0.116835	-0.307600	0.327720	-0.372789	-0.820068	-0.319580	0.327637	0.098222	0.000048	-0.015324	-0.508432	-0.496983	0.554068	-0.433029	166.706015	-83.630552	-84.314335
27058		9.822063	-0.458675	-1.464578	0.778685	0.311787	0.093095	-0.318693	0.334078	-0.349422	-0.811035	-0.321777	0.323486	0.098188	-0.004782	-0.014802	-0.510901	-0.496416	0.553040	-0.432086	164.338041	-83.765620	-82.115576
27059		9.777682	-0.551031	-1.737796	0.871577	0.714136	0.069458	-0.323214	0.336794	-0.345083	-0.808350	-0.337158	0.325928	0.097738	-0.005707	-0.017533	-0.483768	-0.531678	0.517849	-0.463809	161.487873	-83.843287	-71.839592
27060		10.246653	-0.337603	-1.225497	0.709971	0.191183	0.486286	-0.359992	0.356924	-0.354959	-0.817139	-0.345947	0.317383	0.102438	-0.003580	-0.012431	-0.486467	-0.530897	0.516877	-0.462965	158.843686	-83.966474	-69.387708
27061		10.127032	-0.425837	-1.601589	0.778013	0.695783	0.395815	-0.378516	0.370793	-0.385214	-0.810059	-0.354736	0.317627	0.101232	-0.004484	-0.016195	-0.463386	-0.557864	0.485956	-0.487757	155.608627	-84.029494	-60.082580
27062		10.238652	0.316223	-1.716511	0.079384	0.768882	0.544850	-0.377688	0.365106	-0.439700	-0.807617	-0.359131	0.311035	0.102362	0.002905	-0.017358	-0.466393	-0.557165	0.484804	-0.486836	152.333518	-84.106775	-57.007310
27063		10.430433	-0.665165	-1.459216	1.085220	0.729165	0.658986	-0.466777	0.389716	-0.461930	-0.807373	-0.367920	0.311279	0.104260	-0.006927	-0.014779	-0.447522	-0.577716	0.458172	-0.506010	148.561796	-84.123380	-48.334345
27064		10.168547	-0.606761	-2.098000	0.946446	1.411798	0.447907	-0.455625	0.377116	-0.467033	-0.802734	-0.372314	0.304688	0.101631	-0.006353	-0.021157	-0.450878	-0.576809	0.457131	-0.505006	144.969586	-84.157349	-44.985601
27065		10.189214	-0.900077	-2.388258	1.107771	1.875987	0.462870	-0.482829	0.384931	-0.483323	-0.797852	-0.385742	0.296387	0.101824	-0.009305	-0.024056	-0.435296	-0.592718	0.434241	-0.520229	141.165411	-84.123121	-37.165933
27066		9.961578	-1.161387	-2.542047	1.357112	2.151416	0.215924	-0.490265	0.382457	-0.530892	-0.800049	-0.390137	0.294189	0.099536	-0.011941	-0.025582	-0.438954	-0.591804	0.433109	-0.519138	137.270097	-84.090278	-33.532228
27067		10.446429	-0.675628	-1.987015	1.033240	1.579482	0.673952	-0.554085	0.391328	-0.637566	-0.797363	-0.401123	0.285645	0.104403	-0.007145	-0.020055	-0.427732	-0.603580	0.414302	-0.530180	133.030367	-83.951026	-26.232231
27068		9.965481	-1.319018	-1.825592	1.715670	1.693093	0.115683	-0.649373	0.416603	-0.778663	-0.785889	-0.412109	0.274902	0.099564	-0.013638	-0.018420	-0.432609	-0.602691	0.412778	-0.528419	128.276457	-83.767919	-21.825029
27069		9.376264	-1.436283	-1.918943	1.740004	1.974532	-0.499676	-0.687760	0.437789	-0.965002	-0.787842	-0.423096	0.277344	0.093649	-0.014881	-0.019344	-0.426098	-0.611349	0.397092	-0.535734	123.348523	-83.434072	-14.677872
27070		9.509748	-1.957487	-1.186846	2.568879	1.510436	-0.496366	-0.709659	0.463533	-1.138722	-0.776123	-0.440674	0.266846	0.094956	-0.020158	-0.012018	-0.432224	-0.610842	0.394517	-0.533301	118.215384	-83.009166	-9.918040
27071		9.986095	-2.111291	-0.524483	3.046642	1.099835	-0.119324	-0.633717	0.492429	-1.343418	-0.766602	-0.456055	0.264893	0.099703	-0.021800	-0.005422	-0.428773	-0.618043	0.379837	-0.538424	113.462991	-82.421891	-3.386009
27072		10.157054	-1.988846	-0.221185	3.178256	0.856675	0.002238	-0.547352	0.476951	-1.524776	-0.761719	-0.471436	0.256592	0.101409	-0.020668	-0.002398	-0.435456	-0.618461	0.375565	-0.535570	109.052290	-81.706451	0.750681
27073		10.703352	-0.799113	0.320806	2.467573	0.104818	0.637218	-0.525726	0.459078	-1.683165	-0.745605	-0.486816	0.250244	0.106968	-0.008884	0.002985	-0.434680	-0.624518	0.362088	-0.538445	105.440875	-80.866782	5.727558
27074		10.931552	-0.576612	0.462705	2.504167	0.006613	0.853665	-0.522109	0.465767	-1.824850	-0.738281	-0.506592	0.244141	0.109267	-0.006752	0.004389	-0.442042	-0.625404	0.356768	-0.534962	102.140776	-79.914833	8.771186
27075		11.675199	-1.370364	0.399168	3.512769	0.479783	1.402179	-0.491504	0.450877	-1.963205	-0.715332	-0.528564	0.236084	0.116619	-0.014839	0.003764	-0.449489	-0.626573	0.351190	-0.531066	99.504992	-78.877095	11.155849
27076		12.814496	-1.398620	-0.223649	3.740786	1.248064	2.461675	-0.449078	0.480449	-2.085889	-0.710449	-0.541748	0.231934	0.127984	-0.015327	-0.002511	-0.457248	-0.627915	0.344749	-0.527063	97.099705	-77.734266	13.349341
27077		15.635265	-2.711502	-0.982998	5.505986	2.704742	4.854878	-0.358019	0.547926	-2.217943	-0.692139	-0.559326	0.225830	0.156011	-0.028864	-0.010207	-0.465093	-0.629266	0.337946	-0.522977	95.019962	-76.540820	15.232020
27078		17.131704	-3.895679	-2.396534	6.735592	4.727957	5.893274	-0.240883	0.596101	-2.384342	-0.673584	-0.581055	0.219727	0.170764	-0.041024	-0.024426	-0.473055	-0.631129	0.329664	-0.518860	93.143582	-75.202570	17.024578
27079		16.683131	-3.792000	-3.260278	6.558057	5.673283	5.291056	-0.202591	0.597112	-2.615289	-0.659668	-0.594238	0.218018	0.166218	-0.040130	-0.033060	-0.481448	-0.632995	0.321388	-0.514038	91.630746	-73.786961	18.391122
27080		17.631361	-4.355975	-4.264619	7.343532	7.118451	5.788637	-0.270495	0.567205	-2.895876	-0.643311	-0.618408	0.214111	0.175536	-0.046163	-0.043083	-0.490602	-0.635471	0.311520	-0.508371	90.324372	-72.133734	19.595349
27081		18.905575	-5.923532	-5.463911	9.138448	9.090566	6.192815	-0.447742	0.489466	-3.214645	-0.622803	-0.633545	0.205811	0.187936	-0.062385	-0.054963	-0.500919	-0.637564	0.302543	-0.501059	89.323827	-70.392396	20.259253
27082		20.198741	-6.738308	-5.855194	10.657468	10.102230	6.679381	-0.643346	0.383037	-3.513693	-0.597656	-0.657715	0.197754	0.200648	-0.071105	-0.058712	-0.512268	-0.640207	0.291949	-0.492426	88.475668	-68.375658	20.771609
27083		22.064088	-6.822034	-5.807670	12.000071	10.495026	7.875577	-0.900654	0.320010	-3.762358	-0.572266	-0.679688	0.191650	0.219209	-0.072615	-0.058108	-0.524787	-0.641861	0.283234	-0.482069	87.772141	-66.365127	20.801285
27084		21.324728	-7.526898	-5.374308	13.135794	10.394304	6.299947	-1.102121	0.325449	-3.888266	-0.542725	-0.699463	0.176758	0.211639	-0.079690	-0.053657	-0.538045	-0.643561	0.272504	-0.471252	86.959513	-64.131457	21.000770
27085		19.831642	-6.512952	-5.041240	12.377431	9.671068	4.827430	-1.178927	0.456379	-3.869793	-0.521973	-0.723389	0.170898	0.196888	-0.069246	-0.050463	-0.551476	-0.643664	0.264344	-0.460101	86.121761	-62.111527	20.940289
27086		19.142199	-5.444419	-5.048591	11.729517	9.487346	4.112323	-1.218493	0.642150	-3.786162	-0.496826	-0.738770	0.162354	0.190179	-0.058361	-0.050750	-0.564840	-0.643702	0.253142	-0.450025	85.062985	-59.920749	21.352517
27087		18.283269	-2.887452	-3.964032	10.023887	7.825818	4.207320	-1.007874	0.731815	-3.758329	-0.469482	-0.756348	0.140869	0.182098	-0.032503	-0.040150	-0.577373	-0.642956	0.244732	-0.439720	84.213526	-57.999647	21.365697
27088		17.473025	-0.816068	-3.807168	8.456796	7.317591	4.164582	-0.657378	0.750267	-3.665382	-0.448975	-0.773926	0.136963	0.174396	-0.011485	-0.038692	-0.588356	-0.643779	0.232188	-0.430667	83.525476	-55.866077	21.737316
27089		16.366024	0.491171	-3.667202	7.304936	6.838901	3.654834	-0.376776	0.651894	-3.495355	-0.426514	-0.778076	0.130615	0.163591	0.001982	-0.037211	-0.597764	-0.644355	0.223826	-0.421172	83.196087	-54.131090	21.534800
27090		14.324162	-0.955852	-3.029085	7.890445	6.234127	0.870411	-0.488511	0.539189	-3.138280	-0.403564	-0.795654	0.117676	0.142985	-0.011878	-0.030649	-0.606469	-0.645190	0.213108	-0.412929	82.799827	-52.309235	21.680204
27091		12.574418	-2.275412	-0.810739	8.780963	3.974262	-1.384157	-0.696124	0.579172	-2.702862	-0.392090	-0.806641	0.109131	0.125397	-0.024479	-0.008388	-0.614827	-0.643889	0.208428	-0.404911	82.326995	-51.053242	21.412776
27092		10.305404	-2.140366	-1.106060	7.451845	3.796906	-3.327811	-0.445641	0.504528	-2.413888	-0.376221	-0.813232	0.104980	0.102757	-0.022670	-0.011271	-0.621622	-0.643964	0.199997	-0.398620	81.954908	-49.644204	21.564574
27093		8.710078	-1.625105	-0.743245	6.324270	2.984510	-4.321628	0.257540	0.303818	-2.273956	-0.362793	-0.819580	0.111816	0.086897	-0.017230	-0.007586	-0.625617	-0.645544	0.195963	-0.391757	82.188929	-48.676150	21.050033
27094		6.396181	-0.020114	-2.081051	3.457975	3.529459	-5.249087	0.766288	0.024804	-2.122507	-0.351318	-0.830566	0.116699	0.063953	-0.000800	-0.020821	-0.627283	-0.649933	0.187527	-0.385924	82.789899	-47.469228	20.832638
27095		4.744556	-0.782443	-3.261659	2.733082	4.356087	-7.107871	1.187684	-0.217117	-1.797211	-0.335938	-0.821533	0.127441	0.047409	-0.008057	-0.032612	-0.626654	-0.654932	0.184952	-0.379687	83.816537	-46.814253	19.958682
27096		2.861988	-3.028071	-3.846649	2.974014	4.821491	-10.067964	1.575674	-0.457025	-1.162743	-0.335938	-0.825684	0.143066	0.028533	-0.030143	-0.038639	-0.623244	-0.661780	0.179581	-0.375986	85.062580	-46.177211	19.485696
27097		1.751265	-4.510794	-3.138642	3.487746	4.139605	-11.803680	1.658290	-0.599001	-0.476090	-0.333740	-0.825684	0.151855	0.017500	-0.044888	-0.031707	-0.617971	-0.667779	0.181597	-0.373103	86.500272	-46.281541	18.439354
27098		1.345119	-3.902400	-1.950577	3.082189	2.854292	-11.600333	1.383897	-0.539530	0.118091	-0.335938	-0.823242	0.160645	0.013527	-0.038880	-0.019739	-0.612619	-0.672937	0.181078	-0.372914	87.613558	-46.365673	17.996639
27099		1.472360	-2.441963	-0.703588	2.492391	1.429959	-10.420294	1.014612	-0.456724	0.656622	-0.354248	-0.812256	0.173584	0.014820	-0.024335	-0.007126	-0.607373	-0.675582	0.187642	-0.373466	88.589286	-47.100737	17.097784
27100		1.962698	-1.656905	-0.189638	2.393955	0.893644	-9.490537	0.645523	-0.414661	1.129985	-0.361084	-0.807861	0.171387	0.019724	-0.016452	-0.001909	-0.602675	-0.677242	0.191515	-0.376095	89.204920	-47.753356	16.764299
27101		2.108157	-1.387593	-0.151658	2.302228	0.809663	-9.151785	0.301568	-0.396861	1.587306	-0.383545	-0.803711	0.166748	0.021194	-0.013706	-0.001495	-0.598054	-0.676582	0.202245	-0.379032	89.766955	-49.007833	15.898824
27102		2.078776	-1.258807	-0.418538	2.107317	1.026250	-9.046598	-0.023049	-0.348827	2.021361	-0.390625	-0.792725	0.173096	0.020921	-0.012378	-0.004148	-0.593913	-0.675096	0.210166	-0.383854	89.986433	-50.167199	15.593493
27103		1.869114	-1.198515	-0.329562	1.948011	0.862697	-9.106015	-0.342155	-0.303371	2.471931	-0.415283	-0.781982	0.161621	0.018842	-0.011758	-0.003247	-0.589774	-0.671089	0.224763	-0.388957	90.163255	-51.921665	14.759543
27104		2.082988	-0.966205	-0.122103	1.932933	0.631819	-8.739605	-0.582357	-0.333040	2.865998	-0.440186	-0.771240	0.161133	0.020967	-0.009366	-0.001159	-0.585711	-0.666727	0.236477	-0.395595	90.086156	-53.564181	14.437455
27105		2.639826	-0.537622	0.389630	1.997675	0.087604	-7.965939	-0.737702	-0.361129	3.205377	-0.467285	-0.758301	0.156494	0.026473	-0.004938	0.003963	-0.581131	-0.660341	0.254213	-0.402011	90.137163	-55.729750	13.505806
27106		3.075817	-0.486868	0.582770	2.172949	-0.085225	-7.508939	-0.772998	-0.446265	3.483002	-0.499023	-0.741211	0.149170	0.030823	-0.004310	0.005914	-0.576015	-0.654459	0.268529	-0.409612	90.091159	-57.725755	13.031371
27107		3.764038	-0.395388	0.555560	2.339813	-0.063217	-6.787389	-0.658097	-0.605206	3.742661	-0.519775	-0.717285	0.137451	0.037688	-0.003230	0.005681	-0.569375	-0.647434	0.288200	-0.416631	90.514156	-60.188991	11.752201
27108		4.314427	-0.633185	0.470421	2.670469	0.061888	-6.334385	-0.508232	-0.757438	3.983926	-0.556152	-0.695557	0.143555	0.043241	-0.005459	0.004882	-0.561505	-0.641691	0.304258	-0.424702	91.075919	-62.466389	10.780440
27109		4.772146	-0.813112	0.438383	2.866106	0.061004	-5.887789	-0.346552	-0.913448	4.168082	-0.585693	-0.675781	0.142822	0.047856	-0.007127	0.004615	-0.552106	-0.634688	0.325204	-0.431964	92.342140	-65.151046	8.783992
27110		5.408951	-0.627566	0.170360	2.743274	0.243464	-5.112694	-0.117672	-1.059154	4.298120	-0.611328	-0.643066	0.144043	0.054198	-0.005111	0.001994	-0.541332	-0.629507	0.341949	-0.440172	93.971409	-67.577805	6.932625
27111		5.981028	-0.142587	0.032609	2.260499	0.177740	-4.276770	0.128439	-1.209107	4.425385	-0.632080	-0.616699	0.158936	0.059819	-0.000103	0.000687	-0.528859	-0.623051	0.363035	-0.447573	96.823776	-70.340745	3.583554
27112		6.681362	0.353331	-0.294516	1.727813	0.294785	-3.349614	0.312670	-1.365230	4.596482	-0.664307	-0.586182	0.162354	0.066727	0.005072	-0.002482	-0.514961	-0.618410	0.380166	-0.455914	100.522208	-72.828475	-0.124382
27113		7.230405	0.324833	-0.321151	1.584951	0.137936	-2.745479	0.370683	-1.470049	4.754715	-0.683594	-0.544434	0.170166	0.072220	0.004971	-0.002672	-0.499904	-0.611535	0.401796	-0.463337	106.502396	-75.560655	-6.488320
27114		8.032528	0.150375	-0.466676	1.591927	0.112151	-1.925919	0.475461	-1.486390	4.845232	-0.711182	-0.513916	0.182617	0.080289	0.003459	-0.004063	-0.484070	-0.606235	0.419101	-0.471709	114.263560	-77.872240	-14.180444
27115		8.754648	0.642577	-0.419601	0.847617	-0.289055	-1.071210	0.699749	-1.519636	4.934267	-0.732422	-0.474365	0.194824	0.087381	0.008596	-0.003504	-0.466842	-0.598822	0.439864	-0.479573	127.195924	-80.080861	-27.309657
27116		9.521072	1.159071	-0.132018	0.079655	-0.949936	-0.269055	0.899800	-1.624414	5.069124	-0.747314	-0.426025	0.208984	0.094882	0.014002	-0.000489	-0.448243	-0.593451	0.456522	-0.488346	144.596326	-81.449242	-44.411390
27117		10.908747	1.701871	0.472888	-0.758045	-2.070604	1.014498	1.105696	-1.642700	5.238681	-0.766602	-0.386230	0.225586	0.108548	0.019837	0.005726	-0.428131	-0.585458	0.476523	-0.496858	168.752681	-81.812852	-68.533790
27118		12.219567	2.783469	1.013263	-2.220573	-3.267366	2.122330	1.149148	-1.675030	5.324243	-0.783447	-0.342285	0.244385	0.121307	0.031009	0.011323	-0.407368	-0.579156	0.492652	-0.505889	-170.340353	-80.880000	-89.009487
27119		13.927283	4.390935	1.592098	-4.403762	-4.735922	3.374618	1.114124	-1.661730	5.397364	-0.793945	-0.296143	0.258545	0.137882	0.047549	0.017329	-0.386146	-0.569743	0.511902	-0.514044	-153.535195	-78.837792	-105.756496
27120		15.300500	5.659837	2.054033	-6.320096	-6.016949	4.120708	0.920106	-1.511217	5.436697	-0.808838	-0.250000	0.266357	0.151231	0.060627	0.021960	-0.365518	-0.561255	0.527739	-0.522381	-142.975409	-76.451789	-116.023066
27121		15.425136	7.248724	1.855332	-8.700950	-6.435354	3.481161	0.936585	-1.295449	5.344593	-0.814697	-0.201660	0.276123	0.152117	0.076481	0.019895	-0.345335	-0.549839	0.545098	-0.530368	-135.066438	-73.681684	-123.932242
27122		17.167711	9.829806	0.350099	-12.449895	-6.140245	4.282917	1.201779	-1.099947	5.010342	-0.818359	-0.157715	0.283936	0.169119	0.102529	0.005044	-0.325617	-0.540983	0.557401	-0.539087	-129.736805	-71.133135	-128.799090
27123		20.014944	12.818326	-1.043713	-16.927145	-6.294534	5.670778	1.272165	-0.801470	4.603280	-0.823975	-0.118164	0.291748	0.197166	0.132804	-0.008808	-0.307407	-0.530568	0.569396	-0.547527	-125.417414	-68.602870	-132.824764
27124		20.646938	13.881912	-0.738657	-18.648316	-7.160678	5.034122	0.879348	-0.308705	4.008173	-0.824951	-0.087402	0.286377	0.203642	0.142949	-0.006448	-0.293147	-0.521240	0.577982	-0.555257	-122.170208	-66.593768	-135.791126
27125		19.110087	15.565828	-0.056595	-20.128524	-7.730567	2.125493	0.513710	-0.038686	3.257585	-0.825684	-0.063232	0.290283	0.188532	0.158744	-0.000124	-0.282484	-0.511995	0.585810	-0.561151	-119.771658	-64.901111	-138.181744
27126		17.419236	18.472696	-1.127049	-22.837767	-6.692400	-0.893287	0.192240	-0.022147	2.467703	-0.822021	-0.043457	0.291992	0.171897	0.186868	-0.011072	-0.274970	-0.505059	0.591581	-0.565101	-118.260563	-63.656823	-139.736324
27127		15.482535	20.903917	-2.239138	-24.827014	-5.436768	-3.834330	-0.081564	-0.123184	1.725541	-0.826904	-0.028076	0.296143	0.153028	0.210356	-0.022382	-0.269660	-0.500828	0.596009	-0.566770	-117.613726	-62.766403	-140.460507
27128		14.125700	20.487850	-3.051832	-24.258427	-4.154473	-5.030949	-0.276013	-0.295150	1.044146	-0.827148	-0.019287	0.300293	0.140230	0.205570	-0.030594	-0.266496	-0.498170	0.599801	-0.566608	-117.528208	-62.156218	-140.734969
27129		14.992131	19.507809	-2.827765	-23.637105	-4.543658	-3.985429	-0.449889	-0.358751	0.293193	-0.820313	-0.021240	0.302490	0.149686	0.195234	-0.028448	-0.265238	-0.499815	0.600864	-0.564620	-118.205665	-62.025373	-140.062925
27130		14.399820	16.927922	-5.994799	-21.858207	-1.016883	-2.669276	-0.696783	-0.825135	-0.616961	-0.820068	-0.032227	0.311768	0.144766	0.168625	-0.059940	-0.266225	-0.503062	0.602378	-0.559637	-119.707641	-62.104208	-138.814417
27131		13.200589	14.999730	-3.228023	-18.887655	-3.155945	-3.258631	-1.077546	-0.988145	-1.350357	-0.815186	-0.042969	0.318604	0.133174	0.148926	-0.032428	-0.269093	-0.511799	0.600875	-0.551905	-122.386014	-62.661870	-136.171170
27132		16.608434	-17.833724	-4.759367	9.764345	1.489702	12.968037	-1.319630	0.026287	-0.895258	-0.828369	-0.052002	0.314209	0.165277	-0.179387	-0.046434	-0.274999	-0.512622	0.602178	-0.546787	-123.662988	-63.098603	-135.585631
27133		12.827012	-39.198671	6.164580	33.418138	-4.926098	14.641823	-1.149827	1.040387	-0.147411	-0.825928	-0.056396	0.312256	0.128308	-0.391721	0.063231	-0.280873	-0.512074	0.600972	-0.545641	-123.832420	-63.690167	-135.805349
27134		24.189794	-17.065863	7.298315	9.847008	-12.094334	16.386376	0.276493	1.247947	-1.649393	-0.825684	-0.067627	0.297119	0.240927	-0.172748	0.071240	-0.288388	-0.513984	0.594216	-0.547322	-123.526441	-64.871576	-135.968805
27135		20.227013	5.716099	0.956499	-10.945387	-7.587482	6.475870	1.043287	0.663518	-2.885431	-0.827148	-0.091553	0.299805	0.203097	0.054186	0.009180	-0.295375	-0.523982	0.581277	-0.548009	-124.471757	-66.589621	-134.079367
27136		18.666703	9.266100	-4.325566	-14.587475	-2.700816	5.448313	2.128157	0.157611	-3.169006	-0.822021	-0.111328	0.300293	0.188075	0.090143	-0.042435	-0.298875	-0.535806	0.566812	-0.549828	-125.573216	-68.127213	-131.564637
27137		13.970046	2.259734	-3.717941	-6.273108	-0.807646	3.381055	1.497404	-0.094802	-3.114337	-0.819092	-0.133301	0.301025	0.140050	0.020696	-0.036953	-0.302880	-0.549359	0.552128	-0.549203	-127.929424	-69.697715	-127.857670
27138		5.080444	0.694577	0.470305	-1.541396	-1.964514	-5.309630	0.778833	0.104734	-2.789803	-0.816650	-0.146240	0.312256	0.050897	0.006218	0.004702	-0.308647	-0.557893	0.542117	-0.547358	-130.170793	-70.975794	-125.003555
27139		3.823733	10.537564	-3.074033	-11.467351	-0.648957	-8.028990	1.672115	-0.086310	-2.344255	-0.813721	-0.163818	0.317139	0.039484	0.105170	-0.029844	-0.309873	-0.569330	0.528641	-0.548070	-132.435517	-72.117617	-121.334735
27140		12.046083	6.786433	-5.774354	-9.920005	0.529264	1.403983	0.580933	0.054584	-2.252259	-0.813477	-0.177002	0.315430	0.121200	0.066670	-0.057582	-0.314504	-0.575994	0.520524	-0.546235	-134.871592	-73.071781	-118.432804
27141		10.116640	1.067820	-2.937204	-3.172407	-0.105434	0.288584	-0.244303	0.333345	-1.713346	-0.814941	-0.194580	0.313477	0.101204	0.009775	-0.029553	-0.320353	-0.581856	0.512835	-0.543891	-137.663751	-74.051545	-115.348034
27142		11.475199	3.075780	-1.789713	-4.724379	-1.964938	1.057440	-0.616129	0.314917	-1.530140	-0.812500	-0.205566	0.309326	0.114954	0.029823	-0.018171	-0.327093	-0.583916	0.509543	-0.540757	-139.953945	-74.763470	-113.336627
27143		12.153277	3.377395	-0.637244	-4.518528	-3.211982	1.535363	-0.718929	0.305931	-1.354135	-0.807373	-0.223145	0.314209	0.121748	0.032926	-0.006678	-0.333238	-0.588072	0.504032	-0.537657	-143.086122	-75.532108	-110.194528
27144		9.193228	0.430217	-1.793377	-1.682820	-0.574497	-0.606508	-0.416206	0.154320	-1.137634	-0.809326	-0.234131	0.307861	0.091941	0.003742	-0.018013	-0.337893	-0.589820	0.501546	-0.535156	-145.200366	-75.984373	-108.259040
27145		10.093823	-0.905458	-2.865936	-0.645738	0.628509	0.680438	-0.120316	0.069033	-1.053078	-0.809326	-0.234131	0.312256	0.100879	-0.009603	-0.028689	-0.340881	-0.594745	0.495586	-0.533360	-148.198913	-76.482412	-104.913530
27146		10.826564	1.156614	-2.194134	-2.356685	-0.695252	1.019126	-0.207130	0.109454	-0.927092	-0.811035	-0.251709	0.312744	0.108306	0.011041	-0.022012	-0.344228	-0.596391	0.493196	-0.531585	-150.101085	-76.807482	-103.080226
27147		11.400601	0.870636	-0.730372	-1.527072	-2.071128	1.351667	-0.503761	0.083048	-0.834227	-0.808350	-0.264893	0.310791	0.114038	0.008212	-0.007372	-0.347809	-0.599937	0.488895	-0.529232	-153.155705	-77.186127	-99.920512
27148		10.135250	-0.648023	-0.965659	-0.010524	-1.119202	0.327448	-0.496947	-0.010513	-0.822510	-0.808350	-0.269043	0.315430	0.101325	-0.006921	-0.009634	-0.351438	-0.601105	0.487761	-0.526549	-155.330907	-77.384392	-97.982282
27149		10.133411	1.190591	-1.888823	-1.901575	-0.741925	0.361004	-0.643037	-0.067263	-0.807052	-0.803467	-0.282227	0.313477	0.101387	0.011436	-0.018891	-0.355044	-0.604558	0.484188	-0.523466	-158.774068	-77.619665	-94.523245
27150		10.120049	0.995503	-2.086894	-1.689472	-0.478162	0.418543	-0.746655	-0.097851	-0.620562	-0.805420	-0.288818	0.313721	0.101241	0.009563	-0.020856	-0.358675	-0.604984	0.484440	-0.520254	-160.812224	-77.688822	-92.874539
27151		9.938735	0.020402	-2.728301	-0.818558	0.450251	0.451292	-0.868367	-0.070627	-0.503420	-0.802979	-0.295654	0.307373	0.099397	-0.000165	-0.027248	-0.362189	-0.607195	0.482379	-0.517149	-163.753031	-77.808243	-90.072174
27152		10.165022	1.234982	-2.235943	-1.782693	-0.373244	0.508875	-0.871532	-0.044649	-0.419862	-0.804932	-0.304199	0.312012	0.101681	0.012039	-0.022390	-0.365801	-0.606739	0.483439	-0.514145	-165.356064	-77.846674	-88.942878
27153		9.948469	0.793848	-2.159166	-1.242325	-0.260924	0.319073	-0.861056	-0.026406	-0.319612	-0.809326	-0.308594	0.316406	0.099500	0.007686	-0.021612	-0.368943	-0.608297	0.481873	-0.511521	-167.822106	-77.926761	-86.631645
27154		9.896992	0.541557	-2.429616	-1.027525	0.086548	0.340307	-0.793707	-0.005505	-0.251822	-0.804443	-0.319824	0.307861	0.098977	0.005194	-0.024314	-0.371977	-0.607450	0.483149	-0.509122	-168.938330	-77.951812	-85.955029
27155		10.409624	-0.050322	-2.808100	-0.469730	0.512605	0.946714	-0.703483	0.075157	-0.147520	-0.802246	-0.321777	0.310059	0.104085	-0.000679	-0.028118	-0.374465	-0.608526	0.481573	-0.507504	-170.814775	-78.048254	-84.164389
27156		10.364739	-0.101501	-2.937312	-0.432639	0.687144	0.930050	-0.492182	0.373372	-0.078614	-0.804443	-0.322021	0.303467	0.103592	-0.001128	-0.029564	-0.377051	-0.606845	0.481886	-0.507304	-171.146036	-78.265717	-84.113841
27157		9.697918	-0.821180	-1.827614	0.572589	0.009674	0.073464	-0.336316	0.475423	-0.037319	-0.808594	-0.326416	0.303711	0.096934	-0.008261	-0.018493	-0.379103	-0.607220	0.479072	-0.507991	-172.366031	-78.567767	-82.791771
27158		9.039617	-0.867683	-3.016562	0.297618	1.321187	-0.339941	-0.251469	0.471548	-0.015436	-0.810791	-0.333008	0.299316	0.090324	-0.008722	-0.030368	-0.381026	-0.605582	0.478773	-0.508788	-172.371473	-78.835874	-82.932942
27159		9.554282	0.293329	-2.647576	-0.692465	0.628762	0.061775	-0.167012	0.435252	0.000074	-0.810547	-0.335205	0.299316	0.095485	0.002911	-0.026686	-0.382348	-0.606180	0.475845	-0.509830	-173.420621	-79.104960	-81.698765
27160		9.209902	-0.110695	-2.357250	-0.246032	0.562106	-0.325088	-0.108179	0.436558	0.025152	-0.817383	-0.330811	0.297119	0.092047	-0.001108	-0.023773	-0.383643	-0.604801	0.475366	-0.510942	-173.251929	-79.350895	-81.933376
27161		9.327668	0.206565	-2.394183	-0.540634	0.541288	-0.210879	0.001283	0.465388	0.032732	-0.814941	-0.339844	0.290771	0.093220	0.002081	-0.024159	-0.384437	-0.605465	0.472171	-0.512518	-174.112555	-79.629231	-80.806739
27162		9.057169	-0.120107	-2.561693	-0.290860	0.873761	-0.444614	-0.039457	0.451186	0.058838	-0.814941	-0.337646	0.286133	0.090514	-0.001180	-0.025821	-0.385463	-0.604095	0.471586	-0.513901	-173.796219	-79.881937	-81.150979
27163		9.308338	0.068625	-2.418213	-0.416716	0.688733	-0.228875	-0.067133	0.428498	0.091321	-0.808350	-0.339844	0.283936	0.093031	0.000721	-0.024382	-0.386173	-0.604539	0.468876	-0.515324	-174.532350	-80.130580	-80.193294
27164		9.379731	0.149657	-1.984579	-0.397909	0.279838	-0.236492	-0.099426	0.404953	0.118462	-0.819092	-0.346436	0.277588	0.093756	0.001542	-0.020036	-0.387111	-0.603026	0.468711	-0.516541	-174.059809	-80.353901	-80.730386
27165		9.575239	-0.195229	-1.515839	0.075261	-0.067169	-0.116771	-0.125737	0.387133	0.111999	-0.819336	-0.339844	0.281738	0.095724	-0.001908	-0.015342	-0.387824	-0.603347	0.466383	-0.517738	-174.764375	-80.574558	-79.846532
27166		9.654721	-0.866127	-1.391611	0.740638	0.010508	-0.047871	-0.074506	0.339101	0.076785	-0.819092	-0.346436	0.279785	0.096527	-0.008629	-0.014077	-0.388634	-0.602147	0.466153	-0.518733	-174.426595	-80.763045	-80.231923
27167		9.479874	-0.897924	-1.242947	0.821567	-0.056877	-0.244986	-0.034439	0.314073	0.050509	-0.821289	-0.346436	0.279785	0.094781	-0.008957	-0.012577	-0.389117	-0.602815	0.463728	-0.519768	-175.287302	-80.944524	-79.161715
27168		9.309706	-1.414365	-1.397744	1.262834	0.280475	-0.381289	-0.024164	0.279261	0.017533	-0.825684	-0.353271	0.273193	0.093079	-0.014137	-0.014106	-0.389785	-0.602003	0.463303	-0.520586	-175.150935	-81.102346	-79.313615
27169		9.599080	-0.988642	-1.502421	0.854320	0.256241	-0.087388	0.037544	0.240990	-0.046579	-0.821289	-0.351074	0.266602	0.095970	-0.009906	-0.015142	-0.390115	-0.603132	0.460639	-0.521396	-176.320767	-81.244044	-77.897422
27170		9.309618	-1.396034	-1.899427	1.129787	0.811804	-0.310570	0.047061	0.240349	-0.103325	-0.816650	-0.353271	0.268799	0.093066	-0.014004	-0.019109	-0.390790	-0.602837	0.459739	-0.522025	-176.622788	-81.384361	-77.564451
27171		9.447961	-0.464123	-1.990104	0.241701	0.656638	-0.171618	0.082494	0.232896	-0.191474	-0.822998	-0.362061	0.266846	0.094452	-0.004723	-0.020013	-0.391362	-0.604272	0.456688	-0.522615	-178.303561	-81.518874	-75.623747
27172		9.497469	-0.790623	-1.608691	0.675632	0.405207	-0.179717	0.021185	0.235155	-0.272569	-0.822998	-0.364258	0.271240	0.094945	-0.008034	-0.016199	-0.392541	-0.604323	0.455352	-0.522837	-179.326006	-81.656058	-74.577749
27173		9.791946	-0.618845	-1.333436	0.644205	0.092369	0.067573	-0.012494	0.228838	-0.350038	-0.811523	-0.373047	0.264893	0.097893	-0.006361	-0.013446	-0.393802	-0.605852	0.452182	-0.522872	178.276399	-81.771948	-71.979856
27174		9.420925	-1.113420	-1.390145	1.115501	0.367580	-0.297100	-0.006313	0.229965	-0.412075	-0.811523	-0.379639	0.260742	0.094170	-0.011329	-0.014009	-0.395412	-0.606171	0.450499	-0.522740	176.590791	-81.892283	-70.280473
27175		9.691368	-1.002056	-1.447189	1.061401	0.396800	-0.028167	0.028151	0.232280	-0.483474	-0.809082	-0.386230	0.260986	0.096872	-0.010253	-0.014586	-0.396917	-0.607949	0.446922	-0.522604	173.629459	-81.978524	-67.104415
27176		9.756004	-1.570907	-2.121277	1.461528	1.229770	0.111952	0.072914	0.252222	-0.569423	-0.806641	-0.390625	0.258789	0.097488	-0.015979	-0.021342	-0.398740	-0.608707	0.444501	-0.522399	171.228351	-82.078109	-64.637549
27177		10.526252	-1.039073	-2.353842	1.001262	1.254994	0.903852	0.099594	0.268686	-0.672645	-0.804199	-0.399414	0.256836	0.105195	-0.010733	-0.023685	-0.400605	-0.610822	0.440215	-0.522133	167.485536	-82.123277	-60.647340
27178		10.736893	-0.954963	-2.511673	0.951538	1.408352	1.124030	0.038018	0.310307	-0.764185	-0.794678	-0.412598	0.246094	0.107292	-0.009955	-0.025285	-0.403159	-0.611768	0.437160	-0.521626	164.112504	-82.187586	-57.220327
27179		10.485546	-0.893144	-2.447884	0.981024	1.424042	0.852461	-0.045611	0.334457	-0.866572	-0.785645	-0.418945	0.252930	0.104774	-0.009391	-0.024652	-0.406092	-0.613735	0.432623	-0.520823	159.463322	-82.164513	-52.410160
27180		10.089830	-1.639816	-2.275150	1.790287	1.587381	0.382609	-0.126759	0.369308	-0.967550	-0.782959	-0.432373	0.242188	0.100775	-0.016900	-0.022927	-0.409789	-0.614603	0.429231	-0.519708	155.089021	-82.144918	-48.067739
27181		10.200848	-1.967763	-2.486970	2.155508	1.951792	0.466291	-0.157288	0.410861	-1.090645	-0.778076	-0.449951	0.238281	0.101848	-0.020253	-0.025063	-0.413782	-0.616493	0.424240	-0.518403	149.642935	-82.000427	-42.528220
27182		10.346564	-2.292421	-1.949724	2.736441	1.603631	0.485202	-0.246455	0.482508	-1.228675	-0.773193	-0.456543	0.236328	0.103275	-0.023583	-0.019718	-0.418736	-0.617328	0.420087	-0.516811	144.282517	-81.847697	-37.256671
27183		10.922999	-2.251896	-1.557570	3.009804	1.269027	0.964007	-0.211160	0.514543	-1.430282	-0.752686	-0.474121	0.225586	0.109025	-0.023316	-0.015832	-0.423950	-0.619372	0.414089	-0.514951	138.148197	-81.493450	-31.062207
27184		11.035985	-2.336050	-1.205081	3.348941	1.056243	0.974708	-0.245549	0.565910	-1.673213	-0.747803	-0.489502	0.223877	0.110125	-0.024298	-0.012333	-0.430169	-0.620838	0.408326	-0.512625	132.095455	-81.045739	-25.080886
27185		10.762935	-2.597994	-1.360561	3.690436	1.424380	0.617511	-0.271766	0.604042	-1.922729	-0.736084	-0.507080	0.215576	0.107331	-0.027031	-0.013894	-0.436966	-0.623283	0.400869	-0.509787	125.876292	-80.338226	-18.837466
27186		11.046023	-2.925929	-1.274840	4.256567	1.550294	0.754885	-0.306202	0.607113	-2.149148	-0.715332	-0.528809	0.205078	0.110098	-0.030463	-0.013037	-0.444583	-0.625338	0.393603	-0.506335	120.284164	-79.495054	-13.335950
27187		12.762705	-2.771674	-1.177961	4.677457	1.490409	2.346595	-0.240594	0.600495	-2.326728	-0.703613	-0.544189	0.203369	0.127257	-0.029213	-0.012128	-0.452206	-0.628348	0.384905	-0.502530	115.347746	-78.418593	-8.367723
27188		14.180666	-3.349474	-1.450981	5.694262	2.048784	3.520795	-0.248400	0.598483	-2.484275	-0.680664	-0.568359	0.199463	0.141332	-0.035271	-0.014890	-0.460339	-0.631016	0.376343	-0.498271	111.141510	-77.245130	-4.210580
27189		15.347835	-2.833054	-1.717830	5.717537	2.330038	4.623322	-0.203859	0.606287	-2.672814	-0.671143	-0.583740	0.188965	0.153028	-0.030395	-0.017612	-0.468591	-0.634369	0.366558	-0.493593	107.549399	-75.876414	-0.582281
27190		16.519387	-3.168065	-1.744300	6.671579	2.669514	5.494574	-0.181286	0.630147	-2.883919	-0.650391	-0.603271	0.185059	0.164658	-0.034074	-0.017932	-0.477383	-0.637608	0.356345	-0.488446	104.426358	-74.386767	2.541296
27191		18.709684	-3.050849	-2.251306	7.448228	3.398459	7.431777	-0.249353	0.612195	-3.134508	-0.625244	-0.623047	0.181152	0.186518	-0.033463	-0.023044	-0.486731	-0.641221	0.345300	-0.482386	101.797222	-72.701573	5.162837
27192		19.789094	-5.927591	-3.209232	10.625597	5.445010	7.346827	-0.444842	0.595264	-3.370057	-0.606934	-0.640381	0.181641	0.196758	-0.062670	-0.032542	-0.497237	-0.644429	0.334072	-0.475250	99.444467	-70.866252	7.371203
27193		21.450462	-7.177788	-4.117668	12.602293	7.010783	8.091714	-0.563687	0.580285	-3.654803	-0.574951	-0.668945	0.173584	0.213024	-0.075797	-0.041586	-0.508493	-0.647661	0.322370	-0.466956	97.452046	-68.860314	9.144464
27194		22.315229	-8.346523	-4.754014	14.407974	8.281616	7.906784	-0.728050	0.569336	-3.927799	-0.552002	-0.688477	0.169922	0.221318	-0.087998	-0.047857	-0.520831	-0.650683	0.309842	-0.457542	95.617685	-66.661444	10.675370
27195		21.852712	-9.387728	-4.851362	15.762221	8.855207	6.381624	-0.910934	0.576627	-4.104905	-0.520020	-0.710449	0.157227	0.216396	-0.098555	-0.048698	-0.533812	-0.653035	0.297805	-0.447104	94.020315	-64.408084	11.806918
27196		20.532703	-9.199187	-4.572752	15.728103	8.663211	4.491819	-1.068164	0.729904	-4.188556	-0.492676	-0.732422	0.140137	0.203170	-0.096507	-0.045964	-0.547618	-0.654635	0.284502	-0.436607	92.319370	-62.034996	13.026442
27197		20.370502	-7.476408	-4.774016	14.696141	8.645145	4.429879	-1.179725	1.093128	-4.128631	-0.471924	-0.747803	0.131836	0.201837	-0.079228	-0.048388	-0.561738	-0.654402	0.271948	-0.426910	90.500659	-59.799295	14.235283
27198		20.553943	-6.096352	-4.757715	14.176953	8.670767	4.540677	-1.350969	1.436430	-4.038261	-0.446777	-0.767578	0.108154	0.203902	-0.065418	-0.048614	-0.576585	-0.652871	0.257520	-0.418321	88.413400	-57.477857	15.772869
27199		19.105367	-5.575653	-4.421955	13.561066	8.311525	2.939106	-1.336294	1.601476	-3.870309	-0.421875	-0.780762	0.095215	0.189563	-0.059735	-0.045351	-0.590765	-0.650096	0.245003	-0.410299	86.498597	-55.380760	17.013471
27200		16.177880	-3.800782	-4.501499	10.915310	7.888950	0.911637	-0.928868	1.582806	-3.732807	-0.396973	-0.796143	0.086914	0.160667	-0.041226	-0.046103	-0.603249	-0.648541	0.230052	-0.403189	84.932013	-53.180417	18.287367
27201		14.882611	-2.326569	-4.255946	9.390185	7.378241	0.305385	-0.237516	1.357072	-3.528212	-0.380859	-0.806885	0.080566	0.148091	-0.025934	-0.043536	-0.612356	-0.648639	0.217387	-0.396271	84.124362	-51.288978	18.970799
27202		11.968202	-2.454931	-5.221909	7.763928	7.935532	-2.514323	-0.099637	0.991221	-3.250044	-0.354004	-0.813477	0.078613	0.119001	-0.026513	-0.052797	-0.620104	-0.649812	0.203984	-0.389367	83.626967	-49.377237	19.542925
27203		8.951301	-2.495847	-6.034953	5.904073	8.133053	-5.147341	0.014849	0.408833	-2.693594	-0.335938	-0.820068	0.074463	0.089043	-0.026155	-0.060534	-0.625366	-0.651432	0.196601	-0.381972	83.648986	-48.034846	19.353740
27204		7.202913	-0.857681	-2.911820	4.487382	4.542492	-5.304547	-0.497339	0.293055	-1.964611	-0.331055	-0.831055	0.068115	0.071897	-0.009356	-0.029201	-0.630989	-0.651218	0.190231	-0.376272	83.322456	-46.897887	19.410389
27205		5.341597	2.328963	-1.974627	1.300877	2.819612	-4.501151	-0.637963	0.292784	-1.607427	-0.328857	-0.833252	0.056885	0.053571	0.022796	-0.019898	-0.635975	-0.649930	0.188040	-0.371170	82.991847	-46.190625	19.201928
27206		5.073563	1.594086	-2.950534	1.497550	3.823641	-5.326689	-0.555053	-0.135842	-1.450003	-0.319824	-0.837646	0.059326	0.050869	0.015490	-0.029514	-0.640319	-0.649764	0.184792	-0.365582	82.859417	-45.376294	18.943247
27207		4.873551	-4.787405	-2.698925	5.999266	4.237183	-9.911731	0.194152	0.020853	-0.774812	-0.317627	-0.831055	0.059082	0.048547	-0.048036	-0.027041	-0.640694	-0.650908	0.184550	-0.363004	83.115979	-45.157267	18.598334
27208		1.718499	-8.270331	-2.284980	6.435043	3.548693	-14.563404	0.856443	-0.316408	0.199950	-0.322021	-0.835449	0.065918	0.017304	-0.082587	-0.023176	-0.637240	-0.654037	0.184666	-0.363399	83.776116	-45.292396	18.359951
27209		1.056231	-7.842394	-2.454213	5.672124	3.587468	-14.670443	1.251174	-0.648255	0.688121	-0.333496	-0.824219	0.076660	0.010912	-0.078231	-0.024997	-0.630827	-0.658354	0.189512	-0.364297	84.940892	-45.953186	17.588140
27210		1.287247	-3.749909	-1.631190	3.117239	2.372121	-11.554800	1.541926	-0.808159	0.973802	-0.344727	-0.824219	0.089844	0.013121	-0.037309	-0.016547	-0.623175	-0.663738	0.192457	-0.366149	86.263126	-46.545674	16.981055
27211		2.101659	0.980830	-1.988846	0.181626	2.173133	-7.672923	1.573631	-1.061721	1.343364	-0.362793	-0.815430	0.102783	0.021054	0.010105	-0.019698	-0.613939	-0.669004	0.200167	-0.368029	87.898793	-47.578823	15.834957
27212		2.562793	2.806206	-2.275692	-0.945997	2.172660	-6.070322	1.215418	-1.008287	1.804321	-0.383057	-0.811035	0.115967	0.025486	0.028429	-0.022456	-0.605495	-0.672740	0.207055	-0.371383	89.211242	-48.627589	15.007697
27213		2.318387	2.114164	-2.576072	-0.733602	2.475217	-6.679763	0.860443	-0.930951	2.334408	-0.401611	-0.793457	0.122070	0.023053	0.021521	-0.025561	-0.596698	-0.674347	0.218787	-0.375952	90.467317	-50.187505	13.878894
27214		2.196300	0.356495	-2.141178	0.550539	2.327327	-7.859380	0.612148	-0.855383	2.810401	-0.426270	-0.782471	0.130615	0.022001	0.003939	-0.021306	-0.588343	-0.674634	0.229648	-0.382078	91.457978	-51.790068	13.055781
27215		2.486681	-0.420571	-1.333432	1.468195	1.699115	-8.053360	0.375670	-0.857657	3.206017	-0.451416	-0.769531	0.138916	0.024987	-0.003781	-0.013235	-0.579285	-0.673321	0.244776	-0.388782	92.578010	-53.817565	11.807924
27216		3.313456	0.247950	-0.753000	1.496909	1.051574	-6.938723	0.198260	-0.913632	3.549168	-0.476318	-0.751953	0.140625	0.033117	0.003075	-0.007376	-0.570496	-0.671218	0.258953	-0.396162	93.590332	-55.820849	10.708872
27217		4.045562	0.677305	-0.286233	1.549112	0.504565	-6.037673	-0.035609	-0.909392	3.844669	-0.510254	-0.734619	0.137939	0.040328	0.007549	-0.002680	-0.561093	-0.667447	0.276920	-0.403739	94.824000	-58.179522	9.102219
27218		4.435719	0.698916	-0.043276	1.646464	0.221726	-5.640991	-0.239764	-0.870868	4.075870	-0.538086	-0.704102	0.134766	0.044204	0.007891	-0.000249	-0.552330	-0.662747	0.293398	-0.411845	95.894071	-60.458989	7.698858
27219		4.857974	0.582565	0.272948	1.837085	-0.131510	-5.272008	-0.363336	-0.860645	4.292388	-0.572021	-0.682373	0.136475	0.048427	0.006871	0.002926	-0.542700	-0.656579	0.313066	-0.419964	97.376042	-63.034708	5.660115
27220		5.297083	0.549212	0.473446	1.907577	-0.390769	-4.833904	-0.429331	-0.873647	4.499553	-0.599854	-0.654053	0.133301	0.052808	0.006692	0.004952	-0.533142	-0.650035	0.331036	-0.428520	98.920280	-65.516972	3.673738
27221		5.729705	0.782378	0.698299	1.674827	-0.767828	-4.287456	-0.392939	-0.939665	4.671862	-0.632080	-0.616943	0.141113	0.057060	0.009173	0.007234	-0.522106	-0.642495	0.351752	-0.436894	101.362929	-68.234295	0.650746
27222		6.193509	0.922336	1.195758	1.548453	-1.396349	-3.789034	-0.313972	-1.046829	4.821880	-0.659912	-0.584229	0.138184	0.061625	0.010731	0.012265	-0.510572	-0.635288	0.370562	-0.445431	104.402004	-70.795662	-2.784236
27223		6.727652	0.771698	1.359510	1.569694	-1.684649	-3.301692	-0.198968	-1.140391	4.935793	-0.692139	-0.549316	0.141602	0.066980	0.009386	0.013969	-0.497360	-0.627261	0.391645	-0.453641	109.227175	-73.471894	-8.099453
27224		7.644706	1.315079	1.373602	0.977314	-1.996380	-2.255996	0.076324	-1.270307	5.000264	-0.713379	-0.514160	0.149414	0.075997	0.015049	0.014225	-0.483117	-0.620335	0.410191	-0.462088	115.725665	-75.845509	-14.790396
27225		8.424760	1.786053	1.389693	0.295696	-2.352042	-1.418581	0.290717	-1.383772	5.085394	-0.736816	-0.474609	0.163818	0.083659	0.019972	0.014505	-0.466920	-0.612753	0.430541	-0.470270	126.029835	-78.062837	-25.324407
27226		8.623687	2.142910	1.175042	-0.467888	-2.430117	-1.198917	0.553773	-1.485025	5.205201	-0.758301	-0.435303	0.173828	0.085550	0.023628	0.012451	-0.449605	-0.606108	0.448502	-0.478888	139.886981	-79.677230	-39.119542
27227		9.315624	2.283415	1.041332	-1.006381	-2.643445	-0.590141	0.798218	-1.598202	5.264104	-0.775146	-0.393311	0.188232	0.092425	0.025230	0.011251	-0.430320	-0.598761	0.467847	-0.487266	159.010485	-80.456693	-58.193384
27228		10.305012	3.141864	0.819534	-2.278067	-2.992293	0.314627	1.165383	-1.713334	5.283427	-0.787842	-0.342773	0.202393	0.102097	0.034072	0.009266	-0.409768	-0.592845	0.484331	-0.496033	178.212745	-80.086165	-76.992929
27229		11.691197	4.959711	0.508245	-4.625493	-3.602300	1.462296	1.518837	-1.846395	5.277776	-0.800293	-0.301025	0.223389	0.115494	0.052612	0.006545	-0.387070	-0.586526	0.501471	-0.504669	-164.739685	-78.582781	-93.570961
27230		14.158030	6.778509	0.397746	-7.042380	-4.741116	3.393900	1.853068	-1.886432	5.248663	-0.804443	-0.245850	0.241943	0.139688	0.071419	0.005952	-0.363483	-0.581460	0.515630	-0.513721	-152.753957	-76.473768	-104.754767
27231		15.319160	8.357530	-0.025994	-9.405367	-5.399302	3.855754	2.294291	-1.839665	5.148481	-0.810303	-0.199707	0.260498	0.150961	0.087466	0.002124	-0.338277	-0.575897	0.529216	-0.523298	-143.682423	-73.899283	-112.879105
27232		16.597950	10.323947	-0.056846	-12.038683	-6.644511	4.076133	2.803846	-1.561274	4.856735	-0.814209	-0.148926	0.270264	0.163398	0.107211	0.002199	-0.313210	-0.571631	0.538289	-0.534212	-137.035129	-71.430725	-118.157447
27233		19.302008	13.705286	0.720250	-16.028167	-9.429130	4.849965	2.698755	-1.058040	4.429630	-0.817627	-0.104980	0.282471	0.189875	0.141159	0.010099	-0.290378	-0.565812	0.546239	-0.545124	-131.604957	-69.084305	-122.359957
27234		20.858770	17.547814	1.359099	-20.213538	-11.839732	4.186958	1.850567	-0.410134	3.885044	-0.814209	-0.076416	0.283936	0.205098	0.179346	0.015662	-0.273351	-0.558874	0.552663	-0.554530	-127.462132	-67.215220	-125.679938
27235		18.844349	18.626502	2.315104	-20.868080	-12.552942	0.878553	0.932861	0.122509	3.217673	-0.814941	-0.050049	0.276611	0.185430	0.189154	0.023915	-0.261913	-0.550442	0.559369	-0.561713	-124.274308	-65.698576	-128.614441
27236		17.190942	18.822086	1.301470	-21.244418	-11.176256	-1.139413	0.421188	0.211477	2.505103	-0.820068	-0.030518	0.276123	0.169548	0.190327	0.013234	-0.254273	-0.543349	0.564766	-0.566707	-122.119015	-64.561658	-130.723448
27237		15.759029	20.240334	-0.725915	-22.981223	-9.162965	-2.998652	0.221572	0.133828	1.775825	-0.816162	-0.014893	0.280273	0.155780	0.203800	-0.007139	-0.248918	-0.538241	0.568829	-0.569885	-120.776629	-63.721873	-132.074697
27238		13.939452	20.632500	-0.653883	-22.864408	-8.708971	-5.143340	0.219401	-0.021974	1.039650	-0.811768	-0.008301	0.282227	0.138320	0.207053	-0.006297	-0.245283	-0.535613	0.571030	-0.571735	-120.069126	-63.199836	-132.724565
27239		14.525570	19.096557	-8.889752	-24.417401	-1.125449	-2.248328	0.200869	-0.813316	-0.091884	-0.809814	-0.006104	0.291016	0.145703	0.190987	-0.088114	-0.242671	-0.538944	0.570806	-0.569939	-120.867804	-63.045480	-131.659800
27240		12.445705	24.328894	-8.964243	-28.440305	-1.826251	-5.947024	0.267245	-1.686069	-0.928069	-0.804932	-0.016846	0.306885	0.126333	0.242824	-0.088258	-0.239756	-0.546696	0.569571	-0.565004	-122.877799	-62.984941	-129.232035
27241		24.612810	-2.300409	-11.963813	-8.895293	2.624380	16.036561	-1.145500	-0.895625	-0.997254	-0.809082	-0.025635	0.307129	0.246539	-0.024913	-0.118396	-0.243118	-0.551747	0.570298	-0.557879	-125.169877	-63.241897	-127.317001
27242		20.295262	-40.242998	12.797984	34.902045	-9.916629	19.829147	-2.492618	2.021777	0.327665	-0.813477	-0.025879	0.289307	0.204923	-0.400476	0.130914	-0.254797	-0.542073	0.575631	-0.556673	-124.476335	-63.747388	-129.687439
27243		22.891593	-21.277805	3.449756	14.141633	-6.325129	17.548861	-0.471288	1.368126	-1.695026	-0.815186	-0.041260	0.281006	0.227333	-0.214630	0.033443	-0.264764	-0.543204	0.569958	-0.556756	-124.651040	-65.049534	-129.736222
27244		16.857993	4.195851	-3.374526	-9.190103	-3.161642	4.976020	0.632698	0.643146	-3.246835	-0.812256	-0.069824	0.286133	0.169123	0.039323	-0.034161	-0.273863	-0.551427	0.558455	-0.555928	-126.023511	-66.778500	-127.835567
27245		14.909801	8.107795	-2.653962	-11.679886	-4.080373	2.103314	1.335018	-0.083957	-3.100133	-0.811523	-0.087402	0.286621	0.150344	0.078928	-0.025945	-0.278635	-0.562616	0.545640	-0.555070	-128.027170	-68.225625	-124.789156
27246		13.619376	6.932757	-1.339054	-9.540668	-4.634528	1.269844	0.479975	0.107840	-3.070973	-0.808594	-0.113525	0.287109	0.137230	0.067258	-0.013301	-0.286053	-0.571297	0.535461	-0.552336	-130.518948	-69.625371	-121.823924
27247		12.126365	6.109286	0.071190	-7.710164	-5.208101	0.076306	-0.075671	0.581621	-2.971234	-0.808105	-0.131348	0.283203	0.122155	0.059283	0.000335	-0.296144	-0.578162	0.525500	-0.549434	-133.219158	-71.185993	-118.940195
27248		5.580581	5.096951	-1.904400	-6.192002	-1.229948	-5.241865	0.976652	0.177510	-2.416810	-0.807373	-0.153076	0.288086	0.056400	0.050383	-0.018847	-0.300387	-0.585422	0.515532	-0.548886	-135.366014	-72.246583	-116.089618
27249		8.129788	2.032417	-5.218454	-4.652406	1.992272	-1.336795	0.644025	0.194959	-2.101105	-0.806885	-0.168457	0.290771	0.081456	0.019637	-0.052200	-0.304919	-0.591987	0.506384	-0.547861	-137.796133	-73.228812	-113.087623
27250		8.876494	3.406376	-3.247553	-5.225905	-0.371470	-1.239952	-0.164088	0.401424	-1.673103	-0.806396	-0.183838	0.284424	0.088980	0.033293	-0.032682	-0.310978	-0.594853	0.501259	-0.546060	-139.829962	-74.031417	-111.065540
27251		11.740950	2.792003	0.977406	-3.345112	-4.717170	0.824801	-0.221675	0.331919	-1.508868	-0.805908	-0.197021	0.284912	0.117632	0.027044	0.009549	-0.316724	-0.598168	0.495890	-0.544035	-142.241314	-74.789675	-108.618206
27252		12.293182	2.732241	-1.689234	-4.092942	-2.305637	1.992839	-0.139099	0.295674	-1.299010	-0.808105	-0.203613	0.282715	0.123081	0.026511	-0.017093	-0.321386	-0.600353	0.491913	-0.542503	-144.176112	-75.369344	-106.698046
27253		9.842370	-0.111448	-1.413752	-1.014304	-1.016972	0.026991	0.156555	0.144126	-1.146477	-0.805420	-0.212402	0.289795	0.098405	-0.001668	-0.014210	-0.324557	-0.603816	0.486802	-0.541381	-146.364718	-75.877935	-104.269586
27254		9.467656	0.124139	-2.031366	-1.333434	-0.395200	-0.229183	0.357708	0.059738	-0.968083	-0.809814	-0.216797	0.294189	0.094675	0.000819	-0.020340	-0.326225	-0.606585	0.482817	-0.540851	-147.958702	-76.205744	-102.415572
27255		10.981481	1.589713	-1.262198	-2.422300	-1.891933	0.923496	0.113453	0.019012	-0.818307	-0.807129	-0.232178	0.294678	0.109877	0.015455	-0.012624	-0.328322	-0.609450	0.479005	-0.539749	-149.912451	-76.516366	-100.264610
27256		11.442762	0.385691	-0.478369	-0.961932	-2.297852	1.372498	-0.255008	0.005601	-0.733782	-0.807129	-0.232178	0.296875	0.114441	0.003431	-0.004791	-0.331078	-0.610772	0.477452	-0.537944	-151.592338	-76.722881	-98.687694
27257		10.180684	-0.380561	-1.696058	-0.518377	-0.613178	0.484039	-0.346107	-0.036089	-0.685565	-0.811279	-0.245361	0.297119	0.101796	-0.004184	-0.016935	-0.334101	-0.612659	0.475357	-0.535781	-153.734473	-76.940583	-96.620394
27258		9.366948	1.460827	-1.889626	-2.226130	-0.827671	-0.442346	-0.492948	-0.010785	-0.655035	-0.813232	-0.249756	0.290527	0.093718	0.014255	-0.018927	-0.337325	-0.613419	0.474694	-0.533475	-155.497015	-77.094244	-95.101132
27259		9.844808	0.913357	-1.244583	-1.424387	-1.321583	-0.038862	-0.699269	-0.014159	-0.547745	-0.808350	-0.264893	0.295410	0.098473	0.008820	-0.012470	-0.341113	-0.614278	0.473923	-0.530756	-157.608282	-77.261238	-93.278328
27260		10.685082	-0.215026	-1.962090	-0.545813	-0.467033	1.029390	-0.811903	-0.035384	-0.444646	-0.810303	-0.273682	0.300049	0.106849	-0.002467	-0.019592	-0.344687	-0.614037	0.474775	-0.527957	-159.154933	-77.334656	-92.169404
27261		10.684172	0.637574	-2.456502	-1.432646	-0.253685	1.071948	-0.905439	-0.069965	-0.371065	-0.810303	-0.275879	0.297852	0.106862	0.006066	-0.024556	-0.348510	-0.614210	0.475187	-0.524866	-161.066544	-77.414161	-90.676884
27262		10.118710	1.172975	-2.853638	-2.007653	0.092408	0.573261	-1.105061	-0.082954	-0.263484	-0.810059	-0.282471	0.298096	0.101214	0.011439	-0.028558	-0.352381	-0.613121	0.477422	-0.521516	-162.405852	-77.414796	-89.953025
27263		10.202896	0.333911	-2.258520	-0.961385	-0.212159	0.596062	-1.110980	-0.101707	-0.174346	-0.812256	-0.286865	0.295898	0.102043	0.003125	-0.022551	-0.356232	-0.612499	0.479017	-0.518156	-163.991650	-77.427969	-88.917175
27264		10.043554	-0.370066	-1.670824	-0.080657	-0.527128	0.361649	-0.840179	-0.169912	-0.102447	-0.814209	-0.293457	0.300537	0.100448	-0.003822	-0.016607	-0.358649	-0.611686	0.481186	-0.515433	-164.839862	-77.348474	-88.540970
27265		10.514155	0.596032	-2.959873	-1.325607	0.300558	1.041616	-0.735658	-0.174901	-0.037204	-0.812012	-0.293457	0.298340	0.105168	0.005832	-0.029528	-0.360818	-0.611538	0.482371	-0.512982	-165.898710	-77.294090	-87.827979
27266		9.409467	-0.209981	-2.555073	-0.425796	0.376466	-0.076800	-0.657205	-0.130438	0.047363	-0.809570	-0.297852	0.296143	0.094112	-0.002161	-0.025482	-0.362379	-0.610572	0.484441	-0.511078	-166.235668	-77.213566	-87.868269
27267		8.896786	-1.021007	-2.873063	0.289217	0.998541	-0.465549	-0.478541	-0.143795	0.107886	-0.813721	-0.308838	0.301025	0.088994	-0.010231	-0.028642	-0.363457	-0.610430	0.485373	-0.509595	-166.750863	-77.153439	-87.563770
27268		9.512022	-0.800338	-3.006850	0.052011	0.913688	0.153391	-0.355147	-0.107832	0.125179	-0.818115	-0.306641	0.302979	0.095141	-0.007997	-0.030003	-0.363950	-0.609757	0.486862	-0.508628	-166.708661	-77.075416	-87.815510
27269		9.197951	-0.321278	-2.511413	-0.266673	0.389050	-0.284296	-0.287323	-0.047538	0.123192	-0.815918	-0.311035	0.305420	0.091987	-0.003192	-0.025088	-0.364627	-0.609651	0.487222	-0.507924	-167.001080	-77.064339	-87.630393
27270		9.390645	-0.265894	-2.422513	-0.297664	0.243689	-0.118591	-0.269464	-0.002949	0.104992	-0.820313	-0.311035	0.309814	0.093908	-0.002642	-0.024220	-0.365164	-0.608914	0.488238	-0.507446	-166.899829	-77.047706	-87.892416
27271		9.121067	-0.306454	-2.405535	-0.245211	0.304158	-0.382855	-0.242635	0.043749	0.079452	-0.815918	-0.308838	0.301025	0.091207	-0.003058	-0.024072	-0.366035	-0.608739	0.488220	-0.507046	-167.208183	-77.091799	-87.667834
27272		9.290468	-0.847198	-2.060058	0.364739	0.083026	-0.266251	-0.229255	0.083230	0.086189	-0.820313	-0.313232	0.303223	0.092900	-0.008456	-0.020630	-0.366707	-0.607901	0.488918	-0.506894	-167.080666	-77.125919	-87.933122
27273		9.105886	-0.984636	-2.231923	0.460327	0.331302	-0.402773	-0.225455	0.087366	0.087993	-0.822266	-0.317627	0.303467	0.091053	-0.009831	-0.022348	-0.367602	-0.607601	0.488835	-0.506686	-167.320046	-77.192163	-87.771471
27274		8.951225	-0.924593	-1.879296	0.485138	0.021888	-0.632535	-0.194411	0.073844	0.118209	-0.820068	-0.317627	0.305664	0.089511	-0.009211	-0.018817	-0.368064	-0.606770	0.489557	-0.506649	-167.097406	-77.217060	-88.113738
27275		9.046098	-0.412205	-1.902704	-0.011589	-0.097018	-0.559984	-0.171741	0.069293	0.128404	-0.822266	-0.322021	0.305664	0.090457	-0.004080	-0.019055	-0.368646	-0.606483	0.489534	-0.506592	-167.199163	-77.267000	-88.065263
27276		9.653857	0.158708	-1.781597	-0.540196	-0.482007	-0.021259	-0.187696	0.105405	0.151591	-0.822021	-0.326416	0.303467	0.096528	0.001643	-0.017868	-0.369079	-0.605502	0.490281	-0.506728	-166.869738	-77.305014	-88.512953
27277		9.996210	0.027992	-1.930384	-0.451743	-0.362176	0.351763	-0.203664	0.308562	0.157444	-0.824463	-0.324219	0.303467	0.099932	0.000339	-0.019458	-0.370268	-0.604454	0.490010	-0.507372	-166.764614	-77.484340	-88.697318
27278		9.691479	-0.569762	-2.052231	0.073151	-0.005730	0.109789	-0.148181	0.363233	0.197601	-0.824463	-0.320068	0.294434	0.096883	-0.005617	-0.020694	-0.371094	-0.602777	0.490316	-0.508468	-166.127251	-77.658793	-89.436663
27279		9.839259	-0.840860	-2.474992	0.219531	0.463943	0.354913	-0.202304	0.362069	0.207196	-0.828857	-0.324463	0.292480	0.098356	-0.008332	-0.024920	-0.372276	-0.601448	0.490115	-0.509370	-165.828131	-77.859685	-89.820335
27280		10.231070	-0.884657	-1.440842	0.495783	-0.558883	0.530194	-0.254511	0.333797	0.177990	-0.828613	-0.331055	0.292480	0.102294	-0.008774	-0.014568	-0.373396	-0.599691	0.490682	-0.510076	-165.287252	-78.018137	-90.522295
27281		10.078249	-1.783879	-1.360666	1.382136	-0.357991	0.413076	-0.302405	0.278036	0.132707	-0.835205	-0.329102	0.283691	0.100775	-0.017793	-0.013720	-0.374855	-0.598541	0.490697	-0.510342	-165.258911	-78.181530	-90.689551
27282		10.361440	-0.980795	-1.332732	0.600273	-0.612275	0.644957	-0.331554	0.249986	0.021281	-0.830811	-0.333252	0.283691	0.103599	-0.009819	-0.013441	-0.376396	-0.597232	0.491143	-0.510312	-165.215696	-78.315619	-90.927488
27283		9.644961	-1.725609	-1.408367	1.321057	-0.194450	-0.004351	-0.320331	0.219320	-0.070940	-0.832764	-0.335693	0.279541	0.096428	-0.017313	-0.014162	-0.378281	-0.596657	0.490737	-0.509982	-165.764878	-78.475984	-90.518640
27284		9.484909	-2.533020	-2.230097	1.925806	0.826607	0.034186	-0.262734	0.209512	-0.221157	-0.828125	-0.344482	0.277344	0.094798	-0.025464	-0.022367	-0.380134	-0.596171	0.490356	-0.509539	-166.378955	-78.621710	-90.045455
27285		9.267099	-3.220393	-3.061363	2.437396	1.850361	-0.001618	-0.205895	0.233330	-0.370074	-0.830078	-0.353271	0.270996	0.092575	-0.032407	-0.030688	-0.382462	-0.596465	0.488780	-0.508965	-167.697665	-78.825148	-88.788997
27286		9.205439	-3.492511	-3.542316	2.631962	2.416188	0.021956	-0.182258	0.297323	-0.533354	-0.825439	-0.359863	0.273438	0.091908	-0.035203	-0.035528	-0.385080	-0.596665	0.487088	-0.508380	-169.157648	-79.052092	-87.407564
27287		9.459455	-2.665797	-3.469776	1.911882	2.159692	0.202647	-0.195674	0.372923	-0.714321	-0.818115	-0.375244	0.262695	0.094434	-0.027029	-0.034848	-0.388557	-0.597412	0.484241	-0.507576	-171.498550	-79.349866	-85.109773
27288		9.624424	-2.401244	-2.785590	1.888829	1.470216	0.208534	-0.256957	0.411589	-0.907489	-0.813477	-0.381836	0.260742	0.096076	-0.024485	-0.028022	-0.392611	-0.598062	0.481381	-0.506410	-174.270387	-79.647120	-82.440263
27289		9.800043	-2.310692	-2.862552	1.889107	1.559277	0.364392	-0.306646	0.425935	-1.093737	-0.813232	-0.395020	0.252197	0.097811	-0.023686	-0.028798	-0.397463	-0.599311	0.477599	-0.504727	-178.127663	-79.942220	-78.673167
27290		9.977402	-2.129991	-2.348387	1.947758	1.062113	0.418480	-0.316396	0.402853	-1.267358	-0.801514	-0.410400	0.257080	0.099589	-0.021969	-0.023650	-0.402555	-0.600682	0.473793	-0.502644	177.544160	-80.168293	-74.462873
27291		10.050003	-2.513016	-2.483410	2.428818	1.341833	0.472418	-0.298486	0.413108	-1.387393	-0.794434	-0.421387	0.248535	0.100271	-0.025864	-0.025003	-0.408036	-0.602588	0.469132	-0.500310	172.355684	-80.335049	-69.348192
27292		10.365745	-1.928170	-2.155728	2.089422	0.922274	0.703726	-0.297412	0.456742	-1.494769	-0.782715	-0.443359	0.240234	0.103460	-0.020088	-0.021764	-0.413722	-0.604331	0.464430	-0.497919	166.935090	-80.437537	-64.023129
27293		10.344418	-1.647246	-2.427369	1.912475	1.211749	0.698443	-0.268914	0.473861	-1.603490	-0.780029	-0.454346	0.238281	0.103250	-0.017334	-0.024496	-0.419725	-0.606536	0.458901	-0.495333	160.838281	-80.435450	-57.975710
27294		11.040175	-1.615877	-2.015236	2.197681	0.804087	1.281354	-0.261416	0.530169	-1.736344	-0.766113	-0.469727	0.227783	0.110202	-0.017143	-0.020423	-0.426010	-0.608638	0.453156	-0.492672	154.574955	-80.337980	-51.775068
27295		11.514063	-1.659290	-1.137695	2.668616	0.017255	1.566900	-0.215232	0.589869	-1.872422	-0.759033	-0.485107	0.223633	0.114944	-0.017682	-0.011698	-0.432690	-0.611147	0.446391	-0.489911	147.844071	-80.101618	-45.051580
27296		11.834424	-1.855667	-1.254927	3.076753	0.260110	1.829147	-0.190380	0.653987	-2.034329	-0.744873	-0.507080	0.215576	0.118105	-0.019771	-0.012917	-0.439683	-0.613643	0.439206	-0.487051	141.177287	-79.728596	-38.391039
27297		12.770236	-2.619496	-1.658241	4.094713	0.877357	2.643073	-0.061667	0.837063	-2.209305	-0.733398	-0.522461	0.211426	0.127332	-0.027608	-0.017107	-0.447149	-0.616442	0.430432	-0.484547	134.218624	-79.211296	-31.334278
27298		13.742866	-2.924706	-1.765823	4.778075	1.150188	3.467914	0.036123	0.963566	-2.393238	-0.717285	-0.537842	0.200928	0.136978	-0.030885	-0.018324	-0.454866	-0.619292	0.420783	-0.482199	127.555265	-78.534252	-24.522386
27299		14.677952	-3.382922	-2.596975	5.502124	2.221175	4.273073	0.027034	1.088862	-2.569519	-0.696533	-0.559570	0.197021	0.146185	-0.035706	-0.026771	-0.463296	-0.622188	0.410033	-0.479700	121.104431	-77.650312	-17.903371
27300		15.385971	-3.337335	-2.706430	5.903316	2.538143	4.811941	0.003639	1.174864	-2.811106	-0.680176	-0.583740	0.186768	0.153208	-0.035529	-0.027966	-0.472375	-0.625074	0.398516	-0.476791	115.200117	-76.545941	-11.844368
27301		16.599354	-4.083897	-3.352220	7.121610	3.586764	5.674235	0.005135	1.179838	-3.074076	-0.659424	-0.599121	0.180420	0.165138	-0.043381	-0.034499	-0.482017	-0.628380	0.385925	-0.473138	110.007119	-75.164797	-6.479860
27302		18.359975	-6.108539	-3.959431	9.774783	4.935637	6.623029	-0.133811	1.108639	-3.347420	-0.638672	-0.621094	0.172363	0.182320	-0.064171	-0.040565	-0.492414	-0.631801	0.372999	-0.468217	105.677845	-73.532407	-2.063924
27303		20.783268	-7.601251	-5.075474	12.127718	6.702912	8.170946	-0.239826	0.995989	-3.669676	-0.615967	-0.640625	0.166260	0.206135	-0.079867	-0.051690	-0.503527	-0.635624	0.359436	-0.461788	102.164946	-71.625908	1.474705
27304		22.301713	-7.783906	-5.391333	13.330912	7.423773	9.005289	-0.418299	0.825629	-3.949550	-0.585938	-0.669189	0.162598	0.221196	-0.082333	-0.054660	-0.515350	-0.639637	0.345704	-0.453617	99.411752	-69.490965	4.139860
27305		21.284135	-8.774550	-5.253602	14.570017	7.800483	7.051246	-0.671701	0.685196	-4.097883	-0.560547	-0.695313	0.152344	0.210801	-0.092256	-0.052956	-0.527789	-0.643257	0.332443	-0.444006	97.216103	-67.240804	6.082471
27306		20.433921	-7.689556	-4.960651	13.978173	7.501765	5.984152	-0.923225	0.716984	-4.121128	-0.531250	-0.710693	0.141602	0.202515	-0.081311	-0.049966	-0.540972	-0.645936	0.319276	-0.433796	95.192978	-64.937691	7.716667
27307		20.406827	-5.891447	-4.887820	13.009826	7.310918	6.070060	-1.155062	1.004719	-3.998859	-0.503662	-0.730469	0.124512	0.202585	-0.063260	-0.049541	-0.554713	-0.646790	0.306429	-0.424333	93.061624	-62.731311	9.342438
27308		20.090388	-4.116171	-5.381170	11.826263	7.735539	5.990937	-1.363816	1.268668	-3.936501	-0.480957	-0.745850	0.109619	0.199692	-0.045472	-0.054781	-0.569281	-0.646198	0.293008	-0.415323	90.797213	-60.501627	11.027823
27309		18.303502	-3.832804	-4.839076	11.366760	7.296376	3.994170	-1.290278	1.390139	-3.817993	-0.460205	-0.763428	0.094727	0.181914	-0.042125	-0.049394	-0.583083	-0.644996	0.279842	-0.407041	88.761540	-58.366752	12.518404
27310		16.554432	-2.825036	-3.874771	10.272507	6.278203	2.518750	-0.956363	1.345300	-3.640905	-0.437500	-0.778809	0.086182	0.164726	-0.031443	-0.039712	-0.595337	-0.644440	0.266077	-0.399341	87.131538	-56.254616	13.804008
27311		14.967786	-2.597445	-4.360830	9.494110	6.736484	0.876211	-0.674636	1.123935	-3.376826	-0.414795	-0.791992	0.073242	0.148961	-0.028642	-0.044353	-0.605400	-0.644491	0.253801	-0.392055	86.021481	-54.356037	14.667368
27312		11.772347	-3.520850	-5.588045	8.448980	7.753799	-2.693008	-0.108463	0.793255	-3.124741	-0.392334	-0.798340	0.073486	0.116931	-0.037070	-0.056326	-0.612797	-0.646494	0.241518	-0.384960	85.527663	-52.537490	15.204924
27313		9.068079	-3.164444	-4.738401	6.902179	6.518655	-4.857112	0.099856	0.389842	-2.629242	-0.378662	-0.809326	0.071777	0.090162	-0.032808	-0.047576	-0.617650	-0.649108	0.232358	-0.378387	85.493730	-51.101608	15.306975
27314		7.199949	0.737498	-2.944215	3.250263	4.001488	-3.941287	-0.164811	0.390275	-2.099620	-0.369629	-0.813721	0.067383	0.072014	0.006595	-0.029588	-0.622570	-0.650267	0.224645	-0.372953	85.248395	-49.884997	15.502831
27315		6.577976	2.284358	-1.972308	2.007449	2.786138	-3.442132	-0.365992	-0.009505	-1.927171	-0.353760	-0.822510	0.061035	0.065997	0.022172	-0.019761	-0.626974	-0.651252	0.219870	-0.366649	85.198169	-48.874265	15.284186
27316		7.378638	3.320091	-1.624117	1.949846	2.486825	-2.189245	-0.285908	-0.279088	-1.822923	-0.340088	-0.824707	0.056641	0.074107	0.032503	-0.016185	-0.630908	-0.652847	0.215333	-0.359692	85.312369	-47.847184	14.912503
27317		6.963209	-0.910871	-3.056805	4.607990	4.289659	-5.450970	-0.024490	-0.099951	-1.305091	-0.337891	-0.826660	0.065674	0.069586	-0.009567	-0.030532	-0.632860	-0.654338	0.212213	-0.355381	85.474487	-47.195921	14.670981
27318		3.084260	-5.574892	-2.718977	5.534550	3.817640	-11.479750	0.694120	0.083327	-0.399931	-0.339844	-0.833252	0.068115	0.030720	-0.055716	-0.027396	-0.631377	-0.656810	0.209416	-0.355118	85.841223	-46.964454	14.713600
27319		0.302976	-6.513159	-2.352117	4.435746	3.140427	-14.114640	1.139883	-0.307496	0.269646	-0.340332	-0.820068	0.076660	0.003154	-0.064992	-0.023887	-0.626438	-0.660661	0.210062	-0.356337	86.724657	-47.224285	14.399482
27320		0.119785	-5.227914	-1.639369	3.525021	2.319779	-13.309150	1.229794	-0.535223	0.759620	-0.364746	-0.822266	0.085449	0.001441	-0.052172	-0.016711	-0.620436	-0.664654	0.212060	-0.358226	87.741718	-47.674482	13.975723
27321		0.593753	-2.990143	-1.015618	2.349444	1.526041	-11.386227	1.236648	-0.626259	1.149536	-0.365234	-0.811035	0.096191	0.006141	-0.029803	-0.010322	-0.613173	-0.668356	0.216432	-0.361216	88.884551	-48.439980	13.393406
27322		1.454394	-0.761762	-0.876467	1.299947	1.194572	-9.223823	1.167780	-0.712461	1.494837	-0.387451	-0.811035	0.107178	0.014631	-0.007457	-0.008757	-0.605762	-0.671576	0.221501	-0.364659	90.013450	-49.301046	12.783351
27323		1.894656	0.314395	-1.132021	0.705191	1.310561	-8.152877	0.968978	-0.703991	1.879296	-0.399170	-0.795654	0.113281	0.018955	0.003377	-0.011238	-0.597845	-0.673647	0.228981	-0.369253	91.122226	-50.469235	12.062025
27324		1.833416	0.490807	-1.559785	0.405168	1.662958	-8.050479	0.724924	-0.646904	2.320501	-0.430664	-0.784912	0.117432	0.018325	0.005177	-0.015520	-0.590325	-0.674303	0.237384	-0.374808	92.044845	-51.788768	11.410919
27325		1.994102	0.031701	-1.695250	0.781533	1.875494	-8.162631	0.500097	-0.620996	2.778198	-0.451172	-0.773926	0.121338	0.019986	0.000637	-0.016889	-0.582205	-0.673536	0.248421	-0.381672	92.958194	-53.456404	10.624444
27326		2.212568	-0.149083	-1.411656	1.069770	1.634204	-8.053445	0.314270	-0.613601	3.151920	-0.471680	-0.758789	0.125488	0.022188	-0.001119	-0.014051	-0.574286	-0.671624	0.260201	-0.389118	93.777803	-55.239333	9.837869
27327		2.676929	-0.005907	-1.033721	1.240170	1.248235	-7.546044	0.185272	-0.620475	3.470718	-0.503418	-0.741455	0.129395	0.026797	0.000415	-0.010254	-0.565568	-0.668689	0.274014	-0.397372	94.718500	-57.286481	8.836764
27328		3.309089	0.330913	-0.761689	1.277628	0.922985	-6.787102	0.152345	-0.650621	3.733938	-0.530762	-0.721680	0.130859	0.033046	0.003932	-0.007507	-0.556639	-0.665181	0.287996	-0.405889	95.726266	-59.383916	7.755861
27329		3.885969	0.437635	-0.604625	1.392526	0.727100	-6.181165	0.166859	-0.706407	3.976969	-0.560547	-0.693359	0.134521	0.038783	0.005153	-0.005905	-0.546416	-0.661141	0.303541	-0.414951	97.084708	-61.690875	6.308021
27330		4.215157	0.459570	-0.588624	1.389715	0.656458	-5.817663	0.223233	-0.770821	4.199987	-0.590332	-0.667236	0.138184	0.042065	0.005486	-0.005718	-0.535661	-0.656829	0.319008	-0.424118	98.714386	-64.014763	4.621088
27331		4.517585	0.370290	-0.375730	1.476926	0.395834	-5.529533	0.210534	-0.887094	4.387154	-0.611328	-0.638672	0.141846	0.045096	0.004697	-0.003553	-0.523642	-0.652006	0.335995	-0.433352	100.983798	-66.488363	2.255564
27332		4.878391	0.271790	-0.172304	1.568455	0.133603	-5.184514	0.225194	-1.001613	4.569031	-0.650146	-0.610352	0.149902	0.048713	0.003833	-0.001475	-0.511173	-0.646916	0.352943	-0.442306	103.858217	-68.923003	-0.710474
27333		5.180296	-0.066530	0.281452	1.870358	-0.342487	-4.985852	0.240645	-1.080642	4.725000	-0.671143	-0.579590	0.162354	0.051783	0.000555	0.003095	-0.497399	-0.641256	0.371050	-0.451338	107.885381	-71.435751	-4.844294
27334		5.701610	-0.124644	0.559896	1.921519	-0.732296	-4.464572	0.371842	-1.146206	4.815981	-0.692627	-0.535889	0.165527	0.056991	0.000115	0.005925	-0.483049	-0.635639	0.388398	-0.460188	113.161192	-73.792710	-10.147544
27335		6.635893	0.891650	1.042886	1.045467	-1.631568	-3.320147	0.595790	-1.256927	4.962262	-0.724854	-0.502930	0.175537	0.066044	0.010526	0.010874	-0.466641	-0.629948	0.406373	-0.469333	120.976802	-76.065283	-17.887791
27336		7.616362	1.228303	1.207020	0.654722	-2.118082	-2.326319	0.647951	-1.389434	5.153891	-0.748779	-0.454834	0.187500	0.075728	0.014198	0.012641	-0.449503	-0.624024	0.424190	-0.478125	131.752697	-77.979391	-28.561655
27337		8.621069	1.904553	1.186689	-0.216802	-2.580461	-1.290201	0.790687	-1.541536	5.320070	-0.767822	-0.415283	0.195313	0.085569	0.021279	0.012609	-0.430385	-0.617740	0.442823	-0.486902	147.104793	-79.335215	-43.756782
27338		9.633513	2.244675	0.923136	-0.915039	-2.792911	-0.324206	0.990457	-1.632970	5.443647	-0.780518	-0.364502	0.216064	0.095597	0.025007	0.010134	-0.410267	-0.611541	0.460564	-0.495560	165.256472	-79.742907	-61.632761
27339		10.815291	2.775315	0.518510	-1.940864	-3.025179	0.769734	1.257958	-1.703472	5.538188	-0.793213	-0.320557	0.232666	0.107280	0.030695	0.006288	-0.388124	-0.605066	0.478240	-0.504521	-176.113401	-79.042891	-79.851931
27340		12.654901	3.723419	-0.117833	-3.531301	-3.352785	2.445387	1.527129	-1.758534	5.629144	-0.810303	-0.272217	0.251465	0.125437	0.040777	0.000230	-0.364907	-0.598728	0.494616	-0.513539	-160.991339	-77.400433	-94.400047
27341		15.087252	5.001031	-1.238083	-5.788734	-3.583849	4.600397	1.787479	-1.728813	5.578474	-0.816650	-0.212891	0.263184	0.149495	0.054293	-0.010612	-0.340343	-0.592080	0.510143	-0.522840	-149.521429	-75.099489	-105.152949
27342		16.501864	6.541504	-2.273658	-8.388771	-3.854098	5.515402	2.014359	-1.662847	5.442668	-0.822266	-0.170898	0.279785	0.163331	0.070091	-0.020683	-0.315743	-0.585705	0.523595	-0.532076	-141.370581	-72.539021	-112.434916
27343		18.259389	8.396134	-3.058729	-11.354737	-4.650417	6.391727	2.277259	-1.595485	5.151602	-0.826416	-0.115967	0.293945	0.180576	0.088960	-0.028147	-0.290660	-0.579552	0.535315	-0.541363	-135.257425	-69.831935	-117.513808
27344		21.401677	11.590406	-3.794771	-15.827975	-6.356298	7.955265	2.145101	-1.267657	4.711041	-0.821045	-0.073975	0.301758	0.211431	0.121293	-0.035320	-0.268182	-0.573288	0.544821	-0.550082	-130.688908	-67.358624	-121.098968
27345		22.410202	15.085214	-3.626630	-19.905240	-8.235709	6.883584	1.175541	-0.649613	4.237084	-0.824463	-0.036865	0.300781	0.220951	0.155762	-0.034639	-0.251009	-0.564782	0.554750	-0.557018	-127.153029	-65.186846	-124.224274
27346		19.877244	15.545818	-3.002254	-20.084915	-8.213221	3.410804	-0.040770	-0.150874	3.626350	-0.822998	-0.012451	0.302246	0.195933	0.159022	-0.029906	-0.240548	-0.555002	0.565210	-0.560935	-124.783990	-63.451876	-126.878018
27347		17.109794	16.291082	-2.262110	-20.173016	-8.001703	-0.208295	-0.714161	-0.046176	2.925314	-0.821289	0.011475	0.299561	0.168697	0.165308	-0.023169	-0.233978	-0.545879	0.575465	-0.562237	-123.404515	-62.020925	-128.889369
27348		16.095254	17.665586	-2.637882	-21.510755	-7.426916	-2.054255	-0.958743	-0.139135	2.223869	-0.819580	0.024658	0.299072	0.158995	0.178302	-0.027120	-0.229908	-0.538711	0.584359	-0.561656	-122.797417	-60.907772	-130.205149
27349		14.624995	17.234026	-2.550985	-20.818555	-6.680880	-3.539497	-0.952915	-0.201316	1.525310	-0.817627	0.035889	0.307617	0.144957	0.173325	-0.026188	-0.227533	-0.533768	0.591371	-0.560001	-122.698356	-60.104301	-130.946003
27350		15.738079	16.905741	-3.446637	-21.278631	-6.104152	-2.374368	-0.857740	-0.606821	0.609136	-0.815430	0.035889	0.305420	0.156970	0.169387	-0.034716	-0.226301	-0.532681	0.596086	-0.556525	-123.364663	-59.620019	-130.743315
27351		14.469991	13.488677	-1.280262	-17.135310	-6.927479	-2.646442	-0.896733	-1.031524	-0.139586	-0.808594	0.029541	0.325684	0.144860	0.134729	-0.012660	-0.226060	-0.535134	0.599272	-0.550819	-124.828607	-59.369025	-129.641641
27352		17.380719	15.783162	-0.465358	-19.777503	-9.262371	-1.183411	-0.560986	-0.612706	-1.349280	-0.810547	0.016357	0.325928	0.174881	0.156641	-0.004559	-0.229417	-0.540214	0.597889	-0.545954	-126.403183	-59.790918	-128.187968
27353		21.064444	-18.203957	0.538665	10.069239	-5.465443	15.566799	-0.177832	0.355385	-0.961686	-0.812500	0.009521	0.317139	0.209775	-0.183045	0.005176	-0.233767	-0.542191	0.595170	-0.545118	-126.857010	-60.386541	-127.784948
27354		13.893241	-42.959252	10.188106	37.617666	-6.791744	16.285185	-0.333780	1.401696	-0.057895	-0.816895	0.011719	0.312744	0.139521	-0.429463	0.101621	-0.238977	-0.538140	0.594278	-0.547840	-125.934554	-60.887660	-129.062300
27355		20.258477	-16.878483	4.999875	10.699415	-8.865959	13.147437	1.091714	1.361221	-1.842814	-0.823242	-0.001709	0.299805	0.201346	-0.170908	0.047696	-0.245246	-0.541231	0.584544	-0.552478	-125.288717	-62.220778	-129.085962
27356		17.092624	8.307418	-2.563754	-13.148471	-5.524833	3.005933	1.714882	0.184907	-2.775973	-0.813721	-0.023438	0.307129	0.172036	0.080908	-0.025096	-0.248763	-0.550865	0.571999	-0.554511	-125.948391	-63.573456	-127.240770
27357		17.978850	8.409457	-6.703967	-14.449823	-2.255456	5.186975	2.037695	-0.428462	-3.097382	-0.815430	-0.038818	0.313965	0.181211	0.081970	-0.065810	-0.250651	-0.563409	0.558114	-0.555205	-127.395511	-64.877071	-124.338847
27358		15.570457	2.046514	-1.164855	-5.761400	-4.894443	4.000848	1.129027	-0.201313	-3.272563	-0.808105	-0.060547	0.316895	0.156024	0.017979	-0.011385	-0.255939	-0.574432	0.545939	-0.553601	-129.516007	-66.272003	-121.299265
27359		9.241664	1.610032	0.962102	-2.917523	-4.456874	-2.031740	0.211704	-0.224396	-3.147215	-0.805176	-0.084717	0.315186	0.092644	0.014633	0.009741	-0.263633	-0.583948	0.536346	-0.549395	-132.437551	-67.583126	-117.995698
27360		3.963627	6.359353	-1.941117	-7.192356	-1.464970	-7.355115	0.958917	-0.590437	-2.632842	-0.806641	-0.104248	0.333496	0.040526	0.063156	-0.018989	-0.266439	-0.593837	0.526757	-0.546713	-135.077388	-68.436972	-114.555981
27361		9.994496	6.668934	-8.112596	-10.553229	1.762752	-0.030509	1.475890	-1.144155	-2.311315	-0.802002	-0.115234	0.342529	0.101171	0.066118	-0.080060	-0.265599	-0.605072	0.517117	-0.543999	-137.909903	-68.908842	-110.613314
27362		11.281168	1.794103	-7.344457	-5.831969	2.120426	2.266851	0.947410	0.025595	-1.681887	-0.801758	-0.121826	0.340576	0.112950	0.017339	-0.073376	-0.267346	-0.610584	0.509402	-0.544264	-139.246783	-69.555400	-108.602601
27363		9.789023	3.850532	-0.950076	-4.924034	-3.669595	-1.219642	0.037964	0.442042	-1.330219	-0.801270	-0.139404	0.338623	0.098122	0.037855	-0.009710	-0.272242	-0.612975	0.504405	-0.543803	-140.468046	-70.273739	-107.285801
27364		11.633330	4.562672	-3.226099	-6.545559	-2.375024	1.053313	-1.189621	0.795528	-1.330852	-0.807617	-0.150391	0.332275	0.116502	0.044657	-0.032992	-0.281485	-0.612522	0.502462	-0.541400	-142.032118	-71.104474	-106.350346
27365		10.921108	-0.128309	-2.047936	-1.596688	-1.438048	1.089614	-1.388767	1.181682	-1.198653	-0.809326	-0.166016	0.321777	0.109077	-0.002082	-0.021111	-0.292241	-0.610525	0.500598	-0.539682	-143.356709	-72.095198	-105.800331
27366		9.900201	-1.642795	-1.746962	0.105104	-0.767874	0.344186	-1.179411	0.829824	-1.132193	-0.811035	-0.181396	0.319824	0.098833	-0.017092	-0.017780	-0.300946	-0.609373	0.499100	-0.537583	-144.812410	-72.858796	-104.982056
27367		9.348579	-2.585282	-0.301108	1.638345	-1.524085	-0.370104	-0.306301	0.388894	-1.013582	-0.812988	-0.187988	0.317871	0.093347	-0.026331	-0.003153	-0.305878	-0.610555	0.495981	-0.536343	-146.284239	-73.406194	-103.634805
27368		10.041375	-2.353668	-0.798201	1.284605	-1.283245	0.371040	0.221765	0.093810	-0.982587	-0.814941	-0.198730	0.329102	0.100293	-0.024021	-0.008056	-0.308051	-0.613075	0.492246	-0.535666	-147.658665	-73.756192	-102.069107
27369		10.785146	1.267981	-2.172232	-2.530369	-1.371587	0.881277	-0.087377	0.103680	-0.902258	-0.810059	-0.209717	0.327148	0.107896	0.012184	-0.021784	-0.311295	-0.615022	0.489299	-0.534256	-149.266611	-74.110428	-100.456005
27370		9.830079	-0.164356	-1.876199	-0.957839	-0.872273	0.111960	-0.288036	0.148374	-0.832604	-0.814453	-0.218506	0.322998	0.098279	-0.002080	-0.018832	-0.314751	-0.616212	0.487281	-0.532703	-150.746130	-74.420647	-99.089975
27371		8.757414	-1.497274	-2.007353	0.368506	0.010051	-0.711742	-0.324048	0.147407	-0.778602	-0.807617	-0.222900	0.325439	0.087500	-0.015346	-0.020113	-0.318494	-0.617342	0.485257	-0.531015	-152.357772	-74.739204	-97.619628
27372		9.970667	-0.603062	-2.465620	-0.602364	-0.146795	0.457282	-0.312548	0.107873	-0.696057	-0.813721	-0.238281	0.327881	0.099671	-0.006416	-0.024700	-0.321553	-0.618246	0.483771	-0.529473	-153.745507	-74.973193	-96.367125
27373		10.284919	0.180414	-2.008262	-1.116772	-0.858041	0.572946	-0.460240	0.141736	-0.593032	-0.813477	-0.242676	0.325928	0.102840	0.001453	-0.020159	-0.325196	-0.618693	0.482681	-0.527718	-155.186395	-75.222154	-95.158400
27374		10.621827	0.123523	-1.925787	-0.984578	-0.964751	0.894629	-0.555242	0.132965	-0.511936	-0.817627	-0.253662	0.323975	0.106208	0.000910	-0.019331	-0.328570	-0.618674	0.482351	-0.525949	-156.404617	-75.410096	-94.227562
27375		10.727494	0.154866	-2.536672	-1.161204	-0.396358	1.143222	-0.499657	0.283918	-0.426100	-0.813232	-0.255859	0.323975	0.107242	0.001257	-0.025522	-0.332233	-0.618256	0.481634	-0.524795	-157.480301	-75.683498	-93.422456
27376		10.027161	0.935993	-2.312515	-1.776490	-0.623125	0.347195	-0.492294	0.383855	-0.370166	-0.815186	-0.260498	0.315186	0.100244	0.009117	-0.023340	-0.335636	-0.617322	0.481149	-0.524174	-158.209889	-75.965413	-92.960531
27377		9.486299	-0.044396	-2.292475	-0.802219	-0.146985	-0.087366	-0.518229	0.436927	-0.252222	-0.817383	-0.264893	0.315186	0.094812	-0.000623	-0.023130	-0.339261	-0.616034	0.480748	-0.523722	-158.855464	-76.278439	-92.611560
27378		9.784592	-0.256650	-2.126934	-0.535547	-0.253997	0.186133	-0.499039	0.462233	-0.161699	-0.821533	-0.271484	0.306641	0.097794	-0.002699	-0.021489	-0.342318	-0.614366	0.480778	-0.523665	-159.104322	-76.557162	-92.649360
27379		9.617678	-1.399845	-1.713480	0.697165	-0.201040	0.029504	-0.513479	0.438175	-0.087669	-0.821289	-0.280273	0.306885	0.096133	-0.014085	-0.017309	-0.345491	-0.612666	0.480861	-0.523497	-159.402247	-76.836386	-92.655855
27380		9.706594	-0.654821	-1.545487	0.042975	-0.561854	0.021826	-0.347076	0.373214	-0.069407	-0.821045	-0.284668	0.304688	0.097035	-0.006609	-0.015625	-0.347620	-0.611259	0.480918	-0.523680	-159.435761	-77.048862	-92.825262
27381		9.447265	-1.068691	-1.427542	0.483561	-0.453215	-0.221469	-0.221500	0.331072	-0.066136	-0.825684	-0.284668	0.304688	0.094445	-0.010734	-0.014420	-0.349584	-0.610268	0.480497	-0.523914	-159.609532	-77.266207	-92.789519
27382		9.372204	-0.732861	-2.120506	-0.045002	0.137541	-0.176773	-0.081883	0.261773	-0.081676	-0.823486	-0.284912	0.300293	0.093691	-0.007376	-0.021325	-0.350665	-0.609639	0.480012	-0.524369	-159.617494	-77.421439	-92.829127
27383		10.061877	-0.733877	-2.723861	-0.224943	0.581876	0.618521	-0.144187	0.275658	-0.063032	-0.827637	-0.287109	0.298096	0.100579	-0.007390	-0.027372	-0.352237	-0.608915	0.479494	-0.524631	-159.786287	-77.607885	-92.751861
27384		9.974522	-0.676706	-2.569806	-0.229614	0.469754	0.496505	-0.243686	0.283117	-0.056413	-0.825195	-0.295654	0.304932	0.099707	-0.006827	-0.025831	-0.353794	-0.607882	0.479469	-0.524804	-159.806706	-77.769650	-92.873563
27385		9.387202	-1.051907	-2.079299	0.290879	0.276992	-0.148933	-0.333818	0.292363	-0.032750	-0.827393	-0.300293	0.296143	0.093840	-0.010569	-0.020913	-0.355895	-0.606698	0.479517	-0.524709	-159.994920	-77.958142	-92.888134
27386		9.755451	-0.499116	-1.702411	-0.125914	-0.283967	0.097892	-0.362426	0.266955	-0.069461	-0.831787	-0.298096	0.296143	0.097530	-0.005056	-0.017145	-0.357805	-0.605522	0.479788	-0.524521	-160.131638	-78.113898	-92.960349
27387		9.666395	-1.168304	-1.830265	0.491528	0.073393	0.082107	-0.411889	0.254861	-0.080689	-0.824951	-0.302490	0.291992	0.096636	-0.011760	-0.018402	-0.360165	-0.604403	0.479958	-0.524040	-160.523410	-78.291149	-92.811740
27388		9.722752	-1.107019	-1.920171	0.418378	0.151880	0.149555	-0.391972	0.209648	-0.132888	-0.829346	-0.309082	0.298584	0.097200	-0.011173	-0.019282	-0.362189	-0.603470	0.480211	-0.523488	-160.902970	-78.428105	-92.653222
27389		9.687619	-1.707216	-1.751551	1.064952	0.191404	0.120170	-0.380842	0.213815	-0.165740	-0.829102	-0.317871	0.292236	0.096843	-0.017186	-0.017586	-0.364569	-0.602704	0.480120	-0.522802	-161.551444	-78.597752	-92.224794
27390		9.354527	-1.320133	-2.360549	0.544418	0.745519	-0.118882	-0.291126	0.186148	-0.195176	-0.824219	-0.326660	0.285889	0.093510	-0.013327	-0.023673	-0.366392	-0.602159	0.479960	-0.522303	-162.080963	-78.732438	-91.854585
27391		9.722928	-0.984267	-1.741434	0.418671	0.026263	0.105006	-0.330845	0.223629	-0.235340	-0.828857	-0.324463	0.283691	0.097198	-0.009986	-0.017507	-0.368810	-0.601614	0.479512	-0.521639	-162.906886	-78.916790	-91.216006
27392		9.508876	-1.137283	-2.032066	0.513279	0.408380	-0.044829	-0.348783	0.202434	-0.298653	-0.826172	-0.333496	0.279297	0.095051	-0.011550	-0.020397	-0.371112	-0.601162	0.479155	-0.520856	-163.777514	-79.075451	-90.532384
27393		9.915874	-1.104100	-1.797030	0.583785	0.131882	0.307318	-0.428536	0.237877	-0.363151	-0.826172	-0.337646	0.279541	0.099117	-0.011260	-0.018064	-0.374176	-0.600691	0.478551	-0.519761	-165.062413	-79.282558	-89.483886
27394		9.588106	-1.006626	-2.335401	0.386120	0.707930	0.074105	-0.386804	0.221788	-0.425772	-0.823975	-0.337891	0.275146	0.095833	-0.010316	-0.023441	-0.376963	-0.600412	0.477866	-0.518699	-166.375553	-79.464412	-88.373066
27395		10.052126	-0.923587	-1.652527	0.538732	-0.008507	0.401934	-0.384131	0.260188	-0.480739	-0.825684	-0.351074	0.273193	0.100477	-0.009509	-0.016638	-0.380236	-0.600229	0.476749	-0.517547	-168.063183	-79.688400	-86.890657
27396		9.706784	-1.677201	-1.951660	1.234450	0.566493	0.137113	-0.367635	0.261922	-0.517382	-0.825439	-0.357666	0.269043	0.096998	-0.017059	-0.019612	-0.383291	-0.600087	0.475653	-0.516466	-169.726689	-79.891328	-85.414167
27397		9.992231	-1.147241	-2.131017	0.739296	0.593135	0.424662	-0.376241	0.260798	-0.561179	-0.816162	-0.368652	0.264893	0.099862	-0.011793	-0.021418	-0.386730	-0.600087	0.474270	-0.515173	-171.796304	-80.105674	-83.541200
27398		10.033160	-1.114554	-1.866215	0.835960	0.367708	0.412513	-0.442790	0.308653	-0.662975	-0.815918	-0.379639	0.258545	0.100265	-0.011519	-0.018792	-0.390485	-0.600007	0.472826	-0.513758	-174.108298	-80.326419	-81.452296
27399		9.256690	-2.198204	-2.346221	1.823745	1.271309	-0.269092	-0.457479	0.327040	-0.801230	-0.815674	-0.388428	0.254395	0.092439	-0.022406	-0.023563	-0.394917	-0.600219	0.470793	-0.511988	-177.201638	-80.560085	-78.590743
27400		9.116103	-2.326038	-2.688774	1.943836	1.698919	-0.374598	-0.425564	0.327571	-0.973245	-0.810547	-0.403809	0.248047	0.091002	-0.023761	-0.026987	-0.399442	-0.600827	0.468314	-0.510035	179.187518	-80.756138	-75.178272
27401		9.410437	-2.853800	-2.918875	2.517464	2.059550	-0.084403	-0.394034	0.417519	-1.155735	-0.803711	-0.410645	0.237061	0.093876	-0.029139	-0.029328	-0.404755	-0.601720	0.464856	-0.507952	174.573975	-80.966033	-70.743089
27402		9.257398	-3.216086	-3.371219	2.868870	2.672696	-0.219353	-0.335963	0.514448	-1.347934	-0.800781	-0.430420	0.233154	0.092267	-0.032840	-0.033895	-0.410365	-0.602855	0.460607	-0.505973	169.261376	-81.148202	-65.559843
27403		9.984901	-2.712894	-2.796346	2.697373	1.985235	0.368563	-0.383872	0.580549	-1.548205	-0.784668	-0.445557	0.231445	0.099553	-0.027954	-0.028200	-0.416945	-0.604188	0.455574	-0.503553	162.773722	-81.257112	-59.225654
27404		10.008505	-2.752916	-2.857965	2.878523	2.149156	0.336617	-0.374625	0.634658	-1.762604	-0.781982	-0.461182	0.218506	0.099746	-0.028463	-0.028844	-0.423933	-0.605802	0.449855	-0.500915	155.589976	-81.236947	-52.174421
27405		10.789647	-2.446502	-1.725080	3.092286	1.006210	0.901710	-0.336791	0.699093	-1.994949	-0.768311	-0.474365	0.210205	0.107584	-0.025569	-0.017585	-0.431655	-0.607828	0.443037	-0.497933	147.567566	-81.038561	-44.257795
27406		10.683460	-3.313155	-1.493591	4.172991	1.125317	0.611226	-0.219602	0.707802	-2.250886	-0.756348	-0.498535	0.208496	0.106399	-0.034347	-0.015276	-0.439456	-0.610541	0.435190	-0.494700	139.534020	-80.596659	-36.247603
27407		12.414220	-3.596771	-1.389490	4.940432	1.074574	2.162631	-0.080596	0.714957	-2.494246	-0.735596	-0.518066	0.204834	0.123630	-0.037517	-0.014323	-0.447525	-0.613998	0.426073	-0.491112	131.770900	-79.878993	-28.424204
27408		14.617457	-3.327596	-2.047826	5.181492	1.649726	4.306509	-0.029106	0.735883	-2.746547	-0.728516	-0.535645	0.200684	0.145623	-0.035281	-0.021010	-0.455873	-0.617920	0.416029	-0.487109	124.784927	-78.902450	-21.334051
27409		16.776324	-3.137537	-1.618451	5.870808	1.264388	6.244118	-0.083636	0.744250	-2.938004	-0.700684	-0.564209	0.186035	0.167216	-0.033841	-0.016794	-0.464889	-0.621968	0.405338	-0.482426	118.652160	-77.682876	-15.126138
27410		18.806895	-2.990081	-1.538311	6.633276	1.297578	8.056019	-0.172345	0.737816	-3.130484	-0.682373	-0.583984	0.179932	0.187512	-0.032852	-0.016048	-0.474404	-0.626056	0.394258	-0.477027	113.509318	-76.256018	-9.949101
27411		20.763626	-3.984696	-1.745806	8.541917	1.954073	9.506364	-0.365985	0.774479	-3.375360	-0.666016	-0.607910	0.176270	0.206855	-0.043375	-0.018183	-0.485131	-0.629893	0.382621	-0.470621	108.978396	-74.606286	-5.489751
