// General information: 
//  MT Manager version: 2019.2.0 
//  XDA version: 2019.2.0 build 3853 rev 94535 built on 2019-09-09
// Device information: 
//  DeviceId: 00B40A40
//  ProductCode: MTW2-3A7G6
//  Firmware Version: 4.4.0
//  Hardware Version: 1.1.0
// Device settings: 
//  Filter Profile: human(46.1)
//  Option Flags: Orientation Smoother Disabled, AHS Disabled, ICC Disabled
// Coordinate system: ENU
PacketCounter	SampleTimeFine	Acc_X	Acc_Y	Acc_Z	FreeAcc_E	FreeAcc_N	FreeAcc_U	Gyr_X	Gyr_Y	Gyr_Z	Mag_X	Mag_Y	Mag_Z	VelInc_X	VelInc_Y	VelInc_Z	Quat_q0	Quat_q1	Quat_q2	Quat_q3	Roll	Pitch	Yaw	TrigIn1_Polarity	TrigIn1_Timestamp	TrigIn1_FrameNumber	TrigIn2_Polarity	TrigIn2_Timestamp	TrigIn2_FrameNumber
06899		6.097787	0.488715	3.321547	0.734974	0.400444	-2.902270	-0.885085	-0.372887	0.022796	-1.113770	0.040039	0.030762	0.060915	0.005041	0.033307	0.063329	-0.551673	-0.103767	-0.825154	15.330831	-67.454139	178.508721						
06900		6.364470	0.495690	2.840480	0.234249	0.255749	-2.834142	-0.889226	-0.434688	0.071186	-1.111572	0.040283	0.039795	0.063581	0.005106	0.028521	0.060958	-0.553864	-0.100025	-0.824326	14.881738	-67.717305	178.443060						
06901		6.644799	0.584025	2.532487	-0.090989	0.081559	-2.678768	-0.606414	-0.619795	0.133352	-1.109375	0.042480	0.046387	0.066365	0.005962	0.025513	0.059542	-0.556731	-0.097329	-0.822820	14.569672	-68.089647	178.404985						
06902		6.674973	0.845640	2.195154	-0.298665	-0.257148	-2.746328	-0.142342	-0.850264	0.155561	-1.104980	0.042725	0.052979	0.066649	0.008524	0.022229	0.059369	-0.560453	-0.096556	-0.820393	14.584028	-68.598760	178.300999						
06903		6.941446	1.181428	2.357745	-0.108563	-0.538554	-2.407551	0.331346	-1.026877	0.152932	-1.107422	0.049316	0.072998	0.069283	0.011828	0.023953	0.060452	-0.564697	-0.097773	-0.817253	14.937579	-69.199497	178.125647						
06904		7.817320	1.483720	3.030234	0.341894	-0.652294	-1.330284	0.433476	-0.994856	0.156895	-1.107422	0.047119	0.077393	0.078009	0.014832	0.030723	0.061834	-0.568812	-0.099390	-0.814095	15.354942	-69.788839	177.944485						
06905		8.921816	1.710358	3.544527	0.562816	-0.724653	-0.104680	0.218834	-0.760601	0.151590	-1.103027	0.049561	0.081787	0.089069	0.017132	0.035803	0.062719	-0.571976	-0.100068	-0.811724	15.564365	-70.241511	177.855173						
06906		9.881074	1.804986	3.838049	0.589481	-0.735381	0.898792	-0.054644	-0.360567	0.167567	-1.100830	0.051758	0.079346	0.098726	0.018143	0.038554	0.063063	-0.573632	-0.099471	-0.810602	15.431525	-70.479123	177.962274						
06907		10.611661	1.802453	4.095072	0.599522	-0.686267	1.667527	-0.235253	0.102171	0.196267	-1.098633	0.051758	0.083984	0.106120	0.018177	0.040875	0.063259	-0.573454	-0.097906	-0.810903	14.942079	-70.461572	178.338692						
06908		11.288734	1.775128	4.414475	0.634464	-0.621256	2.405548	-0.312051	0.448206	0.224784	-1.105469	0.056152	0.076904	0.112966	0.017947	0.043864	0.063501	-0.571914	-0.095845	-0.812217	14.232925	-70.255511	178.901365						
06909		11.887197	1.732130	5.035851	0.928266	-0.489929	3.170491	-0.281541	0.718427	0.230188	-1.099121	0.062988	0.069824	0.119032	0.017529	0.049907	0.063998	-0.569256	-0.093798	-0.814281	13.440754	-69.896800	179.572495						
06910		11.989276	1.744454	5.688387	1.383805	-0.412797	3.493568	-0.196095	1.090336	0.121503	-1.105957	0.064941	0.051758	0.120190	0.017573	0.056212	0.064465	-0.565000	-0.092288	-0.817375	12.760419	-69.314362	-179.821706						
06911		11.465506	1.786394	6.087346	1.775340	-0.414520	3.163354	-0.149861	1.559426	-0.039063	-1.105713	0.060303	0.031738	0.115128	0.017887	0.059964	0.064625	-0.558705	-0.091264	-0.821793	12.224597	-68.446564	-179.339251						
06912		10.453772	2.061106	6.089745	1.998015	-0.718444	2.274578	-0.109280	1.845989	-0.146409	-1.105469	0.058105	0.016357	0.105109	0.020567	0.059918	0.064585	-0.551112	-0.090607	-0.826979	11.814043	-67.401475	-178.963602						
06913		9.458942	2.577967	6.514122	2.665008	-1.157102	1.593752	-0.163532	1.673466	-0.138506	-1.100830	0.053467	-0.005859	0.095148	0.025767	0.064326	0.064342	-0.544229	-0.089754	-0.831636	11.443186	-66.455676	-178.662244						
06914		8.908607	2.968987	7.055060	3.298055	-1.452057	1.366094	-0.363064	0.979451	-0.083571	-1.101074	0.058105	-0.010742	0.089442	0.029780	0.070059	0.063459	-0.540276	-0.088147	-0.834449	11.090356	-65.902580	-178.503901						
06915		9.585828	2.975672	7.017674	2.921381	-1.509848	1.984610	-0.328594	0.213370	0.025354	-1.107666	0.055664	-0.012695	0.095929	0.029884	0.070025	0.062797	-0.539566	-0.086625	-0.835117	10.812637	-65.794628	-178.405756						
06916		10.985758	2.754382	6.555899	1.905130	-1.430314	3.055015	-0.044604	-0.354491	0.173890	-1.101074	0.060303	-0.008545	0.109717	0.027654	0.065747	0.063270	-0.541191	-0.086069	-0.834087	10.648233	-66.020700	-178.253535						
06917		12.229429	2.283237	6.056229	0.944403	-1.099907	3.947663	0.095372	-0.782085	0.253314	-1.098877	0.062500	0.004639	0.122027	0.022958	0.061051	0.064273	-0.544593	-0.086012	-0.831799	10.559916	-66.497155	-178.097242						
06918		12.286901	1.829164	5.601298	0.546382	-0.760018	3.781826	-0.064981	-0.912713	0.240789	-1.096680	0.060547	0.013916	0.122590	0.018458	0.056567	0.064727	-0.548570	-0.085366	-0.829213	10.423271	-67.045341	-177.988911						
06919		11.289483	1.368574	4.751011	0.179947	-0.491410	2.500850	-0.412093	-0.569996	0.119222	-1.098877	0.062744	0.018066	0.112751	0.013851	0.047803	0.063873	-0.551180	-0.083499	-0.827737	10.159551	-67.388156	-177.958853						
06920		10.544519	0.938050	3.577907	-0.628533	-0.326318	1.339291	-0.664204	-0.207454	0.029160	-1.099121	0.067139	0.020264	0.105407	0.009515	0.035857	0.062086	-0.552322	-0.080729	-0.827387	9.786948	-67.516816	-177.967538						
06921		10.216892	0.532161	2.621110	-1.415721	-0.138624	0.652239	-0.662959	-0.325033	0.067240	-1.099121	0.067139	0.024658	0.102124	0.005443	0.026359	0.060428	-0.553961	-0.077885	-0.826686	9.383245	-67.716108	-177.941624						
06922		9.855513	0.102104	2.027754	-1.837941	0.159346	0.079197	-0.563706	-0.782697	0.106881	-1.094727	0.067383	0.038086	0.098474	0.001132	0.020660	0.059027	-0.557462	-0.075481	-0.824654	9.082474	-68.177111	-177.965380						
06923		9.891370	-0.242337	1.299222	-2.472015	0.356983	-0.151106	-0.467000	-1.292919	0.142311	-1.094727	0.065186	0.051758	0.098829	-0.002322	0.013637	0.057849	-0.563036	-0.073523	-0.821120	8.897058	-68.930757	-178.053534						
06924		10.559297	-0.710549	0.597280	-3.279191	0.684398	0.243935	-0.337652	-1.822595	0.253581	-1.092773	0.074219	0.075928	0.105542	-0.006960	0.006947	0.057282	-0.570756	-0.071935	-0.815955	8.743610	-69.994988	-178.096410						
06925		11.721898	-1.226534	0.201087	-3.921005	1.112462	1.247636	-0.299868	-2.054779	0.326561	-1.093018	0.078857	0.097900	0.117210	-0.012070	0.003233	0.057043	-0.579374	-0.070348	-0.810014	8.540322	-71.196236	-178.062934						
06926		13.160542	-1.999492	-0.080146	-4.561034	1.807451	2.561905	-0.332269	-1.545996	0.313505	-1.088379	0.074463	0.107178	0.131637	-0.019789	0.000249	0.056832	-0.585904	-0.068513	-0.805477	8.192868	-72.110621	-177.897417						
06927		13.880195	-2.627961	-0.078399	-4.760394	2.407624	3.268362	-0.321080	-0.308381	0.190077	-1.086426	0.078857	0.106934	0.138828	-0.026149	-0.000528	0.056578	-0.587364	-0.066733	-0.804580	7.739370	-72.309862	-177.614239						
06928		13.046758	-2.845874	0.302650	-4.226094	2.679857	2.571388	-0.354185	1.154661	-0.037580	-1.095459	0.083252	0.088867	0.130477	-0.028479	0.002324	0.055788	-0.582856	-0.065077	-0.808041	7.328446	-71.659889	-177.395686						
06929		11.367972	-2.701879	0.735640	-3.447315	2.615385	1.065880	-0.269869	2.132447	-0.204974	-1.092773	0.072021	0.064697	0.113722	-0.027126	0.006181	0.054891	-0.574280	-0.063968	-0.814308	7.058151	-70.442116	-177.273288						
06930		9.988599	-2.395031	1.269557	-2.665184	2.403027	-0.105074	0.153568	2.284678	-0.153229	-1.097412	0.078369	0.041992	0.100004	-0.024036	0.011535	0.055463	-0.564890	-0.064385	-0.820779	6.940189	-69.138023	-177.053640						
06931		9.581925	-1.935129	2.177424	-1.815124	2.092625	-0.188635	0.876652	1.764082	-0.024212	-1.097656	0.082764	0.025879	0.096003	-0.019456	0.020843	0.058432	-0.557436	-0.067542	-0.825402	7.152325	-68.142320	-176.741975						
06932		10.037547	-1.222293	3.363885	-0.938007	1.597736	0.681499	1.580592	1.007039	0.026468	-1.097656	0.082764	0.016846	0.100544	-0.012472	0.033035	0.063327	-0.552852	-0.073669	-0.827598	7.823199	-67.579217	-176.488221						
06933		10.435193	-0.195171	4.247422	-0.197629	0.801598	1.425168	2.194819	0.455704	0.033147	-1.099854	0.082764	0.014648	0.104449	-0.002399	0.042212	0.069722	-0.550314	-0.082495	-0.827942	8.936493	-67.332863	-176.331925						
06934		10.219420	0.778124	4.658979	0.404874	0.039461	1.438153	2.626797	0.248841	0.022404	-1.095459	0.082764	0.012451	0.102251	0.007181	0.046560	0.077180	-0.548393	-0.093187	-0.827420	10.342383	-67.203663	-176.224351						
06935		9.416388	1.342724	4.650631	0.811771	-0.374164	0.737170	2.665629	0.237141	0.064152	-1.097656	0.082764	0.008057	0.094215	0.012837	0.046568	0.084883	-0.546430	-0.103925	-0.826685	11.716219	-67.086653	-176.057705						
06936		8.502524	1.680797	4.174979	0.817413	-0.691955	-0.252323	2.468069	0.229419	0.024291	-1.099854	0.084717	-0.001221	0.085071	0.016302	0.041855	0.091871	-0.544478	-0.113933	-0.825907	13.023113	-66.971641	-175.941431						
06937		7.711405	1.894769	3.856572	0.895891	-0.868158	-1.073581	2.237332	0.258683	-0.080568	-1.097656	0.082520	-0.005371	0.077172	0.018484	0.038674	0.097795	-0.542369	-0.123252	-0.825277	14.322923	-66.826148	-175.960790						
06938		7.107940	2.134042	3.617838	0.983166	-1.063534	-1.684505	1.949577	0.328267	-0.184100	-1.099854	0.082520	-0.012207	0.071158	0.020922	0.036267	0.102553	-0.539975	-0.131609	-0.824978	15.555786	-66.625157	-176.086770						
06939		6.677055	2.424546	3.611095	1.220065	-1.250717	-2.037847	1.571179	0.429700	-0.239150	-1.104248	0.080322	-0.011963	0.066877	0.023882	0.036156	0.106110	-0.537288	-0.138499	-0.825154	16.597868	-66.360157	-176.241354						
06940		6.220756	2.632351	3.506025	1.355099	-1.411283	-2.458028	1.098391	0.504526	-0.208719	-1.099854	0.082520	-0.019043	0.062323	0.026066	0.035047	0.108582	-0.534525	-0.143301	-0.825807	17.287535	-66.056931	-176.307094						
06941		5.796867	2.619496	3.309207	1.328305	-1.422661	-2.911398	0.680129	0.495754	-0.123357	-1.104004	0.073486	-0.027344	0.058067	0.026047	0.033037	0.110265	-0.532083	-0.146157	-0.826660	17.633921	-65.774323	-176.259549						
06942		5.464570	2.337049	3.042110	1.120220	-1.230719	-3.346765	0.394440	0.383570	-0.029213	-1.106201	0.077881	-0.029785	0.054707	0.023303	0.030362	0.111510	-0.530313	-0.147634	-0.827368	17.739722	-65.568121	-176.127357						
06943		5.149699	1.764734	2.937098	0.953016	-0.721422	-3.743789	0.228909	0.192209	0.021959	-1.104004	0.075684	-0.027588	0.051523	0.017619	0.029342	0.112370	-0.529474	-0.148404	-0.827651	17.767504	-65.476639	-176.013658						
06944		4.841986	1.288204	2.944095	0.919993	-0.264992	-4.080726	0.004984	-0.024725	0.004592	-1.108398	0.075684	-0.034180	0.048416	0.012882	0.029447	0.112415	-0.529641	-0.148410	-0.827537	17.768182	-65.500089	-176.011062						
06945		4.538690	1.292849	2.784615	0.917894	-0.319603	-4.420047	-0.179734	-0.158288	-0.017162	-1.106445	0.082275	-0.023438	0.045366	0.012950	0.027870	0.111771	-0.530451	-0.147789	-0.827216	17.743321	-65.593027	-176.096762						
06946		4.439702	1.113194	2.919140	1.021524	-0.105719	-4.481944	-0.438843	-0.256813	-0.041422	-1.106445	0.077881	-0.018555	0.044362	0.011187	0.029224	0.110282	-0.531790	-0.146208	-0.826838	17.633107	-65.735179	-176.251440						
06947		4.620814	0.694676	3.091525	0.968027	0.330835	-4.304017	-0.711663	-0.315622	-0.065103	-1.113281	0.080078	-0.009766	0.046162	0.007042	0.030963	0.107910	-0.533503	-0.143601	-0.826504	17.422453	-65.905946	-176.467379						
06948		4.916122	0.139819	3.255020	0.825342	0.885052	-4.040480	-0.802478	-0.324168	-0.071897	-1.108643	0.077881	-0.016357	0.049109	0.001511	0.032624	0.105270	-0.535305	-0.140631	-0.826190	17.169046	-66.083301	-176.693279						
06949		5.208996	-0.223213	3.281936	0.642553	1.213160	-3.806872	-0.778755	-0.441912	-0.024479	-1.101807	0.075928	-0.000488	0.052017	-0.002110	0.032943	0.102794	-0.537586	-0.137699	-0.825514	16.917910	-66.330811	-176.906340						
06950		5.581509	-0.594294	3.314869	0.449251	1.554123	-3.497831	-0.665956	-0.703594	0.043331	-1.108643	0.080322	0.003662	0.055699	-0.005820	0.033364	0.100728	-0.540932	-0.135176	-0.823999	16.744210	-66.734782	-177.132893						
06951		6.236891	-0.767495	3.366679	0.247912	1.718324	-2.898369	-0.468647	-0.999320	0.100354	-1.108887	0.082520	0.017090	0.062203	-0.007564	0.033996	0.099218	-0.545412	-0.133462	-0.821505	16.730772	-67.309188	-177.409837						
06952		7.007597	-0.863197	3.597512	0.207972	1.877141	-2.116845	-0.245309	-1.141296	0.112038	-1.104248	0.082764	0.032715	0.069874	-0.008548	0.036385	0.098285	-0.550369	-0.132689	-0.818430	16.891608	-67.965797	-177.735634						
06953		7.886462	-0.874659	3.961155	0.286809	2.007588	-1.179111	-0.119157	-1.058963	0.084533	-1.099609	0.076172	0.041992	0.078657	-0.008690	0.040034	0.097621	-0.554876	-0.132474	-0.815496	17.148623	-68.569687	-178.085691						
06954		8.809616	-0.785441	4.148021	0.228478	1.989677	-0.251265	-0.047246	-0.813913	0.053467	-1.108643	0.078125	0.046387	0.087928	-0.007821	0.041840	0.097192	-0.558337	-0.132511	-0.813176	17.398119	-69.036708	-178.382624						
06955		9.429257	-0.579504	4.205976	0.188078	1.822867	0.364664	0.018433	-0.536376	0.037744	-1.101807	0.076172	0.053223	0.094180	-0.005781	0.042312	0.097063	-0.560598	-0.132727	-0.811599	17.593443	-69.345871	-178.580166						
06956		9.878488	-0.299311	4.281535	0.229754	1.589483	0.837491	0.040524	-0.361324	0.050779	-1.099609	0.076172	0.055420	0.098708	-0.002977	0.042993	0.097160	-0.562149	-0.132909	-0.810484	17.706724	-69.562200	-178.676786						
06957		10.488411	-0.017232	4.381829	0.230867	1.355073	1.470834	-0.000058	-0.304833	0.092222	-1.104004	0.071777	0.058105	0.104817	-0.000124	0.043978	0.097352	-0.563511	-0.132784	-0.809535	17.710131	-69.754216	-178.680342						
06958		11.393295	0.138955	4.717196	0.303396	1.305364	2.446279	-0.099162	-0.295348	0.141983	-1.099854	0.080811	0.066406	0.113862	0.001494	0.047339	0.097457	-0.564914	-0.132115	-0.808653	17.581352	-69.949303	-178.604440						
06959		12.442582	0.184496	5.170249	0.403173	1.384424	3.585222	-0.214420	-0.242942	0.183132	-1.104004	0.071777	0.062500	0.124361	0.002014	0.051851	0.097452	-0.566186	-0.130836	-0.807972	17.293451	-70.123100	-178.428728						
06960		13.168297	0.016878	5.545489	0.469425	1.626775	4.374979	-0.348770	-0.018128	0.167167	-1.104248	0.080566	0.064209	0.131678	0.000376	0.055466	0.097132	-0.566605	-0.128951	-0.808020	16.848048	-70.170572	-178.168535						
06961		13.335277	-0.387134	5.814887	0.520355	2.045771	4.586481	-0.559955	0.392104	0.077688	-1.099609	0.073975	0.055664	0.133468	-0.003657	0.057898	0.096134	-0.565406	-0.126263	-0.809403	16.228377	-69.977406	-177.850554						
06962		13.217808	-0.950972	5.800238	0.314958	2.514377	4.429332	-0.728850	0.808076	-0.009387	-1.106445	0.078369	0.048584	0.132411	-0.009306	0.057502	0.094548	-0.562527	-0.122939	-0.812102	15.480603	-69.538345	-177.499567						
06963		13.051301	-1.303206	5.780921	0.140528	2.774775	4.249059	-0.652399	1.123250	-0.056770	-1.099609	0.078369	0.039795	0.130831	-0.012882	0.057117	0.093193	-0.558294	-0.119903	-0.815626	14.742125	-68.918024	-177.109431						
06964		12.775241	-1.338624	5.934856	0.207164	2.791171	4.057583	-0.292450	1.424699	-0.052731	-1.104004	0.073730	0.015381	0.128167	-0.013334	0.058456	0.093023	-0.552631	-0.118175	-0.819744	14.128106	-68.127898	-176.630578						
06965		12.802138	-0.983721	6.378973	0.483943	2.524102	4.292053	0.206750	1.651247	-0.001246	-1.104004	0.073730	0.001953	0.128542	-0.009903	0.062720	0.094585	-0.545813	-0.118241	-0.824112	13.689259	-67.218798	-176.028009						
06966		12.882131	-0.387243	7.283555	1.186874	2.176885	4.781740	0.531167	1.562864	0.083078	-1.110840	0.075684	-0.018555	0.129387	-0.004010	0.071815	0.097301	-0.539195	-0.119449	-0.827969	13.394323	-66.365132	-175.376952						
06967		13.190272	0.222291	7.984211	1.662188	1.779829	5.413861	0.720002	0.942718	0.105869	-1.102051	0.082520	-0.023438	0.132276	0.002007	0.079227	0.100265	-0.535063	-0.121671	-0.829970	13.386122	-65.863141	-174.916696						
06968		13.075652	0.692425	7.080362	0.971170	1.084179	5.001651	1.135112	0.245802	0.124193	-1.111084	0.082275	-0.025635	0.130839	0.006604	0.070681	0.103979	-0.533586	-0.125907	-0.829832	13.804027	-65.749371	-174.662763						
06969		12.722343	1.091385	5.984329	0.272512	0.436474	4.279722	1.617303	-0.029515	0.134818	-1.108643	0.080078	-0.018799	0.127207	0.010515	0.059948	0.108854	-0.533002	-0.132257	-0.828593	14.568821	-65.794146	-174.485162						
06970		12.058501	1.278806	4.841695	-0.371730	-0.012415	3.238973	1.814819	-0.076049	0.061882	-1.104248	0.080078	-0.023193	0.120563	0.012385	0.048576	0.113899	-0.532413	-0.139632	-0.827083	15.554703	-65.854159	-174.427333						
06971		11.224893	1.744769	3.456978	-1.031285	-0.815629	1.988313	1.849496	-0.264972	-0.055235	-1.102051	0.080322	-0.023193	0.112208	0.017095	0.034878	0.118425	-0.532461	-0.147561	-0.825037	16.773079	-66.000681	-174.601025						
06972		10.235335	2.349211	1.980162	-1.606991	-1.796925	0.598333	1.832241	-0.646825	-0.131697	-1.106445	0.077881	-0.016357	0.102303	0.023240	0.020346	0.122280	-0.533981	-0.155835	-0.821965	18.236942	-66.339470	-175.054923						
06973		9.798841	3.022738	0.666687	-2.179169	-2.821198	-0.174832	1.731542	-1.219275	-0.142027	-1.106445	0.080322	0.003662	0.097966	0.030095	0.007525	0.125382	-0.537861	-0.164056	-0.817356	19.933731	-66.982658	-175.822266						
06974		9.839111	3.911068	-0.380760	-2.575130	-3.968451	-0.332931	1.513789	-1.585033	-0.032648	-1.108643	0.078125	0.017334	0.098422	0.039118	-0.002732	0.128014	-0.543400	-0.171302	-0.811778	21.617597	-67.834691	-176.707870						
06975		10.031114	3.959602	-0.881215	-2.887375	-4.156000	-0.248861	1.182960	-1.144554	0.060618	-1.106689	0.082520	0.023682	0.100346	0.039675	-0.008003	0.130508	-0.547389	-0.176655	-0.807543	22.831910	-68.464549	-177.285794						
06976		10.478147	3.683735	-0.695693	-2.921702	-3.799236	0.230957	0.894763	-0.039659	-0.080099	-1.106689	0.082520	0.021484	0.104798	0.036826	-0.006771	0.132602	-0.546957	-0.180500	-0.806644	23.474441	-68.476723	-177.426313						
06977		10.641915	3.661368	-0.112648	-2.541047	-3.526220	0.568857	0.602840	1.196953	-0.329014	-1.113037	0.077881	0.003906	0.106470	0.036443	-0.001654	0.134019	-0.541488	-0.183023	-0.809526	23.567280	-67.782338	-177.154050						
06978		10.206052	4.336331	0.698954	-1.578875	-3.794063	0.510306	0.363226	2.156662	-0.515883	-1.114990	0.068848	-0.022461	0.102240	0.043088	0.005966	0.134895	-0.532059	-0.184421	-0.815295	23.251069	-66.538063	-176.585409						
06979		9.049652	4.915295	2.049968	0.000942	-3.739494	-0.000996	-0.084455	2.628337	-0.542056	-1.114746	0.064209	-0.051514	0.090888	0.048915	0.019286	0.134890	-0.520923	-0.183720	-0.822612	22.534688	-65.039572	-175.852946						
06980		7.766907	4.953565	3.367616	1.376128	-3.237073	-0.657069	-1.001195	2.454084	-0.498674	-1.121338	0.063965	-0.076172	0.078196	0.049506	0.032471	0.132483	-0.511030	-0.179225	-0.830166	21.416425	-63.632975	-175.248690						
06981		7.314629	4.357524	4.199699	1.794371	-2.441205	-0.815690	-2.031302	1.502292	-0.501596	-1.109863	0.057373	-0.080322	0.073566	0.043811	0.041001	0.126565	-0.505718	-0.171057	-0.836045	20.177511	-62.735914	-175.164493						
06982		7.568225	3.389939	4.543102	1.470075	-1.552699	-0.602032	-2.719664	-0.016641	-0.482659	-1.118896	0.057373	-0.075684	0.075761	0.034330	0.044972	0.117661	-0.507100	-0.160895	-0.838522	19.127840	-62.659229	-175.736779						
06983		8.067813	2.306752	4.347295	0.713304	-0.741703	-0.418557	-2.934848	-1.349468	-0.423512	-1.114258	0.052979	-0.055176	0.080433	0.023537	0.043673	0.107363	-0.514145	-0.150427	-0.837556	18.382146	-63.322935	-176.787082						
06984		7.906611	1.498850	3.998387	0.352710	-0.168925	-0.835334	-3.014095	-2.035653	-0.335443	-1.114258	0.051025	-0.028076	0.078681	0.015465	0.040555	0.096671	-0.524042	-0.139728	-0.834572	17.764605	-64.384682	-178.023304						
06985		7.339873	0.743422	3.230621	-0.125304	0.254763	-1.764049	-2.931011	-2.005754	-0.227778	-1.118408	0.046631	-0.005371	0.073079	0.007830	0.032927	0.086647	-0.533653	-0.129030	-0.831299	17.083156	-65.451648	-179.124990						
06986		7.086024	-0.073035	2.556485	-0.690646	0.799859	-2.353827	-2.599164	-1.479629	-0.168749	-1.109619	0.046875	0.008057	0.070668	-0.000453	0.026095	0.078045	-0.540875	-0.119299	-0.828933	16.348130	-66.251317	-179.952139						
06987		7.226143	-0.884950	2.262257	-1.112219	1.478588	-2.417131	-2.106810	-0.752256	-0.186502	-1.116211	0.042236	0.014893	0.072167	-0.008676	0.022986	0.071144	-0.544737	-0.111343	-0.828132	15.645053	-66.645700	179.498136						
06988		7.446369	-1.324453	2.279036	-1.234406	1.896926	-2.244699	-1.482645	-0.060719	-0.245865	-1.115967	0.037842	0.010742	0.074441	-0.013167	0.022911	0.066057	-0.545458	-0.105884	-0.828795	15.132668	-66.654766	179.130450						
06989		7.413045	-1.375270	2.678288	-0.875815	2.039008	-2.125479	-0.781977	0.482569	-0.337036	-1.115723	0.033203	0.010986	0.074172	-0.013773	0.026658	0.062807	-0.543598	-0.103386	-0.830583	14.944065	-66.347119	178.847665						
06990		7.159959	-1.103161	3.061753	-0.419947	1.868846	-2.184649	-0.170934	0.873113	-0.422166	-1.115723	0.033203	-0.006836	0.071709	-0.011157	0.030314	0.061041	-0.539877	-0.103542	-0.833118	15.082276	-65.811659	178.588740						
06991		6.785559	-0.543781	3.389726	0.066319	1.418585	-2.341928	0.381265	1.059178	-0.492544	-1.108643	0.024414	-0.017578	0.068020	-0.005669	0.033527	0.060590	-0.535151	-0.106119	-0.835872	15.542008	-65.161301	178.323677						
06992		6.256954	0.187617	3.589964	0.538058	0.786555	-2.659811	0.802754	0.980318	-0.496791	-1.115234	0.021973	-0.028564	0.062749	0.001577	0.035599	0.061196	-0.530594	-0.110490	-0.838163	16.254564	-64.551401	178.044218						
06993		5.567755	0.922593	3.648121	0.983695	0.126028	-3.166190	0.929730	0.620595	-0.431010	-1.121826	0.017334	-0.030518	0.055810	0.008937	0.036350	0.062223	-0.527528	-0.115323	-0.839371	17.064179	-64.149488	177.737150						
06994		5.250365	1.487384	3.633844	1.211271	-0.381524	-3.380693	0.735104	0.068582	-0.332495	-1.123779	0.015137	-0.028320	0.052541	0.014653	0.036375	0.062824	-0.526883	-0.119246	-0.839183	17.832417	-64.064249	177.350930						
06995		5.427333	1.898959	3.653347	1.256827	-0.730146	-3.157160	0.395557	-0.444876	-0.229804	-1.121826	0.017334	-0.021729	0.054214	0.018855	0.036691	0.062660	-0.528553	-0.121635	-0.837801	18.478640	-64.275002	176.884888						
06996		5.781865	2.089918	3.737207	1.256650	-0.856363	-2.780495	0.044160	-0.681415	-0.136948	-1.119385	0.012939	-0.016846	0.057705	0.020851	0.037573	0.061815	-0.531388	-0.122373	-0.835961	18.917258	-64.631144	176.426433						
06997		6.165010	2.043979	3.642383	1.043320	-0.815442	-2.484760	-0.215841	-0.668699	-0.056850	-1.119141	0.010742	-0.012207	0.061534	0.020462	0.036608	0.060618	-0.534279	-0.121813	-0.834286	19.121818	-64.992346	176.063833						
06998		6.464499	2.025786	3.680015	0.985313	-0.781360	-2.206466	-0.464330	-0.530698	-0.023240	-1.112305	0.008789	-0.000977	0.064549	0.020336	0.036924	0.058980	-0.536686	-0.120079	-0.833109	19.094245	-65.285181	175.800711						
06999		6.773909	1.986427	3.582077	0.786587	-0.774211	-1.974012	-0.602177	-0.275103	0.001916	-1.116699	0.006348	-0.000732	0.067690	0.019973	0.035854	0.057230	-0.538075	-0.117631	-0.832684	18.855899	-65.444190	175.683469						
07000		6.851034	2.047056	3.555832	0.753225	-0.858513	-1.909105	-0.556245	-0.054845	0.027519	-1.114502	0.004150	-0.000732	0.068498	0.020579	0.035520	0.055830	-0.538548	-0.115242	-0.832808	18.525407	-65.488946	175.696005						
07001		6.619186	2.073878	3.489687	0.793914	-0.929545	-2.144694	-0.420301	0.040309	0.029606	-1.116943	0.008789	0.001221	0.066196	0.020822	0.034840	0.054868	-0.538580	-0.113385	-0.833106	18.230268	-65.481957	175.755826						
07002		6.652681	2.193780	3.745537	1.027628	-0.998065	-1.999384	-0.265013	0.034941	0.046193	-1.119141	0.006348	0.003662	0.066528	0.022003	0.037415	0.054380	-0.538601	-0.112133	-0.833294	18.008439	-65.480598	175.832333						
07003		7.189799	2.244133	4.240535	1.252500	-0.926042	-1.310621	-0.291393	0.001165	0.072074	-1.119385	0.015381	0.000977	0.071890	0.022529	0.042372	0.053920	-0.538782	-0.110708	-0.833397	17.751589	-65.502209	175.931243						
07004		7.596236	2.089747	4.794005	1.537887	-0.653703	-0.742967	-0.363420	0.114738	0.099118	-1.119385	0.013184	-0.001221	0.075979	0.021022	0.047858	0.053437	-0.538526	-0.108879	-0.833834	17.378421	-65.466580	176.112252						
07005		7.914695	1.955484	5.208978	1.725266	-0.447232	-0.303587	-0.423826	0.359353	0.074754	-1.116943	0.008545	-0.010010	0.079233	0.019695	0.051906	0.052827	-0.537247	-0.106799	-0.834967	16.910347	-65.292007	176.360131						
07006		8.262889	2.052309	5.563359	1.871571	-0.486031	0.172246	-0.415359	0.533797	0.056918	-1.114990	0.015381	-0.019287	0.082771	0.020662	0.055370	0.052252	-0.535217	-0.104755	-0.836564	16.412554	-65.017112	176.646177						
07007		8.724393	2.097158	6.094084	2.106791	-0.436638	0.818465	-0.403398	0.461744	0.099595	-1.112549	0.015381	-0.019287	0.087374	0.021138	0.060697	0.051856	-0.533508	-0.102664	-0.837938	15.903450	-64.788399	176.953246						
07008		9.595508	2.164736	6.621668	2.187577	-0.406133	1.834446	-0.363930	0.122573	0.163268	-1.114990	0.015381	-0.014893	0.095978	0.021846	0.066118	0.051655	-0.533229	-0.100655	-0.838371	15.459083	-64.754329	177.213865						
07009		10.733629	2.347933	6.965752	2.063325	-0.519934	3.021539	-0.147709	-0.348845	0.238303	-1.110596	0.017578	-0.017090	0.107186	0.023659	0.069827	0.052110	-0.534915	-0.099474	-0.837410	15.202310	-64.992679	177.404115						
07010		11.409859	2.647216	7.120213	2.045681	-0.780304	3.718597	0.132134	-0.634033	0.253571	-1.117432	0.019775	-0.010498	0.113838	0.026569	0.071581	0.053228	-0.537721	-0.099499	-0.835538	15.177242	-65.390081	177.514903						
07011		11.578262	2.902541	6.945519	1.958888	-1.057401	3.816884	0.327052	-0.531783	0.158339	-1.112793	0.020020	0.000732	0.115574	0.029003	0.069810	0.054529	-0.539998	-0.100564	-0.833856	15.344309	-65.717393	177.537340						
07012		11.626451	3.175402	6.575345	1.722625	-1.381972	3.737783	0.379193	-0.205221	0.023497	-1.105957	0.017822	-0.001465	0.116193	0.031643	0.065933	0.055565	-0.540821	-0.102123	-0.833064	15.599479	-65.842796	177.495522						
07013		11.580763	3.552984	6.322490	1.608048	-1.778398	3.639563	0.362396	0.090253	-0.074119	-1.106201	0.020020	-0.003906	0.115849	0.035372	0.063237	0.056307	-0.540372	-0.103792	-0.833099	15.862835	-65.791011	177.434559						
07014		11.506469	4.017553	6.250869	1.651712	-2.221360	3.601864	0.220652	0.263200	-0.125508	-1.105957	0.015625	-0.008057	0.115172	0.040034	0.062401	0.056532	-0.539205	-0.104964	-0.833694	16.048174	-65.634287	177.369714						
07015		11.654499	4.257448	6.478049	1.799897	-2.384920	3.861764	-0.004506	0.380901	-0.128559	-1.110352	0.015381	-0.005859	0.116695	0.042501	0.064557	0.056208	-0.537617	-0.105168	-0.834715	16.064579	-65.413701	177.348968						
07016		12.737269	4.011875	6.710984	1.453142	-2.077828	4.916237	-0.223647	0.325047	-0.060760	-1.108154	0.015381	-0.008057	0.127494	0.040155	0.066858	0.055539	-0.536347	-0.104295	-0.835685	15.895803	-65.233120	177.393531						
07017		13.505809	3.194842	6.519459	0.764663	-1.345204	5.442567	-0.372464	0.074622	0.112230	-1.110596	0.019775	-0.012939	0.135064	0.032145	0.065084	0.055072	-0.536263	-0.102401	-0.836004	15.519206	-65.218872	177.573378						
07018		12.813084	2.007214	5.918187	0.280011	-0.395832	4.434892	-0.625155	0.010743	0.219587	-1.108643	0.026611	-0.020020	0.128112	0.020398	0.059112	0.054336	-0.536559	-0.099184	-0.836250	14.891898	-65.254204	177.869733						
07019		11.148642	0.999161	4.760620	-0.255840	0.233585	2.345997	-0.935833	0.210124	0.152745	-1.106445	0.028809	-0.017822	0.111529	0.010299	0.047441	0.052592	-0.536071	-0.094787	-0.837184	14.102562	-65.169014	178.148683						
07020		9.997380	0.252411	3.366416	-1.161325	0.588268	0.658660	-1.009927	0.084100	0.148305	-1.102051	0.029053	-0.017822	0.099986	0.002768	0.033609	0.050570	-0.536102	-0.090126	-0.837803	13.316370	-65.150070	178.377704						
07021		9.273353	-0.386184	2.405098	-1.794316	0.964909	-0.443716	-0.875583	-0.587480	0.273929	-1.113281	0.031006	-0.011230	0.092667	-0.003629	0.024339	0.049131	-0.538966	-0.085855	-0.836499	12.641275	-65.522723	178.568649						
07022		9.172212	-0.866363	1.769160	-2.298354	1.279047	-0.807708	-0.771814	-1.458193	0.443813	-1.098145	0.040283	0.012695	0.091609	-0.008390	0.018393	0.048303	-0.545482	-0.081772	-0.832724	12.037681	-66.401288	178.745501						
07023		9.978341	-1.279510	1.190267	-3.021424	1.552313	-0.269246	-0.786272	-2.276469	0.689840	-1.105225	0.049316	0.032471	0.099682	-0.012401	0.013087	0.048122	-0.555455	-0.077144	-0.826561	11.289298	-67.767929	179.068974						
07024		11.110721	-2.031706	0.500103	-3.926199	2.133973	0.572269	-0.882613	-2.782716	0.912006	-1.096436	0.053955	0.068115	0.111113	-0.019783	0.006635	0.048390	-0.567515	-0.071606	-0.818815	10.225299	-69.440740	179.668759						
07025		12.399449	-3.082727	-0.422279	-5.082270	2.962815	1.536750	-0.939539	-2.454909	0.924170	-1.094727	0.065430	0.089844	0.124173	-0.030268	-0.002556	0.048651	-0.578132	-0.065707	-0.811837	8.877624	-70.924944	-179.470930						
07026		13.243778	-4.125963	-1.385351	-6.174178	3.774958	2.102261	-0.618997	-1.187961	0.748714	-1.094971	0.069824	0.098633	0.132670	-0.040804	-0.012939	0.049537	-0.583398	-0.061298	-0.808353	7.546118	-71.669237	-178.439622						
07027		12.828666	-4.279837	-1.090077	-5.731671	3.917447	1.844111	-0.132654	0.545126	0.378224	-1.097412	0.078613	0.086670	0.128337	-0.042563	-0.011222	0.050872	-0.581404	-0.059505	-0.809840	6.700531	-71.395294	-177.628151						
07028		11.615969	-3.472112	-0.091903	-4.421370	3.245091	0.999865	0.364274	1.851312	-0.023498	-1.095215	0.076416	0.064453	0.116140	-0.034732	-0.002057	0.052416	-0.573836	-0.060554	-0.815045	6.582292	-70.347920	-177.282035						
07029		10.530627	-2.319642	1.024877	-3.073573	2.275583	0.321122	1.081728	2.290736	-0.137282	-1.093018	0.080811	0.041748	0.105398	-0.023319	0.008916	0.055677	-0.564194	-0.064733	-0.821215	6.985254	-69.044421	-177.050723						
07030		10.186789	-1.174433	2.252592	-1.881436	1.353436	0.426821	1.936643	2.091958	-0.050681	-1.104004	0.075928	0.019531	0.102092	-0.011981	0.021344	0.061642	-0.555042	-0.072215	-0.826386	7.765885	-67.859188	-176.696850						
07031		10.187786	-0.151619	3.531641	-0.745600	0.618771	0.927168	2.705251	1.563331	0.044024	-1.102051	0.082520	-0.000977	0.102150	-0.001964	0.034494	0.069915	-0.547762	-0.082763	-0.829590	8.935707	-66.985829	-176.284987						
07032		10.004500	0.881415	4.414679	0.185092	-0.115037	1.155758	3.122132	0.992310	0.070077	-1.104492	0.086914	-0.008057	0.100260	0.008164	0.043781	0.079195	-0.542560	-0.095139	-0.830846	10.399791	-66.439241	-175.931370						
07033		9.262612	1.667098	4.732576	0.874202	-0.654799	0.664800	3.183846	0.515576	0.092797	-1.099854	0.082520	-0.014404	0.092741	0.015960	0.047345	0.088478	-0.539197	-0.107883	-0.830542	11.968728	-66.169095	-175.652476						
07034		8.422807	2.129141	4.593895	1.200962	-0.974726	-0.107699	2.977807	0.088430	0.126043	-1.099854	0.086914	-0.019287	0.084235	0.020658	0.046212	0.097112	-0.537577	-0.119831	-0.828988	13.478299	-66.143826	-175.437435						
07035		7.553937	2.255281	4.280261	1.343620	-1.031529	-1.003709	2.588606	-0.244917	0.072240	-1.099854	0.084717	-0.007813	0.075479	0.022023	0.043182	0.104237	-0.537400	-0.130462	-0.826629	14.943845	-66.299465	-175.418069						
07036		6.898137	2.133657	3.894380	1.275871	-0.908994	-1.759870	2.140620	-0.335823	-0.006678	-1.100098	0.089355	-0.005859	0.068916	0.020915	0.039285	0.109775	-0.537699	-0.139471	-0.824243	16.287454	-66.492870	-175.545854						
07037		6.381437	2.111869	3.458356	1.134934	-0.933776	-2.397678	1.717961	-0.278424	-0.062353	-1.095215	0.082520	-0.014404	0.063772	0.020800	0.034852	0.113960	-0.537907	-0.146854	-0.822255	17.453679	-66.644698	-175.743993						
07038		5.990560	2.245501	3.061209	1.023804	-1.123725	-2.885290	1.300583	-0.215906	-0.078367	-1.104492	0.084717	-0.010010	0.059881	0.022232	0.030822	0.117013	-0.538044	-0.152509	-0.820705	18.377291	-66.757465	-175.938126						
07039		5.749229	2.202254	3.057671	1.121280	-1.032100	-3.109682	0.809495	-0.196045	-0.023900	-1.102295	0.086914	-0.008057	0.057465	0.021892	0.030722	0.118962	-0.538420	-0.155998	-0.819522	18.952162	-66.869088	-176.058835						
07040		5.742901	1.904425	2.997709	0.980288	-0.756109	-3.174818	0.267640	-0.164205	-0.000151	-1.106689	0.084717	-0.010010	0.057404	0.019004	0.030050	0.119594	-0.538987	-0.157170	-0.818834	19.168481	-66.966122	-176.126958						
07041		5.888313	1.684156	2.883445	0.757475	-0.595540	-3.112357	-0.111876	-0.132082	0.027908	-1.102051	0.084717	0.003418	0.058862	0.016866	0.028864	0.119323	-0.539684	-0.156705	-0.818503	19.124288	-67.052456	-176.148468						
07042		5.745951	1.579869	2.713356	0.642420	-0.568572	-3.321290	-0.378906	-0.190470	0.091512	-1.102295	0.089355	0.000977	0.057426	0.015876	0.027158	0.118558	-0.540819	-0.155002	-0.818189	18.866677	-67.181467	-176.104280						
07043		5.414125	1.420959	2.250860	0.340047	-0.604235	-3.819571	-0.573260	-0.379672	0.197670	-1.104736	0.091553	0.005127	0.054084	0.014328	0.022570	0.117541	-0.542929	-0.152336	-0.817439	18.444784	-67.433389	-176.002888						
07044		5.037404	0.931070	1.961483	0.093747	-0.265681	-4.334527	-0.628583	-0.620881	0.286554	-1.100342	0.093750	0.011719	0.050299	0.009445	0.019742	0.116572	-0.546112	-0.149330	-0.816011	17.966176	-67.831970	-175.874380						
07045		5.111614	0.263031	1.899555	-0.180177	0.316965	-4.365397	-0.566515	-0.770684	0.300416	-1.098389	0.098389	0.031738	0.051038	0.002761	0.019185	0.115694	-0.549871	-0.146635	-0.814098	17.565356	-68.314565	-175.792094						
07046		5.626451	-0.180006	2.137375	-0.269630	0.794307	-3.849980	-0.451663	-0.753816	0.238753	-1.100586	0.100586	0.033936	0.056185	-0.001684	0.021590	0.114907	-0.553443	-0.144553	-0.812159	17.294815	-68.778373	-175.779185						
07047		5.993045	-0.362543	2.245787	-0.324167	0.990684	-3.487744	-0.256709	-0.590855	0.159891	-1.098389	0.098389	0.036133	0.059867	-0.003549	0.022639	0.114439	-0.556169	-0.143395	-0.810566	17.176898	-69.138399	-175.810322						
07048		6.214150	-0.448675	2.489400	-0.186009	1.152777	-3.205833	-0.064816	-0.368716	0.101915	-1.103027	0.102783	0.031494	0.062098	-0.004447	0.025010	0.114441	-0.557838	-0.143040	-0.809481	17.148428	-69.367176	-175.819335						
07049		6.416086	-0.498192	2.837843	0.050868	1.318628	-2.904264	-0.057455	-0.192311	0.079827	-1.103027	0.102783	0.040527	0.064136	-0.004948	0.028442	0.114487	-0.558772	-0.142683	-0.808893	17.081133	-69.495489	-175.782507						
07050		6.799173	-0.603904	3.072506	0.099223	1.487808	-2.477136	-0.137386	-0.111805	0.067504	-1.096191	0.100830	0.042725	0.067977	-0.005995	0.030767	0.114335	-0.559401	-0.141982	-0.808603	16.942755	-69.575642	-175.718327						
07051		7.339247	-0.515144	3.279682	0.135683	1.459241	-1.891929	-0.133083	-0.114060	0.077716	-1.103027	0.102783	0.044922	0.073376	-0.005101	0.032842	0.114217	-0.560059	-0.141279	-0.808287	16.798407	-69.660642	-175.645570						
07052		8.034370	-0.388456	3.497018	0.143139	1.397046	-1.154807	0.070441	-0.173016	0.087210	-1.098633	0.105225	0.047119	0.080315	-0.003862	0.035038	0.114674	-0.560839	-0.141400	-0.807661	16.778673	-69.778703	-175.581411						
07053		8.919246	-0.185253	3.927617	0.305310	1.342359	-0.162908	0.248993	-0.268952	0.103330	-1.098633	0.107422	0.051270	0.089140	-0.001855	0.039394	0.115620	-0.561920	-0.142258	-0.806623	16.883942	-69.952879	-175.541471						
07054		9.862041	0.163702	4.214120	0.385748	1.109497	0.848716	0.340509	-0.378458	0.067665	-1.098633	0.105225	0.053711	0.098540	0.001598	0.042330	0.116613	-0.563358	-0.143638	-0.805231	17.142171	-70.180841	-175.608480						
07055		10.782080	0.613671	4.536559	0.559769	0.810371	1.859495	0.319996	-0.504603	0.016468	-1.096191	0.100830	0.065186	0.107705	0.006073	0.045647	0.117239	-0.565279	-0.145162	-0.803519	17.536898	-70.469183	-175.832856						
07056		11.598375	0.844443	4.783066	0.647384	0.695953	2.725622	-0.002248	-0.596495	-0.013677	-1.096191	0.100830	0.069824	0.115841	0.008437	0.048176	0.116764	-0.567729	-0.145524	-0.801793	17.846952	-70.801831	-176.163201						
07057		12.458699	0.663534	4.928521	0.499650	0.914799	3.561276	-0.437824	-0.511249	-0.024565	-1.093506	0.092041	0.083740	0.124461	0.006728	0.049589	0.115070	-0.570079	-0.144124	-0.800623	17.890765	-71.085874	-176.474841						
07058		13.054808	0.099186	4.915600	0.154368	1.416154	4.064326	-0.808361	-0.210273	-0.045410	-1.096191	0.098633	0.072021	0.130497	0.001161	0.049289	0.112434	-0.571421	-0.141126	-0.800575	17.607555	-71.202854	-176.666003						
07059		13.114963	-0.718093	4.890333	-0.154334	2.136291	4.038143	-1.068306	0.293865	-0.118860	-1.095947	0.096436	0.074463	0.131217	-0.006998	0.048748	0.109132	-0.570818	-0.137010	-0.802175	17.034352	-71.031393	-176.706995						
07060		13.130623	-1.222450	4.730281	-0.519076	2.501158	3.962545	-1.110428	0.821843	-0.177259	-1.093750	0.096436	0.056641	0.131489	-0.012080	0.046830	0.105829	-0.568051	-0.132594	-0.805318	16.284586	-70.559493	-176.587320						
07061		13.238551	-1.348566	4.838941	-0.600591	2.587844	4.095364	-0.936644	1.067813	-0.114904	-1.093262	0.085205	0.052734	0.132634	-0.013337	0.047744	0.103433	-0.564222	-0.128567	-0.808966	15.453101	-69.962503	-176.273985						
07062		13.091055	-1.331105	5.431365	-0.151295	2.693872	4.164624	-0.667988	1.199225	-0.078647	-1.104736	0.091553	0.038818	0.131228	-0.013183	0.053572	0.102014	-0.559703	-0.125447	-0.812766	14.700628	-69.294516	-175.880264						
07063		12.609564	-1.333876	6.096769	0.435718	2.843527	3.959441	-0.421898	1.578966	-0.072301	-1.099854	0.084961	0.023682	0.126567	-0.013257	0.059998	0.101549	-0.553504	-0.123113	-0.817413	13.977970	-68.417206	-175.364530						
07064		12.424599	-1.201674	6.572242	0.728173	2.783860	3.997523	-0.212833	2.078964	-0.000404	-1.102539	0.093750	-0.010498	0.124920	-0.011948	0.064439	0.102247	-0.545140	-0.121165	-0.823218	13.164715	-67.266843	-174.619024						
07065		12.940832	-0.657539	7.496668	1.228093	2.437747	4.905988	0.086300	1.972216	0.152941	-1.104736	0.095703	-0.028564	0.130144	-0.006508	0.073683	0.104324	-0.537111	-0.120076	-0.828378	12.428036	-66.193686	-173.763214						
07066		12.773118	0.035535	8.793363	2.414044	2.118900	5.358258	0.301855	1.023200	0.190565	-1.098145	0.095947	-0.028809	0.128178	0.000345	0.087279	0.106571	-0.532857	-0.120255	-0.830810	12.073307	-65.648987	-173.185609						
07067		12.199523	0.392404	7.816573	1.813289	1.492062	4.489986	0.727043	0.399949	0.129946	-1.111572	0.093262	-0.035156	0.122149	0.003720	0.077935	0.109311	-0.530948	-0.122703	-0.831318	12.218416	-65.449994	-172.887295						
07068		11.444084	0.777205	6.109632	0.721273	0.659383	3.146598	1.250358	0.404451	0.029138	-1.100342	0.095703	-0.042236	0.114563	0.007408	0.060912	0.113016	-0.528648	-0.127579	-0.831554	12.783367	-65.235342	-172.721701						
07069		10.429325	1.441680	4.460151	-0.096080	-0.394531	1.614329	1.655976	0.313799	-0.096925	-1.102295	0.086914	-0.039307	0.104370	0.013997	0.044555	0.117209	-0.526395	-0.134528	-0.831308	13.754933	-65.057017	-172.746669						
07070		9.431644	2.084289	3.101295	-0.626305	-1.333893	0.224544	1.868476	0.002790	-0.221088	-1.111328	0.091064	-0.044189	0.094340	0.020448	0.031204	0.121215	-0.525175	-0.142852	-0.830115	15.084256	-65.031899	-173.033314						
07071		8.569980	2.484904	1.967659	-1.045309	-1.986018	-0.955313	1.870561	-0.471554	-0.323233	-1.106689	0.086670	-0.039307	0.085693	0.024524	0.020109	0.124464	-0.525810	-0.151734	-0.827653	16.696225	-65.250556	-173.628573						
07072		8.164996	3.011640	0.957782	-1.452086	-2.744657	-1.626658	1.843138	-0.974920	-0.377508	-1.108643	0.080078	-0.027832	0.081658	0.029870	0.010252	0.127016	-0.528443	-0.160934	-0.823842	18.571021	-65.725842	-174.529415						
07073		8.276664	3.856380	0.221826	-1.678091	-3.717289	-1.640341	1.645358	-1.305322	-0.384568	-1.110840	0.075684	-0.013916	0.082822	0.038382	0.003075	0.128741	-0.532503	-0.169538	-0.819221	20.541945	-66.366465	-175.654367						
07074		9.124976	4.436593	-0.290951	-2.093252	-4.384212	-0.900461	1.271279	-1.196477	-0.369408	-1.105957	0.071289	-0.004639	0.091346	0.044212	-0.002082	0.129599	-0.536318	-0.176480	-0.815121	22.306412	-66.936450	-176.783881						
07075		10.087246	4.344236	-0.249396	-2.385498	-4.219916	0.045710	0.934203	-0.493434	-0.389471	-1.112549	0.066650	-0.002197	0.100962	0.043256	-0.002043	0.130097	-0.537439	-0.181639	-0.813167	23.584974	-67.119467	-177.591091						
07076		10.460536	4.168400	0.265624	-2.181632	-3.792239	0.566517	0.606692	0.645601	-0.507881	-1.112305	0.057861	-0.012939	0.104719	0.041411	0.002444	0.130252	-0.534009	-0.185039	-0.814634	24.205440	-66.671270	-177.888456						
07077		10.051048	4.336392	0.900595	-1.548648	-3.649284	0.430390	0.246795	1.724908	-0.623052	-1.121094	0.057373	-0.032959	0.100718	0.043040	0.008191	0.129981	-0.526292	-0.186567	-0.819338	24.166592	-65.633142	-177.691268						
07078		8.893102	4.784357	1.882252	-0.288555	-3.630684	-0.207970	-0.268130	2.277759	-0.607264	-1.114258	0.055176	-0.062012	0.089282	0.047597	0.017743	0.128911	-0.516577	-0.185566	-0.825891	23.563493	-64.305073	-177.195552						
07079		8.070812	4.862100	2.997131	0.779027	-3.260994	-0.511321	-1.030513	2.022316	-0.536068	-1.120605	0.046143	-0.070557	0.081134	0.048555	0.028902	0.125921	-0.508428	-0.181370	-0.832316	22.623637	-63.128415	-176.805775						
07080		8.357735	4.272044	4.049800	1.087170	-2.375220	0.070482	-1.877706	0.873958	-0.457457	-1.118408	0.046143	-0.079590	0.083850	0.042904	0.039730	0.120051	-0.505581	-0.174147	-0.836450	21.650041	-62.573073	-176.920637						
07081		9.078506	3.649762	4.651956	0.947592	-1.672852	0.849567	-2.534015	-0.679296	-0.359454	-1.118164	0.037354	-0.061035	0.090694	0.036923	0.046362	0.111560	-0.509655	-0.164840	-0.837039	20.842150	-62.870833	-177.645092						
07082		9.413704	2.952412	4.852793	0.792806	-1.045675	1.103348	-3.039618	-1.793630	-0.240568	-1.122559	0.037354	-0.038574	0.093736	0.030153	0.048915	0.101321	-0.518660	-0.153701	-0.834926	20.073766	-63.796564	-178.734356						
07083		9.198150	2.119440	4.313918	0.329638	-0.549297	0.545595	-3.471635	-2.097415	-0.103505	-1.118164	0.039795	-0.011719	0.091536	0.021903	0.043725	0.090274	-0.529056	-0.140497	-0.831992	19.036457	-64.918724	-179.790038						
07084		8.556489	0.874599	3.225541	-0.525937	0.187965	-0.643829	-3.540233	-1.783495	0.020626	-1.111328	0.037842	0.004150	0.085273	0.009333	0.032855	0.079724	-0.538092	-0.126490	-0.829519	17.691429	-65.906935	179.457922						
07085		8.172716	-0.282621	2.301370	-1.344089	0.963422	-1.480019	-3.109022	-1.159910	-0.026296	-1.111328	0.035645	0.015381	0.081591	-0.002474	0.023527	0.070528	-0.544119	-0.114097	-0.828217	16.381111	-66.547461	178.943331						
07086		8.285251	-0.900788	2.017602	-1.693682	1.457840	-1.534207	-2.299260	-0.500437	-0.160581	-1.108887	0.033447	0.015625	0.082794	-0.008840	0.020486	0.063316	-0.546967	-0.105177	-0.828104	15.454852	-66.810795	178.516873						
07087		8.347985	-1.037829	2.254498	-1.497240	1.638555	-1.391161	-1.331593	0.063334	-0.286584	-1.115723	0.031006	0.017822	0.083472	-0.010348	0.022588	0.058544	-0.547029	-0.100409	-0.829005	15.034403	-66.742096	178.144291						
07088		8.139052	-0.834816	2.853816	-0.852522	1.579885	-1.335522	-0.433370	0.540695	-0.402197	-1.117676	0.024414	0.011719	0.081450	-0.008450	0.028336	0.055969	-0.544783	-0.099545	-0.830765	15.113814	-66.393234	177.786648						
07089		7.638288	-0.474899	3.487692	-0.078614	1.384213	-1.517507	0.247784	0.968827	-0.486952	-1.115234	0.021973	-0.003906	0.076539	-0.004978	0.034500	0.055128	-0.540505	-0.101612	-0.833361	15.527659	-65.793632	177.489378						
07090		6.954987	-0.002660	3.806282	0.481078	1.019385	-1.964893	0.680787	1.277211	-0.516455	-1.114990	0.015381	-0.019287	0.069790	-0.000335	0.037617	0.055473	-0.534786	-0.105477	-0.836541	16.103188	-65.018329	177.284935						
07091		6.189181	0.483792	3.909402	0.889147	0.597411	-2.554939	0.835689	1.302632	-0.483283	-1.112549	0.012939	-0.034912	0.062156	0.004526	0.038709	0.056395	-0.528900	-0.109885	-0.839648	16.694190	-64.233688	177.160896						
07092		5.348620	0.909139	3.818311	1.179014	0.183544	-3.286624	0.681148	0.988447	-0.390035	-1.112305	0.008545	-0.039063	0.053692	0.008857	0.037949	0.057120	-0.524390	-0.113479	-0.841947	17.180953	-63.634686	177.053105						
07093		4.715109	1.107803	3.701262	1.354247	-0.026544	-3.869285	0.289600	0.407016	-0.240324	-1.116455	0.001709	-0.045410	0.047240	0.010968	0.036932	0.057122	-0.522523	-0.115197	-0.842874	17.468144	-63.380611	176.917732						
07094		4.748495	1.089469	3.641547	1.275498	-0.013002	-3.865508	-0.120072	-0.183614	-0.117606	-1.116699	0.006348	-0.038818	0.047458	0.010889	0.036453	0.056222	-0.523330	-0.115036	-0.842455	17.589272	-63.469939	176.704938						
07095		4.964223	1.014967	3.756188	1.283216	0.089998	-3.637918	-0.386796	-0.505929	0.009451	-1.112305	0.006348	-0.030029	0.049547	0.010225	0.037668	0.054983	-0.525641	-0.113508	-0.841305	17.530455	-63.757499	176.523320						
07096		4.962937	0.937422	3.804551	1.341592	0.160941	-3.635454	-0.601992	-0.508460	0.087761	-1.116699	0.004150	-0.027588	0.049528	0.009511	0.038143	0.053504	-0.528068	-0.110865	-0.840232	17.262110	-64.061382	176.437696						
07097		5.083812	0.782384	3.823536	1.302185	0.290294	-3.543989	-0.836995	-0.348990	0.130679	-1.110107	0.006348	-0.025391	0.050766	0.008017	0.038291	0.051673	-0.529893	-0.107081	-0.839689	16.752104	-64.284035	176.471633						
07098		5.452637	0.733216	3.581764	0.941955	0.253885	-3.320692	-0.904689	-0.233056	0.163915	-1.112305	0.008545	-0.025635	0.054478	0.007539	0.035847	0.049856	-0.531256	-0.102891	-0.839461	16.122266	-64.448381	176.594824						
07099		5.884610	0.957142	3.324975	0.593206	-0.046273	-3.012241	-0.653659	-0.292459	0.206098	-1.116943	0.010742	-0.014404	0.058787	0.009741	0.033304	0.048858	-0.532816	-0.099656	-0.838921	15.601497	-64.651349	176.756906						
07100		6.229550	1.504330	2.987381	0.282838	-0.667524	-2.779267	-0.139392	-0.566139	0.249105	-1.115234	0.021973	-0.012939	0.062192	0.015142	0.030039	0.049268	-0.535416	-0.098528	-0.837374	15.410204	-65.011788	176.879552						
07101		6.608707	1.943923	3.062238	0.332999	-1.074754	-2.358517	0.382893	-0.940444	0.303397	-1.110596	0.020020	0.000732	0.065912	0.019480	0.030970	0.051125	-0.539467	-0.099533	-0.834538	15.574223	-65.586972	176.940607						
07102		7.133869	2.127672	3.545495	0.675440	-1.123804	-1.672081	0.537248	-1.192255	0.308988	-1.113037	0.022217	0.016113	0.071093	0.021291	0.035936	0.053298	-0.544517	-0.101222	-0.830912	15.909455	-66.302644	176.910394						
07103		7.943042	2.147134	4.067579	0.927395	-0.991996	-0.735117	0.347823	-1.059770	0.264148	-1.110840	0.024414	0.022705	0.079185	0.021505	0.041133	0.054830	-0.549018	-0.102213	-0.827723	16.156059	-66.937542	176.858962						
07104		8.845377	2.301213	4.489786	1.065436	-1.021857	0.262771	0.070647	-0.505166	0.210145	-1.110840	0.024414	0.025146	0.088316	0.023089	0.045129	0.055655	-0.551265	-0.102049	-0.826193	16.109643	-67.259088	176.952939						
07105		9.780204	2.521968	4.700715	0.962381	-1.183031	1.222875	-0.093116	0.152693	0.151189	-1.106445	0.026855	0.022705	0.097819	0.025315	0.046921	0.056125	-0.550803	-0.101189	-0.826575	15.796238	-67.208289	177.235079						
07106		10.791165	2.666590	4.990949	0.832632	-1.267509	2.277365	-0.141451	0.444075	0.158903	-1.115723	0.031006	0.013428	0.108001	0.026787	0.049651	0.056634	-0.549146	-0.100026	-0.827784	15.342528	-66.996107	177.639298						
07107		11.943803	2.705752	5.676743	0.965480	-1.170686	3.599919	-0.113252	0.339847	0.238399	-1.104736	0.038086	0.015137	0.119502	0.027232	0.056549	0.057504	-0.547956	-0.098790	-0.828660	14.844501	-66.853155	178.110217						
07108		12.376455	2.611852	6.714079	1.670685	-0.886080	4.382404	-0.182789	0.329032	0.235092	-1.106934	0.037842	0.010742	0.123844	0.026325	0.066913	0.058167	-0.546817	-0.097276	-0.829545	14.319171	-66.712851	178.567887						
07109		11.826762	2.373152	6.987718	2.020948	-0.648438	3.965074	-0.269466	0.712030	0.108449	-1.106689	0.033447	0.004395	0.118502	0.023889	0.069423	0.058251	-0.544057	-0.095638	-0.831542	13.792928	-66.341636	178.973394						
07110		10.852292	2.243555	6.748296	2.064112	-0.629147	2.981350	-0.214211	1.012242	0.027626	-1.111328	0.037842	-0.007080	0.108859	0.022522	0.066908	0.058286	-0.539976	-0.094362	-0.834341	13.324878	-65.789926	179.351061						
07111		10.223052	2.339793	6.343077	1.871270	-0.848900	2.270231	-0.056897	0.827771	0.021712	-1.109131	0.035400	-0.020508	0.102489	0.023427	0.063000	0.058639	-0.536612	-0.093808	-0.836546	13.022749	-65.340372	179.647218						
07112		10.471438	2.773867	6.320623	1.766249	-1.292508	2.536614	0.136982	0.385477	0.068360	-1.106689	0.033203	-0.022705	0.104826	0.027731	0.063023	0.059494	-0.535046	-0.094070	-0.837459	12.906651	-65.141755	179.861439						
07113		11.810003	3.254682	6.591382	1.523668	-1.707357	3.908784	0.117034	0.002980	0.132645	-1.109131	0.037842	-0.018311	0.118079	0.032587	0.065931	0.060389	-0.535127	-0.094189	-0.837329	12.807882	-65.166398	-179.955708						
07114		13.624466	3.307723	6.609208	0.817095	-1.776064	5.563476	-0.159260	-0.276307	0.227133	-1.109619	0.046631	-0.012207	0.136115	0.033285	0.066254	0.060799	-0.536495	-0.092987	-0.836558	12.513295	-65.357341	-179.731945						
07115		14.532265	2.707078	6.152939	-0.017226	-1.342615	6.142556	-0.514393	-0.509502	0.336830	-1.102295	0.037842	-0.009521	0.145119	0.027474	0.061829	0.060617	-0.539001	-0.090071	-0.835279	11.934697	-65.692878	-179.419935						
07116		13.624212	1.516292	5.500748	-0.378999	-0.387375	4.948137	-0.765442	-0.428911	0.328887	-1.100586	0.049072	-0.003418	0.136098	0.015598	0.055240	0.059751	-0.541228	-0.086105	-0.834319	11.190737	-65.980008	-179.085266						
07117		12.020570	0.393007	4.404385	-0.875201	0.427875	2.958289	-0.858699	-0.079642	0.160872	-1.096191	0.051514	-0.008057	0.120185	0.004216	0.044074	0.058090	-0.541947	-0.082095	-0.834374	10.508641	-66.051482	-178.877091						
07118		10.786525	-0.155270	3.357465	-1.393915	0.726830	1.375451	-0.624812	-0.103171	0.035083	-1.093994	0.051514	-0.001465	0.107848	-0.001429	0.033635	0.056522	-0.542628	-0.079409	-0.834298	10.124747	-66.121322	-178.848674						
07119		10.080019	-0.302469	2.802851	-1.590990	0.758301	0.504660	-0.226202	-0.575597	0.047915	-1.103027	0.051270	0.005371	0.100720	-0.002969	0.028322	0.055906	-0.545175	-0.078482	-0.832766	10.058897	-66.460095	-178.918191						
07120		9.702072	-0.260492	2.637131	-1.494523	0.695807	0.108690	0.101098	-1.116500	0.084679	-1.100830	0.055908	0.016357	0.096873	-0.002577	0.026911	0.056117	-0.549882	-0.078969	-0.829605	10.263382	-67.106927	-179.077695						
07121		9.871119	-0.340404	2.309298	-1.731855	0.726637	0.155163	0.168572	-1.660935	0.175039	-1.101074	0.055908	0.036621	0.098518	-0.003338	0.023909	0.056675	-0.556839	-0.079634	-0.824850	10.530639	-68.070333	-179.262190						
07122		10.214901	-0.673908	1.679021	-2.300306	0.946158	0.258389	0.024183	-2.169748	0.282377	-1.101074	0.058350	0.063232	0.101968	-0.006597	0.017896	0.057064	-0.565921	-0.079542	-0.818627	10.717910	-69.330890	-179.448286						
07123		10.973653	-1.206930	0.673555	-3.348990	1.281833	0.649941	-0.079536	-2.400171	0.396906	-1.096924	0.065186	0.089844	0.109669	-0.011849	0.008057	0.057530	-0.575948	-0.078755	-0.811648	10.755172	-70.733681	-179.536302						
07124		12.100429	-1.931390	-0.119274	-4.334743	1.835626	1.500998	0.004934	-2.140227	0.484242	-1.090332	0.070068	0.112061	0.121054	-0.019021	0.000102	0.058686	-0.584857	-0.077974	-0.805244	10.616546	-72.000174	-179.387199						
07125		12.547702	-2.554535	-0.424694	-4.676154	2.373996	1.876903	0.097518	-1.206641	0.360456	-1.094971	0.069824	0.116455	0.125545	-0.025317	-0.003502	0.059976	-0.589879	-0.077648	-0.801509	10.422224	-72.726908	-179.124559						
07126		11.889333	-2.606574	-0.332900	-4.345030	2.430734	1.299173	0.153055	0.231455	0.059233	-1.086182	0.074463	0.111572	0.118897	-0.026028	-0.003487	0.060776	-0.588992	-0.077999	-0.802067	10.318214	-72.611920	-178.923985						
07127		10.507853	-2.355921	-0.041710	-3.698665	2.232362	0.051462	0.245998	1.439243	-0.101602	-1.095215	0.076416	0.095947	0.105060	-0.023611	-0.001202	0.061678	-0.583154	-0.078828	-0.806172	10.172103	-71.799365	-178.622400						
07128		9.464788	-2.081378	0.541238	-2.936168	2.060078	-0.793844	0.520607	1.796642	-0.015238	-1.095215	0.078613	0.075439	0.094689	-0.020834	0.004508	0.063871	-0.575776	-0.080392	-0.811135	9.953732	-70.792501	-178.076927						
07129		9.195753	-1.765175	1.586339	-1.972192	1.937022	-0.726931	0.860362	1.334729	0.116753	-1.097656	0.083008	0.057373	0.092071	-0.017664	0.015173	0.067381	-0.570181	-0.083100	-0.814523	9.883030	-70.059965	-177.478598						
07130		9.698622	-1.058542	2.730872	-1.051655	1.468182	0.156237	1.167708	0.587484	0.162937	-1.088867	0.085449	0.059326	0.097074	-0.010664	0.026962	0.071657	-0.567503	-0.087166	-0.815603	10.127641	-69.752391	-177.026376						
07131		10.173280	-0.218935	3.599730	-0.288130	0.853312	0.943255	1.558999	0.116399	0.152132	-1.093262	0.087646	0.063721	0.101755	-0.002392	0.035920	0.076775	-0.566583	-0.093032	-0.815128	10.748680	-69.711884	-176.736096						
07132		9.763296	0.432970	3.907197	0.265157	0.350977	0.703098	1.907046	0.082646	0.088907	-1.093750	0.094238	0.054443	0.097647	0.004001	0.039071	0.082613	-0.565600	-0.100491	-0.814354	11.669171	-69.685597	-176.552539						
07133		8.718846	0.955958	3.605693	0.467366	-0.142637	-0.342001	2.100773	0.215037	0.017506	-1.093750	0.094238	0.052246	0.087226	0.009188	0.036061	0.088752	-0.563899	-0.108886	-0.813809	12.769662	-69.576675	-176.442384						
07134		7.636012	1.324562	3.077475	0.452922	-0.550732	-1.504550	2.159430	0.256691	-0.021747	-1.095947	0.093994	0.045410	0.076401	0.012905	0.030817	0.094932	-0.561916	-0.117586	-0.813273	13.934813	-69.440259	-176.365118						
07135		7.003063	1.528444	2.848913	0.520934	-0.732853	-2.151974	2.072819	0.206890	-0.066424	-1.091309	0.091797	0.036621	0.070065	0.014965	0.028573	0.100625	-0.560087	-0.126083	-0.812576	15.135869	-69.325425	-176.379343						
07136		6.890007	1.822956	2.883151	0.679049	-0.932718	-2.211604	1.906123	0.143585	-0.109461	-1.098145	0.096191	0.040771	0.068931	0.017916	0.028954	0.105642	-0.558504	-0.134033	-0.811757	16.317748	-69.237334	-176.475056						
07137		6.933370	2.167475	3.180391	1.037659	-1.092269	-2.027168	1.610591	0.114882	-0.126254	-1.091064	0.085205	0.034668	0.069366	0.021374	0.031937	0.109722	-0.557150	-0.140845	-0.810992	17.368237	-69.162913	-176.611534						
07138		6.743299	2.292184	3.455942	1.386367	-1.051430	-2.089864	1.118140	0.160191	-0.124937	-1.091064	0.089600	0.034424	0.067475	0.022686	0.034633	0.112472	-0.555847	-0.145617	-0.810666	18.106470	-69.062197	-176.715905						
07139		6.561629	2.245586	3.432559	1.405393	-0.976038	-2.266017	0.617249	0.247438	-0.095164	-1.097900	0.091797	0.029785	0.065669	0.022319	0.034313	0.114001	-0.554492	-0.148232	-0.810907	18.475385	-68.920054	-176.732138						
07140		6.465215	1.956685	3.374676	1.271622	-0.712567	-2.403825	0.260248	0.323189	-0.034234	-1.097900	0.091797	0.027588	0.064710	0.019512	0.033668	0.114855	-0.553063	-0.149178	-0.811588	18.512961	-68.746671	-176.612311						
07141		6.384709	1.457265	3.432130	1.154713	-0.228924	-2.513247	-0.067457	0.314648	0.007525	-1.097900	0.089355	0.023193	0.063900	0.014587	0.034216	0.114954	-0.551897	-0.148691	-0.812457	18.314455	-68.586563	-176.440584						
07142		6.092863	1.074385	3.149265	0.867186	0.016554	-2.924811	-0.276654	0.200998	0.009370	-1.098145	0.093994	0.020752	0.060960	0.010790	0.031416	0.114409	-0.551303	-0.147408	-0.813171	18.044083	-68.487252	-176.320145						
07143		5.707659	0.810401	2.965722	0.752297	0.191867	-3.376318	-0.324794	0.030565	-0.013266	-1.097900	0.091797	0.027588	0.057082	0.008148	0.029635	0.113503	-0.551420	-0.146094	-0.813455	17.858905	-68.477817	-176.321016						
07144		5.669480	0.576629	3.029820	0.745989	0.424887	-3.415948	-0.417534	-0.133703	-0.045217	-1.102295	0.089355	0.023438	0.056676	0.005817	0.030324	0.112103	-0.552229	-0.144577	-0.813372	17.733703	-68.551994	-176.443279						
07145		5.897783	0.306246	3.094435	0.639512	0.688518	-3.211921	-0.435309	-0.207303	-0.051114	-1.095947	0.093994	0.027588	0.058947	0.003115	0.030999	0.110564	-0.553344	-0.143052	-0.813094	17.643778	-68.665817	-176.614455						
07146		6.267130	0.158009	3.234604	0.595172	0.862824	-2.836598	-0.412981	-0.238204	-0.024548	-1.102539	0.091553	0.034424	0.062633	0.001639	0.032417	0.109184	-0.554580	-0.141553	-0.812700	17.539508	-68.800395	-176.756203						
07147		6.612739	-0.032395	3.312352	0.498971	1.055591	-2.509419	-0.327289	-0.329176	0.049430	-1.100342	0.091797	0.036621	0.066073	-0.000253	0.033233	0.108265	-0.556197	-0.140253	-0.811944	17.424789	-68.998350	-176.834127						
07148		6.937784	-0.322367	3.405510	0.403647	1.348821	-2.206645	-0.288216	-0.488074	0.097884	-1.098145	0.091797	0.045654	0.069296	-0.003141	0.034229	0.107549	-0.558466	-0.139056	-0.810687	17.330732	-69.291535	-176.910063						
07149		7.378063	-0.555060	3.486030	0.290386	1.586077	-1.794201	-0.258241	-0.606525	0.077892	-1.098145	0.093994	0.050049	0.073677	-0.005477	0.035091	0.106742	-0.561180	-0.138104	-0.809080	17.341304	-69.646112	-177.079237						
07150		8.063386	-0.595837	3.507084	0.112298	1.624988	-1.151313	-0.183495	-0.608659	0.029818	-1.100342	0.093994	0.058838	0.080528	-0.005914	0.035321	0.105956	-0.563825	-0.137583	-0.807432	17.468120	-69.993799	-177.326363						
07151		8.681550	-0.493516	3.572049	0.040883	1.554485	-0.541542	-0.011408	-0.475951	-0.045383	-1.104980	0.093994	0.063477	0.086729	-0.004953	0.035927	0.105434	-0.565786	-0.137904	-0.806073	17.754130	-70.255410	-177.637326						
07152		9.017442	-0.336928	3.697255	0.116793	1.465620	-0.172369	0.197161	-0.190499	-0.127495	-1.096191	0.098633	0.069824	0.090137	-0.003463	0.037055	0.105375	-0.566428	-0.139139	-0.805417	18.147457	-70.346595	-177.935173						
07153		9.086520	-0.137150	3.905242	0.335506	1.369940	-0.022633	0.337871	0.203090	-0.161769	-1.097656	0.085205	0.059570	0.090904	-0.001511	0.038958	0.105843	-0.565384	-0.140837	-0.805793	18.480580	-70.216580	-178.083292						
07154		9.321023	0.094828	4.142160	0.499914	1.245182	0.299052	0.330930	0.515673	-0.136236	-1.100098	0.089600	0.052490	0.093317	0.000816	0.041183	0.106621	-0.563100	-0.142261	-0.807039	18.607716	-69.921515	-178.016981						
07155		9.832917	0.168431	4.498981	0.599615	1.297282	0.907040	0.232780	0.628751	-0.100539	-1.104492	0.084961	0.046143	0.098471	0.001583	0.044682	0.107338	-0.560430	-0.143135	-0.808646	18.574093	-69.571285	-177.838869						
07156		10.436745	0.250136	4.841054	0.648585	1.328571	1.599494	0.148383	0.571274	-0.091534	-1.095459	0.087402	0.041260	0.104506	0.002418	0.048114	0.107818	-0.558032	-0.143664	-0.810146	18.507508	-69.252948	-177.677159						
07157		10.958159	0.230631	5.214917	0.726195	1.465434	2.214561	0.024432	0.422334	-0.093755	-1.102295	0.084961	0.030273	0.109692	0.002249	0.051918	0.107830	-0.556306	-0.143785	-0.811309	18.450319	-69.016000	-177.600864						
07158		11.306019	0.148172	5.534186	0.806248	1.639454	2.642721	-0.193383	0.365428	-0.098776	-1.102051	0.082764	0.030518	0.113162	0.001479	0.055134	0.107181	-0.554912	-0.143057	-0.812477	18.300151	-68.807857	-177.558907						
07159		11.511621	0.069855	5.635051	0.746568	1.723553	2.865947	-0.355111	0.476841	-0.096339	-1.104492	0.084961	0.028076	0.115250	0.000743	0.056075	0.106166	-0.553161	-0.141613	-0.814056	18.009298	-68.540623	-177.464984						
07160		11.619745	-0.049709	5.570060	0.552719	1.777492	2.938040	-0.416577	0.583614	-0.066356	-1.099854	0.082764	0.019287	0.116359	-0.000420	0.055362	0.105183	-0.551015	-0.139769	-0.815955	17.596710	-68.219266	-177.278315						
07161		11.785269	-0.208531	5.692352	0.479202	1.924109	3.125879	-0.420301	0.640443	-0.038618	-1.099854	0.080566	0.014893	0.118034	-0.001989	0.056550	0.104335	-0.548659	-0.137810	-0.817982	17.132704	-67.871991	-177.037562						
07162		12.121228	-0.230477	5.821488	0.378483	1.935833	3.490524	-0.314082	0.757963	-0.016375	-1.101807	0.073730	0.006348	0.121432	-0.002224	0.057758	0.103954	-0.545766	-0.136152	-0.820241	16.659882	-67.462197	-176.721482						
07163		12.588858	0.040964	5.943413	0.291449	1.664532	4.005717	-0.063888	0.886623	0.028126	-1.110840	0.075684	-0.004883	0.126150	0.000446	0.058875	0.104520	-0.542244	-0.135339	-0.822636	16.239723	-66.989079	-176.305387						
07164		13.005348	0.462307	6.289145	0.444040	1.332869	4.572410	0.269781	0.907707	0.081380	-1.101807	0.078125	-0.018555	0.130335	0.004592	0.062307	0.106214	-0.538476	-0.135734	-0.824827	15.949353	-66.510305	-175.822104						
07165		13.413958	1.028047	6.793593	0.785538	0.939966	5.208716	0.564180	0.692811	0.068719	-1.099854	0.082520	-0.023438	0.134370	0.010136	0.067499	0.108508	-0.535427	-0.137494	-0.826220	15.933412	-66.148941	-175.451641						
07166		13.171945	1.495592	6.927361	1.068615	0.566621	5.095761	0.719468	0.413172	0.016453	-1.106689	0.084473	-0.023438	0.131861	0.014718	0.069055	0.110809	-0.533390	-0.140176	-0.826781	16.170915	-65.931640	-175.261193						
07167		13.001384	1.831007	6.379246	0.732267	0.103806	4.765928	0.890004	0.270037	-0.004554	-1.106201	0.073486	-0.029541	0.130100	0.018024	0.063697	0.113373	-0.531840	-0.143705	-0.826826	16.585222	-65.791986	-175.156289						
07168		13.307431	1.900472	5.576627	-0.068117	-0.205669	4.738980	1.081005	-0.012798	0.022908	-1.106201	0.075684	-0.020752	0.133069	0.018718	0.055876	0.116350	-0.531348	-0.148099	-0.825953	17.175910	-65.811088	-175.125819						
07169		12.838003	2.011540	4.687391	-0.560450	-0.546744	3.979281	1.238292	-0.397281	-0.023219	-1.113037	0.077881	-0.020752	0.128289	0.019809	0.047252	0.119268	-0.532307	-0.153491	-0.823932	18.064564	-66.033564	-175.321942						
07170		11.353022	2.180338	3.546696	-0.807145	-1.003907	2.210789	1.250156	-0.409854	-0.106054	-1.108643	0.077881	-0.016357	0.113469	0.021520	0.035835	0.121853	-0.533224	-0.159147	-0.821886	19.076771	-66.246005	-175.646734						
07171		9.932475	2.506851	2.287701	-1.126391	-1.680704	0.486726	1.121419	-0.352833	-0.183149	-1.110596	0.071045	-0.015869	0.099307	0.024848	0.023192	0.123827	-0.533903	-0.164446	-0.820105	20.096690	-66.410895	-176.058682						
07172		8.855410	2.812993	1.215302	-1.434758	-2.303529	-0.843685	0.941132	-0.415581	-0.200889	-1.117188	0.066650	-0.011230	0.088557	0.027983	0.012469	0.125184	-0.534916	-0.169080	-0.818295	21.073564	-66.602117	-176.536945						
07173		8.562134	3.007079	0.598931	-1.712287	-2.676889	-1.291342	0.681503	-0.530652	-0.205723	-1.110352	0.066895	-0.002197	0.085636	0.029962	0.006319	0.125734	-0.536549	-0.172739	-0.816375	21.976310	-66.851352	-177.094477						
07174		9.002445	3.316959	0.433068	-1.857867	-2.990001	-0.877272	0.384763	-0.544736	-0.224868	-1.108154	0.064697	0.006836	0.090049	0.033060	0.004640	0.125381	-0.538397	-0.175241	-0.814677	22.756300	-67.099757	-177.703579						
07175		9.664146	3.651877	0.643979	-1.779924	-3.174660	-0.122491	0.144317	-0.254989	-0.258027	-1.114746	0.064453	0.002441	0.096680	0.036389	0.006589	0.124514	-0.539186	-0.176673	-0.813979	23.295864	-67.186053	-178.199275						
07176		9.940279	3.864867	1.088229	-1.455860	-3.162502	0.326806	-0.091048	0.473017	-0.318958	-1.114502	0.060059	-0.008545	0.099490	0.038495	0.010630	0.123396	-0.537102	-0.176854	-0.815486	23.385843	-66.874141	-178.354531						
07177		9.368877	3.992220	1.368347	-1.047758	-3.166504	-0.093648	-0.357232	1.339469	-0.370682	-1.119141	0.062012	-0.010986	0.093851	0.039772	0.012984	0.122125	-0.531588	-0.175551	-0.819562	22.934864	-66.094665	-178.085819						
07178		8.115024	4.010185	1.580904	-0.509918	-3.120943	-1.185320	-0.666904	1.807920	-0.360296	-1.118896	0.055176	-0.039551	0.081360	0.040006	0.014941	0.120472	-0.524309	-0.172651	-0.825093	22.097108	-65.067701	-177.585854						
07179		7.089768	3.812466	1.901434	-0.045841	-2.847382	-2.047165	-1.051721	1.604946	-0.371530	-1.118652	0.050781	-0.050537	0.071117	0.038090	0.018244	0.117581	-0.518045	-0.168301	-0.830349	21.194972	-64.144106	-177.254183						
07180		6.993400	3.463625	2.404395	0.158465	-2.375718	-2.001456	-1.407601	0.775623	-0.417386	-1.120850	0.048340	-0.054932	0.070098	0.034657	0.023528	0.112866	-0.515347	-0.163065	-0.833720	20.519956	-63.652531	-177.400850						
07181		7.605314	2.995718	3.245878	0.355434	-1.669712	-1.185030	-1.736663	-0.274205	-0.436149	-1.116211	0.044189	-0.045654	0.076074	0.030072	0.032302	0.106365	-0.517162	-0.157088	-0.834598	20.106975	-63.722737	-178.050065						
07182		8.272767	2.512579	3.987507	0.533946	-0.990597	-0.358316	-2.212092	-1.092761	-0.411724	-1.113770	0.044189	-0.036865	0.082561	0.025398	0.040047	0.098073	-0.522614	-0.149480	-0.833614	19.730338	-64.241824	-179.041655						
07183		8.461269	2.019255	3.981802	0.372251	-0.577612	-0.270574	-2.672390	-1.400067	-0.310501	-1.115723	0.033203	-0.015869	0.084364	0.020596	0.040136	0.088759	-0.529536	-0.139811	-0.831966	19.111461	-64.948815	179.948503						
07184		8.041117	1.261063	3.466632	-0.014047	-0.086691	-0.966301	-2.883560	-1.262747	-0.176119	-1.118164	0.039795	-0.002686	0.080202	0.013043	0.034987	0.079509	-0.535961	-0.128815	-0.830560	18.169336	-65.613390	179.166468						
07185		7.580962	0.111177	2.913613	-0.520595	0.787120	-1.745406	-2.752137	-0.944691	-0.121583	-1.111084	0.031250	0.011230	0.075672	0.001470	0.029475	0.071034	-0.540910	-0.118060	-0.829718	17.103249	-66.117662	178.606880						
07186		7.642182	-0.773604	2.602369	-0.951200	1.515406	-1.902448	-2.305376	-0.650651	-0.162119	-1.117920	0.031006	0.011230	0.076330	-0.007495	0.026359	0.063749	-0.544384	-0.109146	-0.829258	16.228278	-66.460676	178.119440						
07187		8.053518	-1.183919	2.620763	-1.122587	1.903183	-1.551535	-1.651379	-0.399394	-0.255386	-1.117920	0.028809	0.022461	0.080467	-0.011724	0.026465	0.057999	-0.546474	-0.103102	-0.829079	15.747667	-66.649867	177.612100						
07188		8.265052	-1.127865	2.993971	-0.822578	1.938250	-1.203765	-0.904688	-0.079992	-0.370579	-1.113037	0.024414	0.018311	0.082618	-0.011296	0.030024	0.053960	-0.546954	-0.100373	-0.829370	15.730888	-66.648014	177.065289						
07189		7.957649	-0.661599	3.353493	-0.291091	1.573688	-1.301139	-0.230851	0.323534	-0.462083	-1.114990	0.017822	0.016602	0.079615	-0.006761	0.033414	0.051599	-0.545507	-0.100576	-0.830448	16.063894	-66.406717	176.558155						
07190		7.476540	0.044859	3.576976	0.192140	0.952102	-1.581555	0.285613	0.714325	-0.488607	-1.119629	0.019775	0.005127	0.074893	0.000215	0.035503	0.050720	-0.542296	-0.102895	-0.832319	16.574702	-65.946350	176.178092						
07191		6.814252	0.618701	3.617521	0.539679	0.420721	-2.103316	0.598987	0.904019	-0.451144	-1.116943	0.008545	-0.005371	0.068319	0.005925	0.035885	0.050955	-0.538207	-0.106363	-0.834520	17.129246	-65.385230	175.946254						
07192		6.178355	0.841638	3.612551	0.777277	0.221055	-2.651855	0.628379	0.767795	-0.378416	-1.116699	0.004150	-0.016357	0.061937	0.008186	0.035914	0.051497	-0.534707	-0.109788	-0.836291	17.648813	-64.910826	175.770047						
07193		5.828659	1.068268	3.527212	0.854478	0.001271	-2.969776	0.417995	0.328034	-0.291769	-1.116699	0.001953	-0.009521	0.058360	0.010524	0.035199	0.051598	-0.533132	-0.112215	-0.836968	18.100686	-64.690204	175.535445						
07194		5.856945	1.303690	3.444750	0.811553	-0.223596	-2.945296	0.164336	-0.179393	-0.159827	-1.116699	0.004150	-0.007324	0.058549	0.012962	0.034511	0.051280	-0.533824	-0.113359	-0.836392	18.446229	-64.769327	175.256917						
07195		5.759750	1.376082	3.256077	0.723820	-0.332272	-3.101804	-0.030237	-0.503963	0.008275	-1.118896	0.004150	-0.000732	0.057515	0.013768	0.032704	0.050972	-0.536010	-0.113324	-0.835017	18.612375	-65.054198	175.054449						
07196		5.653411	1.225516	3.096999	0.633221	-0.228496	-3.285740	-0.137261	-0.576155	0.112235	-1.114502	0.004150	0.001465	0.056438	0.012308	0.031124	0.050768	-0.538594	-0.112576	-0.833466	18.627605	-65.399249	174.950669						
07197		5.894879	0.939349	3.139141	0.547309	0.061716	-3.090877	-0.223468	-0.463286	0.128704	-1.109863	0.002197	0.003906	0.058870	0.009467	0.031517	0.050466	-0.540719	-0.111400	-0.832266	18.528827	-65.683938	174.918638						
07198		6.282391	1.061040	3.237070	0.523015	-0.029610	-2.685387	-0.268681	-0.150625	0.093293	-1.116943	0.008789	0.001221	0.062795	0.010683	0.032404	0.050060	-0.541537	-0.110050	-0.831938	18.320810	-65.792732	174.977466						
07199		6.446128	1.392010	3.341475	0.615169	-0.335236	-2.453010	-0.212158	0.224793	0.094358	-1.107910	0.008789	0.005859	0.064492	0.013986	0.033327	0.050026	-0.540773	-0.108839	-0.832596	17.992984	-65.696769	175.203819						
07200		6.242520	1.710446	3.521606	0.898534	-0.627031	-2.526006	-0.075402	0.540868	0.134744	-1.117188	0.013184	-0.007813	0.062509	0.017160	0.035041	0.050702	-0.538679	-0.108005	-0.834020	17.575362	-65.434921	175.614757						
07201		6.035525	1.933233	3.816393	1.249640	-0.798333	-2.564885	0.073314	0.758373	0.155311	-1.114746	0.010742	-0.014648	0.060484	0.019365	0.037942	0.051980	-0.535644	-0.107683	-0.835935	17.148574	-65.056305	176.131098						
07202		6.284449	2.223884	4.449769	1.711681	-0.940217	-2.039256	0.119839	0.838675	0.154346	-1.119141	0.010742	-0.021240	0.063013	0.022261	0.044247	0.053423	-0.532248	-0.107532	-0.838031	16.734047	-64.631225	176.664683						
07203		6.855798	2.731441	5.120688	2.104081	-1.277795	-1.174174	0.042603	0.787123	0.160323	-1.116943	0.010742	-0.030273	0.068737	0.027359	0.050942	0.054656	-0.529087	-0.107057	-0.840011	16.302789	-64.234491	177.169924						
07204		7.288467	3.159589	5.864926	2.608040	-1.534591	-0.413484	-0.168244	0.487876	0.209521	-1.112793	0.017578	-0.037354	0.072994	0.031722	0.058445	0.055368	-0.527259	-0.105648	-0.841291	15.806538	-64.008019	177.613970						
07205		7.656960	3.101522	6.141114	2.662388	-1.446740	0.025005	-0.359417	-0.050922	0.314248	-1.114990	0.017334	-0.032959	0.076505	0.031246	0.061375	0.055741	-0.527804	-0.103306	-0.841216	15.256344	-64.093838	177.996947						
07206		8.243134	2.643598	6.115904	2.330163	-1.040513	0.474650	-0.245499	-0.579815	0.390536	-1.113037	0.026367	-0.026611	0.082202	0.026672	0.061365	0.056455	-0.530572	-0.101388	-0.839659	14.842470	-64.481520	178.299955						
07207		9.338110	2.416874	6.136859	1.918071	-0.826105	1.427429	0.124204	-0.842038	0.416888	-1.113037	0.026611	-0.013184	0.093071	0.024325	0.061776	0.058133	-0.534344	-0.101025	-0.837192	14.680305	-65.018379	178.558044						
07208		10.538948	2.645150	6.389837	1.789957	-0.979883	2.626410	0.436791	-0.762238	0.399372	-1.113525	0.035400	-0.009277	0.105092	0.026521	0.064357	0.060606	-0.537670	-0.101991	-0.834767	14.686763	-65.508162	178.826267						
07209		11.494605	3.191854	6.591694	1.781377	-1.449965	3.621900	0.406006	-0.435241	0.320401	-1.106689	0.033447	-0.004639	0.114751	0.031968	0.066232	0.062837	-0.539590	-0.102940	-0.833245	14.662050	-65.805374	179.108830						
07210		12.151315	3.622358	6.691278	1.747613	-1.849420	4.296689	0.031879	-0.143837	0.251164	-1.109375	0.042236	-0.007568	0.121419	0.036365	0.067006	0.063915	-0.540370	-0.102427	-0.832721	14.411836	-65.929981	179.402885						
07211		12.469901	3.600738	6.490435	1.453068	-1.918133	4.498096	-0.476539	-0.002937	0.228469	-1.107178	0.042236	-0.007568	0.124657	0.036304	0.064820	0.063601	-0.540716	-0.099811	-0.832838	13.850542	-65.973019	179.718653						
07212		12.761425	3.223798	6.269002	1.056379	-1.677404	4.630891	-0.839320	0.020367	0.222596	-1.109375	0.044434	-0.005371	0.127584	0.032643	0.062541	0.062292	-0.541060	-0.095692	-0.833197	13.080155	-65.999254	-179.964300						
07213		13.673658	2.756329	6.272056	0.591721	-1.315055	5.413101	-1.000233	-0.034871	0.254277	-1.096191	0.049316	-0.005615	0.136690	0.028050	0.062605	0.060653	-0.541697	-0.090831	-0.833448	12.191871	-66.060007	-179.619245						
07214		15.135840	2.293341	6.767637	0.369651	-0.872901	6.898206	-1.083381	-0.178889	0.370109	-1.100586	0.046875	0.001221	0.151255	0.023580	0.067685	0.059202	-0.542987	-0.085354	-0.833292	11.143449	-66.211287	-179.151411						
07215		15.910707	1.657382	7.021029	0.216815	-0.341414	7.652321	-1.217920	-0.312403	0.463559	-1.096436	0.055908	0.007324	0.158958	0.017371	0.070354	0.057719	-0.544900	-0.079096	-0.832764	9.918458	-66.445103	-178.575697						
07216		15.209811	0.701423	6.474170	-0.110183	0.348206	6.728470	-1.370579	-0.149630	0.413646	-1.098877	0.060303	0.000488	0.152034	0.007773	0.064804	0.055664	-0.546131	-0.072291	-0.832717	8.622343	-66.576552	-178.018767						
07217		13.628245	-0.113397	5.063503	-0.865998	0.791292	4.678828	-1.268082	0.083861	0.266873	-1.094727	0.069336	0.001953	0.136305	-0.000631	0.050583	0.053368	-0.546285	-0.066242	-0.833269	7.523782	-66.559620	-177.613216						
07218		12.012109	-0.514268	3.640223	-1.560649	0.900279	2.619535	-0.757146	-0.053439	0.150342	-1.101318	0.064697	0.002441	0.120115	-0.004914	0.036453	0.051938	-0.546809	-0.062675	-0.833291	6.893760	-66.608343	-177.399112						
07219		10.815168	-0.576183	2.959445	-1.671760	0.849521	1.257154	-0.193277	-0.508916	0.060366	-1.094727	0.067139	0.015625	0.108078	-0.005700	0.029875	0.051529	-0.549061	-0.061820	-0.831898	6.776209	-66.911071	-177.391587						
07220		10.336119	-0.478972	2.455347	-1.846517	0.688369	0.637633	0.112082	-0.954490	0.017008	-1.099121	0.064941	0.027100	0.103243	-0.004795	0.025044	0.051636	-0.553061	-0.062470	-0.829189	6.965891	-67.463526	-177.527652						
07221		10.486424	-0.535624	1.910154	-2.292715	0.671914	0.588808	0.168612	-1.286531	0.055695	-1.096924	0.067383	0.042480	0.104740	-0.005344	0.019771	0.051958	-0.558421	-0.063329	-0.825503	7.199912	-68.208074	-177.675914						
07222		10.829629	-0.882849	1.007383	-3.153569	0.878078	0.596769	0.119694	-1.533957	0.148667	-1.099609	0.076172	0.057861	0.108221	-0.008754	0.010899	0.052441	-0.564819	-0.063789	-0.821073	7.329683	-69.100159	-177.741762						
07223		11.188460	-1.576957	0.031002	-4.123915	1.405978	0.612433	0.254626	-1.658319	0.222394	-1.097412	0.074219	0.075928	0.111894	-0.015646	0.001218	0.053569	-0.571675	-0.064622	-0.816175	7.455938	-70.067931	-177.720698						
07224		11.378158	-2.466997	-0.181532	-4.373802	2.248215	0.741700	0.419869	-1.367566	0.198922	-1.092773	0.074219	0.091553	0.113815	-0.024554	-0.001089	0.055169	-0.577261	-0.066111	-0.812007	7.657799	-70.869518	-177.679497						
07225		11.320362	-3.010944	-0.107383	-4.287258	2.799155	0.723532	0.474260	-0.486469	0.032649	-1.097412	0.076416	0.089111	0.113211	-0.030089	-0.000870	0.056536	-0.579176	-0.068059	-0.810387	7.976731	-71.157351	-177.729304						
07226		10.597315	-2.819209	0.191418	-3.765754	2.672427	0.135386	0.473269	0.739008	-0.133574	-1.097656	0.080811	0.071045	0.105960	-0.028267	0.001456	0.057641	-0.576064	-0.070134	-0.812348	8.284782	-70.736899	-177.768540						
07227		9.592235	-2.366237	0.638113	-3.069477	2.310804	-0.688381	0.564291	1.748676	-0.137231	-1.095215	0.076172	0.051025	0.095957	-0.023745	0.005475	0.059346	-0.568790	-0.072298	-0.817147	8.411234	-69.743362	-177.559250						
07228		8.892879	-2.029664	1.361812	-2.282603	2.100630	-1.127578	0.709921	2.062369	0.021586	-1.102051	0.080566	0.028320	0.089065	-0.020333	0.012628	0.062231	-0.560176	-0.074498	-0.822667	8.322451	-68.583078	-177.028813						
07229		8.783992	-1.640504	2.345357	-1.454651	1.883010	-0.885977	0.968568	1.756073	0.125372	-1.100098	0.089355	0.014404	0.088051	-0.016461	0.022601	0.066137	-0.552735	-0.077565	-0.827100	8.330685	-67.607102	-176.439452						
07230		8.872628	-0.875216	3.334418	-0.600606	1.320085	-0.405091	1.397379	1.326164	0.162771	-1.102051	0.084717	0.003418	0.088952	-0.008910	0.032693	0.071230	-0.546877	-0.082425	-0.830095	8.630787	-66.876760	-175.896295						
07231		8.589638	-0.079619	3.992275	0.138571	0.710453	-0.368043	1.890471	1.106002	0.207746	-1.100098	0.089111	-0.017090	0.086116	-0.001081	0.039438	0.077739	-0.541732	-0.089289	-0.832172	9.208890	-66.278401	-175.345767						
07232		7.826468	0.495822	4.154882	0.618258	0.257132	-0.963212	2.214770	0.942878	0.237306	-1.100342	0.093506	-0.026367	0.078454	0.004593	0.041231	0.085182	-0.537070	-0.097464	-0.833547	9.962698	-65.776303	-174.781885						
07233		6.961053	0.815614	4.064176	0.902004	0.016556	-1.761319	2.247414	0.647483	0.229516	-1.100342	0.093506	-0.032959	0.069733	0.007780	0.040505	0.092508	-0.533556	-0.105918	-0.833992	10.811593	-65.444402	-174.299996						
07234		6.393302	1.064636	3.725383	0.874764	-0.230262	-2.391927	2.045117	0.272498	0.208901	-1.102783	0.100098	-0.040283	0.063973	0.010332	0.037273	0.099019	-0.531609	-0.113732	-0.833458	11.649066	-65.322241	-173.932101						
07235		6.232425	1.362836	3.396759	0.744088	-0.545130	-2.644196	1.841712	-0.129165	0.192632	-1.102783	0.100342	-0.031250	0.062289	0.013375	0.034132	0.104663	-0.531389	-0.120942	-0.831892	12.497281	-65.427056	-173.704268						
07236		6.219604	1.583581	3.333422	0.790204	-0.715160	-2.659604	1.655965	-0.421068	0.169469	-1.100342	0.098145	-0.033447	0.062112	0.015611	0.033595	0.109557	-0.532414	-0.127568	-0.829614	13.344174	-65.692326	-173.592059						
07237		6.259216	1.663393	3.339213	0.844211	-0.733655	-2.612431	1.400028	-0.460446	0.142953	-1.102539	0.095703	-0.026367	0.062503	0.016444	0.033652	0.113603	-0.533701	-0.133233	-0.827349	14.103658	-65.977470	-173.545172						
07238		6.290539	1.771309	3.268248	0.840168	-0.813766	-2.600089	1.089686	-0.270246	0.102517	-1.103027	0.106934	-0.024902	0.062852	0.017567	0.032863	0.116784	-0.534317	-0.137600	-0.825793	14.678682	-66.150199	-173.491184						
07239		6.121079	1.822571	3.146749	0.840276	-0.866819	-2.795998	0.717598	-0.019776	0.118927	-1.103027	0.106934	-0.024902	0.061197	0.018149	0.031539	0.119199	-0.534125	-0.140245	-0.825126	14.942743	-66.188042	-173.330269						
07240		5.876461	1.678384	3.011501	0.778143	-0.759334	-3.086856	0.321606	0.101838	0.132503	-1.103271	0.111328	-0.025146	0.058769	0.016774	0.030112	0.120722	-0.533666	-0.141133	-0.825050	14.915422	-66.160162	-173.098574						
07241		5.509817	1.496756	2.868941	0.741063	-0.627015	-3.497083	0.048742	0.077880	0.144836	-1.094238	0.109375	-0.027344	0.055098	0.015000	0.028672	0.121526	-0.533485	-0.140890	-0.825091	14.731528	-66.147727	-172.866870						
07242		5.106477	1.156467	2.915897	0.824014	-0.282369	-3.883333	-0.071028	0.060863	0.153497	-1.096436	0.109375	-0.025146	0.051065	0.011614	0.029139	0.122056	-0.533447	-0.140128	-0.825167	14.467522	-66.145173	-172.622273						
07243		4.865503	0.739463	3.036557	0.874805	0.151093	-4.098453	-0.185168	0.137910	0.058301	-1.098877	0.113770	-0.027588	0.048674	0.007437	0.030325	0.121921	-0.533099	-0.139114	-0.825583	14.239445	-66.086358	-172.488752						
07244		5.012249	0.496531	3.239039	0.893151	0.433516	-3.907191	-0.154774	0.257989	-0.077499	-1.101074	0.111328	-0.040771	0.050166	0.004971	0.032322	0.121405	-0.532138	-0.138505	-0.826381	14.156752	-65.941336	-172.495016						
07245		5.418869	0.564800	3.564118	1.012140	0.460807	-3.397917	-0.098174	0.257411	-0.155236	-1.105469	0.109131	-0.029541	0.054239	0.005623	0.035569	0.120703	-0.531094	-0.138345	-0.827183	14.207635	-65.786002	-172.612299						
07246		5.906421	0.736664	3.877141	1.127777	0.388421	-2.809978	-0.083439	0.015659	-0.163109	-1.098633	0.106934	-0.036133	0.059073	0.007335	0.038764	0.119854	-0.531024	-0.138405	-0.827341	14.347377	-65.762524	-172.817608						
07247		6.335178	0.678216	4.089841	1.124543	0.506508	-2.342745	-0.052499	-0.395657	-0.114675	-1.100830	0.104736	-0.027100	0.063275	0.006757	0.041022	0.118988	-0.532679	-0.138719	-0.826349	14.581146	-65.975081	-173.106609						
07248		6.866670	0.447112	4.297408	1.049656	0.789017	-1.806808	-0.045594	-0.806127	-0.070720	-1.100586	0.102539	-0.013428	0.068494	0.004457	0.043249	0.118045	-0.536044	-0.139181	-0.824227	14.902759	-66.420211	-173.486490						
07249		7.480808	0.215788	4.392131	0.881501	1.037237	-1.242609	-0.109810	-1.075379	-0.043357	-1.100586	0.102783	0.002197	0.074571	0.002166	0.044322	0.116844	-0.540570	-0.139466	-0.821390	15.263706	-67.018151	-173.947805						
07250		8.244971	-0.020854	4.327780	0.546259	1.233723	-0.599208	-0.235299	-1.174477	-0.052858	-1.103027	0.102783	0.009033	0.082194	-0.000179	0.043761	0.115193	-0.545557	-0.139311	-0.818346	15.622285	-67.669016	-174.482640						
07251		8.952239	-0.125747	4.183241	0.226781	1.285270	-0.017102	-0.327787	-1.136303	-0.065443	-1.098145	0.096191	0.025146	0.089282	-0.001218	0.042342	0.113259	-0.550407	-0.138789	-0.815452	15.957256	-68.294811	-175.046429						
07252		9.583563	-0.255083	4.038179	-0.070625	1.362513	0.500139	-0.388977	-0.949792	-0.067967	-1.100586	0.100586	0.031494	0.095642	-0.002504	0.040841	0.111272	-0.554513	-0.137910	-0.813090	16.208051	-68.816609	-175.555600						
07253		10.051718	-0.402712	3.987615	-0.248611	1.488933	0.902776	-0.436894	-0.613322	-0.073331	-1.102783	0.096191	0.036377	0.100393	-0.003976	0.040193	0.109360	-0.557261	-0.136666	-0.811679	16.314276	-69.151714	-175.937443						
07254		10.538365	-0.728178	4.043944	-0.428307	1.808071	1.344741	-0.481313	-0.232447	-0.090969	-1.100342	0.096191	0.038574	0.105333	-0.007232	0.040579	0.107514	-0.558467	-0.135075	-0.811363	16.262315	-69.274028	-176.177067						
07255		11.100603	-1.046057	4.286781	-0.499909	2.171628	1.923080	-0.521552	0.074538	-0.123821	-1.100098	0.087158	0.036865	0.111016	-0.010418	0.042854	0.105626	-0.558425	-0.133252	-0.811941	16.107218	-69.222755	-176.330658						
07256		11.652793	-1.184358	4.701094	-0.391954	2.414831	2.568968	-0.521934	0.363631	-0.172791	-1.099854	0.084961	0.032471	0.116603	-0.011822	0.046830	0.103728	-0.557166	-0.131406	-0.813350	15.901663	-69.003739	-176.431231						
07257		12.032110	-1.151504	5.249536	-0.094908	2.534070	3.118826	-0.497398	0.748951	-0.231005	-1.099854	0.082764	0.025879	0.120503	-0.011524	0.052073	0.101915	-0.554287	-0.129624	-0.815829	15.639622	-68.564305	-176.455737						
07258		11.795288	-1.111901	5.606879	0.201083	2.584318	3.035703	-0.461703	1.226107	-0.278918	-1.097656	0.084961	0.012451	0.118278	-0.011155	0.055370	0.100305	-0.549387	-0.127870	-0.819611	15.287212	-67.852895	-176.361900						
07259		11.479911	-1.070002	5.913218	0.433467	2.603811	2.873069	-0.388553	1.566870	-0.253070	-1.099365	0.071533	-0.009277	0.115244	-0.010732	0.058251	0.099221	-0.543047	-0.126170	-0.824218	14.835768	-66.957784	-176.113957						
07260		11.356197	-0.942128	6.309685	0.671931	2.554483	2.942013	-0.284298	1.643495	-0.164212	-1.099365	0.073486	-0.022949	0.114068	-0.009426	0.062174	0.098822	-0.536349	-0.124607	-0.828877	14.331747	-66.030580	-175.742819						
07261		11.297887	-0.836254	7.333533	1.420761	2.716899	3.329569	-0.114838	1.476192	-0.055205	-1.101807	0.077881	-0.041016	0.113514	-0.008352	0.072504	0.099225	-0.530306	-0.123534	-0.832868	13.874213	-65.212009	-175.312633						
07262		10.840156	-0.781445	8.862233	2.796922	3.115349	3.571243	0.120186	0.787602	0.037542	-1.097412	0.077881	-0.045654	0.108751	-0.007847	0.088190	0.100204	-0.527041	-0.123524	-0.834822	13.662113	-64.786521	-175.003565						
07263		11.677446	-0.718534	8.350259	1.977531	2.866561	4.132849	0.591780	-0.165953	0.226815	-1.099609	0.077881	-0.038818	0.116713	-0.007300	0.083578	0.102631	-0.527642	-0.125467	-0.833858	13.775663	-64.919143	-174.754323						
07264		13.433516	-0.418936	6.945263	0.181078	2.110852	5.166699	1.175975	-0.738247	0.400341	-1.102295	0.086914	-0.030518	0.134086	-0.004331	0.069923	0.106955	-0.530415	-0.129668	-0.830907	14.183117	-65.393470	-174.462002						
07265		14.450757	0.250193	6.209892	-0.540451	1.271183	5.857013	1.663413	-0.979025	0.426563	-1.106445	0.082275	-0.021240	0.144196	0.002289	0.062825	0.112521	-0.533911	-0.135953	-0.826919	14.919899	-66.007278	-174.224575						
07266		14.788130	1.358733	5.869880	-0.472725	0.192296	6.147520	1.823626	-0.709036	0.393490	-1.104736	0.091309	-0.010498	0.147645	0.013339	0.059345	0.118544	-0.536123	-0.142814	-0.823483	15.708902	-66.467675	-173.946377						
07267		14.601030	2.348083	5.262933	-0.484195	-0.860689	5.853397	1.732442	-0.208149	0.328154	-1.111328	0.091309	-0.012695	0.145917	0.023262	0.052983	0.124407	-0.536233	-0.149174	-0.821416	16.356652	-66.643735	-173.570366						
07268		13.287097	2.804353	4.190786	-0.674081	-1.577217	4.295180	1.505597	0.163445	0.224739	-1.107178	0.095703	-0.024170	0.132874	0.027877	0.042010	0.129495	-0.534846	-0.154631	-0.820524	16.867711	-66.600232	-173.188814						
07269		11.539361	2.734958	3.012010	-1.003424	-1.862595	2.238573	1.378081	0.377608	0.110457	-1.104980	0.100342	-0.022217	0.115435	0.027206	0.030090	0.133942	-0.532544	-0.159731	-0.820331	17.367886	-66.421635	-172.873146						
07270		10.059676	2.665791	1.963472	-1.328687	-2.124710	0.477058	1.375661	0.340960	-0.032692	-1.104980	0.097900	-0.033203	0.100635	0.026506	0.019646	0.137756	-0.530244	-0.165209	-0.820104	18.056024	-66.238096	-172.764943						
07271		9.170438	3.049707	1.249901	-1.407697	-2.691109	-0.553311	1.388012	0.138877	-0.157008	-1.109375	0.095703	-0.031006	0.091737	0.030338	0.012646	0.140923	-0.528644	-0.171208	-0.819368	18.984220	-66.143654	-172.910118						
07272		8.888374	3.678214	1.040918	-1.189092	-3.286860	-0.790589	1.216975	-0.064390	-0.246356	-1.102539	0.095703	-0.031006	0.088926	0.036608	0.010661	0.143087	-0.527888	-0.176871	-0.818276	20.006107	-66.139543	-173.265960						
07273		9.116411	4.253382	1.086267	-0.983489	-3.741241	-0.463046	0.853266	-0.031908	-0.323961	-1.106689	0.086670	-0.032715	0.091231	0.042339	0.011058	0.144003	-0.527185	-0.181230	-0.817616	20.899893	-66.101436	-173.708651						
07274		9.127100	4.664624	1.329944	-0.630362	-3.959706	-0.286168	0.358874	0.390249	-0.414683	-1.117920	0.088623	-0.039307	0.091393	0.046433	0.013205	0.143619	-0.525015	-0.183494	-0.818574	21.418468	-65.815781	-174.052095						
07275		8.741673	4.934292	1.357028	-0.410116	-4.162217	-0.587050	-0.204064	0.970406	-0.472579	-1.111084	0.082031	-0.048096	0.087597	0.049150	0.013095	0.142056	-0.520817	-0.183192	-0.821591	21.407377	-65.208946	-174.168271						
07276		7.850879	4.713449	1.473610	-0.160631	-3.901704	-1.399987	-0.735787	1.344091	-0.431595	-1.108154	0.071045	-0.062988	0.078706	0.047017	0.014034	0.139612	-0.515467	-0.180319	-0.826007	20.882036	-64.409984	-174.053969						
07277		6.901327	4.101659	1.593930	-0.043630	-3.307038	-2.325869	-1.194746	1.277369	-0.386399	-1.119629	0.077393	-0.074707	0.069191	0.040976	0.015253	0.136102	-0.510726	-0.175473	-0.830569	20.095177	-63.656541	-173.940058						
07278		6.576304	3.354809	1.804551	-0.141316	-2.577416	-2.664607	-1.486465	0.708921	-0.369127	-1.117188	0.072998	-0.072021	0.065888	0.033558	0.017563	0.131404	-0.508512	-0.169745	-0.833867	19.365373	-63.211198	-174.076594						
07279		7.095798	2.732455	2.211577	-0.341764	-1.899493	-2.132662	-1.633203	-0.286704	-0.342083	-1.121582	0.068359	-0.071777	0.070973	0.027383	0.021994	0.125597	-0.510541	-0.163979	-0.834676	18.901535	-63.311746	-174.604901						
07280		8.089666	2.093670	2.856866	-0.471018	-1.104775	-1.063692	-1.737353	-1.304905	-0.317918	-1.114746	0.064209	-0.046875	0.080742	0.021058	0.028913	0.118772	-0.516863	-0.158340	-0.832871	18.739150	-63.971177	-175.534953						
07281		8.895055	1.606403	3.304037	-0.515203	-0.499279	-0.215680	-1.985829	-1.870645	-0.288471	-1.112305	0.062256	-0.024414	0.088661	0.016269	0.033710	0.110967	-0.525624	-0.151902	-0.829658	18.644916	-64.943092	-176.691433						
07282		9.233015	1.229658	3.319982	-0.618218	-0.144119	0.055335	-2.297583	-1.786167	-0.231811	-1.112305	0.060059	-0.010742	0.092044	0.012576	0.033879	0.102603	-0.534167	-0.143948	-0.826691	18.313850	-65.884041	-177.775690						
07283		9.210744	0.660043	2.987486	-0.939895	0.260884	-0.156294	-2.544540	-1.198903	-0.157958	-1.116699	0.057861	0.011719	0.091932	0.006912	0.030340	0.094303	-0.540328	-0.134441	-0.825274	17.527092	-66.519350	-178.509111						
07284		8.782136	-0.152195	2.453597	-1.384087	0.831916	-0.837111	-2.554079	-0.557920	-0.131326	-1.119141	0.057617	0.007324	0.087752	-0.001264	0.024798	0.086483	-0.543789	-0.124500	-0.825418	16.447596	-66.815242	-178.927807						
07285		8.511699	-0.780874	2.253116	-1.574641	1.343813	-1.219096	-2.284251	-0.137897	-0.167154	-1.109863	0.053467	0.007568	0.085095	-0.007621	0.022678	0.079514	-0.545273	-0.115565	-0.826438	15.400615	-66.874451	-179.212430						
07286		8.704170	-0.998498	2.486030	-1.472829	1.593155	-0.967774	-1.764398	0.084439	-0.239859	-1.116455	0.051025	0.007813	0.087040	-0.009870	0.024911	0.073771	-0.545535	-0.108878	-0.827704	14.668301	-66.801864	-179.515895						
07287		8.927944	-0.832991	3.017268	-1.052386	1.558753	-0.540757	-0.995927	0.340612	-0.347391	-1.114258	0.048828	0.010010	0.089316	-0.008335	0.030062	0.069825	-0.544362	-0.105562	-0.829247	14.426275	-66.572431	-179.873594						
07288		8.718558	-0.440920	3.671827	-0.343949	1.350261	-0.445298	-0.135602	0.728973	-0.457495	-1.120605	0.041992	-0.002930	0.087308	-0.004584	0.036403	0.067958	-0.541216	-0.105975	-0.831406	14.685439	-66.112807	179.758113						
07289		8.091022	0.203268	4.084538	0.331963	0.857896	-0.793704	0.515956	1.084219	-0.544259	-1.118164	0.037598	-0.011719	0.081135	0.001707	0.040411	0.067689	-0.536301	-0.109207	-0.834191	15.289184	-65.441559	179.420365						
07290		7.253059	0.972120	4.291528	0.932111	0.213312	-1.383363	0.908351	1.153324	-0.569152	-1.106689	0.031006	-0.029297	0.072804	0.009321	0.042539	0.068393	-0.530929	-0.114113	-0.836908	16.098280	-64.727308	179.101555						
07291		6.366277	1.416045	4.438580	1.456347	-0.126701	-2.060397	0.771001	0.814500	-0.497177	-1.113037	0.021973	-0.028564	0.063878	0.013831	0.044180	0.068847	-0.527031	-0.118364	-0.838742	16.831454	-64.208557	178.778715						
07292		5.727707	1.611685	4.238413	1.565050	-0.335449	-2.684833	0.200750	0.155800	-0.365645	-1.113037	0.024170	-0.031006	0.057339	0.015970	0.042356	0.067946	-0.526164	-0.120103	-0.839113	17.304536	-64.071820	178.380213						
07293		5.623700	1.584006	3.893716	1.312575	-0.387373	-2.926243	-0.303122	-0.544229	-0.217009	-1.112793	0.017578	-0.023926	0.056148	0.015838	0.039066	0.065934	-0.528485	-0.119572	-0.837890	17.566443	-64.341614	177.896546						
07294		5.755711	1.241473	3.741072	1.086276	-0.096551	-2.922441	-0.603272	-0.895509	-0.072187	-1.110596	0.022217	-0.012939	0.057393	0.012507	0.037630	0.063516	-0.532466	-0.117513	-0.835845	17.628602	-64.829410	177.444481						
07295		5.881064	0.817036	3.385669	0.682443	0.212521	-3.015185	-0.647847	-0.875638	0.014511	-1.112793	0.017578	0.005371	0.058661	0.008285	0.034087	0.061360	-0.536399	-0.115028	-0.833834	17.563435	-65.319713	177.107141						
07296		5.929106	0.619965	3.088383	0.408366	0.317846	-3.118748	-0.504883	-0.644522	0.026811	-1.117432	0.019775	0.005127	0.059190	0.006286	0.031059	0.059762	-0.539342	-0.113031	-0.832323	17.484810	-65.689017	176.875026						
07297		5.938064	0.725503	2.985463	0.369883	0.182480	-3.139622	-0.322432	-0.309904	0.015815	-1.113037	0.024414	0.000244	0.059334	0.007308	0.029935	0.058807	-0.540803	-0.111724	-0.831620	17.395703	-65.870686	176.770275						
07298		5.957508	1.103169	2.995747	0.464365	-0.186237	-3.072282	-0.130209	0.018796	0.015543	-1.110840	0.022217	-0.003906	0.059577	0.011056	0.029945	0.058552	-0.540847	-0.111115	-0.831691	17.291177	-65.873687	176.802598						
07299		5.957920	1.386036	3.169242	0.674099	-0.422189	-2.969491	-0.010796	0.185422	0.024487	-1.112793	0.017578	0.000732	0.059607	0.013869	0.031636	0.058751	-0.540159	-0.110934	-0.832148	17.181454	-65.785925	176.916197						
07300		5.759430	1.741217	3.196256	0.846085	-0.766173	-3.095841	0.112647	0.198979	0.018929	-1.110596	0.020020	-0.001709	0.057624	0.017400	0.031915	0.059263	-0.539373	-0.111276	-0.832576	17.145071	-65.689329	177.026420						
07301		5.813170	1.938573	3.492053	1.121367	-0.880497	-2.905249	0.166368	0.118227	0.013698	-1.115234	0.019775	-0.001709	0.058151	0.019361	0.034902	0.059858	-0.538906	-0.111881	-0.832755	17.176089	-65.636467	177.097108						
07302		6.363358	1.985198	3.941055	1.299534	-0.799791	-2.220797	0.021063	0.023866	0.012853	-1.115234	0.024414	-0.001953	0.063637	0.019852	0.039405	0.059998	-0.538877	-0.111910	-0.832759	17.161176	-65.635332	177.126223						
07303		6.937627	2.039876	4.266945	1.363689	-0.761004	-1.562850	-0.063374	-0.004225	0.005666	-1.117432	0.021973	-0.001709	0.069375	0.020414	0.042664	0.059873	-0.538984	-0.111617	-0.832739	17.116049	-65.648147	177.136014						
07304		7.288939	2.125119	4.402739	1.360492	-0.805729	-1.179685	-0.087365	-0.041834	-0.005221	-1.113037	0.022217	0.000488	0.072881	0.021269	0.044033	0.059614	-0.539251	-0.111261	-0.832632	17.084059	-65.680070	177.115831						
07305		7.852612	2.284728	4.428724	1.198043	-0.942808	-0.638110	-0.019517	-0.198728	0.007370	-1.110596	0.020020	0.000732	0.078481	0.022854	0.044363	0.059506	-0.540155	-0.111204	-0.832061	17.134681	-65.799681	177.048152						
07306		8.883498	2.316525	4.867047	1.200921	-0.836869	0.474600	0.144740	-0.361547	0.065447	-1.110596	0.017822	0.007568	0.088739	0.023159	0.048848	0.059985	-0.541720	-0.111720	-0.830939	17.271800	-66.018358	176.988387						
07307		10.345825	2.579561	6.004504	1.714828	-0.766675	2.279282	0.249334	-0.271305	0.148455	-1.108398	0.020020	0.002930	0.103357	0.025797	0.060217	0.061150	-0.542921	-0.112420	-0.829975	17.332126	-66.201617	177.078764						
07308		11.391913	2.945116	7.408272	2.632306	-0.747481	3.819777	0.151331	0.215243	0.192839	-1.115479	0.028809	0.000000	0.113970	0.029505	0.073982	0.062494	-0.542153	-0.112445	-0.830374	17.095919	-66.125465	177.431295						
07309		11.345040	3.241223	8.324366	3.475344	-0.833411	4.177916	-0.134738	0.734097	0.141725	-1.108398	0.022217	-0.008545	0.113732	0.032549	0.082805	0.063153	-0.539290	-0.111256	-0.832346	16.568133	-65.755925	177.924861						
07310		10.841231	3.385142	8.010041	3.345368	-1.112366	3.630615	-0.330381	0.712411	0.091431	-1.104248	0.026611	-0.010986	0.108681	0.034033	0.079657	0.063057	-0.536533	-0.109394	-0.834379	16.012643	-65.386851	178.326805						
07311		10.915027	3.393292	7.106427	2.473399	-1.394625	3.343708	-0.311375	0.050604	0.145436	-1.106445	0.028809	-0.011230	0.109143	0.034123	0.070984	0.062880	-0.536566	-0.107674	-0.834595	15.637984	-65.391185	178.542782						
07312		11.936345	3.392534	6.123678	1.233614	-1.654411	3.870339	-0.170117	-0.764056	0.223054	-1.102051	0.031250	-0.004639	0.119090	0.034111	0.061663	0.062959	-0.539985	-0.106591	-0.832521	15.525508	-65.855831	178.558967						
07313		13.612403	3.635475	5.784768	0.451949	-1.968729	5.283490	-0.151354	-1.244763	0.304769	-1.104492	0.031250	0.013428	0.135705	0.036606	0.058666	0.063178	-0.545432	-0.105513	-0.829084	15.485370	-66.599247	178.508179						
07314		15.049058	3.635186	5.829399	0.121340	-1.965506	6.612569	-0.383154	-1.241195	0.376555	-1.106934	0.035645	0.021973	0.150056	0.036747	0.059156	0.063052	-0.550945	-0.103275	-0.825723	15.217002	-67.350744	178.560948						
07315		14.999732	3.114124	5.566650	-0.045150	-1.576652	6.410380	-0.730838	-0.723384	0.344987	-1.100098	0.038086	0.028564	0.149741	0.031604	0.056093	0.062113	-0.554398	-0.099518	-0.823942	14.588837	-67.811580	178.787603						
07316		13.640037	2.210272	4.655307	-0.481237	-0.991103	4.726691	-1.008963	-0.081660	0.163372	-1.098145	0.040283	0.026367	0.136363	0.022449	0.046496	0.059959	-0.555178	-0.094922	-0.824119	13.813836	-67.887816	178.999949						
07317		12.252744	1.246852	3.738875	-0.988347	-0.323527	3.016259	-1.022695	0.135877	0.010409	-1.098145	0.040527	0.030762	0.122552	0.012666	0.037241	0.057252	-0.554988	-0.090621	-0.824923	13.163569	-67.822924	179.069487						
07318		11.603329	0.516475	3.039306	-1.517518	0.207243	2.095104	-0.867572	-0.178492	-0.072967	-1.098145	0.040527	0.032959	0.116008	0.005254	0.030474	0.054476	-0.555989	-0.087284	-0.824797	12.820221	-67.920941	178.903354						
07319		11.359103	0.194409	2.647377	-1.787918	0.439031	1.706237	-0.629075	-0.741859	-0.105838	-1.104492	0.033691	0.040283	0.113493	0.001968	0.026889	0.051992	-0.559232	-0.085168	-0.822984	12.836359	-68.331317	178.497681						
07320		11.503946	-0.051494	2.321494	-2.066047	0.637535	1.722296	-0.494229	-1.291920	-0.108512	-1.102539	0.036133	0.060303	0.114886	-0.000519	0.023959	0.049624	-0.564676	-0.083760	-0.819551	13.132435	-69.046896	177.875575						
07321		11.945518	-0.658247	1.688820	-2.734416	1.145960	1.899993	-0.573079	-1.703754	-0.007739	-1.095703	0.033936	0.080566	0.119305	-0.006537	0.017924	0.047284	-0.571838	-0.081836	-0.814904	13.409817	-70.005414	177.229124						
07322		12.276880	-1.692848	0.634900	-3.785817	1.998551	1.834613	-0.613819	-1.782191	0.093133	-1.093506	0.038574	0.093750	0.122713	-0.016850	0.007494	0.045187	-0.579325	-0.079472	-0.809954	13.583123	-71.020451	176.671666						
07323		12.479882	-2.906840	-0.253938	-4.687229	3.057325	1.717348	-0.535001	-1.278602	0.114269	-1.093506	0.038574	0.104980	0.124828	-0.029002	-0.001664	0.043616	-0.584719	-0.077244	-0.806372	13.592153	-71.757340	176.338802						
07324		12.326928	-3.477492	-0.838508	-5.174543	3.528493	1.391012	-0.301760	-0.277761	-0.019851	-1.091553	0.041016	0.106934	0.123277	-0.034800	-0.008161	0.042564	-0.585956	-0.076128	-0.805635	13.561831	-71.918222	176.188366						
07325		11.470572	-3.131377	-0.453392	-4.517000	3.246832	0.705824	-0.058702	0.855346	-0.229155	-1.093262	0.031982	0.091797	0.114649	-0.031447	-0.005015	0.041820	-0.582494	-0.076362	-0.808159	13.559937	-71.420446	176.155037						
07326		10.376892	-2.177836	0.206010	-3.531380	2.403218	-0.106167	0.286770	1.632645	-0.315063	-1.093262	0.031738	0.073975	0.103746	-0.021944	0.001182	0.042023	-0.575751	-0.078075	-0.812803	13.590762	-70.476828	176.295780						
07327		9.604188	-1.322780	1.082355	-2.495764	1.697980	-0.536544	0.848359	1.776973	-0.220373	-1.099609	0.024902	0.054199	0.096118	-0.013377	0.009913	0.044287	-0.568301	-0.081761	-0.817549	13.747381	-69.467123	176.646550						
07328		9.261659	-0.688468	2.276775	-1.332201	1.292103	-0.432398	1.308759	1.434862	-0.106211	-1.097656	0.031494	0.038086	0.092773	-0.007080	0.022057	0.048170	-0.562126	-0.087074	-0.821043	14.129850	-68.661703	177.039233						
07329		9.305747	0.035278	3.244515	-0.460937	0.798161	-0.000733	1.576859	1.000590	-0.049187	-1.102295	0.033691	0.031250	0.093218	0.000077	0.031980	0.052859	-0.557658	-0.093424	-0.823101	14.736382	-68.108937	177.358747						
07330		9.247697	0.835266	3.819623	0.146502	0.183772	0.224798	1.837854	0.763025	0.001709	-1.102539	0.038086	0.021973	0.092622	0.008004	0.037918	0.058368	-0.554057	-0.100756	-0.824295	15.499903	-67.694741	177.670785						
07331		8.688845	1.336382	4.090267	0.637490	-0.186548	-0.139517	2.081901	0.788749	0.027183	-1.102539	0.040283	0.017334	0.087047	0.012951	0.040696	0.064665	-0.550244	-0.109009	-0.825328	16.353111	-67.273956	178.038558						
07332		7.695966	1.570239	3.945553	0.879644	-0.391834	-1.075821	2.146158	0.908857	0.020112	-1.102539	0.040283	0.003906	0.077137	0.015288	0.039271	0.071176	-0.545831	-0.117484	-0.826559	17.194252	-66.787244	178.460359						
07333		6.584415	1.717689	3.553760	0.948504	-0.580670	-2.216856	2.172792	0.908406	-0.064597	-1.097900	0.040283	-0.007324	0.066011	0.016770	0.035422	0.077391	-0.541295	-0.126294	-0.827684	18.152867	-66.289663	178.772582						
07334		5.805447	1.857492	3.175766	0.926775	-0.760367	-3.045014	2.138731	0.673137	-0.115847	-1.104492	0.035645	-0.016113	0.058172	0.018202	0.031758	0.083153	-0.537627	-0.135167	-0.828114	19.233845	-65.910908	178.930445						
07335		5.501600	2.047477	3.018554	0.955952	-0.920924	-3.346695	1.914165	0.177908	-0.144220	-1.097900	0.035645	-0.013916	0.055058	0.020145	0.030330	0.087840	-0.536040	-0.143386	-0.827276	20.424274	-65.796601	178.827881						
07336		5.661381	2.361422	2.969727	0.962508	-1.162230	-3.166702	1.517113	-0.366814	-0.127488	-1.100098	0.035645	-0.004883	0.056574	0.023351	0.029979	0.091137	-0.536834	-0.150142	-0.825203	21.609425	-65.974139	178.481566						
07337		6.085214	2.638109	3.019640	0.967537	-1.338769	-2.714891	1.020124	-0.714740	-0.021267	-1.102051	0.031250	0.002197	0.060746	0.026219	0.030548	0.093270	-0.539360	-0.154718	-0.822468	22.566310	-66.358670	178.074570						
07338		6.457732	2.501313	3.046674	0.857594	-1.154131	-2.384818	0.506471	-0.741519	0.092700	-1.100342	0.042480	0.019287	0.064452	0.024965	0.030769	0.094462	-0.542305	-0.156879	-0.819982	23.121850	-66.780251	177.785069						
07339		6.820161	1.957379	3.093350	0.630366	-0.607095	-2.121871	0.007638	-0.549728	0.138695	-1.104492	0.035645	0.015381	0.068103	0.019620	0.031122	0.094640	-0.544730	-0.156780	-0.818372	23.244542	-67.110738	177.656596						
07340		6.775451	1.458501	2.749320	0.224285	-0.269552	-2.364889	-0.300712	-0.320335	0.147536	-1.102783	0.044678	0.019287	0.067700	0.014676	0.027580	0.094199	-0.546371	-0.155280	-0.817615	23.055668	-67.323473	177.674439						
07341		6.381220	1.287028	2.477786	0.105792	-0.225956	-2.851829	-0.377126	-0.147214	0.143008	-1.097900	0.038086	0.024170	0.063785	0.012963	0.024800	0.093659	-0.547328	-0.153403	-0.817391	22.735638	-67.442715	177.787164						
07342		6.086447	0.855750	2.478064	0.095393	0.155230	-3.188135	-0.506983	-0.176485	0.178452	-1.107422	0.046875	0.023682	0.060835	0.008675	0.024812	0.092890	-0.548488	-0.150906	-0.817165	22.306793	-67.585077	177.936830						
07343		6.353092	0.327957	2.730217	0.065737	0.719671	-2.927843	-0.590577	-0.236105	0.214728	-1.102783	0.047119	0.028076	0.063495	0.003429	0.027367	0.091989	-0.549953	-0.148000	-0.816814	21.812560	-67.766310	178.105427						
07344		6.619394	0.080049	2.980891	0.129858	1.016186	-2.625275	-0.586720	-0.179632	0.234458	-1.098389	0.047119	0.034912	0.066166	0.000966	0.029866	0.091230	-0.551194	-0.145021	-0.816597	21.256971	-67.921218	178.342360						
07345		6.633193	-0.092887	3.090878	0.185652	1.189260	-2.593787	-0.467928	-0.037777	0.220650	-1.103027	0.053711	0.030029	0.066327	-0.000783	0.030923	0.090834	-0.551787	-0.142505	-0.816684	20.714084	-67.996338	178.638920						
07346		6.587291	-0.320473	3.217881	0.253661	1.420090	-2.617632	-0.366115	0.062929	0.197679	-1.103271	0.058105	0.029785	0.065886	-0.003081	0.032164	0.090702	-0.551907	-0.140417	-0.816979	20.205834	-68.012481	178.960652						
07347		6.675728	-0.583585	3.162300	0.098170	1.628519	-2.584666	-0.255620	0.019973	0.194977	-1.101074	0.058105	0.022949	0.066766	-0.005730	0.031624	0.090828	-0.552145	-0.138811	-0.817079	19.786635	-68.049544	179.254857						
07348		7.138540	-0.686650	3.322414	0.046611	1.764696	-2.108642	-0.019381	-0.157634	0.208998	-1.103027	0.053711	0.034424	0.071366	-0.006789	0.033281	0.091554	-0.553003	-0.138203	-0.816520	19.562363	-68.184085	179.484677						
07349		7.833314	-0.754002	3.648571	0.078569	1.931353	-1.356623	0.205214	-0.350537	0.217710	-1.103516	0.060547	0.040771	0.078277	-0.007492	0.036615	0.092789	-0.554556	-0.138586	-0.815262	19.550454	-68.424703	179.624147						
07350		8.608847	-0.558787	4.047850	0.237326	1.886534	-0.474908	0.427901	-0.416950	0.168009	-1.103516	0.062744	0.042969	0.086009	-0.005602	0.040646	0.094391	-0.556243	-0.140038	-0.813679	19.765513	-68.692414	179.655973						
07351		9.258806	-0.170847	4.464816	0.517782	1.678695	0.316629	0.598427	-0.290539	0.134252	-1.101318	0.064941	0.040527	0.092524	-0.001780	0.044777	0.096419	-0.557300	-0.142222	-0.812338	20.065198	-68.884740	179.702410						
07352		9.859218	0.299840	4.793720	0.752333	1.366278	1.042777	0.549191	-0.038019	0.128163	-1.105957	0.067139	0.047119	0.098581	0.002930	0.047964	0.098469	-0.557344	-0.144092	-0.811732	20.214400	-68.940158	179.879390						
07353		10.350789	0.611018	4.857143	0.728702	1.104531	1.560659	0.379174	0.092918	0.128409	-1.103516	0.062744	0.045166	0.103527	0.006085	0.048535	0.100134	-0.556939	-0.145213	-0.811607	20.201828	-68.925231	-179.874216						
07354		10.789552	0.779860	4.839322	0.607769	0.938542	1.985254	0.214718	0.021025	0.132659	-1.097168	0.073975	0.044434	0.107895	0.007818	0.048390	0.101306	-0.556911	-0.145685	-0.811396	20.124372	-68.950140	-179.660034						
07355		11.116340	0.799333	4.892627	0.549490	0.932649	2.310759	0.095867	-0.031535	0.122396	-1.096924	0.067383	0.047119	0.111151	0.008038	0.048948	0.102067	-0.557146	-0.145736	-0.811130	20.021150	-69.000796	-179.490494						
07356		11.213350	0.613243	5.105619	0.635426	1.172781	2.451219	0.045723	0.187030	0.038781	-1.101563	0.071533	0.040039	0.112180	0.006143	0.050953	0.102513	-0.556462	-0.145695	-0.811550	19.891953	-68.917842	-179.324540						
07357		11.088779	0.469479	5.261376	0.720033	1.349748	2.374300	0.043994	0.671940	-0.077333	-1.105957	0.066895	0.024658	0.111066	0.004640	0.052242	0.102831	-0.553721	-0.145731	-0.813377	19.686383	-68.550193	-179.076792						
07358		11.110887	0.421741	5.546001	0.836722	1.473227	2.496482	0.053855	1.113280	-0.153855	-1.105713	0.062500	0.011475	0.111418	0.004117	0.054841	0.103188	-0.549101	-0.145780	-0.816448	19.384685	-67.927855	-178.719260						
07359		11.321201	0.574289	6.034778	1.078717	1.468748	2.899294	0.025608	1.374492	-0.152211	-1.107666	0.057861	0.002686	0.113628	0.005649	0.059569	0.103657	-0.543420	-0.145577	-0.820217	18.969626	-67.164975	-178.254178						
07360		11.387837	0.818292	7.002424	1.780504	1.529701	3.373380	-0.126482	1.593044	-0.117415	-1.103516	0.062256	-0.017578	0.114436	0.008160	0.069109	0.104002	-0.536902	-0.144530	-0.824640	18.362289	-66.285947	-177.672850						
07361		11.292992	0.970838	8.150636	2.655098	1.712742	3.785841	-0.468055	1.535663	-0.062961	-1.105469	0.055664	-0.030762	0.113554	0.009862	0.080613	0.103613	-0.530818	-0.141955	-0.829063	17.561774	-65.447394	-177.089436						
07362		11.402715	0.714823	8.001889	2.250705	1.811236	3.833383	-0.504539	0.931364	0.044032	-1.105713	0.066650	-0.040283	0.114396	0.007374	0.079468	0.103132	-0.527295	-0.139244	-0.831826	16.874110	-64.952460	-176.651324						
07363		12.101935	0.430734	7.016655	0.968494	1.674942	4.048494	0.107829	0.151803	0.173387	-1.105469	0.057861	-0.041992	0.121069	0.004374	0.070077	0.104264	-0.526796	-0.139145	-0.832017	16.675351	-64.907391	-176.363572						
07364		12.652383	0.501188	6.186244	0.072381	1.321567	4.217690	0.852403	-0.386182	0.221831	-1.112549	0.066650	-0.031494	0.126399	0.004888	0.062128	0.107181	-0.528162	-0.142286	-0.830248	17.034721	-65.163739	-176.222265						
07365		12.283385	0.821904	5.486352	-0.210971	0.845742	3.637097	1.221746	-0.442257	0.087633	-1.110352	0.066650	-0.026855	0.122709	0.007936	0.055184	0.110476	-0.529462	-0.147349	-0.828102	17.792048	-65.430098	-176.285243						
07366		11.473385	1.352127	4.220351	-0.728362	-0.013570	2.465223	1.261204	-0.217553	0.002841	-1.107910	0.060059	-0.028809	0.114688	0.013256	0.042412	0.113681	-0.529724	-0.152660	-0.826537	18.591892	-65.558249	-176.371344						
07367		10.695208	1.874250	2.812787	-1.379049	-0.941617	1.278899	1.371033	-0.253128	-0.008497	-1.110352	0.066650	-0.024658	0.106917	0.018544	0.028391	0.117101	-0.530039	-0.158478	-0.824761	19.489212	-65.703351	-176.493940						
07368		10.243038	2.118181	1.814110	-1.893287	-1.482332	0.527286	1.512777	-0.475308	-0.025325	-1.105713	0.062256	-0.024414	0.102389	0.021030	0.018544	0.120636	-0.531138	-0.165039	-0.822254	20.591409	-65.962653	-176.753267						
07369		10.095236	2.581294	1.005769	-2.257490	-2.163831	0.177752	1.600142	-0.724558	-0.047135	-1.108154	0.066895	-0.011230	0.100921	0.025706	0.010629	0.124109	-0.533161	-0.172163	-0.818961	21.903502	-66.349424	-177.185313						
07370		10.108807	3.219970	0.332641	-2.474463	-2.957563	0.076456	1.639493	-0.819621	-0.060624	-1.116943	0.064453	-0.004395	0.101082	0.032138	0.004004	0.127533	-0.535486	-0.179522	-0.815329	23.330549	-66.778147	-177.717881						
07371		10.368595	3.910985	0.085855	-2.407235	-3.631438	0.376909	1.436013	-0.471420	-0.061140	-1.112061	0.055664	-0.001465	0.103695	0.039069	0.001384	0.130720	-0.536490	-0.185825	-0.812748	24.483923	-67.020552	-178.077185						
07372		10.825130	4.203899	0.364503	-2.194403	-3.739376	0.966491	1.045337	0.322905	-0.150726	-1.119141	0.059814	-0.010742	0.108289	0.041938	0.003690	0.133213	-0.534409	-0.190251	-0.812690	25.085353	-66.824848	-178.080955						
07373		10.785650	4.370342	0.882220	-1.741388	-3.650750	1.134775	0.606293	1.233319	-0.286245	-1.112061	0.055420	-0.028564	0.107971	0.043523	0.008289	0.134858	-0.528777	-0.192644	-0.815535	25.085129	-66.125005	-177.701732						
07374		9.911693	4.811759	1.539320	-0.811166	-3.762550	0.625058	0.139947	1.860509	-0.336608	-1.110107	0.059814	-0.046631	0.099335	0.047940	0.014503	0.135652	-0.520796	-0.192831	-0.820480	24.563106	-65.083143	-177.040990						
07375		8.593637	5.219041	2.292242	0.342447	-3.815363	-0.238462	-0.507300	1.904803	-0.271895	-1.116455	0.052979	-0.057373	0.086220	0.052130	0.021970	0.135063	-0.513107	-0.190147	-0.826029	23.633740	-64.032938	-176.333620						
07376		7.903762	4.822857	3.023285	0.902191	-3.197027	-0.656683	-1.273836	1.225202	-0.204155	-1.112061	0.055176	-0.071045	0.079269	0.048337	0.029440	0.132131	-0.508752	-0.184562	-0.830452	22.561593	-63.349601	-175.952004						
07377		7.978182	4.074602	3.544559	0.888992	-2.384154	-0.520624	-1.836585	0.040052	-0.181890	-1.116455	0.055176	-0.066650	0.079826	0.040997	0.035054	0.126753	-0.509679	-0.177356	-0.832290	21.682743	-63.298750	-176.145985						
07378		8.343141	3.331670	3.854281	0.691307	-1.659285	-0.203743	-2.192712	-1.100287	-0.154158	-1.111816	0.051025	-0.046143	0.083245	0.033676	0.038633	0.119559	-0.515544	-0.169295	-0.831420	21.051533	-63.863687	-176.844199						
07379		8.498418	2.691842	3.853435	0.477466	-1.127767	-0.178541	-2.478801	-1.755930	-0.149607	-1.114014	0.048584	-0.032471	0.084664	0.027336	0.038942	0.111067	-0.524207	-0.160396	-0.828941	20.538840	-64.783428	-177.851081						
07380		8.368763	2.016109	3.430787	0.077315	-0.702104	-0.573071	-2.626197	-1.866323	-0.107892	-1.114014	0.046631	-0.005371	0.083375	0.020571	0.034819	0.102231	-0.533332	-0.150803	-0.826054	19.965549	-65.776877	-178.876962						
07381		8.266467	1.157822	2.969808	-0.420418	-0.098768	-0.963572	-2.515587	-1.568241	-0.055544	-1.111816	0.044434	0.012695	0.082432	0.011933	0.030196	0.094121	-0.541062	-0.141334	-0.823661	19.273502	-66.622167	-179.695780						
07382		8.352117	0.299011	2.793383	-0.755890	0.623656	-1.055460	-2.193233	-1.070625	-0.075938	-1.109375	0.042480	0.023926	0.083371	0.003268	0.028346	0.087106	-0.546503	-0.132997	-0.822228	18.585012	-67.200989	179.685841						
07383		8.470626	-0.159145	2.834345	-0.817597	1.049448	-0.978650	-1.735831	-0.535274	-0.164147	-1.107178	0.042480	0.021729	0.084629	-0.001414	0.028583	0.081351	-0.549395	-0.126524	-0.821912	18.031625	-67.472186	179.207864						
07384		8.319747	-0.489651	3.038540	-0.629765	1.411276	-1.077566	-1.262992	-0.103224	-0.300127	-1.111572	0.042480	0.026123	0.083174	-0.004829	0.030459	0.076579	-0.550211	-0.122191	-0.822480	17.749496	-67.486512	178.729217						
07385		7.957141	-0.621002	3.267861	-0.315764	1.597596	-1.343413	-0.859696	0.154584	-0.447534	-1.108887	0.031250	0.022461	0.079583	-0.006248	0.032644	0.072490	-0.549691	-0.119812	-0.823547	17.775300	-67.333499	178.167878						
07386		7.488615	-0.453729	3.424084	0.028749	1.484665	-1.700694	-0.569233	0.316558	-0.552558	-1.115479	0.028809	0.015869	0.074927	-0.004647	0.034135	0.068847	-0.548331	-0.118859	-0.824903	18.033545	-67.073706	177.533404						
07387		6.991260	0.068508	3.585310	0.460690	1.033783	-2.037357	-0.397338	0.432713	-0.581817	-1.106445	0.024658	0.016113	0.069992	0.000553	0.035701	0.065637	-0.546400	-0.118651	-0.826475	18.363692	-66.743639	176.927129						
07388		6.496480	0.638499	3.549568	0.719279	0.479715	-2.432735	-0.344966	0.492682	-0.531648	-1.106201	0.020020	0.009521	0.065069	0.006273	0.035325	0.062805	-0.544225	-0.118500	-0.828150	18.624091	-66.388818	176.427432						
07389		6.021597	0.956629	3.334757	0.754165	0.113454	-2.905183	-0.303410	0.429367	-0.390590	-1.107910	0.008789	0.008057	0.060306	0.009499	0.033204	0.060639	-0.542375	-0.118156	-0.829573	18.749727	-66.093661	176.100335						
07390		5.833122	1.002379	3.341726	0.821948	0.069638	-3.066079	-0.259832	0.188105	-0.238211	-1.110107	0.006592	0.008057	0.058375	0.009998	0.033349	0.059067	-0.541605	-0.117653	-0.830260	18.813264	-65.957848	175.867289						
07391		5.758028	1.028800	3.343710	0.857150	0.042613	-3.130084	-0.268353	-0.166147	-0.108918	-1.112549	0.010986	0.010254	0.057558	0.010302	0.033471	0.057814	-0.542377	-0.116867	-0.829956	18.858211	-66.037387	175.649891						
07392		5.746879	1.217794	3.296947	0.884743	-0.153954	-3.136391	-0.267643	-0.540199	0.003425	-1.105957	0.013428	0.014404	0.057379	0.012223	0.033108	0.056795	-0.544776	-0.115890	-0.828591	18.928595	-66.342037	175.404700						
07393		5.688718	1.392134	3.236069	0.937581	-0.345574	-3.196574	-0.339266	-0.844194	0.150127	-1.108154	0.011230	0.032471	0.056739	0.014019	0.032577	0.056026	-0.548518	-0.114298	-0.826393	18.905434	-66.837079	175.218228						
07394		5.642076	1.258909	3.053586	0.824135	-0.277964	-3.333071	-0.541484	-0.988195	0.255214	-1.106201	0.018066	0.041016	0.056253	0.012744	0.030780	0.055046	-0.552977	-0.111618	-0.823850	18.698586	-67.432435	175.105507						
07395		5.858601	1.057944	2.831617	0.562656	-0.152245	-3.246077	-0.680114	-0.942691	0.283946	-1.105957	0.013672	0.050293	0.058437	0.010759	0.028555	0.053832	-0.557262	-0.108272	-0.821486	18.347843	-68.005842	175.063539						
07396		6.624564	1.053199	2.757280	0.270688	-0.164444	-2.567274	-0.635738	-0.811409	0.255155	-1.106201	0.018066	0.063477	0.066120	0.010705	0.027807	0.052681	-0.560985	-0.105150	-0.819429	17.998815	-68.505653	175.046538						
07397		7.504135	1.258381	2.751638	0.046742	-0.357743	-1.729582	-0.431838	-0.734996	0.218866	-1.101807	0.022705	0.065430	0.074926	0.012726	0.027764	0.052004	-0.564285	-0.102943	-0.817484	17.773254	-68.954501	175.023184						
07398		8.276704	1.544466	2.827969	-0.034242	-0.605858	-0.951654	-0.109717	-0.819070	0.199152	-1.099609	0.022705	0.078857	0.082635	0.015543	0.028610	0.052098	-0.567848	-0.102128	-0.815110	17.801846	-69.448781	174.924704						
07399		8.742072	1.733475	3.236760	0.299475	-0.683601	-0.360298	0.041807	-0.961937	0.171113	-1.101807	0.022705	0.085693	0.087249	0.017403	0.032791	0.052446	-0.571903	-0.102045	-0.812258	18.028262	-70.012933	174.708989						
07400		9.073900	1.892314	3.511477	0.563120	-0.761932	0.053857	-0.091044	-0.903544	0.122547	-1.102051	0.027344	0.103271	0.090568	0.018995	0.035516	0.052229	-0.575739	-0.101546	-0.809620	18.240961	-70.538869	174.426860						
07401		9.631703	2.082109	3.719558	0.681259	-0.884298	0.660786	-0.267265	-0.552815	0.075764	-1.097412	0.022949	0.101318	0.096206	0.020907	0.037434	0.051510	-0.578148	-0.100372	-0.808095	18.249202	-70.862851	174.255987						
07402		10.352243	2.262051	3.914614	0.695342	-1.006972	1.417294	-0.352151	-0.084244	0.078351	-1.095459	0.027588	0.103271	0.103497	0.022730	0.039150	0.050772	-0.578705	-0.098730	-0.807945	17.969520	-70.935099	174.337668						
07403		10.992333	2.382073	4.308513	0.864115	-1.044991	2.155189	-0.336341	0.268035	0.101768	-1.097412	0.025146	0.096680	0.109969	0.023949	0.042898	0.050367	-0.577821	-0.096991	-0.808813	17.477441	-70.816127	174.654632						
07404		11.474295	2.356331	4.945088	1.241993	-0.906611	2.808746	-0.304289	0.559070	0.127915	-1.102051	0.027344	0.085449	0.114865	0.023712	0.049094	0.050285	-0.575771	-0.095234	-0.810487	16.833682	-70.542386	175.151451						
07405		11.634462	2.111585	5.674695	1.723600	-0.557495	3.177255	-0.340505	0.954822	0.102890	-1.097412	0.022705	0.074463	0.116603	0.021272	0.056155	0.050200	-0.572094	-0.093299	-0.813316	16.043675	-70.043876	175.783474						
07406		11.057251	1.742752	6.119181	2.115405	-0.173887	2.766516	-0.386579	1.391900	0.017673	-1.104004	0.022705	0.058838	0.110993	0.017555	0.060386	0.049820	-0.566581	-0.091314	-0.817414	15.215692	-69.286554	176.429654						
07407		10.181817	1.493213	5.986098	2.076190	-0.028102	1.909845	-0.318287	1.653333	-0.059504	-1.106445	0.024658	0.038574	0.102313	0.014996	0.058993	0.049454	-0.559921	-0.089750	-0.822185	14.486351	-68.371630	177.016303						
07408		9.820046	1.736947	6.193652	2.271231	-0.265656	1.701671	-0.038774	1.356552	-0.062273	-1.101807	0.024658	0.027344	0.098623	0.017351	0.061265	0.049701	-0.554363	-0.089418	-0.825963	14.074772	-67.616550	177.435691						
07409		9.853307	2.022250	6.448252	2.431361	-0.502283	1.874609	0.201289	0.613203	-0.020691	-1.101807	0.024658	0.029541	0.098732	0.020148	0.064200	0.050473	-0.551835	-0.090137	-0.827530	14.007416	-67.282273	177.633612						
07410		10.756528	2.402615	6.282491	1.981078	-0.880254	2.687134	0.435933	-0.131967	0.072265	-1.099609	0.024658	0.024902	0.107515	0.023928	0.062948	0.051923	-0.552365	-0.091763	-0.826908	14.204100	-67.374530	177.690617						
07411		12.383181	2.650280	6.188088	1.395742	-1.095021	4.169835	0.464513	-0.860469	0.260850	-1.097412	0.027100	0.038330	0.123529	0.026519	0.062474	0.053914	-0.555980	-0.093169	-0.824196	14.409317	-67.898636	177.756612						
07412		13.265921	2.416267	5.944591	0.976978	-0.903809	4.863336	0.070815	-1.440116	0.473341	-1.093018	0.029541	0.056152	0.132169	0.024455	0.060407	0.055395	-0.562163	-0.092520	-0.819966	14.303166	-68.773929	177.913899						
07413		12.547473	1.402954	5.068597	0.454553	-0.144918	3.783888	-0.555181	-1.418298	0.464657	-1.091309	0.038574	0.066650	0.125078	0.014463	0.051534	0.055106	-0.568393	-0.089311	-0.816037	13.819334	-69.636330	178.091283						
07414		11.472057	0.418332	3.473591	-0.660730	0.422615	2.155282	-0.973196	-0.945612	0.348908	-1.095947	0.040771	0.080078	0.114547	0.004554	0.035256	0.053344	-0.572727	-0.084597	-0.813622	13.074430	-70.218921	178.289967						
07415		10.584140	-0.262632	1.712722	-2.004506	0.686689	0.700925	-0.859806	-0.728271	0.356579	-1.091797	0.047607	0.079590	0.105782	-0.002363	0.017523	0.052048	-0.576124	-0.080254	-0.811746	12.271650	-70.680234	178.619191						
07416		10.051177	-0.693734	0.632575	-2.812317	0.869944	-0.156564	-0.418380	-0.921768	0.395094	-1.089355	0.047607	0.099854	0.100495	-0.006725	0.006803	0.052090	-0.580183	-0.077642	-0.809102	11.703712	-71.252264	178.965945						
07417		10.285561	-0.862895	0.145611	-3.256717	0.925062	-0.061017	-0.027546	-1.248629	0.424514	-1.085449	0.058838	0.112549	0.102862	-0.008410	0.002099	0.053267	-0.585457	-0.076605	-0.805317	11.393944	-72.011229	179.275813						
07418		11.085456	-0.953458	0.018615	-3.488597	0.974681	0.707473	0.147751	-1.564045	0.461340	-1.083252	0.061279	0.121338	0.110870	-0.009279	0.001046	0.054973	-0.591943	-0.076246	-0.800480	11.208021	-72.952038	179.559004						
07419		11.826244	-1.179248	-0.047090	-3.631670	1.170466	1.443017	0.081556	-1.561275	0.396234	-1.079102	0.068115	0.141113	0.118284	-0.011558	0.000448	0.056229	-0.598364	-0.075808	-0.795646	11.078547	-73.882915	179.742954						
07420		12.526929	-1.453818	-0.291536	-3.953899	1.384672	2.085654	-0.054245	-0.986746	0.256925	-1.076904	0.070557	0.147705	0.125300	-0.014378	-0.002293	0.056737	-0.602453	-0.075080	-0.792587	10.908155	-74.474803	179.887527						
07421		12.965097	-1.719847	-0.392943	-4.148097	1.614567	2.491477	0.011362	-0.051888	0.134934	-1.083740	0.070313	0.136719	0.129664	-0.017111	-0.003897	0.057312	-0.602769	-0.074715	-0.792340	10.651216	-74.527772	-179.838978						
07422		12.386051	-1.787541	-0.079846	-3.759882	1.724230	1.998540	0.177790	0.927239	-0.064561	-1.083496	0.065674	0.132324	0.123849	-0.017914	-0.001389	0.057965	-0.599061	-0.075326	-0.795042	10.524066	-74.005861	-179.601109						
07423		11.418176	-1.567973	0.402899	-3.148104	1.589918	1.167015	0.414671	1.674261	-0.249058	-1.090332	0.070068	0.112061	0.114190	-0.015829	0.003040	0.058870	-0.592232	-0.077215	-0.799896	10.631406	-73.045981	-179.465177						
07424		10.854503	-1.108918	0.889492	-2.637773	1.225576	0.740873	0.829498	1.807464	-0.221016	-1.092773	0.069824	0.096191	0.108607	-0.011243	0.007867	0.061160	-0.584692	-0.080631	-0.804918	10.878812	-72.012072	-179.226600						
07425		10.762767	-0.720418	1.779211	-1.879706	1.020413	0.908567	1.250569	1.273106	-0.105948	-1.092529	0.069824	0.087402	0.107734	-0.007369	0.017061	0.064926	-0.579184	-0.085564	-0.808090	11.343215	-71.293933	-178.960867						
07426		10.886455	-0.309781	2.788648	-1.011259	0.851097	1.351535	1.416830	0.538046	-0.079474	-1.090576	0.072021	0.075928	0.108938	-0.003337	0.027570	0.068964	-0.576560	-0.091319	-0.809002	12.092179	-70.991642	-178.894722						
07427		10.932310	0.077122	3.261077	-0.551684	0.625719	1.565353	1.507560	0.060907	-0.095278	-1.085693	0.067627	0.078369	0.109333	0.000473	0.032582	0.072975	-0.575798	-0.097652	-0.808452	13.081532	-70.955072	-179.027457						
07428		10.560108	0.557642	3.277886	-0.312540	0.227478	1.251741	1.634427	-0.058690	-0.122952	-1.092529	0.069824	0.078369	0.105595	0.005243	0.032854	0.077179	-0.575420	-0.104609	-0.807460	14.230941	-70.980060	-179.253057						
