// General information: 
//  MT Manager version: 2019.2.0 
//  XDA version: 2019.2.0 build 3853 rev 94535 built on 2019-09-09
// Device information: 
//  DeviceId: 00B40A40
//  ProductCode: MTW2-3A7G6
//  Firmware Version: 4.4.0
//  Hardware Version: 1.1.0
// Device settings: 
//  Filter Profile: human(46.1)
//  Option Flags: Orientation Smoother Disabled, AHS Disabled, ICC Disabled
// Coordinate system: ENU
PacketCounter	SampleTimeFine	Acc_X	Acc_Y	Acc_Z	FreeAcc_E	FreeAcc_N	FreeAcc_U	Gyr_X	Gyr_Y	Gyr_Z	Mag_X	Mag_Y	Mag_Z	VelInc_X	VelInc_Y	VelInc_Z	Quat_q0	Quat_q1	Quat_q2	Quat_q3	Roll	Pitch	Yaw
25778		7.849960	0.912957	3.265950	0.085123	-0.831824	-1.302540	-1.045449	-0.084048	-0.457318	-1.110352	0.120361	0.012451	0.078507	0.009121	0.032645	0.095998	-0.545053	-0.069017	-0.830023	1.434543	-66.644686	-167.748518
25779		8.170613	0.737696	3.283591	-0.059836	-0.681723	-1.002651	-0.997818	-0.214831	-0.441481	-1.107910	0.113770	0.019531	0.081687	0.007361	0.032887	0.091405	-0.546333	-0.066157	-0.829933	1.443683	-66.770672	-168.381469
25780		8.625154	0.525253	3.099240	-0.430446	-0.541677	-0.658687	-0.920253	-0.314614	-0.388524	-1.112061	0.104736	0.024658	0.086213	0.005228	0.031104	0.087187	-0.548001	-0.063529	-0.829492	1.439853	-66.955763	-168.951739
25781		8.873488	0.234405	3.091942	-0.566519	-0.268764	-0.433957	-0.804106	-0.367444	-0.304567	-1.104980	0.095947	0.025146	0.088681	0.002334	0.031073	0.083638	-0.549843	-0.061163	-0.828817	1.389722	-67.171206	-169.398138
25782		8.696386	0.015376	2.882979	-0.697906	-0.074182	-0.677795	-0.718253	-0.384112	-0.235454	-1.109375	0.095947	0.029785	0.086908	0.000155	0.028996	0.080562	-0.551734	-0.058983	-0.828022	1.309306	-67.398400	-169.759077
25783		8.503992	-0.311681	2.795273	-0.731379	0.249084	-0.889040	-0.644076	-0.412761	-0.195124	-1.104736	0.091553	0.041260	0.084979	-0.003109	0.028138	0.077890	-0.553710	-0.056995	-0.827097	1.208631	-67.641651	-170.050059
25784		8.497584	-0.565417	2.747791	-0.779892	0.495645	-0.911848	-0.576878	-0.413613	-0.154369	-1.102539	0.093994	0.047852	0.084914	-0.005640	0.027670	0.075527	-0.555674	-0.055187	-0.826121	1.102782	-67.887169	-170.294891
25785		8.753581	-0.684241	2.758144	-0.846415	0.600561	-0.668099	-0.519576	-0.385942	-0.098140	-1.104980	0.093994	0.047852	0.087479	-0.006813	0.027768	0.073607	-0.557503	-0.053432	-0.825177	0.939267	-68.116507	-170.440166
25786		8.772027	-0.612020	2.786055	-0.777326	0.532429	-0.636778	-0.460551	-0.306351	-0.049943	-1.104980	0.093994	0.050049	0.087676	-0.006078	0.028009	0.072038	-0.559001	-0.051769	-0.824408	0.746872	-68.302400	-170.518850
25787		8.604463	-0.423254	2.839956	-0.603765	0.361001	-0.769105	-0.407426	-0.239369	-0.021896	-1.107178	0.093994	0.061279	0.086010	-0.004184	0.028511	0.070783	-0.560196	-0.050210	-0.823802	0.533782	-68.448608	-170.541297
25788		8.413982	-0.226087	2.894259	-0.428824	0.180953	-0.924139	-0.364355	-0.157572	-0.017034	-1.104980	0.093994	0.056641	0.084117	-0.002215	0.029013	0.069660	-0.561046	-0.048796	-0.823403	0.343411	-68.549432	-170.562543
25789		8.186444	-0.114895	3.090242	-0.134521	0.108515	-1.063358	-0.298674	-0.072724	-0.007040	-1.102539	0.089600	0.056885	0.081853	-0.001106	0.030934	0.068812	-0.561516	-0.047584	-0.823226	0.167566	-68.600250	-170.558033
25790		7.914281	-0.083816	3.102672	-0.011940	0.087808	-1.312006	-0.234306	-0.038819	0.018326	-1.106934	0.089355	0.054688	0.079137	-0.000795	0.031043	0.068259	-0.561831	-0.046560	-0.823115	-0.008186	-68.632064	-170.513317
25791		7.729626	0.046758	3.008216	-0.004932	-0.054098	-1.518369	-0.146174	-0.027844	0.081704	-1.100342	0.093994	0.056641	0.077292	0.000521	0.030093	0.068214	-0.562083	-0.045711	-0.822995	-0.227424	-68.657052	-170.368399
25792		7.537921	0.188927	3.157028	0.228222	-0.171322	-1.643151	-0.136604	-0.000519	0.093456	-1.102539	0.093994	0.058838	0.075378	0.001946	0.031569	0.068253	-0.562224	-0.044864	-0.822942	-0.457747	-68.666543	-170.205017
25793		7.287737	0.068907	3.234139	0.373055	-0.035803	-1.848075	-0.068480	-0.022312	0.079309	-1.107666	0.104980	0.056152	0.072873	0.000729	0.032349	0.068419	-0.562425	-0.044340	-0.822819	-0.629577	-68.687982	-170.063237
25794		7.179117	0.208007	3.453630	0.641640	-0.141103	-1.870463	-0.055430	-0.044484	0.079070	-1.104980	0.098389	0.065430	0.071783	0.002118	0.034552	0.068617	-0.562715	-0.043882	-0.822629	-0.793528	-68.722371	-169.921223
25795		7.051531	0.317817	3.476443	0.731402	-0.245162	-1.982253	-0.075537	-0.030480	0.060048	-1.111816	0.098389	0.061035	0.070509	0.003212	0.034774	0.068681	-0.562947	-0.043386	-0.822491	-0.941934	-68.748364	-169.808973
25796		6.903920	0.302650	3.411356	0.726890	-0.237530	-2.144033	-0.107854	-0.042781	0.054727	-1.105225	0.102783	0.060791	0.069031	0.003064	0.034127	0.068632	-0.563243	-0.042781	-0.822324	-1.100844	-68.781723	-169.704645
25797		6.810054	0.324109	3.537289	0.886264	-0.241192	-2.187030	-0.118197	-0.071790	0.045879	-1.105225	0.102783	0.062988	0.068087	0.003278	0.035395	0.068509	-0.563656	-0.042163	-0.822083	-1.254762	-68.831326	-169.612752
25798		6.866530	0.344718	3.573002	0.912094	-0.267058	-2.123009	-0.123958	-0.123195	0.058359	-1.104980	0.096191	0.058838	0.068642	0.003489	0.035770	0.068412	-0.564287	-0.041509	-0.821691	-1.432056	-68.910459	-169.498675
25799		7.117324	0.418993	3.539393	0.816467	-0.368833	-1.903422	-0.126300	-0.135358	0.050511	-1.100586	0.100830	0.067627	0.071148	0.004230	0.035439	0.068272	-0.564965	-0.040867	-0.821270	-1.601434	-68.996204	-169.395282
25800		7.118366	0.368957	3.563915	0.843834	-0.322105	-1.894800	-0.102155	-0.140768	0.044457	-1.107422	0.098389	0.069824	0.071158	0.003724	0.035687	0.068176	-0.565656	-0.040348	-0.820827	-1.748307	-69.085367	-169.300522
25801		7.201459	0.290388	3.490119	0.746987	-0.265519	-1.844139	-0.058287	-0.130892	0.047107	-1.100586	0.100830	0.069824	0.071991	0.002931	0.034947	0.068215	-0.566290	-0.039993	-0.820404	-1.875428	-69.168423	-169.200769
25802		7.109700	0.291277	3.443203	0.746569	-0.271001	-1.947733	-0.007675	-0.087791	0.059097	-1.105225	0.100586	0.069824	0.071081	0.002935	0.034463	0.068457	-0.566734	-0.039802	-0.820086	-1.989279	-69.226788	-169.083513
25803		7.027093	0.354965	3.443738	0.793269	-0.332337	-2.026440	0.006937	-0.048489	0.066064	-1.103271	0.107422	0.071533	0.070261	0.003572	0.034455	0.068774	-0.567012	-0.039632	-0.819876	-2.104697	-69.262126	-168.956388
25804		7.400289	0.413251	3.653496	0.870804	-0.390073	-1.604605	0.014073	-0.000516	0.076313	-1.105225	0.100830	0.074219	0.074001	0.004158	0.036535	0.069166	-0.567093	-0.039452	-0.819796	-2.228114	-69.269954	-168.815619
25805		8.044597	0.400878	4.179565	1.133267	-0.352606	-0.816222	0.050671	0.014397	0.092904	-1.105469	0.105225	0.067383	0.080447	0.004036	0.041791	0.069730	-0.567103	-0.039364	-0.819746	-2.355818	-69.268483	-168.648586
25806		8.831129	0.420724	4.744218	1.389761	-0.351149	0.118007	0.074253	-0.047221	0.103790	-1.105713	0.111816	0.069092	0.088298	0.004235	0.047465	0.070361	-0.567359	-0.039373	-0.819514	-2.482052	-69.302164	-168.469867
25807		9.477099	0.391049	4.961056	1.373528	-0.342143	0.797532	0.077540	-0.118273	0.125272	-1.105713	0.111816	0.069092	0.094739	0.003951	0.049668	0.071108	-0.567908	-0.039350	-0.819070	-2.653077	-69.375515	-168.240159
25808		9.659504	0.518259	4.875295	1.269809	-0.499359	0.933535	0.119070	-0.153015	0.147805	-1.105469	0.107422	0.069336	0.096554	0.005225	0.048830	0.072047	-0.568584	-0.039453	-0.818514	-2.834373	-69.467422	-167.974060
25809		9.563366	0.738077	4.955819	1.434018	-0.702842	0.864974	0.133309	-0.163687	0.143646	-1.103271	0.109619	0.069336	0.095588	0.007416	0.049641	0.073018	-0.569302	-0.039622	-0.817921	-3.008384	-69.565721	-167.707322
25810		9.687529	0.763201	5.043831	1.497183	-0.725897	1.008700	0.180260	-0.140606	0.119292	-1.103271	0.109619	0.075928	0.096835	0.007644	0.050513	0.074005	-0.569893	-0.040054	-0.817399	-3.110380	-69.650408	-167.489381
25811		10.161951	0.779128	5.090741	1.397529	-0.768763	1.467554	0.220541	-0.075747	0.086623	-1.107910	0.114014	0.080322	0.101597	0.007779	0.050954	0.075008	-0.570206	-0.040710	-0.817057	-3.141990	-69.699844	-167.321475
25812		10.701349	0.860563	4.967692	1.123136	-0.904909	1.928569	0.198490	-0.016126	0.057436	-1.101074	0.109863	0.082764	0.107007	0.008587	0.049694	0.075819	-0.570276	-0.041344	-0.816901	-3.129808	-69.716347	-167.214500
25813		11.073331	1.028023	4.934115	0.998018	-1.099882	2.262709	0.100982	0.009338	0.001396	-1.103516	0.111816	0.075928	0.110736	0.010256	0.049341	0.076151	-0.570268	-0.041722	-0.816857	-3.091146	-69.719770	-167.194588
25814		11.723379	1.030894	5.231676	1.056118	-1.099381	2.975853	0.019013	-0.020623	-0.076201	-1.101074	0.109863	0.082764	0.117232	0.010259	0.052330	0.075901	-0.570398	-0.042006	-0.816775	-2.974814	-69.743093	-167.308414
25815		12.871100	0.794586	5.423587	0.807247	-0.910342	4.124008	0.017174	-0.013660	-0.141785	-1.103271	0.109619	0.075928	0.128713	0.007850	0.054245	0.075405	-0.570485	-0.042459	-0.816736	-2.763820	-69.763812	-167.523368
25816		13.977032	0.510462	5.509448	0.459647	-0.677830	5.197350	0.041841	0.053234	-0.179451	-1.098633	0.107666	0.076172	0.139789	0.004968	0.055058	0.074818	-0.570281	-0.043103	-0.816899	-2.469067	-69.747133	-167.813144
25817		14.129730	0.283138	5.042069	-0.082065	-0.515929	5.183274	0.018759	0.171854	-0.171606	-1.098877	0.109863	0.071533	0.141343	0.002705	0.050300	0.074243	-0.569603	-0.043578	-0.817399	-2.199313	-69.661648	-168.089847
25818		13.471266	0.070540	4.930997	-0.027801	-0.259910	4.530473	0.022486	0.231674	-0.142423	-1.103027	0.105225	0.071777	0.134770	0.000604	0.049154	0.073801	-0.568680	-0.043971	-0.818061	-1.966861	-69.540448	-168.324535
25819		13.309967	-0.194937	4.876603	-0.103788	0.015152	4.363467	-0.001134	0.267931	-0.117346	-1.103027	0.100830	0.067627	0.133164	-0.002027	0.048588	0.073413	-0.567626	-0.044174	-0.818816	-1.791712	-69.398166	-168.512811
25820		13.453919	-0.525062	4.633712	-0.474466	0.298321	4.415476	0.000817	0.313687	-0.085676	-1.103271	0.109619	0.069336	0.134609	-0.005308	0.046126	0.073154	-0.566386	-0.044286	-0.819691	-1.658616	-69.228639	-168.655338
25821		13.178879	-0.777828	4.184983	-0.877331	0.496213	3.999838	-0.021784	0.310138	-0.039337	-1.100830	0.105225	0.062744	0.131852	-0.007800	0.041646	0.073036	-0.565182	-0.044168	-0.820539	-1.615335	-69.060629	-168.715566
25822		12.329551	-1.031217	3.546221	-1.247260	0.700128	2.978363	-0.047379	0.280097	0.000505	-1.103271	0.107422	0.055908	0.123345	-0.010303	0.035292	0.072998	-0.564117	-0.043849	-0.821292	-1.645366	-68.909254	-168.712651
25823		11.198665	-1.281173	2.628690	-1.763919	0.875226	1.592750	-0.040643	0.258732	0.026703	-1.105469	0.104980	0.051514	0.112022	-0.012791	0.026145	0.073086	-0.563143	-0.043486	-0.821972	-1.713397	-68.769592	-168.665227
25824		10.068579	-1.342266	1.991238	-1.984868	0.907382	0.305607	0.007364	0.278605	0.059850	-1.103027	0.105225	0.051514	0.100717	-0.013393	0.019772	0.073445	-0.562070	-0.043226	-0.822687	-1.797986	-68.617271	-168.569941
25825		9.286474	-1.414590	1.816597	-1.902891	0.997250	-0.489377	0.064937	0.280938	0.071861	-1.101074	0.111816	0.053467	0.092895	-0.014118	0.018031	0.074020	-0.560974	-0.043161	-0.823387	-1.868646	-68.464020	-168.454597
25826		8.920126	-1.540044	1.890468	-1.747913	1.147537	-0.804794	0.134693	0.251033	0.116929	-1.103516	0.114014	0.046631	0.089234	-0.015361	0.018782	0.074967	-0.559983	-0.043274	-0.823970	-1.962491	-68.326981	-168.270827
25827		8.885330	-1.551373	1.979899	-1.678735	1.160545	-0.806537	0.222129	0.273403	0.174450	-1.110107	0.111572	0.042236	0.088894	-0.015458	0.019660	0.076403	-0.558878	-0.043572	-0.824572	-2.087860	-68.175826	-167.999385
25828		8.917718	-1.326780	2.163753	-1.508243	0.948927	-0.713648	0.264993	0.277717	0.196234	-1.099121	0.120605	0.032715	0.089220	-0.013209	0.021496	0.078048	-0.557740	-0.043989	-0.825166	-2.214985	-68.021336	-167.698791
25829		9.039718	-1.269112	2.361779	-1.384870	0.897698	-0.529295	0.334092	0.215126	0.202178	-1.108154	0.120605	0.032715	0.090435	-0.012639	0.023499	0.079898	-0.556834	-0.044693	-0.825563	-2.313464	-67.902500	-167.386599
25830		9.101033	-1.316599	2.451904	-1.354024	0.940018	-0.439480	0.507127	0.164362	0.224311	-1.106201	0.125000	0.034668	0.091045	-0.013126	0.024411	0.082314	-0.556064	-0.046076	-0.825769	-2.344181	-67.811396	-167.039261
25831		8.678216	-1.470781	2.607648	-1.104595	1.142251	-0.771142	0.719652	0.119110	0.271565	-1.103760	0.122803	0.039307	0.086818	-0.014684	0.025972	0.085499	-0.555403	-0.048217	-0.825768	-2.321474	-67.745769	-166.618938
25832		8.241190	-1.654128	2.887512	-0.742467	1.402354	-1.067792	0.903561	0.024655	0.318394	-1.104004	0.127197	0.032227	0.082442	-0.016540	0.028790	0.089363	-0.555056	-0.051031	-0.825423	-2.262464	-67.733601	-166.123555
25833		8.434885	-1.669510	3.217606	-0.530910	1.457282	-0.763821	0.934934	-0.046540	0.340433	-1.097656	0.136475	0.033936	0.084370	-0.016702	0.032118	0.093386	-0.554979	-0.053940	-0.824844	-2.221501	-67.761520	-165.589592
25834		8.817530	-1.546325	3.396141	-0.490483	1.332491	-0.343916	0.901705	-0.096574	0.370677	-1.098145	0.145264	0.033447	0.088188	-0.015453	0.033934	0.097425	-0.555119	-0.056653	-0.824100	-2.244961	-67.817660	-165.006385
25835		9.432756	-1.092926	3.335943	-0.665158	0.811251	0.197274	0.795219	-0.149690	0.400005	-1.100342	0.147461	0.031006	0.094324	-0.010873	0.033387	0.101273	-0.555526	-0.058867	-0.823207	-2.376601	-67.903014	-164.372931
25836		9.562124	-0.757841	3.144426	-0.794180	0.419930	0.241609	0.722585	-0.172533	0.408955	-1.093994	0.154297	0.037354	0.095609	-0.007497	0.031500	0.104955	-0.556055	-0.060771	-0.822250	-2.567904	-68.000661	-163.719555
25837		9.181114	-0.474132	2.873398	-0.815890	0.112989	-0.216043	0.728297	-0.182499	0.390462	-1.093750	0.152100	0.032959	0.091794	-0.004667	0.028801	0.108564	-0.556606	-0.062751	-0.821259	-2.733411	-68.103629	-163.091786
25838		8.795670	-0.273806	2.714831	-0.753040	-0.083554	-0.634724	0.764679	-0.184041	0.341136	-1.087402	0.158936	0.037109	0.087936	-0.002692	0.027219	0.112073	-0.557119	-0.065020	-0.820262	-2.811584	-68.208616	-162.535510
25839		8.621298	-0.151519	2.709726	-0.648069	-0.186129	-0.799491	0.796352	-0.158545	0.277877	-1.087646	0.163330	0.036621	0.086194	-0.001503	0.027160	0.115413	-0.557478	-0.067577	-0.819348	-2.781526	-68.300424	-162.077196
25840		8.743525	0.037172	2.755563	-0.587475	-0.368876	-0.671432	0.763295	-0.098881	0.220092	-1.090088	0.167725	0.036377	0.087421	0.000363	0.027600	0.118448	-0.557583	-0.070126	-0.818629	-2.684811	-68.360143	-161.710586
25841		8.797872	0.122275	2.842219	-0.499930	-0.431618	-0.589917	0.678622	-0.001766	0.165317	-1.090332	0.176758	0.035889	0.087977	0.001199	0.028427	0.121049	-0.557313	-0.072421	-0.818233	-2.551081	-68.365690	-161.436715
25842		8.587696	0.085957	2.814098	-0.463811	-0.375347	-0.794980	0.638607	0.070920	0.140452	-1.092285	0.169922	0.031982	0.085886	0.000830	0.028113	0.123474	-0.556755	-0.074578	-0.818056	-2.401251	-68.330723	-161.203735
25843		8.299420	0.185716	2.896240	-0.268986	-0.412548	-1.034276	0.588745	0.128688	0.137242	-1.094971	0.176514	0.029297	0.083012	0.001829	0.028914	0.125755	-0.555983	-0.076502	-0.818056	-2.270054	-68.262741	-160.982435
25844		7.928957	0.130165	3.001640	-0.074442	-0.286155	-1.338745	0.485167	0.206934	0.122839	-1.090576	0.178955	0.031250	0.079320	0.001278	0.029937	0.127726	-0.554946	-0.077996	-0.818314	-2.173125	-68.150468	-160.787129
25845		7.434454	0.087138	3.130601	0.184994	-0.150660	-1.749040	0.380003	0.218564	0.096813	-1.092773	0.178711	0.022461	0.074378	0.000848	0.031226	0.129295	-0.553916	-0.079120	-0.818658	-2.097665	-68.032176	-160.634348
25846		7.150545	-0.116326	3.218209	0.285998	0.101182	-1.976321	0.306504	0.207417	0.083262	-1.092529	0.174316	0.024902	0.071539	-0.001183	0.032106	0.130610	-0.552972	-0.079991	-0.819002	-2.046392	-67.920826	-160.499784
25847		6.919297	-0.175488	3.330945	0.434441	0.215502	-2.146694	0.256913	0.208478	0.082334	-1.090820	0.187744	0.017334	0.069228	-0.001769	0.033235	0.131774	-0.552052	-0.080657	-0.819371	-2.020494	-67.808706	-160.369389
25848		6.647881	-0.138685	3.374531	0.566840	0.224209	-2.381037	0.212781	0.186593	0.079627	-1.092773	0.180908	0.013184	0.066511	-0.001396	0.033682	0.132806	-0.551250	-0.081167	-0.819694	-2.017659	-67.709355	-160.240326
25849		6.457674	-0.234177	3.487147	0.692740	0.368850	-2.511959	0.208452	0.161750	0.066488	-1.093018	0.185303	0.010742	0.064606	-0.002357	0.034817	0.133752	-0.550546	-0.081709	-0.819959	-1.998658	-67.624332	-160.132307
25850		6.331496	-0.269947	3.466068	0.697988	0.414264	-2.635255	0.228288	0.115284	0.018112	-1.093018	0.187500	0.008301	0.063335	-0.002733	0.034621	0.134546	-0.549995	-0.082500	-0.820120	-1.903953	-67.566574	-160.092661
25851		6.199807	-0.321378	3.497278	0.749495	0.494731	-2.744071	0.267841	0.039188	-0.007220	-1.093018	0.185547	0.015137	0.062005	-0.003263	0.034956	0.135302	-0.549721	-0.083571	-0.820071	-1.754260	-67.553214	-160.089143
25852		6.183519	-0.330587	3.627888	0.863642	0.552180	-2.709450	0.218663	-0.012390	-0.056992	-1.092773	0.180908	0.013184	0.061832	-0.003363	0.036279	0.135710	-0.549669	-0.084614	-0.819931	-1.567361	-67.570166	-160.155183
25853		6.511273	-0.566341	3.579644	0.627221	0.730721	-2.423242	0.206356	-0.021932	-0.076692	-1.090576	0.180908	0.013184	0.065107	-0.005725	0.035798	0.135987	-0.549656	-0.085664	-0.819785	-1.358822	-67.592839	-160.253431
25854		6.760075	-0.535680	3.746032	0.692027	0.730117	-2.131130	0.169384	-0.027162	-0.104288	-1.085938	0.176758	0.020264	0.067593	-0.005424	0.037465	0.136052	-0.549679	-0.086645	-0.819656	-1.133309	-67.618844	-160.392243
25855		7.065375	-0.598806	3.835214	0.639774	0.789532	-1.815546	0.133399	-0.036263	-0.104193	-1.090576	0.180908	0.013184	0.070644	-0.006050	0.038361	0.136008	-0.549762	-0.087482	-0.819519	-0.927991	-67.649727	-160.532173
25856		7.324947	-0.752879	3.877621	0.534340	0.927054	-1.559647	0.070249	-0.023976	-0.127269	-1.087891	0.174316	0.015869	0.073240	-0.007589	0.038782	0.135707	-0.549830	-0.088116	-0.819455	-0.726544	-67.674007	-160.706486
25857		7.561467	-0.789206	4.009486	0.551932	0.982184	-1.291814	0.067457	0.000844	-0.132366	-1.092529	0.174316	0.013672	0.075610	-0.007956	0.040092	0.135383	-0.549793	-0.088735	-0.819467	-0.518313	-67.683425	-160.890362
25858		7.854813	-0.878498	3.985107	0.393729	1.034191	-1.030528	-0.002788	0.020317	-0.151046	-1.092529	0.174316	0.013672	0.078546	-0.008844	0.039843	0.134801	-0.549715	-0.089106	-0.819574	-0.323901	-67.681672	-161.102378
25859		8.288522	-0.993772	4.067293	0.269284	1.124710	-0.598972	-0.044546	0.036433	-0.169065	-1.090332	0.174316	0.013672	0.082884	-0.009999	0.040660	0.134035	-0.549591	-0.089342	-0.819757	-0.128309	-67.670299	-161.341968
25860		8.892672	-1.002384	4.367165	0.306591	1.157996	0.072734	-0.096541	0.060451	-0.193255	-1.092285	0.169922	0.013916	0.088930	-0.010089	0.043650	0.133044	-0.549392	-0.089417	-0.820044	0.070206	-67.644889	-161.616311
25861		9.365706	-1.058522	4.824136	0.513900	1.298556	0.682971	-0.149582	0.039756	-0.200487	-1.098877	0.167480	0.018555	0.093656	-0.010643	0.048231	0.131861	-0.549309	-0.089307	-0.820303	0.248757	-67.630950	-161.902615
25862		9.818524	-1.011345	5.236399	0.724718	1.330263	1.257601	-0.191017	0.015591	-0.209444	-1.092041	0.165283	0.011963	0.098179	-0.010166	0.052366	0.130520	-0.549350	-0.089068	-0.820516	0.415721	-67.630812	-162.201802
25863		10.066377	-1.118259	5.228898	0.595103	1.411302	1.482351	-0.208125	0.005512	-0.220969	-1.092041	0.160889	0.014404	0.100653	-0.011239	0.052298	0.129076	-0.549435	-0.088796	-0.820717	0.589398	-67.635737	-162.519116
25864		10.014320	-1.218498	4.951365	0.337838	1.442913	1.326936	-0.209053	0.047535	-0.212136	-1.103271	0.160645	0.023438	0.100142	-0.012239	0.049503	0.127689	-0.549350	-0.088469	-0.821026	0.749288	-67.616200	-162.821760
25865		9.945909	-1.418232	4.853942	0.211555	1.619935	1.224717	-0.216092	0.081351	-0.178517	-1.098145	0.149658	0.017334	0.099466	-0.014219	0.048514	0.126431	-0.549145	-0.087999	-0.821408	0.857453	-67.577385	-163.073234
25866		10.566078	-1.564623	5.122631	0.173275	1.770418	1.899144	-0.202819	0.062393	-0.138854	-1.098389	0.151855	0.012695	0.105666	-0.015668	0.051209	0.125358	-0.549030	-0.087486	-0.821704	0.918774	-67.550251	-163.266279
25867		11.333552	-1.619132	5.297366	0.025517	1.785737	2.675049	-0.217704	0.105786	-0.083514	-1.093750	0.149658	0.012939	0.113357	-0.016181	0.052931	0.124497	-0.548766	-0.086732	-0.822091	0.892926	-67.498126	-163.373854
25868		11.917942	-1.612894	5.541587	0.019003	1.774692	3.309737	-0.166756	0.152430	-0.011237	-1.098389	0.151855	0.015137	0.119221	-0.016089	0.055338	0.124088	-0.548308	-0.085961	-0.822540	0.796184	-67.419811	-163.373338
25869		13.122815	-1.516812	5.972697	-0.028339	1.655250	4.590139	-0.067536	0.137811	0.051422	-1.095947	0.149658	0.006104	0.131273	-0.015114	0.059642	0.124207	-0.547875	-0.085434	-0.822865	0.669930	-67.350452	-163.279046
25870		14.022741	-1.190301	5.822923	-0.410347	1.181316	5.366131	-0.015229	0.178707	0.119070	-1.091553	0.149658	0.012939	0.140286	-0.011815	0.058105	0.124760	-0.547270	-0.084912	-0.823238	0.481833	-67.257822	-163.085469
25871		13.568648	-0.665805	5.394138	-0.485008	0.585259	4.784241	0.057625	0.238672	0.169534	-1.098389	0.156250	0.005859	0.135756	-0.006559	0.053777	0.125750	-0.546393	-0.084515	-0.823710	0.267295	-67.130892	-162.817483
25872		12.727719	-0.358394	4.964857	-0.484173	0.240562	3.843104	0.123942	0.262240	0.184358	-1.091553	0.151855	0.008301	0.127345	-0.003497	0.049479	0.126987	-0.545384	-0.084334	-0.824208	0.073777	-66.990238	-162.531249
25873		12.365323	-0.122170	4.745975	-0.496241	-0.028559	3.423371	0.158991	0.250574	0.166592	-1.096436	0.160889	0.005615	0.123714	-0.001156	0.047304	0.128246	-0.544391	-0.084354	-0.824667	-0.073536	-66.855812	-162.272667
25874		12.403177	0.359232	4.644962	-0.477442	-0.541488	3.416911	0.149632	0.238366	0.141055	-1.096191	0.154053	-0.003174	0.124084	0.003645	0.046304	0.129362	-0.543445	-0.084411	-0.825111	-0.189377	-66.728630	-162.054552
25875		12.488774	1.089956	4.492891	-0.441292	-1.307815	3.432628	0.125966	0.203881	0.100659	-1.096436	0.163086	0.000977	0.124928	0.010934	0.044808	0.130239	-0.542635	-0.084504	-0.825496	-0.264180	-66.620707	-161.895057
25876		12.411931	1.795499	4.397264	-0.300354	-2.007405	3.321079	0.072007	0.202476	0.010569	-1.096436	0.163086	-0.001465	0.124163	0.017946	0.043853	0.130589	-0.541829	-0.084618	-0.825958	-0.248994	-66.513975	-161.867771
25877		11.960417	2.104850	3.998279	-0.407622	-2.360027	2.746462	0.028695	0.220530	-0.093672	-1.098877	0.165039	-0.014893	0.119658	0.020987	0.039854	0.130407	-0.540931	-0.084825	-0.826555	-0.122581	-66.396919	-161.988294
25878		10.999906	2.242084	3.509730	-0.454675	-2.502926	1.670849	-0.015592	0.221434	-0.184604	-1.094238	0.160645	-0.008057	0.110058	0.022322	0.034974	0.129729	-0.540017	-0.085095	-0.827231	0.095967	-66.279174	-162.237198
25879		10.050174	2.354842	3.085827	-0.456708	-2.601723	0.632213	-0.111834	0.229041	-0.259607	-1.098633	0.158447	-0.005615	0.100567	0.023435	0.030730	0.128484	-0.539102	-0.085163	-0.828014	0.354414	-66.156525	-162.590215
25880		9.367795	2.282637	2.952400	-0.366727	-2.476488	-0.044624	-0.282988	0.265108	-0.325558	-1.100586	0.153809	-0.011963	0.093754	0.022715	0.029368	0.126517	-0.538122	-0.084678	-0.829004	0.596625	-66.012854	-163.033291
25881		8.855720	2.108677	2.975410	-0.238989	-2.235399	-0.503064	-0.426412	0.288986	-0.354761	-1.100342	0.147217	-0.018311	0.088637	0.020993	0.029581	0.124054	-0.537112	-0.083660	-0.830134	0.789415	-65.854043	-163.512577
25882		8.688208	2.027777	3.101348	-0.127955	-2.100621	-0.604753	-0.566322	0.288549	-0.364485	-1.104980	0.149414	-0.022949	0.086964	0.020207	0.030831	0.121170	-0.536182	-0.082089	-0.831317	0.911344	-65.695094	-164.002763
25883		8.690924	1.796658	3.074682	-0.258535	-1.887623	-0.615747	-0.717485	0.266225	-0.357082	-1.104492	0.142578	-0.020264	0.086982	0.017921	0.030567	0.117904	-0.535430	-0.079881	-0.832486	0.933036	-65.548521	-164.478475
25884		8.603507	1.581067	3.012513	-0.372106	-1.691364	-0.724449	-0.818141	0.184692	-0.329259	-1.104736	0.144775	-0.022705	0.086089	0.015792	0.029981	0.114449	-0.535078	-0.077228	-0.833444	0.862103	-65.449025	-164.915969
25885		8.312916	1.439796	2.947530	-0.377154	-1.546199	-1.018799	-0.913478	0.135324	-0.339534	-1.104004	0.131592	-0.021973	0.083173	0.014391	0.029353	0.110676	-0.534970	-0.074229	-0.834295	0.748326	-65.377988	-165.366987
25886		7.923555	1.278173	2.882946	-0.339366	-1.370458	-1.402308	-0.978918	0.060079	-0.360124	-1.108643	0.129150	-0.017334	0.079267	0.012780	0.028743	0.106609	-0.535192	-0.071056	-0.834959	0.624338	-65.350445	-165.847948
25887		7.867126	1.184448	2.914830	-0.324873	-1.269924	-1.441752	-1.026559	-0.031935	-0.398062	-1.106201	0.129150	-0.021729	0.078690	0.011837	0.029100	0.102222	-0.535793	-0.067828	-0.835389	0.520649	-65.375664	-166.381524
25888		7.809598	0.926926	2.922413	-0.360370	-1.013716	-1.492109	-1.025219	-0.141899	-0.380143	-1.112549	0.117920	-0.018799	0.078093	0.009271	0.029232	0.097868	-0.536845	-0.064617	-0.835490	0.399192	-65.464671	-166.894357
25889		7.831333	0.657148	2.935197	-0.411985	-0.749857	-1.467331	-0.968058	-0.235542	-0.356530	-1.098877	0.115967	-0.014160	0.078290	0.006574	0.029412	0.093739	-0.538250	-0.061621	-0.835286	0.281907	-65.607589	-167.375436
25890		7.892828	0.352481	2.837608	-0.572016	-0.475275	-1.450877	-0.912287	-0.320316	-0.316727	-1.107910	0.115967	-0.007324	0.078888	0.003530	0.028486	0.089887	-0.539980	-0.058794	-0.834796	0.152088	-65.799501	-167.807084
25891		7.893179	0.042075	2.793067	-0.650130	-0.176860	-1.466955	-0.875565	-0.367600	-0.287252	-1.105713	0.113770	0.006104	0.078881	0.000430	0.028074	0.086251	-0.541887	-0.056055	-0.834133	0.005467	-66.019045	-168.196565
25892		7.948221	-0.254113	2.765918	-0.722961	0.108230	-1.424922	-0.824916	-0.394283	-0.272016	-1.107666	0.106934	0.006592	0.079424	-0.002535	0.027826	0.082801	-0.543879	-0.053501	-0.833353	-0.127688	-66.254993	-168.568293
25893		8.029388	-0.463105	2.821266	-0.708251	0.321934	-1.325068	-0.758488	-0.413983	-0.246553	-1.105225	0.102539	0.013672	0.080230	-0.004623	0.028396	0.079635	-0.545916	-0.051156	-0.832476	-0.255165	-66.501782	-168.904048
25894		8.168558	-0.423617	2.923843	-0.623366	0.295126	-1.153713	-0.703699	-0.399887	-0.225735	-1.104980	0.098145	0.020508	0.081622	-0.004225	0.029417	0.076697	-0.547873	-0.048982	-0.831597	-0.373486	-66.741450	-169.215233
25895		8.150606	-0.390087	3.049493	-0.460188	0.287647	-1.118474	-0.631579	-0.346568	-0.202251	-1.107178	0.098145	0.025146	0.081449	-0.003887	0.030648	0.074077	-0.549572	-0.047016	-0.830827	-0.482346	-66.949978	-169.490970
25896		8.044306	-0.363707	3.176115	-0.267499	0.291797	-1.165486	-0.543686	-0.309648	-0.181767	-1.104980	0.095947	0.025146	0.080390	-0.003624	0.031896	0.071777	-0.551090	-0.045351	-0.830115	-0.563130	-67.138460	-169.742599
25897		7.885602	-0.439195	3.069205	-0.288829	0.362864	-1.352162	-0.433125	-0.261172	-0.158860	-1.104980	0.095947	0.029541	0.078812	-0.004388	0.030804	0.069901	-0.552360	-0.044058	-0.829500	-0.613038	-67.298110	-169.958190
25898		7.687272	-0.138553	3.288594	0.059101	0.114501	-1.451374	-0.357299	-0.230237	-0.127849	-1.102539	0.093994	0.043213	0.076834	-0.001376	0.032977	0.068360	-0.553482	-0.042988	-0.828937	-0.657736	-67.440434	-170.132323
25899		7.533793	-0.151740	3.233664	0.085425	0.129819	-1.614305	-0.351698	-0.214572	-0.117949	-1.104736	0.091553	0.038818	0.075302	-0.001505	0.032420	0.066888	-0.554534	-0.041903	-0.828409	-0.714645	-67.573248	-170.289388
25900		7.543104	-0.045824	3.319399	0.195984	0.036983	-1.573809	-0.277110	-0.199503	-0.093846	-1.104736	0.089355	0.034668	0.075398	-0.000448	0.033270	0.065714	-0.555512	-0.041059	-0.827891	-0.758866	-67.698808	-170.414311
25901		7.577692	0.005739	3.359291	0.244354	-0.010441	-1.527372	-0.232477	-0.171116	-0.085517	-1.109375	0.091553	0.043457	0.075748	0.000064	0.033658	0.064716	-0.556347	-0.040363	-0.827443	-0.790789	-67.806567	-170.524293
25902		7.537640	0.190720	3.507353	0.438048	-0.170055	-1.510091	-0.199531	-0.161037	-0.071428	-1.106934	0.091553	0.043457	0.075349	0.001915	0.035132	0.063859	-0.557134	-0.039766	-0.827008	-0.820226	-67.908960	-170.616750
25903		7.511216	0.215600	3.596477	0.547855	-0.181196	-1.502062	-0.179946	-0.162774	-0.061082	-1.098145	0.093994	0.041016	0.075084	0.002165	0.036024	0.063110	-0.557920	-0.039216	-0.826562	-0.855688	-68.011781	-170.690280
25904		7.504379	0.246311	3.713600	0.677269	-0.195509	-1.465816	-0.156555	-0.166919	-0.057745	-1.106934	0.091553	0.047852	0.075013	0.002471	0.037197	0.062436	-0.558718	-0.038759	-0.826095	-0.880856	-68.117288	-170.760247
25905		7.451338	0.290647	3.753427	0.754942	-0.231486	-1.501755	-0.153859	-0.167673	-0.042885	-1.100586	0.096191	0.049805	0.074483	0.002919	0.037594	0.061833	-0.559518	-0.038269	-0.825622	-0.927078	-68.222783	-170.805976
25906		7.430890	0.355953	3.808345	0.838876	-0.289817	-1.502417	-0.157910	-0.195352	-0.012804	-1.102295	0.087402	0.054932	0.074272	0.003585	0.038153	0.061337	-0.560443	-0.037688	-0.825058	-1.018833	-68.344450	-170.804901
25907		7.478473	0.433880	3.855131	0.894334	-0.368623	-1.443572	-0.184919	-0.210744	0.019704	-1.100098	0.087402	0.059326	0.074744	0.004382	0.038626	0.060897	-0.561440	-0.036907	-0.824448	-1.175024	-68.473988	-170.751426
25908		7.621688	0.441507	3.807337	0.818723	-0.397709	-1.330213	-0.176066	-0.198159	0.033256	-1.102295	0.087402	0.066162	0.076178	0.004461	0.038145	0.060530	-0.562391	-0.036125	-0.823862	-1.344051	-68.597106	-170.679104
25909		7.726644	0.422598	3.685207	0.683434	-0.408227	-1.278837	-0.147196	-0.173168	0.045151	-1.100098	0.085205	0.063965	0.077234	0.004271	0.036916	0.060308	-0.563224	-0.035416	-0.823339	-1.517092	-68.704640	-170.584421
25910		7.795376	0.411123	3.587610	0.582916	-0.420563	-1.251661	-0.131613	-0.143523	0.050282	-1.106934	0.087158	0.066162	0.077927	0.004154	0.035929	0.060142	-0.563940	-0.034752	-0.822889	-1.685605	-68.796369	-170.485670
25911		7.785896	0.450297	3.386352	0.418669	-0.491696	-1.334878	-0.128844	-0.109146	0.054620	-1.106934	0.087402	0.068359	0.077839	0.004546	0.033903	0.060021	-0.564505	-0.034073	-0.822539	-1.861691	-68.866863	-170.376562
25912		7.802331	0.493742	3.125612	0.186943	-0.576524	-1.414934	-0.120014	-0.053935	0.074037	-1.102539	0.093994	0.067871	0.078013	0.004985	0.031274	0.060001	-0.564850	-0.033363	-0.822333	-2.056137	-68.906323	-170.242962
25913		7.937766	0.577894	3.246118	0.266771	-0.663220	-1.247156	-0.093277	-0.006642	0.084089	-1.106934	0.087158	0.063965	0.079374	0.005827	0.032461	0.060119	-0.564987	-0.032716	-0.822256	-2.251507	-68.917231	-170.091403
25914		8.583267	0.675656	3.669851	0.446226	-0.758886	-0.494869	-0.050223	0.002871	0.100310	-1.102539	0.093994	0.065674	0.085830	0.006809	0.036696	0.060417	-0.565078	-0.032202	-0.822192	-2.442950	-68.922794	-169.917885
25915		9.349015	0.662177	4.308626	0.767332	-0.727459	0.448346	-0.018826	-0.000985	0.105373	-1.107178	0.093994	0.065674	0.093486	0.006675	0.043086	0.060834	-0.565173	-0.031799	-0.822112	-2.627198	-68.929561	-169.732545
25916		9.835225	0.732728	4.677093	0.951308	-0.795012	1.031975	0.017922	-0.032326	0.122489	-1.104980	0.093994	0.067871	0.098340	0.007383	0.046787	0.061412	-0.565390	-0.031513	-0.821930	-2.815636	-68.954127	-169.520276
25917		9.860801	0.786252	4.686925	0.967280	-0.858560	1.056907	0.078640	-0.053967	0.128669	-1.104980	0.093994	0.072510	0.098590	0.007908	0.046899	0.062192	-0.565675	-0.031461	-0.821677	-2.983234	-68.990113	-169.293004
25918		9.724919	0.858130	4.549777	0.907905	-0.944457	0.878179	0.137839	-0.050082	0.126240	-1.102783	0.098633	0.072266	0.097232	0.008611	0.045528	0.063117	-0.565931	-0.031663	-0.821423	-3.110190	-69.024705	-169.073427
25919		9.537719	0.839402	4.575196	1.001618	-0.915195	0.711773	0.183258	-0.002709	0.130183	-1.098145	0.092041	0.068115	0.095371	0.008414	0.045761	0.064207	-0.565972	-0.032020	-0.821296	-3.216924	-69.030943	-168.847227
25920		9.569337	0.847463	4.721985	1.130056	-0.911638	0.792945	0.173599	0.036131	0.131536	-1.102783	0.098633	0.067627	0.095696	0.008497	0.047210	0.065266	-0.565862	-0.032327	-0.821277	-3.323986	-69.015599	-168.627056
25921		9.927150	0.838151	4.751832	1.028480	-0.930551	1.137518	0.143137	0.083951	0.129730	-1.103271	0.107422	0.064941	0.099286	0.008412	0.047483	0.066255	-0.565558	-0.032493	-0.821400	-3.445087	-68.971973	-168.410040
25922		10.243415	0.815958	4.731405	0.887726	-0.942748	1.425759	0.099855	0.127609	0.117089	-1.103027	0.105225	0.060547	0.102460	0.008196	0.047253	0.067068	-0.565089	-0.032508	-0.821656	-3.564665	-68.904032	-168.221099
25923		10.607370	0.724220	4.865391	0.857974	-0.870534	1.815676	0.081174	0.148426	0.084268	-1.098633	0.105225	0.062744	0.106107	0.007267	0.048578	0.067705	-0.564533	-0.032526	-0.821986	-3.646216	-68.824877	-168.084359
25924		11.515744	0.496241	5.330058	0.918004	-0.658654	2.836090	0.092892	0.142280	0.052311	-1.103271	0.107422	0.055908	0.115194	0.004968	0.053221	0.068236	-0.563993	-0.032691	-0.822306	-3.670901	-68.750469	-168.001189
25925		12.196023	0.308052	5.416542	0.710765	-0.514380	3.506734	0.148415	0.171453	0.022146	-1.103516	0.111816	0.057861	0.122006	0.003054	0.054063	0.068810	-0.563308	-0.033153	-0.822709	-3.619454	-68.660376	-167.965696
25926		12.761358	0.252424	5.369899	0.435789	-0.505836	4.018652	0.182596	0.185552	0.007495	-1.103027	0.105225	0.058350	0.127663	0.002480	0.053583	0.069421	-0.562549	-0.033798	-0.823151	-3.523643	-68.562641	-167.956333
25927		12.528521	0.058078	5.228080	0.332546	-0.312978	3.755341	0.194814	0.224300	0.033954	-1.094238	0.107422	0.049072	0.125344	0.000551	0.052141	0.070183	-0.561631	-0.034399	-0.823688	-3.458348	-68.441948	-167.907101
25928		12.427157	-0.183739	5.070070	0.157922	-0.089177	3.608960	0.177880	0.223878	0.055782	-1.103271	0.109619	0.044434	0.124329	-0.001848	0.050560	0.070980	-0.560723	-0.034877	-0.824218	-3.431081	-68.320807	-167.827199
25929		12.593132	-0.443004	4.879824	-0.144248	0.123953	3.698777	0.152986	0.203132	0.049080	-1.101074	0.109619	0.044434	0.125982	-0.004436	0.048667	0.071684	-0.559907	-0.035271	-0.824695	-3.413085	-68.211726	-167.752768
25930		12.466482	-0.732775	4.342835	-0.660367	0.337880	3.388072	0.135430	0.173516	0.104404	-1.103516	0.116211	0.050781	0.124706	-0.007292	0.043315	0.072557	-0.559225	-0.035455	-0.825073	-3.483363	-68.117198	-167.593572
25931		12.281298	-1.000722	3.772164	-1.174271	0.524876	3.009423	0.098320	0.095422	0.114362	-1.099121	0.116211	0.041992	0.122837	-0.009956	0.037658	0.073357	-0.558884	-0.035479	-0.825233	-3.597829	-68.067345	-167.410036
25932		11.787198	-1.362252	3.087709	-1.689150	0.809276	2.304223	0.157948	0.089450	0.182366	-1.092285	0.114258	0.044189	0.117898	-0.013539	0.030814	0.074604	-0.558557	-0.035567	-0.825338	-3.773025	-68.018400	-167.123569
25933		10.404167	-1.315172	2.352420	-1.858854	0.755178	0.745939	0.195518	0.081435	0.187724	-1.101318	0.118408	0.041748	0.104064	-0.013077	0.023469	0.075976	-0.558249	-0.035793	-0.825412	-3.935412	-67.973344	-166.828158
25934		9.748787	-1.480557	1.717634	-2.238984	0.863969	-0.095609	0.319750	0.132559	0.230580	-1.096924	0.116211	0.037354	0.097516	-0.014721	0.017088	0.077877	-0.557689	-0.036398	-0.825587	-4.078692	-67.897160	-166.476124
25935		9.269470	-1.514675	2.125845	-1.711155	0.979906	-0.386754	0.412472	0.151168	0.255696	-1.106201	0.127197	0.034424	0.092730	-0.015072	0.021157	0.080147	-0.557017	-0.037302	-0.825783	-4.202610	-67.808888	-166.087740
25936		9.266502	-1.630646	2.354702	-1.538074	1.109265	-0.300827	0.509699	0.127956	0.303290	-1.101807	0.129639	0.034424	0.092705	-0.016226	0.023446	0.082875	-0.556404	-0.038491	-0.825872	-4.335490	-67.731266	-165.628911
25937		9.224250	-1.654876	2.569925	-1.348567	1.149034	-0.258058	0.565843	0.143927	0.351112	-1.097900	0.140869	0.033691	0.092290	-0.016459	0.025586	0.085964	-0.555707	-0.039765	-0.825965	-4.501110	-67.642211	-165.100001
25938		9.327352	-1.620401	2.781494	-1.208076	1.116314	-0.083546	0.699660	0.152985	0.395420	-1.100342	0.145264	0.033447	0.093327	-0.016117	0.027687	0.089611	-0.554917	-0.041468	-0.826025	-4.647180	-67.545394	-164.508224
25939		9.300334	-1.497954	3.105962	-0.902065	1.032326	0.011140	0.807520	0.148666	0.412736	-1.100586	0.151855	0.030762	0.093057	-0.014913	0.030930	0.093623	-0.554089	-0.043566	-0.826028	-4.753111	-67.449753	-163.893320
25940		9.078716	-1.573552	3.203639	-0.769821	1.128388	-0.153676	0.863263	0.123044	0.435804	-1.096191	0.154297	0.026123	0.090841	-0.015676	0.031913	0.097885	-0.553336	-0.045844	-0.825915	-4.859656	-67.367492	-163.241925
25941		8.592253	-1.637958	3.306828	-0.531092	1.247411	-0.560299	0.888454	0.068455	0.463242	-1.098877	0.165283	0.020996	0.085972	-0.016327	0.032966	0.102307	-0.552786	-0.048173	-0.825615	-4.992456	-67.314226	-162.546954
25942		8.493460	-1.545895	3.487599	-0.324617	1.188898	-0.583759	0.793799	-0.008937	0.453756	-1.094238	0.163086	0.023193	0.084968	-0.015404	0.034819	0.106418	-0.552588	-0.050178	-0.825108	-5.175745	-67.304724	-161.854831
25943		8.843690	-1.371146	3.675253	-0.246597	1.000337	-0.193078	0.684654	-0.092109	0.436006	-1.087891	0.172119	0.016113	0.088450	-0.013644	0.036746	0.110121	-0.552778	-0.051823	-0.824394	-5.407066	-67.342797	-161.179549
25944		9.293259	-0.873730	3.555783	-0.390121	0.423260	0.159287	0.625498	-0.169209	0.407363	-1.085938	0.176758	0.022461	0.092920	-0.008659	0.035609	0.113529	-0.553298	-0.053348	-0.823484	-5.646115	-67.424988	-160.531944
25945		9.262341	-0.433368	3.215403	-0.557233	-0.083763	-0.014728	0.594775	-0.217445	0.365636	-1.083984	0.183350	0.026611	0.092596	-0.004260	0.032242	0.116657	-0.554019	-0.054885	-0.822461	-5.855078	-67.536465	-159.937384
25946		8.793351	-0.059213	2.912208	-0.542518	-0.456953	-0.576654	0.621772	-0.245882	0.291526	-1.083740	0.178955	0.024658	0.087898	-0.000555	0.029228	0.119559	-0.554813	-0.056756	-0.821381	-5.956102	-67.667890	-159.442261
25947		8.488699	0.096954	2.656205	-0.597037	-0.622519	-0.959507	0.677072	-0.297202	0.208540	-1.084229	0.190186	0.030518	0.084846	0.000968	0.026691	0.122243	-0.555752	-0.059113	-0.820184	-5.918909	-67.833386	-159.063864
25948		8.548605	0.164698	2.706107	-0.528206	-0.673306	-0.885405	0.706303	-0.303192	0.124581	-1.083984	0.187988	0.032959	0.085444	0.001604	0.027196	0.124671	-0.556666	-0.061828	-0.818998	-5.751273	-68.007425	-158.807672
25949		8.783227	0.177495	2.822365	-0.477963	-0.672139	-0.622364	0.665036	-0.263719	0.059866	-1.086426	0.187988	0.032959	0.087794	0.001707	0.028345	0.126720	-0.557415	-0.064526	-0.817965	-5.509284	-68.162951	-158.658350
25950		8.867454	0.160377	2.972181	-0.358415	-0.610599	-0.485845	0.584139	-0.200783	0.022434	-1.086426	0.190186	0.037354	0.088644	0.001527	0.029815	0.128418	-0.557941	-0.066959	-0.817146	-5.252108	-68.284993	-158.574582
25951		8.648336	0.173368	2.988165	-0.251872	-0.570268	-0.682286	0.524656	-0.136704	-0.001930	-1.082031	0.192383	0.032715	0.086463	0.001654	0.029945	0.129862	-0.558229	-0.069174	-0.816536	-4.983679	-68.371685	-158.540514
25952		8.392533	0.102600	3.061284	-0.113249	-0.432130	-0.889850	0.471905	-0.051500	-0.012479	-1.088867	0.196777	0.034668	0.083918	0.000948	0.030637	0.131156	-0.558197	-0.071148	-0.816181	-4.720639	-68.410416	-158.532099
25953		8.019096	0.098436	3.139686	0.082679	-0.343443	-1.207548	0.404254	0.017242	-0.006284	-1.088867	0.192383	0.034912	0.080194	0.000918	0.031392	0.132298	-0.557928	-0.072782	-0.816037	-4.495187	-68.409499	-158.526021
25954		7.652008	-0.001797	3.179269	0.209339	-0.177957	-1.531052	0.307984	0.054530	-0.005793	-1.086426	0.187988	0.037598	0.076529	-0.000069	0.031772	0.133202	-0.557569	-0.073999	-0.816026	-4.323728	-68.387358	-158.519959
25955		7.445355	-0.082655	3.273115	0.333034	-0.041049	-1.686138	0.229120	0.076587	-0.006433	-1.089111	0.198975	0.034668	0.074466	-0.000866	0.032702	0.133877	-0.557171	-0.074879	-0.816107	-4.192042	-68.352552	-158.520957
25956		7.136819	-0.101644	3.334044	0.480406	0.039267	-1.949608	0.182585	0.090242	0.005830	-1.086670	0.194580	0.034912	0.071383	-0.001045	0.033307	0.134488	-0.556756	-0.075527	-0.816230	-4.105349	-68.309959	-158.501290
25957		6.902320	-0.135760	3.410989	0.612391	0.127098	-2.137785	0.139002	0.080725	-0.001150	-1.082275	0.199219	0.030029	0.069037	-0.001382	0.034081	0.134934	-0.556402	-0.076022	-0.816352	-4.032749	-68.272572	-158.494267
25958		6.737441	-0.213424	3.428032	0.655141	0.230775	-2.282243	0.135004	0.062780	-0.011223	-1.091064	0.194580	0.037109	0.067385	-0.002161	0.034258	0.135338	-0.556123	-0.076541	-0.816427	-3.952793	-68.246140	-158.496322
25959		6.607238	-0.284270	3.439654	0.683839	0.324237	-2.396836	0.154257	0.041559	-0.053420	-1.086670	0.194580	0.032715	0.066079	-0.002887	0.034381	0.135598	-0.555898	-0.077270	-0.816468	-3.800696	-68.233176	-158.565481
25960		6.524995	-0.297614	3.464345	0.726381	0.363755	-2.463820	0.174614	0.003176	-0.088091	-1.088623	0.190186	0.035156	0.065249	-0.003035	0.034640	0.135769	-0.555808	-0.078205	-0.816412	-3.592986	-68.244142	-158.681150
25961		6.490793	-0.349959	3.532241	0.780208	0.449135	-2.469722	0.182212	-0.032530	-0.113410	-1.086670	0.192383	0.034912	0.064900	-0.003569	0.035330	0.135833	-0.555842	-0.079265	-0.816276	-3.345444	-68.275449	-158.835810
25962		6.809722	-0.474661	3.366152	0.485012	0.493526	-2.233126	0.150460	-0.086089	-0.158823	-1.088623	0.187744	0.032959	0.068079	-0.004826	0.033687	0.135610	-0.556103	-0.080358	-0.816028	-3.055917	-68.339397	-159.054535
25963		6.915378	-0.460991	3.332295	0.424248	0.474367	-2.148868	0.160781	-0.069149	-0.176828	-1.088623	0.187744	0.035156	0.069138	-0.004698	0.033343	0.135341	-0.556275	-0.081531	-0.815839	-2.730259	-68.392915	-159.306325
25964		6.868011	-0.468469	3.462533	0.552915	0.542357	-2.145988	0.111324	-0.032652	-0.208245	-1.088623	0.185547	0.037598	0.068670	-0.004775	0.034634	0.134829	-0.556321	-0.082567	-0.815788	-2.385037	-68.426318	-159.608853
25965		7.152332	-0.732258	3.415280	0.328409	0.759919	-1.896196	0.077348	-0.014202	-0.197713	-1.093018	0.185547	0.035400	0.071514	-0.007406	0.034155	0.134264	-0.556315	-0.083420	-0.815799	-2.071424	-68.447762	-159.898969
25966		7.572015	-0.802984	3.560136	0.286640	0.830035	-1.453044	0.015139	0.014023	-0.184494	-1.090332	0.174316	0.031494	0.075715	-0.008102	0.035595	0.133602	-0.556246	-0.083965	-0.815899	-1.812508	-68.452947	-160.167872
25967		7.919042	-0.933538	3.624311	0.178016	0.941520	-1.106357	-0.060422	0.053887	-0.199170	-1.092529	0.174316	0.031494	0.079191	-0.009403	0.036225	0.132677	-0.556052	-0.084215	-0.816156	-1.572217	-68.434421	-160.464013
25968		7.985858	-0.891677	3.636319	0.172352	0.908290	-1.041307	-0.094508	0.061138	-0.210903	-1.094727	0.172119	0.033936	0.079860	-0.008984	0.036343	0.131612	-0.555846	-0.084357	-0.816454	-1.334038	-68.411541	-160.778569
25969		8.269670	-0.863365	3.959323	0.362839	0.950346	-0.659860	-0.119229	0.045002	-0.224699	-1.094482	0.169922	0.029541	0.082696	-0.008703	0.039580	0.130415	-0.555716	-0.084443	-0.816726	-1.091719	-68.397505	-161.113207
25970		8.824810	-0.911784	4.375629	0.520003	1.060284	0.008724	-0.146140	0.012856	-0.222142	-1.094727	0.172119	0.031738	0.088241	-0.009184	0.043757	0.129142	-0.555735	-0.084435	-0.816916	-0.869235	-68.401516	-161.442772
25971		9.356715	-0.921897	4.639429	0.565180	1.094408	0.599091	-0.168057	-0.017896	-0.217024	-1.090088	0.167725	0.031982	0.093553	-0.009281	0.046410	0.127813	-0.555895	-0.084341	-0.817026	-0.667393	-68.422501	-161.763951
25972		9.808133	-1.101341	4.861042	0.554488	1.288736	1.099409	-0.176798	-0.065152	-0.209074	-1.098633	0.160889	0.036865	0.098054	-0.011073	0.048652	0.126480	-0.556256	-0.084221	-0.817000	-0.483054	-68.470192	-162.070979
25973		10.035633	-1.268410	4.841676	0.414537	1.430679	1.302434	-0.163018	-0.047356	-0.199805	-1.094238	0.160889	0.036865	0.100332	-0.012745	0.048451	0.125224	-0.556538	-0.084118	-0.817012	-0.302133	-68.507213	-162.366396
25974		10.217650	-1.432724	5.031217	0.476089	1.632551	1.539595	-0.145312	-0.034752	-0.177976	-1.093994	0.156494	0.034912	0.102155	-0.014382	0.050340	0.124109	-0.556769	-0.084021	-0.817035	-0.141640	-68.537053	-162.628879
25975		10.940365	-1.567634	5.218382	0.355302	1.743893	2.279176	-0.156221	-0.019426	-0.139526	-1.091797	0.156494	0.030518	0.109388	-0.015712	0.052207	0.123129	-0.556956	-0.083760	-0.817082	-0.043335	-68.557448	-162.831227
25976		11.306347	-1.536673	5.211090	0.231452	1.676611	2.616541	-0.149070	0.054990	-0.083039	-1.096191	0.152100	0.035156	0.113071	-0.015375	0.052091	0.122431	-0.556856	-0.083328	-0.817300	-0.022771	-68.534798	-162.945412
25977		11.208687	-1.491423	5.095595	0.169479	1.608842	2.483938	-0.105828	0.130072	-0.030026	-1.096191	0.154297	0.037354	0.112118	-0.014904	0.050891	0.122101	-0.556446	-0.082877	-0.817674	-0.055120	-68.469424	-162.976368
25978		11.785856	-1.333548	5.651537	0.493419	1.538962	3.226205	-0.036184	0.167161	0.001393	-1.096191	0.152100	0.030762	0.117906	-0.013324	0.056419	0.122104	-0.555857	-0.082601	-0.818102	-0.092284	-68.382932	-162.959458
25979		13.314786	-1.275538	6.092962	0.344802	1.426748	4.811955	-0.001000	0.181584	0.039715	-1.098633	0.158691	0.032471	0.133206	-0.012729	0.060809	0.122372	-0.555201	-0.082353	-0.818532	-0.164983	-68.287972	-162.882405
25980		13.988949	-0.846965	5.709352	-0.134734	0.822617	5.297236	0.036391	0.235445	0.082657	-1.096191	0.156494	0.021484	0.139960	-0.008422	0.056927	0.122941	-0.554318	-0.082106	-0.819070	-0.276652	-68.161940	-162.740296
25981		13.210948	-0.337896	5.260503	-0.140647	0.279240	4.407660	0.097977	0.301270	0.102341	-1.096191	0.156494	0.023682	0.132190	-0.003337	0.052404	0.123788	-0.553136	-0.082016	-0.819751	-0.379094	-67.998102	-162.569916
25982		12.503151	-0.091513	5.027404	-0.060935	0.040972	3.663454	0.175541	0.344608	0.087589	-1.091553	0.154297	0.021484	0.125118	-0.000904	0.050058	0.124807	-0.551715	-0.082258	-0.820528	-0.413626	-67.808875	-162.424558
25983		12.393195	0.237096	4.896379	-0.082499	-0.310076	3.510934	0.174628	0.354531	0.043112	-1.094238	0.160889	0.019043	0.124018	0.002355	0.048746	0.125645	-0.550239	-0.082612	-0.821356	-0.385453	-67.614679	-162.347430
25984		12.349885	0.693243	4.741009	-0.108737	-0.793719	3.409848	0.127348	0.315415	0.023014	-1.098389	0.156250	0.012451	0.123573	0.006917	0.047220	0.126250	-0.548943	-0.082851	-0.822106	-0.356116	-67.443074	-162.300982
25985		12.103472	1.380981	4.318624	-0.219801	-1.544588	3.017647	0.045968	0.257647	-0.033974	-1.100830	0.156250	0.012451	0.121093	0.013779	0.043033	0.126377	-0.547911	-0.082948	-0.822765	-0.295867	-67.304677	-162.338280
25986		11.537958	1.777219	4.033363	-0.172825	-1.935940	2.384575	0.016154	0.208312	-0.091381	-1.096436	0.158447	0.007813	0.115430	0.017716	0.040215	0.126158	-0.547076	-0.083112	-0.823337	-0.174026	-67.194655	-162.461262
25987		11.124563	2.054330	3.638003	-0.311851	-2.255564	1.850345	-0.040899	0.205463	-0.167916	-1.096191	0.154053	0.001465	0.111300	0.020457	0.036262	0.125474	-0.546257	-0.083252	-0.823972	0.016581	-67.086202	-162.694106
25988		10.235728	1.953692	3.107148	-0.506833	-2.192706	0.825756	-0.104772	0.216869	-0.228288	-1.102783	0.149414	-0.002686	0.102413	0.019436	0.030950	0.124369	-0.545401	-0.083288	-0.824702	0.250842	-66.970432	-163.014179
25989		9.434131	1.909353	2.843356	-0.481331	-2.119849	-0.014340	-0.173003	0.220345	-0.267665	-1.095947	0.151855	-0.002930	0.094398	0.018992	0.028313	0.122919	-0.544558	-0.083145	-0.825490	0.495305	-66.852370	-163.388245
25990		8.922017	1.828660	2.784082	-0.394463	-1.991076	-0.507988	-0.266197	0.234064	-0.292166	-1.104736	0.145020	0.001953	0.089279	0.018193	0.027712	0.121117	-0.543698	-0.082679	-0.826370	0.717100	-66.724982	-163.795801
25991		8.617324	1.822807	2.840859	-0.261930	-1.929408	-0.765033	-0.395286	0.238679	-0.306575	-1.106934	0.144775	-0.004639	0.086235	0.018152	0.028270	0.118907	-0.542893	-0.081712	-0.827316	0.879345	-66.595020	-164.219735
25992		8.587789	1.747928	2.887794	-0.262139	-1.838891	-0.774192	-0.546380	0.221887	-0.304795	-1.100098	0.140625	-0.002197	0.085936	0.017427	0.028735	0.116283	-0.542242	-0.080128	-0.828270	0.951543	-66.474315	-164.640234
25993		8.728700	1.592345	2.891001	-0.387004	-1.704451	-0.645973	-0.656531	0.203763	-0.291955	-1.106689	0.140381	-0.006592	0.087340	0.015891	0.028769	0.113408	-0.541730	-0.078060	-0.829200	0.940450	-66.364062	-165.039132
25994		8.615809	1.424869	2.973907	-0.341143	-1.514502	-0.718931	-0.767793	0.130620	-0.285068	-1.106445	0.131592	-0.010742	0.086198	0.014240	0.029628	0.110230	-0.541578	-0.075555	-0.829960	0.857699	-66.295882	-165.429337
25995		8.310355	1.223793	2.949816	-0.313368	-1.301052	-1.010976	-0.861167	0.036976	-0.286597	-1.104248	0.135986	-0.006348	0.083127	0.012246	0.029430	0.106756	-0.541856	-0.072713	-0.830486	0.723792	-66.281657	-165.822553
25996		7.994331	1.229221	3.053120	-0.106501	-1.256556	-1.259819	-0.945474	-0.036504	-0.318992	-1.106201	0.129395	-0.003662	0.079957	0.012309	0.030488	0.102890	-0.542456	-0.069651	-0.830845	0.586467	-66.309207	-166.264265
25997		7.934987	1.223504	3.221864	0.063277	-1.212901	-1.247277	-1.008463	-0.153248	-0.339516	-1.104248	0.133789	0.004883	0.079346	0.012263	0.032218	0.098724	-0.543556	-0.066437	-0.830895	0.440971	-66.404461	-166.736753
25998		8.225324	1.217842	3.286741	0.014178	-1.224602	-0.955944	-1.056621	-0.260269	-0.356720	-1.105957	0.120361	0.005859	0.082232	0.012206	0.032910	0.094322	-0.545103	-0.063124	-0.830651	0.293507	-66.561648	-167.236049
25999		8.581653	1.055728	3.261514	-0.166764	-1.105444	-0.639523	-1.065072	-0.330435	-0.351516	-1.103516	0.115967	0.014893	0.085781	0.010580	0.032701	0.089889	-0.546927	-0.059789	-0.830190	0.137561	-66.759381	-167.731394
26000		8.580941	0.799948	3.103331	-0.338547	-0.886220	-0.702085	-1.012162	-0.390000	-0.327676	-1.103271	0.109375	0.026611	0.085762	0.008016	0.031160	0.085674	-0.548966	-0.056638	-0.829511	-0.014603	-66.992143	-168.196890
26001		8.476651	0.506601	3.056073	-0.369131	-0.597069	-0.815077	-0.951282	-0.430934	-0.307610	-1.103271	0.109375	0.028809	0.084708	0.005082	0.030719	0.081699	-0.551135	-0.053696	-0.828669	-0.157417	-67.248451	-168.634029
26002		8.408094	0.170632	3.074919	-0.354054	-0.254972	-0.868985	-0.877749	-0.441260	-0.293586	-1.105225	0.102783	0.033691	0.084015	0.001718	0.030927	0.077972	-0.553313	-0.051027	-0.827744	-0.271327	-67.512286	-169.056157
26003		8.437717	-0.171105	2.942133	-0.508302	0.060426	-0.889777	-0.836117	-0.444798	-0.263301	-1.095947	0.098389	0.040771	0.084309	-0.001699	0.029616	0.074490	-0.555475	-0.048442	-0.826772	-0.402210	-67.777129	-169.433186
26004		8.633732	-0.347449	2.909689	-0.600153	0.219497	-0.717642	-0.772018	-0.403815	-0.232572	-1.102539	0.091797	0.047852	0.086274	-0.003462	0.029285	0.071311	-0.557445	-0.046025	-0.825864	-0.533171	-68.019600	-169.770011
26005		8.456564	-0.417827	2.972665	-0.450159	0.313137	-0.855903	-0.716619	-0.362015	-0.208396	-1.095703	0.089600	0.056885	0.084507	-0.004159	0.029895	0.068406	-0.559211	-0.043749	-0.825039	-0.667204	-68.237341	-170.068578
26006		8.509932	-0.404198	3.054908	-0.354381	0.309818	-0.774264	-0.681149	-0.365566	-0.189483	-1.098145	0.091797	0.059082	0.085039	-0.004018	0.030718	0.065656	-0.560986	-0.041573	-0.824170	-0.801778	-68.458864	-170.345015
26007		8.327415	-0.360562	3.185168	-0.127718	0.295315	-0.895426	-0.639545	-0.290637	-0.168058	-1.102539	0.089600	0.059326	0.083225	-0.003573	0.031984	0.063145	-0.562423	-0.039477	-0.823489	-0.945551	-68.635890	-170.584803
26008		8.245997	-0.393540	3.079572	-0.172719	0.315342	-1.008951	-0.592625	-0.232254	-0.141605	-1.102295	0.087402	0.061523	0.082421	-0.003902	0.030903	0.060875	-0.563612	-0.037485	-0.822940	-1.096097	-68.780651	-170.788473
26009		8.014789	-0.502179	3.115107	-0.049940	0.434969	-1.210293	-0.486021	-0.180750	-0.064918	-1.102051	0.082764	0.061768	0.080118	-0.004972	0.031236	0.059241	-0.564557	-0.035696	-0.822491	-1.300357	-68.893987	-170.868604
26010		7.922403	-0.359923	3.217144	0.117616	0.301933	-1.260554	-0.451549	-0.187429	0.003460	-1.104492	0.082764	0.066406	0.079194	-0.003525	0.032254	0.057970	-0.565532	-0.033862	-0.821989	-1.583611	-69.010840	-170.843220
26011		7.828109	-0.328014	3.217471	0.175031	0.260938	-1.348632	-0.450507	-0.155242	0.045241	-1.104492	0.082764	0.066406	0.078257	-0.003190	0.032243	0.056893	-0.566374	-0.031900	-0.821563	-1.933237	-69.107910	-170.745798
26012		7.703256	-0.334821	3.184396	0.204963	0.254986	-1.476887	-0.396360	-0.145940	0.057691	-1.102539	0.089600	0.074951	0.077010	-0.003263	0.031907	0.056004	-0.567164	-0.030128	-0.821146	-2.267103	-69.199674	-170.632658
26013		7.519143	-0.223025	3.212228	0.325602	0.142270	-1.640823	-0.353606	-0.141153	0.066503	-1.102539	0.089600	0.077148	0.075169	-0.002148	0.032179	0.055290	-0.567919	-0.028499	-0.820731	-2.596307	-69.287745	-170.497820
26014		7.305285	-0.147591	3.205524	0.418851	0.064491	-1.844957	-0.335512	-0.147160	0.061483	-1.095703	0.089844	0.077148	0.073030	-0.001400	0.032111	0.054598	-0.568700	-0.026963	-0.820288	-2.907713	-69.380450	-170.371196
26015		7.130690	-0.061350	3.255052	0.552146	-0.020118	-1.993444	-0.311866	-0.177693	0.082553	-1.100098	0.087402	0.072754	0.071278	-0.000533	0.032615	0.054063	-0.569591	-0.025469	-0.819753	-3.244381	-69.488391	-170.203013
26016		7.070587	-0.020475	3.255658	0.595818	-0.071323	-2.051708	-0.292483	-0.190396	0.080914	-1.100098	0.087402	0.081787	0.070675	-0.000128	0.032624	0.053566	-0.570529	-0.024068	-0.819175	-3.568061	-69.603774	-170.037103
26017		7.117288	-0.039915	3.278227	0.616887	-0.066495	-2.001213	-0.258185	-0.201664	0.094663	-1.100342	0.094238	0.085938	0.071140	-0.000323	0.032854	0.053230	-0.571501	-0.022766	-0.818556	-3.900341	-69.724282	-169.841049
26018		7.352807	0.045071	3.300208	0.585004	-0.176605	-1.776287	-0.247836	-0.184778	0.086039	-1.100342	0.094238	0.085938	0.073497	0.000523	0.033069	0.052881	-0.572406	-0.021531	-0.817980	-4.211620	-69.836152	-169.661471
26019		7.465745	0.042578	3.317282	0.579012	-0.192714	-1.665841	-0.210962	-0.157675	0.093750	-1.091553	0.096680	0.085693	0.074631	0.000496	0.033231	0.052681	-0.573183	-0.020412	-0.817477	-4.515971	-69.930814	-169.466622
26020		7.526086	0.187086	3.346497	0.617380	-0.350367	-1.604638	-0.176786	-0.156142	0.106749	-1.104492	0.085205	0.088623	0.075234	0.001941	0.033522	0.052629	-0.573948	-0.019400	-0.816968	-4.821639	-70.024188	-169.249469
26021		7.384969	0.167540	3.120681	0.464797	-0.355456	-1.815057	-0.147850	-0.112363	0.109410	-1.095947	0.096436	0.090088	0.073831	0.001739	0.031247	0.052679	-0.574523	-0.018483	-0.816583	-5.112746	-70.091497	-169.030458
26022		7.106619	0.305421	2.989085	0.458339	-0.498236	-2.126751	-0.107999	-0.050678	0.119442	-1.095947	0.096436	0.090088	0.071057	0.003113	0.029907	0.052873	-0.574838	-0.017689	-0.816366	-5.384551	-70.123249	-168.808289
26023		7.204236	0.447212	3.064721	0.516419	-0.650545	-2.015020	-0.081899	-0.009546	0.120213	-1.100342	0.092041	0.090576	0.072038	0.004528	0.030649	0.053166	-0.574975	-0.016983	-0.816265	-5.641798	-70.130611	-168.585198
26024		7.768713	0.437698	3.520135	0.756380	-0.650523	-1.330911	-0.048418	0.011426	0.132778	-1.102783	0.096436	0.090332	0.077686	0.004437	0.035196	0.053593	-0.575020	-0.016378	-0.816218	-5.892017	-70.125353	-168.349546
26025		8.566704	0.380269	4.052447	0.987111	-0.613592	-0.399694	-0.001770	-0.031594	0.137407	-1.098633	0.105469	0.098633	0.085658	0.003862	0.040538	0.054185	-0.575227	-0.015955	-0.816041	-6.134387	-70.143585	-168.093468
26026		9.392703	0.355850	4.555182	1.191951	-0.615125	0.545885	0.020027	-0.118157	0.155093	-1.095947	0.096436	0.094727	0.093897	0.003627	0.045608	0.054895	-0.575787	-0.015599	-0.815606	-6.405325	-70.210501	-167.793959
26027		9.633695	0.396431	4.517347	1.099078	-0.689239	0.755595	0.063125	-0.156633	0.181368	-1.093994	0.103271	0.094238	0.096298	0.004037	0.045250	0.055842	-0.576488	-0.015348	-0.815051	-6.705049	-70.296207	-167.437631
26028		9.353151	0.534818	4.469285	1.180406	-0.821219	0.467108	0.164312	-0.133751	0.182108	-1.094238	0.105469	0.098633	0.093497	0.005397	0.044760	0.057070	-0.577069	-0.015508	-0.814551	-6.941380	-70.368835	-167.087661
26029		9.240871	0.644668	4.757230	1.515981	-0.901468	0.450337	0.248825	-0.109237	0.168680	-1.087402	0.103516	0.096436	0.092377	0.006465	0.047631	0.058505	-0.577521	-0.016037	-0.814119	-7.109766	-70.427487	-166.758128
26030		9.717896	0.663102	5.027606	1.630068	-0.932162	0.986756	0.288447	-0.078306	0.152903	-1.094238	0.105469	0.096436	0.097154	0.006633	0.050324	0.059977	-0.577836	-0.016771	-0.813774	-7.220650	-70.469987	-166.465957
26031		10.488997	0.763953	4.927500	1.306286	-1.102408	1.674751	0.294382	-0.010498	0.139289	-1.092285	0.114502	0.095947	0.104882	0.007640	0.049292	0.061431	-0.577867	-0.017541	-0.813627	-7.297621	-70.474196	-166.205875
26032		11.186160	0.806165	4.871449	1.035613	-1.204218	2.311193	0.276903	0.025982	0.090602	-1.092041	0.110107	0.096191	0.111864	0.008045	0.048711	0.062629	-0.577748	-0.018376	-0.813601	-7.294658	-70.461207	-166.041277
26033		12.095883	0.890167	5.191391	1.054843	-1.320741	3.271512	0.254546	-0.036061	0.003380	-1.092041	0.109863	0.087158	0.120949	0.008838	0.051947	0.063412	-0.577881	-0.019385	-0.813423	-7.181849	-70.489789	-166.006775
26034		12.873681	0.720992	5.242055	0.832656	-1.193290	4.029760	0.227777	0.003888	-0.080606	-1.092285	0.112305	0.098145	0.128741	0.007098	0.052426	0.063766	-0.577845	-0.020524	-0.813393	-6.935499	-70.500997	-166.130254
26035		13.072903	0.557929	5.091718	0.600377	-1.041044	4.176357	0.224556	0.088243	-0.119858	-1.094238	0.107666	0.091797	0.130755	0.005444	0.050866	0.063974	-0.577468	-0.021727	-0.813613	-6.617695	-70.467279	-166.331473
26036		12.839174	0.328170	4.948921	0.496634	-0.787157	3.919667	0.155162	0.141079	-0.138796	-1.089844	0.110107	0.087158	0.128429	0.003154	0.049401	0.063897	-0.576893	-0.022694	-0.814000	-6.295513	-70.404303	-166.579691
26037		13.117619	0.113641	4.978476	0.384125	-0.573181	4.201373	0.024149	0.161113	-0.160128	-1.089600	0.105469	0.085205	0.131217	0.001025	0.049679	0.063370	-0.576278	-0.023175	-0.814464	-6.017925	-70.330824	-166.860269
26038		13.523132	-0.151446	4.781118	0.006711	-0.347452	4.527335	-0.083502	0.192726	-0.162642	-1.089600	0.101074	0.089844	0.135276	-0.001605	0.047681	0.062517	-0.575558	-0.023224	-0.815037	-5.789725	-70.238088	-167.153720
26039		13.449411	-0.389344	4.321589	-0.455043	-0.144058	4.311281	-0.111047	0.179921	-0.156898	-1.096436	0.103271	0.087646	0.134530	-0.003975	0.043097	0.061617	-0.574907	-0.023138	-0.815567	-5.595892	-70.152942	-167.427913
26040		12.769351	-0.701043	3.659211	-0.909252	0.155281	3.457080	-0.113104	0.141204	-0.146939	-1.093994	0.103271	0.085205	0.127714	-0.007084	0.036506	0.060730	-0.574414	-0.023037	-0.815984	-5.420930	-70.089065	-167.683644
26041		12.845862	-1.097911	3.010316	-1.604899	0.485661	3.320172	-0.144348	0.100298	-0.153879	-1.091553	0.098877	0.085449	0.128465	-0.011056	0.030047	0.059737	-0.574097	-0.022831	-0.816286	-5.265857	-70.048615	-167.937121
26042		11.837580	-1.415197	2.527846	-1.768310	0.832942	2.216459	-0.113374	0.095592	-0.127479	-1.093994	0.098877	0.081055	0.118379	-0.014213	0.025230	0.058928	-0.573790	-0.022685	-0.816564	-5.131405	-70.009150	-168.149782
26043		11.367008	-1.626318	1.968337	-2.167575	1.024059	1.588235	-0.067994	0.089170	-0.068272	-1.096436	0.105469	0.080566	0.113673	-0.016295	0.019638	0.058502	-0.573505	-0.022549	-0.816799	-5.069790	-69.970324	-168.257366
26044		10.305604	-1.718662	1.670561	-2.110117	1.160635	0.490243	-0.023763	0.122882	-0.018470	-1.094238	0.105469	0.078369	0.103065	-0.017194	0.016644	0.058407	-0.573070	-0.022448	-0.817114	-5.053313	-69.909133	-168.289433
26045		9.725454	-1.871978	1.601012	-2.008747	1.343232	-0.075509	0.051980	0.112910	0.033770	-1.096436	0.105469	0.083008	0.097267	-0.018708	0.015950	0.058744	-0.572663	-0.022502	-0.817374	-5.079311	-69.851573	-168.230579
26046		9.345542	-1.840777	1.316862	-2.153438	1.301397	-0.532021	0.145723	0.130412	0.114777	-1.100830	0.103027	0.080811	0.093475	-0.018364	0.013094	0.059685	-0.572165	-0.022708	-0.817649	-5.173274	-69.779623	-168.041336
26047		9.225267	-1.687134	1.448712	-1.985763	1.159516	-0.606007	0.280371	0.163763	0.146436	-1.100830	0.105225	0.073975	0.092277	-0.016824	0.014388	0.061142	-0.571494	-0.023358	-0.817992	-5.234548	-69.687143	-167.805327
26048		9.514093	-1.622209	1.741305	-1.821543	1.093229	-0.238322	0.457164	0.155353	0.176887	-1.096680	0.109863	0.069092	0.095169	-0.016178	0.017302	0.063221	-0.570802	-0.024652	-0.818279	-5.238383	-69.597628	-167.522215
26049		9.829564	-1.597756	1.855815	-1.840315	1.045298	0.093762	0.611831	0.155525	0.208185	-1.094482	0.114258	0.073486	0.098327	-0.015932	0.018433	0.065875	-0.570062	-0.026484	-0.818528	-5.203181	-69.506605	-167.186209
26050		9.574937	-1.637374	1.826108	-1.811818	1.086482	-0.157022	0.795697	0.183862	0.260445	-1.099121	0.116455	0.064209	0.095787	-0.016321	0.018108	0.069271	-0.569140	-0.028915	-0.818807	-5.135415	-69.396395	-166.771623
26051		8.958485	-2.007180	2.090706	-1.439638	1.520482	-0.632832	1.045193	0.154769	0.331400	-1.099365	0.120850	0.066406	0.089634	-0.020032	0.020733	0.073661	-0.568250	-0.032169	-0.818920	-5.035760	-69.299822	-166.238697
26052		8.538472	-2.090549	2.654146	-0.818886	1.705641	-0.827114	1.218824	0.069526	0.365485	-1.093018	0.129883	0.059082	0.085432	-0.020911	0.026384	0.078667	-0.567627	-0.036073	-0.818725	-4.896132	-69.250110	-165.641400
26053		8.686494	-1.865145	2.949645	-0.583161	1.510070	-0.592387	1.186042	-0.034294	0.399178	-1.093018	0.134277	0.063232	0.086897	-0.018653	0.029401	0.083696	-0.567429	-0.039782	-0.818191	-4.840707	-69.258889	-164.974552
26054		9.234633	-1.702824	2.993167	-0.713634	1.300865	-0.069199	1.062393	-0.100638	0.411821	-1.091064	0.141113	0.060547	0.092366	-0.016997	0.029888	0.088417	-0.567533	-0.042978	-0.817461	-4.884837	-69.304408	-164.276249
26055		9.552831	-1.437723	2.882820	-0.874336	0.979624	0.182819	1.022623	-0.138976	0.459126	-1.084717	0.150146	0.064453	0.095541	-0.014305	0.028821	0.093200	-0.567806	-0.045890	-0.816581	-5.030283	-69.369607	-163.495153
26056		9.463887	-0.925479	2.706846	-0.893314	0.438482	0.023895	0.953685	-0.180782	0.482540	-1.093994	0.154541	0.075439	0.094637	-0.009156	0.027110	0.097884	-0.568268	-0.048473	-0.815561	-5.261905	-69.456315	-162.663533
26057		9.183120	-0.586204	2.526212	-0.875714	0.084755	-0.311057	0.925688	-0.206331	0.464754	-1.087646	0.165771	0.061279	0.091819	-0.005766	0.025330	0.102393	-0.568829	-0.051003	-0.814461	-5.489027	-69.557622	-161.855405
26058		8.877196	-0.291752	2.479926	-0.731270	-0.191654	-0.622026	0.964548	-0.190106	0.422101	-1.085449	0.165771	0.068115	0.088754	-0.002850	0.024870	0.106855	-0.569281	-0.053801	-0.813392	-5.634090	-69.651596	-161.110639
26059		8.749466	-0.033292	2.511481	-0.581532	-0.429388	-0.738591	0.965434	-0.161194	0.366961	-1.081299	0.174805	0.062988	0.087475	-0.000294	0.025184	0.111086	-0.569580	-0.056744	-0.812415	-5.689734	-69.731278	-160.462040
26060		8.807607	0.114187	2.594636	-0.475178	-0.564348	-0.659828	0.899521	-0.062946	0.300925	-1.083740	0.177002	0.065186	0.088066	0.001158	0.025979	0.114903	-0.569483	-0.059552	-0.811751	-5.670901	-69.758428	-159.932056
26061		8.653472	0.243079	2.798340	-0.201049	-0.624932	-0.738470	0.812136	0.012394	0.252287	-1.079346	0.181396	0.058105	0.086533	0.002426	0.027988	0.118276	-0.569104	-0.062098	-0.811341	-5.612524	-69.745671	-159.498860
26062		8.314618	0.460002	2.917891	0.075193	-0.764244	-1.022417	0.713757	0.061001	0.224273	-1.086426	0.187988	0.062256	0.083150	0.004589	0.029170	0.121289	-0.568565	-0.064296	-0.811104	-5.562584	-69.706253	-159.115158
26063		8.054885	0.467760	2.976353	0.211512	-0.723824	-1.245892	0.576594	0.098836	0.159572	-1.081787	0.183594	0.051270	0.080560	0.004656	0.029737	0.123641	-0.567932	-0.066098	-0.811047	-5.481980	-69.649623	-158.849370
26064		7.755661	0.366421	3.010893	0.304538	-0.577048	-1.510623	0.522880	0.133217	0.097364	-1.081787	0.187988	0.055420	0.077575	0.003623	0.030067	0.125618	-0.567161	-0.067837	-0.811139	-5.334087	-69.576031	-158.686444
26065		7.494180	0.301860	3.118961	0.458880	-0.449051	-1.715186	0.462956	0.137779	0.059624	-1.086182	0.185791	0.055664	0.074962	0.002969	0.031145	0.127253	-0.566399	-0.069436	-0.811281	-5.159171	-69.502863	-158.590574
26066		7.268621	0.174194	3.154455	0.517400	-0.283067	-1.909148	0.399673	0.132700	0.050804	-1.084473	0.194824	0.052734	0.072707	0.001697	0.031500	0.128685	-0.565690	-0.070808	-0.811432	-5.010044	-69.432860	-158.504627
26067		7.119376	-0.020206	3.154913	0.500249	-0.073624	-2.041992	0.347219	0.125541	0.063759	-1.082031	0.192627	0.055176	0.071214	-0.000234	0.031504	0.130004	-0.565048	-0.071933	-0.811570	-4.909640	-69.366642	-158.399909
26068		6.772028	-0.156836	3.192910	0.598786	0.115353	-2.348923	0.353913	0.111694	0.058475	-1.075195	0.190430	0.050781	0.067739	-0.001605	0.031888	0.131336	-0.564455	-0.073109	-0.811663	-4.803411	-69.308741	-158.295779
26069		6.411984	-0.226721	3.196072	0.691999	0.236351	-2.682114	0.336194	0.037224	0.002987	-1.079834	0.192627	0.050537	0.064126	-0.002320	0.031945	0.132344	-0.564153	-0.074418	-0.811590	-4.628730	-69.295974	-158.277148
26070		6.263164	-0.328857	3.274965	0.777727	0.385040	-2.790748	0.318491	-0.027414	-0.040690	-1.084473	0.197021	0.050293	0.062626	-0.003353	0.032753	0.133115	-0.564108	-0.075822	-0.811365	-4.408722	-69.322244	-158.316614
26071		6.355774	-0.462627	3.254949	0.687945	0.508368	-2.708262	0.305230	-0.055035	-0.072394	-1.082031	0.192627	0.052979	0.063547	-0.004699	0.032560	0.133695	-0.564169	-0.077279	-0.811090	-4.148295	-69.365463	-158.408585
26072		6.575614	-0.539987	3.322945	0.653601	0.587957	-2.477884	0.265770	-0.087000	-0.118268	-1.075195	0.190430	0.052979	0.065738	-0.005483	0.033251	0.133983	-0.564370	-0.078727	-0.810763	-3.847006	-69.428911	-158.567043
26073		6.965403	-0.725477	3.192299	0.354475	0.696025	-2.156069	0.244210	-0.110935	-0.144131	-1.082031	0.190186	0.050781	0.069631	-0.007344	0.031953	0.134077	-0.564668	-0.080176	-0.810398	-3.515750	-69.506391	-158.771906
26074		7.253176	-0.796126	3.363135	0.394443	0.793290	-1.827193	0.203610	-0.106736	-0.141864	-1.079834	0.190430	0.052979	0.072508	-0.008047	0.033662	0.134081	-0.564978	-0.081451	-0.810054	-3.211622	-69.581173	-158.971418
26075		7.629049	-0.960380	3.279421	0.149855	0.896275	-1.502842	0.178103	-0.104376	-0.129299	-1.086670	0.192383	0.052979	0.076267	-0.009682	0.032825	0.134051	-0.565297	-0.082586	-0.809722	-2.936803	-69.653678	-159.156282
26076		7.713165	-0.944228	3.348706	0.191891	0.906292	-1.401974	0.181889	-0.069063	-0.116879	-1.088379	0.181152	0.051270	0.077115	-0.009518	0.033505	0.134115	-0.565476	-0.083677	-0.809474	-2.678485	-69.705342	-159.319797
26077		7.785454	-0.972485	3.288216	0.105036	0.921164	-1.356223	0.130916	-0.016366	-0.123617	-1.088623	0.187988	0.051025	0.077846	-0.009794	0.032882	0.134010	-0.565472	-0.084545	-0.809404	-2.430730	-69.726740	-159.504512
26078		7.959466	-1.062812	3.264742	-0.003371	0.991641	-1.201193	0.093688	-0.000131	-0.129859	-1.081543	0.181396	0.051270	0.079588	-0.010695	0.032642	0.133792	-0.565422	-0.085272	-0.809399	-2.194416	-69.738324	-159.698776
26079		8.380165	-1.016133	3.680059	0.242085	1.028404	-0.664666	0.025965	0.014398	-0.132475	-1.088379	0.181152	0.049072	0.083798	-0.010222	0.036793	0.133368	-0.565359	-0.085720	-0.809465	-1.990624	-69.741775	-159.900699
26080		8.811429	-1.142323	4.103908	0.436204	1.229124	-0.112831	-0.037363	0.051579	-0.136909	-1.081299	0.172607	0.056396	0.088117	-0.011476	0.041018	0.132772	-0.565182	-0.085901	-0.809667	-1.815444	-69.723319	-160.109877
26081		9.292802	-1.076170	4.357575	0.521376	1.189832	0.425244	-0.112299	0.056090	-0.135077	-1.083740	0.177002	0.056152	0.092933	-0.010800	0.043556	0.131965	-0.565041	-0.085769	-0.809912	-1.685090	-69.702521	-160.317998
26082		9.673964	-1.005923	4.525026	0.566372	1.131277	0.839672	-0.218509	0.023191	-0.143782	-1.092529	0.174561	0.053955	0.096738	-0.010079	0.045250	0.130809	-0.565102	-0.085254	-0.810111	-1.603945	-69.701059	-160.538343
26083		9.892915	-1.116495	4.692101	0.613113	1.261734	1.103551	-0.278488	-0.008244	-0.146325	-1.085693	0.170166	0.058838	0.098919	-0.011172	0.046941	0.129458	-0.565324	-0.084522	-0.810250	-1.554344	-69.717070	-160.761894
26084		9.841456	-1.291727	4.589073	0.489323	1.407626	1.020667	-0.291836	0.011131	-0.157638	-1.085449	0.167969	0.054443	0.098407	-0.012928	0.045904	0.128032	-0.565473	-0.083757	-0.810452	-1.493989	-69.722429	-161.004875
26085		9.736313	-1.448151	4.784821	0.655061	1.624821	0.990937	-0.315890	0.040301	-0.159949	-1.085693	0.170166	0.052002	0.097361	-0.014484	0.047851	0.126540	-0.565513	-0.082880	-0.810748	-1.442608	-69.710685	-161.253160
26086		10.279364	-1.560624	5.003564	0.642536	1.731590	1.577012	-0.365531	0.036335	-0.160444	-1.090088	0.167969	0.058838	0.102790	-0.015597	0.050045	0.124908	-0.565598	-0.081808	-0.811052	-1.419555	-69.700937	-161.501190
26087		11.110078	-1.631865	4.912851	0.268990	1.680553	2.325529	-0.370479	0.079530	-0.140054	-1.083008	0.161377	0.057129	0.111109	-0.016305	0.049115	0.123357	-0.565518	-0.080629	-0.811463	-1.429156	-69.666374	-161.717851
26088		11.393530	-1.668689	4.899635	0.150324	1.675355	2.587879	-0.291865	0.114008	-0.083025	-1.085205	0.161133	0.052490	0.113956	-0.016663	0.048956	0.122274	-0.565273	-0.079586	-0.811900	-1.481118	-69.611583	-161.841322
26089		12.020257	-1.670445	5.574874	0.545721	1.781887	3.411655	-0.153229	0.061118	-0.024735	-1.087402	0.161133	0.059326	0.120218	-0.016677	0.055725	0.121798	-0.565178	-0.078973	-0.812098	-1.545361	-69.585938	-161.866999
26090		13.599276	-1.512667	5.757051	0.229256	1.498565	4.954636	-0.089452	0.061559	0.023456	-1.092285	0.165527	0.054688	0.136012	-0.015085	0.057535	0.121696	-0.565061	-0.078483	-0.812241	-1.646999	-69.559395	-161.813889
26091		13.833142	-1.260873	5.098102	-0.379838	1.041796	4.942196	-0.018680	0.183797	0.078186	-1.089844	0.165527	0.047852	0.138383	-0.012550	0.050855	0.122066	-0.564426	-0.078051	-0.812669	-1.786124	-69.461757	-161.677343
26092		12.775613	-0.926756	4.883593	-0.151222	0.762876	3.873790	0.101134	0.276572	0.083065	-1.094238	0.161133	0.054932	0.127827	-0.009239	0.048655	0.122835	-0.563340	-0.078035	-0.813308	-1.859101	-69.310491	-161.537759
26093		12.431872	-0.860780	4.935802	-0.007228	0.737369	3.570533	0.169002	0.322628	0.053487	-1.089844	0.161133	0.041260	0.124400	-0.008616	0.049150	0.123687	-0.562013	-0.078351	-0.814066	-1.844096	-69.133695	-161.450792
26094		12.625937	-0.655580	4.677284	-0.288104	0.436100	3.657564	0.171564	0.364820	0.070708	-1.089844	0.165527	0.041016	0.126347	-0.006551	0.046537	0.124627	-0.560519	-0.078601	-0.814929	-1.849652	-68.932438	-161.340553
26095		12.518505	-0.030431	4.276229	-0.472117	-0.274849	3.404778	0.128367	0.368780	0.083452	-1.092285	0.167725	0.038818	0.125264	-0.000279	0.042531	0.125505	-0.559037	-0.078638	-0.815807	-1.898182	-68.728639	-161.210192
26096		12.067676	0.653281	3.854461	-0.535341	-1.007122	2.821053	0.091236	0.368026	0.047694	-1.092041	0.165527	0.029785	0.120746	0.006544	0.038325	0.126132	-0.557567	-0.078622	-0.816718	-1.914405	-68.525922	-161.137297
26097		11.400675	1.140026	3.514290	-0.504145	-1.497132	2.067109	0.071030	0.353536	-0.020133	-1.089600	0.158691	0.025879	0.114070	0.011376	0.034945	0.126420	-0.556139	-0.078723	-0.817637	-1.843938	-68.332795	-161.169863
26098		10.654872	1.354919	3.096228	-0.588729	-1.730379	1.214906	0.075510	0.318528	-0.080465	-1.096680	0.165283	0.018799	0.106603	0.013495	0.030798	0.126453	-0.554823	-0.079033	-0.818495	-1.685605	-68.160337	-161.294610
26099		9.881710	1.627813	2.824139	-0.510593	-1.969797	0.391862	0.065318	0.301286	-0.138358	-1.094482	0.167480	0.022949	0.098871	0.016201	0.028098	0.126221	-0.553564	-0.079471	-0.819341	-1.455300	-67.998930	-161.503077
26100		9.220694	1.770097	2.729959	-0.347899	-2.046498	-0.257696	0.016075	0.276893	-0.171513	-1.096436	0.163086	0.016602	0.092260	0.017620	0.027173	0.125707	-0.552418	-0.079816	-0.820160	-1.210173	-67.851240	-161.758034
26101		8.778193	1.805395	2.692867	-0.240586	-2.031325	-0.681236	-0.067889	0.264101	-0.195729	-1.094238	0.163086	0.016602	0.087835	0.017977	0.026807	0.124855	-0.551369	-0.079890	-0.820988	-0.982877	-67.711125	-162.046135
26102		8.683998	1.841420	2.615979	-0.292788	-2.070235	-0.797461	-0.188901	0.260126	-0.209072	-1.094238	0.160889	0.012207	0.086893	0.018348	0.026029	0.123615	-0.550403	-0.079507	-0.821860	-0.809268	-67.572880	-162.351236
26103		8.933009	1.715479	2.495484	-0.555722	-2.007963	-0.613332	-0.282913	0.252427	-0.199363	-1.098877	0.163086	0.009766	0.089379	0.017101	0.024818	0.122150	-0.549531	-0.078715	-0.822739	-0.705982	-67.438839	-162.639030
26104		9.086658	1.531186	2.564129	-0.631977	-1.831022	-0.446016	-0.353970	0.225683	-0.176821	-1.107910	0.165039	0.005371	0.090909	0.015277	0.025512	0.120578	-0.548816	-0.077586	-0.823555	-0.677313	-67.319644	-162.889794
26105		8.986369	1.368147	2.574099	-0.655435	-1.663558	-0.536073	-0.486291	0.156723	-0.166986	-1.102783	0.151855	0.010498	0.089895	0.013669	0.025637	0.118650	-0.548467	-0.075924	-0.824222	-0.739686	-67.240110	-163.124796
26106		8.521445	1.323267	2.691253	-0.408778	-1.542692	-0.921012	-0.647030	0.080070	-0.208922	-1.100830	0.156250	0.010254	0.085239	0.013231	0.026836	0.116083	-0.548508	-0.073763	-0.824756	-0.838793	-67.204835	-163.419396
26107		8.034107	1.480147	3.007762	0.085707	-1.567346	-1.249954	-0.833505	-0.034027	-0.244891	-1.093994	0.154053	0.012695	0.080354	0.014828	0.030030	0.112807	-0.549107	-0.070994	-0.825055	-0.997941	-67.235627	-163.765308
26108		8.246458	1.447935	3.201758	0.169342	-1.520898	-0.980359	-0.966166	-0.155826	-0.275910	-1.100342	0.147461	0.015381	0.082460	0.014520	0.032012	0.109000	-0.550261	-0.067832	-0.825064	-1.193612	-67.337151	-164.153188
26109		8.898903	1.267314	3.171467	-0.138715	-1.428754	-0.389621	-1.000324	-0.217177	-0.280299	-1.104736	0.142822	0.015625	0.088972	0.012707	0.031748	0.105051	-0.551669	-0.064570	-0.824898	-1.402898	-67.474200	-164.547852
26110		9.314080	1.074381	3.182419	-0.313909	-1.286323	-0.000400	-0.992124	-0.285899	-0.252112	-1.100098	0.138428	0.029297	0.093109	0.010785	0.031904	0.101217	-0.553349	-0.061303	-0.824501	-1.646762	-67.650743	-164.899118
26111		9.217036	0.946827	3.095610	-0.363347	-1.174941	-0.121429	-0.978727	-0.330082	-0.242464	-1.093262	0.138672	0.031494	0.092131	0.009508	0.031062	0.097442	-0.555192	-0.058081	-0.823950	-1.898018	-67.853031	-165.234083
26112		8.890322	0.697826	2.891767	-0.458459	-0.944093	-0.496811	-0.942862	-0.330083	-0.250909	-1.097656	0.138672	0.038330	0.088864	0.007003	0.029031	0.093728	-0.557004	-0.055033	-0.823367	-2.114859	-68.056656	-165.583241
26113		8.678866	0.309847	2.858165	-0.468596	-0.550733	-0.698694	-0.845370	-0.328242	-0.253131	-1.099854	0.131836	0.043213	0.086746	0.003110	0.028711	0.090276	-0.558745	-0.052386	-0.822745	-2.271707	-68.259051	-165.936639
26114		8.791396	-0.068964	2.881925	-0.536441	-0.181445	-0.578071	-0.752199	-0.308170	-0.252315	-1.094971	0.123047	0.048096	0.087869	-0.000692	0.028957	0.087093	-0.560354	-0.050113	-0.822135	-2.372862	-68.450919	-166.291533
26115		8.906161	-0.335275	3.000163	-0.493315	0.095675	-0.422239	-0.699713	-0.265103	-0.227920	-1.092529	0.123291	0.052734	0.089018	-0.003349	0.030131	0.084165	-0.561756	-0.047965	-0.821612	-2.474799	-68.617086	-166.613339
26116		8.761234	-0.425548	3.034782	-0.400596	0.204536	-0.541881	-0.691734	-0.217282	-0.193997	-1.101563	0.123047	0.057129	0.087575	-0.004235	0.030458	0.081402	-0.562963	-0.045738	-0.821191	-2.615454	-68.756087	-166.888331
26117		8.559071	-0.502387	3.085130	-0.274323	0.303143	-0.709889	-0.671731	-0.163894	-0.167413	-1.096924	0.118652	0.062012	0.085561	-0.004992	0.030938	0.078822	-0.563936	-0.043491	-0.820897	-2.781415	-68.863261	-167.123672
26118		8.307690	-0.465155	3.102940	-0.145452	0.284955	-0.938007	-0.644980	-0.091904	-0.153441	-1.094482	0.112061	0.062256	0.083059	-0.004615	0.031082	0.076386	-0.564606	-0.041289	-0.820780	-2.946029	-68.930170	-167.343803
26119		8.067684	-0.500921	3.092914	-0.065900	0.331069	-1.164531	-0.607833	-0.021207	-0.141000	-1.094238	0.109863	0.060303	0.080670	-0.004972	0.030953	0.074123	-0.564961	-0.039174	-0.820847	-3.103494	-68.955388	-167.548806
26120		7.873937	-0.689021	3.027014	-0.084525	0.514807	-1.364950	-0.510248	0.037278	-0.111018	-1.094238	0.109863	0.060303	0.078741	-0.006857	0.030273	0.072259	-0.565047	-0.037358	-0.821039	-3.241904	-68.947232	-167.714612
26121		7.609844	-0.682770	3.112244	0.090556	0.531803	-1.580377	-0.399765	0.038845	-0.023315	-1.101074	0.111816	0.066895	0.076104	-0.006774	0.031121	0.071078	-0.565094	-0.035741	-0.821182	-3.450146	-68.934578	-167.737459
26122		7.444705	-0.568648	3.213961	0.262850	0.433201	-1.699749	-0.357133	0.039455	0.030075	-1.103271	0.109619	0.062500	0.074454	-0.005618	0.032135	0.070228	-0.565138	-0.034153	-0.821292	-3.710878	-68.920663	-167.678065
26123		7.291179	-0.512670	3.299624	0.406586	0.386733	-1.812891	-0.313062	0.037599	0.051256	-1.101318	0.116455	0.064209	0.072919	-0.005056	0.032990	0.069597	-0.565169	-0.032682	-0.821384	-3.979867	-68.905929	-167.582568
26124		7.088791	-0.411745	3.345570	0.537413	0.295082	-1.987252	-0.259152	0.029398	0.048634	-1.101318	0.116455	0.059814	0.070894	-0.004057	0.033451	0.069101	-0.565219	-0.031446	-0.821440	-4.213115	-68.896663	-167.492316
26125		6.976677	-0.283982	3.473347	0.717196	0.182252	-2.049234	-0.222090	-0.015545	0.043891	-1.101318	0.116455	0.066650	0.069765	-0.002786	0.034742	0.068688	-0.565433	-0.030388	-0.821367	-4.424658	-68.912326	-167.402519
26126		6.938216	-0.096229	3.561434	0.845199	0.000773	-2.059137	-0.203434	-0.040729	0.031186	-1.098877	0.112061	0.064697	0.069375	-0.000915	0.035629	0.068271	-0.565747	-0.029454	-0.821220	-4.609078	-68.943524	-167.330164
26127		6.948276	0.029082	3.609044	0.911081	-0.127086	-2.037191	-0.184712	-0.073286	0.037422	-1.098877	0.112061	0.066895	0.069469	0.000337	0.036116	0.067929	-0.566183	-0.028588	-0.820978	-4.797201	-68.992245	-167.242552
26128		7.064385	0.148031	3.608384	0.896841	-0.262671	-1.933947	-0.160705	-0.112359	0.052387	-1.094727	0.116455	0.071045	0.070623	0.001528	0.036122	0.067701	-0.566779	-0.027794	-0.820613	-4.997239	-69.063241	-167.127739
26129		7.236763	0.177463	3.586680	0.833503	-0.316741	-1.783277	-0.152216	-0.143745	0.057943	-1.103516	0.111816	0.071289	0.072341	0.001823	0.035917	0.067525	-0.567495	-0.027027	-0.820158	-5.208313	-69.150906	-166.995712
26130		7.459105	0.194600	3.700324	0.879109	-0.345937	-1.537666	-0.122190	-0.159291	0.067156	-1.099121	0.116455	0.071045	0.074561	0.001994	0.037061	0.067462	-0.568272	-0.026365	-0.819647	-5.417735	-69.247805	-166.847366
26131		7.535716	0.138655	3.546177	0.717536	-0.323204	-1.520385	-0.097902	-0.161431	0.075916	-1.092285	0.116455	0.068848	0.075328	0.001433	0.035522	0.067511	-0.569043	-0.025775	-0.819126	-5.630324	-69.344217	-166.680617
26132		7.191300	0.153145	3.238766	0.565876	-0.354292	-1.952528	-0.079302	-0.110092	0.094838	-1.092529	0.121094	0.077393	0.071894	0.001578	0.032427	0.067693	-0.569602	-0.025193	-0.818741	-5.852931	-69.410394	-166.491806
26133		6.887159	0.309665	2.985894	0.465724	-0.523439	-2.332479	-0.066268	-0.055569	0.117868	-1.092529	0.118896	0.075439	0.068861	0.003147	0.029877	0.068017	-0.569933	-0.024578	-0.818502	-6.097366	-69.443512	-166.271825
26134		7.159473	0.410563	3.140552	0.534667	-0.638501	-2.028337	-0.059215	0.022394	0.127772	-1.099365	0.120850	0.077393	0.071596	0.004161	0.031396	0.068409	-0.569949	-0.023939	-0.818477	-6.339259	-69.432032	-166.050158
26135		7.867638	0.490880	3.599584	0.731207	-0.735975	-1.209121	-0.026405	0.046639	0.126642	-1.097168	0.120850	0.072998	0.078682	0.004963	0.035977	0.068895	-0.569849	-0.023427	-0.818521	-6.557277	-69.405755	-165.833987
26136		8.865308	0.438025	4.183205	0.928710	-0.712531	-0.070278	0.015708	-0.027853	0.126873	-1.096924	0.116455	0.080078	0.088644	0.004433	0.041845	0.069487	-0.570042	-0.023116	-0.818345	-6.762271	-69.422119	-165.605995
26137		9.628093	0.504626	4.768981	1.234759	-0.785482	0.843596	0.066535	-0.132248	0.123799	-1.099365	0.120850	0.072998	0.096246	0.005090	0.047755	0.070205	-0.570641	-0.023054	-0.817868	-6.955320	-69.497254	-165.359680
26138		9.916454	0.438078	4.976132	1.340881	-0.725760	1.185728	0.128322	-0.184217	0.120532	-1.097168	0.121094	0.079834	0.099116	0.004409	0.049855	0.071067	-0.571432	-0.023277	-0.817235	-7.115732	-69.602519	-165.111039
26139		9.734816	0.477504	4.909804	1.368217	-0.756885	0.988049	0.210502	-0.168360	0.104912	-1.092773	0.127686	0.079346	0.097304	0.004774	0.049185	0.072115	-0.572124	-0.023870	-0.816642	-7.207730	-69.699075	-164.884829
26140		9.562126	0.514033	4.946153	1.483624	-0.768174	0.834926	0.277011	-0.125635	0.085483	-1.095215	0.127686	0.079346	0.095588	0.005113	0.049529	0.073270	-0.572615	-0.024779	-0.816167	-7.221685	-69.773140	-164.701469
26141		9.949527	0.484584	5.147676	1.551268	-0.740930	1.267523	0.316176	-0.084835	0.072527	-1.095215	0.129883	0.083740	0.099472	0.004800	0.051527	0.074498	-0.572921	-0.025866	-0.815808	-7.188684	-69.824485	-164.544153
26142		10.566660	0.490516	5.253819	1.453888	-0.780318	1.882390	0.293792	-0.023584	0.057753	-1.092773	0.125488	0.081787	0.105659	0.004858	0.052558	0.075603	-0.572982	-0.026885	-0.815630	-7.131418	-69.842443	-164.426327
26143		10.977296	0.561316	5.237954	1.314590	-0.881976	2.259853	0.236219	0.041486	0.029891	-1.097656	0.132080	0.081299	0.109783	0.005568	0.052363	0.076444	-0.572794	-0.027720	-0.815656	-7.053893	-69.825089	-164.365282
26144		10.907809	0.690233	4.990566	1.122042	-1.026513	2.105775	0.176298	0.080935	-0.034878	-1.090820	0.132324	0.076904	0.109099	0.006839	0.049868	0.076846	-0.572459	-0.028487	-0.815827	-6.899951	-69.790155	-164.422294
26145		11.073203	0.669076	5.229958	1.275022	-0.975125	2.346233	0.149228	0.112318	-0.114069	-1.092773	0.123291	0.072754	0.110765	0.006589	0.052242	0.076861	-0.571994	-0.029352	-0.816121	-6.637132	-69.742340	-164.611823
26146		12.404559	0.476159	5.587386	1.116088	-0.835653	3.728901	0.165511	0.112243	-0.182929	-1.094971	0.123291	0.081787	0.124081	0.004602	0.055808	0.076634	-0.571509	-0.030487	-0.816441	-6.256546	-69.698347	-164.916848
26147		13.499112	0.290866	5.500420	0.614811	-0.733705	4.735465	0.149703	0.191759	-0.218776	-1.090332	0.123291	0.072754	0.135047	0.002720	0.054877	0.076235	-0.570702	-0.031623	-0.816999	-5.822368	-69.610749	-165.288984
26148		13.174543	0.044020	5.102794	0.279454	-0.487919	4.304417	0.122779	0.277750	-0.202595	-1.085693	0.121094	0.066162	0.131816	0.000275	0.050845	0.075828	-0.569556	-0.032576	-0.817799	-5.415638	-69.472594	-165.648680
26149		12.516509	-0.178592	4.842112	0.183591	-0.226996	3.605789	0.099922	0.308953	-0.153211	-1.094727	0.121094	0.068604	0.125238	-0.001906	0.048227	0.075573	-0.568296	-0.033277	-0.818670	-5.101140	-69.312933	-165.924062
26150		12.881386	-0.363424	5.053134	0.179834	-0.032563	4.027932	0.072635	0.326762	-0.124869	-1.090332	0.121094	0.061768	0.128894	-0.003733	0.050319	0.075353	-0.566974	-0.033785	-0.819586	-4.843817	-69.141036	-166.155055
26151		12.959606	-0.614932	4.631940	-0.325212	0.155535	3.958813	0.034629	0.376803	-0.067411	-1.092529	0.120850	0.054932	0.129681	-0.006201	0.046074	0.075275	-0.565472	-0.033950	-0.820623	-4.694491	-68.937726	-166.294267
26152		12.351669	-0.872474	4.009164	-0.774028	0.372781	3.174233	0.033488	0.310601	-0.027328	-1.092529	0.118652	0.055176	0.123578	-0.008748	0.039898	0.075345	-0.564244	-0.034027	-0.821459	-4.612766	-68.769834	-166.361348
26153		11.559283	-1.115951	3.241889	-1.273182	0.568152	2.163471	-0.004643	0.222455	0.004042	-1.092529	0.120850	0.054932	0.115629	-0.011156	0.032291	0.075423	-0.563400	-0.033886	-0.822036	-4.612540	-68.651245	-166.364998
26154		10.530003	-1.391106	2.457101	-1.696155	0.811151	0.925960	0.005859	0.164442	0.034615	-1.101563	0.120850	0.046143	0.105323	-0.013894	0.024484	0.075642	-0.562794	-0.033730	-0.822438	-4.655125	-68.564350	-166.315915
26155		9.637601	-1.298862	1.731201	-2.046500	0.688412	-0.173944	0.065906	0.147419	0.046777	-1.092773	0.125488	0.045898	0.096392	-0.012972	0.017237	0.076082	-0.562238	-0.033787	-0.822775	-4.685140	-68.486619	-166.243636
26156		9.123054	-1.431540	1.350277	-2.247335	0.803601	-0.790140	0.129723	0.126674	0.066740	-1.092529	0.120850	0.050537	0.091244	-0.014294	0.013436	0.076779	-0.561741	-0.034065	-0.823038	-4.707578	-68.419157	-166.139503
26157		9.046371	-1.655555	1.373757	-2.246058	1.027026	-0.848016	0.259458	0.095864	0.096372	-1.097168	0.125244	0.041260	0.090478	-0.016530	0.013673	0.077958	-0.561331	-0.034799	-0.823176	-4.703747	-68.368517	-165.984284
26158		9.282225	-1.738126	1.790817	-1.970852	1.139798	-0.474358	0.377661	0.048475	0.133699	-1.094971	0.125244	0.041260	0.092838	-0.017353	0.017853	0.079610	-0.561071	-0.035938	-0.823146	-4.689040	-68.342979	-165.767519
26159		9.699993	-1.604666	2.210435	-1.720461	1.023928	0.063668	0.438811	0.031435	0.172686	-1.097656	0.134277	0.038574	0.097017	-0.016011	0.022054	0.081594	-0.560865	-0.037221	-0.823036	-4.699338	-68.325564	-165.486460
26160		9.976538	-1.444054	2.462269	-1.566878	0.868330	0.408382	0.476967	0.016098	0.210210	-1.097656	0.134277	0.038574	0.099783	-0.014394	0.024580	0.083838	-0.560704	-0.038567	-0.822858	-4.741891	-68.314430	-165.146401
26161		9.956508	-1.387183	2.446365	-1.570468	0.799511	0.382185	0.561367	0.026822	0.243486	-1.093262	0.138672	0.040527	0.099585	-0.013819	0.024411	0.086455	-0.560470	-0.040157	-0.822670	-4.783695	-68.296156	-164.755805
26162		9.256662	-1.487457	2.359861	-1.428003	0.938818	-0.297086	0.737935	0.032731	0.292677	-1.093262	0.138672	0.035889	0.092592	-0.014826	0.023529	0.089773	-0.560135	-0.042337	-0.822434	-4.792918	-68.271603	-164.290543
26163		8.699394	-1.478063	2.615804	-1.001997	1.017521	-0.720537	0.841915	-0.051402	0.341690	-1.091309	0.143311	0.038086	0.087012	-0.014742	0.026118	0.093561	-0.560103	-0.044839	-0.821900	-4.823722	-68.293159	-163.738701
26164		9.051256	-1.442248	3.010313	-0.762036	1.006927	-0.248552	0.815938	-0.111303	0.362804	-1.093750	0.147705	0.040039	0.090522	-0.014381	0.030095	0.097348	-0.560318	-0.047207	-0.821181	-4.906679	-68.347173	-163.146336
26165		9.667584	-1.349962	3.277492	-0.712000	0.890340	0.420928	0.787504	-0.154607	0.390994	-1.087402	0.156738	0.041748	0.096677	-0.013440	0.032797	0.101158	-0.560725	-0.049395	-0.820314	-5.055514	-68.424571	-162.501466
26166		10.070890	-0.991225	3.270882	-0.767288	0.481205	0.783713	0.748314	-0.191336	0.422562	-1.087646	0.163330	0.041260	0.100698	-0.009822	0.032768	0.104980	-0.561297	-0.051355	-0.819321	-5.280147	-68.520435	-161.799069
26167		9.966453	-0.638854	3.041383	-0.839146	0.087857	0.592907	0.707534	-0.198138	0.417561	-1.085449	0.165527	0.038818	0.099648	-0.006288	0.030490	0.108660	-0.561908	-0.053161	-0.818307	-5.526504	-68.619477	-161.099473
26168		9.532086	-0.458933	2.669611	-0.962811	-0.128680	0.049082	0.722215	-0.196921	0.387774	-1.081299	0.174561	0.047363	0.095303	-0.004501	0.026774	0.112266	-0.562485	-0.055113	-0.817294	-5.725380	-68.718054	-160.441334
26169		9.182853	-0.260697	2.491732	-0.935401	-0.327445	-0.345943	0.785202	-0.192742	0.332699	-1.085938	0.176758	0.047119	0.091809	-0.002552	0.024996	0.115814	-0.562986	-0.057470	-0.816291	-5.810195	-68.817279	-159.868245
26170		8.957101	-0.024301	2.563477	-0.715031	-0.515629	-0.537748	0.777780	-0.167244	0.264566	-1.081787	0.185791	0.044434	0.089550	-0.000224	0.025709	0.119079	-0.563360	-0.059974	-0.815383	-5.799124	-68.905978	-159.401994
26171		9.034383	0.022735	2.680812	-0.608965	-0.542360	-0.424272	0.730114	-0.091307	0.206489	-1.081787	0.185791	0.048828	0.090331	0.000223	0.026850	0.121984	-0.563424	-0.062400	-0.814727	-5.718098	-68.954666	-159.041081
26172		8.834899	0.017659	2.772603	-0.455727	-0.486556	-0.576961	0.683305	0.008455	0.155492	-1.077393	0.188232	0.046387	0.088350	0.000151	0.027723	0.124595	-0.563087	-0.064719	-0.814384	-5.576268	-68.949567	-158.772798
26173		8.517339	0.205529	2.914871	-0.171340	-0.586171	-0.828767	0.624864	0.053166	0.136499	-1.088623	0.190186	0.044189	0.085180	0.002022	0.029132	0.126961	-0.562591	-0.066823	-0.814191	-5.430815	-68.920282	-158.545559
26174		8.374329	0.258563	3.003057	-0.035903	-0.591918	-0.932208	0.520030	0.127297	0.101678	-1.077637	0.192627	0.037109	0.083761	0.002550	0.029984	0.128927	-0.561844	-0.068553	-0.814254	-5.285346	-68.850867	-158.381494
26175		7.951888	0.212021	3.143262	0.206063	-0.451584	-1.273884	0.461490	0.176272	0.072901	-1.082275	0.194824	0.041504	0.079546	0.002077	0.031367	0.130614	-0.560922	-0.070091	-0.814490	-5.122375	-68.755071	-158.273241
26176		7.641544	0.169943	3.184894	0.321742	-0.354799	-1.546116	0.387554	0.160854	0.042296	-1.077637	0.197021	0.039063	0.076441	0.001654	0.031791	0.131980	-0.560096	-0.071425	-0.814722	-4.961626	-68.669578	-158.206544
26177		7.356013	0.034261	3.324347	0.489504	-0.145974	-1.756482	0.316076	0.163703	0.037357	-1.082275	0.199219	0.030029	0.073587	0.000304	0.033184	0.133110	-0.559302	-0.072478	-0.814991	-4.832091	-68.582907	-158.151726
26178		7.065568	-0.018033	3.375048	0.605178	-0.040547	-2.005919	0.285988	0.148954	0.046216	-1.086914	0.198975	0.030029	0.070681	-0.000212	0.033698	0.134207	-0.558589	-0.073395	-0.815218	-4.737962	-68.504089	-158.075654
26179		6.826880	-0.151201	3.264122	0.536869	0.091581	-2.263712	0.246368	0.120534	0.027337	-1.077881	0.201416	0.030029	0.068289	-0.001543	0.032598	0.135084	-0.558011	-0.074220	-0.815394	-4.639386	-68.442611	-158.030432
26180		6.614948	-0.251084	3.295291	0.598569	0.227612	-2.445909	0.251584	0.074506	0.024293	-1.082520	0.201416	0.032227	0.066162	-0.002544	0.032925	0.135968	-0.557614	-0.075108	-0.815437	-4.542146	-68.407312	-157.978805
26181		6.465539	-0.250413	3.400808	0.738660	0.281663	-2.545883	0.223688	0.025867	0.001035	-1.079834	0.194824	0.032471	0.064660	-0.002542	0.033997	0.136639	-0.557426	-0.075978	-0.815373	-4.429729	-68.401147	-157.962423
26182		6.489273	-0.382264	3.409752	0.696209	0.413578	-2.516973	0.184965	-0.024358	-0.041740	-1.084229	0.192383	0.032715	0.064888	-0.003868	0.034102	0.137023	-0.557456	-0.076845	-0.815207	-4.285747	-68.425901	-158.002663
26183		6.540885	-0.466844	3.405224	0.648743	0.494665	-2.468908	0.180977	-0.046015	-0.049141	-1.082275	0.196777	0.034668	0.065400	-0.004715	0.034063	0.137343	-0.557570	-0.077730	-0.814991	-4.132981	-68.462949	-158.055979
26184		6.691616	-0.624912	3.379147	0.527123	0.626886	-2.334986	0.149571	-0.073389	-0.072111	-1.088867	0.192383	0.032715	0.066901	-0.006299	0.033811	0.137479	-0.557811	-0.078572	-0.814722	-3.968605	-68.517049	-158.140346
26185		6.952265	-0.691925	3.550699	0.572897	0.713743	-2.029207	0.128164	-0.074861	-0.071263	-1.084229	0.190186	0.028320	0.069507	-0.006967	0.035529	0.137550	-0.558070	-0.079323	-0.814461	-3.816004	-68.571338	-158.225962
26186		7.363948	-0.855603	3.479222	0.321699	0.802846	-1.669180	0.060221	-0.055332	-0.085770	-1.082275	0.196777	0.032471	0.073626	-0.008598	0.034810	0.137385	-0.558288	-0.079827	-0.814289	-3.678908	-68.614874	-158.335971
26187		7.478676	-0.858482	3.534106	0.332236	0.813821	-1.543177	0.025950	-0.015364	-0.088740	-1.086670	0.196777	0.039307	0.074780	-0.008623	0.035346	0.137123	-0.558367	-0.080169	-0.814246	-3.552842	-68.635621	-158.455934
26188		7.381192	-0.970739	3.403237	0.213182	0.902568	-1.679651	-0.017494	0.027473	-0.098135	-1.082031	0.190186	0.030518	0.073812	-0.009741	0.034023	0.136734	-0.558301	-0.080333	-0.814340	-3.436651	-68.632533	-158.590917
26189		7.470395	-1.008579	3.533812	0.283274	0.968208	-1.548658	-0.050604	0.070739	-0.102325	-1.079590	0.190186	0.032715	0.074711	-0.010115	0.035314	0.136237	-0.558076	-0.080343	-0.814577	-3.326994	-68.604314	-158.740369
26190		7.821791	-1.037929	3.680771	0.278592	0.994404	-1.167496	-0.100044	0.107389	-0.123567	-1.083984	0.185791	0.031006	0.078231	-0.010409	0.036771	0.135541	-0.557726	-0.080187	-0.814948	-3.213248	-68.555647	-158.923761
26191		8.138016	-0.995214	3.785465	0.268416	0.944039	-0.835815	-0.156560	0.127961	-0.137892	-1.088623	0.187744	0.030762	0.081397	-0.009979	0.037810	0.134627	-0.557325	-0.079826	-0.815409	-3.108919	-68.495606	-159.132818
26192		8.386193	-0.916008	3.988551	0.379686	0.894904	-0.532018	-0.203501	0.112686	-0.155077	-1.079346	0.183594	0.031006	0.083877	-0.009185	0.039848	0.133512	-0.557010	-0.079332	-0.815856	-3.009266	-68.444715	-159.365172
26193		8.749617	-1.021322	4.325952	0.515953	1.044016	-0.068120	-0.240709	0.080940	-0.171068	-1.085938	0.178955	0.026855	0.087505	-0.010236	0.043236	0.132209	-0.556842	-0.078751	-0.816239	-2.910153	-68.412291	-159.620605
26194		9.227882	-1.047077	4.515033	0.508215	1.061991	0.446435	-0.290018	0.054605	-0.185240	-1.090332	0.176758	0.035889	0.092281	-0.010491	0.045140	0.130705	-0.556806	-0.078027	-0.816575	-2.821384	-68.395129	-159.894821
26195		9.595775	-1.188706	4.599028	0.413454	1.176464	0.821595	-0.342652	0.031999	-0.201521	-1.085938	0.176758	0.033691	0.095953	-0.011905	0.045995	0.128973	-0.556890	-0.077146	-0.816877	-2.740797	-68.391267	-160.193215
26196		9.763655	-1.306110	4.633046	0.355261	1.280710	0.991644	-0.343165	-0.009656	-0.196302	-1.088135	0.174561	0.031494	0.097621	-0.013077	0.046358	0.127246	-0.557148	-0.076276	-0.817054	-2.670923	-68.411565	-160.480323
26197		9.850401	-1.432464	4.699718	0.355707	1.413934	1.098039	-0.317792	-0.035820	-0.194495	-1.085693	0.172363	0.033936	0.098482	-0.014346	0.047038	0.125585	-0.557491	-0.075520	-0.817147	-2.590297	-68.446046	-160.763368
26198		10.318962	-1.622756	4.940370	0.363970	1.610102	1.623949	-0.287897	-0.066539	-0.191362	-1.087646	0.167725	0.029785	0.103158	-0.016255	0.049461	0.124013	-0.557941	-0.074897	-0.817137	-2.498825	-68.497988	-161.039258
26199		11.022965	-1.718558	5.036766	0.190978	1.651081	2.314376	-0.271457	-0.051246	-0.166668	-1.085449	0.167725	0.031982	0.110202	-0.017209	0.050419	0.122589	-0.558325	-0.074263	-0.817148	-2.431624	-68.540314	-161.279170
26200		11.160649	-1.610122	4.972048	0.124675	1.519583	2.416342	-0.226588	-0.001222	-0.128315	-1.083252	0.170166	0.034180	0.111596	-0.016116	0.049739	0.121468	-0.558487	-0.073674	-0.817258	-2.391079	-68.552575	-161.462445
26201		11.463081	-1.365139	5.314590	0.398987	1.339666	2.818893	-0.135390	0.011704	-0.081899	-1.085449	0.165527	0.036621	0.114628	-0.013662	0.053148	0.120793	-0.558561	-0.073320	-0.817339	-2.365076	-68.556715	-161.574276
26202		12.824530	-1.198680	5.713304	0.332350	1.125084	4.229071	-0.090377	0.009081	-0.049027	-1.089844	0.161133	0.041260	0.128245	-0.011992	0.057133	0.120383	-0.558629	-0.073059	-0.817376	-2.362460	-68.561517	-161.632891
26203		13.580854	-1.008638	5.332162	-0.223740	0.755929	4.790990	-0.049087	0.113466	-0.013802	-1.087646	0.165527	0.036621	0.135838	-0.010083	0.053247	0.120265	-0.558260	-0.072805	-0.817669	-2.380121	-68.505783	-161.644687
26204		12.883454	-0.562117	4.894887	-0.267602	0.289806	3.975120	0.015558	0.210016	-0.000682	-1.087646	0.165527	0.025391	0.128886	-0.005625	0.048813	0.120414	-0.557463	-0.072721	-0.818197	-2.374086	-68.394835	-161.642350
26205		12.256861	-0.415727	4.641692	-0.263919	0.151691	3.296699	0.103803	0.266679	-0.014872	-1.087402	0.161133	0.030029	0.122630	-0.004190	0.046251	0.120773	-0.556374	-0.073004	-0.818861	-2.293821	-68.251411	-161.665275
26206		12.356883	-0.185982	4.639738	-0.272934	-0.084187	3.384759	0.126874	0.300788	-0.034392	-1.087158	0.152100	0.028320	0.123638	-0.001910	0.046210	0.121130	-0.555119	-0.073415	-0.819622	-2.171271	-68.088440	-161.719388
26207		12.384233	0.208029	4.570698	-0.272491	-0.485220	3.377990	0.095252	0.301246	-0.047114	-1.085205	0.161133	0.016602	0.123911	0.002029	0.045521	0.121346	-0.553878	-0.073731	-0.820401	-2.050113	-67.925872	-161.791749
26208		11.959845	0.846647	4.266236	-0.250546	-1.126158	2.861079	0.055749	0.291089	-0.088665	-1.092041	0.160889	0.016602	0.119664	0.008402	0.042491	0.121270	-0.552685	-0.074007	-0.821192	-1.893501	-67.769617	-161.927325
26209		11.287510	1.261527	3.807047	-0.336705	-1.559296	2.059467	0.010920	0.285086	-0.141439	-1.091797	0.158691	0.012451	0.112938	0.012533	0.037910	0.120859	-0.551525	-0.074247	-0.822010	-1.692938	-67.617847	-162.137902
26210		10.764064	1.489508	3.417500	-0.465121	-1.808901	1.424502	-0.019482	0.288933	-0.196951	-1.093994	0.156494	0.012451	0.107704	0.014792	0.034018	0.120136	-0.550341	-0.074514	-0.822885	-1.435051	-67.463990	-162.429499
26211		9.965070	1.570568	2.929653	-0.618984	-1.907450	0.498982	-0.015096	0.288440	-0.234816	-1.091553	0.151855	0.010498	0.099711	0.015591	0.029152	0.119269	-0.549145	-0.074902	-0.823774	-1.127068	-67.310786	-162.773055
26212		9.204512	1.630224	2.674510	-0.582540	-1.930006	-0.301153	-0.061350	0.291687	-0.262479	-1.089111	0.147461	0.010742	0.092105	0.016190	0.026606	0.118159	-0.547951	-0.075175	-0.824704	-0.811055	-67.155209	-163.154563
26213		8.834562	1.591912	2.711086	-0.456529	-1.830165	-0.627067	-0.124181	0.287088	-0.277848	-1.089111	0.147461	0.004150	0.088406	0.015813	0.026974	0.116815	-0.546805	-0.075232	-0.825651	-0.515971	-67.001650	-163.552752
26214		8.633843	1.636177	2.929683	-0.207973	-1.785331	-0.725740	-0.231241	0.269733	-0.284076	-1.093750	0.149658	-0.005127	0.086401	0.016273	0.029161	0.115139	-0.545790	-0.074876	-0.826590	-0.277022	-66.857499	-163.957207
26215		8.816940	1.554488	2.910048	-0.346236	-1.723940	-0.564373	-0.347888	0.207018	-0.281465	-1.095703	0.145264	0.004150	0.088221	0.015471	0.028982	0.113138	-0.545098	-0.074064	-0.827395	-0.113441	-66.748562	-164.352591
26216		9.069103	1.320595	2.873078	-0.561514	-1.529206	-0.347311	-0.449802	0.145822	-0.256259	-1.095703	0.142822	-0.000244	0.090729	0.013154	0.028635	0.110943	-0.544721	-0.072799	-0.828053	-0.043878	-66.674176	-164.708953
26217		8.996720	1.081493	2.985443	-0.514117	-1.261550	-0.369827	-0.556671	0.078041	-0.239273	-1.104492	0.138184	0.002441	0.089992	0.010790	0.029789	0.108499	-0.544687	-0.071079	-0.828548	-0.059277	-66.638726	-165.040124
26218		8.604778	0.932054	3.043575	-0.357773	-1.063262	-0.706879	-0.704909	-0.047866	-0.255954	-1.093018	0.131836	0.004883	0.086052	0.009318	0.030423	0.105535	-0.545244	-0.068861	-0.828751	-0.136940	-66.675747	-165.395749
26219		8.202098	0.861141	3.179189	-0.097583	-0.925381	-1.023071	-0.823355	-0.135904	-0.267214	-1.095215	0.134033	0.004883	0.082011	0.008633	0.031812	0.102170	-0.546215	-0.066226	-0.828749	-0.267799	-66.763279	-165.767411
26220		8.024669	0.875633	3.191176	-0.005407	-0.923403	-1.181759	-0.901211	-0.214911	-0.278054	-1.097412	0.134033	0.011719	0.080225	0.008789	0.031958	0.098516	-0.547539	-0.063339	-0.828543	-0.426922	-66.896772	-166.156407
26221		8.515542	0.880949	3.382644	-0.002781	-0.937684	-0.655531	-0.946729	-0.294540	-0.292469	-1.097168	0.127441	0.014160	0.085118	0.008845	0.033910	0.094653	-0.549196	-0.060338	-0.828121	-0.592991	-67.076109	-166.565875
26222		9.096801	0.778007	3.377633	-0.225098	-0.893087	-0.121601	-0.968446	-0.359720	-0.287609	-1.097168	0.123047	0.021240	0.090918	0.007813	0.033902	0.090730	-0.551121	-0.057266	-0.827499	-0.776518	-67.293610	-166.968854
26223		9.308871	0.640893	3.201405	-0.459458	-0.811587	0.007951	-0.937310	-0.424090	-0.266842	-1.096924	0.120850	0.032715	0.093029	0.006435	0.032181	0.086956	-0.553286	-0.054290	-0.826660	-0.969874	-67.547953	-167.341623
26224		9.087860	0.484291	3.098381	-0.462105	-0.655954	-0.232513	-0.899869	-0.474930	-0.268260	-1.099121	0.116211	0.037354	0.090811	0.004861	0.031178	0.083261	-0.555634	-0.051497	-0.825643	-1.137429	-67.832690	-167.718229
26225		8.876144	0.209454	2.934444	-0.543108	-0.392640	-0.485765	-0.827025	-0.485266	-0.273684	-1.096680	0.111816	0.044434	0.088693	0.002095	0.029551	0.079744	-0.557973	-0.049019	-0.824563	-1.253593	-68.122960	-168.104620
26226		8.787916	-0.085322	2.968076	-0.491461	-0.082532	-0.550089	-0.763028	-0.446559	-0.270655	-1.100830	0.107422	0.046875	0.087811	-0.000858	0.029880	0.076419	-0.560121	-0.046783	-0.823551	-1.330687	-68.392259	-168.492886
26227		8.901533	-0.351648	2.912613	-0.589823	0.170215	-0.460294	-0.693177	-0.382270	-0.249581	-1.096436	0.105225	0.055908	0.088955	-0.003526	0.029308	0.073396	-0.561966	-0.044747	-0.822682	-1.394051	-68.623625	-168.852179
26228		8.873638	-0.400440	2.916216	-0.549812	0.228008	-0.482534	-0.634864	-0.292660	-0.228485	-1.089355	0.098633	0.058594	0.088689	-0.004013	0.029305	0.070636	-0.563421	-0.042862	-0.822028	-1.446600	-68.804345	-169.186846
26229		8.657865	-0.352894	2.915965	-0.437881	0.200727	-0.682849	-0.591292	-0.231815	-0.209523	-1.093994	0.100830	0.062988	0.086541	-0.003533	0.029270	0.068095	-0.564603	-0.041077	-0.821523	-1.499981	-68.949199	-169.493359
26230		8.417376	-0.336867	3.005644	-0.245596	0.216308	-0.874429	-0.582049	-0.177829	-0.195953	-1.095947	0.096436	0.067871	0.084144	-0.003363	0.030141	0.065638	-0.565563	-0.039276	-0.821150	-1.562292	-69.064078	-169.784590
26231		8.109736	-0.452774	2.942780	-0.195739	0.341676	-1.182641	-0.524385	-0.128683	-0.160345	-1.095947	0.094238	0.067871	0.081075	-0.004515	0.029492	0.063508	-0.566298	-0.037591	-0.820890	-1.644205	-69.149327	-170.019057
26232		7.902540	-0.468291	2.942289	-0.112361	0.366723	-1.375900	-0.447115	-0.082975	-0.090038	-1.102539	0.093994	0.070068	0.079011	-0.004653	0.029466	0.061884	-0.566838	-0.036013	-0.820712	-1.782957	-69.208603	-170.145537
26233		7.712183	-0.481550	2.973593	-0.007996	0.388077	-1.542184	-0.412262	-0.065212	-0.030135	-1.100586	0.096436	0.067871	0.077111	-0.004766	0.029771	0.060617	-0.567294	-0.034399	-0.820560	-1.993766	-69.255462	-170.173251
26234		7.537589	-0.551357	3.048127	0.122740	0.465456	-1.677665	-0.401763	-0.063762	0.030140	-1.100342	0.093994	0.070068	0.075367	-0.005441	0.030516	0.059622	-0.567755	-0.032660	-0.820386	-2.288506	-69.301138	-170.104849
26235		7.430877	-0.566397	3.026901	0.147944	0.469691	-1.784092	-0.361762	-0.048116	0.059543	-1.096191	0.098633	0.069824	0.074303	-0.005587	0.030297	0.058868	-0.568137	-0.030993	-0.820241	-2.606354	-69.336111	-169.987208
26236		7.216231	-0.545921	3.149354	0.348244	0.462342	-1.941512	-0.317228	-0.060536	0.064353	-1.093750	0.098633	0.072021	0.072155	-0.005386	0.031524	0.058255	-0.568559	-0.029502	-0.820046	-2.906400	-69.378522	-169.861267
26237		7.078789	-0.510583	3.116146	0.380590	0.418092	-2.082187	-0.287059	-0.106378	0.075219	-1.098145	0.094238	0.070068	0.070773	-0.005034	0.031206	0.057769	-0.569157	-0.028114	-0.819715	-3.211599	-69.445904	-169.711488
26238		7.012966	-0.420406	3.294754	0.594400	0.339326	-2.083176	-0.282565	-0.135798	0.073531	-1.096191	0.100830	0.072021	0.070109	-0.004132	0.033001	0.057281	-0.569875	-0.026760	-0.819296	-3.514254	-69.530383	-169.561721
26239		6.993740	-0.338419	3.300103	0.631836	0.246633	-2.101817	-0.283167	-0.169058	0.067581	-1.096191	0.098633	0.081055	0.069911	-0.003314	0.033065	0.056765	-0.570724	-0.025428	-0.818783	-3.814832	-69.633324	-169.414658
26240		7.153052	-0.253794	3.294581	0.600198	0.139272	-1.957424	-0.269129	-0.190795	0.070668	-1.095947	0.096436	0.078857	0.071500	-0.002468	0.033017	0.056298	-0.571661	-0.024153	-0.818200	-4.115949	-69.748971	-169.258408
26241		7.339494	-0.190610	3.337173	0.602970	0.056199	-1.770644	-0.239543	-0.199119	0.088174	-1.096191	0.098633	0.083252	0.073362	-0.001834	0.033447	0.055988	-0.572619	-0.022948	-0.817585	-4.431670	-69.867657	-169.068796
26242		7.566852	-0.162189	3.318177	0.531106	-0.001533	-1.565765	-0.197755	-0.195237	0.099996	-1.093994	0.098877	0.085449	0.075637	-0.001551	0.033257	0.055838	-0.573554	-0.021883	-0.816969	-4.742177	-69.983843	-168.859592
26243		7.786316	-0.017448	3.366468	0.537479	-0.167157	-1.348453	-0.156864	-0.166706	0.096916	-1.091797	0.101074	0.085449	0.077835	-0.000110	0.033730	0.055804	-0.574356	-0.020982	-0.816432	-5.025559	-70.082895	-168.654257
26244		7.741910	0.014733	3.315534	0.524895	-0.212641	-1.409748	-0.126238	-0.157154	0.106461	-1.093994	0.103271	0.087646	0.077393	0.000209	0.033216	0.055891	-0.575113	-0.020179	-0.815913	-5.305533	-70.176203	-168.434131
26245		7.653608	0.119013	2.907239	0.198491	-0.361053	-1.635026	-0.078510	-0.129113	0.120787	-1.098633	0.103271	0.087646	0.076517	0.001248	0.029121	0.056182	-0.575740	-0.019519	-0.815467	-5.580781	-70.251827	-168.189965
26246		7.480966	0.237427	2.908143	0.279558	-0.477796	-1.801940	-0.006416	-0.040288	0.151253	-1.094238	0.105469	0.087402	0.074802	0.002432	0.029096	0.056810	-0.575988	-0.019043	-0.815259	-5.848783	-70.274920	-167.909674
26247		8.055202	0.243918	3.259720	0.424444	-0.503679	-1.144487	0.019675	0.007285	0.172965	-1.092041	0.105469	0.089600	0.080551	0.002506	0.032595	0.057610	-0.576035	-0.018595	-0.815180	-6.130677	-70.268909	-167.598772
26248		9.019277	0.040878	3.626374	0.427023	-0.351789	-0.107355	0.050607	0.054366	0.193136	-1.096436	0.105469	0.085205	0.090202	0.000487	0.036239	0.058580	-0.575884	-0.018204	-0.815227	-6.415947	-70.234488	-167.265456
26249		10.036209	-0.021638	4.018687	0.449681	-0.345724	0.983332	0.079558	0.058949	0.214479	-1.087646	0.110107	0.087158	0.100374	-0.000125	0.040157	0.059726	-0.575705	-0.017865	-0.815277	-6.718711	-70.195291	-166.895801
26250		10.346882	0.184136	4.198559	0.537361	-0.576795	1.327254	0.106013	0.064847	0.239807	-1.094482	0.112061	0.086914	0.103480	0.001943	0.041953	0.061043	-0.575495	-0.017564	-0.815335	-7.040548	-70.150315	-166.489841
26251		10.086645	0.570978	4.489933	0.938028	-0.931749	1.163552	0.192677	0.107962	0.259390	-1.097168	0.121094	0.084229	0.100883	0.005797	0.044850	0.062703	-0.575085	-0.017541	-0.815499	-7.336267	-70.078682	-166.058523
26252		9.726031	0.780681	4.754561	1.322969	-1.098461	0.904313	0.319757	0.139046	0.244768	-1.092529	0.121094	0.084229	0.097284	0.007850	0.047491	0.064665	-0.574503	-0.018074	-0.815744	-7.525190	-69.989894	-165.663049
26253		9.861148	0.787357	5.047903	1.542136	-1.092665	1.131323	0.419912	0.172297	0.209425	-1.097168	0.125488	0.074951	0.098647	0.007871	0.050411	0.066779	-0.573748	-0.019101	-0.816081	-7.594556	-69.884538	-165.333613
26254		10.231340	0.700223	5.355203	1.678205	-1.004728	1.590073	0.441116	0.206068	0.159560	-1.093018	0.129883	0.079102	0.102363	0.006966	0.053462	0.068750	-0.572836	-0.020352	-0.816528	-7.563609	-69.763366	-165.097534
26255		10.448944	0.679138	5.481208	1.701344	-0.983878	1.841612	0.362019	0.185567	0.088113	-1.094971	0.123291	0.072754	0.104537	0.006738	0.054727	0.070203	-0.572029	-0.021486	-0.816941	-7.473517	-69.659649	-164.972990
26256		10.514383	0.717930	5.360508	1.556382	-1.033601	1.862587	0.237829	0.130387	-0.000064	-1.092773	0.125488	0.070557	0.105179	0.007116	0.053545	0.070930	-0.571476	-0.022390	-0.817241	-7.328183	-69.593681	-164.982970
26257		10.998700	0.617153	5.389743	1.395557	-0.961485	2.333487	0.132870	0.067129	-0.098478	-1.094727	0.121094	0.077393	0.110008	0.006082	0.053865	0.070953	-0.571210	-0.023163	-0.817403	-7.108021	-69.570947	-165.137206
26258		12.417029	0.462146	5.601008	1.083130	-0.888297	3.744789	0.105797	0.050387	-0.189056	-1.090332	0.118896	0.070801	0.124189	0.004474	0.055981	0.070514	-0.571010	-0.024096	-0.817554	-6.764687	-69.563734	-165.439599
26259		13.473188	0.197352	5.283966	0.378345	-0.727797	4.637678	0.067015	0.132256	-0.239876	-1.094482	0.114258	0.066650	0.134769	0.001794	0.052751	0.069779	-0.570483	-0.024981	-0.817959	-6.356176	-69.512569	-165.835187
26260		13.273718	-0.099444	4.706808	-0.162413	-0.456937	4.262829	0.078839	0.248251	-0.224692	-1.094727	0.121094	0.068604	0.132794	-0.001162	0.046903	0.069138	-0.569473	-0.025838	-0.818690	-5.942381	-69.392882	-166.229642
26261		12.700052	-0.516191	4.586821	-0.180164	0.012140	3.698931	0.181355	0.350353	-0.152686	-1.094482	0.112061	0.060059	0.127077	-0.005300	0.045641	0.069112	-0.568022	-0.026867	-0.819666	-5.573278	-69.210442	-166.513682
26262		12.367005	-0.634756	5.048407	0.291479	0.231600	3.554931	0.232878	0.429639	-0.113651	-1.092285	0.116455	0.059814	0.123774	-0.006476	0.050211	0.069394	-0.566226	-0.027975	-0.820847	-5.224071	-68.979582	-166.745053
26263		12.520601	-1.109586	4.764942	-0.151673	0.665665	3.612472	0.169737	0.413572	-0.082193	-1.096680	0.114258	0.055420	0.125300	-0.011188	0.047381	0.069633	-0.564524	-0.028733	-0.821972	-4.968815	-68.756329	-166.914999
26264		12.216701	-1.251240	3.995446	-0.828525	0.739709	3.053670	0.167572	0.367034	-0.032866	-1.094482	0.116455	0.055420	0.122238	-0.012566	0.039720	0.070054	-0.563017	-0.029366	-0.822947	-4.793597	-68.556873	-167.000444
26265		11.455882	-1.440298	2.999497	-1.551746	0.861503	1.983853	0.257429	0.386505	0.034253	-1.094482	0.116455	0.044189	0.114619	-0.014422	0.029755	0.071013	-0.561408	-0.030166	-0.823935	-4.666695	-68.343187	-166.978855
26266		10.093517	-1.403066	2.848899	-1.238194	0.912570	0.656211	0.291749	0.360232	0.088821	-1.099365	0.120850	0.041504	0.100992	-0.014027	0.028287	0.072285	-0.559899	-0.030969	-0.824821	-4.599708	-68.141977	-166.871329
26267		9.239649	-1.523868	2.414062	-1.382089	1.037796	-0.297768	0.299616	0.303829	0.123054	-1.094482	0.116455	0.037354	0.092442	-0.015218	0.023977	0.073716	-0.558623	-0.031724	-0.825530	-4.584813	-67.971454	-166.702866
26268		8.845617	-1.454938	2.107317	-1.537271	0.952534	-0.783181	0.303689	0.260453	0.128734	-1.099365	0.125244	0.034668	0.088493	-0.014524	0.020936	0.075169	-0.557520	-0.032500	-0.826114	-4.576980	-67.825134	-166.523824
26269		8.925999	-1.579834	1.800001	-1.891664	1.014859	-0.823752	0.363569	0.199911	0.170676	-1.099609	0.129639	0.034424	0.089291	-0.015755	0.017882	0.076958	-0.556652	-0.033425	-0.826498	-4.601422	-67.711781	-166.272935
26270		9.162300	-1.458404	2.037328	-1.760452	0.892749	-0.521339	0.395454	0.150103	0.220139	-1.101807	0.129639	0.029785	0.091654	-0.014523	0.020276	0.079034	-0.555981	-0.034366	-0.826715	-4.680205	-67.624339	-165.942735
26271		9.611672	-1.185723	2.276180	-1.677883	0.601416	-0.025239	0.414876	0.136999	0.219745	-1.104248	0.134033	0.025146	0.096145	-0.011799	0.022671	0.081156	-0.555355	-0.035390	-0.826887	-4.747646	-67.544393	-165.613201
26272		9.884881	-1.008689	2.372489	-1.673524	0.401163	0.256840	0.461123	0.097080	0.213886	-1.097656	0.138428	0.024902	0.098871	-0.010036	0.023654	0.083377	-0.554866	-0.036641	-0.826940	-4.783076	-67.486882	-165.288854
26273		9.852205	-1.061704	2.289883	-1.756337	0.431747	0.195588	0.652485	0.052169	0.232063	-1.100098	0.142822	0.020020	0.098540	-0.010577	0.022839	0.086193	-0.554486	-0.038647	-0.826815	-4.739194	-67.454684	-164.932184
26274		9.171545	-1.338940	2.457705	-1.413335	0.790145	-0.361314	0.954062	0.005439	0.285910	-1.093506	0.143066	0.022217	0.091735	-0.013375	0.024511	0.090067	-0.554163	-0.041774	-0.826466	-4.602118	-67.446091	-164.488186
26275		8.683190	-1.383902	2.951617	-0.803120	0.965983	-0.623189	1.114341	-0.067120	0.318713	-1.093506	0.147461	0.019775	0.086844	-0.013865	0.029468	0.094493	-0.554065	-0.045500	-0.825841	-4.426034	-67.478710	-163.988121
26276		8.988365	-1.498064	3.340766	-0.594223	1.119222	-0.190326	1.092569	-0.106720	0.323768	-1.093994	0.154297	0.021729	0.089890	-0.015018	0.033374	0.098875	-0.554117	-0.049143	-0.825083	-4.274420	-67.533644	-163.474367
26277		9.688264	-1.349693	3.484517	-0.689930	0.929708	0.506500	1.058065	-0.168326	0.351636	-1.092041	0.163086	0.023193	0.096877	-0.013511	0.034855	0.103250	-0.554435	-0.052592	-0.824121	-4.188808	-67.623645	-162.911733
26278		10.345738	-0.955699	3.410280	-0.896322	0.457095	1.076083	0.979459	-0.216855	0.383031	-1.090088	0.167725	0.022949	0.103439	-0.009526	0.034168	0.107537	-0.554982	-0.055654	-0.823003	-4.201810	-67.739780	-162.290355
26279		10.138808	-0.585611	3.210762	-0.892360	0.073769	0.800774	0.890636	-0.248898	0.407862	-1.085449	0.165527	0.023193	0.101360	-0.005793	0.032208	0.111651	-0.555703	-0.058296	-0.821785	-4.305282	-67.873347	-161.628030
26280		9.675388	-0.447104	2.915303	-0.932923	-0.077492	0.258838	0.889916	-0.260196	0.383249	-1.085693	0.172363	0.031738	0.096724	-0.004416	0.029259	0.115673	-0.556444	-0.061010	-0.820529	-4.382627	-68.013423	-160.993711
26281		9.226125	-0.226499	2.818318	-0.779588	-0.260616	-0.198121	0.904252	-0.243706	0.324955	-1.083740	0.176758	0.040283	0.092230	-0.002243	0.028285	0.119481	-0.557083	-0.063933	-0.819326	-4.369211	-68.147113	-160.450254
26282		9.148434	-0.042563	2.879725	-0.625651	-0.410893	-0.250879	0.851791	-0.212846	0.268637	-1.088135	0.178955	0.029053	0.091454	-0.000426	0.028893	0.122930	-0.557604	-0.066777	-0.818234	-4.307751	-68.266890	-159.990862
26283		9.124253	0.116202	2.876688	-0.559288	-0.555422	-0.277515	0.776290	-0.122798	0.203741	-1.086426	0.190186	0.035156	0.091224	0.001143	0.028827	0.125920	-0.557762	-0.069437	-0.817450	-4.185628	-68.337095	-159.644150
26284		8.861377	0.262647	2.971390	-0.332556	-0.630963	-0.489950	0.702824	-0.050046	0.158870	-1.088867	0.192383	0.034912	0.088604	0.002592	0.029745	0.128563	-0.557646	-0.071875	-0.816906	-4.037448	-68.368002	-159.369682
26285		8.489767	0.337582	3.099249	-0.064840	-0.613603	-0.789676	0.644547	0.005214	0.150126	-1.091064	0.192139	0.032715	0.084896	0.003340	0.031001	0.131009	-0.557331	-0.074063	-0.816537	-3.900953	-68.367783	-159.119791
26286		8.260074	0.477146	3.181901	0.128915	-0.688067	-0.975781	0.609811	0.052814	0.139742	-1.084229	0.192383	0.030518	0.082606	0.004732	0.031812	0.133353	-0.556840	-0.076104	-0.816305	-3.769599	-68.341555	-158.884474
26287		7.892651	0.563532	3.203768	0.294664	-0.709764	-1.310627	0.526415	0.148228	0.101863	-1.084473	0.196777	0.025635	0.078947	0.005591	0.031994	0.135324	-0.555990	-0.077848	-0.816395	-3.617394	-68.261791	-158.724224
26288		7.311955	0.438718	3.180607	0.424987	-0.513969	-1.854759	0.453162	0.163630	0.052166	-1.086670	0.194580	0.014648	0.073144	0.004334	0.031756	0.136916	-0.555107	-0.079419	-0.816580	-3.439146	-68.175313	-158.635682
26289		7.028559	0.332922	3.173035	0.472637	-0.370118	-2.117284	0.404818	0.114166	0.022931	-1.084473	0.196777	0.014404	0.070303	0.003273	0.031697	0.138212	-0.554441	-0.080909	-0.816668	-3.246923	-68.118033	-158.593437
26290		6.795421	0.214500	3.328509	0.644594	-0.174022	-2.272334	0.357273	0.098173	0.016486	-1.086914	0.198975	0.020996	0.067970	0.002091	0.033255	0.139368	-0.553859	-0.082234	-0.816734	-3.077810	-68.068704	-158.553620
26291		6.343568	0.218033	3.430963	0.885656	-0.078528	-2.652426	0.324512	0.080718	0.020652	-1.082520	0.201172	0.016357	0.063449	0.002131	0.034288	0.140417	-0.553381	-0.083425	-0.816758	-2.931505	-68.030723	-158.511450
26292		6.193520	0.030555	3.342817	0.793250	0.100646	-2.820144	0.288885	0.079764	0.006107	-1.086914	0.198975	0.012207	0.061949	0.000259	0.033404	0.141336	-0.552924	-0.084509	-0.816797	-2.790625	-67.993608	-158.483618
26293		5.931531	-0.161303	3.392587	0.859371	0.340433	-3.040368	0.311478	0.059909	-0.006988	-1.084473	0.198975	0.009766	0.059325	-0.001668	0.033906	0.142226	-0.552526	-0.085737	-0.816784	-2.614423	-67.968368	-158.481732
26294		5.828574	-0.244427	3.451355	0.914760	0.460623	-3.112322	0.288514	-0.006000	-0.048033	-1.084473	0.198975	0.012207	0.058284	-0.002508	0.034512	0.142884	-0.552387	-0.087031	-0.816626	-2.401735	-67.980816	-158.531421
26295		6.044874	-0.457936	3.438173	0.755225	0.640854	-2.914124	0.259958	-0.045356	-0.069467	-1.086914	0.198975	0.012207	0.060439	-0.004645	0.034389	0.143331	-0.552426	-0.088296	-0.816385	-2.172935	-68.017274	-158.618100
26296		6.218171	-0.477825	3.531000	0.769880	0.676407	-2.719615	0.180173	-0.070337	-0.078193	-1.086670	0.198975	0.007568	0.062167	-0.004834	0.035328	0.143512	-0.552622	-0.089280	-0.816114	-1.977869	-68.068425	-158.717314
26297		6.530619	-0.635189	3.497607	0.582175	0.783376	-2.441589	0.138162	-0.089191	-0.067799	-1.088867	0.196533	0.012207	0.065288	-0.006398	0.035001	0.143610	-0.552926	-0.090074	-0.815803	-1.822283	-68.129733	-158.800235
26298		6.943564	-0.866561	3.447230	0.321893	0.940608	-2.075825	0.142502	-0.104227	-0.048029	-1.084229	0.192383	0.012451	0.069416	-0.008707	0.034502	0.143795	-0.553300	-0.090845	-0.815432	-1.692167	-68.199523	-158.852672
26299		7.094858	-0.921716	3.606610	0.396160	1.030946	-1.877046	0.151036	-0.107747	-0.032505	-1.086670	0.194580	0.016846	0.070928	-0.009256	0.036097	0.144063	-0.553686	-0.091608	-0.815037	-1.579356	-68.270738	-158.881515
26300		7.280007	-0.895787	3.713026	0.440309	1.022839	-1.667295	0.085206	-0.095324	-0.024084	-1.082031	0.192383	0.019287	0.072781	-0.008982	0.037161	0.144190	-0.554074	-0.092072	-0.814699	-1.515283	-68.334962	-158.898194
26301		7.462612	-0.767893	3.586994	0.316985	0.844305	-1.546284	-0.014335	-0.080484	-0.030352	-1.082031	0.190186	0.021729	0.074611	-0.007688	0.035901	0.144022	-0.554468	-0.092135	-0.814453	-1.498716	-68.390505	-158.925403
26302		7.754651	-0.641686	3.734079	0.396421	0.735228	-1.222460	-0.088188	-0.087865	-0.036948	-1.088867	0.192139	0.019287	0.077529	-0.006415	0.037378	0.143620	-0.554944	-0.091923	-0.814224	-1.514941	-68.450621	-158.962590
26303		8.274150	-0.734543	4.007952	0.438865	0.842077	-0.638644	-0.129094	-0.129193	-0.068290	-1.088867	0.194580	0.021484	0.082713	-0.007348	0.040138	0.142956	-0.555601	-0.091659	-0.813922	-1.510701	-68.534638	-159.047199
26304		9.031702	-0.730935	4.346678	0.494885	0.850982	0.188832	-0.148433	-0.181443	-0.113091	-1.088623	0.187744	0.023926	0.090273	-0.007328	0.043554	0.142034	-0.556465	-0.091479	-0.813514	-1.453424	-68.649451	-159.200397
26305		9.753046	-0.707982	4.654712	0.549828	0.842987	0.970470	-0.186345	-0.235137	-0.159323	-1.088623	0.185547	0.031006	0.097470	-0.007114	0.046668	0.140791	-0.557551	-0.091310	-0.813005	-1.350555	-68.795367	-159.425920
26306		10.125038	-0.748089	4.799416	0.566679	0.894484	1.367165	-0.205013	-0.292869	-0.174327	-1.081787	0.187988	0.032959	0.101173	-0.007520	0.048150	0.139410	-0.558876	-0.091149	-0.812351	-1.235494	-68.974584	-159.675538
26307		10.452506	-0.922760	4.717564	0.359298	1.013135	1.641836	-0.216101	-0.290594	-0.189380	-1.086182	0.181152	0.037842	0.104448	-0.009275	0.047337	0.137936	-0.560190	-0.090982	-0.811716	-1.101053	-69.152285	-159.952601
26308		10.826253	-1.160497	4.823658	0.281851	1.243627	2.027754	-0.222622	-0.244109	-0.179684	-1.088379	0.181152	0.040039	0.108193	-0.011648	0.048382	0.136505	-0.561322	-0.090729	-0.811204	-0.980434	-69.303200	-160.218419
26309		11.313375	-1.275990	4.919890	0.193031	1.337710	2.516106	-0.281141	-0.139193	-0.157625	-1.081299	0.172363	0.042969	0.113089	-0.012780	0.049296	0.135046	-0.562076	-0.090104	-0.810996	-0.922012	-69.393487	-160.453543
26310		11.589431	-1.390533	4.923291	0.081531	1.419209	2.775660	-0.343895	0.010730	-0.129710	-1.090332	0.174561	0.042725	0.115888	-0.013896	0.049251	0.133591	-0.562277	-0.089046	-0.811215	-0.937845	-69.397739	-160.647574
26311		11.437846	-1.525419	4.945120	0.107111	1.566137	2.642880	-0.300537	0.147633	-0.090959	-1.085693	0.172363	0.040771	0.114408	-0.015232	0.049390	0.132475	-0.561907	-0.087962	-0.811772	-0.984514	-69.323083	-160.782257
26312		11.906002	-1.416573	5.407678	0.380472	1.531808	3.245310	-0.213676	0.236856	-0.055967	-1.085693	0.174561	0.042725	0.119120	-0.014141	0.053951	0.131784	-0.561133	-0.087073	-0.812515	-1.032726	-69.197124	-160.862117
26313		13.446512	-1.396535	5.897879	0.278550	1.459510	4.861647	-0.161849	0.271045	-0.029339	-1.087891	0.172119	0.031738	0.134543	-0.013937	0.058808	0.131361	-0.560195	-0.086297	-0.813313	-1.090271	-69.051200	-160.900324
26314		14.082520	-1.217671	5.532165	-0.242644	1.089749	5.325288	-0.103546	0.333561	0.006179	-1.088135	0.174561	0.031494	0.140918	-0.012144	0.055093	0.131283	-0.558973	-0.085616	-0.814238	-1.167200	-68.868346	-160.881295
26315		12.976806	-0.904074	4.946068	-0.336271	0.731180	4.080852	-0.009112	0.425756	0.038282	-1.083496	0.174561	0.031494	0.129875	-0.009014	0.049185	0.131628	-0.557331	-0.085171	-0.815354	-1.231856	-68.633020	-160.818074
26316		12.090410	-0.579155	4.922792	-0.003133	0.499303	3.244791	0.078409	0.436022	0.047575	-1.087891	0.172119	0.027344	0.121012	-0.005782	0.048962	0.132271	-0.555588	-0.085047	-0.816452	-1.260736	-68.391219	-160.738626
26317		12.279394	-0.425473	5.128636	0.109418	0.372062	3.495836	0.141998	0.411346	0.025702	-1.087891	0.172119	0.018311	0.122900	-0.004275	0.051031	0.132977	-0.553895	-0.085261	-0.817464	-1.219346	-68.164288	-160.696153
26318		12.579354	0.063020	5.059535	0.045689	-0.161460	3.745138	0.137880	0.378509	0.012035	-1.087891	0.174316	0.018066	0.125889	0.000603	0.050358	0.133605	-0.552328	-0.085517	-0.818395	-1.162338	-67.956031	-160.672870
26319		12.133121	0.721369	4.542027	-0.090076	-0.890403	3.131884	0.105723	0.337725	-0.002359	-1.087891	0.172119	0.013672	0.121408	0.007188	0.045219	0.134064	-0.550944	-0.085709	-0.819232	-1.104492	-67.771622	-160.670477
26320		11.373067	1.215482	4.038876	-0.143754	-1.416176	2.233483	0.095543	0.312603	-0.037763	-1.092285	0.172119	0.007080	0.113796	0.012114	0.040217	0.134342	-0.549653	-0.085973	-0.820026	-1.005000	-67.601949	-160.719295
26321		10.774431	1.482815	3.663037	-0.210442	-1.703815	1.534450	0.106602	0.324607	-0.108216	-1.097168	0.176270	0.000000	0.107812	0.014750	0.036463	0.134364	-0.548274	-0.086468	-0.820893	-0.802177	-67.426016	-160.873257
