// General information: 
//  MT Manager version: 2019.2.0 
//  XDA version: 2019.2.0 build 3853 rev 94535 built on 2019-09-09
// Device information: 
//  DeviceId: 00B40AC5
//  ProductCode: MTW2-3A7G6
//  Firmware Version: 4.3.5
//  Hardware Version: 1.1.0
// Device settings: 
//  Filter Profile: human(46.1)
//  Option Flags: Orientation Smoother Disabled, AHS Disabled, ICC Disabled
// Coordinate system: ENU
PacketCounter	SampleTimeFine	Acc_X	Acc_Y	Acc_Z	FreeAcc_E	FreeAcc_N	FreeAcc_U	Gyr_X	Gyr_Y	Gyr_Z	Mag_X	Mag_Y	Mag_Z	VelInc_X	VelInc_Y	VelInc_Z	Quat_q0	Quat_q1	Quat_q2	Quat_q3	Roll	Pitch	Yaw
25778		5.215526	3.567543	8.372470	0.132193	0.641579	0.656224	-0.292927	0.077196	0.216858	-0.629395	-0.154785	-0.303467	0.052149	0.035855	0.083652	-0.022104	-0.270451	-0.203194	-0.940787	27.080492	-29.992732	169.925943
25779		5.577936	3.069507	8.218923	-0.288739	1.060744	0.525462	-0.233980	0.049031	0.168399	-0.631836	-0.150391	-0.299316	0.055774	0.030838	0.082140	-0.021538	-0.270584	-0.201823	-0.941057	26.888085	-30.038089	170.038192
25780		5.291432	3.288298	8.291480	0.008670	0.817810	0.526165	-0.157452	0.023047	0.117052	-0.636475	-0.145996	-0.294922	0.052905	0.032979	0.082883	-0.021175	-0.270661	-0.200884	-0.941244	26.756679	-30.066775	170.112823
25781		4.617463	3.528930	8.288930	0.605231	0.477965	0.281167	-0.101910	-0.029815	0.086934	-0.634277	-0.145996	-0.294922	0.046147	0.035352	0.082878	-0.020893	-0.271096	-0.200234	-0.941263	26.675297	-30.130974	170.153829
25782		4.919109	3.730052	8.143820	0.295284	0.271657	0.398665	-0.082125	-0.073599	0.090028	-0.636719	-0.141602	-0.288574	0.049144	0.037356	0.081441	-0.020652	-0.271609	-0.199676	-0.941239	26.609302	-30.202009	170.183921
25783		5.592949	3.940650	7.550193	-0.557369	-0.052157	0.360897	-0.088803	-0.098790	0.102868	-0.630371	-0.130371	-0.286621	0.055872	0.039469	0.075512	-0.020347	-0.272383	-0.199058	-0.941153	26.540622	-30.305309	170.214190
25784		5.878396	4.066719	7.431184	-0.840410	-0.183792	0.462338	-0.103161	-0.084726	0.115509	-0.632568	-0.130371	-0.282227	0.058729	0.040739	0.074316	-0.020025	-0.272971	-0.198365	-0.941136	26.456377	-30.388497	170.256389
25785		5.751416	3.938738	7.505585	-0.688702	-0.074213	0.407215	-0.113028	-0.051111	0.131191	-0.625977	-0.125977	-0.284668	0.057469	0.039468	0.075048	-0.019574	-0.273546	-0.197598	-0.941140	26.357911	-30.474489	170.317939
25786		4.991192	4.418404	7.608132	0.052059	-0.607714	0.284139	-0.129306	0.010493	0.147073	-0.625977	-0.123779	-0.275879	0.049883	0.044270	0.076050	-0.019045	-0.273714	-0.196748	-0.941280	26.234603	-30.516650	170.407408
25787		4.678692	4.240021	8.050823	0.542162	-0.351044	0.398408	-0.166178	0.041232	0.172075	-0.626465	-0.108154	-0.280762	0.046767	0.042507	0.080463	-0.018383	-0.273889	-0.195685	-0.941464	26.079244	-30.565166	170.520845
25788		5.058437	3.882695	7.954929	0.143907	-0.027820	0.381549	-0.188040	0.075969	0.188566	-0.619629	-0.112549	-0.287354	0.050578	0.038949	0.079493	-0.017675	-0.273783	-0.194507	-0.941752	25.899671	-30.583610	170.654562
25789		5.007388	3.923073	8.033007	0.232096	-0.072053	0.431068	-0.191755	0.080648	0.173797	-0.617676	-0.103516	-0.287598	0.050072	0.039351	0.080272	-0.017003	-0.273769	-0.193324	-0.942013	25.723017	-30.611401	170.780766
25790		5.404137	3.403221	7.849700	-0.240687	0.372110	0.297108	-0.173915	0.063877	0.165896	-0.615479	-0.103516	-0.291992	0.054038	0.034145	0.078450	-0.016394	-0.273698	-0.192241	-0.942265	25.560051	-30.629771	170.897583
25791		4.661545	3.532044	8.397302	0.687015	0.323360	0.392382	-0.120255	0.069591	0.130577	-0.606445	-0.103516	-0.291992	0.046622	0.035401	0.083936	-0.015839	-0.273698	-0.191452	-0.942435	25.438944	-30.651894	170.994832
25792		4.808618	3.620632	8.184873	0.458126	0.169401	0.335482	-0.095745	0.022462	0.123463	-0.608643	-0.105713	-0.298584	0.048073	0.036275	0.081826	-0.015363	-0.273788	-0.190793	-0.942551	25.339668	-30.680834	171.074433
25793		5.220031	3.567456	7.919243	-0.027890	0.165613	0.319522	-0.076517	0.002360	0.111064	-0.611328	-0.092285	-0.299072	0.052181	0.035734	0.079178	-0.014904	-0.274087	-0.190230	-0.942585	25.259102	-30.732441	171.140948
25794		5.829568	3.467901	7.396200	-0.821504	0.142612	0.188251	-0.064073	-0.009238	0.107255	-0.600098	-0.094482	-0.307861	0.058274	0.034734	0.073954	-0.014492	-0.274312	-0.189739	-0.942625	25.187387	-30.773656	171.201937
25795		5.878899	3.338013	7.309506	-0.912013	0.228049	0.099370	-0.041915	0.017934	0.093998	-0.609131	-0.092285	-0.308105	0.058780	0.033423	0.073083	-0.014052	-0.274524	-0.189364	-0.942646	25.129417	-30.812857	171.262767
25796		5.084632	3.513015	7.699718	-0.018768	0.089641	0.060105	-0.024571	0.044821	0.087343	-0.604736	-0.090088	-0.319092	0.050848	0.035162	0.076981	-0.013627	-0.274478	-0.189090	-0.942720	25.078528	-30.821075	171.327167
25797		4.385829	3.775594	8.286771	0.903851	-0.047301	0.254188	-0.023277	0.064051	0.087036	-0.606934	-0.094482	-0.319092	0.043868	0.037785	0.082849	-0.013151	-0.274467	-0.188815	-0.942785	25.026574	-30.834530	171.396931
25798		4.616875	3.902990	8.002123	0.568071	-0.242699	0.197369	-0.020295	0.060882	0.103014	-0.606689	-0.096680	-0.323486	0.046173	0.039062	0.080003	-0.012632	-0.274361	-0.188541	-0.942878	24.970922	-30.838100	171.475368
25799		5.000269	3.932257	7.927485	0.208206	-0.255759	0.346131	-0.012934	0.069419	0.126835	-0.611328	-0.094482	-0.330078	0.050005	0.039359	0.079255	-0.011950	-0.274359	-0.188260	-0.942944	24.911695	-30.857941	171.570752
25800		5.352247	3.187647	7.721315	-0.257513	0.400051	0.096903	0.018147	0.047753	0.146463	-0.611328	-0.096680	-0.327881	0.053518	0.031909	0.077203	-0.011185	-0.274358	-0.188106	-0.942984	24.866407	-30.878684	171.671844
25801		5.026829	3.403503	7.740266	0.051567	0.161286	0.022753	0.091494	0.047368	0.143568	-0.615967	-0.094482	-0.338867	0.050262	0.034036	0.077406	-0.010302	-0.274481	-0.188293	-0.942921	24.864803	-30.913781	171.771271
25802		4.699591	4.299753	7.620359	0.347789	-0.754591	0.084460	0.083718	0.017215	0.166484	-0.615723	-0.098877	-0.343262	0.046967	0.043005	0.076218	-0.009382	-0.274645	-0.188419	-0.942857	24.855113	-30.955178	171.876004
25803		4.703271	3.863918	8.009502	0.522340	-0.217368	0.231348	0.053851	-0.008303	0.213355	-0.620117	-0.099121	-0.338867	0.046988	0.038668	0.080107	-0.008274	-0.275092	-0.188330	-0.942755	24.817989	-31.035777	172.002235
25804		4.900168	4.031429	8.226494	0.497779	-0.280025	0.560983	0.057348	-0.067931	0.235091	-0.617676	-0.103516	-0.336426	0.048926	0.040348	0.082293	-0.007147	-0.275721	-0.188233	-0.942600	24.783663	-31.137855	172.124957
25805		5.108098	4.151737	7.780932	0.125021	-0.532096	0.364427	0.039378	-0.164193	0.255715	-0.626953	-0.096924	-0.343262	0.050964	0.041567	0.077859	-0.006007	-0.276939	-0.188011	-0.942295	24.746905	-31.309323	172.233606
25806		4.487552	4.006229	8.329484	0.957704	-0.285676	0.413229	0.022280	-0.278356	0.283671	-0.633789	-0.094727	-0.341309	0.044703	0.040116	0.083362	-0.004897	-0.278602	-0.187674	-0.941879	24.706931	-31.532419	172.327447
25807		4.811312	3.771721	8.389496	0.740737	-0.019106	0.541490	0.053037	-0.384519	0.304302	-0.638184	-0.101563	-0.341064	0.047894	0.037768	0.083997	-0.003717	-0.280899	-0.187441	-0.941248	24.693856	-31.829821	172.404528
25808		4.082878	3.666228	8.997748	1.722085	0.204183	0.582649	0.078833	-0.484788	0.322571	-0.644775	-0.099365	-0.338867	0.040551	0.036692	0.090090	-0.002539	-0.283568	-0.187309	-0.940478	24.703327	-32.169647	172.464688
25809		4.146787	2.746903	9.196971	1.755100	1.134402	0.432205	0.169008	-0.681109	0.391880	-0.651611	-0.099365	-0.338867	0.041100	0.027472	0.092133	-0.001061	-0.287334	-0.187489	-0.939301	24.771762	-32.642000	172.511956
25810		4.983155	2.967645	9.092730	1.118701	0.995505	0.867807	0.359906	-0.900766	0.399637	-0.662842	-0.097412	-0.327881	0.049362	0.029611	0.091204	0.000492	-0.292022	-0.188557	-0.937640	24.980786	-33.216781	172.499760
25811		5.498325	3.437296	9.495459	1.094476	0.783778	1.606432	0.458408	-1.158534	0.441145	-0.665039	-0.104004	-0.321045	0.054356	0.034275	0.095349	0.002171	-0.298053	-0.190009	-0.935444	25.275755	-33.948590	172.435339
25812		5.092921	3.377557	9.479860	1.575216	0.828530	1.324765	0.618833	-1.462021	0.507683	-0.678467	-0.099854	-0.307861	0.050148	0.033609	0.095271	0.004081	-0.305441	-0.192116	-0.932620	25.694163	-34.840151	172.315577
25813		4.466481	3.544995	9.736036	2.451468	0.752804	1.174851	0.810909	-1.796951	0.604656	-0.687500	-0.097900	-0.294678	0.043680	0.035187	0.097899	0.006446	-0.314555	-0.194948	-0.928983	26.254909	-35.940526	172.143646
25814		4.396543	4.013367	10.050179	2.998597	0.500150	1.465340	0.953852	-2.221597	0.723064	-0.703125	-0.100342	-0.279053	0.042700	0.039808	0.101171	0.009140	-0.325607	-0.198257	-0.924441	26.946732	-37.274387	171.893634
25815		4.471919	4.394237	10.639567	3.660714	0.462116	1.972121	1.027484	-2.721719	0.856988	-0.714600	-0.098145	-0.252441	0.043077	0.043580	0.107214	0.012106	-0.339130	-0.201658	-0.918792	27.752329	-38.907361	171.536389
25816		4.499105	4.709122	10.774930	4.159151	0.319480	2.065817	1.095636	-3.306235	1.029182	-0.737061	-0.092041	-0.217285	0.042958	0.046722	0.108727	0.015356	-0.355317	-0.205072	-0.911844	28.692010	-40.865532	171.044184
25817		4.182175	5.808101	10.919823	5.148942	-0.579799	2.170363	1.062565	-3.940256	1.296419	-0.752930	-0.087891	-0.181885	0.039281	0.057757	0.110296	0.019139	-0.374614	-0.207813	-0.903389	29.706943	-43.219822	170.432653
25818		3.704845	5.873839	11.612530	6.521374	-0.343819	2.036084	1.161438	-4.656418	1.591024	-0.764648	-0.074707	-0.135742	0.033862	0.058337	0.117278	0.023654	-0.397149	-0.210418	-0.892993	30.922694	-45.993235	169.644008
25819		3.148741	6.082070	13.217399	8.722107	0.110572	2.247775	1.182358	-5.423435	1.929547	-0.780762	-0.066162	-0.087402	0.027299	0.060312	0.133310	0.028923	-0.423232	-0.212361	-0.880307	32.353750	-49.238387	168.619698
25820		3.438305	5.622909	13.599078	9.470073	0.802701	1.932788	1.451851	-6.358616	2.317985	-0.790283	-0.046387	-0.030518	0.029383	0.055595	0.137383	0.035423	-0.453292	-0.214598	-0.864419	34.291713	-53.022451	167.195321
25821		4.195421	3.588171	14.120354	9.762055	3.073820	1.367227	1.909482	-7.469192	2.643363	-0.795410	-0.026855	0.041992	0.036169	0.035026	0.142964	0.043147	-0.487816	-0.217948	-0.844199	37.217533	-57.398203	164.962909
25822		3.698270	5.880743	13.101164	10.770337	0.697681	0.348766	2.569951	-8.476417	2.871846	-0.793945	-0.007080	0.127930	0.030536	0.057575	0.133142	0.052241	-0.525705	-0.223341	-0.819160	41.824883	-62.203423	161.335983
25823		11.991595	9.240376	15.654351	11.699717	0.241886	8.542314	2.354450	-9.122176	3.304163	-0.781738	0.028564	0.195313	0.111056	0.092395	0.162833	0.061718	-0.565575	-0.226346	-0.790622	48.178247	-67.257506	155.805240
25824		8.626065	9.543922	12.264004	11.633475	-1.829263	3.489884	1.952447	-9.062372	3.764916	-0.767090	0.061768	0.278564	0.078762	0.095742	0.127257	0.071771	-0.604407	-0.225892	-0.760601	56.918939	-72.147788	147.684496
25825		18.860337	4.785757	14.379087	10.702932	5.136842	11.258729	2.487988	-8.599361	3.737360	-0.739258	0.102051	0.334717	0.181261	0.049432	0.152300	0.083701	-0.639793	-0.226827	-0.729526	70.691382	-76.279188	134.862961
25826		22.159440	17.740622	10.816421	14.468828	-7.152063	15.910377	2.380811	-7.501988	4.037770	-0.708984	0.135498	0.402344	0.213657	0.180405	0.118416	0.097433	-0.670174	-0.225475	-0.700382	89.982601	-79.324673	116.532019
25827		18.524010	14.928787	11.377914	15.976125	-5.083980	10.535438	1.315190	-6.094484	4.395994	-0.676514	0.173584	0.432129	0.178312	0.152482	0.120280	0.110278	-0.695394	-0.218112	-0.675791	113.771397	-81.110252	93.165160
25828		14.841186	9.157544	8.528545	12.134971	-2.033339	5.197899	1.142863	-5.406943	4.066373	-0.650635	0.202637	0.466553	0.144130	0.094031	0.089754	0.122007	-0.717120	-0.210654	-0.653053	139.502972	-81.128625	67.790320
25829		7.869290	8.234705	15.180582	17.867590	0.775948	-3.468744	1.886594	-4.358617	2.825685	-0.629150	0.229492	0.492188	0.074189	0.081969	0.154230	0.133333	-0.732937	-0.209227	-0.633442	156.738404	-79.847083	51.410315
25830		29.030294	15.537011	24.722356	32.494001	1.900882	15.401787	2.169917	-1.808439	1.928907	-0.625244	0.247314	0.480469	0.286543	0.155432	0.251512	0.145460	-0.739193	-0.210174	-0.623107	165.492711	-79.215027	43.768812
25831		15.822552	19.781332	21.194082	30.055531	-4.929455	2.962204	1.644022	2.122512	0.812979	-0.636963	0.260498	0.455566	0.159673	0.196719	0.211871	0.156248	-0.732169	-0.210702	-0.628586	167.360733	-80.506866	42.822809
25832		-8.851060	14.996958	14.958326	19.423850	-6.332998	-20.280857	0.904590	3.026668	0.836568	-0.648438	0.269531	0.433105	-0.086851	0.148921	0.151581	0.165334	-0.722799	-0.208060	-0.637916	168.626139	-82.294112	42.063473
25833		-9.886304	11.407023	11.454890	14.688267	-4.773912	-20.791361	-0.035625	2.323453	1.735287	-0.651367	0.284912	0.406006	-0.098508	0.113235	0.115674	0.173084	-0.717119	-0.199726	-0.644897	175.058889	-83.759417	35.557121
25834		-5.944189	6.171939	9.622841	10.868532	-0.744517	-16.693391	-0.099522	1.686786	2.056489	-0.651855	0.298340	0.394287	-0.059258	0.061157	0.096698	0.181006	-0.713823	-0.190526	-0.649149	-173.125685	-84.701232	23.621216
25835		0.042470	5.723183	9.782167	11.299531	0.032958	-10.688086	0.282837	1.783335	1.681743	-0.647705	0.307373	0.371826	0.000817	0.057099	0.097896	0.189098	-0.709282	-0.183818	-0.653737	-159.268595	-85.477862	9.871420
25836		3.713524	7.175375	10.263764	12.717349	-0.896066	-6.969483	0.753217	2.464370	0.830909	-0.656738	0.313965	0.344971	0.038101	0.071525	0.102442	0.196714	-0.701281	-0.180959	-0.660880	-143.199756	-86.485732	-5.807117
25837		2.917232	9.783639	9.526586	13.337452	-3.465557	-7.559106	0.870921	3.327221	-0.067037	-0.661377	0.311768	0.316162	0.030789	0.097412	0.095187	0.202463	-0.689205	-0.180787	-0.671805	-113.027370	-87.747610	-35.519023
25838		1.646834	10.982283	8.317157	12.855006	-5.047526	-8.487933	0.469079	3.927065	-0.732520	-0.672363	0.307373	0.276367	0.018502	0.109563	0.083079	0.205110	-0.674808	-0.180848	-0.685461	-50.453454	-87.852804	-97.865347
25839		1.908472	9.954838	7.505704	11.556609	-4.625868	-7.786534	-0.117760	4.313696	-1.249564	-0.687744	0.293945	0.245850	0.021318	0.099464	0.074555	0.204205	-0.658765	-0.180218	-0.701321	-13.626178	-86.040909	-134.808325
25840		2.378645	7.291592	7.061214	9.630524	-2.687865	-6.863890	-0.485750	4.615184	-1.766954	-0.696289	0.282715	0.212891	0.026048	0.072863	0.069851	0.200490	-0.641357	-0.179541	-0.718492	0.419003	-83.519981	-149.191285
25841		2.554387	4.792018	6.876949	7.983117	-0.742599	-6.279867	-0.487669	4.845778	-2.320792	-0.704346	0.256104	0.178467	0.027753	0.047773	0.067998	0.194786	-0.622023	-0.180341	-0.736629	8.251372	-80.629733	-157.381409
25842		2.786839	3.520599	6.885990	7.092449	0.274100	-5.667628	-0.259843	4.981752	-2.833128	-0.714844	0.233887	0.136963	0.030067	0.034879	0.068084	0.187943	-0.601196	-0.183243	-0.754760	13.555979	-77.526423	-162.937240
25843		3.432573	3.289334	7.070676	6.723354	0.489442	-4.603833	-0.017383	5.061318	-3.242859	-0.718506	0.213867	0.104492	0.036627	0.032318	0.069796	0.180124	-0.578756	-0.188118	-0.772793	17.599963	-74.214218	-167.118325
25844		4.987876	3.699642	7.748531	6.692966	0.368977	-2.488603	0.112668	5.181937	-3.528674	-0.717285	0.174072	0.068115	0.052505	0.036042	0.076168	0.171591	-0.555110	-0.193976	-0.790432	20.633560	-70.755836	-170.234205
25845		6.568566	3.845133	8.313371	6.169902	0.444236	-0.392847	0.140296	5.409777	-3.702139	-0.723145	0.149658	0.022461	0.068598	0.037142	0.081331	0.162420	-0.529592	-0.200089	-0.808156	22.863194	-67.070209	-172.538937
25846		6.669800	3.172723	8.703225	5.480022	1.231830	0.122191	0.161656	5.653193	-3.787133	-0.726807	0.123047	-0.014160	0.069706	0.030357	0.085115	0.153099	-0.502608	-0.206033	-0.825528	24.440403	-63.242636	-174.178155
25847		6.349170	2.336917	9.050398	4.826964	2.164372	0.169873	0.263017	5.752069	-3.745093	-0.720947	0.087646	-0.050781	0.066480	0.022025	0.088650	0.144052	-0.474367	-0.212029	-0.842181	25.605317	-59.326894	-175.336464
25848		6.580757	2.118135	9.555902	4.287087	2.623641	0.854816	0.443472	5.713275	-3.586159	-0.717773	0.059082	-0.091797	0.068864	0.019756	0.093666	0.135971	-0.446006	-0.218135	-0.857326	26.496403	-55.493781	-176.096488
25849		7.918761	2.644233	10.592748	3.705289	2.671227	2.875016	0.629977	5.584519	-3.320888	-0.716797	0.030273	-0.132813	0.082525	0.024761	0.103734	0.129073	-0.417622	-0.224344	-0.870977	27.204866	-51.757028	-176.530720
25850		10.633931	3.767938	12.186651	2.631178	2.440638	6.399119	0.759955	5.451373	-3.004482	-0.707031	0.008301	-0.172119	0.110155	0.035588	0.119036	0.123623	-0.389907	-0.230268	-0.882988	27.741103	-48.201901	-176.667102
25851		13.906044	4.794505	13.629328	0.638513	2.195755	10.106377	0.826551	5.403475	-2.765994	-0.692627	-0.020264	-0.215332	0.143317	0.045429	0.132650	0.119099	-0.362006	-0.235871	-0.893942	28.163215	-44.701103	-176.599327
25852		17.144759	5.685876	14.582936	-2.068164	1.797822	13.236350	0.858261	5.413161	-2.663450	-0.669189	-0.048828	-0.251953	0.176045	0.053921	0.141341	0.115073	-0.334082	-0.241164	-0.903874	28.531863	-41.257098	-176.424222
25853		19.578551	6.562585	15.367129	-4.628514	1.336319	15.468153	0.871084	5.438350	-2.680811	-0.650391	-0.072998	-0.288818	0.200721	0.062303	0.148534	0.110832	-0.305447	-0.246340	-0.913091	28.908320	-37.763668	-176.234979
25854		22.441902	8.013196	15.602140	-7.882026	0.058390	17.553044	0.876379	5.561758	-2.806445	-0.624756	-0.096924	-0.318848	0.229735	0.076267	0.150021	0.106151	-0.276055	-0.251393	-0.921589	29.302553	-34.207418	-176.057665
25855		24.238443	10.252581	13.974702	-11.113255	-2.830310	17.684346	0.717544	5.754050	-3.045898	-0.597168	-0.112061	-0.347168	0.247795	0.098294	0.133027	0.100202	-0.245029	-0.255714	-0.929802	29.649139	-30.457683	-175.940657
25856		23.669285	9.074546	11.238583	-13.779638	-3.262993	14.021752	0.304911	5.680642	-3.488400	-0.583008	-0.134033	-0.373047	0.241291	0.086399	0.105709	0.091566	-0.213966	-0.258387	-0.937587	29.885831	-26.650202	-176.078129
25857		23.449144	7.358804	8.729346	-16.427900	-3.032842	10.209650	-0.033949	5.112939	-4.193345	-0.559570	-0.160400	-0.407471	0.238094	0.068635	0.081225	0.078356	-0.184347	-0.260231	-0.944540	30.150549	-22.894047	-176.759487
25858		26.480505	10.341530	6.433831	-20.544797	-6.636026	9.760862	-0.719489	4.315176	-4.958831	-0.550049	-0.180176	-0.424561	0.268564	0.097004	0.058213	0.059850	-0.157792	-0.259541	-0.950872	30.203790	-19.338469	-178.061879
25859		29.957668	10.152081	2.344122	-26.259102	-8.081753	6.023143	-1.940514	3.536475	-5.642794	-0.537842	-0.204346	-0.450195	0.302625	0.093197	0.017176	0.035989	-0.134047	-0.253550	-0.957313	29.661222	-15.956091	-179.944517
25860		29.654324	3.899562	-3.773974	-29.158370	-4.683790	-3.787373	-2.973119	2.787454	-6.021671	-0.532959	-0.219727	-0.469727	0.296957	0.029451	-0.042362	0.008693	-0.113612	-0.242655	-0.963398	28.529597	-12.892676	177.743137
25861		27.129793	-0.948193	-10.205325	-28.658599	-2.211849	-13.626886	-3.279151	2.009932	-5.644543	-0.520996	-0.241699	-0.490967	0.269813	-0.018812	-0.104513	-0.017958	-0.097115	-0.229836	-0.968205	27.127740	-10.358140	175.369458
25862		34.229650	-15.672500	-15.520855	-36.345019	10.616145	-24.786008	-2.183012	1.254008	-4.245444	-0.511230	-0.263916	-0.505859	0.337869	-0.165626	-0.155561	-0.038114	-0.086030	-0.221336	-0.970647	26.182923	-8.634841	173.491029
25863		33.564819	-25.443774	-16.384772	-34.685678	19.903516	-30.861900	0.851936	0.795917	-2.747499	-0.512695	-0.286133	-0.500488	0.331459	-0.258306	-0.166267	-0.050210	-0.079299	-0.226763	-0.969417	26.840503	-7.525996	172.271940
25864		33.742883	-11.877106	-16.165904	-35.209299	8.016945	-25.207509	2.676891	0.280916	-1.323468	-0.509766	-0.301514	-0.497803	0.336414	-0.118817	-0.163722	-0.055231	-0.077187	-0.240269	-0.966055	28.446939	-7.041790	171.668679
25865		34.195818	0.474194	-14.697839	-36.212283	-2.284354	-18.122418	1.555702	-0.229708	0.063834	-0.505127	-0.303711	-0.488770	0.342125	0.005992	-0.146542	-0.054588	-0.078893	-0.247645	-0.964089	29.338226	-7.185612	171.635379
25866		26.115927	-0.786453	-11.273261	-27.635917	-0.904158	-16.534000	-0.405896	-0.638684	1.213952	-0.526123	-0.286377	-0.480469	0.261560	-0.006505	-0.111884	-0.049679	-0.083450	-0.244989	-0.964649	29.045462	-7.854468	172.066170
25867		7.018393	-13.746232	-11.187968	-8.485921	7.791354	-24.999440	-0.075412	-2.083357	2.615675	-0.537842	-0.268799	-0.461182	0.073134	-0.136561	-0.111076	-0.039613	-0.096829	-0.242946	-0.964382	28.886887	-9.643271	172.806402
25868		4.275141	14.486474	23.784727	0.942503	-1.279629	18.315253	0.370924	-3.789649	2.638958	-0.556396	-0.253418	-0.435303	0.036320	0.144930	0.238845	-0.031296	-0.118441	-0.242602	-0.962360	29.043356	-12.285374	173.081167
25869		6.430646	22.035790	19.944965	-0.970101	-9.610325	19.020460	-0.450222	-2.682465	1.928889	-0.570557	-0.233643	-0.413818	0.059496	0.221397	0.199772	-0.025502	-0.133766	-0.238796	-0.961474	28.729185	-14.184551	173.311219
25870		9.675679	5.734218	2.439844	-8.472886	-2.895986	-2.582987	-0.823955	-2.861017	1.261290	-0.579834	-0.227295	-0.391846	0.096032	0.058053	0.025537	-0.023397	-0.148990	-0.233557	-0.960576	28.293380	-15.980107	173.156961
25871		10.194501	0.754018	7.564449	-7.257332	3.869511	-0.114539	-0.121478	-3.895591	0.751507	-0.591309	-0.214111	-0.363525	0.100417	0.007966	0.077606	-0.024395	-0.168707	-0.231881	-0.957692	28.431786	-18.169231	172.442316
25872		15.828147	-1.024549	17.812967	-8.613426	10.662565	9.705151	-0.016420	-3.352285	0.994610	-0.598389	-0.205322	-0.339355	0.155315	-0.009453	0.180750	-0.023525	-0.185970	-0.230480	-0.954851	28.563451	-20.139306	172.000789
25873		10.422164	-3.900359	12.532205	-5.073555	10.246705	2.440509	0.315031	-2.699785	1.278488	-0.600830	-0.200928	-0.317383	0.102765	-0.038542	0.126655	-0.020202	-0.200537	-0.230405	-0.951993	28.779570	-21.870477	171.892866
25874		11.118745	5.358951	9.502919	-5.998004	0.784951	4.541421	0.687587	-2.654414	1.141460	-0.605469	-0.198975	-0.308594	0.109605	0.053888	0.096676	-0.017132	-0.214620	-0.232200	-0.948540	29.239680	-23.527853	171.711635
25875		13.672895	9.736472	10.524564	-7.149292	-2.277192	8.522918	0.518245	-2.398147	0.754141	-0.605957	-0.185547	-0.298096	0.135084	0.097600	0.107125	-0.015742	-0.227093	-0.233567	-0.945319	29.667897	-24.960704	171.382282
25876		14.599072	7.416911	10.661044	-7.693496	0.012735	8.148375	0.051674	-1.813213	0.650381	-0.610352	-0.187988	-0.286865	0.144774	0.074613	0.107946	-0.014724	-0.236502	-0.232879	-0.943195	29.785917	-26.057795	171.168130
25877		10.778621	5.390006	9.061168	-4.928687	0.587523	4.424432	-0.040050	-1.098952	0.572195	-0.610352	-0.183594	-0.286865	0.107131	0.054225	0.091191	-0.013310	-0.242554	-0.231873	-0.941926	29.774232	-26.792692	171.135293
25878		6.702867	6.784641	7.156052	-1.950075	-2.063040	1.767851	-0.121835	-0.893261	0.429673	-0.605713	-0.187744	-0.286865	0.066562	0.068033	0.071817	-0.012468	-0.247334	-0.230676	-0.940988	29.722051	-27.369333	171.088190
25879		8.043389	4.528737	6.688704	-3.445023	-0.086562	1.053214	-0.184985	-0.827026	0.330255	-0.608154	-0.183350	-0.291504	0.080082	0.045482	0.067177	-0.012054	-0.251808	-0.229290	-0.940145	29.650540	-27.900943	171.007313
25880		8.547232	3.573011	7.855297	-3.334378	1.315962	1.792356	-0.095618	-0.509337	0.241779	-0.605957	-0.185547	-0.291260	0.085229	0.035871	0.078753	-0.011620	-0.254558	-0.228464	-0.939611	29.605567	-28.233237	170.978343
25881		6.327843	5.200513	7.783301	-1.229075	-0.491532	1.408470	-0.031995	-0.277418	0.170695	-0.603516	-0.185547	-0.295654	0.063126	0.052072	0.077912	-0.011131	-0.256276	-0.228026	-0.939257	29.581398	-28.446694	170.984277
25882		5.643039	6.255301	7.503572	-0.635050	-1.660518	1.328030	-0.082278	-0.249776	0.134293	-0.608154	-0.187744	-0.302246	0.056295	0.062622	0.075080	-0.010889	-0.257683	-0.227413	-0.939023	29.533353	-28.619277	170.978173
25883		5.789147	4.841456	7.645939	-0.799371	-0.328229	0.895605	-0.127115	-0.175052	0.116168	-0.612549	-0.187988	-0.306885	0.057796	0.048497	0.076479	-0.010663	-0.258851	-0.226605	-0.938900	29.453873	-28.766328	170.986255
25884		5.355021	4.398665	7.382109	-0.577441	-0.117513	0.295366	-0.108516	-0.106691	0.132062	-0.619141	-0.192383	-0.304443	0.053482	0.044062	0.073826	-0.010303	-0.259582	-0.225879	-0.938877	29.369052	-28.866880	171.025316
25885		5.437993	4.395282	7.362238	-0.641259	-0.128361	0.319691	-0.123149	-0.097342	0.138541	-0.617188	-0.183594	-0.306885	0.054314	0.044036	0.073622	-0.009878	-0.260411	-0.225064	-0.938848	29.273431	-28.981375	171.071506
25886		5.159138	3.887726	8.090080	-0.077091	0.575745	0.523804	-0.116566	-0.074213	0.157044	-0.621582	-0.185791	-0.309082	0.051531	0.038965	0.080897	-0.009375	-0.261016	-0.224269	-0.938875	29.171677	-29.072561	171.135700
25887		4.343836	3.715971	8.252478	0.706398	0.671944	0.178820	-0.076288	-0.076179	0.136218	-0.621582	-0.183594	-0.313721	0.043382	0.037221	0.082527	-0.008877	-0.261744	-0.223677	-0.938818	29.099812	-29.175630	171.187811
25888		4.674704	3.938304	8.275941	0.470084	0.514038	0.452256	-0.038180	-0.107546	0.155003	-0.625977	-0.185791	-0.309082	0.046672	0.039435	0.082777	-0.008318	-0.262506	-0.223250	-0.938712	29.048343	-29.282794	171.240597
25889		5.347769	3.984101	8.030998	-0.208284	0.452527	0.614223	0.007886	-0.084077	0.107298	-0.628418	-0.183594	-0.309082	0.053423	0.039867	0.080334	-0.007855	-0.263239	-0.223089	-0.938549	29.033556	-29.381428	171.273948
25890		5.262282	4.474511	7.533158	-0.317286	-0.210973	0.400840	0.021308	-0.091394	0.110823	-0.633057	-0.181396	-0.298096	0.052564	0.044766	0.075360	-0.007407	-0.263878	-0.223000	-0.938395	29.025868	-29.468181	171.306676
25891		5.565709	4.312247	7.129451	-0.777887	-0.197253	0.175186	-0.000166	-0.110419	0.112673	-0.630615	-0.181396	-0.300293	0.055593	0.043154	0.071325	-0.006959	-0.264740	-0.222793	-0.938204	29.008894	-29.581412	171.334830
25892		5.396969	4.325623	7.401194	-0.479445	-0.124851	0.305143	-0.006835	-0.100146	0.123043	-0.639893	-0.179443	-0.302734	0.053906	0.043292	0.074037	-0.006501	-0.265432	-0.222554	-0.938069	28.982818	-29.675929	171.371931
25893		4.973521	4.485720	7.830237	0.134497	-0.154154	0.489173	-0.013225	-0.081379	0.133007	-0.639893	-0.175049	-0.291748	0.049673	0.044895	0.078320	-0.005942	-0.266180	-0.222260	-0.937930	28.947819	-29.780220	171.421234
25894		5.342301	4.074929	7.490539	-0.382164	0.114309	0.241878	-0.032114	-0.074967	0.140551	-0.639893	-0.175049	-0.293945	0.053366	0.040799	0.074919	-0.005408	-0.266772	-0.221880	-0.937855	28.898011	-29.866920	171.476708
25895		5.004285	4.205476	7.488786	-0.062560	-0.058256	0.127307	-0.039644	-0.068168	0.148802	-0.640137	-0.168213	-0.289795	0.049986	0.042107	0.074897	-0.004796	-0.267473	-0.221441	-0.937763	28.840909	-29.968760	171.539643
25896		5.094247	4.405743	7.491910	-0.101815	-0.239082	0.258216	-0.070840	-0.075726	0.178893	-0.637939	-0.168213	-0.287598	0.050875	0.044129	0.074923	-0.004135	-0.268110	-0.220828	-0.937729	28.757587	-30.066321	171.617433
25897		4.619207	4.652711	7.911194	0.560827	-0.366355	0.440264	-0.098041	-0.041738	0.198147	-0.633789	-0.154785	-0.290283	0.046129	0.046612	0.079099	-0.003341	-0.268738	-0.220049	-0.937735	28.648015	-30.168163	171.717852
25898		4.614324	4.364387	7.675924	0.426037	-0.224390	0.138582	-0.138788	-0.019784	0.233030	-0.631592	-0.154785	-0.285889	0.046085	0.043751	0.076733	-0.002455	-0.269170	-0.219045	-0.937849	28.500449	-30.252145	171.845498
25899		5.088554	3.910846	7.628015	-0.043207	0.197597	0.153944	-0.169012	0.036064	0.262439	-0.638672	-0.148193	-0.283936	0.050848	0.039240	0.076238	-0.001372	-0.269500	-0.217847	-0.938035	28.318263	-30.331581	172.008682
25900		5.454745	3.833811	7.402996	-0.473733	0.189845	0.136995	-0.163535	0.080465	0.281113	-0.620850	-0.145752	-0.281738	0.054523	0.038475	0.073977	-0.000185	-0.269513	-0.216662	-0.938307	28.125721	-30.377301	172.196720
25901		5.023459	3.967631	7.652971	0.042883	0.089211	0.164052	-0.166250	0.089761	0.279544	-0.621094	-0.134766	-0.286621	0.050213	0.039810	0.076474	0.001041	-0.269608	-0.215452	-0.938558	27.930772	-30.433172	172.387458
25902		4.997960	3.773505	7.899850	0.174726	0.334782	0.261235	-0.160460	-0.050801	0.225570	-0.620850	-0.143555	-0.283936	0.049917	0.037855	0.078981	0.001830	-0.270175	-0.214356	-0.938645	27.776583	-30.529477	172.502654
25903		5.336977	3.254679	8.210569	-0.002568	0.948123	0.463047	-0.087967	-0.075468	0.174650	-0.616699	-0.132568	-0.288818	0.053310	0.032629	0.082111	0.002491	-0.270929	-0.213655	-0.938586	27.683002	-30.640157	172.581090
25904		4.911869	3.912856	8.017591	0.356889	0.211915	0.363086	-0.028860	-0.092955	0.156444	-0.607910	-0.130127	-0.288818	0.049051	0.039179	0.080193	0.003088	-0.271618	-0.213269	-0.938472	27.631006	-30.739128	172.643086
25905		5.264997	3.863899	7.775079	-0.053815	0.188100	0.339330	-0.020675	-0.108586	0.147519	-0.610107	-0.130127	-0.293457	0.052579	0.038686	0.077775	0.003677	-0.272496	-0.212919	-0.938295	27.588762	-30.859106	172.695764
25906		4.946415	4.034219	7.450146	0.090115	-0.139945	-0.003564	-0.002312	-0.107155	0.150855	-0.607910	-0.130127	-0.295654	0.049394	0.040380	0.074527	0.004269	-0.273245	-0.212666	-0.938132	27.555565	-30.963729	172.750376
25907		5.139582	4.466273	7.457368	0.003353	-0.518688	0.272260	-0.037665	-0.100496	0.171177	-0.607666	-0.132324	-0.308838	0.051320	0.044721	0.074591	0.004954	-0.274108	-0.212203	-0.937982	27.494692	-31.085645	172.819901
25908		4.906294	4.168847	7.790413	0.350301	-0.153423	0.286582	-0.080092	-0.051781	0.186907	-0.607910	-0.127930	-0.304443	0.049004	0.041765	0.077900	0.005668	-0.274637	-0.211533	-0.937975	27.396646	-31.171528	172.913405
25909		5.000856	4.639928	7.496076	0.193540	-0.709701	0.296095	-0.128680	-0.014022	0.211902	-0.605713	-0.127930	-0.308838	0.049954	0.046500	0.074934	0.006509	-0.275137	-0.210586	-0.938036	27.256820	-31.259735	173.034306
25910		5.196958	4.319528	7.675305	0.087616	-0.350886	0.407202	-0.170799	0.013382	0.226481	-0.612549	-0.121338	-0.311523	0.051926	0.043320	0.076713	0.007352	-0.275404	-0.209433	-0.938209	27.083619	-31.322370	173.172010
25911		5.430634	4.117667	7.377009	-0.280163	-0.289993	0.222479	-0.183012	0.036984	0.232794	-0.614746	-0.123535	-0.315674	0.054272	0.041307	0.073722	0.008269	-0.275687	-0.208200	-0.938393	26.897540	-31.389170	173.321564
25912		5.419472	4.049993	7.513766	-0.203746	-0.205887	0.294034	-0.211410	0.049649	0.244382	-0.612793	-0.116699	-0.322754	0.054164	0.040646	0.075081	0.009178	-0.275802	-0.206830	-0.938653	26.689165	-31.437105	173.481630
25913		4.906252	4.154994	8.183521	0.597271	-0.120841	0.576436	-0.206516	0.049034	0.255065	-0.610596	-0.116699	-0.331543	0.049029	0.041697	0.081780	0.010179	-0.276051	-0.205455	-0.938872	26.480154	-31.502448	173.648797
25914		4.608163	4.466605	8.230109	0.924138	-0.447900	0.573153	-0.197573	-0.013567	0.267443	-0.612793	-0.116699	-0.327148	0.046016	0.044809	0.082260	0.011150	-0.276484	-0.204120	-0.939025	26.281678	-31.587718	173.804495
25915		4.622276	4.612767	8.093880	0.882440	-0.666016	0.528084	-0.202709	-0.113539	0.316863	-0.621826	-0.116943	-0.335938	0.046104	0.046283	0.080918	0.012278	-0.277555	-0.202685	-0.939006	26.079661	-31.750935	173.961484
25916		5.234231	3.249478	8.525304	0.430919	0.776023	0.668202	-0.160662	-0.206628	0.310699	-0.621826	-0.116943	-0.333740	0.052204	0.032644	0.085281	0.013307	-0.278935	-0.201473	-0.938844	25.917295	-31.945603	174.087499
25917		5.302445	2.831582	8.410347	0.296699	1.099438	0.462076	-0.054232	-0.337410	0.273095	-0.624023	-0.119141	-0.335938	0.052844	0.028411	0.084185	0.014209	-0.280997	-0.200808	-0.938358	25.847677	-32.212282	174.153433
25918		3.927685	2.711923	9.063798	1.829352	1.337073	0.177262	0.126666	-0.511987	0.275220	-0.633057	-0.114746	-0.333740	0.039007	0.027116	0.090755	0.015167	-0.283751	-0.201012	-0.937470	25.908314	-32.555266	174.168592
25919		4.862645	2.536818	9.056039	1.094555	1.585030	0.597958	0.235213	-0.808524	0.292807	-0.639648	-0.119385	-0.324707	0.048223	0.025332	0.090786	0.016097	-0.288011	-0.201705	-0.936005	26.073180	-33.069260	174.106042
25920		4.775771	3.231873	9.017214	1.351581	0.952606	0.762174	0.459460	-1.006626	0.295445	-0.644287	-0.119385	-0.320313	0.047255	0.032181	0.090485	0.017128	-0.293063	-0.203469	-0.934035	26.401277	-33.671648	173.981217
25921		5.144000	3.971487	9.119550	1.351017	0.392208	1.296695	0.546706	-1.297493	0.345533	-0.662109	-0.121826	-0.307129	0.050778	0.039553	0.091635	0.018258	-0.299612	-0.205565	-0.931473	26.816159	-34.448656	173.792584
25922		5.893764	2.888520	9.072255	0.711449	1.487804	1.262638	0.650656	-1.612429	0.413689	-0.664063	-0.126465	-0.295654	0.058144	0.028710	0.091287	0.019503	-0.307561	-0.208076	-0.928294	27.332234	-35.389357	173.535637
25923		5.037546	3.310328	9.232927	1.771340	1.160229	1.008293	0.862722	-1.927583	0.460992	-0.670898	-0.126465	-0.284668	0.049406	0.032818	0.092951	0.020998	-0.317073	-0.211489	-0.924282	28.025204	-36.513379	173.190330
25924		3.693550	3.986332	10.459449	3.914020	1.008196	1.259318	1.051586	-2.329865	0.543577	-0.695557	-0.126953	-0.258057	0.035605	0.039409	0.105222	0.022712	-0.328362	-0.215675	-0.919319	28.899952	-37.845544	172.733609
25925		2.843450	5.041857	11.158350	5.492258	0.368307	1.487810	1.165164	-2.786105	0.677745	-0.706787	-0.124756	-0.233643	0.026704	0.049858	0.112255	0.024768	-0.341906	-0.220148	-0.913248	29.920288	-39.449305	172.162252
25926		3.071415	6.347147	10.798053	5.721184	-0.815642	1.715657	1.183705	-3.328952	0.890472	-0.724854	-0.125244	-0.202637	0.028626	0.062960	0.108842	0.027187	-0.357967	-0.224367	-0.905969	31.045731	-41.361965	171.466606
25927		4.311215	6.522142	10.224503	4.928721	-0.960758	2.037408	1.234538	-3.966569	1.203174	-0.736328	-0.116455	-0.169678	0.040677	0.064835	0.103469	0.030421	-0.377197	-0.228233	-0.897055	32.306673	-43.679036	170.641860
25928		4.109653	6.488525	10.885194	6.046584	-0.556355	2.043557	1.228234	-4.594342	1.537853	-0.750244	-0.103516	-0.125977	0.038079	0.064512	0.110147	0.034378	-0.399334	-0.231429	-0.886448	33.704822	-46.376634	169.655358
25929		3.663027	7.765046	12.403138	8.375915	-0.966928	2.693135	1.441211	-5.420361	1.901201	-0.766113	-0.094971	-0.083984	0.032507	0.077072	0.125507	0.039419	-0.425282	-0.234793	-0.873186	35.491195	-49.571089	168.357941
25930		3.907526	6.483477	12.052674	8.388023	0.163344	1.680958	1.497956	-6.380879	2.379425	-0.780273	-0.075195	-0.018311	0.034427	0.064352	0.122158	0.045469	-0.455455	-0.237348	-0.856831	37.712308	-53.329176	166.611850
25931		6.039209	6.463065	14.278606	9.767507	1.595815	3.752852	1.716200	-7.192982	2.826978	-0.781250	-0.051025	0.042969	0.054285	0.064187	0.145364	0.052933	-0.488999	-0.239655	-0.837045	40.655761	-57.564819	164.229767
25932		6.267440	8.337099	12.379517	9.849937	-0.751653	3.004660	1.779468	-8.037993	3.298947	-0.777344	-0.031250	0.117676	0.056241	0.083214	0.126883	0.061393	-0.525707	-0.240888	-0.813533	44.667806	-62.243786	160.770481
25933		12.541988	11.061661	14.207779	10.977224	-1.261136	9.137660	1.364314	-8.008600	3.714852	-0.776611	0.010742	0.187012	0.117510	0.111854	0.147650	0.070389	-0.561907	-0.238837	-0.788836	49.480708	-66.944861	156.308302
25934		10.089244	6.188463	13.004289	10.475080	2.075616	4.149727	1.059537	-8.198528	4.048419	-0.759521	0.039795	0.250488	0.094173	0.063132	0.134328	0.079450	-0.598171	-0.234237	-0.762241	56.316745	-71.644700	149.652136
25935		16.969877	8.191567	13.564775	11.429584	1.661231	10.320467	1.634002	-7.652659	3.965095	-0.738525	0.082031	0.317627	0.162676	0.084041	0.142644	0.090407	-0.630827	-0.231368	-0.735087	66.767929	-75.756799	139.743631
25936		19.096430	15.313212	12.197527	14.660389	-4.914697	12.736118	1.187574	-6.989341	4.266228	-0.712646	0.113281	0.367676	0.183215	0.156342	0.129392	0.101649	-0.660436	-0.225203	-0.709066	81.939000	-79.225205	124.907731
25937		15.004198	11.349069	11.384244	14.144481	-2.613452	6.813223	0.618813	-5.896520	4.174407	-0.691650	0.153320	0.408447	0.144187	0.116179	0.118508	0.111773	-0.685346	-0.216417	-0.686274	102.948106	-81.512734	103.964486
25938		12.299038	5.886924	10.037007	11.568664	1.041250	2.501802	0.773311	-5.379030	3.534953	-0.667725	0.180420	0.438477	0.119167	0.060601	0.103842	0.120652	-0.706899	-0.209816	-0.664616	128.917691	-81.997463	78.176769
25939		12.029072	11.713857	22.328580	25.785759	1.458546	0.831894	1.671765	-3.828674	2.129867	-0.643555	0.193848	0.458008	0.114732	0.116496	0.226493	0.129568	-0.720690	-0.210057	-0.647838	146.086212	-81.194705	61.788623
25940		28.879974	18.759604	25.360796	33.396687	-0.831897	16.890964	1.424302	-0.688250	1.053964	-0.650635	0.200439	0.448730	0.286934	0.187294	0.255932	0.137364	-0.723136	-0.211276	-0.643092	151.596231	-81.163242	57.034697
25941		2.006564	20.193090	20.964084	28.201040	-7.433053	-8.967780	0.441714	2.394267	0.287382	-0.662109	0.207031	0.428711	0.022287	0.201499	0.209828	0.142369	-0.715381	-0.209968	-0.651056	148.037445	-82.433502	60.880215
25942		-11.686575	14.215449	14.296312	18.703975	-6.853375	-21.905059	-0.598299	2.273222	0.752968	-0.677979	0.211426	0.410645	-0.115769	0.142147	0.143858	0.145035	-0.709210	-0.203661	-0.659172	144.776618	-83.751471	63.815512
25943		-9.220392	7.963283	11.796208	13.743206	-2.260984	-19.486960	-1.144633	1.588534	1.388337	-0.673828	0.220215	0.403809	-0.091818	0.079671	0.118236	0.147105	-0.706134	-0.193787	-0.664967	145.370102	-84.955074	62.554152
25944		-3.353631	4.782650	11.447295	12.221881	0.835282	-13.697044	-0.775174	1.327878	1.298402	-0.671631	0.224854	0.383545	-0.033088	0.048055	0.114508	0.149945	-0.703579	-0.185607	-0.669360	147.550212	-85.994422	59.917963
25945		2.058181	5.663028	12.158195	13.450852	0.677066	-8.157308	-0.097150	1.924798	0.584263	-0.678711	0.231445	0.367920	0.021585	0.056751	0.121350	0.153280	-0.697665	-0.181767	-0.675817	141.195315	-87.090716	66.222698
25946		3.615042	8.322309	11.821949	14.354463	-1.764094	-6.219228	0.392988	2.935578	-0.299722	-0.691895	0.224609	0.339355	0.038006	0.082935	0.117834	0.156272	-0.687164	-0.181840	-0.685798	106.891893	-87.925168	100.777360
25947		1.613045	10.957947	10.066585	13.962004	-4.948969	-7.676241	0.272310	3.863499	-0.940430	-0.696045	0.215820	0.310791	0.018587	0.109359	0.100472	0.157402	-0.672640	-0.182949	-0.699507	57.488663	-86.995646	150.372651
25948		0.855222	11.167240	8.433661	12.574379	-5.919445	-7.972060	-0.337887	4.432930	-1.258281	-0.706787	0.202393	0.275635	0.011118	0.111750	0.083920	0.155862	-0.656144	-0.182431	-0.715473	37.979133	-84.730784	169.730515
25949		1.236988	8.896830	7.380050	10.434290	-4.466216	-7.301548	-0.894780	4.799851	-1.492304	-0.719971	0.191406	0.233887	0.014794	0.089192	0.073066	0.151843	-0.638003	-0.180336	-0.733058	30.305530	-81.952630	176.932689
25950		1.645539	5.897314	6.902531	8.428293	-2.118172	-6.716062	-1.054007	5.054904	-1.804833	-0.721436	0.171387	0.201416	0.018721	0.059172	0.068260	0.146353	-0.618486	-0.178294	-0.751177	26.869188	-78.923898	179.799999
25951		2.067574	3.868787	6.769434	7.137063	-0.452795	-6.083420	-0.817957	5.203427	-2.172716	-0.729736	0.151367	0.162109	0.022845	0.038722	0.066960	0.140166	-0.597243	-0.178076	-0.769378	25.528810	-75.680671	-179.311422
25952		3.045431	3.186202	7.093625	6.630952	0.246089	-4.743562	-0.405630	5.277284	-2.523915	-0.729248	0.135986	0.125000	0.032710	0.031601	0.070029	0.133874	-0.574802	-0.180245	-0.786888	25.323219	-72.339244	-179.343347
25953		4.653915	3.624901	7.648061	6.431193	0.072642	-2.608711	-0.039117	5.408122	-2.819278	-0.739502	0.109375	0.088379	0.049089	0.035584	0.075169	0.127403	-0.550617	-0.184502	-0.804082	25.661160	-68.827174	-179.729591
25954		5.822710	4.381071	8.160518	6.244620	-0.369254	-0.839398	0.162222	5.588351	-3.014782	-0.738525	0.080566	0.047119	0.061128	0.042838	0.079959	0.120812	-0.525071	-0.189768	-0.820788	26.120311	-65.202615	179.868709
25955		6.655629	4.474778	8.587077	5.656223	-0.230920	0.481175	0.235729	5.762560	-3.077016	-0.738037	0.065186	0.001221	0.069670	0.043592	0.083945	0.114126	-0.497940	-0.195242	-0.837205	26.492414	-61.440329	179.599243
25956		6.824331	4.067477	8.865520	4.946736	0.297514	1.008729	0.299744	5.864266	-3.029772	-0.732666	0.034180	-0.033203	0.071408	0.039478	0.086652	0.107846	-0.470078	-0.200553	-0.852745	26.741715	-57.668911	179.504970
25957		7.449105	3.814024	9.488302	4.241176	0.845943	2.074460	0.435775	5.826842	-2.848387	-0.729248	0.005615	-0.085449	0.077745	0.036845	0.092731	0.102429	-0.441742	-0.205866	-0.867174	26.919009	-53.930954	179.588118
25958		9.550886	3.970453	10.682080	3.079060	1.296677	4.673686	0.651153	5.729913	-2.605135	-0.726318	-0.016602	-0.120117	0.099022	0.038088	0.104143	0.098414	-0.413751	-0.211372	-0.880027	27.083394	-50.338347	179.847664
25959		12.133982	4.454408	11.844356	1.387843	1.450121	7.601002	0.899580	5.675049	-2.379418	-0.716797	-0.034180	-0.175049	0.125152	0.042547	0.115122	0.095671	-0.385459	-0.217364	-0.891640	27.290607	-46.800313	-179.745698
25960		13.592735	5.239608	12.621684	0.036333	1.164911	9.424031	1.111661	5.575412	-2.225484	-0.697754	-0.062500	-0.211670	0.139946	0.050165	0.122635	0.093903	-0.357563	-0.223807	-0.901799	27.583761	-43.387811	-179.265653
25961		16.828547	6.117250	14.208287	-2.321279	1.177621	12.893562	1.294195	5.348061	-2.154821	-0.670410	-0.077637	-0.250977	0.172650	0.058426	0.137889	0.092360	-0.330108	-0.230890	-0.910598	28.025207	-40.078827	-178.819090
25962		22.136180	8.024937	15.466805	-6.533327	0.117663	17.586258	1.484431	5.435432	-2.317862	-0.649170	-0.106201	-0.289795	0.226367	0.076524	0.149138	0.090488	-0.301938	-0.238824	-0.918482	28.628584	-36.717506	-178.427121
25963		23.511684	11.234194	14.604955	-8.779861	-3.040481	18.572149	1.414057	5.783016	-2.565549	-0.621826	-0.119141	-0.326904	0.240629	0.108275	0.139919	0.087616	-0.271361	-0.246451	-0.926255	29.219073	-33.085202	-178.046977
25964		22.385919	12.232064	11.743997	-10.537229	-5.276390	15.673524	0.970025	5.872374	-2.802739	-0.600830	-0.138672	-0.350586	0.228868	0.118586	0.111349	0.083140	-0.240234	-0.252008	-0.933738	29.618254	-29.375809	-177.752083
25965		21.448129	7.610465	9.163585	-13.507008	-2.573205	10.501146	0.532179	5.468774	-3.259458	-0.580078	-0.151855	-0.383545	0.218082	0.072336	0.085901	0.075332	-0.210114	-0.256013	-0.940550	29.958083	-25.710108	-177.829533
25966		22.798366	4.786127	7.522513	-17.195474	-0.889544	7.582421	0.514688	4.742538	-4.047569	-0.570068	-0.184814	-0.404541	0.230587	0.043027	0.069892	0.062875	-0.182428	-0.260743	-0.945928	30.532180	-22.204664	-178.525967
25967		25.668524	8.569221	5.692916	-20.722917	-4.749114	7.864290	0.000333	3.955457	-4.782112	-0.553467	-0.206787	-0.421387	0.259694	0.079506	0.051813	0.045317	-0.157290	-0.263739	-0.950604	30.980643	-18.841141	-179.806833
25968		27.342263	7.424739	2.526294	-24.392163	-4.777366	4.008954	-1.241992	3.222916	-5.362521	-0.541504	-0.226563	-0.436279	0.275639	0.067013	0.020401	0.023085	-0.135195	-0.261157	-0.955503	30.790655	-15.689067	178.422791
25969		25.417512	2.328824	-3.157350	-25.151437	-2.454909	-5.059264	-2.392814	2.501875	-5.577086	-0.533936	-0.250977	-0.457520	0.254262	0.015793	-0.034973	-0.001969	-0.116099	-0.253068	-0.960455	29.936009	-12.827634	176.322193
25970		27.192797	-2.069738	-8.769331	-28.488238	-0.180883	-12.778501	-2.883294	1.797554	-4.822652	-0.526611	-0.268555	-0.483398	0.270503	-0.028516	-0.089755	-0.024520	-0.101376	-0.241895	-0.964681	28.675088	-10.587041	174.374775
25971		32.806556	-15.840871	-12.753354	-34.425375	11.743305	-22.721881	-1.751697	1.443357	-3.360274	-0.519531	-0.277344	-0.496338	0.324405	-0.165002	-0.128458	-0.039893	-0.090100	-0.235272	-0.966922	27.895311	-8.943911	173.049363
25972		30.848470	-20.692105	-13.668673	-31.930439	15.951764	-26.916442	0.947067	1.206945	-1.981797	-0.514404	-0.299316	-0.495605	0.305582	-0.209302	-0.139524	-0.047618	-0.082203	-0.240928	-0.965882	28.533550	-7.807887	172.367003
25973		30.402268	-10.391279	-13.646373	-31.745617	6.713953	-22.681789	2.567582	0.772949	-0.768605	-0.504883	-0.314941	-0.495117	0.303091	-0.103305	-0.138965	-0.049343	-0.078201	-0.253772	-0.962834	30.023679	-7.212271	172.196083
25974		30.255219	-1.381099	-12.818766	-31.918194	-1.059768	-17.667773	1.961433	0.209291	0.263864	-0.515869	-0.321777	-0.481445	0.302435	-0.012152	-0.128629	-0.047032	-0.078096	-0.263112	-0.960448	31.119754	-7.196027	172.386869
25975		27.770516	-0.030899	-10.850963	-29.224954	-1.834256	-15.422759	0.415696	-0.455688	1.023294	-0.511719	-0.310547	-0.481934	0.277947	0.001337	-0.107875	-0.042540	-0.081846	-0.264563	-0.959947	31.307246	-7.737013	172.754122
25976		16.681349	5.906098	-5.309618	-17.550012	-5.696241	-8.873290	-0.942543	-1.520656	1.845676	-0.535156	-0.284180	-0.462891	0.166659	0.060352	-0.052111	-0.036071	-0.091466	-0.258900	-0.960887	30.696165	-9.038597	173.214759
25977		-8.845893	-1.464549	-0.363710	8.590368	0.110452	-12.403231	-0.933613	-2.660896	2.780142	-0.547119	-0.257813	-0.437256	-0.088186	-0.015893	-0.004739	-0.026552	-0.107829	-0.252588	-0.961180	30.052487	-11.178835	173.825568
25978		9.160746	13.571522	21.997353	-3.467518	-0.493214	17.382918	-0.954209	-3.620800	2.318458	-0.568115	-0.240234	-0.420166	0.086024	0.137787	0.220911	-0.020486	-0.128091	-0.246173	-0.960506	29.475104	-13.649288	173.950004
25979		7.373393	8.994165	11.577217	-3.686958	-1.845971	6.070168	-1.409865	-3.175762	1.431290	-0.577637	-0.222656	-0.398682	0.071240	0.091276	0.116276	-0.018398	-0.145097	-0.238091	-0.960167	28.710117	-15.656815	173.774223
25980		10.088179	-3.096586	6.403959	-7.753864	6.695573	-2.928142	-0.854604	-3.880230	1.185725	-0.598145	-0.211914	-0.365723	0.099793	-0.030092	0.066113	-0.017936	-0.165113	-0.232682	-0.958267	28.357490	-17.944677	173.286810
25981		19.599883	-3.435051	15.160201	-13.346356	11.941763	7.650926	-0.184234	-3.853233	1.064497	-0.605469	-0.196533	-0.342041	0.193208	-0.033175	0.155373	-0.017441	-0.184934	-0.230498	-0.955179	28.428127	-20.197052	172.741845
25982		17.497274	-3.622048	17.851659	-9.730693	13.027785	9.513636	0.046067	-2.725989	1.382814	-0.610107	-0.189941	-0.322266	0.172763	-0.035062	0.180873	-0.013930	-0.199615	-0.229135	-0.952605	28.469561	-21.957919	172.689421
25983		11.167989	0.513160	11.935389	-5.440772	5.997520	4.394913	0.472210	-2.268722	1.379798	-0.608154	-0.183350	-0.313721	0.110279	0.005612	0.120623	-0.009446	-0.212209	-0.229772	-0.949781	28.705933	-23.500879	172.766938
25984		12.151879	9.733504	8.322601	-6.688853	-3.695531	6.101497	0.438425	-2.206568	1.114016	-0.608398	-0.174561	-0.291748	0.120045	0.097822	0.084770	-0.006222	-0.224058	-0.230510	-0.946903	28.976859	-24.926385	172.709565
25985		15.032940	11.655115	8.218507	-8.759223	-5.134805	8.250293	-0.076517	-1.921786	0.834311	-0.613037	-0.170166	-0.287354	0.149043	0.117206	0.083577	-0.004531	-0.234306	-0.229082	-0.944776	28.984193	-26.145870	172.581033
25986		10.882558	5.522150	8.717845	-5.160141	0.038189	4.268932	-0.419473	-1.338953	0.753925	-0.615479	-0.170166	-0.287354	0.108030	0.055813	0.087787	-0.002992	-0.241564	-0.226140	-0.943662	28.736801	-27.036410	172.588244
25987		6.536748	3.713527	8.810241	-1.291943	1.130994	1.641116	-0.421607	-0.983934	0.704311	-0.606445	-0.165771	-0.289795	0.064802	0.037550	0.088343	-0.001248	-0.247207	-0.223227	-0.942898	28.448481	-27.750677	172.682381
25988		6.613715	4.492152	8.572296	-1.263905	0.275687	1.837641	-0.358346	-0.822909	0.585062	-0.613525	-0.159180	-0.290039	0.065652	0.045268	0.085913	0.000151	-0.251820	-0.220767	-0.942257	28.202115	-28.334942	172.761567
25989		8.158314	4.438574	8.117029	-2.735920	0.248975	2.212170	-0.340906	-0.532393	0.458280	-0.604492	-0.163330	-0.292236	0.081265	0.044711	0.081311	0.001336	-0.255049	-0.218527	-0.941910	27.955703	-28.754009	172.860982
25990		6.738892	4.851766	7.948482	-1.477207	-0.399770	1.579785	-0.314515	-0.228406	0.328836	-0.611084	-0.163574	-0.298828	0.067218	0.048753	0.079485	0.002236	-0.256571	-0.216588	-0.941943	27.714299	-28.967893	172.979860
25991		6.029654	4.825558	7.855050	-0.875482	-0.537413	1.154949	-0.338926	-0.135657	0.292592	-0.613525	-0.158936	-0.301270	0.060172	0.048477	0.078509	0.003076	-0.257750	-0.214562	-0.942082	27.454375	-29.141126	173.107893
25992		6.598925	4.380081	7.810529	-1.422448	-0.139275	1.218737	-0.349807	-0.051177	0.282807	-0.608887	-0.165527	-0.309814	0.065907	0.044031	0.078045	0.003905	-0.258385	-0.212511	-0.942370	27.177928	-29.251735	173.255911
25993		6.225793	3.884305	7.631679	-1.231361	0.156791	0.701583	-0.305193	0.036971	0.203830	-0.613770	-0.154541	-0.310303	0.062232	0.039023	0.076246	0.004553	-0.258653	-0.210754	-0.942688	26.936156	-29.312836	173.385509
25994		5.341937	4.222145	7.813008	-0.335723	-0.205630	0.543508	-0.287363	0.062716	0.193129	-0.613525	-0.156738	-0.314453	0.053403	0.042385	0.078053	0.005161	-0.258653	-0.209109	-0.943051	26.703786	-29.340903	173.515984
25995		5.777808	3.599798	7.850434	-0.764305	0.383795	0.542957	-0.274163	0.048541	0.172242	-0.625000	-0.152588	-0.319092	0.057766	0.036155	0.078441	0.005712	-0.258832	-0.207538	-0.943346	26.486766	-29.387102	173.630954
25996		5.936349	3.379303	8.076583	-0.816220	0.656796	0.713159	-0.237130	0.044929	0.163021	-0.620605	-0.147949	-0.321533	0.059354	0.033937	0.080712	0.006224	-0.258882	-0.206168	-0.943629	26.294125	-29.415777	173.738826
25997		5.061821	3.502759	7.736367	-0.205507	0.298484	0.067158	-0.197617	0.052058	0.150175	-0.625000	-0.152344	-0.325928	0.050612	0.035142	0.077316	0.006774	-0.259019	-0.204984	-0.943846	26.126397	-29.453963	173.842200
25998		5.163245	3.657160	8.159131	-0.066581	0.305780	0.507553	-0.195406	0.013531	0.157433	-0.629395	-0.154785	-0.319092	0.051609	0.036692	0.081552	0.007280	-0.259208	-0.203818	-0.944042	25.963496	-29.496828	173.937969
25999		4.855732	3.643518	8.250234	0.248851	0.300489	0.422910	-0.168219	0.034387	0.139716	-0.636475	-0.148193	-0.325928	0.048546	0.036538	0.082463	0.007800	-0.259415	-0.202786	-0.944204	25.817785	-29.540891	174.030358
26000		4.750378	3.959686	7.861793	0.193183	-0.172234	0.186611	-0.173878	-0.004762	0.142879	-0.629883	-0.141357	-0.319580	0.047474	0.039699	0.078585	0.008248	-0.259675	-0.201741	-0.944352	25.673764	-29.589138	174.112599
26001		4.746405	3.948922	8.113459	0.327762	-0.090168	0.377256	-0.195896	-0.016796	0.158620	-0.629883	-0.141357	-0.319580	0.047426	0.039606	0.081100	0.008768	-0.260141	-0.200555	-0.944472	25.513489	-29.663704	174.201941
26002		5.102720	4.243028	7.786230	-0.095809	-0.481561	0.406181	-0.213858	-0.026378	0.175762	-0.636719	-0.141602	-0.312988	0.050980	0.042558	0.077824	0.009297	-0.260537	-0.199279	-0.944628	25.339517	-29.730827	174.298066
26003		4.806716	4.017589	8.171493	0.331506	-0.180784	0.476929	-0.211704	-0.002015	0.159435	-0.634521	-0.134766	-0.313232	0.048034	0.040301	0.081673	0.009814	-0.260932	-0.198016	-0.944779	25.167456	-29.797283	174.392555
26004		4.896510	3.784608	8.086545	0.190622	-0.017493	0.368402	-0.204744	-0.010774	0.151256	-0.641602	-0.128174	-0.313477	0.048932	0.037966	0.080829	0.010254	-0.261228	-0.196813	-0.944944	25.003351	-29.849857	174.478970
26005		4.997811	4.023009	7.931621	0.066865	-0.312479	0.383938	-0.187538	-0.032667	0.132858	-0.635010	-0.123779	-0.304688	0.049938	0.040338	0.079287	0.010646	-0.261738	-0.195700	-0.945030	24.856903	-29.925141	174.549438
26006		5.591069	3.557518	7.828744	-0.542808	0.104261	0.429367	-0.186197	-0.060690	0.132669	-0.628174	-0.128174	-0.306641	0.055863	0.035685	0.078271	0.010973	-0.262251	-0.194611	-0.945109	24.715512	-29.998823	174.611290
26007		5.351612	3.414825	7.885688	-0.312155	0.216830	0.303654	-0.145693	-0.061663	0.118833	-0.628418	-0.119141	-0.304932	0.053471	0.034237	0.078848	0.011325	-0.262880	-0.193715	-0.945114	24.600892	-30.085467	174.665744
26008		5.347482	3.467243	7.903201	-0.281492	0.156540	0.334930	-0.133839	-0.083869	0.123773	-0.626465	-0.114746	-0.296143	0.053420	0.034758	0.079031	0.011656	-0.263490	-0.192886	-0.945110	24.495008	-30.168889	174.716313
26009		4.879370	3.344450	8.273361	0.305193	0.354150	0.347210	-0.097240	-0.088915	0.114216	-0.617432	-0.110352	-0.300781	0.048738	0.033513	0.082739	0.012023	-0.264240	-0.192226	-0.945030	24.412908	-30.268409	174.760923
26010		5.070192	3.294973	8.147363	0.088221	0.356654	0.326750	-0.060389	-0.131163	0.108979	-0.617432	-0.112549	-0.298340	0.050631	0.033002	0.081497	0.012336	-0.265054	-0.191766	-0.944892	24.359830	-30.372888	174.789960
26011		4.901017	3.297824	8.193088	0.276997	0.349588	0.278068	-0.024258	-0.135951	0.091364	-0.615479	-0.103516	-0.296631	0.048939	0.033011	0.081960	0.012645	-0.265997	-0.191483	-0.944680	24.332678	-30.491299	174.808188
26012		4.779464	3.479979	8.005570	0.329362	0.098017	0.133396	0.004085	-0.153780	0.091659	-0.613037	-0.107910	-0.300781	0.047717	0.034820	0.080093	0.012941	-0.266897	-0.191351	-0.944449	24.324833	-30.603471	174.820716
26013		4.779797	3.428663	8.222510	0.452406	0.223608	0.284697	0.037059	-0.139413	0.092599	-0.611084	-0.103516	-0.301025	0.047725	0.034294	0.082265	0.013334	-0.267852	-0.191356	-0.944172	24.332740	-30.723756	174.838855
26014		4.706300	3.641822	8.209711	0.554867	0.016105	0.311705	0.050981	-0.141071	0.097101	-0.613281	-0.101318	-0.301025	0.046987	0.036420	0.082140	0.013730	-0.268693	-0.191437	-0.943911	24.348240	-30.830582	174.858186
26015		5.065748	3.752766	8.082637	0.219235	-0.105575	0.434987	0.052885	-0.126682	0.103730	-0.604492	-0.098877	-0.310059	0.050587	0.037533	0.080868	0.014208	-0.269595	-0.191500	-0.943634	24.359836	-30.946587	174.886608
26016		5.321118	3.725675	7.807526	-0.122718	-0.161858	0.341678	0.063365	-0.125021	0.107886	-0.608887	-0.101318	-0.312012	0.053142	0.037261	0.078120	0.014687	-0.270369	-0.191623	-0.943380	24.376715	-31.047593	174.916915
26017		5.712384	3.446174	7.447367	-0.655575	-0.006623	0.164330	0.061436	-0.097367	0.117278	-0.602295	-0.098877	-0.316650	0.057067	0.034472	0.074512	0.015269	-0.271143	-0.191706	-0.943132	24.384696	-31.151353	174.961679
26018		5.693539	3.527292	7.602403	-0.536148	-0.026787	0.304947	0.057634	-0.066786	0.118478	-0.604492	-0.101074	-0.321045	0.056889	0.035285	0.076053	0.015845	-0.271653	-0.191784	-0.942960	24.386507	-31.224483	175.014576
26019		5.588434	3.697328	7.569222	-0.426424	-0.206723	0.285302	0.054727	-0.031095	0.130953	-0.608887	-0.103516	-0.323242	0.055848	0.036989	0.075711	0.016546	-0.272127	-0.191811	-0.942805	24.376646	-31.296890	175.086104
26020		4.960194	3.738881	7.887438	0.284371	-0.175915	0.221386	0.054050	-0.003485	0.139254	-0.610840	-0.105713	-0.325195	0.049575	0.037402	0.078885	0.017277	-0.272358	-0.191838	-0.942720	24.360545	-31.341881	175.169311
26021		5.019330	3.726057	7.892406	0.245361	-0.162452	0.251141	0.033725	0.001508	0.160497	-0.609131	-0.096680	-0.334473	0.050164	0.037288	0.078930	0.018119	-0.272708	-0.191723	-0.942626	24.324379	-31.404070	175.268037
26022		4.502077	3.715105	8.230214	0.862383	-0.069603	0.240102	0.015314	0.020062	0.168967	-0.611328	-0.096680	-0.330078	0.044998	0.037183	0.082300	0.018959	-0.272859	-0.191525	-0.942606	24.273000	-31.443683	175.376089
26023		4.899569	3.871955	8.084651	0.482949	-0.249779	0.388477	0.011080	0.000931	0.188641	-0.611084	-0.101074	-0.334229	0.048960	0.038761	0.080848	0.019902	-0.273238	-0.191265	-0.942530	24.214644	-31.512365	175.492108
26024		4.487519	3.939524	8.523389	1.077165	-0.185024	0.536771	0.018783	-0.045714	0.200863	-0.613281	-0.101318	-0.338623	0.044816	0.039432	0.085248	0.020834	-0.273729	-0.191045	-0.942412	24.164167	-31.593668	175.601839
26025		4.518038	4.158634	8.178069	0.928707	-0.522371	0.358463	0.013585	-0.127401	0.231498	-0.617920	-0.101318	-0.338623	0.045080	0.041633	0.081812	0.021858	-0.274750	-0.190751	-0.942151	24.111451	-31.738969	175.709202
26026		4.414296	3.394722	8.326010	1.009398	0.226270	0.150365	0.042785	-0.241773	0.282701	-0.620361	-0.092285	-0.341309	0.043994	0.033992	0.083321	0.023022	-0.276239	-0.190552	-0.941728	24.075890	-31.941804	175.815839
26027		5.867893	2.141619	8.425182	-0.310134	1.511990	0.561312	0.147725	-0.431968	0.289166	-0.624756	-0.096924	-0.350098	0.058466	0.021439	0.084394	0.024212	-0.278728	-0.190843	-0.940906	24.124778	-32.259448	175.875297
26028		5.562252	3.018731	8.195260	0.024189	0.605325	0.523959	0.264491	-0.591267	0.287825	-0.631348	-0.101318	-0.334229	0.055336	0.030159	0.082156	0.025374	-0.281836	-0.191719	-0.939770	24.265610	-32.646302	175.888142
26029		5.525645	2.845360	8.675234	0.360394	0.963532	0.809436	0.318895	-0.774348	0.296421	-0.638184	-0.101563	-0.336426	0.054878	0.028397	0.087011	0.026510	-0.285911	-0.192840	-0.938278	24.462096	-33.144499	175.854774
26030		5.272556	2.802577	9.087870	0.883386	1.175281	0.961395	0.426811	-0.974028	0.288132	-0.651367	-0.106201	-0.322998	0.052242	0.027907	0.091194	0.027535	-0.290783	-0.194519	-0.936402	24.757717	-33.730879	175.755158
26031		4.574986	3.623194	9.340515	1.860038	0.515385	1.030562	0.511525	-1.207605	0.324541	-0.655762	-0.110596	-0.318604	0.045126	0.036066	0.093771	0.028659	-0.296869	-0.196546	-0.934033	25.129469	-34.460369	175.606792
26032		4.837967	4.305881	9.261891	1.875642	-0.071288	1.331956	0.626748	-1.485168	0.436203	-0.669189	-0.108643	-0.307373	0.047596	0.042872	0.093109	0.030169	-0.304219	-0.198993	-0.931098	25.582092	-35.346598	175.436692
26033		4.614557	4.065374	9.835929	2.535069	0.423025	1.499109	0.689599	-1.832813	0.560135	-0.682617	-0.108887	-0.289795	0.045127	0.040441	0.098916	0.032035	-0.313375	-0.201559	-0.927439	26.094835	-36.454722	175.228481
26034		4.232399	4.233049	10.397333	3.439272	0.539842	1.668127	0.794097	-2.238259	0.683484	-0.691650	-0.106689	-0.269775	0.041012	0.042058	0.104605	0.034192	-0.324377	-0.204476	-0.922930	26.713051	-37.787732	174.951735
26035		3.622053	5.413754	10.671311	4.618581	-0.388260	1.798147	0.847567	-2.705211	0.852644	-0.709961	-0.098145	-0.248047	0.034541	0.053833	0.107416	0.036765	-0.337730	-0.207385	-0.917376	27.409877	-39.412520	174.606118
26036		3.831011	6.551511	10.876710	5.199085	-1.242386	2.324436	0.810395	-3.249899	1.123167	-0.723389	-0.098389	-0.219238	0.036166	0.065279	0.109631	0.039909	-0.353683	-0.209732	-0.910674	28.125236	-41.370152	174.212956
26037		4.409189	5.845826	10.960979	5.134664	-0.451120	2.318420	0.734946	-3.891564	1.450227	-0.739746	-0.081055	-0.188721	0.041522	0.058360	0.110649	0.043751	-0.372862	-0.211186	-0.902474	28.848497	-43.747122	173.760105
26038		4.171384	6.745750	11.820641	6.645741	-0.874175	2.743688	0.681142	-4.526572	1.802289	-0.751221	-0.072266	-0.144775	0.038414	0.067408	0.119330	0.048357	-0.395010	-0.211788	-0.892622	29.603607	-46.524860	173.240234
26039		4.093797	7.196808	12.063914	7.653858	-1.136031	2.603400	0.828090	-5.291173	2.267681	-0.760986	-0.052734	-0.098877	0.036907	0.071899	0.121949	0.054513	-0.420806	-0.212138	-0.880311	30.515449	-49.818904	172.648238
26040		2.945427	7.481919	13.096387	9.977877	-1.003229	1.828233	0.902800	-6.254656	2.874223	-0.777588	-0.026367	-0.035645	0.024261	0.074598	0.132114	0.062390	-0.450960	-0.211603	-0.864850	31.587648	-53.748617	171.937753
26041		4.867726	5.369137	14.619913	10.276844	1.780389	2.730841	1.287415	-7.195780	3.320374	-0.780762	0.002197	0.034424	0.042480	0.053481	0.148147	0.072001	-0.484944	-0.211704	-0.845474	33.218821	-58.266175	170.856651
26042		7.035062	6.055045	14.112568	10.085103	1.252572	3.672317	1.655032	-8.198132	3.668563	-0.781738	0.028809	0.102295	0.063366	0.060570	0.144320	0.082757	-0.522447	-0.212498	-0.821611	35.834981	-63.337906	168.944258
26043		8.960692	7.650438	13.484196	10.582162	-0.132193	4.623701	1.693705	-8.425325	3.899834	-0.771729	0.064209	0.169678	0.082308	0.076991	0.139063	0.094163	-0.560010	-0.212465	-0.795224	39.448957	-68.540934	166.048620
26044		10.831663	1.052359	13.891174	9.044751	6.256464	3.979576	1.785381	-8.908364	3.976133	-0.757080	0.099854	0.241699	0.101767	0.011322	0.143642	0.105376	-0.598184	-0.212326	-0.765499	45.701847	-73.856239	160.527091
26045		19.162354	8.295371	13.226578	10.961679	0.598531	12.323109	2.944110	-8.206103	3.571612	-0.735840	0.135498	0.302490	0.184454	0.084256	0.141168	0.119023	-0.631238	-0.216945	-0.735056	57.140654	-78.416541	150.488929
26046		25.875797	20.404217	13.737606	17.965868	-8.740159	19.762911	2.537442	-6.855755	3.973649	-0.712402	0.171143	0.345459	0.249693	0.207225	0.148657	0.134075	-0.658751	-0.217586	-0.707620	74.097668	-82.153637	134.768167
26047		17.766476	16.984494	10.459493	16.242976	-7.978061	9.827913	1.678170	-5.322020	4.144970	-0.691162	0.206787	0.382080	0.171216	0.172527	0.110649	0.148383	-0.680620	-0.213267	-0.685023	100.950494	-84.728535	108.714739
26048		4.771459	11.671270	10.365002	14.792107	-4.571162	-4.651619	0.648644	-4.715086	3.748706	-0.660645	0.229248	0.412354	0.043054	0.117210	0.105081	0.158312	-0.700038	-0.206102	-0.665136	141.087423	-85.203571	68.804212
26049		13.268994	15.584166	21.690930	27.242179	-1.730536	2.193162	0.395081	-3.600682	2.874819	-0.638672	0.249512	0.429443	0.126499	0.157258	0.219534	0.165473	-0.714509	-0.200123	-0.649651	166.889406	-84.038920	43.116131
26050		30.355089	15.977463	21.496207	28.992212	-1.064098	18.420254	0.522527	-0.482601	1.249889	-0.650391	0.260498	0.420166	0.302026	0.161102	0.216112	0.170891	-0.716943	-0.197720	-0.646294	174.336752	-83.873638	35.924497
26051		-2.208008	16.336556	16.442218	22.208953	-5.970919	-13.447078	0.191340	1.840000	0.201232	-0.659424	0.262695	0.404541	-0.020729	0.163187	0.164773	0.173994	-0.711000	-0.196024	-0.652518	174.541827	-84.934674	35.823607
26052		-8.177029	14.397045	11.630994	16.720101	-6.992399	-18.810595	-0.663097	1.534519	0.547253	-0.661865	0.269287	0.390869	-0.081271	0.144134	0.116457	0.174900	-0.707146	-0.190543	-0.658064	177.307526	-85.824902	32.663989
26053		-8.080217	8.176326	9.664306	11.939621	-2.595483	-18.544807	-1.029667	0.854872	1.074120	-0.664307	0.273682	0.388428	-0.080829	0.081827	0.096567	0.175541	-0.706205	-0.182605	-0.661147	-174.233786	-86.303840	23.588932
26054		-2.003401	5.008611	9.578031	10.667648	0.245564	-12.454519	-0.672610	0.614800	1.026852	-0.662109	0.276123	0.379639	-0.019998	0.050305	0.095673	0.177099	-0.705751	-0.176183	-0.662957	-164.301729	-86.531150	13.247597
26055		2.217291	4.661809	10.302793	11.375669	0.928922	-8.223084	0.086341	1.102274	0.354996	-0.664551	0.280518	0.363770	0.022658	0.046614	0.102924	0.179484	-0.702280	-0.174246	-0.666503	-157.180991	-87.069855	6.160465
26056		2.633051	6.939311	9.881777	12.109920	-1.235211	-7.678158	0.690162	1.873248	-0.429063	-0.671143	0.273682	0.348633	0.027404	0.068994	0.098803	0.182083	-0.695076	-0.176334	-0.672772	-150.863584	-88.133583	0.229754
26057		1.161015	9.548643	8.371180	12.011014	-4.179706	-8.886009	0.658826	2.527100	-0.947798	-0.680176	0.273682	0.322021	0.013121	0.095151	0.083866	0.183326	-0.685015	-0.179540	-0.681844	-115.079799	-89.599856	-35.185024
26058		0.786966	10.131011	7.303436	11.360987	-5.172867	-8.942753	0.130946	2.982877	-1.180259	-0.688721	0.264893	0.297852	0.009556	0.101209	0.072967	0.182388	-0.673649	-0.181243	-0.692880	11.494946	-88.438864	-161.692936
26059		1.830939	8.595298	7.018682	10.262791	-4.015796	-7.569753	-0.438360	3.345266	-1.362894	-0.692627	0.247070	0.265137	0.020064	0.085973	0.069673	0.179111	-0.661038	-0.181258	-0.705757	17.518338	-86.371749	-167.977405
26060		3.418344	6.363807	7.337148	9.200673	-2.010517	-5.652456	-0.705907	3.761944	-1.687720	-0.701416	0.238281	0.241211	0.036089	0.063596	0.072480	0.174178	-0.646795	-0.180908	-0.720133	19.804925	-84.029852	-170.681236
26061		4.112461	4.588235	7.503293	8.194666	-0.468381	-4.628698	-0.640973	4.230363	-2.137147	-0.714111	0.213623	0.206543	0.043186	0.045666	0.073987	0.168102	-0.629913	-0.181804	-0.736138	21.717089	-81.313079	-172.982914
26062		3.961910	3.720267	7.492863	7.530608	0.234433	-4.437262	-0.426011	4.610975	-2.568974	-0.720459	0.202637	0.173584	0.041806	0.036833	0.073903	0.161425	-0.610820	-0.184358	-0.752897	23.397409	-78.318504	-174.941388
26063		3.846986	3.291576	7.385092	6.959963	0.533832	-4.206790	-0.214017	4.877354	-2.896241	-0.726318	0.178223	0.132324	0.040726	0.032415	0.072841	0.154213	-0.589611	-0.188414	-0.770115	24.872039	-75.071547	-176.585846
26064		4.169386	3.067006	7.493258	6.523297	0.771489	-3.506593	-0.062979	5.053235	-3.111296	-0.732178	0.151611	0.097900	0.044039	0.030020	0.073830	0.146729	-0.567091	-0.193334	-0.787083	26.057724	-71.701108	-177.864279
26065		5.018309	2.876685	7.845690	6.047211	1.107138	-2.250264	0.049018	5.195626	-3.243220	-0.729004	0.127197	0.061035	0.052655	0.027907	0.077117	0.138971	-0.543087	-0.198844	-0.803869	27.009701	-68.188022	-178.851056
26066		6.128864	2.945098	8.499635	5.682230	1.373133	-0.632876	0.130062	5.357529	-3.337391	-0.734619	0.093994	0.022217	0.064015	0.028343	0.083324	0.131159	-0.517958	-0.204575	-0.820162	27.739397	-64.593020	-179.569868
26067		6.648874	2.809798	9.123065	5.275232	1.823505	0.391910	0.202596	5.525690	-3.385637	-0.731445	0.069580	-0.014648	0.069437	0.026848	0.089367	0.123295	-0.491296	-0.210462	-0.836141	28.298803	-60.866025	179.927821
26068		6.872259	2.666897	9.782795	4.928108	2.308273	1.158991	0.298685	5.599631	-3.348502	-0.732910	0.043213	-0.053467	0.071857	0.025339	0.095884	0.115850	-0.464003	-0.216339	-0.851162	28.725723	-57.141142	179.625198
26069		8.042945	3.167527	10.716742	4.402923	2.371433	3.012950	0.401568	5.588998	-3.206550	-0.722900	0.016602	-0.101318	0.083874	0.030137	0.104917	0.109032	-0.436127	-0.222150	-0.865191	29.047775	-53.428012	179.509259
26070		10.332972	4.045338	11.941629	3.322350	2.259122	5.983132	0.490588	5.549119	-2.995419	-0.712891	-0.011963	-0.140137	0.107178	0.038579	0.116574	0.103248	-0.408398	-0.227634	-0.877914	29.263810	-49.825460	179.587441
26071		13.277976	5.027335	12.776501	1.238446	1.867313	9.152527	0.530018	5.545594	-2.776865	-0.700928	-0.033936	-0.186035	0.136933	0.048059	0.124135	0.098315	-0.380265	-0.232665	-0.889719	29.380724	-46.253576	179.833990
26072		15.721068	5.828804	13.228450	-1.124397	1.412319	11.464493	0.509014	5.519266	-2.567658	-0.677490	-0.062256	-0.216064	0.161511	0.055903	0.128011	0.094231	-0.352388	-0.236957	-0.900441	29.404443	-42.786431	-179.789386
26073		18.778934	6.143284	14.069748	-4.147716	1.534588	14.032845	0.584517	5.479155	-2.480101	-0.654541	-0.082031	-0.257324	0.192291	0.058665	0.135644	0.090458	-0.324185	-0.241271	-0.910225	29.473530	-39.331929	-179.389518
26074		22.643089	7.478610	14.587563	-7.968708	0.586049	16.970596	0.776325	5.601783	-2.591204	-0.635742	-0.101563	-0.285400	0.231341	0.071259	0.139722	0.086635	-0.295149	-0.246321	-0.919079	29.690195	-35.817920	-179.021608
26075		24.855138	9.422328	13.216657	-11.577045	-1.820825	17.456116	0.817348	5.861586	-2.895728	-0.610352	-0.121094	-0.322510	0.253613	0.090054	0.125156	0.081626	-0.263983	-0.251676	-0.927528	30.002094	-32.058903	-178.746256
26076		24.432204	6.950647	10.508624	-14.796193	-1.045510	13.325366	0.630664	5.817140	-3.407739	-0.593994	-0.140869	-0.343994	0.248377	0.064980	0.098110	0.073928	-0.232404	-0.256548	-0.935257	30.367743	-28.206284	-178.762163
26077		23.834741	6.686355	8.312546	-16.662431	-1.815194	10.205253	0.439243	5.333031	-3.978481	-0.575195	-0.165039	-0.374023	0.241717	0.061904	0.076849	0.062562	-0.201947	-0.261107	-0.941874	30.820404	-24.398999	-179.220384
26078		26.728413	9.246923	6.974157	-20.521100	-4.446906	10.370678	-0.260682	4.549371	-4.560848	-0.569580	-0.193848	-0.397461	0.270793	0.086405	0.063493	0.046730	-0.174640	-0.262894	-0.947736	31.043708	-20.829896	179.800895
26079		30.538681	9.896288	3.227586	-26.390572	-6.406621	7.596721	-1.511386	3.843449	-5.120218	-0.560059	-0.211426	-0.421143	0.308325	0.091304	0.025659	0.026118	-0.149867	-0.259156	-0.953780	30.658553	-17.422591	178.326938
26080		29.793897	4.694783	-3.009555	-28.944153	-4.270174	-1.910786	-2.742079	3.187056	-5.387689	-0.545654	-0.239990	-0.451172	0.298515	0.038449	-0.035416	0.002491	-0.128051	-0.249517	-0.959864	29.582142	-14.303983	176.502156
26081		25.576517	-0.140340	-9.246474	-27.008687	-2.251373	-12.024016	-3.276655	2.415777	-5.046686	-0.533936	-0.253174	-0.477295	0.254455	-0.009383	-0.095434	-0.020848	-0.110098	-0.236856	-0.965061	28.133913	-11.690588	174.585974
26082		32.477703	-12.536961	-13.971364	-34.598075	8.413452	-21.607227	-2.456683	1.615957	-3.791145	-0.520020	-0.266113	-0.492432	0.321167	-0.133205	-0.140714	-0.038567	-0.097612	-0.227153	-0.968187	27.007699	-9.874610	173.060843
26083		32.908650	-23.698335	-15.232000	-34.259547	18.691877	-28.611048	0.417960	1.276176	-2.512424	-0.519287	-0.283936	-0.496094	0.325095	-0.240762	-0.154903	-0.049086	-0.088673	-0.230609	-0.967754	27.399190	-8.568318	172.100381
26084		31.137439	-13.235813	-15.776277	-32.757337	8.919964	-25.335850	2.785838	0.821160	-1.330483	-0.516113	-0.312744	-0.488525	0.309838	-0.132196	-0.160879	-0.053328	-0.083926	-0.244812	-0.964458	29.056387	-7.803422	171.645179
26085		30.925026	-1.119973	-15.041903	-33.077255	-1.719304	-19.129215	2.465967	0.190602	-0.013246	-0.520508	-0.312988	-0.481934	0.309106	-0.009362	-0.150837	-0.052112	-0.083732	-0.256699	-0.961446	30.458925	-7.715468	171.691559
26086		29.712770	1.017426	-12.929250	-31.642939	-3.027565	-16.183828	0.684744	-0.496439	1.081257	-0.522949	-0.310791	-0.473145	0.297385	0.012222	-0.128515	-0.047258	-0.087770	-0.259363	-0.960621	30.793142	-8.285938	172.081665
26087		14.854921	4.067450	-5.415128	-15.775255	-4.195672	-10.069201	-0.852211	-1.482571	2.029413	-0.539551	-0.284180	-0.458496	0.148525	0.041954	-0.053227	-0.039778	-0.097469	-0.253973	-0.961465	30.212705	-9.626307	172.657550
26088		-10.269264	1.572138	5.326679	11.166862	-0.071538	-6.409089	-0.749895	-2.653086	2.756343	-0.553955	-0.255615	-0.435059	-0.103592	0.014494	0.051841	-0.030250	-0.113642	-0.248410	-0.961490	29.664429	-11.741883	173.276369
26089		1.549396	14.365489	21.615710	4.061018	-2.408675	15.752911	-1.007996	-3.599599	2.480449	-0.572754	-0.233643	-0.413818	0.009818	0.144888	0.215640	-0.023338	-0.134005	-0.241518	-0.960816	29.032519	-14.254896	173.508454
26090		9.130511	8.980503	8.938986	-5.961633	-2.919143	4.323528	-1.255371	-3.527254	1.536813	-0.586914	-0.216309	-0.387695	0.089020	0.091060	0.090404	-0.021046	-0.152719	-0.233958	-0.959947	28.364176	-16.460588	173.301431
26091		12.698632	-2.258828	6.154530	-10.115678	6.165215	-1.820786	-1.013335	-3.817390	1.083670	-0.607666	-0.198730	-0.357422	0.125898	-0.021584	0.064066	-0.021057	-0.172329	-0.227791	-0.958108	27.936217	-18.700851	172.791229
26092		16.832599	-2.623197	13.932611	-10.836799	10.348629	6.304008	-0.241495	-3.729150	0.947463	-0.610107	-0.192139	-0.335449	0.165810	-0.025272	0.142464	-0.020965	-0.191301	-0.225344	-0.955083	27.982332	-20.852824	172.234766
26093		15.718620	-4.431344	17.139978	-8.041748	13.165616	8.144232	-0.060652	-2.849003	1.415118	-0.614990	-0.181152	-0.315918	0.155031	-0.043159	0.173632	-0.017442	-0.206650	-0.223331	-0.952426	27.965127	-22.696293	172.179885
26094		13.556133	-0.611798	12.683378	-7.132734	7.543654	5.588983	0.390013	-2.364445	1.365419	-0.619873	-0.167969	-0.296387	0.134088	-0.005449	0.128414	-0.013172	-0.219534	-0.223510	-0.949565	28.162373	-24.269966	172.236118
26095		13.744097	7.019121	9.514316	-7.665145	-0.633147	6.604292	0.472978	-2.267171	1.091601	-0.615479	-0.167969	-0.287598	0.135964	0.070708	0.096857	-0.009962	-0.231725	-0.224327	-0.946510	28.459299	-25.733755	172.163562
26096		16.402742	11.644163	9.574013	-9.211970	-4.469363	9.972347	-0.126247	-1.753351	0.951303	-0.620117	-0.165771	-0.281006	0.162624	0.117278	0.097096	-0.007570	-0.241158	-0.222489	-0.944608	28.383279	-26.886860	172.163258
26097		10.464003	6.876773	8.156785	-4.773846	-1.565232	4.261253	-0.416653	-1.067729	0.727535	-0.611572	-0.152344	-0.283691	0.103952	0.069317	0.081980	-0.005782	-0.247197	-0.219540	-0.943749	28.100935	-27.648417	172.249955
26098		5.661499	3.698059	8.622969	-0.508519	0.853212	1.100421	-0.404866	-0.871734	0.614762	-0.611572	-0.147949	-0.274902	0.056124	0.037328	0.086400	-0.004336	-0.252055	-0.216802	-0.943105	27.825075	-28.264916	172.335423
26099		6.912577	3.521759	8.612019	-1.520609	1.095364	1.625860	-0.358268	-0.646702	0.532822	-0.606934	-0.154541	-0.281250	0.068753	0.035556	0.086279	-0.002934	-0.255884	-0.214367	-0.942635	27.563084	-28.760743	172.446357
26100		8.223693	5.304217	7.804175	-2.790739	-0.756313	2.365498	-0.359433	-0.371311	0.433659	-0.611572	-0.147949	-0.286133	0.081977	0.053360	0.078098	-0.001745	-0.258178	-0.212072	-0.942532	27.286349	-29.074216	172.584866
26101		7.246691	4.586056	7.236244	-2.252267	-0.493489	1.168807	-0.351204	-0.143292	0.278165	-0.604980	-0.145508	-0.297119	0.072351	0.046088	0.072334	-0.000997	-0.259360	-0.209998	-0.942673	27.023403	-29.246252	172.703775
26102		7.246360	4.218912	7.998931	-1.898440	0.094826	1.618786	-0.343014	-0.055900	0.263565	-0.607178	-0.145752	-0.299316	0.072385	0.042422	0.079937	-0.000256	-0.259984	-0.208000	-0.942945	26.756286	-29.353324	172.840204
26103		6.515479	4.450357	7.329712	-1.557654	-0.503511	0.831649	-0.294753	0.052823	0.214464	-0.609375	-0.150146	-0.308105	0.065126	0.044681	0.073214	0.000470	-0.260175	-0.206274	-0.943271	26.514420	-29.407954	172.981343
26104		5.884029	4.345798	7.734716	-0.823319	-0.356763	0.795250	-0.293924	0.070711	0.189243	-0.611816	-0.143555	-0.312744	0.058826	0.043627	0.077262	0.001056	-0.260123	-0.204601	-0.943649	26.277909	-29.430086	173.112219
26105		5.168829	3.796124	7.952425	-0.157479	0.120138	0.401474	-0.255600	0.113193	0.169902	-0.609619	-0.141113	-0.317383	0.051701	0.038107	0.079446	0.001684	-0.259983	-0.203118	-0.944007	26.062544	-29.441535	173.244953
26106		5.125413	3.855761	8.150828	-0.021270	0.105364	0.558480	-0.232041	0.111597	0.154051	-0.616455	-0.141357	-0.323975	0.051270	0.038692	0.081435	0.002226	-0.259700	-0.201782	-0.944370	25.865793	-29.432917	173.367002
26107		4.948682	3.567619	8.562994	0.299740	0.481622	0.685902	-0.182251	0.104331	0.129309	-0.616455	-0.138916	-0.328613	0.049508	0.035786	0.085572	0.002748	-0.259558	-0.200695	-0.944639	25.705434	-29.437916	173.473156
26108		4.778635	3.630512	8.217509	0.281543	0.253657	0.355882	-0.132284	0.063408	0.114558	-0.621094	-0.134766	-0.326416	0.047792	0.036387	0.082136	0.003184	-0.259461	-0.199882	-0.944837	25.584116	-29.443803	173.558007
26109		4.906294	3.559259	8.422337	0.265718	0.392642	0.553171	-0.095457	0.042466	0.086708	-0.618896	-0.132324	-0.324219	0.049065	0.035654	0.084196	0.003555	-0.259565	-0.199261	-0.944938	25.494377	-29.469649	173.621358
26110		4.979856	3.646880	7.980636	-0.002154	0.139881	0.275408	-0.067907	-0.005501	0.070074	-0.621338	-0.130127	-0.322266	0.049784	0.036513	0.079795	0.003796	-0.259748	-0.198810	-0.944982	25.432468	-29.499992	173.660331
26111		5.377223	3.579503	7.772346	-0.446858	0.153044	0.282541	-0.035931	-0.039637	0.051161	-0.625977	-0.127930	-0.324463	0.053748	0.035823	0.077728	0.003993	-0.260202	-0.198517	-0.944918	25.398490	-29.559288	173.679450
26112		5.738990	3.569077	7.351764	-0.958238	0.033299	0.127303	-0.019258	-0.070636	0.062534	-0.625977	-0.128174	-0.320068	0.057353	0.035716	0.073534	0.004197	-0.260684	-0.198307	-0.944828	25.375652	-29.621449	173.695622
26113		5.350820	3.744836	7.669656	-0.434254	-0.050464	0.251485	-0.010948	-0.067474	0.056389	-0.628418	-0.121338	-0.320313	0.053472	0.037468	0.076713	0.004425	-0.261274	-0.198126	-0.944702	25.358261	-29.696443	173.710064
26114		4.715470	3.971354	8.046585	0.335289	-0.182048	0.316936	-0.020832	-0.067172	0.066866	-0.623779	-0.121338	-0.311523	0.047114	0.039738	0.080478	0.004650	-0.261743	-0.197902	-0.944618	25.332684	-29.757863	173.729872
26115		4.677758	4.027380	8.179906	0.454078	-0.193168	0.422964	-0.032166	-0.086817	0.075499	-0.626465	-0.114746	-0.309326	0.046727	0.040305	0.081813	0.004920	-0.262443	-0.197597	-0.944487	25.300140	-29.847402	173.750316
26116		4.990860	3.843733	8.163211	0.168506	-0.007577	0.497139	-0.045474	-0.102848	0.080478	-0.628662	-0.114746	-0.307129	0.049851	0.038476	0.081649	0.005143	-0.263095	-0.197240	-0.944379	25.261304	-29.930615	173.768302
26117		4.834755	3.862314	8.183052	0.331643	-0.039394	0.441244	-0.035987	-0.099819	0.073302	-0.622314	-0.103516	-0.303223	0.048293	0.038656	0.081848	0.005384	-0.263851	-0.196919	-0.944233	25.228950	-30.026103	173.783889
26118		4.886267	4.004400	7.898610	0.175861	-0.279442	0.296212	-0.051307	-0.096558	0.078739	-0.615479	-0.103516	-0.305420	0.048809	0.040083	0.078999	0.005596	-0.264472	-0.196537	-0.944138	25.186280	-30.105612	173.802762
26119		4.928078	3.560499	8.042098	0.175896	0.179100	0.265776	-0.050590	-0.084525	0.087572	-0.611084	-0.099121	-0.305664	0.049231	0.035647	0.080433	0.005900	-0.265168	-0.196128	-0.944026	25.139008	-30.196409	173.831351
26120		4.599313	3.726827	8.223183	0.580394	0.054993	0.302833	-0.034216	-0.087092	0.085641	-0.613525	-0.094727	-0.303467	0.045941	0.037302	0.082245	0.006177	-0.265750	-0.195816	-0.943925	25.102567	-30.272661	173.857204
26121		4.943880	3.786738	7.986935	0.189781	-0.063279	0.313142	-0.024885	-0.105673	0.081276	-0.609131	-0.092285	-0.299072	0.049381	0.037897	0.079891	0.006464	-0.266537	-0.195538	-0.943759	25.074731	-30.372633	173.876237
26122		5.633563	3.341527	7.745994	-0.559280	0.315226	0.311101	-0.033056	-0.114454	0.092206	-0.606934	-0.094482	-0.301270	0.056276	0.033454	0.077487	0.006747	-0.267254	-0.195224	-0.943619	25.040707	-30.464655	173.898488
26123		6.179397	3.231907	7.425976	-1.181883	0.341196	0.299780	-0.007949	-0.121820	0.089970	-0.604980	-0.085693	-0.303711	0.061734	0.032350	0.074296	0.007081	-0.268124	-0.195014	-0.943413	25.022062	-30.575000	173.918369
26124		5.550568	3.373794	7.665852	-0.491018	0.238081	0.220198	0.013287	-0.094387	0.087587	-0.607178	-0.085693	-0.310547	0.055455	0.033757	0.076687	0.007424	-0.268740	-0.194923	-0.943254	25.013006	-30.655471	173.943603
26125		4.881934	3.961341	7.983183	0.326692	-0.250606	0.340498	0.018900	-0.079753	0.088800	-0.600586	-0.081055	-0.312744	0.048770	0.039628	0.079855	0.007830	-0.269410	-0.194839	-0.943077	25.003897	-30.743743	173.974747
26126		4.606760	3.919360	8.217241	0.687767	-0.152888	0.366225	0.005324	-0.073706	0.097768	-0.595947	-0.083252	-0.312744	0.046018	0.039214	0.082190	0.008230	-0.269938	-0.194696	-0.942952	24.984043	-30.815930	174.012044
26127		4.773023	3.804027	7.948452	0.410578	-0.136364	0.199459	0.001044	-0.061748	0.112998	-0.595947	-0.085449	-0.314941	0.047684	0.038067	0.079499	0.008742	-0.270544	-0.194495	-0.942816	24.954488	-30.900408	174.062985
26128		5.029976	3.803206	7.928497	0.192140	-0.126381	0.315155	-0.004897	-0.040763	0.127847	-0.598389	-0.081055	-0.323975	0.050259	0.038066	0.079294	0.009302	-0.270947	-0.194261	-0.942743	24.914485	-30.962711	174.127924
26129		5.108030	3.776934	7.962611	0.152419	-0.090428	0.372054	-0.006207	-0.031041	0.139982	-0.602783	-0.085449	-0.332520	0.051041	0.037808	0.079633	0.009962	-0.271433	-0.193988	-0.942653	24.867694	-31.037455	174.204044
26130		4.971044	3.633941	8.054427	0.307859	0.057414	0.321044	0.020187	-0.027750	0.135216	-0.602783	-0.083252	-0.332764	0.049675	0.036365	0.080555	0.010603	-0.271779	-0.193862	-0.942572	24.837635	-31.094688	174.277309
26131		4.984893	3.980766	7.895299	0.270623	-0.327343	0.328861	0.016272	-0.015332	0.148208	-0.602783	-0.085449	-0.337158	0.049813	0.039838	0.078960	0.011347	-0.272196	-0.193682	-0.942480	24.798574	-31.162956	174.363045
26132		4.967543	3.633118	7.874570	0.240543	-0.021664	0.178636	0.013892	-0.027674	0.157495	-0.605469	-0.072266	-0.342041	0.049636	0.036365	0.078755	0.012085	-0.272564	-0.193496	-0.942402	24.757644	-31.225418	174.450066
26133		5.833782	3.406572	7.656470	-0.621607	0.171522	0.377673	0.028640	-0.076243	0.163518	-0.607422	-0.081055	-0.341553	0.058281	0.034102	0.076592	0.012857	-0.273280	-0.193357	-0.942213	24.729404	-31.328748	174.528239
26134		5.710274	3.140314	7.856255	-0.433366	0.478380	0.374209	0.076261	-0.099181	0.144150	-0.609619	-0.081055	-0.341553	0.057041	0.031414	0.078603	0.013548	-0.273967	-0.193487	-0.941977	24.738543	-31.425165	174.587272
26135		4.818793	4.326548	7.959089	0.555335	-0.652236	0.412430	0.083104	-0.157028	0.154435	-0.611816	-0.083496	-0.345947	0.048092	0.043270	0.079647	0.014275	-0.275050	-0.193621	-0.941623	24.755826	-31.568347	174.637412
26136		4.427632	3.996338	8.398323	1.096007	-0.213935	0.427401	0.081426	-0.223831	0.207608	-0.620850	-0.083496	-0.345947	0.044141	0.039975	0.084049	0.015151	-0.276385	-0.193696	-0.941203	24.765701	-31.744869	174.700216
26137		3.756701	3.576693	8.734684	1.820896	0.250175	0.178400	0.161392	-0.353481	0.252188	-0.618652	-0.081299	-0.343994	0.037367	0.035744	0.087442	0.016255	-0.278476	-0.194078	-0.940489	24.825330	-32.013408	174.754664
26138		4.881794	2.330077	9.016708	0.897860	1.607626	0.539667	0.260200	-0.542293	0.245884	-0.625244	-0.085693	-0.337158	0.048545	0.023243	0.090329	0.017250	-0.281328	-0.194964	-0.939439	24.973049	-32.364797	174.750059
26139		4.743011	3.363360	8.771077	1.109407	0.574707	0.636159	0.386786	-0.724536	0.260211	-0.629639	-0.088135	-0.336914	0.047068	0.033525	0.087947	0.018346	-0.285142	-0.196418	-0.937964	25.216575	-32.827605	174.701430
26140		4.964098	3.293855	8.914495	1.085818	0.746850	0.827900	0.477739	-0.929043	0.289633	-0.640625	-0.092773	-0.327881	0.049178	0.032797	0.089453	0.019476	-0.289821	-0.198290	-0.936112	25.538100	-33.389901	174.606937
26141		5.292425	2.445315	9.118418	0.914123	1.678503	0.840024	0.556912	-1.151794	0.270232	-0.647217	-0.094971	-0.323486	0.052365	0.024270	0.091555	0.020440	-0.295608	-0.200555	-0.933796	25.951076	-34.074822	174.429999
26142		4.971217	3.182814	9.061686	1.405651	1.014542	0.862044	0.708458	-1.391020	0.280585	-0.662842	-0.099609	-0.310059	0.049035	0.031575	0.091072	0.021404	-0.302388	-0.203545	-0.930953	26.496724	-34.871046	174.176404
26143		5.161524	3.661275	8.929167	1.431298	0.616499	1.019850	0.839687	-1.705708	0.358627	-0.674072	-0.097656	-0.296875	0.050785	0.036328	0.089880	0.022641	-0.310773	-0.207024	-0.927388	27.156214	-35.858754	173.860410
26144		5.117715	3.810858	8.922925	1.701930	0.563041	1.009202	0.975515	-2.046562	0.486569	-0.685303	-0.100098	-0.276855	0.050167	0.037794	0.089931	0.024294	-0.320720	-0.210970	-0.923060	27.930248	-37.037556	173.491966
26145		4.876396	3.705687	9.475008	2.455795	0.961707	1.156513	1.091823	-2.448882	0.603504	-0.694092	-0.104736	-0.254395	0.047486	0.036681	0.095538	0.026280	-0.332674	-0.215257	-0.917770	28.832416	-38.458732	173.032908
26146		4.435851	4.509355	10.174412	3.686776	0.596212	1.570171	1.185100	-2.916006	0.717026	-0.707520	-0.102783	-0.232422	0.042706	0.044642	0.102640	0.028398	-0.346712	-0.219819	-0.911408	29.886343	-40.126469	172.435009
26147		3.656098	5.440141	10.268788	4.904621	-0.158652	1.336861	1.232270	-3.443932	0.879188	-0.723389	-0.098389	-0.203613	0.034544	0.053920	0.103628	0.030783	-0.363305	-0.224298	-0.903744	31.083426	-42.103987	171.681733
26148		4.320019	7.247606	10.210914	5.230285	-1.610641	2.248704	1.207722	-3.975572	1.135957	-0.737061	-0.092041	-0.164063	0.040743	0.072090	0.103371	0.033641	-0.382355	-0.228212	-0.894758	32.379932	-44.393756	170.794181
26149		3.066647	6.274965	10.968684	6.911631	-0.445579	1.191396	1.164440	-4.497931	1.407216	-0.757568	-0.083496	-0.119873	0.027745	0.062309	0.110696	0.037048	-0.403929	-0.231359	-0.884274	33.794135	-47.013298	169.745157
26150		3.890478	7.767132	11.479792	7.687124	-1.340554	2.283151	1.331713	-5.127463	1.698490	-0.766846	-0.077148	-0.075928	0.035280	0.077210	0.116249	0.041296	-0.428241	-0.234637	-0.871694	35.540930	-49.993200	168.427309
26151		4.158772	6.441320	11.705694	8.025028	0.083231	1.647350	1.428368	-5.975409	2.162825	-0.772217	-0.052979	-0.019043	0.037364	0.063989	0.118674	0.046769	-0.456433	-0.237282	-0.856259	37.687233	-53.498772	166.732538
26152		5.146244	7.697558	13.152260	9.764896	-0.120584	2.963602	1.643256	-6.724182	2.577368	-0.786133	-0.037842	0.040283	0.046002	0.076499	0.133761	0.053534	-0.487656	-0.239806	-0.837746	40.495682	-57.430513	164.463520
26153		5.719211	6.713781	12.243339	9.397835	0.535769	1.974659	1.708191	-7.689888	3.089649	-0.780273	-0.013428	0.110352	0.051382	0.066901	0.125056	0.061384	-0.522784	-0.241213	-0.815319	44.322716	-61.894855	161.162259
26154		11.737729	9.163039	13.304689	9.735254	-0.099830	7.614130	1.604592	-8.164790	3.549525	-0.774414	0.017578	0.175781	0.110162	0.092532	0.138384	0.070122	-0.559386	-0.240697	-0.790086	49.448991	-66.589496	156.492071
26155		8.883316	8.363708	11.820892	10.606859	-0.489689	3.440683	1.210332	-8.152501	4.018806	-0.764648	0.057373	0.251953	0.082212	0.084602	0.122161	0.079501	-0.595498	-0.236789	-0.763540	56.208056	-71.266445	149.994531
26156		18.130965	4.985605	14.660194	10.691203	5.278335	10.826419	1.747648	-8.038379	3.952754	-0.745850	0.095215	0.310547	0.174200	0.052021	0.154149	0.090175	-0.629611	-0.234603	-0.735132	67.233766	-75.467551	139.538477
26157		20.735252	15.926074	11.817709	14.348261	-5.099713	14.495389	1.979051	-7.123299	4.118327	-0.715576	0.133301	0.364746	0.199613	0.162197	0.126976	0.103104	-0.659232	-0.231861	-0.707830	83.089134	-78.830917	124.446172
26158		19.290139	16.655645	12.234952	17.055233	-5.866878	11.948435	1.141626	-5.894474	4.424563	-0.689941	0.168945	0.403320	0.185431	0.169991	0.128853	0.115598	-0.684238	-0.224160	-0.684257	103.933291	-81.194660	103.952690
26159		13.283469	9.844380	8.972793	12.496306	-2.519976	4.015803	1.031972	-5.374334	4.118935	-0.663818	0.197998	0.442139	0.128294	0.100641	0.093732	0.127110	-0.706288	-0.216535	-0.661901	130.496841	-81.903794	77.701564
26160		8.978841	8.328283	12.961620	15.859874	0.049592	-1.666612	1.769149	-4.564392	3.149604	-0.646973	0.227051	0.461182	0.085475	0.083489	0.132338	0.138762	-0.723443	-0.214043	-0.641530	151.907796	-80.976123	57.076448
26161		23.927690	15.741897	23.352509	30.358797	0.666258	11.245544	2.005380	-2.297034	2.356960	-0.629639	0.245117	0.465088	0.234703	0.157833	0.237820	0.151065	-0.731836	-0.213473	-0.629305	163.665099	-80.262432	46.320822
26162		22.730739	21.006308	20.728907	30.971565	-5.193141	10.223093	1.537332	1.369330	1.362310	-0.643799	0.262695	0.437744	0.227296	0.210018	0.207347	0.162404	-0.727829	-0.212244	-0.631539	168.042161	-81.205909	42.774674
26163		-5.335135	15.792372	14.839591	20.226810	-6.446136	-16.696384	0.811298	2.810967	1.038489	-0.653076	0.271729	0.417480	-0.052070	0.157045	0.149772	0.171554	-0.719299	-0.208702	-0.640016	170.522563	-82.901025	40.734382
26164		-7.016345	12.588721	11.186315	15.427290	-5.479021	-17.863425	-0.073947	2.383955	1.654013	-0.653320	0.280518	0.395020	-0.069862	0.125350	0.112651	0.179028	-0.713451	-0.200422	-0.647123	177.706719	-84.350568	33.459762
26165		-6.143942	7.350860	8.659865	10.692418	-2.100444	-16.743439	-0.284416	1.803191	1.935012	-0.654053	0.298340	0.376465	-0.061364	0.073038	0.087048	0.186008	-0.709716	-0.190968	-0.652101	-169.447209	-85.312930	20.393282
26166		-1.200084	5.761193	8.289148	9.955751	-0.711922	-11.740777	-0.054404	1.671568	1.689500	-0.656494	0.302734	0.367432	-0.011794	0.057534	0.082975	0.192886	-0.705947	-0.183199	-0.656408	-153.503075	-85.909022	4.367982
26167		2.555015	6.080173	8.805534	10.820736	-0.692503	-7.951314	0.406711	2.104368	0.944414	-0.656738	0.309570	0.345215	0.026189	0.060746	0.087906	0.199276	-0.699421	-0.179167	-0.662570	-135.851851	-86.597883	-13.091160
26168		2.935698	8.252854	8.251607	11.456077	-2.835587	-7.461048	0.643593	2.798257	0.078290	-0.663574	0.311768	0.313965	0.030478	0.082275	0.082360	0.204254	-0.689577	-0.178192	-0.671574	-108.941867	-87.433213	-39.670278
26169		1.948099	10.122800	7.165776	11.428400	-4.952872	-8.241910	0.381962	3.387515	-0.611187	-0.676758	0.307129	0.282959	0.021002	0.101029	0.071504	0.206441	-0.677105	-0.178114	-0.683510	-61.476611	-87.646583	-86.959292
26170		1.321513	9.959550	6.241385	10.501807	-5.293887	-8.559466	-0.209410	3.763391	-1.076912	-0.683350	0.296143	0.259033	0.014921	0.099583	0.062039	0.205347	-0.663442	-0.177099	-0.697361	-24.090417	-86.422756	-124.514080
26171		1.624171	7.505431	5.861328	8.798043	-3.487116	-7.876734	-0.695797	3.998102	-1.488583	-0.693848	0.280518	0.226318	0.017964	0.075127	0.058004	0.201268	-0.648669	-0.175493	-0.712687	-6.460568	-84.405884	-142.600123
26172		2.042796	4.867879	5.881290	7.301670	-1.332606	-7.100203	-0.794207	4.195565	-1.960979	-0.697754	0.262695	0.198242	0.022130	0.048699	0.058167	0.195316	-0.632693	-0.174726	-0.728713	3.103385	-82.036362	-152.691075
26173		2.170534	3.257814	6.009118	6.433292	0.035744	-6.644913	-0.583487	4.343904	-2.441042	-0.710938	0.249268	0.160889	0.023399	0.032474	0.059500	0.188233	-0.615015	-0.176057	-0.745204	9.649720	-79.389816	-159.663847
26174		2.928899	3.126204	6.279944	6.278111	0.185641	-5.531702	-0.291382	4.463005	-2.837547	-0.716553	0.222656	0.137451	0.031120	0.030920	0.062073	0.180616	-0.596025	-0.179407	-0.761542	14.434203	-76.557240	-164.728650
26175		4.118525	3.822323	6.772022	6.487614	-0.278293	-3.875842	-0.109377	4.633280	-3.106568	-0.720215	0.196045	0.100586	0.043326	0.037598	0.066712	0.172469	-0.575361	-0.184023	-0.778042	18.019272	-73.493380	-168.505744
26176		5.271620	4.187014	7.314666	6.406230	-0.409848	-2.223924	-0.059401	4.887533	-3.260838	-0.723877	0.169434	0.066162	0.055155	0.041006	0.071806	0.164027	-0.553232	-0.188849	-0.794585	20.543478	-70.242581	-171.200557
26177		5.985514	3.986347	7.824654	5.996105	-0.031249	-1.040399	-0.061102	5.161833	-3.337115	-0.720703	0.147461	0.024902	0.062501	0.038859	0.076644	0.155316	-0.529247	-0.193541	-0.811367	22.302222	-66.772627	-173.129927
26178		6.171722	3.485427	8.237954	5.461440	0.592036	-0.437973	-0.019629	5.399502	-3.364926	-0.726563	0.120850	-0.011963	0.064485	0.033793	0.080660	0.146753	-0.503918	-0.198044	-0.827834	23.513423	-63.182507	-174.482539
26179		6.311450	3.023887	8.697543	4.932465	1.210662	0.126544	0.113772	5.539051	-3.333119	-0.725830	0.096436	-0.055420	0.065982	0.029106	0.085191	0.138571	-0.477216	-0.202769	-0.843770	24.422129	-59.487255	-175.445761
26180		7.143164	3.280079	9.304665	4.393483	1.251534	1.476265	0.300653	5.593108	-3.248362	-0.720215	0.063477	-0.087402	0.074515	0.031469	0.091039	0.131176	-0.449955	-0.207775	-0.858582	25.139303	-55.807814	-176.094916
26181		8.528098	4.117530	10.195249	3.801669	0.910177	3.539385	0.474977	5.614970	-3.109956	-0.714844	0.039063	-0.135498	0.088723	0.039575	0.099589	0.124579	-0.421935	-0.213039	-0.872391	25.729866	-52.116851	-176.490819
26182		10.649942	5.348025	11.264685	2.779226	0.288897	6.343356	0.575162	5.617218	-2.920496	-0.707031	0.008301	-0.180908	0.110371	0.051569	0.109733	0.118970	-0.393841	-0.218071	-0.884975	26.172899	-48.500920	-176.643048
26183		12.435297	6.185821	11.976872	1.288720	-0.154195	8.478118	0.606803	5.587627	-2.709723	-0.686035	-0.011475	-0.217773	0.128456	0.059780	0.116401	0.114128	-0.365460	-0.222678	-0.896565	26.494022	-44.922086	-176.608688
26184		14.158749	6.296292	12.554843	-0.701329	-0.041457	10.115319	0.649834	5.407484	-2.535692	-0.667236	-0.035400	-0.256836	0.145695	0.060733	0.121846	0.109915	-0.337952	-0.227007	-0.906739	26.778799	-41.511513	-176.486304
26185		17.788312	6.126449	13.804231	-4.043944	0.566609	13.158737	0.895165	5.172038	-2.554375	-0.644287	-0.052979	-0.282959	0.182135	0.058351	0.133634	0.105589	-0.310816	-0.232457	-0.915537	27.259509	-38.186070	-176.437610
26186		22.780459	8.625617	14.848231	-8.050536	-1.253499	17.522231	1.215459	5.209946	-2.825766	-0.627441	-0.083740	-0.314941	0.232757	0.082110	0.142969	0.100549	-0.282991	-0.239524	-0.923274	27.990555	-34.800774	-176.501907
26187		24.663503	12.800370	13.853346	-10.456235	-5.309731	18.931308	1.114465	5.445561	-3.240009	-0.602051	-0.103271	-0.340820	0.252318	0.123197	0.132410	0.093561	-0.253126	-0.246403	-0.930838	28.730011	-31.154406	-176.688192
26188		23.299460	11.153857	11.652867	-12.450287	-4.772324	15.187202	0.518510	5.318240	-3.834070	-0.585449	-0.127441	-0.362061	0.238064	0.106715	0.110523	0.082876	-0.223366	-0.251017	-0.938206	29.273439	-27.434436	-177.198973
26189		23.514675	5.756962	9.896910	-16.249546	-0.752922	10.660864	0.176399	4.712868	-4.694912	-0.575684	-0.151611	-0.385742	0.238655	0.051910	0.093420	0.066847	-0.195051	-0.255009	-0.944699	29.859452	-23.742269	-178.320910
26190		26.322394	8.230002	8.360941	-20.112787	-3.221049	10.566071	-0.357225	4.002407	-5.454232	-0.567627	-0.187012	-0.406494	0.266940	0.075196	0.078153	0.045806	-0.169294	-0.257126	-0.950330	30.279406	-20.201736	-179.999867
26191		29.317520	7.092615	5.059282	-25.344420	-3.119658	7.009433	-1.503456	3.382756	-5.962652	-0.557617	-0.215820	-0.427734	0.295916	0.062483	0.045112	0.020467	-0.145710	-0.254102	-0.955919	30.080852	-16.796685	177.909569
26192		28.056068	3.733728	-2.140810	-27.265547	-2.792588	-2.454444	-2.604334	2.901523	-5.889999	-0.543457	-0.237793	-0.458008	0.281138	0.028745	-0.025896	-0.005900	-0.124628	-0.245458	-0.961345	29.160589	-13.693348	175.719064
26193		31.346391	-3.060422	-9.418900	-32.733903	1.123944	-12.571460	-2.953659	2.421506	-4.605295	-0.533936	-0.250732	-0.481934	0.311460	-0.039215	-0.097432	-0.026937	-0.107156	-0.234094	-0.965915	27.833936	-11.209406	174.019252
26194		33.418097	-19.946096	-13.251479	-35.097396	15.582440	-24.488893	-1.203196	2.128544	-2.906490	-0.528809	-0.272949	-0.492188	0.329801	-0.205082	-0.134818	-0.039115	-0.093381	-0.230048	-0.967899	27.306426	-9.367734	173.091296
26195		30.198217	-21.753844	-15.031343	-31.640184	16.236579	-28.421072	1.902121	1.655805	-1.634308	-0.514404	-0.294922	-0.500244	0.298929	-0.218531	-0.154872	-0.044241	-0.083876	-0.240297	-0.966056	28.453682	-8.093964	172.700620
26196		29.886073	-8.935083	-14.974101	-31.654384	4.512847	-23.035192	3.175990	0.913683	-0.583392	-0.509277	-0.317139	-0.497314	0.297911	-0.087814	-0.152506	-0.044616	-0.079540	-0.256012	-0.962362	30.274551	-7.483985	172.664011
26197		29.957768	-0.461671	-14.092946	-31.921738	-2.822725	-18.138291	2.053455	0.131745	0.252035	-0.513672	-0.321533	-0.488281	0.299489	-0.002791	-0.141162	-0.042410	-0.079773	-0.265773	-0.959793	31.426576	-7.503634	172.826079
26198		27.765817	-0.196594	-11.891918	-29.426297	-2.434637	-16.180715	0.152387	-0.788369	0.902462	-0.525146	-0.310791	-0.479736	0.278129	-0.000622	-0.117824	-0.039060	-0.084874	-0.265934	-0.959453	31.482083	-8.168858	173.031349
26199		16.160879	1.301951	-6.193616	-17.072750	-2.293508	-11.930331	-0.947845	-1.484280	1.262253	-0.539551	-0.286621	-0.462891	0.161978	0.013751	-0.060799	-0.035356	-0.093634	-0.260519	-0.960267	30.910071	-9.288444	173.209455
26200		-1.974747	2.132346	2.509892	2.442447	-0.844658	-6.972722	-0.861958	-2.866969	2.195795	-0.553711	-0.264648	-0.437012	-0.020337	0.021209	0.024719	-0.028941	-0.110177	-0.254763	-0.960270	30.367997	-11.353038	173.456877
26201		-0.772734	17.599175	22.882089	6.507550	-4.602594	17.940592	-1.522754	-3.490311	2.425667	-0.572754	-0.233643	-0.422607	-0.013850	0.177583	0.227267	-0.022548	-0.129940	-0.245521	-0.960378	29.448118	-13.798662	173.667437
26202		5.786762	5.810138	12.999974	-1.805388	1.422573	5.383617	-1.733389	-3.362694	1.630954	-0.591309	-0.218506	-0.398926	0.055194	0.059688	0.130430	-0.019962	-0.147953	-0.235669	-0.960298	28.482115	-15.947016	173.546328
26203		11.073539	-4.628211	5.622776	-8.925566	7.832321	-3.928300	-1.196145	-3.636848	1.000976	-0.602783	-0.209717	-0.370361	0.109914	-0.045385	0.058505	-0.020301	-0.166604	-0.228755	-0.958907	27.942954	-18.072904	173.042525
26204		15.406379	-3.643034	12.603695	-10.216651	10.497204	4.146589	-0.358078	-3.778632	0.887306	-0.609863	-0.201172	-0.341797	0.151804	-0.035524	0.128984	-0.020658	-0.185753	-0.225833	-0.956069	27.930752	-20.233984	172.442797
26205		16.326166	-4.226361	18.212555	-8.413136	13.499494	9.240993	-0.081118	-2.939173	1.328243	-0.617188	-0.183350	-0.326904	0.160837	-0.041116	0.184518	-0.017671	-0.201446	-0.223837	-0.953417	27.927130	-22.099283	172.316492
26206		12.933157	-2.497944	14.053727	-6.302344	9.733283	5.567178	0.371178	-2.425870	1.407493	-0.617432	-0.174561	-0.300537	0.127787	-0.024339	0.142048	-0.013297	-0.214684	-0.223913	-0.950577	28.111677	-23.715309	172.378959
26207		12.669849	6.398003	9.148388	-7.051319	-0.367098	5.526160	0.517135	-2.313966	1.143882	-0.620117	-0.165771	-0.289795	0.125260	0.064460	0.093105	-0.009856	-0.227167	-0.224906	-0.947479	28.426256	-25.216344	172.322919
26208		16.351023	11.617715	9.239717	-9.455753	-4.576098	9.612258	0.102870	-2.056995	0.927941	-0.620117	-0.165771	-0.287598	0.162007	0.116883	0.094129	-0.007653	-0.238031	-0.224184	-0.945000	28.527983	-26.515992	172.216105
26209		12.389939	7.887201	8.425737	-6.319055	-2.094081	5.756206	-0.351627	-1.316549	0.809997	-0.611572	-0.150146	-0.277100	0.123021	0.079520	0.084930	-0.005680	-0.245342	-0.221442	-0.943789	28.297689	-27.424969	172.270619
26210		6.298791	5.423338	8.339981	-1.064346	-0.710426	1.892160	-0.419454	-0.917512	0.662357	-0.609375	-0.152344	-0.283691	0.062424	0.054616	0.083573	-0.004082	-0.250475	-0.218580	-0.943116	28.008754	-28.077708	172.366797
26211		5.875971	3.928011	8.702616	-0.558371	0.676203	1.364149	-0.408883	-0.792039	0.547314	-0.609619	-0.145752	-0.288330	0.058307	0.039618	0.087177	-0.002839	-0.255004	-0.215892	-0.942526	27.736057	-28.650859	172.439850
26212		8.380456	4.201269	7.775816	-3.066027	0.280914	1.971446	-0.414438	-0.534070	0.466599	-0.605225	-0.138916	-0.290771	0.083498	0.042369	0.077894	-0.001742	-0.258103	-0.213295	-0.942277	27.443059	-29.056070	172.547031
26213		8.491982	4.936558	7.647422	-3.088846	-0.484442	2.236813	-0.357232	-0.191647	0.315152	-0.605225	-0.141113	-0.299561	0.084768	0.049636	0.076467	-0.000882	-0.259549	-0.211145	-0.942365	27.173510	-29.262178	172.672377
26214		6.081743	4.140448	7.744483	-1.017951	-0.039318	0.820748	-0.375132	-0.065702	0.244562	-0.605225	-0.141113	-0.301758	0.060741	0.041624	0.077387	-0.000283	-0.260200	-0.209020	-0.942659	26.894979	-29.369603	172.794467
26215		6.107534	4.968956	8.079474	-0.772629	-0.707403	1.419981	-0.341969	0.001044	0.212928	-0.607666	-0.136719	-0.312988	0.061023	0.049893	0.080709	0.000318	-0.260630	-0.207075	-0.942970	26.634052	-29.450046	172.919206
26216		6.170391	3.957235	7.694399	-1.119754	0.032057	0.755293	-0.298943	0.007929	0.187714	-0.603027	-0.136719	-0.319824	0.061670	0.039745	0.076882	0.000824	-0.260873	-0.205381	-0.943273	26.404062	-29.504218	173.030754
26217		5.592463	3.667483	8.064747	-0.464293	0.343769	0.648306	-0.271976	0.052876	0.153970	-0.601074	-0.129883	-0.319824	0.055918	0.036827	0.080583	0.001291	-0.260997	-0.203841	-0.943572	26.192413	-29.542254	173.136520
26218		5.979363	3.616728	7.894471	-0.889042	0.333088	0.687539	-0.229551	0.076264	0.139405	-0.610107	-0.132324	-0.331055	0.059798	0.036300	0.078880	0.001730	-0.260866	-0.202536	-0.943888	26.006131	-29.548375	173.239823
26219		5.895477	2.769930	8.331878	-0.695210	1.244251	0.666713	-0.154088	0.095713	0.076080	-0.610352	-0.121094	-0.324707	0.058984	0.027786	0.083269	0.002026	-0.260708	-0.201652	-0.944121	25.878435	-29.544266	173.312047
26220		5.144437	2.872385	8.527413	0.055811	1.135047	0.489796	-0.049321	0.068589	0.032811	-0.612549	-0.125732	-0.333496	0.051469	0.028753	0.085249	0.002189	-0.260503	-0.201337	-0.944244	25.827651	-29.527326	173.349995
26221		5.278695	3.717305	8.062763	-0.194941	0.190327	0.512858	0.006866	0.011527	0.011667	-0.612793	-0.118896	-0.335938	0.052789	0.037173	0.080626	0.002307	-0.260674	-0.201296	-0.944205	25.822607	-29.550387	173.360007
26222		5.312943	3.666558	8.023750	-0.247381	0.226239	0.479989	0.032470	-0.005369	-0.001183	-0.614990	-0.118896	-0.335938	0.053127	0.036652	0.080245	0.002341	-0.260784	-0.201411	-0.944150	25.839086	-29.563089	173.356576
26223		4.685969	3.824428	7.825699	0.220609	-0.054245	0.075412	0.058528	-0.030080	-0.008093	-0.615234	-0.110107	-0.331787	0.046849	0.038219	0.078275	0.002391	-0.261130	-0.201640	-0.944006	25.875281	-29.602576	173.342934
26224		4.775527	3.889127	7.629674	0.060644	-0.174941	-0.009188	0.046934	-0.073704	-0.001147	-0.617676	-0.105713	-0.329590	0.047727	0.038873	0.076323	0.002376	-0.261562	-0.201824	-0.943847	25.909772	-29.650507	173.319838
26225		4.402580	4.261638	7.994000	0.615850	-0.412854	0.232141	0.032109	-0.093233	0.020644	-0.619873	-0.107910	-0.331787	0.043984	0.042608	0.079967	0.002462	-0.262234	-0.201892	-0.943645	25.931496	-29.729535	173.304959
26226		4.445552	4.269102	8.117903	0.652972	-0.367186	0.352317	0.011547	-0.103515	0.037084	-0.622314	-0.099121	-0.329834	0.044406	0.042695	0.081204	0.002551	-0.262846	-0.201860	-0.943482	25.938803	-29.802390	173.295877
26227		4.524116	4.309089	7.945444	0.520549	-0.464627	0.270918	-0.017800	-0.109583	0.063886	-0.622559	-0.096924	-0.318848	0.045184	0.043112	0.079475	0.002758	-0.263636	-0.201636	-0.943309	25.921648	-29.900366	173.301866
26228		5.332147	3.858702	7.496343	-0.432748	-0.147560	0.152626	-0.061657	-0.130393	0.101096	-0.613770	-0.092285	-0.319092	0.053253	0.038637	0.074986	0.003026	-0.264440	-0.201174	-0.943182	25.871882	-30.003099	173.323139
26229		5.798758	3.750877	7.575431	-0.788183	0.018231	0.407891	-0.061183	-0.103789	0.109440	-0.618652	-0.081299	-0.319580	0.057928	0.037564	0.075773	0.003396	-0.265248	-0.200686	-0.943057	25.815420	-30.109292	173.358049
26230		5.178151	4.134616	7.826949	-0.071549	-0.311923	0.437532	-0.061298	-0.085875	0.120255	-0.616455	-0.079102	-0.315186	0.051723	0.041401	0.078279	0.003799	-0.265860	-0.200199	-0.942987	25.753471	-30.193797	173.403860
26231		4.580441	4.062720	8.084142	0.578230	-0.219388	0.309417	-0.063127	-0.073646	0.131083	-0.612061	-0.072266	-0.322021	0.045748	0.040683	0.080845	0.004298	-0.266547	-0.199673	-0.942902	25.684799	-30.289698	173.460652
26232		4.490529	3.883698	8.035891	0.624104	-0.094220	0.158526	-0.075162	-0.079487	0.143768	-0.612549	-0.063477	-0.315674	0.044845	0.038899	0.080362	0.004800	-0.267153	-0.199089	-0.942852	25.606585	-30.376638	173.522691
26233		4.853356	3.781757	8.074117	0.337454	0.035830	0.332899	-0.069261	-0.087514	0.151410	-0.601318	-0.063477	-0.313477	0.048470	0.037882	0.080749	0.005372	-0.267922	-0.198506	-0.942753	25.529894	-30.484314	173.588038
26234		5.067142	3.427014	8.015219	0.098883	0.348794	0.263653	-0.052341	-0.102382	0.139875	-0.605713	-0.061279	-0.324707	0.050606	0.034327	0.080169	0.005863	-0.268631	-0.198036	-0.942648	25.468892	-30.581997	173.641568
26235		5.176043	3.293342	8.013756	0.008556	0.472069	0.268724	-0.021166	-0.122023	0.129783	-0.601318	-0.061035	-0.324707	0.051690	0.032975	0.080166	0.006364	-0.269538	-0.197709	-0.942454	25.430942	-30.701896	173.684439
26236		4.855336	3.633497	8.143148	0.406264	0.170895	0.330940	0.007737	-0.127781	0.116780	-0.601563	-0.052246	-0.322754	0.048480	0.036360	0.081464	0.006801	-0.270341	-0.197553	-0.942254	25.414871	-30.806980	173.717067
26237		4.876060	3.860233	8.013252	0.371006	-0.090055	0.323573	0.005364	-0.132144	0.128084	-0.596924	-0.058838	-0.324707	0.048683	0.038631	0.080166	0.007319	-0.271292	-0.197353	-0.942019	25.393779	-30.931489	173.756268
26238		5.254885	3.781431	7.770642	-0.065951	-0.078417	0.300936	0.005304	-0.128378	0.129150	-0.599121	-0.058838	-0.326904	0.052475	0.037846	0.077741	0.007811	-0.272109	-0.197168	-0.941818	25.372360	-31.039900	173.796358
26239		5.793550	3.618847	7.361575	-0.732195	-0.038905	0.203121	-0.004303	-0.119822	0.139420	-0.599365	-0.052246	-0.329346	0.057866	0.036230	0.073650	0.008381	-0.273011	-0.196906	-0.941606	25.340128	-31.160603	173.846140
26240		5.574688	3.682184	7.537696	-0.431788	-0.058818	0.250243	-0.005530	-0.081711	0.146124	-0.604004	-0.050049	-0.333984	0.055689	0.036865	0.075399	0.008984	-0.273626	-0.196645	-0.941477	25.299999	-31.248966	173.910110
26241		5.127394	3.843667	7.821656	0.129968	-0.150673	0.296845	-0.015189	-0.053003	0.151227	-0.599365	-0.054443	-0.342529	0.051224	0.038481	0.078227	0.009660	-0.274225	-0.196313	-0.941365	25.247589	-31.337873	173.986457
26242		4.793728	4.163855	8.082436	0.598731	-0.387130	0.440845	-0.006267	-0.021287	0.162420	-0.608643	-0.047852	-0.344971	0.047895	0.041680	0.080828	0.010398	-0.274570	-0.196023	-0.941317	25.192587	-31.398799	174.077888
26243		5.149401	4.117945	7.764175	0.140630	-0.443992	0.362738	-0.033704	-0.014959	0.187092	-0.606201	-0.047852	-0.342773	0.051450	0.041241	0.077639	0.011254	-0.275024	-0.195552	-0.941273	25.112231	-31.476339	174.187177
26244		5.179970	3.496033	7.932719	0.131541	0.183133	0.283426	-0.021253	-0.014571	0.201866	-0.608398	-0.050049	-0.349365	0.051759	0.035021	0.079327	0.012164	-0.275376	-0.195137	-0.941245	25.034733	-31.543157	174.304853
26245		5.279050	3.836572	7.683560	-0.021848	-0.229193	0.265592	-0.022752	-0.040110	0.204868	-0.606201	-0.052246	-0.355957	0.052736	0.038429	0.076842	0.013094	-0.275963	-0.194694	-0.941152	24.958248	-31.637635	174.418217
26246		4.193429	3.887593	8.461067	1.318391	-0.086809	0.313624	-0.004619	-0.045683	0.211252	-0.615234	-0.050049	-0.356201	0.041874	0.038922	0.084619	0.014040	-0.276470	-0.194345	-0.941062	24.891389	-31.722625	174.533216
26247		4.247841	3.944708	8.777202	1.465012	-0.026039	0.603510	0.015381	-0.153162	0.228973	-0.617432	-0.050049	-0.356201	0.042366	0.039489	0.087808	0.015025	-0.277606	-0.194057	-0.940771	24.845244	-31.881170	174.629747
26248		4.089028	4.190990	8.637759	1.594000	-0.323028	0.495083	0.087745	-0.281788	0.285018	-0.621826	-0.050293	-0.354004	0.040709	0.041930	0.086453	0.016217	-0.279287	-0.194056	-0.940254	24.842034	-32.106538	174.723486
26249		5.583333	2.333912	8.323550	-0.034607	1.392033	0.383538	0.157357	-0.495978	0.331423	-0.628418	-0.054688	-0.355957	0.055588	0.023366	0.083392	0.017548	-0.282116	-0.194318	-0.939331	24.894785	-32.467478	174.785818
26250		5.710085	2.798234	8.365866	0.016703	1.000132	0.647802	0.326988	-0.658983	0.315607	-0.639648	-0.059326	-0.346924	0.056781	0.027935	0.083892	0.018854	-0.285573	-0.195426	-0.938031	25.076045	-32.896336	174.790028
26251		5.803204	2.778108	8.689013	0.199854	1.174692	0.933159	0.416533	-0.879543	0.298277	-0.644287	-0.052734	-0.347168	0.057608	0.027686	0.087202	0.020022	-0.290135	-0.196977	-0.936280	25.349621	-33.448219	174.718304
26252		5.458978	2.456205	8.637983	0.520264	1.465623	0.580969	0.516043	-1.074520	0.271574	-0.643799	-0.063965	-0.329102	0.054091	0.024412	0.086734	0.020986	-0.295461	-0.199065	-0.934150	25.725711	-34.081040	174.566748
26253		4.760129	2.751793	9.139266	1.545839	1.384307	0.649126	0.615929	-1.269347	0.254099	-0.655273	-0.061768	-0.324707	0.046985	0.027296	0.091776	0.021854	-0.301757	-0.201635	-0.931562	26.202741	-34.821617	174.339389
26254		4.862401	3.650270	9.107234	1.746669	0.623398	0.979281	0.739390	-1.555466	0.290124	-0.670654	-0.066406	-0.311279	0.047860	0.036235	0.091581	0.022753	-0.309287	-0.204765	-0.928383	26.799385	-35.703580	174.033134
26255		4.648977	4.355845	9.345387	2.368194	0.134627	1.245869	0.846595	-1.832713	0.386666	-0.677490	-0.068848	-0.297852	0.045546	0.043250	0.094058	0.024014	-0.318258	-0.208234	-0.924540	27.486526	-36.761539	173.683548
26256		4.595236	4.175698	9.162477	2.502310	0.309724	0.964149	0.923909	-2.166123	0.526382	-0.693115	-0.069092	-0.275635	0.044846	0.041451	0.092306	0.025661	-0.328770	-0.211873	-0.919979	28.252772	-38.009857	173.287179
26257		4.353746	4.199797	9.847388	3.376199	0.640406	1.221201	1.037869	-2.550833	0.652763	-0.710938	-0.069336	-0.255615	0.042139	0.041623	0.099234	0.027697	-0.341202	-0.215819	-0.914459	29.143282	-39.493206	172.807460
26258		4.285083	4.449972	10.292987	4.078214	0.699888	1.455629	1.108720	-3.025515	0.757818	-0.717773	-0.071777	-0.231201	0.041117	0.044084	0.103806	0.029783	-0.355737	-0.219946	-0.907848	30.184714	-41.224551	172.174484
26259		4.325769	6.065050	9.949084	4.564815	-0.782615	1.720440	1.135512	-3.526567	0.924706	-0.735840	-0.067627	-0.196045	0.041211	0.060275	0.100573	0.032147	-0.372690	-0.223878	-0.899971	31.356925	-43.252519	171.392163
26260		5.203563	5.588938	9.453508	3.961922	-0.363488	1.669021	1.064376	-4.098939	1.194400	-0.749512	-0.061279	-0.160645	0.049747	0.055683	0.095867	0.034905	-0.392292	-0.227007	-0.890705	32.615873	-45.617092	170.459886
26261		4.484838	5.658308	10.504748	5.726283	0.055841	1.573790	1.325792	-4.697468	1.407009	-0.760986	-0.052490	-0.118896	0.041963	0.056183	0.106429	0.038455	-0.414601	-0.230837	-0.879398	34.240850	-48.327108	169.271011
26262		3.698745	5.539631	11.477332	7.500923	0.612500	1.114713	1.442613	-5.424503	1.705970	-0.770508	-0.039551	-0.068359	0.033381	0.054857	0.116108	0.042662	-0.440044	-0.234547	-0.865753	36.248554	-51.439602	167.722400
26263		4.622749	5.971266	12.735028	8.712379	1.066634	2.106899	1.915153	-6.354584	1.916467	-0.786377	-0.031006	-0.004395	0.041573	0.058894	0.129287	0.047715	-0.469257	-0.239775	-0.848545	39.162969	-55.010130	165.450526
26264		3.309945	4.701174	12.998801	10.034524	2.300166	-0.017810	2.153159	-7.217495	2.192366	-0.793701	-0.013428	0.061523	0.027863	0.045925	0.131555	0.053368	-0.501703	-0.245263	-0.827824	43.132659	-58.961588	162.186023
26265		7.056392	6.929391	12.390641	9.384949	0.877624	2.927913	2.389586	-8.236636	2.525137	-0.790039	0.008545	0.138428	0.064493	0.068625	0.127469	0.059674	-0.537854	-0.250708	-0.802681	48.841261	-63.300102	157.231387
26266		11.842906	9.172770	13.350489	10.345866	0.454023	7.366227	2.083838	-8.250079	2.975291	-0.770508	0.030762	0.201904	0.111398	0.091990	0.139156	0.066800	-0.573590	-0.253237	-0.776147	55.966154	-67.549772	150.712030
26267		11.590236	6.785383	13.084334	10.726140	2.493892	5.355057	1.539050	-8.320578	3.477229	-0.755859	0.062012	0.273926	0.109124	0.068757	0.136005	0.074108	-0.609246	-0.251692	-0.748317	65.429553	-71.644921	141.560703
26268		17.647168	8.060375	12.389339	10.734499	2.369180	10.403880	2.041020	-7.760581	3.492555	-0.729980	0.093262	0.332764	0.170041	0.082295	0.131410	0.083534	-0.641399	-0.251286	-0.720059	78.694365	-74.943926	128.938479
26269		18.833846	17.099362	9.879179	14.137762	-6.267651	12.662675	1.523696	-7.184271	3.816157	-0.710938	0.128906	0.386963	0.181302	0.173705	0.106707	0.093062	-0.670934	-0.247261	-0.692856	95.920133	-77.354248	112.102981
26270		18.733883	11.730770	10.993545	14.322184	-1.261795	10.247953	0.921919	-6.161706	4.086268	-0.682617	0.155762	0.430420	0.181383	0.120529	0.116136	0.102604	-0.696498	-0.239407	-0.668616	115.585065	-78.668728	92.545335
26271		13.997246	8.382077	9.385497	12.587555	-0.205343	4.174484	1.227153	-5.641018	3.765549	-0.654541	0.189209	0.473633	0.135639	0.085808	0.098244	0.112640	-0.718863	-0.233101	-0.645146	135.688258	-78.537482	72.758627
26272		12.068268	8.166025	10.872863	14.469058	0.318838	1.187205	2.043828	-4.867086	2.547782	-0.635010	0.209473	0.492920	0.116933	0.082029	0.112442	0.122458	-0.736133	-0.233143	-0.623503	150.156065	-77.177774	59.157728
26273		20.178240	17.778617	23.216017	31.406456	-0.307726	6.788703	2.390296	-2.727327	1.784146	-0.622314	0.229492	0.492188	0.196993	0.176745	0.236985	0.133593	-0.745129	-0.235609	-0.609445	158.308153	-76.211667	52.184181
26274		25.937520	24.720563	22.741538	35.710030	-5.184169	12.524647	0.985810	1.127281	1.049177	-0.631592	0.238525	0.476318	0.259358	0.247446	0.227173	0.141760	-0.742304	-0.233909	-0.611699	160.301571	-77.020588	50.711836
26275		-4.869810	15.844157	16.632909	21.632686	-5.980444	-16.715976	-0.018431	2.887249	0.832939	-0.649658	0.242676	0.454102	-0.046950	0.158259	0.167001	0.147558	-0.734365	-0.228662	-0.621811	159.729087	-78.740782	51.280293
26276		-7.020228	11.655742	13.213094	16.417516	-4.336231	-18.261667	-0.742782	2.599593	1.609978	-0.650146	0.251709	0.436035	-0.069419	0.116488	0.132604	0.152766	-0.728645	-0.218464	-0.630882	161.371000	-80.444749	49.174540
26277		-6.177131	5.224871	10.589956	11.067224	0.074807	-17.236428	-0.632765	2.163071	1.988246	-0.654785	0.256104	0.413574	-0.061140	0.051975	0.106398	0.159024	-0.724360	-0.207535	-0.637921	165.758517	-81.961826	44.362095
26278		-1.490937	4.603232	9.863755	10.646885	0.789907	-12.405881	0.000474	2.154543	1.808180	-0.650635	0.269531	0.397461	-0.014261	0.045901	0.098794	0.166991	-0.719358	-0.199224	-0.644164	171.830588	-83.367289	38.236897
26279		2.263696	6.118230	9.858733	11.745387	-0.214108	-8.490384	0.641906	2.680514	1.182127	-0.659912	0.276123	0.377441	0.023596	0.061004	0.098471	0.175706	-0.711236	-0.194772	-0.652177	177.309632	-84.969776	33.094079
26280		3.321431	8.965912	9.266083	12.721850	-2.874631	-7.136197	0.936199	3.500924	0.455315	-0.671387	0.280518	0.343994	0.034631	0.089304	0.092481	0.183880	-0.699390	-0.193070	-0.663148	-178.763947	-86.970068	29.692408
26281		2.460763	11.216196	7.963833	12.677278	-5.448584	-7.605941	0.685350	4.263184	-0.139807	-0.680420	0.282715	0.306152	0.026381	0.111871	0.079472	0.189827	-0.684261	-0.191869	-0.677450	178.967998	-89.423892	32.349090
26282		1.913876	11.681548	7.011860	12.036947	-6.341190	-7.769363	0.056518	4.773056	-0.528338	-0.687012	0.273926	0.268799	0.021114	0.116742	0.069663	0.192737	-0.667408	-0.189256	-0.693975	8.207745	-87.828755	-156.860341
26283		2.293942	9.406238	6.350248	10.153252	-4.817078	-7.027676	-0.487581	5.101464	-0.889525	-0.699951	0.262695	0.229248	0.024963	0.094108	0.062653	0.192719	-0.649026	-0.185569	-0.712172	9.071460	-84.848920	-158.009387
26284		2.683252	6.444291	6.114861	8.214561	-2.521242	-6.310201	-0.611142	5.350442	-1.368214	-0.706543	0.253906	0.191895	0.028892	0.064435	0.060197	0.190739	-0.629119	-0.182579	-0.731090	10.772273	-81.703732	-160.077715
26285		2.840246	4.394973	6.055325	6.883130	-0.891406	-5.830152	-0.333065	5.503365	-1.922251	-0.712646	0.236084	0.147949	0.030474	0.043763	0.059661	0.187536	-0.607198	-0.182106	-0.750319	13.059185	-78.374821	-162.595334
26286		3.405032	3.866233	6.123384	6.302678	-0.496873	-4.908838	0.096092	5.586525	-2.452241	-0.711670	0.209473	0.113525	0.036213	0.038198	0.060261	0.183616	-0.583714	-0.184560	-0.769091	15.516702	-74.935676	-165.067237
26287		4.259029	4.442053	6.338638	6.205430	-0.973635	-3.602345	0.436264	5.668377	-2.889493	-0.715576	0.189697	0.074219	0.044999	0.043645	0.062229	0.178842	-0.558441	-0.189398	-0.787583	17.937839	-71.330813	-167.337118
26288		4.987869	4.991475	6.658263	6.068359	-1.345471	-2.365687	0.583312	5.728781	-3.178277	-0.721191	0.160889	0.024414	0.052543	0.048902	0.065246	0.173275	-0.532133	-0.195315	-0.805396	20.018170	-67.644490	-169.204404
26289		5.693501	5.184907	7.101010	5.711506	-1.334297	-1.136189	0.598702	5.773647	-3.347370	-0.722656	0.138672	-0.012695	0.059810	0.050654	0.069464	0.166852	-0.504672	-0.201545	-0.822707	21.736833	-63.850885	-170.714144
26290		6.103858	4.743980	7.716906	5.181567	-0.662442	-0.222023	0.594752	5.761880	-3.415762	-0.721436	0.103271	-0.055664	0.064025	0.046137	0.075491	0.160008	-0.476834	-0.207661	-0.838990	23.107465	-60.062761	-171.884541
26291		6.634100	4.168088	8.685114	4.679322	0.301755	0.900768	0.673515	5.671742	-3.381275	-0.716309	0.078857	-0.094727	0.069459	0.040236	0.085048	0.153150	-0.448592	-0.213920	-0.854136	24.258531	-56.288301	-172.786017
26292		8.351297	4.055659	10.057641	3.867599	1.004012	3.276140	0.864353	5.511649	-3.242537	-0.708496	0.050293	-0.135742	0.086883	0.038738	0.098383	0.147051	-0.420780	-0.220523	-0.867577	25.261829	-52.652780	-173.414478
26293		11.424877	4.615587	11.415731	2.211194	1.052293	6.802373	1.120914	5.416187	-3.030639	-0.696289	0.023926	-0.183594	0.117963	0.043758	0.111246	0.142079	-0.392761	-0.227691	-0.879607	26.178177	-49.082347	-173.768824
26294		13.788989	5.760051	12.167289	0.520524	0.351555	9.444671	1.301668	5.382101	-2.783282	-0.690674	-0.007080	-0.218018	0.141879	0.054867	0.118253	0.138449	-0.364900	-0.234919	-0.890221	26.972312	-45.621244	-173.839389
26295		16.286749	6.314679	13.207740	-1.622825	0.282627	12.021329	1.406415	5.261681	-2.539200	-0.667725	-0.026611	-0.254883	0.167050	0.060133	0.128149	0.135746	-0.337206	-0.242083	-0.899589	27.694645	-42.253948	-173.719800
26296		20.922053	6.722109	14.560926	-5.538316	0.311706	15.954888	1.600684	5.248409	-2.493909	-0.644043	-0.057373	-0.291504	0.213760	0.063436	0.140557	0.133516	-0.309434	-0.249786	-0.907762	28.476503	-38.938430	-173.517491
26297		24.083456	8.767364	14.617368	-8.777783	-1.626206	18.304562	1.756440	5.527851	-2.666291	-0.621094	-0.070313	-0.319824	0.245893	0.083169	0.140167	0.130883	-0.279538	-0.258084	-0.915489	29.340257	-35.407339	-173.281351
26298		24.150250	9.704360	12.568255	-11.084194	-3.525937	16.641066	1.615231	5.697250	-2.953471	-0.597900	-0.094238	-0.347900	0.246353	0.092447	0.119469	0.126900	-0.248534	-0.265707	-0.922782	30.163279	-31.743761	-173.102550
26299		23.461851	5.031168	9.937049	-14.787374	-1.027849	11.507614	1.354767	5.391226	-3.505189	-0.585938	-0.116211	-0.366943	0.238014	0.045514	0.093303	0.119425	-0.217882	-0.272768	-0.929442	31.033507	-28.045226	-173.289232
26300		23.657477	5.117193	8.340192	-16.781242	-1.862413	9.425739	1.144709	4.720164	-4.241553	-0.573730	-0.142822	-0.390381	0.239466	0.045656	0.078044	0.107337	-0.189461	-0.279720	-0.935061	32.011378	-24.479290	-174.024723
26301		26.805458	8.523250	6.964378	-20.267359	-5.371500	10.181878	0.201066	3.895347	-4.974103	-0.565918	-0.171387	-0.416016	0.271351	0.078444	0.064461	0.089599	-0.163992	-0.283154	-0.940693	32.639081	-21.055484	-175.347304
26302		30.067341	8.671056	2.834554	-25.572701	-7.472662	6.834070	-1.408114	3.227851	-5.559676	-0.562988	-0.193604	-0.437500	0.303330	0.078476	0.022892	0.066820	-0.141576	-0.279463	-0.947308	32.425498	-17.792980	-177.142520
26303		28.905086	3.060426	-3.224078	-27.905057	-5.192652	-2.791628	-2.848909	2.635463	-5.710650	-0.553223	-0.215576	-0.460938	0.289297	0.021846	-0.036405	0.041349	-0.121924	-0.268977	-0.954503	31.372911	-14.773425	-179.209204
26304		25.604042	-1.268426	-8.620303	-26.788474	-3.191061	-11.666142	-3.442691	1.967540	-5.226436	-0.548096	-0.235596	-0.475830	0.254704	-0.020862	-0.088401	0.016938	-0.106244	-0.255152	-0.960897	29.878520	-12.287812	178.729403
26305		32.408153	-12.205362	-13.105944	-35.024224	5.507077	-20.477732	-2.649982	1.369499	-3.942641	-0.538574	-0.250977	-0.490723	0.320669	-0.130139	-0.131574	-0.001699	-0.094817	-0.244330	-0.965044	28.680968	-10.496462	177.107771
26306		32.841473	-21.251282	-14.774901	-35.571163	13.636980	-27.048752	0.073200	1.216244	-2.626792	-0.539795	-0.275391	-0.505371	0.324680	-0.216739	-0.149810	-0.012847	-0.085819	-0.245878	-0.965409	28.889853	-9.171121	176.108040
26307		29.569581	-13.904988	-15.672294	-31.945749	6.681810	-25.564409	2.434067	0.739785	-1.545794	-0.523438	-0.297363	-0.500244	0.294033	-0.139397	-0.159508	-0.018360	-0.080553	-0.258298	-0.962526	30.369980	-8.371056	175.538737
26308		28.017124	-5.013004	-14.598049	-30.068554	-0.838462	-20.692332	2.630227	-0.100109	-0.598920	-0.522949	-0.310791	-0.484131	0.280097	-0.049045	-0.146490	-0.020305	-0.080583	-0.271129	-0.958949	31.920705	-8.252754	175.209957
26309		27.569911	-0.699316	-12.089909	-29.231753	-3.368767	-16.208092	1.368545	-1.017106	0.008880	-0.531982	-0.310791	-0.479736	0.276310	-0.006160	-0.119539	-0.021078	-0.085726	-0.277556	-0.956645	32.749766	-8.761261	174.896544
26310		17.935784	12.613242	-6.492575	-18.710035	-12.459389	-5.613588	-0.344607	-1.621528	0.397963	-0.548096	-0.297852	-0.455811	0.179626	0.126379	-0.063688	-0.021569	-0.094083	-0.275519	-0.956437	32.599118	-9.676437	174.580583
26311		-2.053311	-1.033565	-2.899245	1.388147	-0.784673	-13.151092	-2.690276	-3.109397	2.071481	-0.558105	-0.264648	-0.437012	-0.019969	-0.010936	-0.029161	-0.017186	-0.111654	-0.261270	-0.958632	31.045848	-11.834708	174.647875
26312		1.730561	8.947225	25.039614	4.715083	4.545064	16.013377	-2.184619	-4.156859	2.062704	-0.588379	-0.240479	-0.417969	0.011168	0.092339	0.249673	-0.013940	-0.134134	-0.249168	-0.959025	29.834461	-14.496944	174.453199
26313		4.541081	0.807182	18.803853	0.988398	8.458491	7.573495	-1.885787	-3.625723	1.164427	-0.600342	-0.218506	-0.389893	0.041939	0.010100	0.188731	-0.014118	-0.152964	-0.239028	-0.958785	28.876741	-16.652684	173.996801
26314		13.190874	-9.920452	8.211595	-10.362069	13.847750	-3.435443	-1.443061	-3.742943	1.115452	-0.614258	-0.201172	-0.361816	0.130881	-0.097865	0.085281	-0.014340	-0.172191	-0.230904	-0.957511	28.194735	-18.852179	173.509097
26315		17.666481	-6.977300	12.109930	-12.611849	13.432214	3.145060	-0.357988	-3.578937	1.108436	-0.619385	-0.187988	-0.337891	0.174841	-0.068580	0.124362	-0.013448	-0.190712	-0.227908	-0.954728	28.136202	-20.979067	173.073108
26316		17.771336	-0.735098	18.318089	-9.403112	10.479592	11.485778	-0.094680	-2.761903	1.603780	-0.621826	-0.179199	-0.315918	0.175212	-0.005852	0.185615	-0.009024	-0.205780	-0.225673	-0.952179	28.052414	-22.817977	173.142055
26317		14.015818	1.440927	13.555352	-7.133772	5.991665	7.376187	0.164446	-2.176829	1.428211	-0.622314	-0.165771	-0.305420	0.138565	0.015290	0.137080	-0.004477	-0.217928	-0.224815	-0.949708	28.083858	-24.325681	173.288673
26318		11.862074	6.382955	8.457393	-6.467715	-0.882748	4.690936	0.212216	-2.211994	1.060545	-0.626953	-0.163818	-0.285400	0.117335	0.064363	0.085945	-0.001693	-0.229698	-0.224561	-0.946999	28.231427	-25.739995	173.218273
26319		16.432339	7.687697	10.397414	-9.198212	-0.776408	8.949047	-0.139525	-1.912272	0.928143	-0.622803	-0.150391	-0.277100	0.162960	0.077709	0.105483	0.000432	-0.239976	-0.222747	-0.944878	28.171684	-26.980556	173.162788
