// General information: 
//  MT Manager version: 2019.2.0 
//  XDA version: 2019.2.0 build 3853 rev 94535 built on 2019-09-09
// Device information: 
//  DeviceId: 00B40AC7
//  ProductCode: MTW2-3A7G6
//  Firmware Version: 4.3.5
//  Hardware Version: 1.1.0
// Device settings: 
//  Filter Profile: human(46.1)
//  Option Flags: Orientation Smoother Disabled, AHS Disabled, ICC Disabled
// Coordinate system: ENU
PacketCounter	SampleTimeFine	Acc_X	Acc_Y	Acc_Z	FreeAcc_E	FreeAcc_N	FreeAcc_U	Gyr_X	Gyr_Y	Gyr_Z	Mag_X	Mag_Y	Mag_Z	VelInc_X	VelInc_Y	VelInc_Z	Quat_q0	Quat_q1	Quat_q2	Quat_q3	Roll	Pitch	Yaw
00251		9.526483	2.586652	-0.003868	0.147143	0.065260	0.057406	-0.048651	0.039007	-0.063022	-1.067383	0.129395	0.023438	0.095273	0.025836	-0.000064	-0.709064	-0.252638	0.654307	-0.072695	86.496209	-74.714115	-59.653923
00252		9.520408	2.539503	0.130627	0.054024	-0.038781	0.041240	-0.047469	0.037989	-0.069614	-1.067139	0.127197	0.019287	0.095213	0.025362	0.001282	-0.709262	-0.252701	0.654107	-0.072347	86.405352	-74.672464	-59.585648
00253		9.620055	2.405845	0.310437	-0.028220	-0.262572	0.104983	-0.010900	0.037681	-0.072348	-1.067139	0.127197	0.021484	0.096210	0.024024	0.003085	-0.709413	-0.252902	0.653891	-0.072114	86.336986	-74.629734	-59.518639
00254		9.697208	2.436500	0.344585	-0.055367	-0.274599	0.187944	0.021241	0.035126	-0.076287	-1.067139	0.129395	0.008057	0.096982	0.024328	0.003431	-0.709517	-0.253232	0.653667	-0.071963	86.293040	-74.584264	-59.458137
00255		9.688987	2.513059	0.232702	0.015339	-0.161898	0.198288	0.054233	0.032856	-0.073034	-1.064941	0.127197	0.019287	0.096899	0.025095	0.002318	-0.709570	-0.253668	0.653444	-0.071934	86.272702	-74.541293	-59.402208
00256		9.673028	2.568374	0.175514	0.044959	-0.090916	0.196535	0.060262	0.032797	-0.077720	-1.065186	0.131592	0.019043	0.096741	0.025646	0.001747	-0.709618	-0.254142	0.653210	-0.071905	86.256004	-74.495164	-59.346547
00257		9.678689	2.597111	0.121725	0.085838	-0.049402	0.208640	0.061907	0.032640	-0.075657	-1.071533	0.127197	0.019287	0.096797	0.025934	0.001209	-0.709661	-0.254614	0.652982	-0.071892	86.241281	-74.450693	-59.291859
00258		9.638501	2.725552	0.089152	0.058313	0.078897	0.203681	0.053887	0.034902	-0.075960	-1.069336	0.125000	0.017090	0.096396	0.027219	0.000882	-0.709722	-0.255057	0.652747	-0.071849	86.217416	-74.405561	-59.232770
00259		9.603523	2.765007	0.034874	0.089773	0.140209	0.179631	0.022984	0.037102	-0.066339	-1.060547	0.131592	0.012451	0.096044	0.027618	0.000334	-0.709825	-0.255359	0.652528	-0.071747	86.170456	-74.366233	-59.167743
00260		9.604966	2.739362	0.112852	0.037828	0.077841	0.175542	-0.005163	0.044617	-0.066271	-1.071533	0.122803	0.014893	0.096059	0.027362	0.001106	-0.709990	-0.255558	0.652291	-0.071560	86.091855	-74.326256	-59.086786
00261		9.617205	2.697742	0.176588	0.007752	0.006482	0.177284	-0.025638	0.044671	-0.061563	-1.064941	0.125000	0.008301	0.096181	0.026948	0.001741	-0.710178	-0.255668	0.652068	-0.071326	86.001653	-74.289314	-59.005754
00262		9.578024	2.682834	0.254560	-0.053575	-0.036106	0.137024	-0.022808	0.046385	-0.060275	-1.062744	0.127197	0.012451	0.095789	0.026800	0.002520	-0.710369	-0.255786	0.651838	-0.071106	85.909115	-74.252522	-58.920661
00263		9.552498	2.610188	0.323050	-0.079772	-0.126920	0.094138	-0.012332	0.046439	-0.057221	-1.069336	0.127197	0.012451	0.095533	0.026075	0.003207	-0.710544	-0.255929	0.651610	-0.070933	85.823114	-74.217920	-58.836044
00264		9.550747	2.615997	0.327804	-0.079987	-0.127119	0.094134	0.004941	0.051072	-0.064657	-1.067139	0.122803	0.012695	0.095517	0.026129	0.003254	-0.710716	-0.256156	0.651348	-0.070793	85.738608	-74.178506	-58.742859
00265		9.611556	2.589490	0.371711	-0.091998	-0.188067	0.146319	0.032278	0.056349	-0.067552	-1.071289	0.118164	0.008301	0.096125	0.025862	0.003694	-0.710870	-0.256488	0.651055	-0.070741	85.660549	-74.137509	-58.639897
00266		9.619830	2.561126	0.225035	0.059705	-0.151457	0.143448	0.052338	0.076457	-0.071502	-1.071533	0.120605	0.014893	0.096208	0.025576	0.002220	-0.711066	-0.256898	0.650677	-0.070763	85.554117	-74.092821	-58.495585
00267		9.568811	2.543893	0.182773	0.106383	-0.139101	0.088639	0.063995	0.087090	-0.080826	-1.066895	0.116211	0.015137	0.095699	0.025400	0.001794	-0.711284	-0.257374	0.650246	-0.070807	85.435919	-74.042758	-58.331935
00268		9.646972	2.676038	0.119512	0.126250	-0.019517	0.198466	0.056780	0.093232	-0.084833	-1.073486	0.116211	0.010498	0.096482	0.026719	0.001158	-0.711532	-0.257836	0.649791	-0.070816	85.302964	-73.989526	-58.157585
00269		9.663490	2.714573	0.228146	0.026556	-0.044363	0.227298	0.037876	0.106106	-0.088249	-1.073730	0.122803	0.012695	0.096648	0.027103	0.002235	-0.711847	-0.258237	0.649291	-0.070773	85.135200	-73.934101	-57.957845
00270		9.697790	2.493597	0.305924	0.071616	-0.281792	0.201013	0.022246	0.108528	-0.100537	-1.069092	0.116211	0.008301	0.096992	0.024887	0.003009	-0.712194	-0.258621	0.648772	-0.070634	84.957021	-73.870957	-57.756834
00271		9.729518	2.571338	0.271073	0.086673	-0.211800	0.251923	0.024750	0.105050	-0.109398	-1.064697	0.116211	0.006104	0.097311	0.025660	0.002663	-0.712529	-0.259043	0.648253	-0.070471	84.790269	-73.803185	-57.565853
00272		9.742156	2.634408	0.238691	0.103717	-0.151583	0.280524	0.015540	0.111915	-0.114067	-1.068848	0.109619	0.010742	0.097438	0.026288	0.002334	-0.712901	-0.259447	0.647706	-0.070268	84.606843	-73.731807	-57.363179
00273		9.712301	2.594648	0.203995	0.161746	-0.168737	0.239574	0.006825	0.105163	-0.124546	-1.068848	0.113770	-0.000488	0.097140	0.025886	0.001990	-0.713264	-0.259854	0.647172	-0.069993	84.435568	-73.655064	-57.178047
00274		9.708137	2.622277	0.316159	0.064057	-0.203387	0.246076	0.011008	0.098643	-0.137116	-1.068848	0.111572	-0.004639	0.097101	0.026156	0.003115	-0.713605	-0.260320	0.646643	-0.069675	84.283123	-73.570895	-57.010190
00275		9.755830	2.614660	0.346296	0.062623	-0.243854	0.290242	0.014359	0.098359	-0.147488	-1.068848	0.109375	0.001953	0.097579	0.026074	0.003417	-0.713943	-0.260831	0.646100	-0.069334	84.137084	-73.481186	-56.846714
00276		9.702804	2.614187	0.374615	0.044399	-0.254476	0.239773	0.016931	0.094895	-0.156368	-1.068848	0.111572	-0.004639	0.097050	0.026066	0.003702	-0.714271	-0.261382	0.645555	-0.068963	84.001789	-73.386093	-56.692863
00277		9.769291	2.614342	0.333906	0.106001	-0.262272	0.301919	0.019137	0.094186	-0.170325	-1.066650	0.109375	0.001953	0.097717	0.026060	0.003296	-0.714596	-0.261984	0.644994	-0.068551	83.874372	-73.283406	-56.545806
00278		9.838945	2.574473	0.299693	0.180897	-0.309360	0.355602	0.015708	0.099424	-0.186226	-1.073242	0.109375	-0.000244	0.098415	0.025653	0.002950	-0.714955	-0.262567	0.644417	-0.068013	83.739506	-73.170976	-56.403118
00279		9.848745	2.531814	0.265731	0.248335	-0.346314	0.350817	0.014084	0.093656	-0.210909	-1.064209	0.104980	-0.000244	0.098515	0.025214	0.002613	-0.715297	-0.263282	0.643805	-0.067438	83.622138	-73.045022	-56.269413
00280		9.936175	2.285056	-0.051936	0.668788	-0.447169	0.351193	0.059968	0.092007	-0.234932	-1.068604	0.102783	-0.004639	0.099388	0.022734	-0.000558	-0.715587	-0.264181	0.643175	-0.066857	83.540734	-72.905218	-56.156069
00281		9.948154	2.226590	-0.225651	0.866200	-0.438228	0.337780	0.170741	0.079140	-0.248115	-1.070557	0.096191	-0.010986	0.099508	0.022144	-0.002277	-0.715686	-0.265580	0.642512	-0.066634	83.550775	-72.758926	-56.061573
00282		10.098682	2.080289	-0.406223	1.126983	-0.537179	0.430227	0.355050	0.058338	-0.254552	-1.063965	0.096191	-0.008789	0.101012	0.020682	-0.004055	-0.715480	-0.267610	0.641872	-0.066888	83.705099	-72.610040	-56.017525
00283		10.074339	2.198475	-0.162566	0.864050	-0.569325	0.447978	0.469954	0.042151	-0.256557	-1.066406	0.100586	-0.004395	0.100771	0.021859	-0.001595	-0.715057	-0.270116	0.641224	-0.067545	83.954526	-72.461356	-55.994110
00284		10.034622	2.673627	0.056850	0.460329	-0.289393	0.557916	0.401284	0.031889	-0.281373	-1.068115	0.085205	-0.008545	0.100384	0.026594	0.000606	-0.714704	-0.272401	0.640622	-0.067816	84.185578	-72.299150	-56.002860
00285		10.031829	2.850267	0.062080	0.385757	-0.173581	0.607794	0.245117	0.018075	-0.327315	-1.068115	0.087402	-0.010742	0.100365	0.028338	0.000647	-0.714525	-0.274335	0.640033	-0.067467	84.358420	-72.111564	-56.034264
00286		9.965949	2.650531	0.060575	0.478887	-0.358225	0.482522	0.133262	0.008683	-0.376778	-1.065674	0.083008	-0.010742	0.099709	0.026317	0.000619	-0.714490	-0.275976	0.639467	-0.066506	84.489819	-71.895997	-56.099531
00287		9.772808	2.615146	0.154213	0.395949	-0.420470	0.288640	0.069761	-0.012074	-0.424789	-1.072266	0.074219	-0.006104	0.097783	0.025943	0.001557	-0.714482	-0.277603	0.638905	-0.065205	84.626900	-71.654406	-56.199138
00288		9.747703	2.777801	0.096015	0.388311	-0.291539	0.311893	0.005682	-0.035426	-0.473547	-1.070068	0.076416	-0.006104	0.097542	0.027547	0.000978	-0.714507	-0.279109	0.638400	-0.063429	84.771497	-71.385941	-56.355611
00289		9.611668	2.755697	0.189239	0.312811	-0.363872	0.176475	-0.046105	-0.046867	-0.512231	-1.072021	0.072021	-0.006104	0.096186	0.027311	0.001909	-0.714569	-0.280609	0.637871	-0.061397	84.907539	-71.096096	-56.524544
00290		9.378240	2.788464	0.149089	0.313298	-0.302496	-0.037247	-0.064631	-0.064889	-0.557685	-1.067139	0.058838	-0.010010	0.093859	0.027623	0.001512	-0.714614	-0.282135	0.637369	-0.059055	85.064465	-70.781166	-56.737287
00291		9.175512	2.731449	0.227545	0.254235	-0.383460	-0.247612	-0.025170	-0.088354	-0.592137	-1.067139	0.052246	-0.005371	0.091834	0.027043	0.002313	-0.714527	-0.283974	0.636860	-0.056744	85.280409	-70.447390	-56.978847
00292		9.321553	2.923368	0.131608	0.301426	-0.273371	-0.051086	-0.075036	-0.092653	-0.610857	-1.066895	0.050049	-0.007568	0.093304	0.028949	0.001348	-0.714501	-0.285638	0.636371	-0.054138	85.469134	-70.102603	-57.232362
00293		9.651303	3.442417	0.178328	0.114292	-0.016389	0.435045	-0.069343	-0.119926	-0.615204	-1.068848	0.041260	0.001465	0.096617	0.034128	0.001829	-0.714369	-0.287395	0.635943	-0.051559	85.696955	-69.756476	-57.514550
00294		10.171215	3.874823	0.560178	-0.290054	-0.049781	1.082023	-0.183402	-0.095729	-0.593695	-1.068848	0.034912	0.003906	0.101824	0.038451	0.005615	-0.714469	-0.288612	0.635507	-0.048664	85.812218	-69.421289	-57.757121
00295		10.113660	3.769805	0.656031	-0.309739	-0.219767	0.993949	-0.308287	-0.077775	-0.581852	-1.070801	0.028076	-0.000488	0.101243	0.037414	0.006542	-0.714791	-0.289393	0.635023	-0.045504	85.822758	-69.092066	-57.954597
00296		10.079856	3.267010	0.608493	-0.024490	-0.654490	0.780606	-0.414269	-0.072652	-0.584926	-1.068359	0.021484	-0.000244	0.100891	0.032388	0.006054	-0.715279	-0.289745	0.634559	-0.041938	85.762903	-68.760778	-58.152371
00297		10.184504	3.302150	0.341924	0.250080	-0.583357	0.880397	-0.492037	-0.083733	-0.592425	-1.065918	0.017334	0.001953	0.101941	0.032728	0.003381	-0.715832	-0.289897	0.634105	-0.038147	85.673191	-68.425891	-58.356134
00298		10.182781	3.485382	0.089782	0.433568	-0.366338	0.935448	-0.596327	-0.086106	-0.618188	-1.068115	0.014893	-0.002441	0.101935	0.034541	0.000838	-0.716525	-0.289697	0.633656	-0.033866	85.528256	-68.076481	-58.575410
00299		10.245340	3.348100	-0.303459	0.894360	-0.375857	0.926365	-0.734304	-0.114520	-0.647931	-1.065674	0.008545	0.004395	0.102563	0.033138	-0.003098	-0.717314	-0.289151	0.633251	-0.029062	85.346681	-67.711664	-58.830838
00300		10.453228	3.149929	-0.667654	1.385794	-0.504728	1.025305	-0.864930	-0.129229	-0.663990	-1.072266	0.001953	0.006836	0.104640	0.031123	-0.006744	-0.718232	-0.288124	0.632903	-0.023705	85.110770	-67.339149	-59.119248
00301		10.568026	3.085388	-1.068787	1.840733	-0.485135	1.083222	-0.954173	-0.154424	-0.674566	-1.058350	-0.009033	-0.001709	0.105792	0.030446	-0.010752	-0.719172	-0.286862	0.632595	-0.018050	84.858734	-66.961900	-59.436293
00302		10.517037	3.044485	-1.580519	2.355708	-0.352188	0.990132	-1.009437	-0.165567	-0.679710	-1.064941	-0.015625	0.007324	0.105286	0.030007	-0.015870	-0.720134	-0.285350	0.632326	-0.012127	84.588526	-66.583276	-59.778879
00303		10.753207	2.847750	-2.435923	3.300350	-0.311196	1.081574	-0.925705	-0.131795	-0.655422	-1.058105	-0.022217	0.003174	0.107640	0.028012	-0.024419	-0.721053	-0.284109	0.631918	-0.006662	84.318458	-66.216849	-60.060233
00304		10.795890	2.681523	-2.831184	3.778191	-0.379941	1.019560	-0.798868	-0.075252	-0.635463	-1.060059	-0.026611	0.003174	0.108054	0.026359	-0.028377	-0.721950	-0.283195	0.631336	-0.001692	84.045126	-65.859443	-60.269038
00305		10.663530	2.864117	-3.435390	4.282696	-0.007770	0.928529	-0.606281	-0.055786	-0.616630	-1.062256	-0.033203	0.005615	0.106732	0.028208	-0.034410	-0.722618	-0.282967	0.630671	0.002516	83.855630	-65.511532	-60.439540
00306		10.727669	3.304561	-3.764173	4.479854	0.407628	1.138860	-0.204106	0.034849	-0.503997	-1.062012	-0.035400	0.005615	0.107353	0.032737	-0.037694	-0.722995	-0.283780	0.629860	0.004977	83.768281	-65.222971	-60.478776
00307		9.376638	5.031447	-3.090461	3.018228	2.023242	0.655557	-0.477141	-0.078031	-0.486594	-1.059570	-0.044189	0.008057	0.093900	0.050012	-0.030988	-0.723397	-0.283600	0.629443	0.008339	83.661342	-64.950803	-60.659540
00308		8.606942	5.154045	-3.900300	3.606398	2.672723	-0.029754	-0.888528	-0.244936	-0.487632	-1.057373	-0.044189	0.008057	0.086242	0.051157	-0.039125	-0.723839	-0.281870	0.629627	0.013292	83.521430	-64.689433	-61.073803
00309		7.931263	5.677754	-3.661865	3.137870	3.203908	-0.408489	-1.232138	-0.324517	-0.502896	-1.057373	-0.048340	0.014893	0.079514	0.056351	-0.036838	-0.724491	-0.278982	0.630004	0.019437	83.278294	-64.424642	-61.583572
00310		7.251336	6.235377	-3.341761	2.613410	3.742011	-0.768611	-1.592567	-0.367614	-0.522789	-1.054688	-0.059326	0.012939	0.072737	0.061896	-0.033778	-0.725457	-0.274780	0.630464	0.026904	82.881866	-64.153182	-62.162190
00311		6.846962	5.800199	-3.318150	2.751342	3.453269	-1.325231	-1.889220	-0.410649	-0.464985	-1.050293	-0.059326	0.019531	0.068672	0.057527	-0.033586	-0.726647	-0.269340	0.631037	0.035099	82.353814	-63.919287	-62.776039
00312		6.625594	4.961619	-2.998961	2.758629	2.649518	-1.883078	-2.161728	-0.434562	-0.354503	-1.054443	-0.065918	0.019775	0.066409	0.049172	-0.030379	-0.728058	-0.262482	0.631754	0.043835	81.681831	-63.752912	-63.412771
00313		6.104647	4.404130	-2.509527	2.443830	2.162557	-2.580065	-2.419323	-0.462725	-0.221798	-1.050049	-0.063477	0.026367	0.061154	0.043667	-0.025484	-0.729655	-0.254271	0.632577	0.052878	80.870020	-63.667625	-64.050606
00314		5.429518	1.486333	-1.735499	2.351082	-0.370817	-4.424224	-2.694334	-0.498197	0.059366	-1.052246	-0.065674	0.028564	0.054334	0.014645	-0.017418	-0.731428	-0.244070	0.633733	0.061855	79.892155	-63.749028	-64.686890
00315		4.787345	-0.909739	-0.847034	1.891549	-2.483182	-5.976102	-2.712620	-0.572601	0.386774	-1.050293	-0.061279	0.028320	0.047915	-0.009117	-0.008210	-0.732960	-0.232740	0.635407	0.069718	78.917614	-64.027322	-65.329674
00316		5.128334	-0.688078	-0.191276	1.228052	-2.596104	-5.504358	-2.452204	-0.666665	0.569044	-1.050537	-0.052490	0.034912	0.051308	-0.006756	-0.001658	-0.733807	-0.221665	0.637637	0.076236	78.161683	-64.423030	-66.055517
00317		5.588508	-2.149658	0.899709	0.430340	-4.306402	-5.578217	-1.906396	-0.717565	0.837202	-1.055176	-0.045898	0.041260	0.055941	-0.021174	0.009401	-0.733895	-0.211730	0.640441	0.080022	77.712870	-64.978221	-66.764492
00318		5.920851	-1.684678	2.208358	-0.943677	-4.241981	-4.925400	-1.270639	-0.773706	0.941034	-1.051025	-0.039063	0.054443	0.059200	-0.016426	0.022418	-0.733086	-0.203707	0.643776	0.081496	77.684585	-65.599940	-67.539971
00319		5.807626	-1.508982	2.919481	-1.752989	-4.118179	-4.863356	-0.381997	-0.842686	1.017838	-1.049072	-0.028076	0.065186	0.058028	-0.014738	0.029468	-0.731149	-0.198698	0.647740	0.079840	78.256107	-66.271136	-68.402844
00320		6.562233	-1.193228	2.872736	-1.704384	-4.052959	-4.032775	0.578530	-0.922277	1.126629	-1.049561	-0.014648	0.075928	0.065555	-0.011646	0.028996	-0.727990	-0.196756	0.652474	0.074803	79.508038	-67.007038	-69.411048
00321		7.223097	-0.996857	2.629990	-1.467528	-4.028482	-3.355059	1.473989	-0.962116	1.167595	-1.050049	-0.001465	0.082275	0.072161	-0.009742	0.026575	-0.723786	-0.197957	0.657648	0.066675	81.396436	-67.758345	-70.539126
00322		6.829577	0.347511	2.148215	-1.342559	-2.537282	-3.244754	2.375755	-1.087515	1.179747	-1.052490	0.003174	0.095459	0.068156	0.003619	0.021895	-0.718156	-0.202254	0.663507	0.055705	84.093300	-68.508263	-71.984219
00323		6.851022	3.654882	1.486259	-1.460942	0.630229	-2.068741	2.978864	-1.165492	1.177936	-1.050781	0.020752	0.108154	0.068204	0.036720	0.015807	-0.711490	-0.208704	0.669625	0.042752	87.399266	-69.230912	-73.695927
00324		7.786536	4.317824	0.991786	-1.246161	1.049782	-1.003719	3.055532	-1.075233	1.176582	-1.053467	0.036377	0.121094	0.077553	0.043473	0.010998	-0.704828	-0.215333	0.675263	0.029494	90.783615	-69.915204	-75.445291
00325		9.453522	5.182348	0.716269	-1.299593	1.381250	0.823850	3.057372	-0.920780	1.206180	-1.053955	0.051758	0.131836	0.094184	0.052270	0.008394	-0.698490	-0.221883	0.680166	0.015896	94.091053	-70.583154	-77.095492
00326		10.367905	6.811159	1.638712	-2.844911	2.321238	2.148995	2.724074	-0.748378	1.265404	-1.047852	0.067383	0.142334	0.103182	0.068530	0.017705	-0.692922	-0.226967	0.684350	0.003082	97.099075	-71.263158	-78.633023
00327		10.505954	8.491705	2.404430	-4.350143	3.578359	2.698527	2.099431	-0.588908	1.239293	-1.046143	0.080566	0.150879	0.104459	0.085305	0.025247	-0.688477	-0.229988	0.687782	-0.007739	99.621100	-71.916410	-80.020635
00328		10.472703	8.909721	2.439683	-4.751113	3.990519	2.697756	1.452594	-0.449610	1.115178	-1.044189	0.089600	0.155273	0.104173	0.089498	0.025280	-0.685170	-0.231120	0.690557	-0.016013	101.618235	-72.496737	-81.250437
00329		10.441410	9.198447	2.633292	-5.208479	4.240269	2.655589	0.976428	-0.383715	0.954898	-1.051025	0.100586	0.159180	0.103922	0.092351	0.026983	-0.682611	-0.231209	0.692886	-0.022224	103.254107	-72.983368	-82.374979
00330		10.216329	10.222841	3.310727	-6.334528	5.040785	2.609207	0.443930	-0.289101	0.805958	-1.049072	0.107178	0.156982	0.101702	0.102565	0.033482	-0.680985	-0.229921	0.694775	-0.026133	104.414242	-73.391528	-83.327901
00331		9.691886	9.715631	3.215139	-6.146720	4.844911	1.909384	-0.158697	-0.165355	0.734440	-1.049316	0.113770	0.161133	0.096535	0.097537	0.032154	-0.680480	-0.226865	0.696204	-0.027905	105.003283	-73.774125	-84.034159
00332		9.113367	6.797578	2.750459	-4.710957	2.643717	0.562403	-0.569495	-0.091483	0.635169	-1.047363	0.120361	0.165527	0.090904	0.068343	0.027352	-0.680702	-0.222687	0.697334	-0.027931	105.188839	-74.110926	-84.573785
00333		9.073049	5.654206	1.398113	-3.040926	2.168568	0.301394	-0.764670	-0.116248	0.506032	-1.045166	0.122559	0.165283	0.090579	0.056824	0.013817	-0.681058	-0.218350	0.698399	-0.026870	105.254724	-74.372826	-85.094877
00334		9.386721	6.294541	1.572102	-3.410713	2.677978	0.741849	-0.727155	-0.234913	0.561311	-1.047363	0.124756	0.171875	0.093672	0.063265	0.015601	-0.680938	-0.213903	0.699926	-0.025936	105.621353	-74.645945	-85.914854
00335		7.750808	4.935217	1.754751	-3.164634	1.876810	-1.211930	-0.330302	-0.174812	0.439489	-1.045410	0.129395	0.176270	0.077384	0.049551	0.017533	-0.680608	-0.211277	0.701037	-0.026102	106.044289	-74.860487	-86.546780
00336		8.620320	2.179483	-0.403955	-0.231381	-0.115384	-0.915718	0.279707	-0.332662	0.580494	-1.043213	0.131592	0.176270	0.086146	0.022050	-0.003866	-0.679058	-0.210196	0.702764	-0.028655	107.246645	-75.123318	-87.633050
00337		8.989649	3.952055	0.534672	-1.757825	1.130213	-0.202758	0.484470	-0.280749	0.485595	-1.043457	0.140381	0.178223	0.089792	0.039725	0.005569	-0.677476	-0.210189	0.704160	-0.031723	108.435073	-75.338459	-88.572430
00338		11.241215	3.250816	-0.367744	-0.715606	0.259033	1.870131	0.275966	-0.286792	0.574352	-1.045898	0.146973	0.182373	0.112323	0.032836	-0.003471	-0.676073	-0.209106	0.705709	-0.034287	109.611343	-75.594731	-89.631652
00339		12.191448	1.606978	0.011353	-0.565789	-1.544720	2.373663	0.135282	-0.217795	0.592225	-1.041748	0.157959	0.186523	0.121866	0.016431	0.000257	-0.675046	-0.207525	0.707043	-0.036551	110.615290	-75.869982	-90.584990
00340		11.955206	1.499636	0.366298	-0.914906	-1.647093	2.093597	0.206687	-0.244815	0.568510	-1.039551	0.157959	0.188965	0.119504	0.015332	0.003825	-0.673851	-0.206215	0.708440	-0.038896	111.734986	-76.121834	-91.624423
00341		12.080214	1.554091	0.450941	-1.068326	-1.604947	2.221950	0.190463	-0.264360	0.534764	-1.041748	0.157959	0.191162	0.120754	0.015859	0.004684	-0.672599	-0.205028	0.709847	-0.041112	112.897868	-76.347262	-92.706761
00342		11.709237	1.295377	0.217486	-0.810217	-1.630618	1.828437	0.128461	-0.295405	0.487681	-1.037842	0.168945	0.190674	0.117057	0.013238	0.002356	-0.671310	-0.203746	0.711332	-0.042854	114.081567	-76.534881	-93.856325
00343		11.310941	1.819629	-0.060920	-0.778622	-0.928910	1.579533	0.095967	-0.325384	0.429841	-1.042236	0.173340	0.195068	0.113071	0.018440	-0.000416	-0.669949	-0.202624	0.712845	-0.044319	115.286912	-76.680250	-95.036269
00344		10.965059	2.187457	-0.215492	-0.804494	-0.429148	1.333266	-0.061181	-0.308727	0.407726	-1.040039	0.173584	0.206055	0.109609	0.022097	-0.001992	-0.668812	-0.200990	0.714324	-0.045104	116.364217	-76.812386	-96.186777
00345		10.473259	1.716220	-0.656874	-0.257860	-0.571157	0.802073	-0.177089	-0.287930	0.401926	-1.036133	0.184570	0.208008	0.104707	0.017367	-0.006433	-0.667857	-0.199042	0.715734	-0.045539	117.347263	-76.942719	-97.297798
00346		10.255604	1.618257	-1.117276	0.176129	-0.431676	0.619328	-0.201925	-0.273070	0.387352	-1.038330	0.186768	0.205811	0.102540	0.016370	-0.011049	-0.666981	-0.197060	0.717078	-0.045845	118.283991	-77.064927	-98.375686
00347		10.238859	1.715604	-1.387430	0.362060	-0.224614	0.652532	-0.224947	-0.261201	0.355126	-1.029297	0.184814	0.214844	0.102376	0.017322	-0.013760	-0.666171	-0.195111	0.718354	-0.045979	119.163434	-77.170812	-99.407482
00348		9.947928	1.528653	-1.460618	0.473816	-0.287173	0.342330	-0.243199	-0.248917	0.328249	-1.031494	0.184814	0.219238	0.099472	0.015432	-0.014501	-0.665428	-0.193196	0.719561	-0.045963	119.983942	-77.262937	-100.389500
00349		9.701011	1.417402	-1.506730	0.535836	-0.302324	0.087326	-0.214388	-0.237868	0.300447	-1.034180	0.195801	0.216553	0.097007	0.014304	-0.014967	-0.664697	-0.191472	0.720696	-0.045975	120.776199	-77.341861	-101.324969
00350		9.627913	1.295565	-1.475958	0.524191	-0.391900	-0.008341	-0.135103	-0.213716	0.274670	-1.025146	0.191406	0.221191	0.096277	0.013078	-0.014666	-0.663983	-0.190099	0.721702	-0.046205	121.534350	-77.412128	-102.178980
00351		9.462487	1.191552	-1.392917	0.463396	-0.462717	-0.196567	-0.063607	-0.188509	0.258540	-1.032227	0.200195	0.229736	0.094622	0.012033	-0.013844	-0.663291	-0.189014	0.722593	-0.046668	122.268073	-77.480126	-102.965449
00352		9.190920	1.052559	-1.674669	0.764487	-0.427847	-0.452247	0.032135	-0.174650	0.249476	-1.029785	0.197998	0.223389	0.091911	0.010643	-0.016665	-0.662562	-0.188277	0.723403	-0.047455	123.019274	-77.545463	-103.713729
00353		8.991253	1.378675	-1.944063	0.895095	0.017548	-0.554113	0.138192	-0.164835	0.230185	-1.023193	0.200439	0.229980	0.089913	0.013904	-0.019357	-0.661768	-0.187956	0.724138	-0.048575	123.792635	-77.602854	-104.422003
00354		8.924640	1.934687	-1.962443	0.704814	0.567700	-0.516222	0.186192	-0.152799	0.223405	-1.027832	0.202393	0.227539	0.089240	0.019465	-0.019538	-0.660975	-0.187818	0.724811	-0.049854	124.561728	-77.658513	-105.097840
00355		8.855200	2.357272	-1.714323	0.308371	0.910130	-0.539786	0.193990	-0.140684	0.234167	-1.025635	0.204834	0.229736	0.088536	0.023693	-0.017058	-0.660213	-0.187661	0.725452	-0.051212	125.334615	-77.721578	-105.772593
00356		8.658580	2.276718	-1.429689	0.055833	0.801580	-0.782032	0.161336	-0.151902	0.251221	-1.027832	0.207031	0.234131	0.086568	0.022887	-0.014213	-0.659435	-0.187339	0.726150	-0.052493	126.144130	-77.786456	-106.503992
00357		8.688718	2.313934	-1.259992	-0.142181	0.792968	-0.769093	0.158436	-0.154050	0.265575	-1.023682	0.213623	0.233887	0.086866	0.023265	-0.012515	-0.658645	-0.186952	0.726870	-0.053813	126.990114	-77.855322	-107.274029
00358		8.991912	2.219702	-1.347996	-0.070916	0.693586	-0.479281	0.153189	-0.139980	0.292341	-1.025635	0.209229	0.231934	0.089896	0.022339	-0.013400	-0.657904	-0.186450	0.727565	-0.055211	127.853651	-77.938434	-108.065037
00359		9.177609	1.671536	-1.857328	0.557208	0.339971	-0.323428	0.169684	-0.139895	0.330373	-1.021484	0.218018	0.233887	0.091761	0.016883	-0.018495	-0.657132	-0.185860	0.728290	-0.056798	128.804736	-78.036428	-108.935461
00360		9.303733	1.388070	-2.345280	1.077005	0.241168	-0.181058	0.172024	-0.127717	0.363158	-1.023926	0.222412	0.235840	0.093027	0.014070	-0.023381	-0.656393	-0.185157	0.729001	-0.058508	129.800820	-78.149868	-109.850289
00361		9.409695	1.144404	-2.776297	1.531098	0.169770	-0.056325	0.156189	-0.107270	0.397340	-1.019531	0.224609	0.238037	0.094089	0.011653	-0.027703	-0.655728	-0.184268	0.729678	-0.060296	130.827628	-78.282881	-110.805232
00362		9.609092	1.135802	-2.454805	1.196290	0.054196	0.097740	0.115809	-0.047442	0.408355	-1.021973	0.233398	0.237793	0.096073	0.011568	-0.024519	-0.655313	-0.183191	0.730177	-0.062023	131.746787	-78.439484	-111.673422
00363		10.133434	0.921658	-1.919229	0.714300	-0.379174	0.510356	0.071026	0.010566	0.418320	-1.019775	0.233398	0.244629	0.101314	0.009435	-0.019194	-0.655144	-0.181908	0.730508	-0.063676	132.564738	-78.620385	-112.463966
00364		10.783085	0.759766	-0.626657	-0.494459	-1.033797	0.954461	0.048503	0.113841	0.381362	-1.015381	0.237793	0.244385	0.107813	0.007805	-0.006326	-0.655382	-0.180657	0.730469	-0.065216	133.101915	-78.823673	-112.980811
00365		10.928155	0.202831	-0.924851	-0.036140	-1.434090	1.062192	0.224087	0.104610	0.357096	-1.020020	0.239990	0.235596	0.109273	0.002234	-0.009303	-0.655432	-0.180068	0.730379	-0.067313	133.732641	-79.012620	-113.490141
00366		11.180617	0.606664	-1.311164	0.157999	-0.930199	1.421322	0.435673	0.120413	0.371261	-1.015869	0.253174	0.232910	0.111787	0.006303	-0.013165	-0.655341	-0.180118	0.730173	-0.070239	134.498898	-79.212136	-114.013731
00367		11.412805	1.962121	-0.413188	-1.185332	0.026842	1.714101	0.523105	0.155307	0.375169	-1.018066	0.250977	0.230713	0.114088	0.019846	-0.004169	-0.655290	-0.180422	0.729819	-0.073531	135.275342	-79.426345	-114.496318
00368		11.290623	2.137381	0.558780	-2.151016	-0.082903	1.488858	0.411095	0.137807	0.360984	-1.018066	0.253174	0.235107	0.112871	0.021566	0.005554	-0.655277	-0.180419	0.729543	-0.076348	136.016419	-79.626197	-115.007950
00369		10.807251	1.424439	0.298775	-1.623547	-0.534424	0.957333	0.290865	0.052788	0.355776	-1.018555	0.263916	0.228271	0.108048	0.014432	0.002980	-0.655058	-0.180069	0.729583	-0.078636	136.888606	-79.787655	-115.722482
00370		10.739773	0.878077	-0.243730	-0.928685	-0.803314	0.895499	0.198084	0.000528	0.329251	-1.013916	0.259766	0.230713	0.107383	0.008960	-0.002429	-0.654741	-0.179534	0.729801	-0.080447	137.779345	-79.914585	-116.509749
00371		10.744195	0.731508	-0.680983	-0.485016	-0.754654	0.940533	0.130511	-0.027988	0.286621	-1.014160	0.270752	0.239258	0.107432	0.007473	-0.006790	-0.654394	-0.178942	0.730102	-0.081850	138.612818	-80.011171	-117.277699
00372		10.391623	0.736740	-1.025775	-0.155089	-0.548276	0.639877	0.067592	-0.055637	0.250717	-1.009766	0.270752	0.232666	0.103910	0.007501	-0.010226	-0.654019	-0.178287	0.730483	-0.082876	139.391686	-80.080263	-118.026887
00373		10.213855	0.793839	-1.494482	0.257014	-0.280085	0.533420	0.105337	-0.043503	0.239155	-1.012207	0.275146	0.228027	0.102132	0.008068	-0.014918	-0.653655	-0.177792	0.730799	-0.084018	140.151317	-80.148782	-118.734166
00374		9.924759	1.107342	-1.654379	0.299153	0.132720	0.304469	0.142626	-0.014141	0.253051	-1.012207	0.272949	0.236816	0.099235	0.011211	-0.016529	-0.653360	-0.177356	0.731012	-0.085363	140.913392	-80.233619	-119.422356
00375		9.728568	1.254977	-1.837025	0.419298	0.388699	0.150630	0.132105	0.042571	0.256775	-1.007813	0.277344	0.228027	0.097266	0.012687	-0.018383	-0.653277	-0.176846	0.731048	-0.086736	141.576773	-80.343771	-120.016054
00376		9.585288	1.214636	-1.627999	0.247948	0.322832	-0.023013	0.055929	0.073692	0.230978	-1.010010	0.279541	0.228027	0.095833	0.012262	-0.016312	-0.653387	-0.176170	0.730990	-0.087770	142.072777	-80.457659	-120.484312
00377		9.701705	1.010159	-1.455815	0.154553	0.078661	0.047981	-0.015277	0.094378	0.201016	-1.010010	0.281738	0.227783	0.097000	0.010198	-0.014605	-0.653646	-0.175359	0.730869	-0.088468	142.417346	-80.569953	-120.839998
00378		9.823452	0.735880	-1.313612	0.118256	-0.222995	0.122280	-0.081222	0.109580	0.157950	-1.005615	0.283936	0.227783	0.098221	0.007431	-0.013193	-0.654038	-0.174485	0.730688	-0.088793	142.577168	-80.673741	-121.046842
00379		9.844613	0.466621	-1.099710	0.024234	-0.536125	0.089609	-0.129060	0.099494	0.106693	-1.010254	0.283936	0.229980	0.098438	0.004712	-0.011049	-0.654455	-0.173645	0.730518	-0.088771	142.594913	-80.755177	-121.137217
00380		9.790584	0.443641	-0.992272	-0.056860	-0.579069	0.020847	-0.089909	0.062899	0.051896	-1.014648	0.283936	0.229980	0.097902	0.004457	-0.009956	-0.654731	-0.173150	0.730399	-0.088677	142.557154	-80.800768	-121.148849
00381		9.811787	0.604186	-0.858096	-0.238147	-0.477466	0.040629	-0.054304	0.037571	0.006154	-1.010254	0.283691	0.223389	0.098116	0.006043	-0.008601	-0.654901	-0.172949	0.730311	-0.088545	142.468966	-80.819013	-121.088501
00382		9.699301	0.510114	-0.970546	-0.086986	-0.509927	-0.065327	-0.019299	0.014169	-0.038658	-1.010010	0.281494	0.225586	0.096993	0.005081	-0.009713	-0.654977	-0.173038	0.730242	-0.088370	142.322033	-80.810865	-120.948579
00383		9.718189	0.417516	-1.144380	0.109147	-0.541572	-0.034042	0.009554	-0.000235	-0.082116	-1.010254	0.285889	0.223389	0.097184	0.004136	-0.011443	-0.654993	-0.173385	0.730172	-0.088149	142.105176	-80.780951	-120.720817
00384		9.696721	0.462608	-1.283273	0.225821	-0.456739	-0.033752	0.061517	-0.005892	-0.125524	-1.012451	0.283691	0.225586	0.096970	0.004569	-0.012828	-0.654964	-0.174063	0.730058	-0.087968	141.808604	-80.732937	-120.382366
00385		9.667266	0.567444	-1.441794	0.339799	-0.312100	-0.032917	0.115873	-0.007734	-0.173949	-1.010010	0.279297	0.225830	0.096678	0.005599	-0.014411	-0.654900	-0.175097	0.729886	-0.087828	141.421386	-80.666604	-119.920183
00386		9.618528	0.652521	-1.349740	0.232204	-0.276532	-0.084725	0.131623	-0.000738	-0.226540	-1.012207	0.275146	0.228027	0.096193	0.006425	-0.013493	-0.654872	-0.176371	0.729634	-0.087576	140.889772	-80.583841	-119.302664
00387		9.610744	0.766154	-1.266514	0.120541	-0.221545	-0.091896	0.128828	-0.000645	-0.269671	-1.014404	0.277344	0.232422	0.096118	0.007540	-0.012660	-0.654862	-0.177792	0.729346	-0.087176	140.255848	-80.484465	-118.582624
00388		9.690382	0.758625	-1.245744	0.106363	-0.272807	-0.017531	0.113378	-0.003971	-0.311593	-1.016357	0.268311	0.228271	0.096916	0.007442	-0.012451	-0.654873	-0.179318	0.729035	-0.086576	139.523933	-80.366691	-117.772215
00389		9.670955	0.994509	-1.167523	-0.043086	-0.109779	-0.021593	0.099857	-0.002801	-0.339953	-1.016357	0.266113	0.226074	0.096726	0.009787	-0.011669	-0.654907	-0.180901	0.728700	-0.085838	138.732170	-80.237075	-116.908394
00390		9.738716	1.283628	-1.073475	-0.233015	0.080517	0.065661	0.067114	-0.001104	-0.356784	-1.018555	0.268311	0.223633	0.097410	0.012666	-0.010730	-0.654986	-0.182437	0.728354	-0.084923	137.896192	-80.099653	-116.018653
00391		9.964008	1.136910	-1.175676	-0.088189	-0.084723	0.283905	0.053915	0.009045	-0.359705	-1.013916	0.259766	0.230713	0.099660	0.011193	-0.011758	-0.655109	-0.183935	0.727976	-0.083963	137.049747	-79.963240	-115.125332
00392		9.930614	0.985655	-1.421520	0.212179	-0.161176	0.263931	0.058375	0.028308	-0.354146	-1.018311	0.259521	0.223877	0.099321	0.009685	-0.014226	-0.655297	-0.185419	0.727535	-0.083052	136.196921	-79.834687	-114.222839
00393		9.792100	1.322720	-1.465073	0.149715	0.156103	0.174022	0.079132	0.050145	-0.342515	-1.018311	0.255127	0.219727	0.097940	0.013065	-0.014670	-0.655536	-0.186919	0.727024	-0.082277	135.358179	-79.717504	-113.321955
00394		9.838513	1.640595	-1.364604	-0.051532	0.375928	0.247431	0.110077	0.071389	-0.311457	-1.022705	0.252930	0.224121	0.098406	0.016260	-0.013672	-0.655810	-0.188398	0.726456	-0.081734	134.575063	-79.619172	-112.459541
00395		9.679058	1.830031	-1.218364	-0.232786	0.498910	0.097632	0.108860	0.079140	-0.271732	-1.017822	0.244141	0.224365	0.096811	0.018175	-0.012212	-0.656094	-0.189725	0.725900	-0.081326	133.877156	-79.538353	-111.683969
00396		9.732230	1.861061	-1.064922	-0.375685	0.442239	0.136038	0.094844	0.083354	-0.230682	-1.024658	0.248535	0.217529	0.097339	0.018503	-0.010681	-0.656390	-0.190856	0.725372	-0.081003	133.257221	-79.474507	-110.995939
00397		9.821329	1.775506	-1.067719	-0.332915	0.333620	0.213717	0.075015	0.084097	-0.193412	-1.020264	0.246338	0.219971	0.098226	0.017664	-0.010712	-0.656690	-0.191785	0.724886	-0.080733	132.712145	-79.425433	-110.395229
00398		9.822618	1.752754	-1.023595	-0.352354	0.282810	0.207271	0.035521	0.076420	-0.165026	-1.020020	0.239746	0.224365	0.098237	0.017448	-0.010270	-0.656990	-0.192485	0.724465	-0.080403	132.222835	-79.384248	-109.874446
00399		9.862700	1.729585	-0.933637	-0.417010	0.209798	0.233111	-0.005819	0.069486	-0.145643	-1.022461	0.246338	0.213135	0.098636	0.017224	-0.009371	-0.657294	-0.192981	0.724103	-0.079984	131.771471	-79.348025	-109.416045
00400		9.873154	1.675646	-1.064308	-0.264622	0.196314	0.252655	-0.060847	0.067883	-0.135750	-1.017822	0.241943	0.213379	0.098739	0.016686	-0.010682	-0.657643	-0.193262	0.723776	-0.079393	131.312500	-79.314602	-108.982214
00401		9.828582	1.425126	-1.206206	-0.022648	0.018002	0.191616	-0.103171	0.069628	-0.123590	-1.024414	0.239746	0.219971	0.098290	0.014184	-0.012104	-0.658032	-0.193358	0.723474	-0.078694	130.854918	-79.286612	-108.574151
00402		9.701506	1.437747	-1.105704	-0.100322	0.005680	0.056395	-0.110620	0.065803	-0.118718	-1.026611	0.239746	0.215576	0.097020	0.014314	-0.011097	-0.658414	-0.193414	0.723189	-0.077976	130.410944	-79.258547	-108.184527
00403		9.639251	1.430134	-1.033447	-0.148936	-0.025831	-0.014443	-0.107987	0.057958	-0.118842	-1.022217	0.239746	0.215576	0.096398	0.014238	-0.010370	-0.658762	-0.193482	0.722930	-0.077264	129.991247	-79.227156	-107.817757
00404		9.385347	1.432034	-1.140897	-0.026133	0.051520	-0.250587	-0.086612	0.039735	-0.108926	-1.028564	0.232910	0.213623	0.093859	0.014264	-0.011434	-0.659022	-0.193591	0.722730	-0.076640	129.644452	-79.192811	-107.512984
00405		9.449813	1.672512	-1.249448	-0.011962	0.290544	-0.139383	-0.102670	0.046861	-0.112369	-1.026367	0.235352	0.213379	0.094505	0.016666	-0.012525	-0.659322	-0.193656	0.722511	-0.075957	129.270243	-79.159357	-107.189343
00406		9.672103	1.418286	-1.263435	0.096525	0.014246	0.043673	-0.168359	0.062968	-0.117405	-1.021973	0.230713	0.209229	0.096725	0.014115	-0.012677	-0.659748	-0.193518	0.722256	-0.075032	128.811030	-79.128843	-106.817723
00407		9.582985	1.051981	-1.287742	0.273667	-0.305868	-0.095173	-0.157400	0.035777	-0.124763	-1.024170	0.233154	0.213623	0.095834	0.010450	-0.012903	-0.660064	-0.193452	0.722081	-0.074100	128.412888	-79.084984	-106.501568
00408		9.602116	1.316681	-1.126613	0.033213	-0.137492	-0.056484	-0.114166	0.026755	-0.138925	-1.028564	0.230957	0.215820	0.096029	0.013094	-0.011286	-0.660313	-0.193583	0.721904	-0.073265	128.034902	-79.030959	-106.180937
00409		9.525200	1.501175	-0.963816	-0.175335	-0.026547	-0.123495	-0.095655	-0.007666	-0.144768	-1.026367	0.230957	0.213623	0.095263	0.014938	-0.009642	-0.660419	-0.193808	0.721829	-0.072448	127.743026	-78.962018	-105.936881
00410		9.618675	1.561274	-1.070738	-0.098716	0.035600	-0.010038	-0.096730	-0.025178	-0.144413	-1.028564	0.228516	0.211426	0.096199	0.015538	-0.010703	-0.660464	-0.194035	0.721810	-0.071607	127.492467	-78.886705	-105.735780
00411		9.816518	1.462662	-1.169264	0.023580	-0.070465	0.180562	-0.115804	-0.025110	-0.141562	-1.026123	0.222168	0.213867	0.098177	0.014550	-0.011689	-0.660525	-0.194188	0.721802	-0.070710	127.241431	-78.812735	-105.544994
00412		9.782069	1.276907	-1.240617	0.165520	-0.223342	0.126186	-0.107152	-0.024444	-0.146848	-1.023926	0.222168	0.216064	0.097832	0.012691	-0.012401	-0.660583	-0.194390	0.721781	-0.069824	126.984982	-78.736230	-105.343867
00413		9.718723	1.455155	-1.170526	0.041840	-0.088872	0.083348	-0.092012	-0.027515	-0.153843	-1.023926	0.224365	0.222656	0.097200	0.014471	-0.011699	-0.660615	-0.194666	0.721759	-0.068971	126.737863	-78.655482	-105.143073
00414		9.713055	1.648526	-1.058727	-0.128949	0.032935	0.095100	-0.098686	-0.032335	-0.164197	-1.023682	0.219971	0.216064	0.097146	0.016400	-0.010580	-0.660641	-0.194960	0.721743	-0.068050	126.481213	-78.567964	-104.936697
00415		9.689046	1.592694	-1.105047	-0.059486	-0.013636	0.068186	-0.096339	-0.028953	-0.162139	-1.028320	0.222168	0.213867	0.096905	0.015843	-0.011044	-0.660674	-0.195252	0.721718	-0.067152	126.227537	-78.482554	-104.731621
00416		9.634891	1.561692	-1.217645	0.063788	-0.007778	0.023395	-0.085031	-0.026722	-0.157600	-1.021240	0.213379	0.214111	0.096363	0.015536	-0.012170	-0.660704	-0.195565	0.721684	-0.066308	125.983655	-78.399643	-104.530140
00417		9.628907	1.660180	-1.257861	0.069414	0.082086	0.038337	-0.077326	-0.024077	-0.153330	-1.027832	0.208984	0.216309	0.096303	0.016523	-0.012573	-0.660731	-0.195887	0.721644	-0.065512	125.750707	-78.319616	-104.334983
00418		9.691528	1.734604	-1.185231	-0.023771	0.097127	0.103427	-0.081736	-0.016432	-0.148035	-1.027832	0.208984	0.222900	0.096929	0.017269	-0.011851	-0.660791	-0.196172	0.721584	-0.064722	125.507083	-78.244245	-104.131738
00419		9.679932	1.680826	-1.162384	-0.019314	0.027642	0.080555	-0.086602	-0.012244	-0.146509	-1.025635	0.208984	0.220703	0.096812	0.016732	-0.011625	-0.660867	-0.196434	0.721513	-0.063927	125.258962	-78.171000	-103.926404
00420		9.678553	1.737932	-1.163984	-0.032825	0.066752	0.089035	-0.083817	-0.000355	-0.141015	-1.028076	0.213379	0.220703	0.096798	0.017306	-0.011647	-0.660983	-0.196682	0.721406	-0.063167	124.995016	-78.103857	-103.703515
00421		9.707506	1.709940	-1.147807	-0.032424	0.016627	0.110804	-0.079937	0.008298	-0.135866	-1.023438	0.206787	0.218750	0.097086	0.017029	-0.011489	-0.661123	-0.196921	0.721275	-0.062452	124.726999	-78.041964	-103.473841
00422		9.715390	1.758821	-1.271393	0.071436	0.090782	0.141474	-0.077180	0.020185	-0.130351	-1.027832	0.206787	0.216309	0.097164	0.017520	-0.012731	-0.661303	-0.197146	0.721108	-0.061772	124.442859	-77.986114	-103.226293
00423		9.666055	1.718023	-1.239152	0.066650	0.041172	0.082441	-0.067519	0.031565	-0.119197	-1.030029	0.208984	0.218506	0.096669	0.017118	-0.012413	-0.661508	-0.197358	0.720912	-0.061179	124.160516	-77.939163	-102.974602
00424		9.614912	1.843085	-1.249493	0.041168	0.159892	0.055314	-0.061249	0.037741	-0.109451	-1.027588	0.200195	0.214355	0.096157	0.018374	-0.012519	-0.661728	-0.197555	0.720701	-0.060643	123.882391	-77.898359	-102.723766
00425		9.542143	1.928177	-1.201199	-0.023436	0.227324	-0.006516	-0.053669	0.039881	-0.097983	-1.030029	0.204590	0.216553	0.095428	0.019232	-0.012036	-0.661943	-0.197734	0.720494	-0.060178	123.624796	-77.863662	-102.489195
00426		9.540923	1.937327	-1.196154	-0.023641	0.227202	-0.006514	-0.049060	0.045046	-0.080925	-1.027832	0.204590	0.214355	0.095414	0.019332	-0.011988	-0.662169	-0.197866	0.720283	-0.059787	123.382454	-77.838306	-102.267755
00427		9.531629	1.993686	-1.068973	-0.154608	0.231295	-0.020239	-0.049420	0.049308	-0.061923	-1.031982	0.200195	0.214355	0.095320	0.019905	-0.010718	-0.662402	-0.197926	0.720078	-0.059466	123.161248	-77.823433	-102.067875
00428		9.503598	2.017615	-0.989384	-0.229069	0.228085	-0.052383	-0.040604	0.051930	-0.041920	-1.036621	0.200195	0.216553	0.095038	0.020154	-0.009923	-0.662632	-0.197944	0.719880	-0.059242	122.966379	-77.818595	-101.890010
00429		9.467694	2.145866	-1.036437	-0.224184	0.367997	-0.059201	-0.021040	0.053396	-0.021053	-1.029785	0.202393	0.212158	0.094676	0.021448	-0.010392	-0.662839	-0.197950	0.719694	-0.059163	122.811860	-77.824376	-101.741709
00430		9.354705	2.183929	-1.171050	-0.102287	0.474032	-0.147479	-0.017906	0.061780	0.005046	-1.027588	0.202393	0.214355	0.093543	0.021841	-0.011741	-0.663068	-0.197871	0.719503	-0.059186	122.675345	-77.844995	-101.610254
00431		9.318030	2.121917	-1.260504	0.010302	0.459502	-0.184300	-0.025071	0.065182	0.027632	-1.027832	0.206787	0.216309	0.093173	0.021230	-0.012638	-0.663308	-0.197685	0.719327	-0.059265	122.561364	-77.877763	-101.505802
00432		9.320024	2.059539	-1.303110	0.077818	0.422600	-0.188863	-0.019877	0.078021	0.050227	-1.027588	0.202393	0.214355	0.093190	0.020618	-0.013070	-0.663583	-0.197432	0.719127	-0.059447	122.450967	-77.925079	-101.402250
00433		9.342494	2.008820	-1.348885	0.143226	0.395441	-0.171104	-0.014179	0.084996	0.066593	-1.029785	0.199951	0.209961	0.093412	0.020118	-0.013530	-0.663871	-0.197136	0.718921	-0.059714	122.352979	-77.982695	-101.307806
00434		9.487566	1.897007	-1.131040	-0.019448	0.197384	-0.073465	-0.028670	0.090251	0.082919	-1.032227	0.204590	0.216553	0.094863	0.019008	-0.011356	-0.664189	-0.196733	0.718715	-0.059984	122.254910	-78.049470	-101.222032
00435		9.643169	1.819577	-1.038618	-0.078172	0.073704	0.054873	-0.027581	0.091538	0.089327	-1.025391	0.202148	0.203369	0.096419	0.018237	-0.010433	-0.664507	-0.196308	0.718512	-0.060285	122.165156	-78.120038	-101.143898
00436		9.636212	1.699467	-1.005419	-0.060249	-0.035071	0.023509	-0.020007	0.084087	0.094388	-1.027832	0.210938	0.209717	0.096350	0.017039	-0.010096	-0.664790	-0.195895	0.718335	-0.060618	122.100999	-78.190446	-101.087731
00437		9.688429	1.737500	-0.885227	-0.183998	-0.041225	0.068234	-0.004950	0.075853	0.091403	-1.032227	0.204346	0.209717	0.096873	0.017419	-0.008889	-0.665028	-0.195542	0.718179	-0.060992	122.062079	-78.257213	-101.048317
00438		9.671407	1.816395	-0.826900	-0.263228	0.024935	0.058951	0.007580	0.064502	0.091348	-1.030029	0.206543	0.211914	0.096703	0.018208	-0.008299	-0.665215	-0.195237	0.718055	-0.061395	122.054099	-78.320185	-101.033411
00439		9.618140	1.817904	-0.917667	-0.175256	0.079197	0.016784	0.014261	0.059734	0.095279	-1.032227	0.206543	0.207520	0.096170	0.018226	-0.009204	-0.665374	-0.194940	0.717950	-0.061835	122.069323	-78.383928	-101.038062
00440		9.571690	1.804046	-1.027277	-0.065313	0.124367	-0.019456	0.023192	0.048767	0.094937	-1.025635	0.206543	0.203125	0.095706	0.018087	-0.010294	-0.665488	-0.194678	0.717876	-0.062290	122.112777	-78.443833	-101.066587
00441		9.524019	1.806898	-1.085658	-0.009841	0.167152	-0.059614	0.021836	0.047486	0.097124	-1.030029	0.208740	0.209717	0.095229	0.018116	-0.010877	-0.665595	-0.194403	0.717811	-0.062751	122.164709	-78.504737	-101.104269
00442		9.465449	1.865725	-1.162168	0.042956	0.269605	-0.099205	0.014976	0.052806	0.094644	-1.030273	0.210938	0.207520	0.094643	0.018703	-0.011645	-0.665731	-0.194114	0.717726	-0.063180	122.194062	-78.565723	-101.123166
00443		9.444877	1.867099	-1.241295	0.118272	0.313048	-0.111112	-0.006065	0.058657	0.096591	-1.028076	0.215332	0.209473	0.094436	0.018716	-0.012441	-0.665905	-0.193744	0.717632	-0.063550	122.203071	-78.629771	-101.133352
00444		9.467797	1.763523	-1.146604	0.069187	0.190967	-0.116161	-0.024765	0.063643	0.090335	-1.025635	0.210938	0.209717	0.094666	0.017677	-0.011498	-0.666119	-0.193335	0.717519	-0.063832	122.177321	-78.691965	-101.119270
00445		9.568169	1.688552	-1.012317	-0.029207	0.065955	-0.044338	-0.026362	0.069579	0.080882	-1.030273	0.210938	0.205322	0.095671	0.016923	-0.010159	-0.666356	-0.192950	0.717379	-0.064088	122.123961	-78.751724	-101.077712
00446		9.574180	1.582108	-1.018786	0.019212	-0.021645	-0.055379	-0.027725	0.070191	0.066727	-1.030273	0.213135	0.209717	0.095733	0.015852	-0.010224	-0.666604	-0.192613	0.717222	-0.064287	122.043469	-78.804417	-101.009583
00447		9.708704	1.298504	-1.124886	0.220223	-0.262767	0.040884	-0.022117	0.070798	0.051121	-1.032471	0.213135	0.200684	0.097080	0.013009	-0.011285	-0.666851	-0.192349	0.717047	-0.064459	121.942573	-78.850062	-100.917106
00448		9.898948	0.880172	-1.093664	0.340676	-0.687468	0.155828	-0.002989	0.072740	0.032043	-1.028076	0.215332	0.205078	0.098984	0.008817	-0.010973	-0.667095	-0.192219	0.716840	-0.064634	121.815109	-78.886625	-100.786621
00449		10.103870	0.986404	-1.036095	0.246351	-0.644014	0.368631	0.026285	0.064415	0.017618	-1.025879	0.217529	0.207275	0.101034	0.009874	-0.010392	-0.667283	-0.192238	0.716639	-0.064863	121.704736	-78.913950	-100.656250
00450		10.172764	1.347247	-0.811775	-0.090245	-0.401302	0.472739	0.006398	0.064449	-0.003934	-1.032471	0.215332	0.200684	0.101725	0.013471	-0.008150	-0.667499	-0.192269	0.716421	-0.064943	121.546943	-78.930406	-100.489440
00451		10.063804	1.432251	-0.617408	-0.292023	-0.369750	0.360350	-0.025918	0.059915	-0.022371	-1.030273	0.215332	0.205078	0.100638	0.014310	-0.006206	-0.667734	-0.192259	0.716214	-0.064847	121.355636	-78.936705	-100.307093
00452		9.879877	1.398540	-0.617059	-0.267922	-0.366998	0.174413	0.001908	0.045253	-0.034201	-1.030273	0.215332	0.205078	0.098800	0.013969	-0.006193	-0.667896	-0.192391	0.716032	-0.064792	121.196430	-78.932460	-100.141437
00453		9.746172	1.510746	-0.790214	-0.138300	-0.180525	0.078872	0.038965	0.033956	-0.045311	-1.030273	0.215332	0.198486	0.097464	0.015087	-0.007916	-0.667983	-0.192688	0.715868	-0.064826	121.072572	-78.919624	-99.989934
00454		9.698425	1.618841	-0.994621	0.018413	-0.003645	0.070076	0.064221	0.041487	-0.047407	-1.030273	0.213135	0.200684	0.096986	0.016169	-0.009961	-0.668076	-0.193075	0.715666	-0.064947	120.939018	-78.907657	-99.814041
00455		9.666668	1.672341	-1.146179	0.145332	0.102059	0.062706	0.073769	0.049371	-0.048570	-1.030273	0.213135	0.200684	0.096668	0.016704	-0.011479	-0.668185	-0.193495	0.715436	-0.065110	120.792195	-78.897613	-99.618802
00456		9.602220	1.676967	-1.167169	0.170439	0.123647	0.002240	0.060923	0.062122	-0.049221	-1.030029	0.208740	0.200928	0.096023	0.016750	-0.011696	-0.668355	-0.193871	0.715164	-0.065233	120.602908	-78.890594	-99.388035
00457		9.633815	1.573131	-1.056333	0.110763	-0.018912	0.005070	0.049105	0.072974	-0.059431	-1.036621	0.208496	0.194336	0.096339	0.015705	-0.010595	-0.668576	-0.194240	0.714852	-0.065294	120.367193	-78.881799	-99.116595
00458		9.691770	1.527836	-0.916317	0.003241	-0.124177	0.040682	0.031828	0.074444	-0.071171	-1.032471	0.210938	0.196289	0.096920	0.015245	-0.009197	-0.668825	-0.194594	0.714527	-0.065251	120.098652	-78.867090	-98.822010
00459		9.803398	1.480309	-0.819040	-0.064676	-0.228077	0.132791	0.020817	0.067950	-0.086263	-1.036621	0.206299	0.192139	0.098038	0.014762	-0.008222	-0.669064	-0.194965	0.714214	-0.065117	119.821600	-78.843059	-98.524928
00460		9.861708	1.486951	-0.821636	-0.057676	-0.238416	0.191272	0.022985	0.062817	-0.096171	-1.027832	0.210938	0.198730	0.098622	0.014823	-0.008246	-0.669288	-0.195382	0.713906	-0.064948	119.543367	-78.812090	-98.225534
00461		9.843689	1.508391	-0.866463	-0.014859	-0.206448	0.181379	0.022845	0.058835	-0.101466	-1.025635	0.206543	0.200928	0.098442	0.015035	-0.008692	-0.669497	-0.195817	0.713608	-0.064760	119.271647	-78.777353	-97.932642
00462		9.868812	1.575848	-0.832821	-0.062995	-0.169226	0.214162	0.015121	0.056992	-0.107989	-1.034424	0.206543	0.196533	0.098694	0.015706	-0.008355	-0.669710	-0.196251	0.713310	-0.064518	118.990691	-78.738295	-97.635172
00463		9.724285	1.676449	-0.793949	-0.124223	-0.071144	0.085901	0.029678	0.049817	-0.107835	-1.032227	0.208740	0.198730	0.097250	0.016713	-0.007961	-0.669882	-0.196734	0.713033	-0.064324	118.740404	-78.697332	-97.360065
00464		9.730926	1.814834	-0.762418	-0.197066	0.034813	0.113327	0.043117	0.050677	-0.104151	-1.032227	0.204346	0.196533	0.097317	0.018099	-0.007645	-0.670044	-0.197250	0.712750	-0.064188	118.500373	-78.657970	-97.087820
00465		9.720466	1.863195	-0.829063	-0.145749	0.096978	0.117853	0.033128	0.043841	-0.100035	-1.036621	0.204346	0.198730	0.097212	0.018585	-0.008309	-0.670188	-0.197719	0.712500	-0.064028	118.281264	-78.618866	-96.842422
00466		9.663241	1.797577	-0.918095	-0.030957	0.072878	0.058793	0.034730	0.047785	-0.087765	-1.034180	0.199707	0.192139	0.096638	0.017935	-0.009201	-0.670342	-0.198150	0.712245	-0.063913	118.068927	-78.586573	-96.603288
00467		9.631975	1.889504	-0.931468	-0.045355	0.162070	0.045531	0.041484	0.051824	-0.075290	-1.029785	0.197510	0.190186	0.096324	0.018861	-0.009336	-0.670498	-0.198556	0.711989	-0.063873	117.870336	-78.561780	-96.373883
00468		9.639057	2.030562	-1.040096	0.009653	0.323784	0.087387	0.031592	0.053761	-0.062702	-1.034424	0.204102	0.189941	0.096394	0.020277	-0.010424	-0.670669	-0.198885	0.711739	-0.063838	117.676291	-78.543452	-96.155126
00469		9.615382	1.997153	-0.977325	-0.029548	0.272318	0.052622	0.000358	0.057204	-0.050008	-1.031982	0.201904	0.189941	0.096156	0.019948	-0.009801	-0.670876	-0.199061	0.711503	-0.063742	117.475306	-78.532616	-95.947292
00470		9.592820	1.897453	-0.823244	-0.128750	0.128339	-0.001103	-0.030593	0.055301	-0.042006	-1.029541	0.195557	0.192383	0.095930	0.018953	-0.008262	-0.671107	-0.199108	0.711289	-0.063557	117.269835	-78.524928	-95.753156
00471		9.687838	1.859396	-0.776010	-0.153590	0.056450	0.081097	-0.052581	0.057358	-0.031783	-1.032227	0.204102	0.187744	0.096879	0.018577	-0.007793	-0.671362	-0.199042	0.711087	-0.063333	117.062257	-78.523127	-95.569535
00472		9.695594	1.746184	-0.834703	-0.050693	-0.028563	0.074023	-0.055339	0.049995	-0.030574	-1.031982	0.201904	0.189941	0.096957	0.017445	-0.008376	-0.671595	-0.198966	0.710909	-0.063093	116.870952	-78.519607	-95.404387
00473		9.701830	1.692306	-0.844597	-0.015652	-0.076843	0.071471	-0.054857	0.043857	-0.033192	-1.034180	0.199707	0.185547	0.097019	0.016905	-0.008472	-0.671804	-0.198902	0.710752	-0.062843	116.694456	-78.513355	-95.253808
00474		9.667960	1.755044	-0.803290	-0.070978	-0.029442	0.045761	-0.041625	0.035710	-0.034345	-1.034180	0.201904	0.183350	0.096681	0.017532	-0.008054	-0.671974	-0.198890	0.710614	-0.062625	116.542509	-78.504053	-95.120741
00475		9.569149	1.775275	-0.786898	-0.087659	0.000557	-0.048890	-0.030016	0.022025	-0.034987	-1.038818	0.201904	0.187744	0.095694	0.017735	-0.007882	-0.672081	-0.198922	0.710520	-0.062436	116.433419	-78.491147	-95.024416
00476		9.660663	1.819619	-0.781997	-0.106746	0.018537	0.048307	-0.036618	0.015578	-0.032619	-1.029785	0.199951	0.192139	0.096609	0.018179	-0.007831	-0.672174	-0.198928	0.710450	-0.062221	116.337644	-78.477508	-94.945675
00477		9.802792	1.650424	-0.808197	-0.019221	-0.158086	0.159597	-0.072884	0.017013	-0.045435	-1.034180	0.197754	0.194580	0.098031	0.016479	-0.008096	-0.672309	-0.198854	0.710376	-0.061840	116.204118	-78.457891	-94.849466
00478		9.826326	1.593720	-0.910043	0.100688	-0.182675	0.181376	-0.094174	0.019833	-0.054632	-1.036377	0.197510	0.190186	0.098267	0.015906	-0.009118	-0.672480	-0.198742	0.710287	-0.061350	116.038242	-78.433904	-94.733070
00479		9.830264	1.602374	-0.872501	0.067943	-0.194291	0.183341	-0.106146	0.016513	-0.069481	-1.038574	0.197510	0.190186	0.098307	0.015985	-0.008742	-0.672654	-0.198642	0.710201	-0.060769	115.858457	-78.401665	-94.609079
00480		9.748726	1.699901	-0.810182	-0.018543	-0.118030	0.115526	-0.116047	0.007550	-0.087086	-1.031738	0.193115	0.190186	0.097494	0.016952	-0.008115	-0.672813	-0.198576	0.710127	-0.060080	115.672866	-78.357749	-94.485205
00481		9.693959	1.796928	-0.769901	-0.085283	-0.041054	0.075972	-0.115927	-0.007073	-0.093165	-1.034180	0.195313	0.190186	0.096948	0.017920	-0.007706	-0.672919	-0.198534	0.710099	-0.059361	115.519981	-78.307281	-94.394365
00482		9.663829	1.874963	-0.837684	-0.045266	0.050624	0.066694	-0.121772	-0.014049	-0.101008	-1.036377	0.195313	0.187988	0.096648	0.018696	-0.008381	-0.673010	-0.198504	0.710085	-0.058584	115.370718	-78.250712	-94.310933
00483		9.611372	1.770487	-0.895245	0.050433	-0.024072	0.001151	-0.111858	-0.028743	-0.094436	-1.036133	0.190918	0.190186	0.096123	0.017654	-0.008949	-0.673035	-0.198487	0.710126	-0.057854	115.274511	-78.194188	-94.275573
00484		9.579645	1.798164	-0.823389	-0.023967	-0.027420	-0.031091	-0.086977	-0.035594	-0.093803	-1.033936	0.190918	0.192383	0.095806	0.017933	-0.008225	-0.673013	-0.198554	0.710182	-0.057204	115.208594	-78.136042	-94.256802
00485		9.568174	1.881771	-0.757535	-0.113949	0.018129	-0.032527	-0.073340	-0.038876	-0.100430	-1.029541	0.188721	0.187988	0.095693	0.018767	-0.007564	-0.672964	-0.198691	0.710239	-0.056580	115.153475	-78.073923	-94.240862
00486		9.568120	1.833092	-0.810424	-0.046335	-0.018637	-0.037033	-0.051423	-0.042437	-0.097837	-1.036377	0.193115	0.194580	0.095692	0.018282	-0.008089	-0.672883	-0.198894	0.710303	-0.056035	115.120764	-78.012011	-94.235255
00487		9.532058	1.867040	-0.914381	0.039497	0.045466	-0.056744	-0.037246	-0.038030	-0.098937	-1.033691	0.184570	0.194824	0.095332	0.018622	-0.009129	-0.672801	-0.199146	0.710348	-0.055545	115.086528	-77.950867	-94.219515
00488		9.550718	2.017190	-0.926082	-0.003075	0.172566	-0.008958	-0.034167	-0.037333	-0.095617	-1.031494	0.186768	0.194824	0.095519	0.020125	-0.009246	-0.672719	-0.199397	0.710392	-0.055074	115.054338	-77.891339	-94.204389
00489		9.577813	2.000375	-0.862012	-0.056970	0.119853	0.008792	-0.028206	-0.031454	-0.082142	-1.038330	0.186768	0.197021	0.095788	0.019963	-0.008608	-0.672647	-0.199619	0.710429	-0.054679	115.028809	-77.840505	-94.192252
00490		9.475175	2.081825	-0.800358	-0.141391	0.186430	-0.081359	-0.017441	-0.018754	-0.072953	-1.036133	0.188965	0.197021	0.094760	0.020783	-0.007997	-0.672608	-0.199841	0.710428	-0.054362	114.987376	-77.797232	-94.157867
00491		9.451587	2.132718	-0.748061	-0.207391	0.213310	-0.099188	0.011967	-0.010844	-0.057331	-1.040527	0.184326	0.188232	0.094522	0.021301	-0.007474	-0.672561	-0.200103	0.710409	-0.054214	114.963506	-77.764267	-94.123871
00492		9.359475	2.103226	-0.892186	-0.060835	0.250970	-0.181870	0.043982	-0.005941	-0.038591	-1.040283	0.180176	0.197021	0.093599	0.021016	-0.008914	-0.672497	-0.200407	0.710382	-0.054244	114.965052	-77.741947	-94.097273
00493		9.437846	2.118700	-0.905396	-0.056056	0.250333	-0.101057	0.055581	-0.002374	-0.018641	-1.031494	0.186523	0.186035	0.094381	0.021181	-0.009047	-0.672426	-0.200676	0.710362	-0.054390	114.989116	-77.731126	-94.086752
00494		9.524088	2.117196	-0.936174	-0.029295	0.240653	-0.014299	0.072074	0.006923	0.002669	-1.038330	0.186523	0.188232	0.095240	0.021177	-0.009357	-0.672368	-0.200925	0.710325	-0.054671	115.021895	-77.733322	-94.075670
00495		9.546391	2.028110	-0.988805	0.049590	0.174435	-0.004953	0.099129	0.010904	0.023255	-1.035889	0.184326	0.192627	0.095461	0.020297	-0.009883	-0.672289	-0.201188	0.710290	-0.055126	115.085904	-77.747472	-94.080493
00496		9.466620	2.119140	-1.069372	0.090877	0.306556	-0.058254	0.131718	0.028579	0.047122	-1.038086	0.179932	0.192627	0.094660	0.021221	-0.010693	-0.672236	-0.201473	0.710208	-0.055791	115.150913	-77.778002	-94.067348
00497		9.476175	2.181066	-1.091053	0.085620	0.375868	-0.035330	0.167736	0.040286	0.078816	-1.029297	0.184570	0.194824	0.094751	0.021857	-0.010911	-0.672176	-0.201761	0.710110	-0.056705	115.246654	-77.828121	-94.064419
00498		9.575249	2.058551	-1.325775	0.343344	0.337321	0.058940	0.235013	0.061015	0.118744	-1.038330	0.188721	0.190186	0.095736	0.020658	-0.013263	-0.672111	-0.202129	0.709962	-0.058008	115.374790	-77.903628	-94.055595
00499		9.862028	1.991963	-1.606431	0.617442	0.337594	0.351605	0.449097	0.104571	0.229443	-1.036377	0.193115	0.194580	0.098589	0.020069	-0.016071	-0.671948	-0.202808	0.709715	-0.060491	115.651444	-78.047501	-94.072815
00500		9.572004	1.913135	-1.421546	0.467154	0.293453	0.036152	0.684396	0.151927	0.323341	-1.031982	0.201904	0.185547	0.095678	0.019335	-0.014222	-0.671680	-0.203930	0.709324	-0.064169	116.060798	-78.251233	-94.088110
00501		9.428917	2.168851	-0.964735	-0.066641	0.428634	-0.099255	0.763541	0.153000	0.396990	-1.029785	0.204102	0.187744	0.094238	0.021912	-0.009636	-0.671299	-0.205051	0.708969	-0.068378	116.614393	-78.493383	-94.204108
00502		9.440857	2.072475	-0.649777	-0.341466	0.265882	-0.134897	0.795078	0.145695	0.480343	-1.030029	0.210693	0.180908	0.094354	0.020977	-0.006483	-0.670818	-0.205982	0.708696	-0.072967	117.326663	-78.775588	-94.463614
00503		9.347573	2.362386	-0.316177	-0.784150	0.464663	-0.209201	0.747698	0.113886	0.495696	-1.032471	0.215088	0.178467	0.093415	0.023867	-0.003126	-0.670252	-0.206705	0.708550	-0.077409	118.142617	-79.056724	-94.855986
00504		9.624009	2.300586	-0.373913	-0.735997	0.424279	0.053016	0.705366	0.128917	0.510278	-1.032715	0.221680	0.178467	0.096179	0.023264	-0.003719	-0.669766	-0.207227	0.708369	-0.081759	118.944633	-79.347847	-95.258695
00505		9.149957	2.430571	-0.154677	-1.005347	0.585474	-0.415899	0.618019	0.086416	0.471737	-1.032959	0.228271	0.176025	0.091441	0.024526	-0.001511	-0.669222	-0.207605	0.708315	-0.085629	119.787868	-79.607040	-95.753653
00506		9.213250	2.195228	-0.378672	-0.729949	0.488458	-0.374741	0.424702	0.015798	0.417441	-1.032959	0.234619	0.173584	0.092086	0.022153	-0.003747	-0.668645	-0.207557	0.708514	-0.088554	120.656840	-79.817161	-96.387350
00507		9.431278	1.759197	-0.306277	-0.643370	0.062055	-0.235648	0.323866	-0.021561	0.380684	-1.028564	0.230469	0.173828	0.094279	0.017776	-0.003024	-0.668050	-0.207316	0.708840	-0.090964	121.542752	-79.996876	-97.096170
00508		9.765079	1.398280	-0.431112	-0.409087	-0.238991	0.050032	0.257948	-0.043825	0.344092	-1.031006	0.239258	0.180176	0.097627	0.014156	-0.004272	-0.667460	-0.206995	0.709227	-0.092989	122.413650	-80.149640	-97.828138
00509		9.782109	1.326339	-0.788149	-0.077494	-0.133542	0.089134	0.251870	-0.068610	0.312826	-1.026611	0.245605	0.173340	0.097803	0.013426	-0.007831	-0.666797	-0.206774	0.709666	-0.094867	123.321387	-80.278151	-98.600300
00510		9.862095	1.299185	-0.984346	0.087592	-0.066751	0.182588	0.198594	-0.077215	0.277868	-1.031006	0.239014	0.173584	0.098607	0.013139	-0.009792	-0.666175	-0.206503	0.710119	-0.096424	124.175398	-80.384772	-99.349247
00511		9.750453	1.079091	-0.993884	0.170763	-0.221037	0.043554	0.178427	-0.091591	0.245064	-1.026855	0.252197	0.171143	0.097496	0.010919	-0.009884	-0.665535	-0.206287	0.710595	-0.097793	125.014527	-80.469831	-100.094016
00512		9.803884	1.194399	-0.763701	-0.107620	-0.205303	0.090454	0.112916	-0.094527	0.200393	-1.031250	0.247803	0.175537	0.098030	0.012047	-0.007584	-0.664975	-0.206015	0.711063	-0.098770	125.744457	-80.530915	-100.766267
00513		9.904493	0.973457	-0.749099	-0.048166	-0.412743	0.159024	0.065954	-0.102892	0.172888	-1.031250	0.252441	0.177734	0.099040	0.009823	-0.007437	-0.664444	-0.205686	0.711555	-0.099487	126.427223	-80.575490	-101.417578
00514		9.834767	0.830173	-0.912223	0.145199	-0.452656	0.087715	0.052906	-0.118904	0.143009	-1.029053	0.250244	0.179932	0.098347	0.008374	-0.009062	-0.663886	-0.205430	0.712073	-0.100034	127.086674	-80.599163	-102.053233
00515		9.895036	0.955203	-0.930504	0.089770	-0.336470	0.165724	0.016971	-0.123210	0.108893	-1.024658	0.254639	0.182129	0.098951	0.009607	-0.009243	-0.663363	-0.205176	0.712589	-0.100342	127.672094	-80.605108	-102.634228
00516		9.852568	0.858612	-0.980089	0.161696	-0.392500	0.116595	0.000203	-0.128246	0.082707	-1.022705	0.259033	0.179688	0.098528	0.008627	-0.009738	-0.662855	-0.204962	0.713103	-0.100492	128.202671	-80.596093	-103.170014
00517		9.803427	0.861542	-1.057053	0.217154	-0.349527	0.076573	-0.009752	-0.132835	0.056535	-1.022705	0.256836	0.184082	0.098039	0.008643	-0.010506	-0.662351	-0.204811	0.713610	-0.100521	128.685833	-80.573349	-103.662905
00518		9.766416	0.998786	-0.974870	0.072036	-0.256693	0.049347	-0.029841	-0.138894	0.034251	-1.027100	0.259033	0.188477	0.097669	0.010003	-0.009682	-0.661859	-0.204676	0.714123	-0.100393	129.119804	-80.537565	-104.118101
00519		9.633021	1.059598	-0.888032	-0.040659	-0.221006	-0.083560	-0.047067	-0.154289	0.016288	-1.027100	0.254639	0.190918	0.096336	0.010602	-0.008808	-0.661336	-0.204555	0.714678	-0.100134	129.545098	-80.487947	-104.574101
00520		9.648298	1.052124	-0.711512	-0.211592	-0.309324	-0.088368	-0.053495	-0.165392	0.000159	-1.022705	0.261230	0.186279	0.096489	0.010519	-0.007038	-0.660790	-0.204476	0.715256	-0.099780	129.952804	-80.426252	-105.016797
00521		9.605289	0.943607	-0.956198	0.042399	-0.306607	-0.118851	-0.021740	-0.192700	-0.009417	-1.022461	0.254639	0.188721	0.096062	0.009431	-0.009470	-0.660115	-0.204549	0.715898	-0.099487	130.425391	-80.350062	-105.506212
00522		9.542712	1.208929	-1.187062	0.124982	0.026673	-0.121578	-0.036004	-0.206753	-0.022681	-1.018066	0.250488	0.190918	0.095441	0.012076	-0.011774	-0.659414	-0.204631	0.716577	-0.099081	130.885482	-80.262000	-105.991684
00523		9.455397	1.385931	-0.983423	-0.146664	0.103962	-0.207475	-0.066746	-0.217966	-0.041114	-1.027100	0.259033	0.190674	0.094567	0.013837	-0.009736	-0.658709	-0.204682	0.717290	-0.098496	131.310388	-80.161322	-106.459138
00524		9.451239	1.572058	-1.039183	-0.190218	0.281048	-0.181385	-0.091880	-0.214212	-0.057427	-1.020508	0.257080	0.195313	0.094528	0.015689	-0.010298	-0.658054	-0.204708	0.717984	-0.097767	131.663711	-80.054316	-106.868961
00525		9.469225	1.431272	-0.975105	-0.203569	0.110748	-0.189182	-0.117628	-0.208378	-0.076416	-1.022705	0.254883	0.199707	0.094708	0.014271	-0.009661	-0.657451	-0.204713	0.718653	-0.096893	131.942690	-79.941251	-107.218143
00526		9.509543	1.142926	-1.215261	0.120812	-0.073311	-0.158955	-0.120832	-0.201946	-0.098659	-1.022461	0.250488	0.199951	0.095113	0.011375	-0.012063	-0.656887	-0.204785	0.719276	-0.095936	132.146783	-79.820740	-107.493614
00527		9.633474	1.253596	-1.176330	0.020984	-0.029745	-0.027101	-0.121878	-0.201705	-0.128544	-1.018066	0.250488	0.202148	0.096355	0.012467	-0.011674	-0.656336	-0.204959	0.719870	-0.094882	132.283780	-79.687691	-107.701255
00528		10.011540	1.240281	-1.131414	-0.044399	-0.146632	0.337476	-0.133559	-0.189874	-0.163832	-1.026855	0.248291	0.206543	0.100136	0.012313	-0.011227	-0.655857	-0.205217	0.720390	-0.093678	132.305335	-79.543986	-107.798755
00529		10.108943	0.815464	-1.385781	0.349434	-0.467274	0.406685	-0.111217	-0.198066	-0.179050	-1.020020	0.243896	0.206543	0.101110	0.008056	-0.013762	-0.655329	-0.205606	0.720912	-0.092500	132.328412	-79.390878	-107.884500
00530		10.620605	1.074057	-1.198110	0.035206	-0.428347	0.920510	-0.154613	-0.169074	-0.219096	-1.022217	0.243896	0.208740	0.106228	0.010615	-0.011900	-0.654970	-0.205984	0.721313	-0.091059	132.176152	-79.231758	-107.817517
00531		10.447933	0.834624	-1.510816	0.424192	-0.517252	0.755704	-0.125099	-0.157063	-0.225753	-1.020020	0.243896	0.208984	0.104500	0.008219	-0.015031	-0.654623	-0.206475	0.721656	-0.089720	132.007317	-79.074604	-107.716047
00532		10.098615	0.910410	-1.488083	0.389751	-0.425765	0.419223	-0.118008	-0.144374	-0.257550	-1.024414	0.237549	0.213379	0.101008	0.008965	-0.014813	-0.654329	-0.207100	0.721917	-0.088312	131.753841	-78.908547	-107.524381
00533		9.931218	1.204690	-1.604495	0.382401	-0.115687	0.311298	-0.093156	-0.138930	-0.271851	-1.026611	0.237549	0.215576	0.099340	0.011904	-0.015982	-0.654031	-0.207853	0.722135	-0.086956	131.484786	-78.738395	-107.301983
00534		9.938807	1.404673	-1.599571	0.295745	0.029240	0.347195	-0.107608	-0.115906	-0.271996	-1.024170	0.230957	0.213623	0.099416	0.013903	-0.015946	-0.653833	-0.208550	0.722280	-0.085566	131.162817	-78.576513	-107.034245
00535		9.952448	1.365703	-1.710479	0.415605	0.004971	0.369123	-0.127468	-0.087146	-0.274759	-1.024170	0.230957	0.213623	0.099551	0.013509	-0.017070	-0.653756	-0.209178	0.722337	-0.084130	130.774419	-78.424077	-106.709871
00536		9.991744	1.401631	-1.636811	0.337829	-0.029278	0.403164	-0.138868	-0.068461	-0.271160	-1.028564	0.228760	0.213623	0.099942	0.013869	-0.016344	-0.653757	-0.209749	0.722337	-0.082681	130.353293	-78.279592	-106.358675
00537		9.812514	1.707740	-1.618362	0.213257	0.245276	0.272707	-0.123550	-0.046728	-0.261346	-1.026123	0.219971	0.222656	0.098151	0.016939	-0.016171	-0.653814	-0.210324	0.722271	-0.081345	129.924602	-78.147040	-105.990513
00538		9.794975	1.639538	-1.432762	0.082050	0.089485	0.220639	-0.103370	-0.025078	-0.235632	-1.023926	0.222168	0.218262	0.097971	0.016273	-0.014324	-0.653917	-0.210864	0.722149	-0.080184	129.512920	-78.033011	-105.627978
00539		9.915417	1.541352	-1.618741	0.294554	0.028830	0.347231	-0.077768	0.010843	-0.205515	-1.026123	0.219971	0.216064	0.099169	0.015305	-0.016199	-0.654108	-0.211363	0.721933	-0.079256	129.101750	-77.945028	-105.250605
00540		10.018037	1.569981	-1.652207	0.319108	0.028821	0.456343	-0.049259	0.039321	-0.194721	-1.025879	0.217773	0.220459	0.100192	0.015598	-0.016546	-0.654369	-0.211906	0.721620	-0.078494	128.669149	-77.871387	-104.834598
00541		9.855545	1.583214	-1.459479	0.159279	-0.017215	0.274072	-0.026515	0.058795	-0.180080	-1.023682	0.217773	0.213867	0.098565	0.015741	-0.014626	-0.654668	-0.212461	0.721252	-0.077884	128.240292	-77.810744	-104.408884
00542		9.689542	1.736483	-1.261396	-0.062946	0.063117	0.111311	-0.014957	0.055167	-0.169541	-1.025879	0.215576	0.214111	0.096907	0.017282	-0.012642	-0.654938	-0.213019	0.720900	-0.077345	127.844985	-77.752788	-104.010747
00543		9.469186	1.601769	-0.961750	-0.262616	-0.143625	-0.165589	0.016533	-0.031587	-0.157054	-1.028076	0.211182	0.222900	0.094706	0.015944	-0.009601	-0.654855	-0.213667	0.720834	-0.076869	127.673770	-77.669782	-103.823265
00544		9.637251	1.526059	-1.130658	-0.086774	-0.196645	0.007579	0.065413	-0.091946	-0.153944	-1.027832	0.206787	0.216309	0.096389	0.015190	-0.011257	-0.654503	-0.214488	0.720949	-0.076512	127.660353	-77.566803	-103.768861
00545		9.581023	1.404432	-1.242178	0.063578	-0.268390	-0.053828	0.066946	-0.105091	-0.169202	-1.027832	0.206787	0.216309	0.095829	0.013967	-0.012367	-0.654104	-0.215372	0.721090	-0.076100	127.653063	-77.452487	-103.719547
00546		9.487667	1.548695	-1.268503	0.028403	-0.129880	-0.117035	0.071777	-0.131670	-0.197760	-1.021240	0.206787	0.220947	0.094900	0.015398	-0.012617	-0.653617	-0.216387	0.721283	-0.075581	127.655916	-77.315731	-103.677900
00547		9.501263	1.497352	-1.278866	0.053054	-0.198619	-0.111696	0.068046	-0.138382	-0.230033	-1.025391	0.202393	0.227539	0.095039	0.014869	-0.012718	-0.653119	-0.217507	0.721465	-0.074938	127.623173	-77.162163	-103.601792
00548		9.415425	1.278097	-1.307024	0.169899	-0.391227	-0.230929	0.063777	-0.124149	-0.254039	-1.027588	0.202393	0.223145	0.094178	0.012666	-0.013008	-0.652685	-0.218693	0.721573	-0.074211	127.523331	-77.002428	-103.459828
00549		9.562687	1.509628	-1.348617	0.103526	-0.226933	-0.041277	0.037327	-0.098195	-0.257445	-1.025391	0.200195	0.227539	0.095653	0.014976	-0.013436	-0.652373	-0.219795	0.721603	-0.073411	127.357279	-76.850330	-103.264836
00550		9.692877	1.477017	-1.214819	-0.007160	-0.363393	0.060360	-0.054023	-0.032799	-0.262171	-1.029785	0.197998	0.223389	0.096950	0.014640	-0.012136	-0.652399	-0.220592	0.721445	-0.072335	127.008256	-76.718361	-102.935895
00551		9.827935	1.500094	-1.397903	0.154217	-0.327088	0.220352	-0.116823	0.012667	-0.287313	-1.027588	0.195801	0.227783	0.098300	0.014852	-0.013994	-0.652665	-0.221258	0.721133	-0.071003	126.507860	-76.590050	-102.487836
00552		9.870515	1.734446	-1.491575	0.158338	-0.118410	0.317513	-0.195547	0.043829	-0.311927	-1.029541	0.189209	0.225586	0.098729	0.017176	-0.014954	-0.653138	-0.221744	0.720717	-0.069339	125.875627	-76.459772	-101.950591
00553		9.945993	1.774570	-1.144344	-0.155077	-0.264316	0.350352	-0.290321	0.066636	-0.342244	-1.036133	0.182617	0.225830	0.099486	0.017559	-0.011502	-0.653805	-0.222021	0.720223	-0.067262	125.116883	-76.321544	-101.338505
00554		10.135602	1.495538	-1.381673	0.195015	-0.498013	0.511549	-0.378232	0.096587	-0.389800	-1.031494	0.180420	0.225830	0.101378	0.014732	-0.013894	-0.654691	-0.222171	0.719603	-0.064742	124.199918	-76.168388	-100.615326
00555		10.600413	2.021851	-1.296403	-0.079479	-0.208222	1.054112	-0.464750	0.124634	-0.450851	-1.033447	0.173828	0.223877	0.106041	0.019949	-0.013077	-0.655786	-0.222245	0.718846	-0.061745	123.122401	-75.992242	-99.776976
00556		10.537943	2.170936	-0.830257	-0.518776	-0.279412	0.962422	-0.530254	0.152536	-0.497503	-1.035645	0.169434	0.217285	0.105427	0.021425	-0.008440	-0.657062	-0.222262	0.717956	-0.058386	121.920199	-75.798027	-98.848400
00557		10.363521	1.752890	-0.893699	-0.241802	-0.632180	0.714202	-0.529974	0.149731	-0.541184	-1.032959	0.158447	0.219727	0.103675	0.017225	-0.009061	-0.658329	-0.222433	0.717017	-0.054885	120.703936	-75.577015	-97.903983
00558		10.515424	1.678204	-0.886002	-0.177933	-0.790091	0.841850	-0.524863	0.140748	-0.599678	-1.035156	0.153809	0.211182	0.105198	0.016443	-0.008977	-0.659568	-0.222832	0.716027	-0.051197	119.475024	-75.319432	-96.942494
00559		11.290824	1.761790	-0.643646	-0.406266	-1.058967	1.576510	-0.564446	0.146858	-0.678892	-1.039551	0.151855	0.217773	0.112962	0.017216	-0.006568	-0.660877	-0.223377	0.714930	-0.047113	118.171264	-75.018565	-95.925774
00560		11.801947	1.849343	-0.929829	-0.128184	-1.080666	2.119850	-0.631408	0.174463	-0.782916	-1.034668	0.136475	0.220459	0.118082	0.018002	-0.009459	-0.662373	-0.224062	0.713620	-0.042478	116.722895	-74.666077	-94.797201
00561		11.509756	1.258098	-1.208923	0.427423	-1.517496	1.721273	-0.640765	0.212216	-0.873260	-1.043213	0.127441	0.209473	0.115138	0.012039	-0.012251	-0.664012	-0.225023	0.712070	-0.037550	115.180788	-74.268795	-93.575107
00562		11.593226	1.146955	-0.981010	0.331468	-1.811951	1.732284	-0.697246	0.281106	-0.981221	-1.038330	0.114258	0.209961	0.115973	0.010866	-0.010012	-0.665960	-0.226160	0.710153	-0.032138	113.462222	-73.822354	-92.200708
00563		11.872126	0.058587	-1.425436	1.224444	-2.814826	1.744056	-0.745839	0.345164	-1.117398	-1.042480	0.101074	0.208008	0.118697	-0.000131	-0.014460	-0.668180	-0.227598	0.707849	-0.026171	111.590234	-73.306180	-90.691930
00564		11.807452	0.800761	-1.345451	0.982342	-2.279156	1.836582	-0.734598	0.387672	-1.270066	-1.044189	0.087891	0.199463	0.118096	0.007208	-0.013711	-0.670527	-0.229596	0.705186	-0.019782	109.654570	-72.703060	-89.105521
00565		12.154507	0.844533	-0.831900	0.597663	-2.650761	2.093221	-0.707890	0.421431	-1.422422	-1.041260	0.070313	0.195557	0.121583	0.007551	-0.008603	-0.672931	-0.232204	0.702193	-0.013013	107.714877	-72.007867	-87.493110
00566		12.429589	0.751752	-0.750525	0.677844	-2.997898	2.277495	-0.665537	0.452404	-1.582178	-1.047607	0.054932	0.191406	0.124333	0.006508	-0.007809	-0.675363	-0.235495	0.698850	-0.005894	105.803544	-71.214681	-85.878067
00567		12.610629	0.559650	-0.754647	0.879532	-3.397534	2.335948	-0.579642	0.451394	-1.745861	-1.051270	0.032715	0.185303	0.126131	0.004473	-0.007845	-0.677632	-0.239630	0.695263	0.001483	104.023055	-70.314179	-84.341467
00568		13.422780	0.654752	-0.850738	1.105131	-3.753011	3.071835	-0.515632	0.449656	-1.931736	-1.052979	0.012939	0.177002	0.134263	0.005228	-0.008824	-0.679759	-0.244601	0.691384	0.009262	102.361023	-69.295810	-82.882650
00569		13.594492	-0.025754	-0.800893	1.436548	-4.652643	2.904789	-0.453670	0.457256	-2.109031	-1.047852	-0.009033	0.173096	0.135913	-0.001710	-0.008317	-0.681743	-0.250371	0.687195	0.017427	100.823395	-68.164331	-81.508965
00570		14.251153	-0.387579	-0.732688	1.681866	-5.481967	3.259885	-0.472626	0.440737	-2.319413	-1.044678	-0.033203	0.164795	0.142437	-0.005546	-0.007629	-0.683599	-0.256760	0.682694	0.026380	99.387772	-66.901302	-80.245766
00571		15.936015	-1.339040	-0.623785	2.167373	-7.284439	4.271473	-0.540293	0.490638	-2.553129	-1.041504	-0.063965	0.161133	0.159156	-0.015441	-0.006589	-0.685558	-0.263686	0.677615	0.036307	97.953188	-65.497237	-79.013565
00572		16.974308	-2.337191	-0.262492	2.419145	-9.010774	4.560635	-0.521066	0.560290	-2.792722	-1.040771	-0.092773	0.150879	0.169386	-0.025746	-0.003035	-0.687570	-0.271441	0.671841	0.046878	96.551197	-63.951906	-77.791127
00573		16.806848	-1.942828	-0.817632	3.027703	-8.797797	4.340851	-0.503623	0.491890	-3.005811	-1.044189	-0.123535	0.140625	0.167730	-0.021972	-0.008536	-0.689106	-0.279904	0.665880	0.058218	95.362149	-62.267994	-76.778803
00574		17.207577	-2.365800	-0.131343	2.748325	-9.937227	4.165407	-0.644782	0.374654	-3.201857	-1.027344	-0.158691	0.139404	0.171665	-0.026413	-0.001553	-0.690247	-0.288414	0.659817	0.070834	94.313509	-60.460432	-76.003090
00575		18.472428	-2.615831	0.359783	2.696687	-11.333541	4.762886	-0.800373	0.271406	-3.435654	-1.028809	-0.189453	0.131348	0.184244	-0.029312	0.003461	-0.690959	-0.297051	0.653548	0.084917	93.372275	-58.506627	-75.440066
00576		19.998066	-4.371960	0.349696	3.559672	-14.002854	4.691190	-0.920759	0.173409	-3.619411	-1.018555	-0.229004	0.121338	0.199149	-0.047313	0.003536	-0.691226	-0.305714	0.647084	0.100137	92.525502	-56.443004	-75.059703
00577		21.870094	-6.023994	-0.273980	4.991371	-16.645186	4.769098	-1.021996	0.058220	-3.726497	-1.006348	-0.261963	0.119873	0.217527	-0.064314	-0.002482	-0.690969	-0.314225	0.640564	0.116204	91.779632	-54.310527	-74.861975
00578		22.052416	-5.287367	-0.719952	5.387433	-16.583543	4.702275	-1.034183	0.019223	-3.738728	-1.000732	-0.297119	0.112061	0.219483	-0.057020	-0.006933	-0.690345	-0.322566	0.633922	0.132356	91.103657	-52.172686	-74.756194
00579		22.348446	-7.491012	-2.443645	7.667710	-18.464071	2.905712	-1.129551	-0.076009	-3.651039	-0.986328	-0.332275	0.101807	0.222075	-0.079109	-0.023913	-0.689370	-0.330144	0.627443	0.148626	90.478555	-50.080315	-74.781438
00580		21.403443	-5.939690	-4.612720	9.316191	-16.627825	2.489119	-0.637107	-0.193294	-3.491741	-0.976318	-0.365234	0.098389	0.212997	-0.063268	-0.045724	-0.687104	-0.338687	0.621800	0.162926	90.230511	-48.083577	-74.934518
00581		22.983757	-5.297194	-5.024613	9.944465	-17.503991	3.462603	0.064951	0.033763	-3.114394	-0.966797	-0.382568	0.098633	0.228967	-0.056526	-0.050303	-0.684464	-0.348592	0.616398	0.173336	90.242661	-46.299178	-74.896949
00582		21.606247	-8.799291	-5.782871	11.289713	-19.079445	-0.529157	1.109404	0.540007	-2.697519	-0.955078	-0.404541	0.092773	0.214694	-0.090570	-0.058907	-0.681775	-0.361107	0.610775	0.178153	90.555976	-44.761529	-74.443109
00583		15.911310	-5.017344	-3.013815	7.044352	-13.489457	-2.341377	1.529631	0.819100	-2.684391	-0.945557	-0.426514	0.086670	0.158296	-0.052066	-0.031181	-0.679022	-0.375216	0.604432	0.181121	90.963272	-43.229748	-73.764120
00584		12.558058	4.581128	-2.169496	3.754462	-5.318639	2.061726	0.483121	0.530237	-2.997844	-0.931641	-0.441895	0.075928	0.126191	0.043976	-0.021921	-0.676916	-0.386321	0.597413	0.188781	90.940760	-41.524241	-73.317590
00585		8.353880	10.234491	-3.683289	3.301878	1.371004	3.427486	-0.613672	0.196721	-3.028475	-0.919678	-0.463867	0.067871	0.085038	0.100951	-0.037227	-0.675735	-0.393443	0.590257	0.200452	90.477391	-39.790495	-73.142283
00586		11.441035	-6.418117	-4.428622	8.003322	-11.060952	-7.510717	-0.903182	-0.025563	-1.602117	-0.908447	-0.468262	0.061279	0.113896	-0.065294	-0.043978	-0.675796	-0.395048	0.586304	0.208530	89.972861	-38.879530	-73.159751
00587		10.356567	-11.646170	-6.222497	10.358799	-12.936034	-12.451442	-0.684183	-0.194016	-0.757754	-0.904053	-0.466064	0.054688	0.103183	-0.117065	-0.061725	-0.675764	-0.394763	0.584753	0.213468	89.674303	-38.445646	-73.305339
00588		7.623561	-15.307963	-3.795270	7.916549	-13.833578	-17.079973	-1.274386	-0.035218	0.180956	-0.902344	-0.448730	0.043213	0.076381	-0.153248	-0.036963	-0.678349	-0.389850	0.583905	0.216599	88.963549	-38.557481	-73.332946
00589		5.714232	-12.796730	-2.118740	5.278728	-11.471832	-16.248849	-1.811981	-0.152354	0.787394	-0.904785	-0.437988	0.031738	0.057662	-0.127926	-0.019984	-0.682241	-0.381234	0.583977	0.219497	87.989285	-39.010740	-73.431018
00590		3.051055	-9.323729	-0.799677	2.717415	-7.842696	-15.102603	-2.124814	-0.346637	1.277322	-0.907959	-0.409424	0.028809	0.031118	-0.093117	-0.006953	-0.686620	-0.369810	0.585269	0.221935	86.912654	-39.759514	-73.649286
00591		2.536826	-7.581009	-0.454479	1.887703	-6.578958	-13.967618	-2.140038	-0.493592	1.751875	-0.904297	-0.383057	0.021484	0.026041	-0.075626	-0.003671	-0.690994	-0.356766	0.587782	0.223065	85.875596	-40.779050	-73.938004
00592		1.720174	-6.109349	-0.486464	1.466088	-5.140868	-13.267961	-1.788553	-0.677793	2.248504	-0.914063	-0.354736	0.011963	0.017903	-0.060935	-0.004259	-0.694616	-0.343143	0.592130	0.221683	85.108080	-42.103188	-74.323316
00593		1.838545	-6.140059	-0.880994	1.799928	-5.275087	-13.097030	-1.316667	-0.863200	2.768211	-0.915039	-0.322021	0.008789	0.019270	-0.061194	-0.008325	-0.697286	-0.329388	0.598354	0.217411	84.684073	-43.727001	-74.804886
00594		2.492473	-7.258820	-1.066694	2.153848	-6.593219	-13.265918	-0.840075	-0.964202	3.325040	-0.916504	-0.273438	0.016602	0.026177	-0.072204	-0.010239	-0.699278	-0.315369	0.606238	0.209829	84.575981	-45.685082	-75.332276
00595		3.190155	-7.823369	-0.876811	2.110944	-7.637134	-12.871998	-0.369540	-1.014944	3.890609	-0.917969	-0.229492	0.021973	0.033459	-0.077609	-0.008457	-0.700710	-0.301169	0.615421	0.198895	84.764417	-47.958676	-75.877533
00596		4.034253	-6.981362	-0.676476	1.963895	-7.699656	-11.335782	0.095963	-1.073646	4.365700	-0.919189	-0.192139	0.027832	0.041889	-0.068907	-0.006576	-0.701414	-0.286882	0.625749	0.184811	85.284695	-50.514025	-76.488882
00597		4.938408	-5.325057	-0.666686	1.910925	-7.013662	-9.233915	0.442929	-1.150508	4.762492	-0.911621	-0.145996	0.028809	0.050671	-0.052040	-0.006494	-0.701355	-0.272400	0.636845	0.168309	86.120190	-53.284524	-77.224647
00598		6.066110	-4.082135	-0.961699	2.173502	-6.559601	-7.239506	0.610797	-1.201349	5.132394	-0.908691	-0.099854	0.038818	0.061738	-0.039217	-0.009370	-0.700755	-0.257043	0.648388	0.149881	87.208364	-56.270725	-78.125464
00599		7.261535	-3.593897	-1.146710	2.356924	-6.605401	-5.598810	0.637632	-1.201764	5.486077	-0.905762	-0.047119	0.041748	0.073631	-0.033892	-0.011137	-0.699859	-0.240505	0.659877	0.130068	88.485443	-59.437761	-79.198803
00600		8.622199	-3.526686	-1.206160	2.424287	-6.945444	-3.973855	0.749044	-1.190257	5.830568	-0.900391	-0.005371	0.045166	0.087270	-0.032688	-0.011670	-0.698491	-0.222954	0.671289	0.108502	90.084701	-62.797572	-80.532239
00601		10.178237	-3.406407	-1.075369	2.245962	-7.171560	-2.076910	0.899671	-1.143347	6.174414	-0.888672	0.045410	0.050537	0.102828	-0.030853	-0.010311	-0.696637	-0.204657	0.682323	0.085131	92.126211	-66.322209	-82.218362
00602		12.060943	-2.895420	-0.898523	1.894852	-6.940268	0.328435	1.106306	-1.099618	6.522069	-0.883301	0.087158	0.056152	0.121514	-0.024953	-0.008464	-0.694118	-0.185620	0.692955	0.059650	94.917545	-70.024913	-84.539065
00603		14.502153	-2.069004	-0.736641	1.408466	-6.283872	3.362234	1.243170	-1.035084	6.833395	-0.871338	0.133545	0.068359	0.145650	-0.015677	-0.006721	-0.690978	-0.165855	0.702839	0.032543	98.884973	-73.841943	-87.958100
00604		16.983456	-1.809622	-0.649423	0.960947	-5.760776	6.246515	1.293946	-0.947504	7.111902	-0.866699	0.195068	0.069092	0.170362	-0.012005	-0.005779	-0.687251	-0.145009	0.711788	0.004121	105.093990	-77.730331	-93.592979
00605		19.226380	-1.590780	-0.592336	0.426569	-4.833192	8.864143	1.475726	-0.874080	7.306093	-0.859375	0.247803	0.074463	0.192696	-0.008833	-0.005164	-0.682727	-0.123978	0.719623	-0.025613	116.649401	-81.479488	-104.471794
00606		21.156204	1.947641	-0.947679	-0.556768	-0.211306	11.440859	2.032749	-0.915993	7.277706	-0.847412	0.296143	0.077637	0.210704	0.027243	-0.008260	-0.676721	-0.104696	0.726505	-0.057253	142.963193	-84.425424	-129.796206
00607		23.977608	4.562661	2.278831	-5.069079	2.928081	13.986764	1.778742	-0.798297	7.207750	-0.840576	0.360107	0.084961	0.237835	0.054011	0.024196	-0.670346	-0.084708	0.731968	-0.087652	-170.257968	-84.999566	-175.727727
00608		25.178636	6.435835	1.857139	-5.866618	6.438505	14.736969	1.644694	-0.708175	7.011999	-0.826416	0.410645	0.085938	0.249259	0.072967	0.020034	-0.663521	-0.064750	0.736129	-0.116886	-136.925785	-82.752246	151.713956
00609		26.469412	8.821832	1.849936	-7.280213	10.374552	15.106248	1.808917	-0.712453	6.674189	-0.803711	0.461426	0.095703	0.261489	0.096803	0.020285	-0.656004	-0.046583	0.739155	-0.145394	-122.246213	-79.521187	137.915871
00610		29.830890	10.706089	2.372622	-9.441092	13.944075	17.136214	1.847566	-0.584659	6.155505	-0.787598	0.518555	0.092041	0.294758	0.115939	0.025635	-0.648572	-0.030233	0.740786	-0.172268	-114.700520	-76.245309	131.285653
00611		33.935423	12.837897	0.962335	-10.073132	18.601090	19.674795	2.239030	-0.323247	5.760045	-0.771240	0.569092	0.090820	0.335455	0.137956	0.011677	-0.641757	-0.016442	0.740425	-0.199120	-109.509898	-73.115715	127.238519
00612		23.808293	20.098760	6.934399	-16.555342	22.093033	6.204347	1.689994	0.134135	4.551953	-0.756836	0.608643	0.090088	0.233483	0.205742	0.070912	-0.637372	-0.004819	0.738468	-0.219998	-105.884938	-70.644008	124.445590
00613		21.919779	24.645524	0.813142	-12.090378	28.212786	2.280010	0.947243	0.119637	4.274988	-0.733643	0.650635	0.089111	0.213870	0.251023	0.009184	-0.632928	0.008062	0.736972	-0.237084	-103.506248	-68.291579	122.488281
00614		14.451798	18.806299	-2.459952	-5.992444	22.166209	-3.389332	0.104547	0.150927	3.927848	-0.710205	0.683594	0.092773	0.140769	0.190865	-0.024607	-0.628693	0.022425	0.736065	-0.249901	-102.055186	-66.107900	120.981176
00615		12.476974	16.902326	-8.851731	0.869855	22.191133	-4.667131	0.528167	-0.301186	3.067674	-0.686523	0.714600	0.085449	0.122288	0.171144	-0.087882	-0.623727	0.031659	0.735919	-0.261507	-101.346271	-64.351593	120.536539
00616		11.735025	21.237946	-8.713690	-0.479531	25.699712	-7.826025	0.855830	-0.430968	2.560114	-0.667236	0.734375	0.089355	0.114802	0.214229	-0.085974	-0.618854	0.037874	0.735665	-0.272731	-100.773384	-62.858117	120.446530
00617		11.682298	25.217447	-6.255859	-4.043625	28.190847	-10.467499	0.480682	-0.442063	2.029878	-0.650146	0.758789	0.091064	0.114392	0.253493	-0.061696	-0.614509	0.043232	0.735951	-0.280864	-100.561628	-61.668143	120.521278
00618		14.597967	25.708010	-1.935553	-8.967498	28.223581	-8.944099	-0.065872	-0.405034	1.051497	-0.639160	0.765625	0.101807	0.144664	0.257837	-0.019147	-0.611501	0.046751	0.737047	-0.283975	-100.810151	-61.028242	120.763943
00619		17.237721	25.639204	1.003179	-12.310106	28.214798	-7.001959	-0.471217	-0.318906	-0.127105	-0.636963	0.765381	0.097412	0.172524	0.256306	0.009703	-0.610388	0.047253	0.738718	-0.281940	-101.429207	-61.064296	121.165727
00620		18.132560	23.321365	1.759216	-12.546044	26.370648	-5.022241	-0.288273	-0.001421	-1.030087	-0.648193	0.765381	0.093018	0.182524	0.232301	0.017258	-0.611745	0.044328	0.739360	-0.277758	-101.812008	-61.639353	121.416367
00621		20.564899	19.745147	-5.158743	-5.746910	26.715905	-0.189005	0.311516	-0.082937	-1.575319	-0.652100	0.750000	0.095703	0.207217	0.195903	-0.051196	-0.613669	0.037419	0.739507	-0.274116	-102.073349	-62.512400	121.916968
00622		10.268232	18.156430	-13.580113	4.901878	24.279477	-7.368981	0.641402	-0.155976	-2.267587	-0.660889	0.743408	0.097900	0.104841	0.180818	-0.135139	-0.616268	0.026839	0.739479	-0.269561	-102.421954	-63.762046	122.722408
00623		17.686995	-12.650533	-7.777321	6.701036	-1.725873	12.219735	-2.569012	0.643538	-2.229919	-0.675781	0.723633	0.107178	0.175190	-0.129455	-0.076688	-0.621209	0.027357	0.741148	-0.253082	-103.747838	-65.089759	122.563200
00624		13.381177	-22.535967	1.506225	1.663133	-15.653386	11.195891	-1.809880	0.428771	-2.336563	-0.686523	0.710205	0.100830	0.131203	-0.226756	0.016827	-0.625425	0.024843	0.742348	-0.239050	-104.995921	-66.446872	122.797518
00625		14.285955	1.507470	8.163454	-11.096140	3.274746	1.982762	1.106456	0.218909	-2.938491	-0.706055	0.694824	0.092285	0.143145	0.012522	0.081552	-0.629803	0.010718	0.740616	-0.233927	-105.117356	-68.105073	123.619146
00626		14.798395	1.293386	4.373407	-7.475551	4.063243	3.124747	2.153538	-0.195038	-2.729815	-0.720947	0.672607	0.079590	0.148095	0.010440	0.044000	-0.632283	-0.006414	0.738748	-0.233300	-105.220494	-69.584609	125.055448
00627		12.272191	-0.337728	2.527994	-4.661003	2.135180	1.624770	2.333727	-0.277625	-2.617654	-0.727051	0.652588	0.066895	0.122626	-0.005279	0.025396	-0.634131	-0.023800	0.736706	-0.233615	-105.418144	-70.988953	126.688375
00628		11.816866	5.876835	5.082427	-8.939144	6.231763	-0.798969	1.862961	-0.052056	-2.583183	-0.742432	0.647949	0.058105	0.118897	0.056759	0.051390	-0.636646	-0.039293	0.734295	-0.232268	-105.636029	-72.406595	128.044678
00629		11.262502	2.584240	4.344538	-6.957903	3.135807	-0.109981	1.214055	-0.033470	-2.392356	-0.752930	0.625732	0.052002	0.112914	0.024228	0.043615	-0.638997	-0.051993	0.732457	-0.229098	-106.238231	-73.719182	129.403878
00630		9.727641	-0.292373	0.721076	-2.251348	1.447856	-0.428493	1.027342	-0.348029	-2.283483	-0.759033	0.610352	0.045654	0.097222	-0.004072	0.007361	-0.640015	-0.064048	0.731739	-0.225469	-107.688844	-74.912655	131.524295
00631		10.864176	1.464432	-1.074617	-1.451367	3.748700	0.442333	1.065569	-0.540305	-2.232233	-0.769531	0.590576	0.039551	0.108825	0.013486	-0.010378	-0.640153	-0.076246	0.731495	-0.222048	-109.797009	-76.024337	134.335272
00632		10.595371	2.198286	-1.905506	-0.942428	4.485965	0.172743	1.031246	-0.628625	-2.118620	-0.778076	0.577148	0.041992	0.106238	0.020955	-0.018612	-0.639761	-0.088004	0.731499	-0.218794	-112.435200	-77.027539	137.657933
00633		10.745520	4.457559	-1.714066	-2.078869	6.224619	-0.055562	0.815930	-0.604228	-1.986524	-0.788818	0.566162	0.037842	0.107942	0.043574	-0.016636	-0.639316	-0.098552	0.731621	-0.215159	-115.475918	-77.927137	141.254048
00634		11.219095	5.144044	-1.531058	-2.616413	6.612022	0.390461	0.284685	-0.493709	-1.849952	-0.792725	0.548584	0.042725	0.112698	0.050421	-0.014961	-0.639324	-0.106775	0.731947	-0.210043	-118.880019	-78.741602	144.898733
00635		11.202669	3.746584	-2.477684	-1.160771	5.597200	0.817267	0.035735	-0.423681	-1.698879	-0.803711	0.537598	0.042969	0.112392	0.036517	-0.024532	-0.639504	-0.113564	0.732330	-0.204524	-122.527328	-79.454417	148.636353
00636		11.495717	3.103912	-1.285914	-1.957116	4.344653	1.175028	-0.248960	-0.315763	-1.580685	-0.803467	0.528809	0.047607	0.115218	0.030113	-0.012715	-0.640079	-0.118897	0.732672	-0.198380	-126.343211	-80.099875	152.371122
00637		10.967274	2.278851	-0.353830	-2.302816	2.992212	0.739129	-0.702182	-0.228074	-1.471769	-0.812012	0.517822	0.050049	0.109840	0.021968	-0.003491	-0.641089	-0.122280	0.733201	-0.190969	-130.447382	-80.679241	156.128105
00638		10.506808	1.630939	-2.046430	-0.393386	2.973835	0.591173	-0.866147	-0.239310	-1.317946	-0.822754	0.506836	0.059082	0.105197	0.015528	-0.020407	-0.641973	-0.124583	0.733966	-0.183423	-134.778455	-81.142839	160.013949
00639		10.947835	-0.334151	-1.702679	0.101262	0.938863	1.231430	-0.958487	-0.170380	-1.107265	-0.826904	0.498047	0.061523	0.109472	-0.004029	-0.016915	-0.642933	-0.125739	0.734684	-0.176255	-138.799564	-81.505418	163.528552
00640		10.194755	-0.718059	-1.626775	0.326600	0.406982	0.522773	-0.802311	-0.192659	-0.909835	-0.826660	0.491699	0.066162	0.101929	-0.007709	-0.016139	-0.643513	-0.126693	0.735425	-0.170264	-142.483366	-81.750987	166.789724
00641		10.556278	-0.149460	-1.797515	0.219532	0.907800	0.855742	-0.628609	-0.173940	-0.758978	-0.826660	0.487305	0.077393	0.105572	-0.001952	-0.017878	-0.643900	-0.127624	0.736032	-0.165413	-145.709827	-81.924411	169.687858
00642		10.666423	-0.062450	-1.379464	-0.192938	0.735579	0.915808	-0.448101	-0.166007	-0.648694	-0.830811	0.480713	0.077393	0.106673	-0.001001	-0.013704	-0.644100	-0.128729	0.736518	-0.161574	-148.560346	-82.046250	172.309587
00643		10.519939	-0.246725	-1.653952	0.160991	0.605286	0.820887	-0.252471	-0.147177	-0.553106	-0.830811	0.478516	0.082031	0.105204	-0.002779	-0.016459	-0.644154	-0.130087	0.736839	-0.158782	-150.983386	-82.131964	174.612378
00644		10.430629	-0.293003	-2.033351	0.544953	0.655607	0.784074	-0.107233	-0.126901	-0.477056	-0.835205	0.476318	0.075439	0.104312	-0.003190	-0.020266	-0.644126	-0.131623	0.737021	-0.156773	-153.056725	-82.195844	176.645621
00645		10.243681	-0.112029	-1.931165	0.414290	0.730126	0.578176	-0.054849	-0.088753	-0.426948	-0.835205	0.474121	0.075439	0.102443	-0.001344	-0.019266	-0.644157	-0.133105	0.737070	-0.155152	-154.863453	-82.256519	178.439908
00646		10.109511	-0.139921	-1.681124	0.227082	0.561511	0.418684	-0.115192	-0.041462	-0.392029	-0.841553	0.465332	0.084473	0.101096	-0.001607	-0.016789	-0.644377	-0.134235	0.737031	-0.153443	-156.524288	-82.327012	-179.948308
00647		9.913839	-0.748126	-1.521860	0.363303	-0.098618	0.238089	-0.225209	0.012962	-0.381297	-0.839600	0.469727	0.079834	0.099123	-0.007687	-0.015216	-0.644856	-0.134920	0.736908	-0.151407	-158.138576	-82.417005	-178.447276
00648		9.675402	-0.835265	-1.646189	0.559243	-0.166575	0.019930	-0.291075	0.036053	-0.383478	-0.841553	0.460938	0.080078	0.096735	-0.008562	-0.016467	-0.645466	-0.135391	0.736752	-0.149129	-159.810076	-82.514677	-176.927025
00649		9.745228	-0.933975	-1.595989	0.561856	-0.316666	0.085435	-0.337125	0.053124	-0.402168	-0.841309	0.458740	0.080078	0.097429	-0.009563	-0.015970	-0.646178	-0.135760	0.736560	-0.146639	-161.594021	-82.618474	-175.320239
00650		9.416343	-1.262161	-1.603579	0.757577	-0.653331	-0.229834	-0.335773	0.041227	-0.422889	-0.850098	0.452148	0.080322	0.094133	-0.012848	-0.016034	-0.646857	-0.136225	0.736385	-0.144070	-163.537214	-82.713023	-173.552551
00651		9.381296	-1.013505	-1.396698	0.494293	-0.547002	-0.302537	-0.333592	0.018287	-0.454240	-0.838867	0.445801	0.087158	0.093788	-0.010371	-0.013958	-0.647466	-0.136821	0.736257	-0.141399	-165.680037	-82.791092	-171.582627
00652		9.452920	-1.003428	-1.006554	0.140751	-0.735866	-0.282935	-0.382831	-0.016043	-0.492132	-0.847656	0.445801	0.091553	0.094505	-0.010286	-0.010038	-0.648005	-0.137427	0.736241	-0.138392	-168.104459	-82.845352	-169.357669
00653		9.487987	-1.353340	-0.897015	0.182581	-1.153073	-0.257851	-0.390134	-0.061874	-0.532618	-0.847412	0.437012	0.091797	0.094846	-0.013803	-0.008914	-0.648400	-0.138182	0.736345	-0.135201	-170.773059	-82.865291	-166.890953
00654		9.284655	-1.528345	-1.108608	0.477722	-1.285801	-0.437835	-0.323209	-0.105856	-0.583160	-0.858398	0.430176	0.087402	0.092807	-0.015572	-0.011012	-0.648616	-0.139374	0.736501	-0.132055	-173.673510	-82.849533	-164.152018
00655		9.049333	-1.289424	-1.140645	0.453962	-1.105515	-0.678930	-0.253876	-0.152222	-0.649722	-0.858398	0.427979	0.089844	0.090459	-0.013203	-0.011321	-0.648647	-0.141059	0.736708	-0.128920	-176.820760	-82.792271	-161.124004
00656		9.178469	-1.195894	-1.023882	0.304722	-1.134426	-0.574582	-0.238789	-0.176290	-0.716782	-0.857910	0.419434	0.094482	0.091750	-0.012300	-0.010143	-0.648615	-0.143059	0.736925	-0.125599	179.789905	-82.700895	-157.842824
00657		9.096603	-1.393543	-1.826061	1.134835	-1.090086	-0.563471	-0.182942	-0.212858	-0.785889	-0.860107	0.415039	0.096680	0.090930	-0.014309	-0.018151	-0.648438	-0.145509	0.737165	-0.122237	176.239647	-82.562166	-154.366196
00658		8.861415	-1.355695	-2.874648	2.122382	-0.736983	-0.670592	-0.187319	-0.244651	-0.889092	-0.861816	0.399658	0.099365	0.088588	-0.013978	-0.028625	-0.648200	-0.148348	0.737420	-0.118494	172.399677	-82.371021	-150.598638
00659		8.915720	-1.934485	-3.147510	2.595025	-1.271063	-0.604622	-0.293421	-0.222372	-1.011103	-0.868652	0.399658	0.103760	0.089093	-0.019841	-0.031347	-0.648177	-0.151270	0.737558	-0.113982	168.191522	-82.146466	-146.518963
00660		8.745634	-2.611153	-3.779103	3.464339	-1.762442	-0.731009	-0.293731	-0.219240	-1.148298	-0.870361	0.388672	0.104004	0.087346	-0.026669	-0.037656	-0.648223	-0.154695	0.737557	-0.109020	163.694239	-81.863295	-142.145035
00661		8.972395	-2.446752	-4.461684	4.030842	-1.504633	-0.438047	-0.370540	-0.200322	-1.312887	-0.870117	0.375488	0.104248	0.089605	-0.025138	-0.044481	-0.648461	-0.158457	0.737380	-0.103255	158.861380	-81.511714	-137.472977
00662		9.598272	-1.732201	-3.411145	2.760857	-1.426914	0.041370	-0.515611	-0.218127	-1.545505	-0.871582	0.355713	0.106934	0.095882	-0.018151	-0.033961	-0.648830	-0.162611	0.737108	-0.096178	153.613645	-81.038629	-132.460202
00663		11.086193	2.179345	-1.247966	-0.775545	1.096576	1.474625	-0.511587	-0.162735	-1.689663	-0.878174	0.346924	0.111572	0.111051	0.020824	-0.012443	-0.649422	-0.167266	0.736483	-0.088689	148.396015	-80.486219	-127.468601
00664		11.959815	2.186411	1.078279	-2.953596	-0.013467	2.030139	-0.528030	-0.042386	-1.802836	-0.884277	0.329346	0.105469	0.119787	0.020813	0.010752	-0.650466	-0.172221	0.735320	-0.080862	143.235501	-79.883775	-122.535983
00665		12.359045	0.025866	0.954001	-2.026722	-2.240945	2.209084	-0.423366	-0.084065	-1.881192	-0.892578	0.307373	0.110352	0.123582	-0.000884	0.009593	-0.651241	-0.177802	0.734115	-0.073125	138.635871	-79.165641	-118.102703
00666		12.784448	0.625727	0.695813	-1.974354	-1.902942	2.709008	-0.338323	-0.313785	-2.036339	-0.894287	0.294189	0.117432	0.127888	0.004967	0.007150	-0.651088	-0.184298	0.733414	-0.064981	134.811663	-78.233203	-114.398190
00667		12.985328	1.086938	1.537119	-2.885016	-2.062892	2.819702	-0.424456	-0.420109	-2.216538	-0.897949	0.270020	0.115723	0.129931	0.009463	0.015623	-0.650604	-0.191184	0.732834	-0.055831	131.403275	-77.140249	-111.156113
00668		12.349458	0.681476	0.480702	-1.657351	-2.241811	2.246522	-0.249724	-0.504606	-2.395818	-0.899902	0.254639	0.122803	0.123552	0.005341	0.005111	-0.649603	-0.199294	0.732204	-0.046647	128.510948	-75.900952	-108.326741
00669		12.848092	-0.138954	0.697932	-1.543433	-3.485335	2.477172	-0.325492	-0.273938	-2.629867	-0.896484	0.223877	0.114746	0.128438	-0.003067	0.007159	-0.649468	-0.207926	0.730489	-0.036650	125.366710	-74.601061	-105.265892
00670		13.083647	-0.229853	0.909313	-1.620821	-4.019433	2.567446	-0.486070	-0.017491	-2.799671	-0.906982	0.197510	0.124268	0.130787	-0.004107	0.009113	-0.650347	-0.216570	0.727655	-0.025773	122.031303	-73.259640	-102.082606
00671		13.691398	-0.296431	0.178879	-0.803661	-4.359248	3.145376	-0.610658	0.243451	-2.984161	-0.910400	0.168945	0.115967	0.136852	-0.005001	0.001635	-0.652191	-0.225400	0.723632	-0.014122	118.558243	-71.852487	-98.806607
00672		15.142483	-1.320205	-0.709769	0.505286	-5.824388	4.235192	-0.542628	0.371800	-3.161644	-0.914063	0.142578	0.116699	0.151177	-0.015613	-0.007339	-0.654276	-0.235027	0.718805	-0.002277	115.301222	-70.332853	-95.690554
00673		16.336033	-1.169929	-1.044215	0.960910	-6.416844	5.260445	-0.460341	0.432499	-3.391158	-0.908691	0.111816	0.106445	0.163107	-0.014491	-0.010764	-0.656300	-0.245683	0.713310	0.009950	112.338074	-68.654398	-92.806282
00674		17.523474	-1.112209	-0.370364	0.549883	-7.493603	6.060430	-0.489220	0.411920	-3.607746	-0.916504	0.078857	0.102783	0.174988	-0.014290	-0.004032	-0.658071	-0.256934	0.707388	0.023013	109.712379	-66.809035	-90.270031
00675		18.180893	-1.712326	0.480876	0.218708	-9.068698	6.042245	-0.635319	0.306105	-3.811635	-0.910889	0.034912	0.104004	0.181446	-0.020569	0.004593	-0.659394	-0.268326	0.701286	0.037391	107.435045	-64.793990	-88.170064
00676		20.112078	-2.647039	1.119415	0.221146	-11.471418	6.952110	-0.764449	0.208249	-4.040708	-0.911865	0.001953	0.102539	0.200543	-0.030484	0.011097	-0.660245	-0.279963	0.694894	0.053091	105.443373	-62.607330	-86.435216
00677		22.261682	-4.768485	1.712189	0.680254	-15.063103	7.328410	-0.822981	0.183149	-4.243226	-0.910645	-0.037598	0.103516	0.221555	-0.052323	0.017128	-0.660740	-0.291986	0.687977	0.069677	103.666825	-60.280004	-84.947018
00678		23.381085	-6.347840	0.470363	2.664776	-17.238314	7.005086	-1.063465	0.069897	-4.385579	-0.900635	-0.079346	0.093506	0.232346	-0.068558	0.004978	-0.660828	-0.303510	0.680808	0.087687	102.062321	-57.840134	-83.785075
00679		26.013860	-8.313202	0.159373	3.903212	-20.847525	7.388308	-1.611702	-0.084319	-4.493971	-0.892578	-0.121094	0.087891	0.258183	-0.088931	0.002404	-0.660815	-0.313372	0.673375	0.108111	100.453086	-55.305064	-82.960751
00680		28.772503	-14.137746	-0.422242	6.343536	-27.535594	5.329253	-2.170573	-0.140608	-4.473941	-0.884521	-0.160400	0.086914	0.284469	-0.147799	-0.002441	-0.661112	-0.321085	0.665462	0.130367	98.733230	-52.766075	-82.370833
00681		26.941262	-14.869430	-1.224525	7.077677	-27.450893	2.212951	-2.247410	-0.143928	-4.404790	-0.869873	-0.206543	0.079102	0.266057	-0.154702	-0.010337	-0.661154	-0.328133	0.657208	0.152584	97.114425	-50.254855	-81.944957
00682		26.091925	-12.704090	-3.743654	8.873525	-25.303688	1.893599	-1.744464	-0.050371	-4.259288	-0.855225	-0.243896	0.073486	0.258140	-0.132878	-0.036229	-0.660420	-0.336224	0.648902	0.172412	95.834069	-47.830098	-81.571400
00683		23.977998	-5.989005	-5.315966	8.895628	-19.279198	3.904802	-0.209583	0.288495	-3.968910	-0.845459	-0.272461	0.069824	0.238451	-0.064687	-0.053438	-0.658142	-0.348603	0.640978	0.185667	95.308703	-45.582669	-81.011276
00684		24.358629	-6.498868	-6.569294	10.562748	-19.989983	3.129604	1.325630	0.732271	-3.462959	-0.826904	-0.298584	0.070557	0.242174	-0.068749	-0.067029	-0.654841	-0.364662	0.633674	0.191474	95.475549	-43.651070	-80.165234
00685		20.214244	-5.200220	-4.656509	8.250502	-16.870270	0.415858	0.952815	0.595463	-3.431315	-0.814453	-0.335938	0.060547	0.201073	-0.055234	-0.047423	-0.651584	-0.379176	0.626288	0.198563	95.537778	-41.726684	-79.448180
00686		12.672697	4.330657	-3.511183	4.288723	-5.867318	1.970485	-0.286148	0.592669	-3.434785	-0.802246	-0.371094	0.054688	0.127340	0.041072	-0.035548	-0.650468	-0.389507	0.617496	0.209461	94.930959	-39.803039	-78.767449
00687		4.710694	12.766265	-6.263577	4.215213	5.556603	3.443815	-0.850759	0.415514	-3.660918	-0.781494	-0.388672	0.044189	0.049299	0.126505	-0.063276	-0.649443	-0.398420	0.608026	0.223138	94.123307	-37.730656	-78.252253
00688		11.139391	-8.556047	-10.282729	13.371611	-11.134635	-9.327275	-1.367373	0.022820	-1.547001	-0.781250	-0.401855	0.040039	0.110712	-0.087119	-0.102248	-0.650470	-0.398667	0.603344	0.232227	93.289805	-36.852125	-78.166480
00689		17.273246	-20.095526	-7.425776	13.482786	-23.350246	-15.317378	-1.764796	0.136426	-0.692053	-0.778809	-0.406250	0.029297	0.171984	-0.202197	-0.072595	-0.653551	-0.395168	0.599456	0.239510	92.209760	-36.459700	-78.046911
00690		10.324689	-17.092662	-2.026176	6.267155	-17.509206	-17.362745	-2.361666	0.439236	0.137890	-0.776611	-0.404541	0.002686	0.103323	-0.171081	-0.018469	-0.659645	-0.387512	0.595460	0.245214	90.675929	-36.550994	-77.739288
00691		6.596410	-13.302384	-0.581278	3.349138	-12.833128	-16.512284	-2.950290	0.168876	0.895834	-0.778809	-0.400391	-0.010742	0.066555	-0.132794	-0.003909	-0.666869	-0.375288	0.592963	0.250678	88.915133	-37.063843	-77.617629
00692		2.366748	-8.325380	-0.608045	1.803512	-6.720550	-14.995163	-3.069283	-0.188558	1.319562	-0.788086	-0.391602	-0.021973	0.024221	-0.083175	-0.004781	-0.673623	-0.360827	0.592179	0.255655	87.223829	-37.829731	-77.724583
00693		2.341723	-9.237362	-1.121163	2.149980	-7.315693	-15.636723	-2.722002	-0.167624	2.005573	-0.797607	-0.372070	-0.035889	0.024352	-0.092274	-0.009935	-0.680491	-0.345468	0.592810	0.257217	85.687291	-38.982554	-77.757757
00694		0.885001	-9.812826	-0.705086	1.362139	-6.841475	-16.805689	-1.722187	-0.208746	2.766906	-0.809326	-0.348389	-0.052002	0.010214	-0.098049	-0.006196	-0.686307	-0.331065	0.596048	0.253191	84.693273	-40.579203	-77.743037
00695		0.988259	-8.962071	-0.483310	1.056363	-6.615485	-15.865796	-0.538886	-0.390401	3.432128	-0.823486	-0.324219	-0.046143	0.011428	-0.089446	-0.004571	-0.690261	-0.318455	0.602308	0.243619	84.420076	-42.558065	-77.792908
00696		1.981971	-7.814375	-0.371285	1.076883	-6.757795	-14.089857	0.389013	-0.499864	4.013349	-0.837891	-0.286865	-0.042480	0.021392	-0.077718	-0.003812	-0.692874	-0.307007	0.610814	0.229299	84.711813	-44.881416	-77.889447
00697		3.135605	-6.190070	-0.428406	1.280816	-6.523505	-11.844255	0.970916	-0.561264	4.543131	-0.854736	-0.249756	-0.043701	0.032763	-0.061146	-0.004492	-0.694675	-0.295783	0.620689	0.211385	85.371395	-47.502522	-78.028940
00698		4.569513	-5.245847	-0.784047	1.825113	-6.758075	-9.840117	1.131480	-0.570324	5.004705	-0.864990	-0.205811	-0.038086	0.047010	-0.051248	-0.008000	-0.696281	-0.283449	0.631098	0.191220	86.155526	-50.393522	-78.206244
00699		5.989631	-5.053079	-1.225726	2.466597	-7.373412	-8.249324	1.186346	-0.576070	5.430529	-0.877686	-0.157471	-0.034912	0.061273	-0.048806	-0.012375	-0.697689	-0.269797	0.641698	0.169304	87.023999	-53.519105	-78.442436
00700		7.373408	-4.437090	-1.315708	2.660521	-7.516062	-6.320710	1.286471	-0.588177	5.827104	-0.885742	-0.111328	-0.029541	0.075022	-0.042113	-0.013213	-0.698675	-0.254937	0.652444	0.145522	88.044459	-56.876564	-78.784870
00701		8.396261	-3.101309	-1.053136	2.300553	-6.721675	-4.269749	1.285290	-0.598563	6.169209	-0.891846	-0.063232	-0.035156	0.084896	-0.028336	-0.010466	-0.699210	-0.238756	0.663016	0.120460	89.209393	-60.418435	-79.283216
00702		9.492373	-2.220174	-1.026073	2.153517	-6.092869	-2.444404	1.109419	-0.579671	6.498622	-0.895508	-0.012695	-0.029785	0.095606	-0.019046	-0.010096	-0.699484	-0.220578	0.673135	0.094643	90.463977	-64.150366	-79.979742
00703		11.110044	-2.299029	-1.373815	2.495174	-6.246962	-0.576703	0.891089	-0.504853	6.846804	-0.904053	0.048584	-0.031250	0.111833	-0.019109	-0.013547	-0.699611	-0.200298	0.682477	0.068191	91.808742	-68.066805	-80.888643
00704		13.262684	-1.890384	-2.106998	3.083579	-5.802405	2.047148	0.860405	-0.464252	7.150006	-0.907959	0.101318	-0.026123	0.133236	-0.014057	-0.020829	-0.699133	-0.178588	0.691136	0.040617	93.578044	-72.154280	-82.243037
00705		15.974928	-0.810085	-2.215587	2.840439	-4.630710	5.390312	0.857346	-0.459807	7.388282	-0.909912	0.158447	-0.029785	0.159951	-0.002100	-0.021806	-0.697783	-0.155857	0.699041	0.012203	96.300580	-76.349709	-84.556966
00706		17.791791	0.157982	-2.007275	2.148407	-2.985089	7.706481	0.845778	-0.505557	7.535182	-0.911621	0.219971	-0.020264	0.177738	0.008363	-0.019597	-0.695298	-0.132294	0.706244	-0.016705	101.478125	-80.581495	-89.341345
00707		18.879784	0.568684	-1.614144	1.281936	-1.514099	9.035724	1.010866	-0.593793	7.598720	-0.904541	0.277344	-0.008301	0.188445	0.012932	-0.015528	-0.691374	-0.108949	0.712733	-0.046293	115.132832	-84.634233	-102.514518
00708		19.321109	3.355628	-2.247494	0.800589	2.699957	9.719119	1.602705	-0.778290	7.555531	-0.895508	0.338867	-0.000977	0.191841	0.040997	-0.021418	-0.685441	-0.087629	0.718646	-0.077712	170.087261	-87.191776	-156.655148
00709		21.263510	8.127273	1.271863	-4.387589	7.927172	11.103115	1.604306	-0.707241	7.505212	-0.893066	0.402832	0.012939	0.209341	0.089061	0.014157	-0.678764	-0.066391	0.723205	-0.108838	-129.190084	-85.018789	143.438683
00710		22.469469	10.004075	1.275282	-5.523866	11.249638	11.382861	1.220762	-0.503746	7.250799	-0.888184	0.464355	0.033447	0.220840	0.108012	0.013956	-0.672113	-0.044513	0.726175	-0.137667	-112.705625	-81.264364	127.551856
00711		25.748864	10.665239	0.839804	-6.181885	13.844382	13.581042	1.457467	-0.541670	6.844141	-0.867920	0.526123	0.047363	0.253615	0.115308	0.009908	-0.664690	-0.024926	0.728072	-0.165763	-106.433340	-77.460847	122.025628
00712		30.916025	11.513824	1.245271	-8.079467	16.993365	17.307577	1.729651	-0.472763	6.254163	-0.858398	0.576904	0.057129	0.305330	0.124609	0.014228	-0.657201	-0.008258	0.728607	-0.192744	-102.906210	-73.918012	119.411856
00713		33.215801	12.697120	2.168212	-10.281406	19.853054	17.918529	1.752067	-0.129632	5.694211	-0.844482	0.631836	0.062500	0.328354	0.136159	0.023062	-0.650871	0.006588	0.727259	-0.217759	-100.091547	-70.705586	117.514866
00714		24.708794	18.095989	2.230837	-11.072144	23.305409	6.831346	1.516799	0.019808	5.168104	-0.830566	0.682617	0.070068	0.242308	0.187087	0.023688	-0.645114	0.020486	0.725108	-0.240056	-97.963929	-67.777023	116.171755
00715		19.238046	19.386928	-1.825594	-7.040323	24.476189	0.211714	1.097740	0.274582	4.805565	-0.812012	0.730957	0.064697	0.187623	0.198513	-0.017435	-0.640251	0.034673	0.722193	-0.259449	-96.199395	-65.063816	114.935939
00716		15.081667	20.621840	-8.510542	-0.691383	26.474686	-4.950861	1.932677	0.084596	4.056669	-0.799805	0.772705	0.059082	0.146547	0.210030	-0.083151	-0.635455	0.043249	0.718525	-0.279371	-94.546876	-62.749818	114.331608
00717		14.759546	25.664205	-14.138697	2.569163	32.674628	-8.385987	2.476866	-0.492875	2.917005	-0.787354	0.803467	0.053955	0.144157	0.260483	-0.137819	-0.630021	0.045146	0.715867	-0.297606	-93.437131	-61.062906	114.685235
00718		10.690514	32.243971	-9.024200	-3.978163	34.348340	-16.114144	1.130123	-0.723625	2.046614	-0.774658	0.825684	0.064453	0.103916	0.324015	-0.088034	-0.624580	0.047835	0.715948	-0.308271	-93.395836	-59.864531	115.384619
00719		15.458793	31.537070	-4.147152	-9.520208	33.969628	-12.298503	-0.006690	-0.681820	1.050568	-0.777588	0.843262	0.079590	0.153069	0.316176	-0.040959	-0.620500	0.050547	0.717822	-0.311700	-93.996362	-59.238643	116.079654
00720		18.592637	29.413154	-1.380460	-12.101550	32.637446	-8.776328	-0.506514	-0.236148	-0.076695	-0.779785	0.847900	0.086182	0.186056	0.294024	-0.014330	-0.619630	0.051468	0.719360	-0.309726	-94.518655	-59.270909	116.352452
00721		16.194073	28.632204	-1.203476	-11.331144	30.901558	-10.239996	-0.772114	0.066463	-1.108408	-0.795654	0.850098	0.103760	0.163520	0.285369	-0.013192	-0.621367	0.049958	0.720619	-0.303507	-94.985541	-59.906913	116.383748
00722		14.790299	25.508829	-3.451366	-7.775504	28.645972	-9.286761	-0.896966	0.143013	-2.101725	-0.812988	0.834961	0.121582	0.150546	0.253357	-0.035760	-0.624799	0.045367	0.722015	-0.293705	-95.550927	-61.113601	116.445673
00723		22.471210	14.981989	-13.074015	2.868587	26.689897	3.593266	-0.813610	-0.322855	-2.335967	-0.839355	0.823975	0.135254	0.226649	0.146648	-0.130976	-0.626824	0.038981	0.724692	-0.283537	-96.623801	-62.424802	117.137058
00724		13.562366	-16.603300	-8.636423	10.142944	-5.470991	10.221071	-1.384971	0.114193	-2.323899	-0.854736	0.808594	0.153076	0.133629	-0.168187	-0.085281	-0.630197	0.035032	0.726689	-0.271196	-97.616195	-63.755329	117.362823
00725		18.873133	-35.713961	9.019402	-1.967718	-26.447588	21.961836	-1.537993	0.652575	-2.183088	-0.871826	0.791016	0.157959	0.185122	-0.358469	0.092339	-0.635193	0.032811	0.727033	-0.258605	-98.080793	-65.045382	116.903625
00726		13.706354	1.757515	10.392435	-12.802780	2.944740	1.427419	1.824966	0.230226	-3.173391	-0.893555	0.768555	0.138672	0.137429	0.014448	0.103908	-0.640316	0.015750	0.724344	-0.255092	-97.288650	-66.865308	117.183998
00727		18.523284	14.581587	3.810442	-11.506628	17.469070	1.702054	3.362222	-0.403451	-3.410593	-0.921875	0.752930	0.121094	0.187595	0.141958	0.040890	-0.643278	-0.007900	0.721408	-0.256323	-96.500911	-68.777486	118.416373
00728		20.567895	3.780359	2.852280	-7.438585	8.401281	8.061879	2.475490	-0.512524	-3.286277	-0.943359	0.726318	0.112793	0.206184	0.034057	0.029488	-0.645398	-0.028395	0.719601	-0.254616	-96.446699	-70.616452	119.873559
00729		10.955413	5.051363	3.656349	-7.020584	5.875387	-1.147855	1.738973	-0.533023	-3.242044	-0.964844	0.697510	0.106934	0.110252	0.048408	0.037284	-0.647241	-0.046362	0.718524	-0.250307	-97.010254	-72.425510	121.520785
00730		11.734089	7.098147	3.278790	-7.602197	7.636667	-0.719203	1.134238	-0.607415	-3.177589	-0.981934	0.677734	0.109619	0.118346	0.068918	0.033541	-0.648672	-0.062228	0.718229	-0.243927	-98.322941	-74.185158	123.572191
00731		10.542889	2.216317	-0.750383	-1.813546	4.501248	-0.165507	1.229036	-0.965449	-2.940741	-0.994629	0.651367	0.116943	0.105774	0.020653	-0.006864	-0.648310	-0.077960	0.718847	-0.238483	-100.689464	-75.756031	126.753950
00732		10.145097	3.238523	-2.538455	-0.626127	5.827342	-0.566255	1.704827	-1.232352	-2.700092	-1.013916	0.629150	0.115234	0.102030	0.031222	-0.024488	-0.646335	-0.094678	0.719652	-0.235347	-103.945918	-77.119409	131.110895
00733		10.849989	7.322748	-1.187489	-3.812943	8.604851	-0.638778	1.175183	-1.124317	-2.512651	-1.024414	0.607422	0.122314	0.109472	0.071922	-0.010836	-0.644608	-0.108846	0.720634	-0.230912	-107.940609	-78.327489	135.890369
00734		11.436682	7.478144	-1.539641	-3.718475	8.714460	0.152881	0.297165	-0.908393	-2.246490	-1.039551	0.589844	0.131592	0.115265	0.073512	-0.014764	-0.643712	-0.118969	0.721942	-0.224232	-112.512259	-79.357838	140.725906
00735		11.245535	3.670995	-3.482436	-0.244187	6.058512	0.924845	0.012122	-0.841030	-2.000906	-1.047607	0.561279	0.138916	0.112960	0.035584	-0.034348	-0.642865	-0.127183	0.723404	-0.217337	-117.623559	-80.192527	145.929034
00736		12.075393	3.476423	-2.808223	-0.841623	5.409906	1.840869	-0.205727	-0.690262	-1.949133	-1.053711	0.545898	0.150146	0.121181	0.033556	-0.027699	-0.642575	-0.134348	0.724569	-0.209877	-123.217460	-80.957613	151.482284
00737		11.524634	3.403138	-1.758684	-1.598944	4.582090	1.319912	-0.716806	-0.452472	-1.819317	-1.066650	0.530762	0.159424	0.115589	0.032918	-0.017445	-0.643284	-0.139120	0.725518	-0.201135	-129.019698	-81.646969	156.938868
00738		10.244275	1.641703	-3.041579	0.578990	3.371402	0.443369	-1.040797	-0.317024	-1.591046	-1.072998	0.515381	0.164307	0.102616	0.015443	-0.030335	-0.644420	-0.141890	0.726444	-0.192011	-134.883967	-82.205095	162.261908
00739		10.938699	0.450788	-2.795178	0.882109	2.055466	1.262751	-1.190258	-0.188960	-1.416665	-1.081299	0.495605	0.171387	0.109441	0.003567	-0.027871	-0.645900	-0.143392	0.727162	-0.182995	-140.646380	-82.670157	167.389335
00740		11.045676	0.628669	-1.012654	-0.725215	1.256380	1.201907	-1.235956	-0.101959	-1.262657	-1.085205	0.482422	0.178223	0.110498	0.005527	-0.010106	-0.647537	-0.144113	0.727689	-0.174342	-146.297998	-83.054579	172.373849
00741		10.750082	-0.258925	-1.856460	0.501420	0.697161	1.065682	-0.903414	-0.118507	-1.026658	-1.089355	0.471436	0.180664	0.107496	-0.003225	-0.018487	-0.648626	-0.145039	0.728107	-0.167656	-151.319648	-83.300352	176.912468
00742		10.943181	-0.346272	-1.966059	0.656787	0.554297	1.277797	-0.686255	-0.027924	-0.899273	-1.091309	0.462646	0.183105	0.109417	-0.004022	-0.019632	-0.649757	-0.146142	0.728110	-0.162217	-155.791000	-83.515503	-178.979746
00743		10.834290	-0.576854	-0.887667	-0.161792	-0.209202	1.069952	-0.561473	0.007698	-0.837394	-1.093262	0.454102	0.189941	0.108317	-0.006247	-0.008864	-0.650856	-0.147374	0.727922	-0.157470	-160.069191	-83.698907	-174.996014
00744		10.859939	-0.555711	-1.063429	0.020775	-0.199699	1.111463	-0.303243	-0.013208	-0.750510	-1.099854	0.445068	0.185791	0.108578	-0.005981	-0.010618	-0.651608	-0.149161	0.727646	-0.153913	-164.031013	-83.823737	-171.182866
00745		10.614191	0.029193	-0.436365	-0.732231	-0.000463	0.785223	-0.178701	-0.020711	-0.698928	-1.099609	0.442871	0.185791	0.106143	-0.000083	-0.004353	-0.652189	-0.151153	0.727328	-0.150983	-167.775793	-83.908677	-167.517006
00746		9.967703	-0.000416	-0.101809	-0.929120	-0.217293	0.109744	-0.078887	-0.047273	-0.647033	-1.099365	0.434326	0.190430	0.099677	-0.000327	-0.000994	-0.652553	-0.153315	0.727051	-0.148549	-171.318251	-83.948403	-163.997516
00747		9.892842	-0.105611	-0.449524	-0.541976	-0.225231	0.073503	-0.102977	-0.049708	-0.612227	-1.107910	0.421143	0.193115	0.098926	-0.001361	-0.004470	-0.652892	-0.155257	0.726820	-0.146153	-174.697710	-83.961678	-160.655992
00748		9.732021	-0.178176	-1.030752	0.051411	-0.101660	-0.025290	-0.165020	-0.023449	-0.607192	-1.105713	0.418945	0.190918	0.097315	-0.002086	-0.010294	-0.653366	-0.156973	0.726543	-0.143552	-178.106274	-83.968913	-157.321019
00749		9.329140	-0.302122	-1.584184	0.666987	-0.024689	-0.368748	-0.227602	0.018429	-0.612566	-1.107666	0.407959	0.193359	0.093280	-0.003325	-0.015847	-0.654037	-0.158456	0.726165	-0.140752	178.440185	-83.979321	-153.976921
00750		9.046043	-0.598713	-1.789849	1.030069	-0.252331	-0.632933	-0.290504	0.048008	-0.629763	-1.102783	0.401367	0.191406	0.090437	-0.006298	-0.017911	-0.654872	-0.159789	0.725711	-0.137675	174.822284	-83.984099	-150.503843
00751		9.230352	-0.526849	-1.395460	0.654840	-0.414262	-0.494775	-0.345654	0.047572	-0.649319	-1.104980	0.399170	0.197998	0.092282	-0.005592	-0.013967	-0.655752	-0.160996	0.725273	-0.134346	171.097480	-83.964365	-146.954992
00752		9.640519	-0.155106	-1.233700	0.349121	-0.224930	-0.101209	-0.418782	0.024669	-0.666238	-1.113525	0.387939	0.189453	0.096398	-0.001898	-0.012345	-0.656612	-0.162051	0.724933	-0.130662	167.287375	-83.904893	-143.362231
00753		10.223787	-0.629060	-0.987693	0.297324	-0.860451	0.437572	-0.494156	-0.000965	-0.699440	-1.108887	0.379395	0.198486	0.102215	-0.006672	-0.009860	-0.657449	-0.162979	0.724689	-0.126587	163.409440	-83.801785	-139.744145
00754		10.452198	-0.673632	-0.705979	0.065378	-1.104901	0.626420	-0.443746	-0.078886	-0.760300	-1.117676	0.370605	0.200928	0.104498	-0.007149	-0.007003	-0.657990	-0.164353	0.724605	-0.122416	159.525456	-83.618432	-136.089929
00755		10.407411	-0.628649	-0.660657	0.029393	-1.166506	0.569193	-0.553992	-0.195733	-0.887323	-1.119629	0.361816	0.201172	0.104051	-0.006766	-0.006486	-0.658259	-0.165879	0.724852	-0.117341	155.485327	-83.319035	-132.340414
00756		9.867676	-2.203357	-0.476184	0.532686	-2.741169	-0.083675	-0.528112	-0.359660	-1.027504	-1.119141	0.346436	0.206055	0.098570	-0.022552	-0.004525	-0.657974	-0.168101	0.725482	-0.111746	151.581037	-82.869895	-128.709932
00757		9.726918	-2.083307	-1.065239	1.032464	-2.512407	-0.184180	-0.325576	-0.553930	-1.183893	-1.120850	0.335449	0.210693	0.097172	-0.021425	-0.010349	-0.656874	-0.171646	0.726479	-0.106216	148.128533	-82.253489	-125.413800
00758		9.606970	-1.201360	-1.757893	1.330662	-1.567223	-0.189875	-0.255803	-0.594820	-1.422200	-1.122803	0.322510	0.221924	0.096033	-0.012719	-0.017277	-0.655658	-0.176309	0.727328	-0.100105	144.546343	-81.515731	-121.941024
00759		9.960068	-0.310528	-2.108894	1.285348	-0.824094	0.257716	-0.228233	-0.565893	-1.606092	-1.124512	0.302734	0.227051	0.099630	-0.003929	-0.020803	-0.654570	-0.181694	0.727859	-0.093521	140.992601	-80.699472	-118.473994
00760		10.104168	-0.225701	-2.237984	1.376181	-0.900079	0.407227	-0.194631	-0.520698	-1.773788	-1.128174	0.281006	0.231934	0.101074	-0.003175	-0.022114	-0.653642	-0.187774	0.728014	-0.086534	137.530509	-79.807672	-115.071982
00761		10.191624	1.086980	-2.140110	0.799629	0.053879	0.626898	-0.171890	-0.456532	-1.914593	-1.127686	0.259033	0.239014	0.102062	0.009875	-0.021177	-0.652927	-0.194386	0.727752	-0.079232	134.224684	-78.854919	-111.805831
00762		10.709131	0.900039	-1.377140	0.175991	-0.703403	0.997587	-0.251675	-0.346761	-2.053566	-1.129150	0.237061	0.239746	0.107200	0.007883	-0.013596	-0.652676	-0.201189	0.726951	-0.071275	130.929276	-77.851576	-108.586019
00763		11.429616	1.057145	-0.306581	-0.854902	-1.325333	1.560752	-0.316187	-0.213501	-2.156563	-1.132813	0.212891	0.246826	0.114404	0.009333	-0.002959	-0.652936	-0.208075	0.725552	-0.062883	127.691926	-76.816877	-105.451220
00764		12.711667	1.090300	0.196652	-1.315897	-2.009039	2.718844	-0.593334	-0.006680	-2.245326	-1.143066	0.186523	0.243164	0.127228	0.009481	0.001941	-0.654179	-0.214296	0.723379	-0.053393	124.267953	-75.771161	-102.274472
00765		13.406644	0.767454	0.009639	-0.931890	-2.670183	3.314409	-0.876601	0.118328	-2.336339	-1.140137	0.157959	0.241699	0.134144	0.006108	-0.000012	-0.656107	-0.219845	0.720671	-0.042717	120.824264	-74.678170	-99.230076
00766		13.062623	1.147887	0.516395	-1.384467	-2.694027	2.955767	-1.105841	0.201235	-2.455354	-1.143555	0.127197	0.238037	0.130759	0.009902	0.004975	-0.658500	-0.225026	0.717486	-0.030899	117.437699	-73.503232	-96.365169
00767		12.514743	0.363285	1.224492	-1.594093	-3.758370	2.085864	-1.271348	0.241186	-2.608914	-1.147217	0.100830	0.231934	0.125196	0.002077	0.012077	-0.661117	-0.230153	0.713883	-0.018030	114.200427	-72.216952	-93.737360
00768		12.881824	-0.415604	0.798694	-0.780120	-4.711111	2.184748	-1.179697	0.295504	-2.804867	-1.150391	0.063477	0.228516	0.128755	-0.005916	0.007828	-0.663694	-0.236233	0.709704	-0.004891	111.206331	-70.797830	-91.290724
00769		13.670428	-0.873036	0.378370	-0.072300	-5.562814	2.710163	-0.944878	0.323648	-3.012462	-1.145020	0.028320	0.227051	0.136558	-0.010771	0.003610	-0.665936	-0.243764	0.705013	0.008064	108.575617	-69.237143	-89.065169
00770		14.881478	-1.041043	0.290984	0.256717	-6.479110	3.624689	-0.652061	0.329590	-3.200585	-1.148438	-0.002686	0.218994	0.148627	-0.012781	0.002704	-0.667663	-0.252876	0.699897	0.020610	106.361217	-67.543043	-87.082972
00771		16.050224	-1.274688	0.032239	0.806596	-7.461620	4.431072	-0.358299	0.317452	-3.355590	-1.145020	-0.040039	0.211182	0.160259	-0.015437	0.000094	-0.668772	-0.263433	0.694464	0.032648	104.567945	-65.737970	-85.350746
00772		16.969227	-0.687087	-0.362186	1.242500	-7.672474	5.290873	-0.238106	0.233786	-3.504453	-1.134766	-0.083740	0.208008	0.169533	-0.009847	-0.003810	-0.669211	-0.274820	0.688925	0.044873	103.138332	-63.819442	-83.918984
00773		17.850600	-2.068304	0.174824	1.436677	-9.886584	5.124110	-0.322109	0.127308	-3.651891	-1.138184	-0.114746	0.201904	0.178090	-0.023935	0.001672	-0.669147	-0.286318	0.683301	0.058006	101.935767	-61.792378	-82.771866
00774		19.931744	-2.815193	0.870303	1.356538	-12.234691	6.136600	-0.466740	0.038819	-3.849519	-1.123535	-0.156250	0.198730	0.198728	-0.031961	0.008736	-0.668695	-0.297880	0.677402	0.072404	100.855975	-59.634036	-81.838087
00775		22.505900	-4.044298	1.117086	1.911708	-15.205429	7.192927	-0.639423	-0.013764	-4.012908	-1.113281	-0.195801	0.188721	0.224187	-0.044911	0.011325	-0.667996	-0.309280	0.671108	0.087980	99.832723	-57.370448	-81.064969
00776		24.742673	-6.983675	0.664926	3.595852	-19.249300	6.856331	-1.062379	-0.181068	-4.082131	-1.107666	-0.237549	0.185303	0.245927	-0.074829	0.007261	-0.667076	-0.319291	0.664791	0.105427	98.814088	-55.045710	-80.569327
00777		27.687026	-12.629430	2.663474	3.625864	-26.492394	4.953631	-1.804331	-0.252918	-4.119364	-1.095215	-0.279297	0.177490	0.274160	-0.131711	0.028155	-0.666762	-0.326765	0.657948	0.125529	97.521370	-52.688637	-80.245911
00778		28.361773	-15.931918	-0.490834	7.504560	-29.136896	2.556886	-1.988223	-0.216418	-4.258023	-1.078369	-0.318848	0.169678	0.280144	-0.165345	-0.002980	-0.666433	-0.333921	0.650294	0.146566	96.174522	-50.252694	-79.978133
00779		26.387320	-16.853750	-3.257309	10.157114	-28.352121	-0.659132	-0.232417	-0.183974	-4.298671	-1.068115	-0.356201	0.166260	0.260199	-0.174194	-0.032132	-0.662904	-0.346924	0.643419	0.161907	95.868383	-47.792079	-79.745791
00780		26.182849	-4.197483	-1.877238	6.074941	-20.091406	6.497534	1.345971	0.168728	-4.028693	-1.047363	-0.377930	0.162598	0.260898	-0.047108	-0.019298	-0.657693	-0.364400	0.636832	0.170578	96.282263	-45.509301	-79.251617
00781		26.014347	2.154751	-4.479205	7.319485	-15.603607	10.295419	0.894882	0.178258	-3.643721	-1.038086	-0.391113	0.154053	0.260441	0.017005	-0.044941	-0.653392	-0.379044	0.630269	0.179345	96.471305	-43.445664	-78.786052
00782		21.003582	-4.150353	-3.921455	7.871012	-16.758073	1.629197	0.530575	0.417706	-3.703031	-1.012451	-0.424072	0.143799	0.209138	-0.045276	-0.039769	-0.650260	-0.392747	0.622270	0.188921	96.345037	-41.366942	-78.145059
00783		13.795416	5.415839	-3.179459	3.964609	-6.134086	3.468108	-0.024503	0.394186	-3.996539	-0.996338	-0.446045	0.133545	0.138936	0.051385	-0.032074	-0.647614	-0.405407	0.613003	0.201169	95.937083	-39.114182	-77.531541
00784		5.577751	9.335059	-10.280535	8.675358	3.964924	1.717544	-0.863372	0.424254	-3.643448	-0.971191	-0.459473	0.104980	0.057241	0.091871	-0.103324	-0.646878	-0.414124	0.603290	0.214689	95.098559	-37.063153	-76.970906
00785		16.611265	-10.408573	-11.524702	16.292677	-15.698085	-7.536686	-2.254755	0.308366	-1.637711	-0.959961	-0.464111	0.080811	0.165069	-0.106733	-0.114309	-0.650640	-0.412074	0.596434	0.226119	93.626161	-36.140837	-76.664023
00786		16.391489	-14.744230	-5.949629	11.509864	-19.607784	-11.934322	-3.553093	0.720703	-0.958161	-0.955322	-0.460205	0.041016	0.162993	-0.149257	-0.057444	-0.658903	-0.404106	0.588021	0.238277	91.278640	-35.613873	-76.127898
00787		10.565648	-14.445746	-2.562392	6.588909	-15.874236	-15.420087	-4.526418	0.627888	-0.145641	-0.946777	-0.451660	0.007568	0.105477	-0.145070	-0.022676	-0.669534	-0.390278	0.580124	0.250724	88.431408	-35.529465	-75.687355
00788		7.136354	-11.443580	-1.830043	4.294802	-11.816639	-15.021166	-4.926819	0.203554	0.344714	-0.940674	-0.427979	-0.028320	0.071544	-0.114718	-0.015549	-0.679957	-0.372910	0.573796	0.263353	85.521415	-35.725205	-75.533384
00789		4.349323	-8.521387	-1.977307	3.219011	-8.069980	-14.278025	-4.660112	-0.218637	0.887860	-0.941162	-0.412842	-0.046387	0.043892	-0.085449	-0.017736	-0.688981	-0.354141	0.569910	0.274029	82.907961	-36.243959	-75.625484
