// General information: 
//  MT Manager version: 2019.2.0 
//  XDA version: 2019.2.0 build 3853 rev 94535 built on 2019-09-09
// Device information: 
//  DeviceId: 00B40ACF
//  ProductCode: MTW2-3A7G6
//  Firmware Version: 4.3.5
//  Hardware Version: 1.1.0
// Device settings: 
//  Filter Profile: human(46.1)
//  Option Flags: Orientation Smoother Disabled, AHS Disabled, ICC Disabled
// Coordinate system: ENU
PacketCounter	SampleTimeFine	Acc_X	Acc_Y	Acc_Z	FreeAcc_E	FreeAcc_N	FreeAcc_U	Gyr_X	Gyr_Y	Gyr_Z	Mag_X	Mag_Y	Mag_Z	VelInc_X	VelInc_Y	VelInc_Z	Quat_q0	Quat_q1	Quat_q2	Quat_q3	Roll	Pitch	Yaw
62356		-11.477253	-0.844233	-1.044597	-0.147703	-0.776693	1.715749	-0.308642	0.145893	1.065879	0.738770	-0.142090	-0.485352	-0.114733	-0.009070	-0.010349	0.110600	0.720781	0.216072	-0.649273	-137.547683	79.660714	69.274399
62357		-10.297961	-0.625696	-1.013347	-0.071080	-0.687328	0.530809	-0.302238	0.158835	1.006844	0.736816	-0.153320	-0.483154	-0.102954	-0.006791	-0.010042	0.114902	0.722210	0.213454	-0.647802	-140.531334	79.981242	66.424729
62358		-9.550190	-1.056961	-1.196423	-0.116584	-0.021228	-0.130751	-0.308876	0.151567	0.964131	0.734863	-0.162109	-0.480957	-0.095458	-0.011048	-0.011875	0.119110	0.723549	0.210987	-0.646354	-143.584830	80.264707	63.510999
62359		-9.358516	-0.825053	-1.430712	0.154068	-0.015066	-0.310855	-0.248484	0.149670	0.917445	0.732910	-0.166748	-0.483154	-0.093557	-0.008697	-0.014226	0.122931	0.724847	0.208501	-0.644990	-146.623096	80.505225	60.579583
62360		-10.117282	0.149052	-0.742263	-0.121506	-1.215026	0.259095	-0.284957	0.114141	0.887865	0.728516	-0.171143	-0.483154	-0.101182	0.001031	-0.007367	0.126839	0.725962	0.206200	-0.643718	-149.688637	80.729112	57.644012
62361		-10.434143	0.415334	-0.424210	-0.358335	-1.559380	0.515094	-0.350891	0.111552	0.834183	0.731445	-0.188965	-0.482910	-0.104360	0.003711	-0.004191	0.130798	0.726953	0.204313	-0.642408	-152.742668	80.912290	54.759743
62362		-10.534088	0.157334	-0.981669	-0.047181	-1.017111	0.719077	-0.474634	0.099443	0.777365	0.727051	-0.188965	-0.487305	-0.105351	0.001141	-0.009767	0.135049	0.727752	0.203004	-0.641037	-155.788448	81.064102	51.957289
62363		-10.379875	0.274742	-1.423274	0.361679	-0.827317	0.628920	-0.558820	0.097456	0.722125	0.725098	-0.199951	-0.482910	-0.103815	0.002333	-0.014189	0.139413	0.728413	0.202174	-0.639613	-158.768115	81.180291	49.271271
62364		-9.943493	-0.255570	-2.030160	0.639437	0.039545	0.318895	-0.587567	0.067236	0.663893	0.711670	-0.200195	-0.482910	-0.099432	-0.002945	-0.020260	0.143739	0.728885	0.201608	-0.638295	-161.605463	81.281345	46.747040
62365		-9.618261	-0.425374	-2.430586	0.898977	0.476634	0.064754	-0.592117	0.032824	0.601645	0.714600	-0.213623	-0.489502	-0.096173	-0.004615	-0.024277	0.147898	0.729164	0.201269	-0.637132	-164.225375	81.371361	44.445707
62366		-9.415456	-0.503639	-2.211004	0.655533	0.523530	-0.164430	-0.584533	-0.015936	0.536856	0.714355	-0.208984	-0.500488	-0.094139	-0.005354	-0.022102	0.151885	0.729218	0.201089	-0.636188	-166.620021	81.464621	42.368689
62367		-9.510173	-0.295021	-1.510828	0.111062	0.052665	-0.179533	-0.562996	-0.050574	0.494667	0.708008	-0.215820	-0.496094	-0.095090	-0.003228	-0.015123	0.155677	0.729122	0.200978	-0.635416	-168.846708	81.558837	40.449187
62368		-9.484987	-1.283508	-1.764124	-0.177682	1.087592	-0.142637	-0.449752	-0.055382	0.441986	0.705811	-0.222412	-0.498291	-0.094816	-0.013084	-0.017638	0.158906	0.729038	0.200680	-0.634807	-170.861929	81.640512	38.678621
62369		-9.650446	-0.686684	-2.107985	0.372255	0.765963	0.052443	-0.223537	-0.047035	0.420609	0.705811	-0.222412	-0.504639	-0.096485	-0.007093	-0.021095	0.161218	0.729131	0.199760	-0.634408	-172.687100	81.706443	36.969143
62370		-9.498102	0.176177	-2.193500	0.874091	0.112950	-0.102924	-0.046903	-0.066430	0.383280	0.703857	-0.224854	-0.502441	-0.094977	0.001575	-0.021967	0.162801	0.729265	0.198387	-0.634280	-174.297914	81.773970	35.374608
62371		-9.452713	1.063010	-1.911572	1.064995	-0.754060	-0.198377	-0.038207	-0.098396	0.348671	0.701660	-0.227051	-0.504639	-0.094536	0.010462	-0.019164	0.164258	0.729266	0.197098	-0.634305	-175.766190	81.851476	33.919023
62372		-9.653337	1.292811	-1.500698	0.794419	-1.133564	-0.055936	-0.076053	-0.133413	0.325684	0.701904	-0.233643	-0.511230	-0.096544	0.012765	-0.015076	0.165829	0.729102	0.195971	-0.634434	-177.199299	81.943194	32.521481
62373		-9.529375	0.510477	-1.237379	0.190155	-0.536895	-0.206639	-0.126515	-0.152328	0.314748	0.697021	-0.224854	-0.513672	-0.095292	0.004947	-0.012450	0.167553	0.728819	0.195039	-0.634593	-178.630603	82.040351	31.154973
62374		-9.264077	-0.209058	-1.413178	0.010598	0.229408	-0.441932	-0.144878	-0.132552	0.310306	0.701904	-0.235840	-0.509033	-0.092628	-0.002245	-0.014192	0.169324	0.728580	0.194186	-0.634659	179.896267	82.121449	29.757463
62375		-9.348770	-0.423041	-1.482009	-0.052999	0.477181	-0.349907	-0.119221	-0.110625	0.298360	0.699463	-0.231445	-0.517822	-0.093473	-0.004379	-0.014869	0.170927	0.728415	0.193325	-0.634682	178.477643	82.185095	28.400073
62376		-9.477186	-0.475733	-1.477693	-0.106090	0.545882	-0.225320	-0.080084	-0.094088	0.311574	0.699707	-0.233643	-0.520020	-0.094757	-0.004911	-0.014820	0.172427	0.728349	0.192293	-0.634666	176.991944	82.234295	26.952826
62377		-9.761946	-0.946996	-1.468324	-0.393248	0.966586	0.049327	-0.029499	-0.077545	0.342380	0.690674	-0.233887	-0.517822	-0.097597	-0.009639	-0.014720	0.173810	0.728403	0.191014	-0.634612	175.409317	82.267616	25.378358
62378		-9.953166	-0.464885	-1.445024	-0.207469	0.563055	0.237663	0.010532	-0.077962	0.362856	0.695068	-0.233643	-0.522217	-0.099517	-0.004829	-0.014489	0.175126	0.728510	0.189521	-0.634575	173.735777	82.293939	23.689386
62379		-9.999723	-0.305749	-0.963200	-0.560230	0.222183	0.219877	0.023701	-0.066925	0.387785	0.695313	-0.235840	-0.517822	-0.099988	-0.003250	-0.009666	0.176448	0.728682	0.187915	-0.634489	171.976590	82.305544	21.906175
62380		-9.817372	-0.400146	-0.825560	-0.717775	0.284627	0.017171	0.004044	-0.053039	0.405971	0.693115	-0.238281	-0.520020	-0.098163	-0.004201	-0.008282	0.177898	0.728897	0.186306	-0.634312	170.122209	82.299940	20.038544
62381		-9.953205	0.018713	-0.719297	-0.635473	-0.096478	0.145763	-0.011450	-0.038361	0.444289	0.697754	-0.242432	-0.522217	-0.099531	-0.000034	-0.007212	0.179499	0.729174	0.184630	-0.634033	168.132048	82.273797	18.042520
62382		-9.935274	0.320062	-0.967710	-0.291040	-0.188523	0.168702	-0.069913	-0.041502	0.493542	0.702393	-0.244629	-0.528809	-0.099358	0.002952	-0.009699	0.181483	0.729431	0.182945	-0.633660	165.906634	82.232955	15.842974
62383		-10.036696	0.728843	-1.223027	0.093699	-0.368241	0.317347	-0.127999	-0.037192	0.573894	0.693359	-0.247070	-0.524414	-0.100385	0.006993	-0.012253	0.183916	0.729715	0.181164	-0.633143	163.371621	82.165603	13.364000
62384		-10.330111	0.432213	-1.421190	0.049000	0.040570	0.623467	-0.188891	-0.071033	0.663051	0.689697	-0.262695	-0.531006	-0.103310	0.003966	-0.014252	0.186894	0.729911	0.179207	-0.632603	160.443462	82.084436	10.523163
62385		-10.120102	-0.362808	-2.091319	0.224995	1.140573	0.462023	-0.233667	-0.098295	0.724930	0.689697	-0.264893	-0.528564	-0.101177	-0.004019	-0.020958	0.190240	0.730021	0.177148	-0.632057	157.292612	81.985032	7.482506
62386		-10.061462	-0.329777	-2.011569	0.148419	1.151590	0.387282	-0.290495	-0.111347	0.792421	0.691895	-0.262451	-0.532959	-0.100589	-0.003726	-0.020166	0.194028	0.730085	0.174996	-0.631432	153.916170	81.852029	4.246250
62387		-10.048464	-0.479793	-1.829220	-0.116142	1.274157	0.331778	-0.354032	-0.127398	0.858239	0.687744	-0.269287	-0.535156	-0.100451	-0.005261	-0.018347	0.198253	0.730077	0.172796	-0.630734	150.375064	81.683008	0.878948
62388		-9.920615	-0.423148	-2.001804	0.039448	1.404973	0.218690	-0.378869	-0.140991	0.933600	0.683350	-0.275879	-0.532959	-0.099171	-0.004732	-0.020079	0.202824	0.730049	0.170372	-0.629971	146.689194	81.467250	-2.621746
62389		-10.277478	-0.423792	-1.476493	-0.502187	1.239502	0.492485	-0.364574	-0.157384	1.024165	0.688477	-0.289063	-0.541748	-0.102740	-0.004791	-0.014837	0.207626	0.730039	0.167560	-0.629173	142.904855	81.197128	-6.232770
62390		-10.307078	-0.497993	-1.124572	-0.886583	1.232206	0.455855	-0.300471	-0.199054	1.116849	0.679688	-0.298096	-0.543945	-0.103030	-0.005572	-0.011340	0.212522	0.730018	0.164150	-0.628460	139.034064	80.875462	-9.971184
62391		-10.531653	-0.359315	-0.873198	-1.110339	1.109963	0.643934	-0.209069	-0.216888	1.238572	0.682617	-0.311523	-0.539307	-0.105282	-0.004254	-0.008842	0.217465	0.730109	0.159992	-0.627736	135.154896	80.476103	-13.775132
62392		-10.591799	-0.557684	-0.877935	-1.266888	1.418543	0.658647	-0.119163	-0.247680	1.385382	0.676025	-0.318115	-0.543701	-0.105865	-0.006316	-0.008907	0.222563	0.730285	0.154967	-0.627005	131.251651	79.985605	-17.660556
62393		-10.708908	-0.497025	-1.549508	-0.742442	1.870667	0.830421	-0.005585	-0.257386	1.536179	0.670166	-0.336182	-0.543701	-0.107027	-0.005793	-0.015633	0.227705	0.730631	0.149024	-0.626196	127.487956	79.389831	-21.476971
62394		-11.294432	0.115948	-1.934795	-0.272996	1.756182	1.508058	0.069122	-0.259008	1.696121	0.656982	-0.345215	-0.548096	-0.112924	0.000208	-0.019494	0.233068	0.731126	0.142243	-0.625221	123.915958	78.676720	-25.149748
62395		-11.934961	0.338092	-1.772295	-0.490130	1.728141	2.123305	0.008644	-0.270011	1.819725	0.651123	-0.367432	-0.547852	-0.119350	0.002296	-0.017884	0.239020	0.731544	0.135182	-0.624051	120.559072	77.867155	-28.577386
62396		-12.586277	0.345348	-1.624453	-0.819442	1.927583	2.708507	-0.113586	-0.277945	1.929408	0.642578	-0.383301	-0.545654	-0.125865	0.002230	-0.016421	0.245751	0.731798	0.128073	-0.622636	117.420576	76.965742	-31.720403
62397		-13.147006	0.165672	-0.973332	-1.664978	2.046825	3.104389	-0.260803	-0.279039	2.016078	0.631836	-0.394287	-0.561035	-0.131464	0.000319	-0.009918	0.253259	0.731848	0.121097	-0.620962	114.528930	75.986207	-34.534893
62398		-14.239502	0.037893	-0.559969	-2.402890	2.353786	4.034928	-0.325441	-0.303515	2.112856	0.621582	-0.416748	-0.554199	-0.142380	-0.001135	-0.005815	0.261242	0.731726	0.113853	-0.619167	111.850329	74.929596	-37.113439
62399		-14.540886	-0.211489	-1.149065	-2.207270	3.206992	4.245638	-0.378482	-0.295030	2.223309	0.608887	-0.434814	-0.560791	-0.145356	-0.003753	-0.011699	0.269772	0.731520	0.106436	-0.617068	109.432361	73.785314	-39.393217
62400		-15.078890	-0.309860	-1.264590	-2.408580	3.754056	4.649777	-0.448108	-0.236297	2.364314	0.593750	-0.452881	-0.560791	-0.150723	-0.004909	-0.012814	0.278873	0.731382	0.098714	-0.614463	107.310894	72.529720	-41.345389
62401		-15.644523	-1.391226	-1.198621	-3.274048	5.053203	4.742568	-0.595001	-0.229997	2.520948	0.578857	-0.470703	-0.565186	-0.156239	-0.015918	-0.012121	0.288994	0.731010	0.090932	-0.611424	105.320715	71.168273	-43.074942
62402		-16.392605	-2.632359	-1.755214	-3.763230	6.878781	4.926058	-0.719878	-0.189587	2.676662	0.561523	-0.486572	-0.569336	-0.163537	-0.028577	-0.017607	0.299924	0.730523	0.082938	-0.607867	103.514355	69.697262	-44.558076
62403		-17.892974	-2.861521	-1.861647	-4.369929	7.865708	6.024725	-0.869736	-0.134232	2.827854	0.546631	-0.509033	-0.582520	-0.178488	-0.031222	-0.018604	0.311827	0.729882	0.074978	-0.603668	101.877522	68.120979	-45.772137
62404		-19.488046	-3.952711	-1.569108	-5.814392	9.410990	6.784471	-1.150451	-0.099812	2.944103	0.522461	-0.520508	-0.589111	-0.194262	-0.042480	-0.015549	0.324965	0.728782	0.067415	-0.598941	100.290484	66.464071	-46.781700
62405		-20.879713	-5.563432	-1.413830	-7.411949	11.408562	7.033152	-1.455538	-0.087855	3.040916	0.505371	-0.545166	-0.597656	-0.207912	-0.058901	-0.013809	0.339465	0.727050	0.060477	-0.593721	98.696569	64.741110	-47.609816
62406		-21.385922	-8.439272	-2.783522	-8.190215	14.938765	5.872706	-1.586653	-0.061673	3.113606	0.485840	-0.563232	-0.608643	-0.212500	-0.087926	-0.027213	0.354492	0.724983	0.053632	-0.588098	97.198531	62.967143	-48.269514
62407		-20.584499	-10.531490	-3.036940	-9.146216	16.714334	3.632852	-1.385021	0.024307	3.196317	0.466064	-0.570313	-0.615234	-0.204128	-0.108793	-0.029599	0.368955	0.723319	0.046089	-0.581857	96.019742	61.133337	-48.699100
62408		-18.537743	-8.608926	-3.196206	-7.748845	14.978828	2.167515	-1.228653	-0.041459	3.267047	0.439697	-0.586182	-0.632813	-0.183930	-0.089296	-0.031458	0.382949	0.721546	0.037711	-0.575586	94.949737	59.261145	-49.114491
62409		-17.220920	-1.374513	-1.713115	-5.194832	8.854414	4.186113	-1.339187	-0.319671	3.377453	0.422363	-0.602051	-0.641602	-0.171916	-0.016766	-0.017301	0.397600	0.718548	0.028696	-0.569894	93.640096	57.331957	-49.745157
62410		-17.165506	1.266067	-5.478447	-1.130727	9.781260	5.329292	-1.538090	-0.478755	3.488375	0.393799	-0.615723	-0.654785	-0.171704	0.009242	-0.055275	0.413147	0.714463	0.019540	-0.564331	92.184648	55.339221	-50.428343
62411		-17.085131	1.091568	-7.660824	0.256463	11.711313	4.833838	-1.133035	-0.311601	3.534447	0.369385	-0.625000	-0.661377	-0.170884	0.007461	-0.076923	0.427226	0.711431	0.009397	-0.557902	91.193468	53.306922	-50.842273
62412		-15.663912	1.708619	-5.683118	-0.753585	9.883321	3.689157	-0.632091	0.004139	3.425901	0.345703	-0.647705	-0.672363	-0.156900	0.014220	-0.056876	0.439047	0.710115	-0.001065	-0.550430	90.782098	51.334093	-50.897861
62413		-10.641830	4.608789	-4.048307	1.088597	4.992024	1.356966	-0.672916	0.172897	2.997525	0.334717	-0.654541	-0.683350	-0.107127	0.044349	-0.040542	0.449733	0.708976	-0.009543	-0.543140	90.484250	49.602241	-50.776818
62414		-6.901631	0.193257	-3.798113	0.168000	5.800230	-4.481604	-1.769987	0.010427	2.267766	0.314697	-0.661377	-0.705322	-0.069032	0.000814	-0.037988	0.462197	0.704812	-0.012797	-0.538006	89.470185	48.292972	-50.770102
62415		-9.623111	-4.091771	-5.558288	-1.825376	10.876621	-5.499829	-2.548751	0.016914	1.445858	0.314697	-0.658936	-0.731689	-0.095933	-0.042316	-0.055041	0.475116	0.698761	-0.011064	-0.534674	88.032014	47.451486	-50.732600
62416		-7.637670	-9.743594	-3.555710	-5.488591	11.597926	-10.939649	-2.549847	-0.003474	0.972145	0.296875	-0.656982	-0.747070	-0.075900	-0.098248	-0.034309	0.486652	0.692546	-0.007694	-0.532438	86.590956	46.885313	-50.698963
62417		-4.102231	-9.685560	-0.628103	-6.288915	7.617940	-13.479605	-1.848722	0.095362	0.574201	0.307861	-0.654541	-0.764648	-0.040747	-0.097025	-0.005365	0.494659	0.688208	-0.004596	-0.530717	85.605648	46.547198	-50.589663
62418		-1.677301	-8.707000	0.497818	-5.640463	4.968464	-14.542591	-0.886331	0.217256	0.185429	0.305420	-0.647949	-0.764648	-0.016687	-0.087062	0.005382	0.498270	0.686553	-0.002384	-0.529496	85.231993	46.442073	-50.398217
62419		-1.213692	-8.813904	-0.049208	-5.122091	5.120715	-14.980162	0.073292	0.344980	-0.230606	0.316650	-0.643311	-0.766846	-0.012239	-0.088125	-0.000503	0.497507	0.687612	-0.000994	-0.528843	85.462847	46.576167	-50.130128
62420		-1.515836	-8.537725	-0.864309	-4.507221	5.733611	-14.582130	0.767523	0.449031	-0.667113	0.319092	-0.652100	-0.755859	-0.015463	-0.085292	-0.008936	0.493168	0.690674	0.000350	-0.528918	86.140152	46.967417	-49.797658
62421		-1.503529	-7.596376	-1.251025	-3.696396	5.580888	-13.901651	1.195238	0.513752	-1.089428	0.332031	-0.638672	-0.742676	-0.015481	-0.075804	-0.012924	0.486237	0.694917	0.002151	-0.529773	87.095437	47.594303	-49.421873
62422		-1.462966	-5.894561	-1.555586	-2.535133	4.950888	-12.705143	1.461175	0.539922	-1.510067	0.347900	-0.642822	-0.725098	-0.015116	-0.058717	-0.015945	0.477193	0.699816	0.004804	-0.531528	88.230991	48.463015	-49.014318
62423		-1.713340	-4.248778	-1.857036	-1.539218	4.445865	-11.329267	1.552887	0.548309	-1.946904	0.358887	-0.635986	-0.720703	-0.017596	-0.042172	-0.018851	0.466631	0.704839	0.008729	-0.534211	89.447664	49.571142	-48.573837
62424		-2.033107	-3.371305	-2.175594	-0.957783	4.354993	-10.402346	1.537088	0.558301	-2.402762	0.383057	-0.624512	-0.703125	-0.020794	-0.033297	-0.021955	0.454790	0.709712	0.014358	-0.537837	90.708735	50.939311	-48.073215
62425		-2.381843	-3.031729	-2.488503	-0.662406	4.540440	-9.781678	1.514725	0.566473	-2.852834	0.400635	-0.615479	-0.687744	-0.024317	-0.029784	-0.025044	0.441741	0.714347	0.021625	-0.542316	92.028040	52.552281	-47.491304
62426		-2.999401	-2.498473	-2.452904	-0.630669	4.457118	-8.817911	1.455027	0.556811	-3.272789	0.430908	-0.590576	-0.672363	-0.030464	-0.024310	-0.024623	0.427604	0.718576	0.030561	-0.547603	93.404833	54.402438	-46.809981
62427		-3.887379	-2.074581	-1.782712	-1.226668	4.083784	-7.712985	1.285392	0.516464	-3.681217	0.459717	-0.581299	-0.663574	-0.039291	-0.019910	-0.017856	0.412847	0.722007	0.041298	-0.553676	94.777140	56.471962	-46.031268
62428		-4.967401	-1.633491	-0.886762	-2.031690	3.556603	-6.443940	0.994896	0.466880	-4.038585	0.483643	-0.560791	-0.659180	-0.050010	-0.015283	-0.008829	0.397957	0.724341	0.054044	-0.560393	96.104672	58.742651	-45.129100
62429		-6.310692	-1.517617	0.182307	-3.192739	3.146532	-5.115822	0.649894	0.416333	-4.296233	0.514160	-0.535889	-0.650391	-0.063410	-0.013822	0.001908	0.383463	0.725442	0.068530	-0.567446	97.372493	61.146292	-44.088327
62430		-7.737600	-1.699221	0.302388	-3.752410	3.472321	-3.754536	0.516905	0.428871	-4.481826	0.535400	-0.506592	-0.646240	-0.077724	-0.015261	0.003149	0.368695	0.725910	0.084093	-0.574497	98.815993	63.646954	-42.788843
62431		-9.181451	-1.612684	0.649843	-4.280105	3.356552	-2.215269	0.552570	0.452446	-4.670133	0.561523	-0.481689	-0.641846	-0.092143	-0.013996	0.006666	0.353089	0.726041	0.100199	-0.581508	100.629092	66.228021	-41.131082
62432		-10.187691	-1.178979	1.169533	-4.537756	2.641640	-0.926905	0.625334	0.413976	-4.869007	0.580322	-0.448242	-0.628906	-0.102100	-0.009343	0.011875	0.336418	0.725674	0.116728	-0.588723	102.916750	68.904341	-39.039407
62433		-11.536949	-0.196849	1.414141	-4.286517	1.651789	0.864848	0.685256	0.332970	-5.037801	0.612549	-0.412109	-0.622314	-0.115347	0.000888	0.014333	0.318909	0.724616	0.133446	-0.596172	105.798993	71.641716	-36.389478
62434		-12.834319	0.807587	1.417146	-3.713907	0.635981	2.562556	0.557725	0.251200	-5.165364	0.636230	-0.382813	-0.615967	-0.128060	0.011346	0.014361	0.301287	0.722549	0.150827	-0.603656	109.491092	74.413504	-32.859607
62435		-13.682123	1.115755	1.083190	-3.080059	0.170094	3.605929	0.341049	0.196152	-5.297973	0.654785	-0.342529	-0.614014	-0.136451	0.014757	0.010989	0.283923	0.719395	0.169115	-0.610949	114.562009	77.176539	-27.826212
62436		-14.090792	0.563690	0.632593	-2.709790	0.319028	4.035592	0.246478	0.199495	-5.430295	0.677979	-0.304443	-0.611816	-0.140679	0.009451	0.006476	0.266248	0.715486	0.188091	-0.617911	122.489818	79.856749	-19.878352
62437		-14.731889	-0.187054	0.176204	-2.460064	0.588530	4.700779	0.324545	0.251450	-5.542651	0.701172	-0.264160	-0.598877	-0.147293	0.002209	0.001949	0.247739	0.711203	0.207117	-0.624435	136.106004	82.231049	-6.281133
62438		-15.971200	-0.169416	-0.132990	-1.891096	0.077557	6.045293	0.501160	0.323934	-5.634987	0.717285	-0.217285	-0.594727	-0.159677	0.002808	-0.001068	0.228003	0.706706	0.225885	-0.630521	159.659370	83.821407	17.156383
62439		-17.900043	0.422474	-0.261253	-1.094239	-1.172391	8.019828	0.627307	0.374505	-5.711320	0.731445	-0.181641	-0.583984	-0.178787	0.009340	-0.002254	0.207381	0.701861	0.244363	-0.636137	-169.290762	83.886381	48.021382
62440		-19.649468	1.065571	-0.578349	0.016996	-2.527117	9.708520	0.694527	0.385126	-5.732450	0.743164	-0.132568	-0.579834	-0.196092	0.016300	-0.005356	0.186174	0.696528	0.262486	-0.641318	-144.424062	82.362381	72.654748
62441		-20.885401	1.892381	-1.571458	1.890076	-3.711228	10.797581	0.806615	0.406734	-5.687362	0.752686	-0.092529	-0.571289	-0.208234	0.024914	-0.015198	0.164637	0.690839	0.279920	-0.645973	-129.659243	79.963498	87.129859
62442		-21.470233	2.471906	-2.411198	3.542896	-4.779924	11.100605	1.001267	0.464113	-5.635312	0.760010	-0.050293	-0.564941	-0.213945	0.030874	-0.023471	0.142282	0.685016	0.296338	-0.650148	-120.938885	77.174617	95.433302
62443		-21.607287	2.750971	-2.719576	4.569998	-5.863582	10.837789	1.305681	0.550787	-5.539709	0.760742	-0.010498	-0.554199	-0.215271	0.033654	-0.026396	0.119049	0.679262	0.311285	-0.653860	-115.417556	74.238320	100.362828
62444		-22.710762	6.450258	-1.168227	6.046754	-10.916681	10.258974	1.622599	0.499035	-5.351649	0.766113	0.020752	-0.550049	-0.225299	0.070637	-0.010562	0.095244	0.673295	0.324252	-0.657620	-111.410176	71.317800	103.578925
62445		-22.738835	8.688203	3.103875	4.252334	-15.907806	8.378271	1.504175	0.198532	-5.085857	0.769043	0.060791	-0.543701	-0.225054	0.092387	0.031944	0.073224	0.666201	0.336359	-0.661572	-108.151428	68.550252	106.135751
62446		-20.621511	8.763734	0.292063	6.781032	-14.429652	5.930442	1.857431	0.160119	-4.620638	0.774902	0.087402	-0.541504	-0.204115	0.092336	0.003928	0.051550	0.659442	0.345537	-0.665645	-105.473051	65.998240	107.890625
62447		-18.681400	12.712925	-3.374333	11.861577	-15.386875	2.206003	2.621560	0.358246	-4.144366	0.778076	0.116211	-0.537354	-0.184179	0.131389	-0.031708	0.028600	0.653974	0.350420	-0.669855	-103.151571	63.660384	108.801830
62448		-17.697891	21.869636	-2.449169	15.342237	-22.900157	-3.682972	2.349274	0.500247	-3.588166	0.770508	0.135986	-0.533203	-0.173071	0.222089	-0.021460	0.008115	0.649560	0.354248	-0.672692	-101.502242	61.600986	109.148993
62449		-13.651953	28.231303	-1.184402	16.379596	-26.726425	-11.272156	0.679762	0.386806	-2.641792	0.779053	0.149414	-0.526611	-0.132796	0.284121	-0.010621	-0.003544	0.646173	0.360481	-0.672682	-100.978762	60.086931	109.308851
62450		-10.147756	27.547478	-2.017933	16.207116	-24.105478	-14.518990	-0.716866	0.260603	-1.534149	0.776367	0.160645	-0.522217	-0.099388	0.276168	-0.021038	-0.006749	0.644294	0.367796	-0.670496	-101.353419	59.207796	109.356944
62451		-10.777246	22.622629	-0.501854	12.883501	-21.396925	-11.902119	-1.095629	0.155516	-0.460004	0.774170	0.160645	-0.526611	-0.107256	0.226442	-0.006175	-0.004928	0.644022	0.372897	-0.667952	-102.043088	58.945389	109.291331
62452		-13.572139	19.794975	2.504495	9.558103	-22.110281	-8.366214	-0.458898	0.010793	0.620195	0.772217	0.151611	-0.528809	-0.136333	0.197584	0.024599	-0.001278	0.645248	0.372386	-0.667070	-102.447891	59.305227	109.132601
62453		-13.704461	19.631749	3.463556	8.667748	-22.511506	-7.995428	0.226511	-0.125079	1.665040	0.768555	0.133789	-0.524414	-0.138694	0.195128	0.034771	0.003896	0.647933	0.366203	-0.667880	-102.558425	60.265863	108.861031
62454		-15.757165	10.993036	-4.079058	11.232227	-13.369597	-0.821068	0.443438	0.006208	2.307476	0.766602	0.122559	-0.526611	-0.158828	0.108193	-0.040544	0.010226	0.652202	0.357112	-0.668580	-102.839271	61.570301	108.245473
62455		-9.631445	-11.899273	-1.948112	-2.660978	5.597066	4.320085	-0.148457	-0.043182	2.171441	0.764893	0.107178	-0.530762	-0.095011	-0.120043	-0.019413	0.018165	0.655913	0.350459	-0.668302	-103.420498	62.801298	107.690899
62456		-10.901922	-25.978270	0.096884	-11.232385	14.938781	11.267628	-0.225084	-0.220317	1.668012	0.760986	0.093750	-0.532959	-0.106849	-0.260679	0.001143	0.024994	0.658083	0.345653	-0.668451	-103.758968	63.775645	107.462848
62457		-10.741293	-7.647439	2.573376	-4.562640	0.143646	2.822035	0.965482	0.004851	1.879420	0.766113	0.078369	-0.530518	-0.106687	-0.077602	0.025364	0.028209	0.661453	0.336178	-0.669827	-103.749966	64.834683	106.865212
62458		-15.101583	0.625163	2.841937	-0.405679	-7.875857	3.390317	1.289595	0.174426	2.283936	0.755615	0.060303	-0.528320	-0.151048	0.004343	0.028583	0.031425	0.666023	0.324248	-0.671036	-103.915689	66.096540	105.877035
62459		-15.566107	2.285773	1.650762	1.255786	-8.523886	3.454073	0.754304	0.224517	2.404039	0.760742	0.042725	-0.521729	-0.155902	0.020922	0.016764	0.036732	0.670758	0.313675	-0.671076	-104.569633	67.413765	104.701144
62460		-13.222525	2.362519	-0.513072	2.759629	-6.449965	1.652609	0.223481	0.232751	2.476628	0.754639	0.027100	-0.523682	-0.132510	0.021991	-0.004951	0.044055	0.675431	0.304580	-0.670137	-105.689860	68.764412	103.361808
62461		-13.984187	0.444228	-0.948065	2.120782	-4.716292	3.221995	-0.054382	0.206087	2.409581	0.755371	0.007080	-0.517090	-0.139892	0.002754	-0.009337	0.052115	0.679745	0.296600	-0.668774	-107.067818	70.069482	101.929292
62462		-14.309283	1.519055	-3.373849	4.591463	-4.317679	3.555642	-0.064618	0.323433	2.342091	0.751709	-0.010742	-0.519043	-0.143312	0.013502	-0.033511	0.059816	0.684252	0.288858	-0.666920	-108.797113	71.305136	100.142230
62463		-12.938595	2.915990	-7.257208	8.390151	-3.031843	2.393188	0.461769	0.597533	2.251821	0.756348	-0.019531	-0.514648	-0.129920	0.027866	-0.072119	0.064996	0.689600	0.279724	-0.664817	-110.863121	72.416554	97.695833
62464		-12.504411	1.108485	-3.556184	4.064692	-2.952172	2.228601	0.719338	0.647499	2.157754	0.745850	-0.039795	-0.505859	-0.125269	0.009861	-0.035120	0.068913	0.694972	0.270020	-0.662838	-113.093924	73.440361	94.937297
62465		-11.116920	0.615793	0.188149	0.313537	-3.676286	0.693604	0.494945	0.483557	2.124764	0.748779	-0.052979	-0.505615	-0.111221	0.004971	0.002164	0.073697	0.699581	0.261095	-0.661048	-115.442726	74.450023	92.204072
62466		-8.570067	2.371962	-2.116663	2.996780	-3.320445	-1.841265	0.592283	0.557057	2.073591	0.744873	-0.068604	-0.496826	-0.085999	0.022891	-0.020859	0.077882	0.704318	0.252007	-0.659062	-118.171448	75.382567	89.032776
62467		-9.566109	0.660171	-2.640947	2.544366	-1.757632	-0.359909	0.666265	0.566232	1.971136	0.741211	-0.088867	-0.492432	-0.095795	0.005745	-0.026118	0.081432	0.708895	0.243024	-0.657097	-121.134639	76.217003	85.588365
62468		-8.818050	0.362173	-1.647166	1.422608	-1.636260	-1.100671	0.194656	0.366277	1.728603	0.745850	-0.095459	-0.487793	-0.088237	0.002875	-0.016307	0.086109	0.712262	0.236328	-0.655299	-124.033484	76.954042	82.499799
62469		-9.143200	0.328585	-1.733669	1.380112	-1.528067	-0.731379	0.023224	0.325979	1.585414	0.746338	-0.106445	-0.483398	-0.091482	0.002563	-0.017187	0.090950	0.715197	0.230685	-0.653457	-127.062246	77.597382	79.387001
62470		-10.467095	0.274381	-1.275045	0.800684	-1.841965	0.542277	0.022132	0.282584	1.411962	0.744629	-0.119873	-0.483398	-0.104705	0.002006	-0.012602	0.095292	0.717751	0.225616	-0.651805	-130.027366	78.143956	76.347418
62471		-11.234470	0.785021	-0.255151	-0.011582	-2.769522	1.106220	0.008094	0.285932	1.259107	0.744873	-0.130859	-0.483154	-0.112395	0.007143	-0.002391	0.099160	0.720097	0.221148	-0.650170	-132.979307	78.587801	73.334625
62472		-10.936955	-0.537022	-0.797366	-0.193016	-1.204662	1.098371	-0.062798	0.294541	1.186362	0.743164	-0.139893	-0.480957	-0.109347	-0.006021	-0.007811	0.103051	0.722331	0.217151	-0.648432	-136.077760	78.967888	70.218647
62473		-9.931461	-1.150222	-1.141996	-0.177232	-0.234935	0.245809	-0.062812	0.291408	1.130248	0.732178	-0.146729	-0.478760	-0.099264	-0.012067	-0.011272	0.106741	0.724461	0.213364	-0.646713	-139.239723	79.291960	67.041337
62474		-9.698531	-0.901815	-1.289607	0.008473	-0.262302	0.009125	0.054977	0.267718	1.099571	0.734619	-0.155518	-0.476563	-0.096951	-0.009548	-0.012769	0.109946	0.726525	0.209271	-0.645197	-142.411321	79.583716	63.789209
62475		-9.967326	-0.662466	-1.764204	0.446940	-0.228503	0.318745	0.201952	0.264496	1.091143	0.730469	-0.162354	-0.476563	-0.099658	-0.007151	-0.017517	0.112570	0.728622	0.204741	-0.643831	-145.629752	79.838710	60.406342
62476		-9.852754	-0.470474	-1.729492	0.443461	-0.313017	0.187000	0.284041	0.250257	1.055068	0.726318	-0.173584	-0.467773	-0.098523	-0.005200	-0.017179	0.114808	0.730662	0.200049	-0.642598	-148.846934	80.056605	56.979891
62477		-10.330837	-0.049245	-1.334903	0.166098	-0.843470	0.568576	0.231313	0.211974	1.023157	0.729248	-0.186768	-0.471924	-0.103318	-0.001006	-0.013240	0.117153	0.732490	0.195629	-0.641453	-152.062926	80.249236	53.587046
62478		-10.276881	-0.634979	-1.594881	0.086968	-0.116894	0.605522	0.069774	0.154661	0.953521	0.722656	-0.193604	-0.465332	-0.102749	-0.006834	-0.015872	0.119937	0.733956	0.191929	-0.640380	-155.212589	80.422297	50.357650
62479		-9.969953	0.025975	-1.836511	0.569827	-0.487988	0.297203	-0.028277	0.116441	0.900366	0.718506	-0.202393	-0.469727	-0.099710	-0.000192	-0.018307	0.122927	0.735168	0.188725	-0.639374	-158.290765	80.572629	47.258810
62480		-9.916578	-0.022981	-1.660961	0.350449	-0.433520	0.226559	-0.170002	0.059189	0.837377	0.714111	-0.207031	-0.467529	-0.099169	-0.000659	-0.016580	0.126305	0.736040	0.186152	-0.638466	-161.284012	80.714910	44.330070
62481		-9.800214	-0.319555	-1.791106	0.310128	-0.022161	0.150099	-0.289884	0.012833	0.790428	0.714600	-0.213623	-0.478516	-0.097990	-0.003609	-0.017900	0.129998	0.736626	0.184117	-0.637639	-164.208316	80.848993	41.541495
62482		-9.752100	0.108788	-1.427935	0.143423	-0.481947	0.031140	-0.348000	-0.015731	0.742937	0.703369	-0.213867	-0.478516	-0.097523	0.000701	-0.014288	0.133795	0.737030	0.182405	-0.636878	-167.070086	80.970126	38.851381
62483		-9.628253	-0.070699	-1.417081	0.039414	-0.242930	-0.083587	-0.397969	-0.043434	0.680767	0.703613	-0.224854	-0.478516	-0.096276	-0.001063	-0.014190	0.137583	0.737239	0.181075	-0.636209	-169.771204	81.078344	36.353336
62484		-9.608745	-0.373290	-1.431127	-0.107097	0.102734	-0.091933	-0.387806	-0.053946	0.637988	0.701660	-0.231689	-0.480469	-0.096071	-0.004067	-0.014330	0.141222	0.737375	0.179845	-0.635603	-172.379856	81.170969	33.944072
62485		-9.890848	-0.113198	-1.570965	0.070550	-0.029123	0.202473	-0.372113	-0.055165	0.611917	0.692871	-0.236084	-0.482666	-0.098900	-0.001464	-0.015734	0.144703	0.737480	0.178673	-0.635028	-174.913552	81.245546	31.601700
62486		-10.060040	0.887667	-1.465427	0.378690	-0.918779	0.343684	-0.413834	-0.059819	0.600201	0.692871	-0.233887	-0.484863	-0.100622	0.008544	-0.014702	0.148318	0.737522	0.177656	-0.634429	-177.480519	81.306544	29.250666
62487		-10.149536	0.922554	-1.126077	0.061864	-1.040917	0.387535	-0.479665	-0.084243	0.597950	0.690674	-0.236084	-0.489258	-0.101518	0.008895	-0.011325	0.152173	0.737422	0.176850	-0.633858	179.909965	81.365241	26.894734
62488		-9.756999	0.366680	-1.518109	0.187304	-0.276459	0.062851	-0.518375	-0.095040	0.586722	0.688721	-0.240723	-0.493652	-0.097573	0.003341	-0.015236	0.156158	0.737240	0.176182	-0.633287	177.272910	81.413994	24.534096
62489		-9.569674	-0.481058	-1.838496	0.085219	0.697839	-0.081523	-0.516008	-0.109568	0.555167	0.686523	-0.242920	-0.500244	-0.095673	-0.005124	-0.018424	0.160028	0.736970	0.175624	-0.632789	174.745198	81.456428	22.282567
62490		-9.597967	-0.140457	-1.926712	0.295304	0.495867	-0.039278	-0.508903	-0.115418	0.518303	0.682129	-0.247314	-0.504639	-0.095964	-0.001702	-0.019318	0.163774	0.736647	0.175157	-0.632336	172.322480	81.489863	20.133675
62491		-10.066655	0.368622	-1.567325	0.135742	-0.084973	0.380643	-0.555119	-0.118870	0.484550	0.689209	-0.251709	-0.509033	-0.100666	0.003399	-0.015743	0.167568	0.736232	0.174970	-0.631877	170.000629	81.515290	18.113343
62492		-10.204506	0.993203	-1.344782	0.201641	-0.686779	0.503040	-0.653116	-0.105922	0.456134	0.682373	-0.249512	-0.513428	-0.102060	0.009655	-0.013534	0.171635	0.735742	0.175191	-0.631295	167.714241	81.524197	16.186074
62493		-10.301375	1.402583	-0.970735	0.046094	-1.169331	0.563158	-0.822745	-0.076331	0.438959	0.682373	-0.253906	-0.515625	-0.103040	0.013760	-0.009804	0.176226	0.735167	0.176046	-0.630461	165.436899	81.508026	14.365850
62494		-10.464000	1.026148	-0.655619	-0.441642	-0.941242	0.670485	-1.082458	-0.045670	0.399516	0.682373	-0.251709	-0.522217	-0.104659	0.010017	-0.006635	0.181631	0.734407	0.177874	-0.629299	163.183869	81.469962	12.720883
62495		-10.338334	0.491443	-0.825520	-0.551392	-0.336431	0.550069	-1.220807	-0.074026	0.364810	0.684570	-0.251709	-0.526611	-0.103389	0.004675	-0.008322	0.187439	0.733371	0.180244	-0.628129	160.976816	81.444609	11.202087
62496		-10.198128	0.067339	-0.994594	-0.614448	0.168256	0.414214	-1.127251	-0.062326	0.353655	0.687256	-0.258057	-0.539795	-0.101979	0.000437	-0.009981	0.192865	0.732422	0.182353	-0.626984	158.876459	81.406135	9.737190
62497		-9.801329	0.359014	-2.037529	0.456879	0.511082	0.181124	-0.973298	-0.052401	0.355852	0.682861	-0.260498	-0.539795	-0.098014	0.003316	-0.020418	0.197704	0.731629	0.183988	-0.625923	156.903144	81.354815	8.311062
62498		-10.052324	1.080937	-1.738664	0.521744	-0.210914	0.430537	-0.875428	-0.064281	0.381194	0.685059	-0.260498	-0.535400	-0.100538	0.010541	-0.017465	0.202284	0.730902	0.185195	-0.624952	154.888345	81.295720	6.786360
62499		-9.852128	0.340039	-2.231768	0.559997	0.738686	0.252168	-0.765320	-0.106568	0.394890	0.682861	-0.262695	-0.546387	-0.098516	0.003120	-0.022382	0.206526	0.730150	0.185974	-0.624213	152.859034	81.247572	5.182608
62500		-9.681650	0.239011	-2.298749	0.568788	0.919809	0.082052	-0.639925	-0.125815	0.434317	0.689941	-0.266846	-0.550537	-0.096807	0.002106	-0.023055	0.210461	0.729492	0.186181	-0.623606	150.747780	81.188921	3.423325
62501		-9.700447	-0.209504	-1.848140	-0.068349	1.111314	0.001497	-0.614856	-0.136634	0.464628	0.689941	-0.266846	-0.557129	-0.096987	-0.002377	-0.018541	0.214391	0.728841	0.186198	-0.623023	148.575658	81.117709	1.587284
62502		-9.866618	-0.680317	-1.797975	-0.411289	1.536836	0.112752	-0.545143	-0.158653	0.524907	0.685791	-0.275879	-0.557129	-0.098633	-0.007111	-0.018039	0.218286	0.728243	0.185740	-0.622507	146.239000	81.026557	-0.455854
62503		-10.203463	-0.442648	-1.880402	-0.289985	1.448879	0.466357	-0.456679	-0.193390	0.590912	0.690674	-0.284668	-0.561523	-0.102003	-0.004771	-0.018892	0.222079	0.727681	0.184737	-0.622121	143.746388	80.917712	-2.709080
62504		-10.011550	-0.473776	-2.108584	-0.113914	1.673061	0.291227	-0.414251	-0.196783	0.687555	0.686035	-0.284668	-0.557129	-0.100078	-0.005126	-0.021174	0.225976	0.727249	0.183169	-0.621685	141.054052	80.759730	-5.199801
62505		-10.048689	-0.191098	-1.745051	-0.293285	1.317861	0.298416	-0.399887	-0.208905	0.800454	0.686523	-0.297852	-0.563477	-0.100460	-0.002348	-0.017551	0.230220	0.726868	0.181203	-0.621150	138.152122	80.547084	-7.902847
62506		-9.910496	-0.459699	-1.297734	-0.818184	1.376985	0.063903	-0.390622	-0.232760	0.916179	0.675781	-0.306885	-0.572266	-0.099067	-0.005076	-0.013083	0.234764	0.726527	0.178682	-0.620578	135.044366	80.274971	-10.831674
62507		-10.054942	-0.529321	-0.773545	-1.346156	1.243329	0.118142	-0.342641	-0.267631	1.048759	0.682373	-0.306885	-0.572266	-0.100509	-0.005834	-0.007860	0.239611	0.726213	0.175557	-0.619985	131.771125	79.935896	-13.949299
62508		-10.627777	-0.718066	-0.385483	-1.905854	1.318615	0.591225	-0.261622	-0.307427	1.188845	0.671631	-0.318115	-0.567871	-0.106226	-0.007817	-0.004008	0.244580	0.725984	0.171546	-0.619435	128.385148	79.518379	-17.242101
62509		-11.230728	0.039623	-0.325747	-1.690457	0.831060	1.263710	-0.169969	-0.332684	1.350708	0.670166	-0.338135	-0.574463	-0.112301	-0.000365	-0.003444	0.249772	0.725879	0.166698	-0.618810	124.983583	79.002357	-20.599386
62510		-11.962553	0.229241	-0.536722	-1.605429	1.007939	2.013006	-0.128216	-0.353204	1.522198	0.661865	-0.351563	-0.580811	-0.119629	0.001378	-0.005580	0.255302	0.725877	0.160990	-0.618066	121.610769	78.373459	-23.968067
62511		-12.635092	0.491625	-0.553643	-1.644080	1.048003	2.692854	-0.138984	-0.379555	1.662866	0.655762	-0.367188	-0.578613	-0.126375	0.003862	-0.005779	0.261353	0.725829	0.154833	-0.617166	118.352832	77.646384	-27.211395
62512		-12.894967	-0.281661	-0.723010	-2.059157	2.013682	2.780266	-0.253618	-0.419156	1.786312	0.645020	-0.380615	-0.589600	-0.128902	-0.003977	-0.007496	0.268165	0.725558	0.148446	-0.616131	115.177923	76.828654	-30.321650
62513		-12.886528	-0.859300	-0.707348	-2.473658	2.698725	2.592708	-0.270395	-0.398313	1.917148	0.632080	-0.398682	-0.585205	-0.128761	-0.009837	-0.007317	0.275446	0.725343	0.141721	-0.614753	112.299439	75.903605	-33.118256
62514		-13.964833	-0.691413	-0.384830	-2.964725	2.769565	3.572957	-0.267105	-0.419116	2.047894	0.625732	-0.405518	-0.587158	-0.139559	-0.008349	-0.004130	0.283056	0.725096	0.134398	-0.613231	109.637461	74.881191	-35.714871
62515		-14.801910	-1.083498	-0.924487	-3.028794	3.803133	4.240018	-0.273065	-0.457694	2.180282	0.606445	-0.430176	-0.593750	-0.147868	-0.012460	-0.009567	0.291131	0.724711	0.126612	-0.611560	107.158665	73.766515	-38.120935
62516		-15.152935	-1.055239	-1.948729	-2.384371	4.739398	4.552701	-0.309463	-0.435153	2.313377	0.596191	-0.452637	-0.593750	-0.151351	-0.012334	-0.019799	0.299643	0.724336	0.118403	-0.609534	104.949827	72.548688	-40.247317
62517		-15.998374	-1.204667	-2.026374	-2.741644	5.398810	5.181571	-0.468904	-0.415805	2.449058	0.585449	-0.463867	-0.602295	-0.159777	-0.014052	-0.020565	0.309137	0.723741	0.110267	-0.607020	102.916730	71.231616	-42.097634
62518		-16.512385	-3.108310	-2.638504	-3.555603	7.710476	4.924041	-0.657809	-0.378956	2.582392	0.565918	-0.486328	-0.606689	-0.164653	-0.033298	-0.026590	0.319596	0.722921	0.102194	-0.603986	101.047859	69.816282	-43.683905
62519		-17.389090	-3.939705	-3.206341	-3.961485	9.257388	5.246128	-0.766747	-0.286907	2.722026	0.550781	-0.500000	-0.608887	-0.173286	-0.041881	-0.032155	0.330810	0.722127	0.094139	-0.600196	99.441704	68.297981	-44.927107
62520		-18.520820	-4.679756	-2.936000	-5.111722	10.337277	5.696152	-0.906016	-0.207501	2.885480	0.522461	-0.520264	-0.622070	-0.184476	-0.049596	-0.029331	0.342855	0.721266	0.085960	-0.595682	98.015961	66.669172	-45.912263
62521		-19.475993	-6.486714	-2.880290	-6.670672	12.313501	5.469072	-1.133627	-0.142011	3.014617	0.511963	-0.540527	-0.630615	-0.193731	-0.067955	-0.028561	0.356045	0.720078	0.078146	-0.590434	96.679089	64.953524	-46.659455
62522		-20.413211	-8.462992	-2.663318	-8.497091	14.289777	4.985007	-1.326693	-0.161504	3.137639	0.485596	-0.552002	-0.635010	-0.202748	-0.087993	-0.026221	0.370196	0.718336	0.070408	-0.584800	95.328841	63.163163	-47.309307
62523		-20.045621	-8.763157	-3.515952	-8.218731	15.258722	3.991570	-1.348194	-0.187346	3.242620	0.463867	-0.572266	-0.652588	-0.198965	-0.091101	-0.034740	0.384632	0.716297	0.062282	-0.578876	94.051329	61.307108	-47.873556
62524		-18.514887	-6.406705	-3.631517	-6.709597	13.490773	3.224725	-1.139989	-0.132507	3.366940	0.444092	-0.583740	-0.659180	-0.184009	-0.067377	-0.036060	0.398533	0.714629	0.053205	-0.572404	93.043761	59.375078	-48.274942
62525		-18.008766	-2.549557	-2.280031	-5.849782	10.211616	4.240114	-0.752126	-0.126479	3.527162	0.417969	-0.599854	-0.661377	-0.179585	-0.028752	-0.022810	0.411386	0.713560	0.042428	-0.565502	92.330179	57.346488	-48.600210
62526		-17.717766	-3.851357	-4.513233	-4.994666	12.763232	2.885217	-0.957973	-0.385707	3.462268	0.397949	-0.606689	-0.676758	-0.176386	-0.041788	-0.045278	0.424694	0.711088	0.031935	-0.559436	91.343943	55.360217	-49.118967
62527		-16.021200	-5.329102	-7.811718	-2.843207	15.430007	0.182182	-0.734602	-0.348189	3.450211	0.371826	-0.627197	-0.685547	-0.159122	-0.056330	-0.078192	0.437046	0.708961	0.020912	-0.553108	90.588229	53.373639	-49.523872
62528		-15.027342	-4.906247	-7.386746	-2.775036	14.723131	-0.870791	-0.374967	-0.220468	3.423437	0.352051	-0.638672	-0.687744	-0.149321	-0.051763	-0.073937	0.447879	0.707754	0.009284	-0.546262	90.183994	51.403127	-49.756380
62529		-11.037674	-1.008809	-4.776207	-1.368198	9.033732	-1.927877	0.180271	-0.196326	3.121997	0.325928	-0.659180	-0.687744	-0.110155	-0.011766	-0.047880	0.455821	0.707643	-0.002764	-0.539871	90.135585	49.601240	-49.945655
62530		-6.633907	5.983641	-4.431242	3.471176	2.736914	-0.873815	-0.159084	0.108598	2.753075	0.312256	-0.656982	-0.689941	-0.067178	0.058880	-0.044323	0.463847	0.707438	-0.011870	-0.533138	90.104489	48.014383	-49.859341
62531		-5.502764	3.714550	-3.627057	2.143299	3.111589	-3.258645	-1.376852	0.044206	1.914600	0.303955	-0.668213	-0.709717	-0.055386	0.036366	-0.036510	0.473887	0.704162	-0.014937	-0.528549	89.340278	46.904087	-49.818185
62532		-9.979772	-8.763608	-6.552726	-3.726280	14.285904	-8.647625	-1.725697	0.071110	0.735683	0.301270	-0.657227	-0.720703	-0.099496	-0.088563	-0.064730	0.481963	0.700145	-0.012841	-0.526634	88.397135	46.474030	-49.749028
62533		-5.380196	-14.506131	-4.143878	-6.459853	13.288669	-15.995351	-1.091913	0.021386	0.057273	0.305908	-0.659180	-0.733887	-0.053765	-0.145300	-0.040640	0.486026	0.697517	-0.010183	-0.526445	87.777360	46.428112	-49.733192
62534		-2.471430	-15.513968	-0.624085	-8.406820	9.888415	-18.685336	-0.588009	0.020102	-0.578149	0.312256	-0.652344	-0.738281	-0.025163	-0.155085	-0.005782	0.486619	0.696138	-0.006608	-0.527778	87.432319	46.750882	-49.738192
62535		0.772827	-11.448073	0.328115	-5.711447	5.428990	-18.159391	-0.160477	0.067772	-1.066002	0.328125	-0.652100	-0.733887	0.007119	-0.114517	0.003371	0.484456	0.695914	-0.002377	-0.530094	87.344077	47.349232	-49.725435
62536		1.252630	-9.181437	-0.245813	-3.970985	4.443637	-16.912829	0.469652	0.237273	-1.427714	0.338867	-0.643066	-0.731689	0.011867	-0.091895	-0.002688	0.479092	0.697652	0.001887	-0.532681	87.718174	48.164260	-49.577455
62537		-0.299053	-8.483290	-1.331022	-3.499978	5.694036	-15.212006	0.845342	0.407495	-1.896187	0.356445	-0.635986	-0.725098	-0.003822	-0.084742	-0.013661	0.471160	0.700670	0.007158	-0.535742	88.418100	49.244417	-49.283052
62538		-2.057425	-6.509322	-1.434527	-3.160510	5.633486	-12.446022	0.896293	0.467287	-2.378954	0.374023	-0.624756	-0.718506	-0.021380	-0.064777	-0.014587	0.461656	0.703865	0.014159	-0.539674	89.210182	50.604985	-48.913144
62539		-3.214928	-3.951760	-1.124017	-2.545064	4.553524	-9.770707	0.585464	0.445496	-2.794077	0.393799	-0.611084	-0.714111	-0.032722	-0.039030	-0.011282	0.452075	0.706113	0.023372	-0.544505	89.839672	52.194475	-48.529754
62540		-3.710419	-2.557765	-1.277645	-1.883049	4.042184	-8.379248	0.265688	0.431183	-3.186273	0.424561	-0.592773	-0.711914	-0.037533	-0.024965	-0.012729	0.442418	0.707401	0.034839	-0.550124	90.317887	54.012347	-48.116512
62541		-4.115769	-2.240803	-1.654076	-1.563134	4.224917	-7.714857	0.040813	0.465323	-3.593808	0.448730	-0.578857	-0.705322	-0.041590	-0.021660	-0.016449	0.432336	0.707999	0.048394	-0.556310	90.739788	56.055502	-47.623423
62542		-5.283472	-2.574247	-1.693286	-2.114311	4.853567	-6.750518	-0.128689	0.523018	-3.989019	0.472412	-0.551758	-0.709717	-0.053378	-0.024692	-0.016778	0.421547	0.708048	0.063966	-0.562917	91.183633	58.328533	-47.002311
62543		-6.516812	-2.800228	-1.451818	-2.795199	5.176114	-5.593153	-0.118260	0.586810	-4.334284	0.500488	-0.526855	-0.701172	-0.065797	-0.026589	-0.014310	0.409582	0.707869	0.080797	-0.569768	91.786292	60.789038	-46.218337
62544		-7.812020	-2.627554	-0.663798	-3.606642	4.795773	-4.124747	0.018024	0.647672	-4.612808	0.526367	-0.502197	-0.696777	-0.078719	-0.024464	-0.006386	0.396070	0.707679	0.098351	-0.576755	92.684531	63.408688	-45.208723
62545		-9.386413	-2.346576	0.252148	-4.448102	4.220709	-2.325620	0.202064	0.694632	-4.846859	0.560791	-0.463867	-0.687988	-0.094387	-0.021185	0.002827	0.381025	0.707466	0.116198	-0.583789	93.972963	66.144853	-43.906652
62546		-11.216368	-1.732369	1.136883	-5.028410	3.353131	-0.140820	0.352588	0.714249	-5.027102	0.582275	-0.434570	-0.675049	-0.112511	-0.014519	0.011743	0.364632	0.707060	0.134252	-0.590836	95.744799	68.973929	-42.203767
62547		-12.610303	-1.045320	1.766541	-5.139993	2.328712	1.648363	0.496855	0.713261	-5.153526	0.607910	-0.405273	-0.677246	-0.126253	-0.007246	0.018095	0.347158	0.706357	0.152194	-0.597811	98.155565	71.843074	-39.941859
62548		-13.597816	-0.799822	2.125357	-5.138174	1.581095	2.880434	0.645142	0.709366	-5.239444	0.631348	-0.369385	-0.659912	-0.136050	-0.004504	0.021718	0.328622	0.705349	0.169927	-0.604661	101.558718	74.726181	-36.770694
62549		-14.309039	-0.694286	2.145599	-4.852114	1.024075	3.795977	0.848820	0.694477	-5.318598	0.656738	-0.331299	-0.653564	-0.143134	-0.003229	0.021934	0.308951	0.704055	0.187134	-0.611421	106.588456	77.575276	-32.087169
62550		-15.264980	-0.628971	1.970033	-4.433055	0.569645	4.927222	1.026144	0.679620	-5.407167	0.678223	-0.306641	-0.638184	-0.152679	-0.002265	0.020201	0.288122	0.702379	0.203992	-0.618091	114.614150	80.338961	-24.506903
62551		-16.489682	-0.617856	1.251129	-3.608156	0.419406	6.330252	1.228111	0.675188	-5.514013	0.694580	-0.266357	-0.625244	-0.164942	-0.001710	0.013048	0.266079	0.700323	0.220391	-0.624641	128.720101	82.832130	-10.957781
62552		-17.785111	0.045187	0.563949	-2.303734	-0.397456	7.824829	1.499044	0.665642	-5.621935	0.712891	-0.221680	-0.605713	-0.177725	0.005404	0.006259	0.242494	0.697893	0.236170	-0.631162	154.780207	84.566566	14.393540
62553		-18.969385	0.847872	-0.462204	-0.554527	-1.272688	9.127789	1.801487	0.675240	-5.710985	0.724854	-0.181641	-0.594971	-0.189362	0.013927	-0.003873	0.217396	0.695151	0.251067	-0.637550	-169.059245	84.591733	49.675331
62554		-20.026418	1.555859	-1.837960	1.488466	-2.021907	10.198122	2.130891	0.666064	-5.727989	0.743164	-0.136963	-0.586426	-0.199765	0.021475	-0.017506	0.190864	0.692066	0.264774	-0.643825	-141.965544	82.843772	75.700806
62555		-21.061630	2.611313	-3.351561	3.907687	-3.128408	11.078582	2.465476	0.665915	-5.701597	0.748535	-0.099365	-0.566895	-0.209859	0.032508	-0.032441	0.163125	0.688685	0.277018	-0.649895	-127.009557	80.239109	89.393513
62556		-21.677938	4.584564	-4.614070	6.680900	-5.210225	11.170595	2.720376	0.672254	-5.640425	0.753174	-0.050537	-0.553955	-0.215512	0.052551	-0.044730	0.134436	0.684957	0.287937	-0.655632	-118.303449	77.311195	96.672219
62557		-22.419250	8.709671	-1.910965	7.330564	-11.323966	10.187185	2.603663	0.481046	-5.569978	0.760986	-0.019287	-0.549805	-0.221690	0.093528	-0.017385	0.106626	0.679954	0.298612	-0.661154	-112.405711	74.320370	101.220438
62558		-21.739188	9.158398	0.924760	5.564164	-14.034638	8.332829	2.178305	0.279905	-5.313863	0.764404	0.009521	-0.539063	-0.214845	0.097205	0.010588	0.081273	0.673827	0.309487	-0.666010	-108.220798	71.415964	104.297547
62559		-22.010302	9.611260	0.660472	6.385377	-15.185524	7.673788	1.976906	0.109027	-4.878463	0.769775	0.045166	-0.539063	-0.217669	0.101370	0.007709	0.058292	0.667229	0.319229	-0.670448	-105.053476	68.733223	106.466870
62560		-20.159551	11.849956	-1.210940	9.178112	-16.084303	4.514018	1.999793	0.058153	-4.432640	0.775391	0.069580	-0.532715	-0.198905	0.123041	-0.010836	0.036739	0.660740	0.327216	-0.674539	-102.526882	66.267244	107.966375
62561		-18.146002	15.572399	-4.530416	13.699212	-17.197825	0.616720	1.894234	0.164188	-4.007347	0.776611	0.096191	-0.530762	-0.178322	0.159737	-0.043657	0.016809	0.654945	0.333971	-0.677664	-100.650127	64.012826	108.844517
62562		-16.698679	21.050084	-4.892059	16.320424	-21.096992	-3.950878	1.002822	0.251227	-3.534792	0.782471	0.120850	-0.526367	-0.163290	0.213650	-0.047648	0.001222	0.649878	0.342089	-0.678699	-99.655632	62.003855	109.321517
62563		-13.226652	25.639213	-4.049504	17.135456	-23.557805	-10.068083	-0.521089	0.178714	-2.787664	0.781738	0.138428	-0.522217	-0.128713	0.258096	-0.041050	-0.006730	0.645672	0.352839	-0.677176	-99.654911	60.425820	109.669411
62564		-10.854159	26.307295	-3.453830	16.749160	-23.028967	-13.116334	-1.533069	0.145521	-1.851222	0.781738	0.140625	-0.522217	-0.106128	0.263788	-0.036481	-0.008197	0.642924	0.363943	-0.673889	-100.361347	59.378678	109.874575
62565		-10.924959	23.855787	-2.508936	15.152769	-21.433245	-12.208614	-1.770306	0.120920	-0.816401	0.783691	0.147461	-0.524414	-0.108291	0.238767	-0.027137	-0.005357	0.641914	0.372468	-0.670213	-101.347241	58.919985	109.914242
62566		-12.589583	20.625459	-1.309428	13.155241	-20.304827	-9.292616	-1.190505	0.085669	0.229433	0.781494	0.147217	-0.522217	-0.126138	0.206027	-0.014267	-0.000807	0.642677	0.375671	-0.667711	-102.159977	59.052429	109.768617
62567		-13.149575	18.142397	0.381066	10.711105	-19.554759	-7.558767	-0.405051	0.031964	1.216126	0.781982	0.134033	-0.517822	-0.132595	0.180627	0.003465	0.004614	0.645083	0.373064	-0.666836	-102.681458	59.742718	109.438937
62568		-11.865501	16.996604	0.057512	10.187981	-17.929151	-7.711963	0.028343	0.026140	2.080289	0.778076	0.116211	-0.524170	-0.120414	0.168720	0.000615	0.011482	0.649081	0.366133	-0.666715	-103.166107	60.916437	108.859379
62569		-17.170324	10.839965	-2.965276	10.454359	-14.252606	0.611568	0.038104	0.225336	2.522902	0.765625	0.091553	-0.530762	-0.173086	0.106228	-0.029438	0.019474	0.654425	0.357758	-0.665851	-104.011224	62.304944	107.880395
62570		-9.135884	-12.353919	-3.780161	-1.635499	7.168553	4.198056	0.042289	0.261676	2.235115	0.766113	0.080566	-0.523926	-0.090020	-0.124542	-0.037710	0.026389	0.659321	0.350190	-0.664806	-104.905205	63.524188	106.846037
62571		-9.797574	-30.824055	2.644353	-16.383722	17.888528	11.743248	0.088589	0.116123	1.622074	0.759766	0.071533	-0.526123	-0.095456	-0.309033	0.026363	0.031403	0.662559	0.344506	-0.664338	-105.492004	64.417360	106.142803
62572		-10.015234	-15.632172	6.704411	-12.345898	4.584157	4.890016	1.181603	0.130351	1.679378	0.758057	0.055908	-0.519531	-0.098790	-0.157548	0.066180	0.032914	0.666093	0.334907	-0.665638	-105.526322	65.340026	105.353761
62573		-12.751713	-1.141709	6.660329	-5.023484	-7.343080	1.549480	2.099773	0.375126	2.158166	0.749756	0.035889	-0.517334	-0.127254	-0.013491	0.066708	0.032591	0.671244	0.320708	-0.667469	-105.534584	66.487640	104.033084
62574		-15.363907	4.765787	5.335263	-1.082508	-12.111395	1.992033	1.530409	0.375630	2.330645	0.750488	0.018066	-0.512695	-0.154076	0.045452	0.053995	0.034698	0.676466	0.307693	-0.668217	-106.016259	67.729603	102.554646
62575		-14.006069	4.349948	1.275721	1.942424	-9.178424	1.531602	0.493082	0.259340	2.308698	0.753174	0.007080	-0.512695	-0.140533	0.041847	0.013044	0.040462	0.680939	0.298213	-0.667648	-107.049257	68.969212	101.145418
62576		-13.328578	0.468383	-1.960578	2.791546	-4.080802	2.727706	-0.138031	0.307221	2.143971	0.742432	-0.008789	-0.508301	-0.133356	0.003241	-0.019404	0.047762	0.685111	0.291357	-0.665922	-108.594668	70.100872	99.586455
62577		-14.055404	1.595784	-8.307574	8.787897	-2.178758	3.867039	0.078562	0.515519	2.071217	0.743164	-0.024414	-0.503662	-0.140923	0.014532	-0.082707	0.053755	0.689839	0.284058	-0.663735	-110.479798	71.134276	97.546424
62578		-14.810524	3.621696	-7.229093	8.593373	-4.442061	4.012727	0.619761	0.696223	2.028551	0.736572	-0.033447	-0.492676	-0.148714	0.034933	-0.071664	0.057493	0.695172	0.275110	-0.661623	-112.537586	72.085633	95.009955
62579		-16.209564	2.145722	1.399273	0.070689	-7.273161	4.897794	0.110909	0.389067	2.067359	0.739502	-0.046631	-0.494873	-0.162278	0.019773	0.014320	0.063526	0.699308	0.267603	-0.659789	-114.652160	73.095552	92.733285
62580		-12.348862	5.250426	0.924056	1.681696	-8.361492	0.587591	-0.308250	0.378565	2.146362	0.735596	-0.062256	-0.492432	-0.124025	0.051190	0.009395	0.071312	0.703304	0.261151	-0.657326	-117.345513	74.122184	90.116287
62581		-11.523908	2.955138	-2.227076	3.267755	-4.591878	0.898204	-0.501950	0.444068	2.197900	0.735840	-0.071045	-0.485840	-0.115603	0.028227	-0.022086	0.079835	0.707418	0.255161	-0.654278	-120.682726	75.113557	86.959398
62582		-9.351612	0.313179	-2.826816	2.458112	-1.322906	-0.445430	-0.633222	0.330469	2.037089	0.732178	-0.088867	-0.490234	-0.093587	0.002090	-0.028121	0.088452	0.710818	0.250072	-0.651443	-124.127394	76.013744	83.783452
62583		-8.175629	2.024650	-2.235884	2.672471	-2.628038	-1.945780	-0.862851	0.185534	1.773671	0.732666	-0.100098	-0.489990	-0.081952	0.019424	-0.022368	0.097177	0.713231	0.246595	-0.648883	-127.464217	76.788677	80.864934
62584		-8.820625	0.562697	-1.695213	1.399173	-1.634919	-1.074190	-0.942552	0.106619	1.485011	0.732910	-0.108887	-0.494385	-0.088253	0.004892	-0.016929	0.105362	0.714935	0.244325	-0.646585	-130.594811	77.426447	78.213717
62585		-9.993785	-0.615554	-1.025479	0.111297	-1.067162	0.194981	-0.688449	0.127247	1.303186	0.731201	-0.120117	-0.489990	-0.099901	-0.006842	-0.010168	0.111994	0.716563	0.241898	-0.644578	-133.566677	77.943806	75.581420
62586		-10.254663	-2.086200	-1.652002	-0.165254	0.547636	0.766099	-0.273382	0.220411	1.227424	0.729248	-0.128906	-0.492188	-0.102434	-0.021513	-0.016378	0.116801	0.718601	0.238425	-0.642747	-136.575515	78.365382	72.673457
62587		-10.582752	-1.156971	-1.679739	0.209530	-0.198570	0.960893	-0.014529	0.264028	1.183134	0.733887	-0.135498	-0.489746	-0.105779	-0.012197	-0.016657	0.120455	0.720844	0.234315	-0.641070	-139.617126	78.716785	69.584270
62588		-10.470374	-0.733094	-1.789870	0.439028	-0.394699	0.818404	0.050034	0.225218	1.114921	0.734131	-0.142090	-0.487549	-0.104681	-0.007910	-0.017783	0.123722	0.722901	0.230193	-0.639624	-142.591574	79.030567	66.529908
62589		-9.886152	-1.595867	-2.054844	0.217830	0.667127	0.385926	0.031389	0.177605	1.060833	0.732666	-0.157715	-0.485352	-0.098793	-0.016480	-0.020463	0.126911	0.724703	0.226308	-0.638345	-145.512826	79.315320	63.543168
62590		-9.372214	-1.397393	-1.810229	0.084474	0.548576	-0.181529	0.154553	0.145416	1.021367	0.732666	-0.159912	-0.483154	-0.093662	-0.014438	-0.018045	0.129582	0.726420	0.222128	-0.637324	-148.373470	79.576493	60.549487
62591		-9.691053	-0.181562	-1.087758	-0.033472	-0.819813	-0.093697	0.257150	0.130354	0.966767	0.730713	-0.166748	-0.485352	-0.096907	-0.002270	-0.010817	0.131699	0.728070	0.217821	-0.636494	-151.124675	79.800366	57.609113
62592		-10.193257	0.917259	-0.970162	0.294623	-1.831313	0.298885	0.104562	0.090915	0.882585	0.730713	-0.171143	-0.480957	-0.101976	0.008728	-0.009651	0.134164	0.729389	0.214258	-0.635677	-153.798453	79.998438	54.838636
62593		-10.439901	0.730407	-1.028140	0.180897	-1.602880	0.578635	-0.147366	0.045321	0.786809	0.727051	-0.186768	-0.485107	-0.104429	0.006886	-0.010263	0.137268	0.730273	0.211828	-0.634813	-156.353154	80.173187	52.336655
62594		-10.303228	0.594136	-1.288518	0.313624	-1.272531	0.504852	-0.361213	0.026338	0.687962	0.722656	-0.191162	-0.485107	-0.103054	0.005564	-0.012882	0.140879	0.730838	0.210403	-0.633845	-158.802330	80.318829	50.067786
62595		-10.058727	0.742388	-1.507458	0.568142	-1.200906	0.298505	-0.580040	-0.016844	0.591100	0.716064	-0.195801	-0.485107	-0.100607	0.007083	-0.015104	0.145004	0.730993	0.210009	-0.632866	-161.067408	80.451427	48.113230
62596		-9.803460	0.728642	-1.523614	0.578262	-1.085879	0.058801	-0.757376	-0.072641	0.519872	0.720947	-0.204590	-0.487305	-0.098047	0.006974	-0.015299	0.149628	0.730757	0.210374	-0.631940	-163.218418	80.590484	46.378620
62597		-10.026032	0.003185	-1.377340	0.046162	-0.492183	0.295413	-0.865003	-0.122854	0.495653	0.725342	-0.202148	-0.491699	-0.100251	-0.000276	-0.013834	0.154598	0.730235	0.211143	-0.631090	-165.340816	80.741616	44.735718
62598		-9.749891	-0.891656	-1.733194	-0.092096	0.547253	0.114604	-0.824583	-0.128051	0.482117	0.712402	-0.213623	-0.498291	-0.097466	-0.009223	-0.017357	0.159399	0.729699	0.211807	-0.630293	-167.468294	80.884874	43.065396
62599		-9.690142	-1.437671	-2.022349	-0.145190	1.224607	0.113772	-0.676794	-0.118825	0.479944	0.707764	-0.213623	-0.507080	-0.096854	-0.014678	-0.020232	0.163621	0.729288	0.212033	-0.629611	-169.547227	81.011893	41.358621
62600		-9.559829	-1.154668	-2.147615	0.094777	1.113485	-0.010303	-0.551152	-0.106290	0.452627	0.710205	-0.215820	-0.509277	-0.095560	-0.011822	-0.021495	0.167302	0.728981	0.211953	-0.629025	-171.532866	81.120449	39.674439
62601		-9.540359	-0.441645	-2.054052	0.365947	0.509856	-0.063917	-0.484250	-0.113776	0.426496	0.705811	-0.218018	-0.509277	-0.095382	-0.004670	-0.020584	0.170643	0.728667	0.211767	-0.628554	-173.404026	81.221732	38.067327
62602		-9.638038	0.336199	-1.824234	0.550288	-0.229659	-0.015909	-0.443334	-0.129847	0.411287	0.706055	-0.224609	-0.511230	-0.096375	0.003123	-0.018312	0.173822	0.728316	0.211474	-0.628188	-175.247820	81.323832	36.465074
62603		-9.752645	0.747938	-1.891400	0.796648	-0.504574	0.105046	-0.429039	-0.134396	0.399574	0.703857	-0.226807	-0.517822	-0.097528	0.007244	-0.018995	0.176895	0.727940	0.211190	-0.627861	-177.057751	81.419808	34.888761
62604		-9.699153	0.642384	-1.573285	0.467562	-0.526639	0.008987	-0.399885	-0.125753	0.405004	0.701660	-0.226807	-0.522217	-0.096994	0.006196	-0.015806	0.179833	0.727638	0.210720	-0.627535	-178.928753	81.503664	33.224614
62605		-9.298176	-0.166865	-1.616742	0.108400	0.260170	-0.377743	-0.341281	-0.107017	0.407900	0.699463	-0.227051	-0.520020	-0.092969	-0.001886	-0.016214	0.182581	0.727422	0.210151	-0.627182	179.210204	81.568475	31.546469
62606		-9.327132	-0.594655	-1.583711	-0.167678	0.645982	-0.356918	-0.302013	-0.110390	0.405922	0.697021	-0.224854	-0.526611	-0.093250	-0.006160	-0.015879	0.185146	0.727245	0.209382	-0.626893	177.333589	81.627339	29.820536
62607		-9.530700	-0.305991	-1.606440	-0.034920	0.443740	-0.152965	-0.276136	-0.123709	0.409297	0.694824	-0.227051	-0.526611	-0.095290	-0.003277	-0.016119	0.187677	0.727028	0.208584	-0.626658	175.450754	81.685358	28.083161
62608		-9.920210	0.182381	-1.403532	-0.005760	-0.056856	0.207806	-0.291649	-0.110728	0.405557	0.695068	-0.231445	-0.535400	-0.099198	0.001602	-0.014093	0.190255	0.726830	0.207845	-0.626356	173.536730	81.727786	26.323879
62609		-9.929404	0.289615	-1.191506	-0.139685	-0.215903	0.188829	-0.322900	-0.117266	0.394384	0.692871	-0.229248	-0.533203	-0.099292	0.002681	-0.011978	0.192899	0.726562	0.207251	-0.626055	171.646946	81.766407	24.606958
62610		-9.974154	0.265658	-1.061334	-0.280398	-0.223011	0.214886	-0.373354	-0.118411	0.390989	0.690918	-0.238037	-0.535400	-0.099740	0.002442	-0.010677	0.195733	0.726235	0.206810	-0.625701	169.706809	81.797572	22.868914
62611		-10.119061	0.158604	-0.950617	-0.463165	-0.155699	0.340405	-0.419842	-0.125058	0.393127	0.693115	-0.238037	-0.537598	-0.101187	0.001367	-0.009572	0.198730	0.725835	0.206513	-0.625318	167.732711	81.823981	21.123202
62612		-9.805484	-0.228783	-1.092019	-0.531927	0.307665	0.036911	-0.468224	-0.126457	0.394230	0.691162	-0.242432	-0.544189	-0.098043	-0.002507	-0.010976	0.201868	0.725396	0.206282	-0.624898	165.696929	81.842021	19.333653
62613		-10.040456	-0.044821	-1.248128	-0.350071	0.276802	0.295290	-0.453210	-0.121757	0.433389	0.693359	-0.240234	-0.546387	-0.100396	-0.000694	-0.012541	0.205104	0.725000	0.205943	-0.624416	163.536520	81.842624	17.419179
62614		-9.933884	0.326820	-1.471789	0.035044	0.149437	0.233765	-0.433219	-0.124461	0.482305	0.693359	-0.240234	-0.550781	-0.099337	0.002997	-0.014786	0.208383	0.724678	0.205281	-0.623922	161.184023	81.825086	15.289396
62615		-10.001192	0.579651	-1.404110	0.090517	-0.043039	0.302697	-0.445031	-0.124473	0.529092	0.693604	-0.246826	-0.552979	-0.100018	0.005501	-0.014116	0.211887	0.724362	0.204562	-0.623344	158.681429	81.786144	13.024299
62616		-10.016432	0.196689	-1.427900	-0.130466	0.347954	0.300079	-0.486217	-0.130213	0.564124	0.693848	-0.253418	-0.555176	-0.100160	0.001650	-0.014348	0.215613	0.724030	0.203758	-0.622715	156.029892	81.727419	10.622618
62617		-10.070504	-0.057497	-1.418935	-0.314494	0.615336	0.333928	-0.538095	-0.151189	0.592630	0.687256	-0.258057	-0.568359	-0.100692	-0.000912	-0.014263	0.219672	0.723574	0.203063	-0.622053	153.268700	81.657153	8.149420
62618		-10.275962	0.144435	-1.383683	-0.285528	0.495419	0.541220	-0.556953	-0.168721	0.644059	0.691895	-0.260010	-0.563721	-0.102752	0.001075	-0.013927	0.223934	0.723101	0.202142	-0.621383	150.324201	81.563326	5.491667
62619		-10.233270	-0.179478	-1.233375	-0.615557	0.749877	0.450425	-0.543584	-0.180718	0.709703	0.689697	-0.260010	-0.570313	-0.102314	-0.002192	-0.012421	0.228398	0.722637	0.201000	-0.620668	147.234046	81.436562	2.687813
62620		-10.139738	-0.307919	-1.258749	-0.688946	0.950362	0.341872	-0.453741	-0.183574	0.796260	0.689941	-0.271240	-0.570313	-0.101372	-0.003512	-0.012673	0.232764	0.722357	0.199184	-0.619958	144.006172	81.259536	-0.318220
62621		-9.892031	-0.809929	-1.369983	-0.889171	1.508365	0.052330	-0.353588	-0.205890	0.897216	0.686035	-0.280029	-0.576904	-0.098868	-0.008567	-0.013787	0.237137	0.722188	0.196737	-0.619278	140.643056	81.032692	-3.511132
62622		-9.993756	-0.754556	-0.956396	-1.244825	1.315230	0.090791	-0.221183	-0.227098	0.999035	0.686035	-0.284668	-0.570313	-0.099887	-0.008055	-0.009669	0.241322	0.722208	0.193407	-0.618686	137.199950	80.746799	-6.873848
62623		-10.399882	-0.432137	-0.602201	-1.449687	0.958267	0.467677	-0.124585	-0.272469	1.099448	0.684326	-0.295654	-0.570313	-0.103965	-0.004897	-0.006161	0.245545	0.722261	0.189430	-0.618193	133.687605	80.408538	-10.356116
62624		-10.685411	-0.191189	-0.992090	-1.091934	1.121275	0.805586	-0.038448	-0.308643	1.212064	0.675781	-0.306885	-0.581055	-0.106824	-0.002561	-0.010085	0.249789	0.722405	0.184654	-0.617770	130.136632	80.000447	-13.941229
62625		-10.895509	0.207990	-1.354395	-0.658724	1.154228	1.087853	0.067536	-0.339112	1.320408	0.674316	-0.324707	-0.576660	-0.108943	0.001365	-0.013728	0.254043	0.722637	0.179187	-0.617373	126.666165	79.519282	-17.501401
62626		-11.222923	0.340071	-1.631916	-0.473337	1.376648	1.439483	0.128127	-0.374297	1.437246	0.667725	-0.331543	-0.581055	-0.112219	0.002605	-0.016527	0.258415	0.722920	0.172984	-0.616997	123.265879	78.956503	-21.041229
62627		-11.314713	0.334342	-2.246015	-0.060657	1.909515	1.568284	0.133101	-0.395258	1.551017	0.659180	-0.344971	-0.583252	-0.113124	0.002481	-0.022682	0.263164	0.723182	0.166390	-0.616496	120.011004	78.308495	-24.433182
62628		-11.387693	0.192422	-2.113437	-0.327707	2.124188	1.569782	0.058374	-0.363467	1.635397	0.655518	-0.364990	-0.585205	-0.113849	0.000999	-0.021341	0.268356	0.723478	0.159678	-0.615685	117.040531	77.572724	-27.508811
62629		-11.776743	0.302118	-1.398824	-0.992541	1.838834	1.865054	-0.017959	-0.340548	1.718227	0.646973	-0.374023	-0.591797	-0.117764	0.002008	-0.014189	0.274083	0.723739	0.152993	-0.614552	114.342159	76.759069	-30.259897
62630		-12.769510	0.363974	-0.609698	-1.878431	1.645551	2.730182	-0.116453	-0.355125	1.812870	0.634277	-0.392090	-0.585205	-0.127710	0.002479	-0.006325	0.280402	0.723845	0.146164	-0.613237	111.793424	75.870470	-32.818336
62631		-13.893911	0.183172	-0.461391	-2.427423	2.083343	3.716853	-0.180377	-0.400887	1.888565	0.623535	-0.409912	-0.589355	-0.138939	0.000515	-0.004893	0.287236	0.723696	0.139252	-0.611857	109.370100	74.926443	-35.209815
62632		-14.306690	-0.465881	-0.887869	-2.635443	3.168118	3.924015	-0.282141	-0.431332	1.990448	0.612793	-0.421143	-0.595947	-0.142991	-0.006095	-0.009179	0.294696	0.723316	0.132153	-0.610331	107.055390	73.907253	-37.448886
62633		-14.947363	-0.734150	-1.049812	-2.909998	3.860289	4.388928	-0.346191	-0.428446	2.123271	0.600342	-0.447998	-0.598145	-0.149361	-0.008946	-0.010804	0.302803	0.722842	0.124829	-0.608463	104.920068	72.793082	-39.464618
62634		-15.206612	-1.635164	-0.994627	-3.637215	4.880630	4.253004	-0.449538	-0.433667	2.261547	0.593994	-0.457031	-0.600098	-0.151846	-0.018092	-0.010236	0.311620	0.722197	0.117226	-0.606286	102.915599	71.581828	-41.303271
62635		-15.588818	-2.655975	-1.472216	-4.048553	6.345436	4.171757	-0.543767	-0.403560	2.407236	0.574463	-0.475098	-0.606689	-0.155523	-0.028474	-0.014961	0.321202	0.721462	0.109482	-0.603602	101.098238	70.268191	-42.890471
62636		-16.771295	-3.315320	-1.570557	-4.791379	7.514580	4.860101	-0.640293	-0.386621	2.593495	0.554932	-0.490967	-0.613281	-0.167233	-0.035375	-0.015918	0.331580	0.720609	0.101299	-0.600429	99.416349	68.832266	-44.297663
62637		-17.982510	-5.199114	-2.068203	-5.934700	9.904571	5.064617	-0.779228	-0.365553	2.742548	0.542480	-0.515625	-0.622070	-0.179051	-0.054531	-0.020801	0.342880	0.719514	0.093077	-0.596716	97.852073	67.297221	-45.496495
62638		-18.902226	-6.742425	-1.995594	-7.307020	11.635962	4.949385	-0.778105	-0.351242	2.900664	0.522705	-0.524902	-0.624268	-0.187982	-0.070234	-0.020017	0.354512	0.718383	0.084226	-0.592582	96.455310	65.660564	-46.537244
62639		-19.781636	-8.217803	-3.097930	-7.733284	14.031538	4.737775	-0.853938	-0.381551	3.053664	0.505615	-0.544922	-0.632813	-0.196471	-0.085317	-0.030995	0.366848	0.716909	0.075037	-0.588076	95.114550	63.928757	-47.471957
62640		-19.516686	-8.680447	-4.356769	-7.173129	15.432175	3.810208	-0.755801	-0.373909	3.211180	0.477051	-0.561035	-0.637207	-0.193656	-0.090087	-0.043594	0.379187	0.715503	0.064996	-0.583137	93.962730	62.099735	-48.272106
62641		-18.321383	-7.269602	-4.550958	-6.145555	14.515202	2.865337	-0.480658	-0.308748	3.389804	0.455078	-0.579102	-0.641602	-0.181875	-0.075896	-0.045611	0.390938	0.714660	0.053611	-0.577542	93.136572	60.158937	-48.894481
62642		-17.515610	-4.346869	-3.834399	-5.142468	12.135877	3.096020	-0.110308	-0.261657	3.561287	0.433350	-0.597412	-0.645996	-0.174295	-0.046599	-0.038547	0.401714	0.714501	0.040634	-0.571370	92.639718	58.117721	-49.393209
62643		-17.604939	-3.782053	-3.044317	-5.731831	11.701620	2.981363	-0.229953	-0.447859	3.582665	0.402344	-0.606689	-0.654785	-0.175265	-0.041000	-0.030790	0.412897	0.713340	0.027520	-0.565602	91.973136	56.063653	-50.023434
62644		-16.034512	-5.558391	-5.931876	-3.987339	14.348929	0.255444	-0.194125	-0.496693	3.420329	0.378418	-0.625000	-0.654785	-0.159215	-0.058371	-0.059659	0.423352	0.711867	0.014795	-0.560178	91.363136	54.102937	-50.625088
62645		-15.608110	-4.033543	-7.284724	-2.145734	14.316747	0.353569	0.457781	-0.380872	3.415911	0.354248	-0.638672	-0.656982	-0.155225	-0.042824	-0.073240	0.431354	0.711881	0.000480	-0.554219	91.264925	52.137900	-51.068695
62646		-13.137335	0.062979	-4.978719	-1.186694	9.422520	0.539904	0.926359	-0.263274	3.333535	0.336914	-0.656982	-0.645996	-0.131296	-0.001328	-0.049963	0.437306	0.713019	-0.014561	-0.547864	91.541945	50.222948	-51.387886
62647		-8.854286	4.242420	-4.784537	2.118982	4.807706	-0.237799	0.811807	-0.026116	3.001112	0.312744	-0.668457	-0.645996	-0.089162	0.041283	-0.047688	0.442676	0.714380	-0.027607	-0.541237	91.919717	48.491330	-51.495626
62648		-6.751876	9.298511	-3.689258	4.145338	0.193918	1.520073	0.175516	0.163296	2.653355	0.299561	-0.677490	-0.648193	-0.068775	0.092111	-0.036756	0.449284	0.714749	-0.037237	-0.534688	92.057577	46.959839	-51.438707
62649		-5.481712	2.989624	-2.585189	0.985924	2.772569	-3.729160	-1.287947	-0.063873	1.740150	0.283936	-0.679932	-0.663574	-0.055065	0.029250	-0.026059	0.458597	0.711278	-0.040222	-0.531182	91.241858	45.950927	-51.538211
62650		-10.059172	-9.883642	-5.536086	-4.275215	14.529370	-9.440740	-1.233008	-0.006253	0.677811	0.283936	-0.679932	-0.674561	-0.100254	-0.099515	-0.054752	0.464840	0.708249	-0.039414	-0.529862	90.518765	45.553617	-51.554895
62651		-5.664271	-11.775424	-2.906004	-5.355234	11.527915	-14.010008	-0.677889	-0.025762	0.110718	0.288574	-0.679688	-0.683350	-0.056574	-0.117883	-0.028668	0.467622	0.706538	-0.038139	-0.529792	90.106342	45.476837	-51.580669
62652		-3.477030	-11.193784	-0.090795	-6.418349	8.223329	-15.158705	-0.586847	-0.144543	-0.444355	0.301758	-0.672852	-0.689941	-0.035018	-0.111862	-0.000605	0.468552	0.704834	-0.035389	-0.531428	89.678867	45.723050	-51.702094
62653		-0.483956	-6.490627	1.188299	-4.064381	3.155703	-13.971605	-0.299329	-0.149332	-0.769607	0.301514	-0.666016	-0.698730	-0.005098	-0.064869	0.011976	0.467628	0.703826	-0.032299	-0.533770	89.406827	46.149842	-51.834165
62654		-0.009202	-4.719887	0.739725	-2.729943	2.207009	-13.053201	0.250649	0.004131	-1.026469	0.312744	-0.668213	-0.685547	-0.000334	-0.047207	0.007338	0.464064	0.704550	-0.029379	-0.536088	89.541003	46.730201	-51.840907
62655		-1.216291	-4.472725	-0.567593	-2.111550	3.565975	-11.964789	0.544889	0.173720	-1.447603	0.326172	-0.663574	-0.687744	-0.012491	-0.044622	-0.005787	0.458373	0.706433	-0.025404	-0.538704	89.947803	47.546598	-51.704172
62656		-2.285441	-3.560296	-1.069089	-1.747116	3.941157	-10.488090	0.455190	0.234354	-1.875261	0.341309	-0.654297	-0.676758	-0.023199	-0.035362	-0.010745	0.451786	0.708284	-0.019500	-0.542072	90.354794	48.613148	-51.501562
62657		-2.707457	-2.624012	-1.150328	-1.421042	3.660486	-9.466538	0.245968	0.224901	-2.291430	0.361328	-0.645020	-0.687500	-0.027386	-0.025913	-0.011505	0.444795	0.709588	-0.011610	-0.546358	90.649589	49.911447	-51.291081
62658		-2.666386	-2.167136	-1.261510	-1.096423	3.421011	-9.111774	0.121176	0.227481	-2.688934	0.385254	-0.629150	-0.681152	-0.026966	-0.021303	-0.012598	0.437056	0.710545	-0.001925	-0.551457	90.896783	51.442892	-51.055402
62659		-2.913064	-2.097776	-1.441822	-1.007248	3.587117	-8.772309	0.150386	0.268635	-3.107576	0.402832	-0.617676	-0.685547	-0.029471	-0.020511	-0.014394	0.428003	0.711523	0.009221	-0.557192	91.215072	53.206883	-50.755055
62660		-3.436014	-2.032226	-1.361194	-1.216095	3.699368	-8.193117	0.168644	0.331535	-3.529862	0.428711	-0.590576	-0.678955	-0.034734	-0.019700	-0.013571	0.417551	0.712510	0.021988	-0.563470	91.638026	55.216886	-50.347212
62661		-4.143594	-2.517642	-1.141616	-1.857819	4.129515	-7.738160	0.150356	0.373870	-3.915111	0.452637	-0.570313	-0.670166	-0.041939	-0.024350	-0.011357	0.405966	0.713278	0.036221	-0.570188	92.146146	57.438465	-49.833511
62662		-5.441688	-3.151251	-0.429885	-3.143249	4.552571	-6.793547	0.155915	0.402744	-4.245239	0.485596	-0.549561	-0.663574	-0.055078	-0.030345	-0.004212	0.393207	0.713791	0.051700	-0.577250	92.777987	59.851816	-49.193012
62663		-7.066979	-3.313971	0.378522	-4.313828	4.634104	-5.232974	0.261623	0.444996	-4.465268	0.509277	-0.524902	-0.663818	-0.071378	-0.031556	0.003902	0.379277	0.714230	0.067676	-0.584333	93.636722	62.378753	-48.377258
62664		-8.551091	-2.186994	0.965339	-4.490916	3.768605	-3.145479	0.490875	0.504091	-4.629529	0.534912	-0.493408	-0.657227	-0.085962	-0.019907	0.009819	0.363789	0.714853	0.083689	-0.591302	94.890976	64.996123	-47.286939
62665		-9.794927	-0.856361	1.439138	-4.305019	2.592553	-1.241058	0.603760	0.537759	-4.761030	0.567871	-0.470459	-0.648438	-0.098078	-0.006274	0.014634	0.347333	0.715320	0.099810	-0.598093	96.541341	67.666845	-45.857022
62666		-10.892432	-0.302160	1.634293	-4.212641	1.973732	0.174419	0.656715	0.543869	-4.895172	0.586670	-0.437012	-0.633301	-0.108911	-0.000410	0.016635	0.330033	0.715407	0.116247	-0.604779	98.682819	70.399938	-43.962204
62667		-11.789653	-0.050580	1.661005	-4.044204	1.525936	1.279880	0.734293	0.523353	-5.019415	0.616943	-0.405518	-0.624512	-0.117817	0.002390	0.016924	0.311929	0.715036	0.132743	-0.611395	101.511975	73.166659	-41.421633
62668		-12.798631	0.075108	1.488689	-3.753044	1.217547	2.452060	0.778608	0.492974	-5.130534	0.635498	-0.367432	-0.620361	-0.127875	0.003974	0.015213	0.293041	0.714108	0.149349	-0.617958	105.416357	75.955558	-37.840127
62669		-13.921083	0.620412	1.389661	-3.231156	0.438811	3.804778	0.774565	0.471780	-5.285178	0.654541	-0.333740	-0.609619	-0.138950	0.009824	0.014258	0.273602	0.712487	0.166402	-0.624351	111.207541	78.736738	-32.355768
62670		-14.890485	0.852061	1.164233	-2.686661	-0.161416	4.901586	0.744906	0.458256	-5.427058	0.677734	-0.297852	-0.598633	-0.148574	0.012511	0.012025	0.253535	0.710156	0.183896	-0.630540	120.754113	81.421191	-23.105812
62671		-15.620895	1.282580	0.744056	-1.776562	-0.927517	5.747931	0.820625	0.475018	-5.500703	0.702881	-0.255371	-0.592285	-0.155760	0.017083	0.007875	0.232861	0.707356	0.201311	-0.636316	138.146228	83.698422	-6.040064
62672		-16.693244	1.365612	0.284246	-1.023348	-1.481070	6.839579	0.922474	0.467065	-5.511350	0.714844	-0.212891	-0.581543	-0.166465	0.018233	0.003309	0.211516	0.704099	0.218256	-0.641771	168.462562	84.918518	23.881896
62673		-17.899271	1.815906	-0.381681	0.159291	-2.330094	8.027988	1.036787	0.446098	-5.488216	0.733643	-0.179443	-0.570801	-0.178412	0.023079	-0.003307	0.189804	0.700364	0.234579	-0.646868	-157.555878	84.345079	57.413377
62674		-19.169952	2.629314	-1.329907	1.836537	-3.446640	9.182600	1.216666	0.447053	-5.431697	0.750000	-0.139160	-0.566650	-0.190919	0.031564	-0.012690	0.167393	0.696335	0.249922	-0.651641	-135.639209	82.389534	78.764408
62675		-20.043911	4.058836	-2.491139	4.080083	-5.018194	9.744958	1.443491	0.504227	-5.336850	0.754883	-0.092529	-0.551514	-0.199319	0.046093	-0.024088	0.144404	0.692256	0.264071	-0.655893	-123.758816	79.852513	89.953737
62676		-19.612626	5.228011	-3.578478	6.092152	-6.256126	8.853663	1.571638	0.585595	-5.243844	0.755859	-0.061523	-0.547363	-0.194764	0.057675	-0.034774	0.121015	0.688122	0.277375	-0.659475	-116.851338	77.092250	96.087242
62677		-19.989356	8.609869	-2.603336	7.495571	-10.536354	7.883883	1.606443	0.559633	-5.112373	0.760986	-0.019287	-0.541016	-0.197673	0.091373	-0.024758	0.097932	0.683612	0.289854	-0.662623	-112.310418	74.307147	99.827928
62678		-20.988775	10.483328	2.701471	4.362907	-15.891561	7.100091	1.157437	0.253511	-4.901776	0.764160	0.011719	-0.530273	-0.207202	0.109774	0.027904	0.077419	0.677699	0.302788	-0.665620	-108.871191	71.633935	102.735599
62679		-20.341523	9.549443	2.801962	4.080538	-15.672827	6.012942	1.037699	0.060767	-4.488621	0.769775	0.040771	-0.532471	-0.201198	0.099879	0.028592	0.058972	0.671345	0.314438	-0.668541	-106.201366	69.184431	104.943722
62680		-19.604259	10.826850	1.704711	5.865695	-16.455386	4.301168	1.314315	-0.035786	-4.036533	0.771240	0.065186	-0.530518	-0.193809	0.112080	0.017741	0.041200	0.665121	0.323491	-0.671767	-103.909757	66.965287	106.607262
62681		-18.619328	14.636327	-1.600651	10.615947	-17.944309	1.531979	1.522076	-0.007745	-3.544374	0.777100	0.083008	-0.528320	-0.183559	0.149748	-0.014883	0.024359	0.659573	0.330058	-0.674857	-102.011676	65.000915	107.736399
62682		-16.999379	20.305427	-4.015473	15.177308	-20.941229	-2.851045	1.273053	0.086452	-2.999505	0.778564	0.103027	-0.528564	-0.166938	0.205823	-0.038778	0.009993	0.654992	0.335592	-0.676951	-100.686967	63.316783	108.403430
62683		-12.857459	25.628580	-3.303037	16.328400	-23.798731	-9.680744	0.319317	0.082865	-2.220423	0.780273	0.116211	-0.528564	-0.125732	0.257744	-0.032567	0.001412	0.651545	0.341723	-0.677284	-100.153596	62.070702	108.804098
62684		-9.514550	27.969130	-2.980685	16.626924	-24.206118	-14.203923	-0.497644	0.082162	-1.087307	0.769043	0.120361	-0.524170	-0.093636	0.280128	-0.030465	-0.000676	0.649969	0.346907	-0.676162	-100.322759	61.461980	108.941897
62685		-11.614904	25.577038	-1.485889	14.699481	-23.924529	-11.497302	-0.772692	0.074427	-0.039273	0.780029	0.123047	-0.528564	-0.116105	0.255733	-0.015804	0.001693	0.650174	0.349601	-0.674574	-100.839903	61.445772	108.863585
62686		-15.749561	21.829471	0.638684	11.871712	-23.889070	-6.158722	-0.470292	0.059738	0.916488	0.771729	0.109375	-0.519775	-0.158492	0.217584	0.005922	0.006336	0.651991	0.348154	-0.673540	-101.365177	61.969391	108.579562
62687		-15.644648	16.588714	-1.766826	11.487600	-18.676272	-3.310200	0.345104	0.137003	1.615468	0.770020	0.091553	-0.526367	-0.157792	0.164646	-0.017276	0.010533	0.655277	0.341674	-0.673618	-101.673989	62.874419	108.014459
62688		-11.075526	-0.100806	0.100029	1.364471	-4.673267	0.136215	0.129236	0.057795	2.336473	0.768311	0.082764	-0.523926	-0.110733	-0.002302	0.001031	0.018019	0.659455	0.333502	-0.673477	-102.228724	64.194058	107.318692
62689		-11.858561	-28.855174	0.832628	-12.684572	17.257793	12.885054	-0.254823	-0.175505	1.667139	0.761719	0.073730	-0.523926	-0.116182	-0.289516	0.008592	0.024885	0.661617	0.328791	-0.673454	-102.607095	65.162283	107.067869
62690		-8.398363	-14.235878	0.258189	-5.849278	7.775127	3.550900	0.989319	0.115607	1.588321	0.762451	0.055908	-0.517334	-0.082848	-0.143030	0.001924	0.026904	0.664737	0.320147	-0.674468	-102.627845	66.052000	106.429024
62691		-13.945023	-0.367871	3.754522	-1.959948	-6.762257	2.801451	1.337903	0.218542	2.042120	0.753906	0.044678	-0.523926	-0.139360	-0.005354	0.037665	0.029112	0.668892	0.308807	-0.675555	-102.743984	67.179762	105.473492
62692		-15.909328	2.163172	3.228776	-0.347975	-9.027057	3.847064	0.868755	0.251441	2.300327	0.756836	0.029297	-0.523682	-0.159286	0.019659	0.032576	0.033720	0.673388	0.298134	-0.675668	-103.325769	68.447287	104.313790
62693		-12.368610	2.423815	-0.179415	2.286044	-6.215735	0.912115	0.317995	0.319973	2.246424	0.753174	0.007080	-0.519287	-0.123951	0.022849	-0.001559	0.039879	0.677843	0.289484	-0.674639	-104.421831	69.666704	102.951218
62694		-13.208099	2.008405	-1.782897	3.434075	-5.240011	2.120806	-0.027738	0.287842	2.207217	0.755859	-0.006348	-0.510254	-0.132317	0.018622	-0.017641	0.047136	0.681978	0.282073	-0.673141	-105.808859	70.861143	101.500621
62695		-14.349995	3.324012	-5.427916	7.172852	-4.879863	3.270195	0.072430	0.419419	2.177810	0.754150	-0.017334	-0.508057	-0.143964	0.031694	-0.053966	0.053744	0.686449	0.274436	-0.671255	-107.527090	72.001426	99.650301
62696		-14.300470	4.182395	-6.241824	8.084481	-5.047387	3.230050	0.327689	0.581292	2.057292	0.748047	-0.033203	-0.503662	-0.143606	0.040451	-0.061934	0.058863	0.691288	0.266348	-0.669115	-109.544366	73.030119	97.344686
62697		-13.460398	1.431105	-1.816005	2.682032	-4.222779	2.895454	-0.072933	0.406938	1.967915	0.752686	-0.039795	-0.501465	-0.134773	0.012979	-0.017891	0.065273	0.695224	0.259847	-0.666995	-111.678749	74.017165	95.168460
62698		-10.687066	1.115964	-0.012070	0.717366	-3.803478	0.211001	-0.291690	0.312769	1.888873	0.748779	-0.057617	-0.499023	-0.106970	0.010150	0.000031	0.072319	0.698610	0.254273	-0.664875	-113.973718	74.962182	92.966500
62699		-9.530336	2.245890	-2.744465	3.535461	-3.131181	-0.807324	-0.181682	0.374050	1.859179	0.753906	-0.068604	-0.501221	-0.095558	0.021547	-0.027286	0.078774	0.702129	0.248455	-0.662631	-116.586999	75.847476	90.379573
62700		-9.855399	0.454716	-2.270956	2.194779	-1.733132	-0.082868	-0.360927	0.263928	1.721223	0.749756	-0.082031	-0.488037	-0.098618	0.003658	-0.022587	0.085556	0.704986	0.243629	-0.660545	-119.256550	76.664904	87.850536
62701		-9.126060	-0.155885	-1.648316	1.276361	-1.178354	-0.701881	-0.575944	0.145066	1.507227	0.743652	-0.093262	-0.496582	-0.091257	-0.002294	-0.016411	0.092502	0.707039	0.240220	-0.658661	-121.826030	77.379615	85.558193
62702		-9.687503	-0.193371	-1.708231	1.223707	-1.120052	-0.114773	-0.544078	0.119341	1.347044	0.743896	-0.102051	-0.489990	-0.096869	-0.002633	-0.017018	0.098859	0.708793	0.237224	-0.656936	-124.370155	78.005092	83.279563
62703		-11.004345	-0.599207	-0.723617	0.055955	-1.367292	1.146515	-0.561088	0.078409	1.198974	0.744385	-0.115234	-0.498779	-0.110008	-0.006672	-0.007175	0.104809	0.710185	0.234798	-0.655379	-126.827055	78.550221	81.104449
62704		-11.036490	-0.557967	-0.796575	0.064795	-1.263101	1.194083	-0.525808	0.090657	1.115422	0.755859	-0.124023	-0.491943	-0.110335	-0.006216	-0.007900	0.110365	0.711515	0.232528	-0.653833	-129.373171	79.036670	78.822208
62705		-10.399342	-0.551314	-1.385721	0.537833	-0.775933	0.650486	-0.426628	0.137098	1.063327	0.749512	-0.133057	-0.494141	-0.103972	-0.006095	-0.013773	0.115315	0.712957	0.230157	-0.652244	-132.064619	79.459348	76.337239
62706		-10.135457	-0.187887	-1.378344	0.649109	-0.951736	0.352668	-0.434899	0.099055	1.040008	0.745361	-0.141846	-0.494141	-0.101350	-0.002436	-0.013728	0.120284	0.714225	0.227845	-0.650769	-134.846045	79.867616	73.769446
62707		-9.887028	-0.750056	-1.497014	0.433293	-0.273528	0.201975	-0.387101	0.043178	1.013963	0.743652	-0.150879	-0.494141	-0.098834	-0.008031	-0.014934	0.125032	0.715281	0.225452	-0.649547	-137.610588	80.263128	71.193736
62708		-9.820647	-1.010069	-1.530855	0.283843	0.070112	0.173428	-0.230199	0.029955	1.003193	0.741455	-0.157471	-0.496338	-0.098156	-0.010611	-0.015282	0.129219	0.716365	0.222551	-0.648532	-140.461564	80.640702	68.442675
62709		-9.694212	-0.921904	-1.492421	0.249105	0.081049	0.035440	-0.126055	0.024162	0.945822	0.737305	-0.162109	-0.496338	-0.096899	-0.009687	-0.014906	0.132826	0.717410	0.219529	-0.647679	-143.281130	80.975070	65.665325
62710		-9.654841	-0.882290	-1.546123	0.270603	0.157275	-0.000128	-0.077738	0.032676	0.860764	0.735596	-0.177490	-0.496094	-0.096512	-0.009244	-0.015442	0.135996	0.718410	0.216637	-0.646885	-146.053548	81.257477	62.910518
62711		-9.832120	-0.280639	-1.773913	0.707123	-0.208891	0.154857	-0.085842	0.015860	0.783823	0.733643	-0.184326	-0.493896	-0.098311	-0.003199	-0.017730	0.138938	0.719248	0.214052	-0.646189	-148.700360	81.501672	60.288922
62712		-9.629351	0.242644	-1.844063	0.999854	-0.536471	-0.071234	-0.090469	-0.004238	0.728565	0.727051	-0.191162	-0.496094	-0.096301	0.002067	-0.018444	0.141761	0.719954	0.211643	-0.645583	-151.291995	81.723691	57.727837
62713		-9.316490	-1.085001	-2.106875	0.571580	0.842520	-0.253593	0.031064	0.020209	0.658258	0.731689	-0.195313	-0.493896	-0.093131	-0.011153	-0.021061	0.143868	0.720735	0.209130	-0.645064	-153.715266	81.896350	55.267316
62714		-9.171991	-1.410412	-1.941790	0.252260	1.115730	-0.401178	0.194930	0.040819	0.599475	0.723145	-0.202148	-0.493896	-0.091681	-0.014360	-0.019413	0.145195	0.721637	0.206293	-0.644672	-155.982251	82.031045	52.871211
62715		-9.238406	-1.360077	-1.950438	0.253885	1.113683	-0.341825	0.342682	0.061799	0.573854	0.720947	-0.204590	-0.491699	-0.092351	-0.013832	-0.019499	0.145859	0.722673	0.203105	-0.644373	-158.149241	82.134472	50.490828
62716		-8.748219	-1.739941	-2.477978	0.551280	1.787484	-0.746268	0.414896	0.103634	0.570495	0.716309	-0.204590	-0.493896	-0.087445	-0.017597	-0.024771	0.146230	0.723890	0.199706	-0.643985	-160.400242	82.203227	47.984823
62717		-8.622587	-1.398276	-2.632195	0.839352	1.607261	-0.871506	0.501620	0.135109	0.574435	0.714355	-0.208984	-0.489502	-0.086203	-0.014164	-0.026299	0.146244	0.725260	0.196052	-0.643563	-162.670400	82.241041	45.409203
62718		-9.183763	0.084460	-1.751151	0.687329	-0.125948	-0.489239	0.572655	0.122662	0.613141	0.710205	-0.215820	-0.487305	-0.091850	0.000613	-0.017453	0.146155	0.726673	0.191999	-0.643211	-165.086987	82.278283	42.645403
62719		-9.538519	0.649678	-1.157696	0.360302	-0.889428	-0.230176	0.550187	0.080035	0.630245	0.710449	-0.222412	-0.485107	-0.095410	0.006228	-0.011521	0.146221	0.727931	0.187940	-0.642974	-167.545038	82.325146	39.852589
62720		-9.753217	0.176029	-0.878851	-0.161353	-0.566442	-0.036112	0.474692	0.064561	0.644913	0.706055	-0.224854	-0.482910	-0.097540	0.001467	-0.008753	0.146640	0.729090	0.184037	-0.642694	-170.147280	82.366147	36.958658
62721		-9.767756	-0.319208	-0.573985	-0.692230	-0.212002	-0.049698	0.395045	0.075782	0.646429	0.699219	-0.222656	-0.489502	-0.097669	-0.003496	-0.005710	0.147322	0.730210	0.180408	-0.642294	-172.806958	82.382944	34.052579
62722		-10.070211	-0.275733	-0.233813	-1.041799	-0.368874	0.203204	0.267091	0.073487	0.656767	0.694824	-0.229492	-0.487305	-0.100693	-0.003085	-0.002305	0.148524	0.731234	0.177131	-0.641765	-175.612273	82.383336	31.074017
62723		-10.271942	-0.500172	-0.260460	-1.177530	-0.111554	0.406481	0.173626	0.062421	0.653534	0.697510	-0.236084	-0.489258	-0.102703	-0.005335	-0.002577	0.150046	0.732135	0.174171	-0.641194	-178.425815	82.370664	28.140714
62724		-10.402516	-0.195652	-0.154987	-1.186570	-0.377233	0.518042	0.124500	0.062160	0.676016	0.695313	-0.238281	-0.489258	-0.104018	-0.002307	-0.001519	0.151837	0.733013	0.171269	-0.640550	178.631232	82.338503	25.105496
62725		-10.365920	0.193630	-0.374888	-0.851159	-0.563063	0.511478	0.063726	0.052279	0.696095	0.690918	-0.240723	-0.489258	-0.103666	0.001577	-0.003721	0.153903	0.733817	0.168494	-0.639873	175.620520	82.290775	22.036349
62726		-10.069361	0.014949	-0.775791	-0.574811	-0.145526	0.269083	0.003692	0.030705	0.718392	0.686523	-0.247314	-0.484863	-0.100694	-0.000212	-0.007742	0.156294	0.734518	0.165794	-0.639193	172.495570	82.231766	18.886635
62727		-9.970197	0.336225	-1.011190	-0.245709	-0.258462	0.207929	-0.027776	0.009933	0.732165	0.684326	-0.247314	-0.489258	-0.099714	0.002996	-0.010107	0.158842	0.735125	0.163142	-0.638549	169.357390	82.160688	15.740885
62728		-9.921152	0.196043	-1.218109	-0.151504	0.028960	0.183674	-0.075119	-0.004956	0.732135	0.684570	-0.251953	-0.487061	-0.099217	0.001593	-0.012184	0.161592	0.735641	0.160611	-0.637907	166.223489	82.074078	12.626627
62729		-10.148313	0.931119	-1.274142	0.160096	-0.540876	0.442067	-0.119549	-0.023978	0.749884	0.680420	-0.258545	-0.489258	-0.101516	0.008923	-0.012759	0.164556	0.736059	0.158154	-0.637280	163.068288	81.972743	9.515469
62730		-10.258001	1.018309	-1.225900	0.108390	-0.565940	0.552338	-0.218156	-0.049828	0.779552	0.687256	-0.260498	-0.495850	-0.102616	0.009770	-0.012295	0.168013	0.736328	0.155863	-0.636631	159.778597	81.855039	6.325075
62731		-10.120926	0.830049	-1.604816	0.347712	-0.144450	0.461316	-0.255074	-0.067596	0.817952	0.678467	-0.269775	-0.489258	-0.101237	0.007866	-0.016093	0.171722	0.736523	0.153546	-0.635979	156.420791	81.713774	3.085826
62732		-9.919968	0.530358	-1.566641	0.177467	0.193426	0.240761	-0.284811	-0.083916	0.848006	0.676514	-0.274170	-0.502441	-0.099214	0.004861	-0.015715	0.175662	0.736652	0.151181	-0.635320	153.018327	81.545401	-0.182249
62733		-9.682862	0.087845	-1.769760	0.162008	0.766457	-0.000288	-0.294936	-0.091505	0.879023	0.676758	-0.280762	-0.491211	-0.096823	0.000427	-0.017743	0.179722	0.736751	0.148738	-0.634646	149.650651	81.345810	-3.411203
62734		-9.849912	0.029985	-1.686679	0.004618	0.871612	0.142516	-0.306535	-0.110827	0.908400	0.677002	-0.287354	-0.506592	-0.098490	-0.000173	-0.016921	0.183945	0.736786	0.146189	-0.633987	146.291624	81.117441	-6.626172
62735		-9.923498	0.050368	-1.614318	-0.095500	0.916349	0.199041	-0.351665	-0.117075	0.959690	0.666016	-0.294189	-0.504395	-0.099226	-0.000001	-0.016202	0.188480	0.736775	0.143599	-0.633260	142.934882	80.848169	-9.815173
62736		-10.114376	0.209548	-1.712141	-0.004763	0.927637	0.405648	-0.380651	-0.129681	1.025972	0.666504	-0.307617	-0.506592	-0.101141	0.001544	-0.017190	0.193350	0.736725	0.140826	-0.632472	139.544339	80.530214	-13.023908
62737		-10.384637	0.069347	-1.568660	-0.276780	1.107111	0.627746	-0.407923	-0.155680	1.100031	0.666748	-0.314209	-0.515381	-0.103836	0.000090	-0.015768	0.198552	0.736590	0.137850	-0.631672	136.135378	80.166266	-16.238981
62738		-10.385014	-0.020629	-1.582769	-0.347529	1.315553	0.603703	-0.426974	-0.183824	1.200888	0.662598	-0.322998	-0.510742	-0.103832	-0.000864	-0.015922	0.204168	0.736391	0.134517	-0.630832	132.668813	79.738915	-19.505023
62739		-10.394916	-0.184994	-1.618423	-0.437566	1.609369	0.575987	-0.446207	-0.209857	1.290090	0.660889	-0.332031	-0.519531	-0.103917	-0.002557	-0.016288	0.210129	0.736113	0.130896	-0.629960	129.245174	79.251060	-22.721219
62740		-10.724344	-0.117153	-1.957577	-0.216346	1.878976	0.924067	-0.434912	-0.224873	1.398635	0.654297	-0.338867	-0.515137	-0.107209	-0.001964	-0.019693	0.216404	0.735833	0.126806	-0.628999	125.899454	78.683614	-25.869988
62741		-11.732512	0.804059	-1.653644	-0.291950	1.180759	2.000463	-0.423497	-0.241608	1.516128	0.650391	-0.352051	-0.517334	-0.117361	0.007116	-0.016694	0.222989	0.735541	0.122233	-0.627945	122.672049	78.034153	-28.911598
62742		-12.388284	0.849923	-1.322685	-0.741852	1.239393	2.590991	-0.477964	-0.253208	1.643230	0.639893	-0.370117	-0.523682	-0.123930	0.007449	-0.013402	0.230177	0.735178	0.117331	-0.626709	119.552405	77.291027	-31.818576
62743		-13.448697	0.593563	-1.111122	-1.317291	1.701057	3.522243	-0.548777	-0.261385	1.780447	0.633545	-0.383545	-0.530273	-0.134518	0.004707	-0.011301	0.238029	0.734726	0.112138	-0.625256	116.570008	76.450536	-34.552266
62744		-14.217994	-0.521466	-1.043038	-2.129211	2.978682	3.974933	-0.552687	-0.288112	1.927089	0.620605	-0.396973	-0.532471	-0.142106	-0.006613	-0.010618	0.246356	0.734196	0.106366	-0.623659	113.733314	75.508388	-37.143550
62745		-14.947411	-0.506071	-1.249609	-2.192792	3.454954	4.626460	-0.523646	-0.284549	2.097066	0.614990	-0.419189	-0.538818	-0.149392	-0.006661	-0.012693	0.255066	0.733719	0.099882	-0.621788	111.128355	74.448426	-39.524063
62746		-15.540539	-0.777243	-0.842737	-2.913753	3.895272	4.990972	-0.558907	-0.273539	2.313952	0.601807	-0.432861	-0.538818	-0.155290	-0.009593	-0.008615	0.264494	0.733251	0.092640	-0.619519	108.707347	73.242051	-41.715028
62747		-16.134386	-2.104886	-1.147924	-3.539651	5.623568	5.083562	-0.569161	-0.253165	2.542133	0.584961	-0.455322	-0.547607	-0.161044	-0.023130	-0.011619	0.274660	0.732809	0.084678	-0.616751	106.510575	71.885516	-43.669713
62748		-17.226165	-2.713818	-1.102279	-4.275959	6.720140	5.739060	-0.491666	-0.214190	2.748184	0.572021	-0.470947	-0.552002	-0.171855	-0.029529	-0.011136	0.285063	0.732552	0.075690	-0.613496	104.620662	70.388293	-45.372953
62749		-18.398253	-2.956601	-1.417624	-4.595979	7.778733	6.545476	-0.491044	-0.157582	2.937558	0.548096	-0.489258	-0.554199	-0.183510	-0.032299	-0.014244	0.296009	0.732377	0.066141	-0.609613	103.002923	68.762935	-46.792811
62750		-19.877355	-3.683454	-1.740858	-5.257636	9.387996	7.388957	-0.615823	-0.099449	3.099826	0.528809	-0.516113	-0.553955	-0.198162	-0.039963	-0.017387	0.307766	0.732077	0.056382	-0.605115	101.562638	67.026705	-47.970222
62751		-21.510610	-5.981504	-2.230085	-6.594793	12.450568	7.648829	-0.788169	-0.060485	3.230145	0.511719	-0.536377	-0.564941	-0.214095	-0.063366	-0.022121	0.320506	0.731465	0.046779	-0.600038	100.226413	65.203164	-48.931387
62752		-22.708391	-8.060060	-3.086160	-7.460297	15.417702	7.413454	-0.986055	-0.035676	3.343368	0.489746	-0.550049	-0.571533	-0.225687	-0.084532	-0.030492	0.334153	0.730425	0.037321	-0.594498	98.942162	63.305491	-49.733557
62753		-22.736255	-10.202054	-4.443723	-7.658395	18.277344	5.934820	-1.309176	0.022136	3.412342	0.468018	-0.568115	-0.582275	-0.225580	-0.106167	-0.043726	0.349123	0.728790	0.028717	-0.588349	97.662663	61.356128	-50.324780
62754		-20.845056	-10.762735	-4.882178	-7.358901	18.639298	3.322959	-1.549450	0.085398	3.441718	0.437500	-0.588623	-0.588867	-0.206574	-0.111566	-0.047879	0.364861	0.726673	0.020761	-0.581714	96.422404	59.382036	-50.733910
62755		-18.445253	-8.353669	-3.607429	-6.930685	15.545485	1.731936	-1.890256	0.046224	3.424133	0.424561	-0.599854	-0.608643	-0.182991	-0.087014	-0.035220	0.381716	0.723544	0.013833	-0.574966	95.050854	57.414266	-51.065866
62756		-16.915416	-3.120555	-2.902637	-4.919175	11.134966	2.680219	-1.783649	-0.051436	3.513519	0.395996	-0.615967	-0.624023	-0.168561	-0.034428	-0.028772	0.398231	0.720065	0.006040	-0.568226	93.742132	55.399500	-51.413720
62757		-17.140757	-1.970210	-4.927287	-3.107697	12.029317	3.131949	-1.743724	-0.291367	3.487325	0.373779	-0.623047	-0.639404	-0.170952	-0.023116	-0.049331	0.414450	0.715699	-0.002208	-0.562141	92.351085	53.399848	-51.888658
62758		-15.972528	-3.247523	-7.350991	-1.571811	14.143685	1.011149	-1.204443	-0.284015	3.434590	0.349854	-0.641113	-0.648193	-0.159027	-0.035653	-0.073528	0.428416	0.712217	-0.011743	-0.555939	91.358603	51.429095	-52.263799
62759		-13.401067	0.160087	-5.600577	-0.654784	10.009442	0.691732	-0.715250	-0.107423	3.371986	0.330078	-0.654785	-0.663574	-0.133980	-0.000859	-0.056078	0.440365	0.710045	-0.022057	-0.549025	90.820281	49.485227	-52.423072
62760		-8.484508	2.714340	-4.196874	1.145067	5.340534	-1.619472	-0.749279	0.114696	2.902047	0.305664	-0.661865	-0.674561	-0.085250	0.025751	-0.042018	0.451023	0.708281	-0.030085	-0.542228	90.438076	47.813343	-52.354110
62761		-4.368237	7.295904	-3.455122	4.181631	0.220141	-1.645062	-1.358527	0.160489	2.283665	0.294678	-0.666260	-0.689941	-0.044538	0.072217	-0.035008	0.462106	0.705206	-0.034193	-0.536631	89.747751	46.491325	-52.226287
62762		-6.792153	-7.819052	-4.147630	-3.183327	10.677677	-10.379481	-2.254114	-0.010304	1.286297	0.292969	-0.677246	-0.707520	-0.067413	-0.079086	-0.040592	0.473531	0.699663	-0.032739	-0.534011	88.456271	45.745711	-52.220109
62763		-7.972852	-13.418766	-4.647656	-6.036350	14.642916	-13.604053	-1.146560	0.160697	0.521507	0.283936	-0.673096	-0.720703	-0.079415	-0.134658	-0.045642	0.479047	0.697237	-0.031189	-0.532355	87.894859	45.436468	-52.078511
62764		-4.456599	-16.062576	-0.205372	-9.297069	11.233395	-17.892563	-0.546933	0.085415	-0.155881	0.292725	-0.668457	-0.720703	-0.044692	-0.160596	-0.001595	0.480611	0.696151	-0.029017	-0.532489	87.622640	45.519857	-52.014945
62765		-1.024731	-12.481843	0.977206	-7.092371	6.656951	-17.761536	0.029820	0.154499	-0.628825	0.303711	-0.661621	-0.722900	-0.010632	-0.124787	0.009762	0.478949	0.696681	-0.026604	-0.533418	87.707286	45.869908	-51.912669
62766		1.414874	-9.792491	-0.095491	-3.954317	4.630433	-17.611719	0.772978	0.363196	-1.056195	0.308105	-0.663574	-0.718506	0.013629	-0.097993	-0.001359	0.473535	0.699601	-0.024143	-0.534547	88.339874	46.474976	-51.643852
62767		0.771846	-9.393410	-1.583182	-2.869979	5.838605	-16.813336	1.282239	0.521520	-1.515761	0.321289	-0.656982	-0.700928	0.006964	-0.093885	-0.016453	0.465134	0.704138	-0.021100	-0.536092	89.366874	47.335752	-51.235842
62768		-1.364025	-7.252415	-1.361366	-2.912163	5.746385	-13.660657	1.366778	0.536290	-2.044538	0.341064	-0.647705	-0.685547	-0.014417	-0.072284	-0.014070	0.454917	0.708890	-0.016342	-0.538755	90.482985	48.501137	-50.781560
62769		-2.814143	-4.614630	-0.787240	-2.715961	4.657550	-10.686132	0.929846	0.448370	-2.558170	0.363037	-0.634033	-0.685547	-0.028746	-0.045744	-0.008022	0.444823	0.712318	-0.008826	-0.542824	91.331327	49.949220	-50.357468
62770		-3.160692	-3.516887	-0.696023	-2.405226	4.122797	-9.570771	0.439448	0.363903	-3.042501	0.380615	-0.624756	-0.678955	-0.032150	-0.034667	-0.006979	0.435018	0.714310	0.001604	-0.548195	91.893010	51.679868	-49.952328
62771		-3.608928	-3.669592	-0.958849	-2.446986	4.579533	-9.144143	0.142092	0.360438	-3.519583	0.415771	-0.601807	-0.683350	-0.036745	-0.036046	-0.009548	0.424893	0.715433	0.014501	-0.554446	92.332602	53.674144	-49.494917
62772		-4.645065	-3.409516	-0.610670	-2.974384	4.615710	-7.963850	0.034746	0.394704	-3.955403	0.439697	-0.585938	-0.670166	-0.047125	-0.033167	-0.006020	0.413747	0.716153	0.029368	-0.561316	92.810666	55.922298	-48.929181
62773		-5.638027	-2.567941	0.027369	-3.365570	3.983244	-6.468565	-0.092362	0.416286	-4.300087	0.472656	-0.565430	-0.672363	-0.056914	-0.024459	0.000403	0.401955	0.716303	0.045811	-0.568546	93.319281	58.356559	-48.254121
62774		-6.779162	-2.370276	0.678515	-4.083277	3.724990	-5.178271	-0.160055	0.444679	-4.582625	0.493896	-0.531738	-0.672607	-0.068295	-0.022136	0.006955	0.389348	0.715988	0.063542	-0.575961	93.939243	60.955493	-47.424713
62775		-8.317628	-2.446884	1.395488	-5.057752	3.644919	-3.629121	-0.086035	0.466831	-4.841872	0.530762	-0.502197	-0.661621	-0.083703	-0.022441	0.014160	0.375556	0.715391	0.081946	-0.583488	94.787934	63.688207	-46.404617
62776		-10.099643	-2.011579	1.737374	-5.437876	3.378244	-1.562688	0.127419	0.494561	-5.028021	0.556641	-0.472900	-0.659424	-0.101416	-0.017581	0.017612	0.360165	0.714769	0.100447	-0.591014	96.047488	66.524612	-45.092083
62777		-11.850665	-0.888148	2.189961	-5.383046	2.362622	0.743490	0.371434	0.503340	-5.182203	0.584961	-0.447998	-0.659668	-0.118629	-0.005850	0.022185	0.343259	0.714060	0.118677	-0.598504	97.838944	69.424471	-43.383697
62778		-12.965424	0.203241	2.314082	-4.806853	1.243381	2.386018	0.473014	0.472582	-5.285010	0.608154	-0.412109	-0.648682	-0.129486	0.005401	0.023457	0.325409	0.712883	0.136888	-0.605944	100.246583	72.368416	-41.118550
62779		-13.613020	1.226836	1.718084	-3.517896	0.408029	3.498393	0.448273	0.445297	-5.364570	0.631104	-0.364990	-0.640137	-0.135698	0.015873	0.017516	0.307248	0.711017	0.155262	-0.613145	103.526091	75.312156	-37.966843
62780		-14.451016	1.544933	1.511904	-2.923819	-0.203662	4.500327	0.404577	0.462948	-5.446953	0.649902	-0.333740	-0.635986	-0.143983	0.019345	0.015489	0.288694	0.708549	0.174030	-0.619941	108.491716	78.237428	-33.101007
62781		-15.085558	1.093245	0.735415	-2.266938	0.025253	5.157714	0.549229	0.542761	-5.485637	0.675293	-0.293457	-0.625000	-0.150460	0.015042	0.007800	0.269277	0.705973	0.192417	-0.626154	116.966374	81.012140	-24.802644
62782		-15.714886	0.793085	0.248859	-1.712927	-0.118358	5.828190	0.852442	0.618380	-5.516780	0.689941	-0.262207	-0.609863	-0.156842	0.012248	0.003020	0.248355	0.703459	0.209970	-0.631963	132.826892	83.421069	-9.288013
62783		-16.870877	0.526850	-0.371980	-1.055993	-0.284537	7.032827	1.283258	0.691602	-5.545867	0.708252	-0.215332	-0.590332	-0.168487	0.009964	-0.003083	0.225607	0.701126	0.226135	-0.637485	161.827172	84.841337	19.123305
62784		-17.973228	0.534368	-1.165264	-0.030759	-0.704952	8.189910	1.841061	0.773340	-5.567404	0.720215	-0.177490	-0.572998	-0.179532	0.010446	-0.010878	0.200441	0.699077	0.240490	-0.642868	-162.719735	84.405360	53.658840
62785		-19.448038	1.791712	-2.029534	1.821959	-2.283168	9.601544	2.386811	0.826661	-5.567480	0.729736	-0.137451	-0.566650	-0.193958	0.023556	-0.019234	0.173236	0.697111	0.252938	-0.648111	-139.160647	82.413448	75.996331
62786		-20.571174	3.559455	-2.747080	3.878774	-4.525231	10.379734	2.732616	0.842054	-5.570437	0.739502	-0.101807	-0.547119	-0.204719	0.041669	-0.026066	0.144519	0.694835	0.264037	-0.653148	-126.089565	79.729689	87.633135
62787		-21.347588	7.442199	-3.248601	6.868791	-8.710971	10.148230	2.938254	0.757492	-5.521475	0.747314	-0.070557	-0.534180	-0.211423	0.080736	-0.030527	0.115330	0.691809	0.273987	-0.658051	-118.100074	76.827502	94.076400
62788		-21.926169	10.090517	2.203179	3.987683	-14.921381	8.861913	2.587115	0.364428	-5.370272	0.754639	-0.032715	-0.530029	-0.216411	0.106442	0.023781	0.088232	0.686830	0.284129	-0.663137	-112.316838	73.958731	98.524059
62789		-22.009375	10.350945	2.703006	3.958677	-16.290008	8.011747	2.335977	0.066112	-4.943337	0.758301	-0.008301	-0.523438	-0.217442	0.108580	0.028351	0.063814	0.680816	0.293233	-0.668156	-107.983759	71.299418	101.666532
62790		-21.684712	11.998715	2.255923	5.345566	-18.071383	6.436559	2.346825	-0.191416	-4.441951	0.766113	0.020508	-0.517090	-0.214138	0.124489	0.023797	0.041326	0.674196	0.300344	-0.673458	-104.389778	68.892927	104.063124
62791		-19.493097	14.066128	-1.737809	9.742711	-17.791468	3.199232	2.592004	-0.301314	-3.965837	0.771973	0.040527	-0.519287	-0.192064	0.144701	-0.015811	0.019797	0.667590	0.304792	-0.678994	-101.260927	66.729238	105.843868
62792		-18.347463	18.804783	-6.699693	16.073989	-19.604481	-0.204192	2.372936	-0.150657	-3.453382	0.780029	0.067383	-0.515137	-0.180133	0.191956	-0.064871	0.000469	0.661907	0.308159	-0.683313	-98.941823	64.805529	106.901188
62793		-14.737820	24.788991	-9.191374	20.224212	-22.306627	-6.729326	0.839118	0.029206	-2.890024	0.781738	0.083008	-0.515137	-0.143786	0.250368	-0.090846	-0.012107	0.657501	0.314779	-0.684441	-97.998846	63.178971	107.421642
62794		-9.765605	27.909715	-8.398144	20.134525	-22.959220	-13.318198	-0.969079	0.118686	-2.101644	0.785645	0.093994	-0.513184	-0.094769	0.279692	-0.085279	-0.016194	0.654627	0.324945	-0.682358	-98.356172	61.988721	107.650628
62795		-9.600261	25.395608	-4.692393	16.031669	-22.187748	-12.941071	-1.776923	0.198526	-1.214004	0.787598	0.100830	-0.506592	-0.094508	0.254103	-0.049087	-0.014721	0.653460	0.334903	-0.678685	-99.387951	61.297660	107.641501
62796		-11.716726	21.113661	-1.343023	11.853954	-21.076428	-9.447788	-1.438859	0.183891	-0.251610	0.785400	0.103027	-0.508789	-0.116915	0.211180	-0.014842	-0.011061	0.653775	0.340543	-0.675638	-100.361648	61.151281	107.477784
62797		-13.246403	18.201170	0.614327	9.223859	-20.324586	-6.819984	-0.487229	0.163426	0.725074	0.781250	0.089600	-0.506592	-0.133118	0.181544	0.005809	-0.007177	0.655605	0.339763	-0.674308	-100.954922	61.555975	107.126283
62798		-15.803321	17.033511	0.861529	8.804172	-20.657014	-3.780305	0.160525	0.234242	1.635961	0.779541	0.076172	-0.508545	-0.159409	0.169028	0.008937	-0.002511	0.659205	0.333728	-0.673846	-101.460115	62.465087	106.446783
62799		-11.726091	11.065163	-4.716448	10.489530	-11.680719	-3.837378	0.404219	0.402222	2.089584	0.773682	0.058350	-0.510742	-0.118503	0.109513	-0.046705	0.002646	0.664025	0.325409	-0.673181	-102.159034	63.603612	105.409123
62800		-9.281152	-13.998336	0.715965	-5.734010	6.871652	4.417404	-0.407680	0.128323	2.211792	0.767822	0.036133	-0.508301	-0.091251	-0.140983	0.007505	0.011320	0.668067	0.319297	-0.672017	-103.124110	64.841378	104.593701
62801		-11.192891	-25.891592	5.025704	-14.772943	13.930844	10.400852	0.038649	-0.055407	1.633883	0.765869	0.029297	-0.512695	-0.109823	-0.259829	0.050176	0.016889	0.670489	0.313650	-0.672148	-103.510033	65.773412	104.150780
62802		-10.868481	-7.357522	5.297711	-6.927150	-0.624512	2.513695	1.212073	0.257523	1.787429	0.759277	0.020264	-0.503906	-0.107952	-0.074862	0.052665	0.018504	0.674271	0.303470	-0.672995	-103.697324	66.750238	103.183958
62803		-17.482488	3.334382	5.613401	-2.143311	-11.718381	4.551652	0.997431	0.321799	2.213743	0.746826	-0.001953	-0.506104	-0.175087	0.031125	0.056575	0.022221	0.678772	0.292611	-0.673167	-104.296536	67.950166	101.921579
62804		-17.448615	3.085082	0.971891	1.679639	-9.233465	5.247990	0.426540	0.329320	2.293643	0.747314	-0.017578	-0.505859	-0.174808	0.028826	0.010069	0.028147	0.683255	0.283344	-0.672374	-105.382161	69.188786	100.498966
62805		-13.729480	1.862317	-3.597821	4.838800	-4.748570	2.794477	0.106940	0.465245	2.148659	0.748047	-0.033203	-0.499268	-0.137568	0.017165	-0.035649	0.034464	0.687851	0.275644	-0.670592	-106.952417	70.310801	98.766048
62806		-14.126600	0.918024	-5.780629	6.242745	-2.964757	3.827308	0.117063	0.514676	2.169060	0.739014	-0.037842	-0.490479	-0.141503	0.007680	-0.057438	0.040764	0.692561	0.267795	-0.668568	-108.805365	71.420300	96.740001
62807		-14.069684	4.110013	-5.777028	7.390970	-5.495135	2.969764	0.620760	0.660338	2.127506	0.735352	-0.055664	-0.494629	-0.141314	0.039777	-0.057180	0.044958	0.697709	0.258420	-0.666633	-110.819418	72.452736	94.253475
62808		-15.442510	2.983845	0.324876	1.204637	-7.228062	4.107590	0.111489	0.428794	2.138601	0.735840	-0.066650	-0.485840	-0.154725	0.028183	0.003596	0.051286	0.701903	0.250596	-0.664758	-113.013127	73.515338	91.898986
62809		-12.033686	1.311567	0.591821	0.053798	-4.690847	1.361714	-0.278732	0.365879	2.180439	0.729492	-0.080078	-0.488037	-0.120459	0.011811	0.006121	0.059168	0.705746	0.243897	-0.662523	-115.658274	74.580943	89.320010
62810		-9.073348	2.529370	-3.857393	4.472602	-2.984632	-1.170544	-0.101702	0.531208	2.172019	0.720947	-0.091553	-0.481445	-0.091103	0.024286	-0.038345	0.066219	0.710095	0.236635	-0.659837	-118.897594	75.565336	86.034367
62811		-9.486260	0.436532	-2.768025	2.470632	-1.536740	-0.358987	-0.324053	0.346468	2.061836	0.721436	-0.102539	-0.483643	-0.094948	0.003342	-0.027522	0.073876	0.713537	0.230432	-0.657501	-122.208047	76.495152	82.820311
62812		-8.335325	2.043262	-2.209207	2.587217	-2.767752	-1.801647	-0.476426	0.187483	1.783767	0.719727	-0.115967	-0.483398	-0.083551	0.019635	-0.022061	0.081370	0.716016	0.225614	-0.655590	-125.345469	77.302027	79.885816
62813		-9.673964	1.186056	-1.681913	1.618665	-2.380561	-0.350562	-0.610555	0.073213	1.551330	0.719727	-0.120361	-0.481201	-0.096834	0.011058	-0.016818	0.088673	0.717738	0.222029	-0.653982	-128.314649	78.001001	77.210269
62814		-10.889904	0.694978	-0.934469	0.609027	-2.363315	0.863831	-0.683771	-0.000458	1.366988	0.720215	-0.129150	-0.483398	-0.108943	0.006173	-0.009367	0.095745	0.718943	0.219270	-0.652590	-131.178428	78.619645	74.692388
62815		-11.367418	-0.709573	-0.982743	-0.060064	-1.052544	1.570375	-0.616302	0.026582	1.273900	0.724854	-0.133545	-0.485596	-0.113627	-0.007850	-0.009789	0.102203	0.720118	0.216654	-0.651188	-134.148665	79.158024	72.031064
62816		-11.364007	0.159728	-1.002771	0.272386	-1.681210	1.468683	-0.531472	0.061759	1.217049	0.720703	-0.142334	-0.489746	-0.113650	0.000879	-0.009996	0.108161	0.721361	0.213945	-0.649744	-137.318797	79.634754	69.122123
62817		-10.514263	0.008250	-1.376633	0.524086	-1.122768	0.718613	-0.522358	0.074650	1.142243	0.723145	-0.148926	-0.489746	-0.105146	-0.000554	-0.013726	0.113791	0.722531	0.211503	-0.648280	-140.580606	80.043432	66.118166
62818		-9.347155	-1.410450	-1.764528	0.244253	0.590247	-0.217731	-0.388409	0.089223	1.073735	0.719238	-0.160156	-0.487549	-0.093402	-0.014640	-0.017576	0.118730	0.723733	0.208845	-0.646914	-143.887178	80.393868	62.995104
62819		-9.062223	-2.601717	-1.906939	-0.207717	1.836510	-0.372743	0.068949	0.167499	1.029471	0.721680	-0.168945	-0.489746	-0.090503	-0.026477	-0.019003	0.121750	0.725383	0.204937	-0.645754	-147.149726	80.658789	59.653137
62820		-9.303741	-2.534448	-1.925509	-0.229640	1.827338	-0.153590	0.637804	0.297604	0.975052	0.717285	-0.166992	-0.483154	-0.092941	-0.025736	-0.019198	0.122428	0.727727	0.199433	-0.644711	-150.349696	80.815168	56.047080
62821		-9.773262	-0.480829	-2.051883	0.711766	0.054375	0.159675	0.824197	0.282517	0.910961	0.722412	-0.184570	-0.478516	-0.097738	-0.005169	-0.020402	0.122198	0.730037	0.193574	-0.643928	-153.287834	80.927917	52.598694
62822		-9.731941	0.470352	-2.394251	1.386251	-0.590431	0.106667	0.677528	0.213780	0.864868	0.715820	-0.191406	-0.471924	-0.097364	0.004363	-0.023823	0.122450	0.731972	0.188278	-0.643253	-156.157418	81.039319	49.306619
62823		-9.353861	0.735533	-2.524136	1.606447	-0.677799	-0.254104	0.493189	0.162455	0.818359	0.720703	-0.200195	-0.465332	-0.093588	0.007035	-0.025148	0.123239	0.733558	0.183737	-0.642608	-158.943872	81.140177	46.205818
62824		-8.907122	-0.238285	-2.719637	1.371727	0.384229	-0.606143	0.333014	0.121993	0.773234	0.716309	-0.204834	-0.465332	-0.089078	-0.002682	-0.027146	0.124538	0.734866	0.179818	-0.641971	-161.708851	81.232376	43.221208
62825		-8.623234	-1.051186	-2.599368	0.918801	1.150064	-0.865353	0.277387	0.096310	0.712653	0.714355	-0.211426	-0.467529	-0.086207	-0.010783	-0.025967	0.125835	0.735982	0.176310	-0.641413	-164.281647	81.305728	40.463166
62826		-9.100176	-0.910170	-1.972877	0.331812	0.769586	-0.494360	0.294040	0.068574	0.685518	0.709961	-0.216064	-0.463135	-0.090977	-0.009385	-0.019711	0.127038	0.736993	0.172800	-0.640970	-166.794652	81.372904	37.757253
62827		-9.657470	-0.583611	-1.381600	-0.157755	0.234939	-0.043564	0.333022	0.042224	0.676125	0.705811	-0.222656	-0.467529	-0.096557	-0.006140	-0.013806	0.128056	0.737916	0.169209	-0.640663	-169.232844	81.435317	35.104094
62828		-9.973945	0.142640	-0.875642	-0.381062	-0.600083	0.175357	0.349276	0.027594	0.658058	0.704102	-0.233887	-0.462891	-0.099745	0.001113	-0.008741	0.128999	0.738786	0.165593	-0.640417	-171.651680	81.487872	32.462266
62829		-10.204420	0.071850	-0.785595	-0.548819	-0.531830	0.393592	0.310689	0.016705	0.635213	0.699463	-0.231689	-0.467529	-0.102046	0.000407	-0.007847	0.129987	0.739558	0.162203	-0.640194	-173.992937	81.528399	29.920776
62830		-10.043646	-0.115893	-0.653313	-0.750667	-0.342538	0.218960	0.154382	-0.004368	0.606942	0.697510	-0.238525	-0.458496	-0.100432	-0.001459	-0.006536	0.131509	0.740137	0.159374	-0.639924	-176.363442	81.564204	27.441279
62831		-10.000321	-0.078386	-0.742611	-0.671058	-0.281746	0.189016	-0.009004	-0.036881	0.564367	0.695557	-0.247314	-0.469482	-0.099999	-0.001066	-0.007445	0.133493	0.740456	0.157231	-0.639675	-178.641428	81.602878	25.149408
62832		-9.966024	0.265968	-0.669809	-0.612368	-0.567107	0.144428	-0.187835	-0.061984	0.546840	0.695557	-0.249512	-0.471680	-0.099665	0.002381	-0.006731	0.136133	0.740562	0.155679	-0.639375	178.992561	81.642020	22.873115
62833		-10.002130	0.657313	-0.620499	-0.520341	-0.889368	0.177191	-0.307428	-0.066418	0.561602	0.684570	-0.254150	-0.471680	-0.100037	0.006283	-0.006248	0.139233	0.740569	0.154477	-0.638991	176.515946	81.669795	20.553731
62834		-10.206174	0.520606	-0.723549	-0.528500	-0.671495	0.396621	-0.360292	-0.067539	0.588999	0.680420	-0.260986	-0.473877	-0.102074	0.004892	-0.007279	0.142648	0.740554	0.153312	-0.638535	173.855324	81.681186	18.079855
62835		-10.210933	0.647360	-0.830789	-0.400409	-0.679365	0.422068	-0.369082	-0.051107	0.615064	0.677979	-0.258789	-0.478271	-0.102126	0.006144	-0.008346	0.146131	0.740589	0.152116	-0.637992	171.131119	81.665274	15.546050
62836		-10.284740	0.578819	-1.041865	-0.270525	-0.464714	0.526889	-0.430737	-0.066294	0.634165	0.676025	-0.260986	-0.484863	-0.102862	0.005440	-0.010465	0.149946	0.740540	0.151005	-0.637428	168.268192	81.637132	12.908337
62837		-10.126721	0.435229	-1.300326	-0.096920	-0.151359	0.404847	-0.499231	-0.074982	0.639207	0.676270	-0.267578	-0.484863	-0.101275	0.003996	-0.013052	0.154002	0.740397	0.150112	-0.636837	165.396945	81.595269	10.300908
62838		-10.136917	0.416445	-1.528570	0.075317	0.034212	0.446929	-0.503153	-0.068614	0.653753	0.671631	-0.267578	-0.484863	-0.101377	0.003795	-0.015330	0.158144	0.740275	0.149152	-0.636190	162.477564	81.527048	7.647451
62839		-9.904225	0.247241	-1.863054	0.313642	0.406635	0.255162	-0.507215	-0.080320	0.640378	0.671875	-0.271973	-0.495850	-0.099042	0.002108	-0.018676	0.162232	0.740083	0.148271	-0.635590	159.671035	81.449923	5.109222
62840		-9.900742	0.522518	-1.663482	0.230314	0.145788	0.236698	-0.525489	-0.086877	0.643487	0.671875	-0.269775	-0.500244	-0.099016	0.004863	-0.016691	0.166431	0.739849	0.147400	-0.634978	156.855887	81.355461	2.573011
62841		-9.851431	0.514852	-1.689870	0.236731	0.237306	0.190243	-0.519896	-0.101639	0.643386	0.665527	-0.281006	-0.504639	-0.098521	0.004788	-0.016962	0.170585	0.739554	0.146525	-0.634421	154.113553	81.252508	0.105837
62842		-9.714095	0.238350	-1.715854	0.139254	0.570013	0.037180	-0.501707	-0.098318	0.642781	0.665771	-0.287598	-0.506592	-0.097139	0.002028	-0.017212	0.174696	0.739277	0.145566	-0.633847	151.426107	81.128219	-2.316390
62843		-9.593875	0.136039	-1.846143	0.206044	0.789352	-0.075992	-0.466041	-0.093761	0.651586	0.661133	-0.285400	-0.510986	-0.095934	0.001005	-0.018509	0.178665	0.739033	0.144492	-0.633270	148.842921	80.984676	-4.655348
62844		-9.729531	0.559345	-1.624297	0.150679	0.385064	0.058663	-0.434714	-0.074931	0.673722	0.656982	-0.292236	-0.510986	-0.097307	0.005230	-0.016291	0.182602	0.738885	0.143223	-0.632608	146.304292	80.806511	-6.967721
62845		-10.171337	0.833343	-1.294700	-0.114314	0.076015	0.473586	-0.404798	-0.086341	0.735328	0.663818	-0.296387	-0.519775	-0.101737	0.007933	-0.013007	0.186598	0.738754	0.141646	-0.631950	143.707464	80.600025	-9.358372
62846		-10.031463	0.385832	-1.651110	-0.005264	0.715426	0.335849	-0.389907	-0.096423	0.795103	0.657471	-0.303223	-0.519775	-0.100321	0.003427	-0.016566	0.190762	0.738637	0.139762	-0.631262	141.028557	80.356707	-11.841785
62847		-10.357389	0.123704	-1.672892	-0.189209	1.057708	0.624460	-0.371294	-0.088229	0.869516	0.655273	-0.305420	-0.521973	-0.103570	0.000756	-0.016776	0.195051	0.738594	0.137576	-0.630481	138.348216	80.066382	-14.340107
62848		-10.490323	-0.680428	-1.609994	-0.664763	1.843755	0.640047	-0.353992	-0.119092	0.947951	0.657959	-0.316406	-0.526367	-0.104860	-0.007330	-0.016150	0.199570	0.738510	0.134986	-0.629725	135.563107	79.735158	-16.956647
62849		-10.615549	-0.258986	-2.039154	-0.160679	1.783317	0.850702	-0.320776	-0.116053	1.056417	0.651611	-0.325439	-0.523926	-0.106128	-0.003183	-0.020448	0.204269	0.738516	0.131916	-0.628861	132.769497	79.339567	-19.604831
62850		-10.764101	-0.141346	-1.513729	-0.639573	1.562497	0.926274	-0.319553	-0.123095	1.183500	0.647217	-0.330078	-0.526123	-0.107621	-0.002075	-0.015201	0.209389	0.738562	0.128335	-0.627863	129.905672	78.865294	-22.328419
62851		-10.896278	0.021239	-0.891794	-1.184564	1.268227	0.981349	-0.291350	-0.132262	1.324699	0.647705	-0.338867	-0.532715	-0.108955	-0.000522	-0.008990	0.214817	0.738663	0.124156	-0.626750	127.046946	78.309365	-25.068709
62852		-11.306338	0.030803	-0.672510	-1.505061	1.340703	1.332778	-0.251254	-0.158748	1.477938	0.636963	-0.350098	-0.541504	-0.113056	-0.000536	-0.006815	0.220608	0.738783	0.119224	-0.625553	124.172636	77.660938	-27.853819
62853		-11.513803	-0.199337	-1.145832	-1.300211	1.955032	1.518889	-0.233794	-0.175727	1.614766	0.628418	-0.365723	-0.537109	-0.115107	-0.002936	-0.011556	0.226732	0.738900	0.113731	-0.624247	121.392443	76.927673	-30.560627
62854		-11.855108	-0.060901	-1.515853	-1.054820	2.236927	1.880253	-0.224262	-0.174905	1.752990	0.624268	-0.372559	-0.537109	-0.118526	-0.001665	-0.015261	0.233261	0.739056	0.107667	-0.622731	118.750577	76.094804	-33.138880
62855		-12.431927	-0.109178	-1.817078	-1.014314	2.705999	2.414759	-0.250549	-0.156106	1.886134	0.615967	-0.392578	-0.541260	-0.124287	-0.002287	-0.018265	0.240244	0.739244	0.101228	-0.620930	116.307593	75.167046	-35.506648
62856		-13.816644	0.594075	-1.893166	-1.022244	2.583028	3.866226	-0.309612	-0.166220	2.040249	0.605225	-0.403809	-0.539063	-0.138201	0.004502	-0.019054	0.247929	0.739334	0.094359	-0.618880	113.964487	74.134698	-37.746028
62857		-14.919161	0.107273	-2.243893	-1.292657	3.641660	4.771056	-0.425084	-0.179399	2.218343	0.592529	-0.424072	-0.547852	-0.149171	-0.000630	-0.022573	0.256544	0.739234	0.087183	-0.616537	111.695673	72.991677	-39.851574
62858		-15.338906	-0.867438	-2.742288	-1.529604	5.116471	4.851017	-0.538498	-0.141680	2.414163	0.579834	-0.439941	-0.545410	-0.153249	-0.010599	-0.027505	0.266150	0.739084	0.079649	-0.613657	109.582499	71.710955	-41.738866
62859		-16.146751	-1.662757	-2.542262	-2.411740	6.209310	5.205873	-0.640392	-0.093670	2.619808	0.567139	-0.459961	-0.556396	-0.161219	-0.018822	-0.025440	0.276677	0.738900	0.071737	-0.610189	107.649869	70.293628	-43.388655
62860		-16.895151	-2.997225	-2.513991	-3.410095	7.860647	5.264121	-0.778922	-0.027624	2.808273	0.554443	-0.480225	-0.558594	-0.168504	-0.032438	-0.025040	0.288228	0.738646	0.063613	-0.606036	105.894142	68.742852	-44.779969
62861		-18.522173	-3.369861	-2.533311	-4.217516	8.999017	6.375159	-0.894472	0.062099	2.975023	0.534912	-0.496094	-0.567139	-0.184700	-0.036561	-0.025116	0.300600	0.738379	0.055354	-0.601142	104.349422	67.075738	-45.887732
62862		-20.817027	-4.477700	-2.198222	-5.910480	10.818723	7.686241	-1.132963	0.116825	3.104860	0.515625	-0.518555	-0.575928	-0.207453	-0.048124	-0.021595	0.314106	0.737766	0.047326	-0.595650	102.878409	65.316924	-46.789536
62863		-22.411667	-6.478436	-1.883291	-7.872623	13.200431	7.837237	-1.481154	0.121973	3.177135	0.496338	-0.543213	-0.578125	-0.223060	-0.068470	-0.018199	0.329061	0.736415	0.040137	-0.589747	101.356885	63.509894	-47.529162
62864		-22.705944	-8.742256	-2.106002	-9.181483	15.609043	6.570929	-1.870720	0.128651	3.171828	0.480713	-0.545654	-0.593506	-0.225646	-0.091200	-0.020073	0.345275	0.734203	0.034049	-0.583586	99.766236	61.697038	-48.117000
62865		-21.287522	-10.689880	-2.312391	-9.863489	17.038481	3.793330	-2.030045	0.113339	3.159359	0.456787	-0.563721	-0.611084	-0.211162	-0.110470	-0.021895	0.361969	0.731408	0.028498	-0.577242	98.197731	59.886109	-48.574802
62866		-18.346466	-9.943301	-3.336391	-8.090191	16.218448	1.052737	-1.866435	0.117141	3.197879	0.432861	-0.584229	-0.617432	-0.181860	-0.102654	-0.032309	0.377987	0.728671	0.022280	-0.570673	96.828187	58.049871	-48.928639
62867		-17.740948	-2.792879	-2.383461	-5.658262	10.637503	3.715681	-1.186065	-0.059013	3.353661	0.413574	-0.604492	-0.635010	-0.176899	-0.031039	-0.023709	0.391926	0.726487	0.013264	-0.564300	95.758782	56.130605	-49.386144
62868		-17.625453	2.960102	-4.268655	-1.701506	8.178701	6.552368	-1.420169	-0.335669	3.457112	0.388916	-0.609375	-0.639404	-0.176655	0.026244	-0.043177	0.406871	0.722829	0.004008	-0.558532	94.407769	54.165188	-50.034413
62869		-17.002102	1.977640	-6.934343	-0.051183	10.672676	5.257792	-1.352964	-0.190021	3.478191	0.358154	-0.623047	-0.654785	-0.170259	0.016346	-0.069623	0.421507	0.719454	-0.005238	-0.551988	93.297960	52.170938	-50.445277
62870		-14.237532	3.582573	-4.997224	-0.065895	7.631888	3.686912	-1.081451	0.098457	3.372955	0.340820	-0.643311	-0.663574	-0.142974	0.033147	-0.050086	0.434714	0.717216	-0.014218	-0.544447	92.616442	50.229352	-50.518479
62871		-7.770084	5.847123	-4.277815	2.808277	2.949276	-0.001011	-1.278067	0.172442	2.832978	0.322998	-0.645752	-0.681152	-0.078553	0.057088	-0.043078	0.447066	0.714582	-0.020590	-0.537663	91.914834	48.590232	-50.470610
62872		-8.220549	-5.525092	-4.381144	-2.594116	10.217094	-7.328302	-2.441464	-0.073636	1.843947	0.316406	-0.647949	-0.703125	-0.081672	-0.056535	-0.043157	0.460752	0.708626	-0.020815	-0.533970	90.438507	47.526400	-50.568804
62873		-9.272249	-10.972019	-3.555828	-6.418925	13.317314	-10.475539	-2.544842	-0.013017	1.127777	0.307861	-0.654785	-0.727295	-0.092098	-0.110681	-0.034160	0.472830	0.702503	-0.018113	-0.531595	88.967300	46.866763	-50.578986
62874		-6.359015	-12.548483	0.303551	-9.076870	9.988945	-13.789843	-2.221535	-0.018312	0.737070	0.303223	-0.650391	-0.740479	-0.063128	-0.125674	0.004425	0.482615	0.697065	-0.014869	-0.530058	87.691506	46.437137	-50.577473
62875		-2.909250	-9.120454	1.902781	-7.219907	5.110434	-13.938450	-1.348485	0.155719	0.374918	0.303223	-0.650146	-0.753662	-0.028906	-0.091128	0.019665	0.488404	0.694139	-0.012293	-0.528660	87.014619	46.213116	-50.437316
62876		-0.745788	-8.522297	0.709635	-5.127214	4.369218	-15.133480	-0.383893	0.347518	-0.088471	0.307617	-0.645752	-0.747070	-0.007483	-0.085206	0.007273	0.489575	0.694101	-0.010144	-0.527672	86.994791	46.268157	-50.154523
62877		-0.787397	-9.659305	-0.460924	-4.859772	5.778947	-15.905355	0.397798	0.439213	-0.595889	0.314453	-0.647949	-0.749268	-0.008172	-0.096560	-0.004784	0.486736	0.696219	-0.008118	-0.527542	87.461680	46.607782	-49.816975
62878		-1.206389	-8.633207	-0.531542	-4.463732	5.576842	-14.836913	0.968463	0.468101	-1.060051	0.325684	-0.647705	-0.729492	-0.012534	-0.086239	-0.005704	0.480622	0.699812	-0.005859	-0.528423	88.274002	47.219547	-49.458853
62879		-1.429531	-6.333824	-0.481525	-3.424547	4.508285	-13.028160	1.276800	0.466697	-1.518376	0.338623	-0.636475	-0.720703	-0.014787	-0.063195	-0.005185	0.472229	0.704085	-0.002866	-0.530336	89.269932	48.081542	-49.093537
62880		-1.607425	-4.924419	-0.898250	-2.465499	4.167178	-11.860909	1.355574	0.447466	-1.967482	0.358643	-0.633789	-0.709717	-0.016578	-0.049021	-0.009279	0.462257	0.708427	0.001510	-0.533337	90.328091	49.205353	-48.713173
62881		-1.905028	-4.160004	-1.383840	-1.825927	4.249157	-11.020538	1.377036	0.437934	-2.451633	0.369629	-0.625000	-0.696533	-0.019588	-0.041266	-0.014081	0.450890	0.712652	0.007465	-0.537373	91.431369	50.592619	-48.295002
62882		-2.245493	-2.929704	-1.667278	-1.120009	3.892077	-9.846032	1.328766	0.430214	-2.916386	0.395996	-0.611084	-0.683350	-0.022914	-0.028854	-0.016817	0.438288	0.716581	0.015246	-0.542386	92.569069	52.250204	-47.808573
62883		-2.887960	-1.500594	-1.663874	-0.642893	3.284595	-8.343907	1.177460	0.400725	-3.319095	0.413330	-0.599854	-0.672363	-0.029156	-0.014426	-0.016667	0.425069	0.719851	0.024752	-0.548196	93.678107	54.123313	-47.259088
62884		-3.954772	-0.841827	-1.190233	-1.050285	2.953741	-6.995651	0.944652	0.353723	-3.698794	0.437256	-0.579346	-0.661377	-0.039715	-0.007629	-0.011869	0.411451	0.722219	0.036215	-0.554794	94.727273	56.218720	-46.635749
62885		-5.219911	-0.809271	-0.377517	-2.069260	2.814994	-5.833369	0.646581	0.306315	-4.041335	0.472656	-0.563232	-0.661377	-0.052354	-0.007024	-0.003719	0.397867	0.723487	0.049569	-0.561971	95.686752	58.495662	-45.929758
62886		-6.501483	-1.263326	0.623124	-3.441713	2.814947	-4.865203	0.371118	0.251450	-4.300122	0.493896	-0.531738	-0.655029	-0.065259	-0.011243	0.006291	0.384328	0.723680	0.064565	-0.569571	96.589440	60.927071	-45.126291
62887		-7.981976	-1.386720	0.523092	-3.799804	3.264910	-3.425235	0.373745	0.267727	-4.478787	0.524170	-0.502441	-0.652832	-0.080097	-0.012085	0.005314	0.370144	0.723507	0.080137	-0.577156	97.682256	63.441404	-44.126740
62888		-9.256513	-1.025956	0.768737	-4.022069	2.976658	-1.921316	0.480862	0.264241	-4.640333	0.550293	-0.481934	-0.641846	-0.092760	-0.008127	0.007789	0.354847	0.723086	0.096003	-0.584819	99.090238	66.047452	-42.870493
62889		-10.255982	-0.260247	1.052656	-3.888904	2.180013	-0.514020	0.609318	0.229916	-4.802870	0.571533	-0.452881	-0.635498	-0.102571	-0.000172	0.010641	0.338494	0.722303	0.111899	-0.592603	100.878468	68.722274	-41.305915
62890		-11.485321	1.080876	1.121295	-3.240300	1.023001	1.267287	0.576444	0.147432	-4.918591	0.597412	-0.423584	-0.631104	-0.114533	0.013596	0.011334	0.321692	0.720725	0.128173	-0.600534	103.040991	71.460472	-39.353404
62891		-12.392187	2.178305	0.741203	-2.198864	0.133867	2.595978	0.333663	0.063965	-5.003260	0.618408	-0.389893	-0.620361	-0.123323	0.024861	0.007491	0.305436	0.718008	0.145199	-0.608351	105.620084	74.217188	-36.849123
62892		-12.693731	2.123832	0.318964	-1.584352	-0.027346	2.962153	0.162021	0.056915	-5.091077	0.644287	-0.358398	-0.622559	-0.126341	0.024457	0.003245	0.289269	0.714482	0.163030	-0.615841	109.226177	76.990725	-33.218631
62893		-12.974858	1.017798	-0.066792	-1.593775	0.576759	3.089892	0.205452	0.109282	-5.186158	0.662842	-0.318115	-0.618408	-0.129427	0.013538	-0.000584	0.272493	0.710640	0.180965	-0.622888	115.013061	79.711961	-27.426352
62894		-13.712907	0.374399	-0.477620	-1.364384	0.828969	3.818865	0.439810	0.174307	-5.287770	0.686035	-0.277588	-0.609863	-0.136970	0.007377	-0.004643	0.254249	0.706731	0.198566	-0.629650	125.437411	82.289200	-17.126003
62895		-14.962875	0.232815	-0.579534	-1.091549	0.428505	5.115408	0.663017	0.222545	-5.376488	0.693115	-0.233154	-0.605713	-0.149500	0.006367	-0.005612	0.234782	0.702675	0.215628	-0.636105	145.352820	84.384859	2.542137
