// General information: 
//  MT Manager version: 2019.2.0 
//  XDA version: 2019.2.0 build 3853 rev 94535 built on 2019-09-09
// Device information: 
//  DeviceId: 00B40A23
//  ProductCode: MTW2-3A7G6
//  Firmware Version: 4.3.5
//  Hardware Version: 1.1.0
// Device settings: 
//  Filter Profile: human(46.1)
//  Option Flags: Orientation Smoother Disabled, AHS Disabled, ICC Disabled
// Coordinate system: ENU
PacketCounter	SampleTimeFine	Acc_X	Acc_Y	Acc_Z	FreeAcc_E	FreeAcc_N	FreeAcc_U	Gyr_X	Gyr_Y	Gyr_Z	Mag_X	Mag_Y	Mag_Z	VelInc_X	VelInc_Y	VelInc_Z	Quat_q0	Quat_q1	Quat_q2	Quat_q3	Roll	Pitch	Yaw
55864		1.183474	-7.328660	-3.730409	0.592151	8.076996	-11.664577	4.070504	-2.446290	-2.259986	-0.450195	0.250977	-0.601074	0.011479	-0.072640	-0.038645	0.130117	0.041550	-0.109319	0.984577	-11.870947	-6.330743	165.602231
55865		6.546154	1.945826	11.180189	-5.960017	-2.543629	1.571320	4.055868	-3.535503	-2.088337	-0.469238	0.219238	-0.591309	0.063650	0.016500	0.113292	0.137557	0.062773	-0.091231	0.984284	-9.447848	-8.549986	164.796313
55866		5.444001	13.509056	22.479143	-6.336312	-15.600607	11.015360	2.930581	-3.482401	-0.724120	-0.486816	0.212402	-0.577881	0.050973	0.131580	0.227644	0.138567	0.082268	-0.078984	0.983764	-7.752901	-10.588488	164.684300
55867		3.928929	5.074298	17.596732	-2.333299	-6.907063	7.439248	1.691049	-3.694120	0.498461	-0.509033	0.202881	-0.562012	0.035901	0.049341	0.177072	0.133924	0.101458	-0.073459	0.983043	-6.902065	-12.659145	165.250743
55868		14.478361	9.185424	11.853782	-13.733411	-7.349685	4.036817	0.925075	-4.351933	1.039106	-0.522949	0.215820	-0.540039	0.141675	0.092037	0.122069	0.126708	0.123087	-0.072365	0.981610	-6.593485	-15.069177	166.162730
55869		22.119480	7.360588	12.359424	-19.589713	-4.330224	7.321970	0.041214	-4.095677	1.005420	-0.543457	0.226563	-0.524658	0.218229	0.074682	0.128099	0.120232	0.142892	-0.075395	0.979511	-6.819206	-17.341059	167.045329
55870		16.832757	6.218614	11.045608	-14.108891	-4.509864	5.173201	-0.181350	-3.485556	0.336291	-0.561768	0.230713	-0.522461	0.166264	0.062569	0.113309	0.117376	0.159734	-0.078637	0.976997	-7.069814	-19.303935	167.502493
55871		12.165187	1.083448	10.740038	-8.116582	-0.709502	4.262416	-0.360003	-3.244504	0.150291	-0.575439	0.237061	-0.509277	0.119880	0.011121	0.109335	0.115635	0.175378	-0.082437	0.974205	-7.396303	-21.147705	167.844215
55872		17.005357	-3.888788	11.789844	-10.497311	4.606411	7.847058	0.124536	-2.749647	0.283733	-0.589355	0.247803	-0.504883	0.168467	-0.038722	0.120198	0.112994	0.188739	-0.083692	0.971908	-7.475347	-22.692582	168.239152
55873		13.392986	-5.711380	11.287512	-6.580631	5.653121	6.439315	0.557296	-2.141945	0.247505	-0.607666	0.256348	-0.504883	0.132783	-0.057266	0.114142	0.110360	0.199443	-0.082451	0.970178	-7.287153	-23.902981	168.565253
55874		11.226802	-0.368292	10.579512	-5.956233	0.224396	4.420051	0.459000	-1.538129	-0.041368	-0.621094	0.260498	-0.505127	0.111449	-0.003950	0.106645	0.109460	0.207198	-0.081059	0.968771	-7.066874	-24.784052	168.661708
55875		7.753395	0.651613	9.942516	-3.166724	-1.263009	2.343292	0.205032	-1.264125	-0.124349	-0.634766	0.260254	-0.502686	0.076907	0.006366	0.099919	0.109333	0.213581	-0.080659	0.967431	-6.960711	-25.523873	168.682725
55876		7.979974	-1.790824	9.906135	-2.640672	1.126813	2.708271	0.153934	-0.951078	-0.162385	-0.636963	0.262451	-0.509521	0.079313	-0.018049	0.099425	0.109565	0.218358	-0.080290	0.966369	-6.863133	-26.079775	168.654391
55877		7.318714	-0.641641	9.704124	-2.308288	-0.059351	2.137737	0.163035	-0.838604	-0.162872	-0.659668	0.264404	-0.509277	0.072774	-0.006555	0.097342	0.109834	0.222665	-0.079814	0.965394	-6.754979	-26.580355	168.615947
55878		6.423394	0.125450	8.811100	-1.989109	-0.773473	0.881042	0.167970	-0.707326	-0.170226	-0.675537	0.272949	-0.509521	0.063923	0.001126	0.088338	0.110182	0.226267	-0.079232	0.964565	-6.637281	-26.997973	168.561785
55879		6.068924	-0.828900	9.299560	-1.160142	-0.015276	1.262246	0.105081	-0.621751	-0.120635	-0.682129	0.266113	-0.504883	0.060395	-0.008374	0.093179	0.110396	0.229474	-0.078961	0.963805	-6.565660	-27.372263	168.531948
55880		5.433814	-0.439018	9.355053	-0.613953	-0.516737	0.985082	0.092580	-0.555908	-0.090606	-0.695801	0.274658	-0.502686	0.054076	-0.004458	0.093699	0.110503	0.232268	-0.078747	0.963141	-6.508236	-27.698360	168.516088
55881		5.139750	-0.135928	9.642874	-0.250491	-0.923989	1.073257	0.053585	-0.494005	-0.050616	-0.707275	0.278809	-0.502686	0.051159	-0.001398	0.096555	0.110488	0.234798	-0.078733	0.962530	-6.482004	-27.995217	168.520982
55882		5.953336	-0.658567	8.996427	-1.051896	-0.153679	0.942836	0.035720	-0.474004	-0.043919	-0.714111	0.281006	-0.498291	0.059318	-0.006615	0.090104	0.110467	0.237144	-0.078801	0.961951	-6.468165	-28.271654	168.528774
55883		6.178694	-0.235254	8.597506	-1.475705	-0.449866	0.664356	0.035258	-0.465316	-0.011869	-0.725586	0.285156	-0.493896	0.061587	-0.002371	0.086118	0.110297	0.239507	-0.078904	0.961377	-6.463268	-28.549518	168.556452
55884		5.872058	1.922142	8.898954	-1.572220	-2.657405	0.571591	-0.042584	-0.408774	0.057613	-0.732422	0.291748	-0.489746	0.058533	0.019257	0.089105	0.109906	0.241454	-0.079433	0.960891	-6.523715	-28.782240	168.625442
55885		6.018947	1.297509	8.981946	-1.465780	-2.073746	0.776811	-0.151275	-0.377863	0.159577	-0.739258	0.291504	-0.480713	0.060009	0.013091	0.089923	0.109171	0.243222	-0.080587	0.960432	-6.676757	-28.998903	168.758726
55886		5.192636	0.205618	9.001647	-0.444416	-1.202696	0.501925	-0.197441	-0.350180	0.216424	-0.741699	0.298096	-0.478760	0.051766	0.002201	0.090105	0.108227	0.244737	-0.082019	0.960033	-6.875230	-29.187250	168.928182
55887		5.231335	-0.910326	8.903370	-0.214784	-0.138418	0.550714	-0.189134	-0.366948	0.218419	-0.748535	0.300293	-0.471924	0.052160	-0.008962	0.089138	0.107259	0.246405	-0.083419	0.959594	-7.069956	-29.392700	169.100933
55888		3.964093	-1.144697	9.131222	1.060053	-0.204413	0.149136	-0.166804	-0.363999	0.195679	-0.750977	0.309082	-0.465576	0.039486	-0.011332	0.091394	0.106370	0.248009	-0.084685	0.959169	-7.246825	-29.589392	169.260076
55889		4.331551	-1.011586	8.999868	0.685023	-0.275769	0.199196	-0.145720	-0.388799	0.188536	-0.757813	0.306641	-0.458740	0.043150	-0.010010	0.090090	0.105482	0.249812	-0.085850	0.958696	-7.410091	-29.808219	169.417239
55890		4.715764	-0.980385	8.570131	0.184963	-0.183368	0.014760	-0.173211	-0.430337	0.188853	-0.755615	0.311279	-0.452148	0.046982	-0.009685	0.085811	0.104604	0.251731	-0.087173	0.958170	-7.593324	-30.042271	169.579680
55891		4.704589	-1.235698	8.427213	0.227937	0.056844	-0.085271	-0.201769	-0.469802	0.183594	-0.758057	0.317871	-0.443359	0.046859	-0.012229	0.084395	0.103774	0.253889	-0.088642	0.957556	-7.793035	-30.306315	169.743098
55892		4.907811	-0.910624	8.713280	0.150563	-0.329729	0.222519	-0.271419	-0.534031	0.194757	-0.767334	0.324219	-0.434814	0.048854	-0.008940	0.087276	0.102945	0.256246	-0.090495	0.956844	-8.042047	-30.597720	169.921756
55893		4.767088	-1.747414	8.295944	0.322749	0.501677	-0.104697	-0.302213	-0.583221	0.197433	-0.769531	0.326416	-0.425781	0.047446	-0.017302	0.083124	0.102124	0.258882	-0.092519	0.956029	-8.312785	-30.923513	170.108584
55894		4.738288	-1.792999	8.546383	0.526990	0.436898	0.098815	-0.262631	-0.638712	0.170490	-0.767334	0.326416	-0.419189	0.047125	-0.017777	0.085638	0.101349	0.261749	-0.094351	0.955151	-8.557713	-31.274883	170.285728
55895		4.789242	-2.473216	8.060664	0.474669	1.170547	-0.198530	-0.190812	-0.722018	0.083200	-0.776123	0.323975	-0.410156	0.047611	-0.024635	0.080802	0.100861	0.265149	-0.095762	0.954124	-8.736829	-31.687556	170.415240
55896		5.141256	-2.022972	8.292642	0.247655	0.699378	0.124210	-0.138830	-0.730709	0.010787	-0.778809	0.330566	-0.403809	0.051110	-0.020169	0.083128	0.100639	0.268586	-0.096837	0.953077	-8.863860	-32.104041	170.499525
55897		4.506348	-1.784260	8.768685	1.023415	0.241443	0.150972	-0.092699	-0.696796	-0.075893	-0.787598	0.325928	-0.390137	0.044751	-0.017819	0.087851	0.100788	0.271982	-0.097554	0.952024	-8.931922	-32.515818	170.523189
55898		5.559222	-2.378844	8.076842	0.019127	1.109104	0.215687	-0.043737	-0.691788	-0.217119	-0.791992	0.325928	-0.390137	0.055287	-0.023831	0.080965	0.101539	0.275386	-0.097845	0.950936	-8.921392	-32.930376	170.451891
55899		6.194665	-2.162685	7.138263	-0.960379	1.214538	-0.241479	0.025280	-0.638103	-0.357787	-0.798584	0.319092	-0.381104	0.061680	-0.021746	0.071577	0.102893	0.278691	-0.097583	0.949854	-8.814692	-33.333585	170.278806
55900		5.429066	-1.830962	7.373602	-0.224908	0.738865	-0.506758	0.033119	-0.589064	-0.450852	-0.807373	0.314453	-0.374268	0.054032	-0.018444	0.073892	0.104697	0.281752	-0.097130	0.948799	-8.664430	-33.710121	170.035735
55901		5.596758	-2.179923	7.629604	-0.073632	1.049317	-0.159723	0.072050	-0.560370	-0.526454	-0.818115	0.305176	-0.365234	0.055696	-0.021974	0.076444	0.106820	0.284786	-0.096368	0.947734	-8.458141	-34.082789	169.735473
55902		5.498251	-1.007239	8.003295	-0.035720	-0.162034	-0.052044	0.034983	-0.507487	-0.579844	-0.831543	0.300537	-0.351807	0.054750	-0.010245	0.080170	0.109269	0.287515	-0.095677	0.946700	-8.246916	-34.422440	169.390558
55903		6.019196	-1.738890	7.340135	-0.548898	0.798690	-0.210997	-0.016899	-0.510527	-0.629133	-0.833496	0.293945	-0.353760	0.059949	-0.017572	0.073556	0.112026	0.290303	-0.095160	0.945579	-8.042316	-34.773175	169.008872
55904		6.163879	-1.025928	7.632057	-0.637719	0.089536	0.030033	0.006025	-0.487130	-0.659985	-0.848877	0.286865	-0.338135	0.061418	-0.010464	0.076470	0.114903	0.292949	-0.094476	0.944485	-7.807979	-35.105470	168.600573
55905		5.247307	-0.473546	8.061908	0.235109	-0.672475	-0.208257	-0.042481	-0.466108	-0.641238	-0.859375	0.270996	-0.324219	0.052269	-0.004886	0.080742	0.117772	0.295507	-0.094034	0.943379	-7.603396	-35.429391	168.199906
55906		5.029104	0.310854	8.614239	0.540036	-1.579787	0.026319	-0.026654	-0.471087	-0.589197	-0.864014	0.275391	-0.311035	0.050097	0.002972	0.086260	0.120365	0.298017	-0.093596	0.942305	-7.408288	-35.744815	167.833319
55907		5.812086	0.747624	8.352808	-0.292155	-1.787770	0.228576	-0.095582	-0.509309	-0.518054	-0.879150	0.259521	-0.290771	0.057927	0.007366	0.083672	0.122710	0.300677	-0.093609	0.941155	-7.279863	-36.081936	167.517127
55908		6.107973	1.360210	8.310900	-0.670351	-2.308946	0.308959	-0.157452	-0.574965	-0.386902	-0.878906	0.254883	-0.272705	0.060867	0.013550	0.083274	0.124495	0.303494	-0.094151	0.939962	-7.243222	-36.440475	167.297661
55909		5.911488	1.698705	8.575811	-0.410718	-2.749391	0.368060	-0.251590	-0.685336	-0.232783	-0.878906	0.250488	-0.254883	0.058840	0.017026	0.085939	0.125648	0.306742	-0.095432	0.938624	-7.328669	-36.856477	167.195857
55910		5.586620	2.128057	9.237751	0.148707	-3.423286	0.643570	-0.333093	-0.832817	-0.058905	-0.878906	0.254883	-0.232910	0.055487	0.021418	0.092573	0.126035	0.310494	-0.097458	0.937129	-7.544858	-37.337728	167.232974
55911		5.977437	2.038669	9.258618	-0.031970	-3.339828	0.885499	-0.433292	-1.045383	0.151276	-0.878662	0.250244	-0.212891	0.059274	0.020633	0.092852	0.125489	0.315115	-0.100404	0.935347	-7.923795	-37.928930	167.444006
55912		6.374253	1.470680	9.089254	-0.157399	-2.780474	1.033998	-0.522901	-1.322251	0.309693	-0.883301	0.254639	-0.181885	0.063117	0.015043	0.091272	0.124196	0.320835	-0.104194	0.933158	-8.451287	-38.657244	167.806981
55913		5.911164	1.210277	9.564940	0.680486	-2.860593	1.107260	-0.630748	-1.613206	0.465018	-0.883301	0.256836	-0.153076	0.058309	0.012542	0.096083	0.122196	0.327788	-0.108902	0.930464	-9.143590	-39.539055	168.329060
55914		4.809827	-0.163399	10.155779	2.425884	-2.042855	0.968691	-0.716381	-1.915915	0.599466	-0.879150	0.263428	-0.122070	0.047126	-0.001127	0.102017	0.119529	0.335946	-0.114412	0.927234	-9.996407	-40.568102	169.011844
55915		5.338978	-0.567877	9.816119	2.139078	-1.638403	1.046294	-0.595253	-2.233537	0.651833	-0.874756	0.272217	-0.095703	0.052307	-0.005214	0.098765	0.116225	0.345617	-0.119611	0.923436	-10.863326	-41.767837	169.808174
55916		6.090060	-0.228862	9.371140	1.438425	-1.894464	1.109471	-0.736433	-2.573335	0.673595	-0.874756	0.274414	-0.055664	0.059695	-0.001739	0.094492	0.112836	0.356662	-0.125690	0.918838	-11.902074	-43.140739	170.717468
55917		5.513398	-1.730258	9.531868	2.656036	-0.786028	0.983875	-0.849257	-2.932675	0.644956	-0.873047	0.287598	-0.020508	0.053782	-0.016720	0.096186	0.109537	0.369272	-0.132398	0.913296	-13.088659	-44.709696	171.723916
55918		5.437328	-2.248336	9.499395	3.131412	-0.493328	0.901648	-0.834720	-3.320238	0.581801	-0.864014	0.290039	0.021484	0.052850	-0.021929	0.095972	0.106206	0.383562	-0.139112	0.906779	-14.363256	-46.482253	172.834227
55919		5.234749	-2.015377	9.764413	3.704611	-1.022731	0.771389	-0.954806	-3.708202	0.471805	-0.866455	0.296387	0.061279	0.050571	-0.019564	0.098687	0.103306	0.399528	-0.146306	0.899055	-15.800690	-48.471337	174.039463
55920		5.243771	-3.159878	8.944106	3.842458	0.119251	0.320574	-1.064630	-4.168564	0.309407	-0.860107	0.307617	0.109863	0.050605	-0.031039	0.090675	0.100967	0.417423	-0.153858	0.889883	-17.417602	-50.713010	175.357568
55921		5.236297	-2.581204	8.313355	3.613950	-0.401968	-0.328404	-0.961635	-4.731348	0.179532	-0.855225	0.300781	0.163330	0.050398	-0.025362	0.084464	0.098514	0.437783	-0.160873	0.879068	-19.186459	-53.261910	176.900107
55922		5.644789	-0.921938	10.427906	4.867551	-2.937113	0.632439	-1.227302	-5.264937	0.125213	-0.835449	0.314453	0.220703	0.053682	-0.008539	0.105770	0.096379	0.460081	-0.169104	0.866280	-21.469213	-56.069379	178.831880
55923		4.663758	-4.075840	9.919425	6.557021	-0.086063	-0.131850	-1.256885	-5.802495	-0.012903	-0.819092	0.303467	0.276367	0.043727	-0.040131	0.100745	0.094387	0.484462	-0.177256	0.851451	-24.218108	-59.143260	-178.769385
55924		8.729944	-1.001376	10.824956	4.802604	-3.598773	2.769438	-1.272057	-6.381544	-0.097162	-0.807861	0.307861	0.340576	0.083781	-0.009355	0.111021	0.092177	0.510879	-0.185380	0.834350	-27.731632	-62.458928	-175.584538
55925		9.557454	-4.526847	11.601264	7.081959	-1.088547	4.151224	-1.605188	-6.722301	-0.165489	-0.778076	0.297119	0.400635	0.091560	-0.044395	0.119494	0.090693	0.538067	-0.194656	0.815088	-32.478455	-65.846345	-171.337323
55926		11.204470	-6.364588	11.920779	8.300727	-0.078454	5.650575	-1.553699	-7.118872	-0.417632	-0.752930	0.286377	0.462891	0.107565	-0.062925	0.123581	0.089588	0.566440	-0.202989	0.793672	-38.661639	-69.310003	-165.618378
55927		12.314363	-8.343841	13.333299	10.978360	0.587638	6.860585	-1.449644	-7.168871	-0.842733	-0.709961	0.284912	0.524902	0.117896	-0.082952	0.138225	0.089713	0.594737	-0.209443	0.770956	-46.549258	-72.671206	-158.161804
55928		16.319718	-8.905395	15.609062	13.422769	-0.729167	10.393599	-1.287943	-7.437991	-1.441324	-0.666504	0.265625	0.578369	0.156588	-0.089165	0.162571	0.091245	0.623915	-0.213330	0.746254	-57.472879	-75.960505	-147.592162
55929		12.652736	-7.262844	12.918071	12.398450	-0.875574	5.189328	-1.392622	-6.980519	-1.708604	-0.632080	0.246094	0.629639	0.121285	-0.072758	0.133982	0.094469	0.650745	-0.216255	0.721693	-72.533414	-78.560491	-132.980305
55930		21.392345	-7.630529	21.356460	20.310484	-5.771816	13.115458	-1.305972	-6.878781	-1.986036	-0.595459	0.231201	0.669678	0.205639	-0.076947	0.221234	0.098388	0.676680	-0.217637	0.696461	-93.542597	-80.193413	-112.378966
55931		10.164086	1.411653	15.694204	13.160598	-9.718835	-0.655627	-1.046825	-6.057696	-2.460150	-0.567383	0.202637	0.705811	0.096998	0.013736	0.159855	0.103862	0.699569	-0.215837	0.673224	-116.349172	-80.668757	-89.869888
55932		10.268483	-4.164703	22.719137	22.486822	-7.973778	-1.476880	-1.638337	-6.059858	-2.270154	-0.535156	0.187744	0.732666	0.095267	-0.040877	0.230490	0.110641	0.721190	-0.216464	0.648681	-137.848906	-79.591268	-69.010923
55933		-0.595980	-5.551904	18.003499	18.377794	-3.046049	-12.672695	-2.193349	-5.005324	-2.365277	-0.502441	0.152588	0.761963	-0.011112	-0.053431	0.180394	0.120771	0.738442	-0.217737	0.626665	-152.985648	-77.987872	-54.867993
55934		27.501191	-7.736493	16.473606	21.984046	-5.388689	14.165445	-2.053432	-4.576071	-2.801987	-0.488281	0.139648	0.773438	0.270032	-0.079432	0.171762	0.132106	0.754300	-0.216524	0.605555	-164.802964	-76.107709	-43.955844
55935		33.215425	-12.710190	27.550247	35.815576	-7.025887	16.486152	-1.170746	-1.197475	-2.514326	-0.498779	0.119385	0.771729	0.328875	-0.129627	0.278232	0.142841	0.759767	-0.211370	0.598058	-171.654531	-75.732060	-37.586868
55936		17.128511	-12.537428	22.668204	28.742496	-2.122760	1.753191	-0.156287	1.356907	-2.216156	-0.516602	0.110107	0.758545	0.171416	-0.127097	0.225618	0.151491	0.757891	-0.202457	0.601384	-176.557840	-76.632684	-32.633021
55937		4.822021	-10.119820	17.176332	20.484520	0.202060	-8.801520	0.502153	2.542138	-1.887823	-0.554688	0.107178	0.734375	0.049435	-0.102091	0.170885	0.157836	0.752400	-0.191864	0.610058	179.049581	-78.120028	-27.840130
55938		-0.827980	-5.760540	12.961267	13.769102	-0.960138	-13.181316	0.656469	2.754879	-1.666280	-0.588135	0.097900	0.717041	-0.006977	-0.057969	0.129525	0.163079	0.746027	-0.181420	0.619625	174.098168	-79.636448	-22.414221
55939		-1.542370	-2.740124	10.728496	10.359946	-2.514541	-13.178871	0.284104	2.676300	-1.427289	-0.619385	0.090576	0.690674	-0.014182	-0.027450	0.107441	0.168865	0.739122	-0.173039	0.628681	168.129725	-81.035582	-16.198517
55940		0.639936	-1.725717	10.206256	9.798802	-3.288384	-10.660886	-0.379703	2.757355	-1.077310	-0.645996	0.079102	0.666748	0.007713	-0.017103	0.101995	0.176030	0.731000	-0.167931	0.637535	160.939160	-82.392666	-9.155625
55941		2.689932	-3.611730	9.969698	10.729721	-1.595644	-8.400364	-0.924094	3.123737	-0.664624	-0.681396	0.065186	0.633789	0.028334	-0.035750	0.099428	0.184141	0.720626	-0.165703	0.647559	151.493857	-83.891054	-0.180168
55942		3.443363	-6.640511	9.461845	11.758514	1.263432	-7.443935	-0.965407	3.667131	-0.309871	-0.710449	0.060059	0.607422	0.036062	-0.066004	0.094286	0.191636	0.708007	-0.164334	0.659543	136.015396	-85.491599	14.804248
55943		3.164087	-8.592321	8.734143	11.980418	3.306289	-7.435500	-0.490951	4.182643	-0.046095	-0.743896	0.052979	0.570068	0.033441	-0.085717	0.086865	0.196933	0.693555	-0.161777	0.673816	104.612823	-86.732604	45.988164
55944		2.863002	-8.441375	8.010477	11.166846	3.580485	-7.345112	0.244648	4.594603	0.159225	-0.782715	0.063477	0.521240	0.030526	-0.084487	0.079315	0.199220	0.678022	-0.156967	0.689898	59.705788	-86.443062	91.104302
55945		2.963969	-6.268244	7.627340	9.634839	2.018343	-6.757869	0.839232	4.909588	0.340114	-0.814209	0.062988	0.477051	0.031602	-0.062947	0.075250	0.199003	0.661366	-0.150323	0.707387	32.290661	-84.569864	119.075162
55946		2.996141	-3.210605	7.304078	7.721147	-0.329194	-6.221916	1.017241	5.189289	0.518608	-0.843994	0.073730	0.419189	0.031924	-0.032393	0.072065	0.197642	0.643421	-0.143254	0.725552	19.529550	-82.011702	132.504127
55947		3.055201	-0.923684	7.320156	6.477587	-2.180486	-5.684436	0.755393	5.401521	0.703135	-0.873535	0.079834	0.356934	0.032546	-0.009399	0.072305	0.196463	0.623739	-0.137422	0.743953	12.438013	-79.131581	140.124230
55948		3.093150	0.221042	7.255653	5.683100	-3.023338	-5.251226	0.262769	5.547171	0.860841	-0.894043	0.084229	0.297119	0.032918	0.002255	0.071665	0.196181	0.602548	-0.133657	0.761961	7.826624	-76.090868	144.994871
55949		3.477481	-0.154829	7.279545	5.548089	-2.537053	-4.533168	-0.238247	5.610134	0.961828	-0.905762	0.095215	0.236816	0.036805	-0.001289	0.071784	0.196911	0.579961	-0.131942	0.779399	4.444088	-72.941067	148.356759
55950		4.611322	-1.166390	7.691198	5.751016	-1.542672	-3.008079	-0.556996	5.642018	1.001263	-0.919678	0.101807	0.170166	0.048315	-0.011214	0.075601	0.198270	0.556549	-0.131437	0.796032	1.893467	-69.748342	150.707833
55951		6.398894	-1.968313	8.388440	5.717799	-0.709753	-0.759687	-0.639607	5.710005	0.996260	-0.920166	0.115234	0.116699	0.066446	-0.019092	0.082072	0.199757	0.532198	-0.131075	0.812208	-0.042951	-66.473664	152.393569
55952		7.731526	-1.556939	9.337841	5.258967	-1.076089	1.166258	-0.606420	5.836226	0.981465	-0.920654	0.122070	0.052246	0.080071	-0.014902	0.091114	0.201125	0.507037	-0.130294	0.827940	-1.495178	-63.126187	153.610644
55953		8.660060	0.054086	10.093903	4.046455	-2.441889	2.616933	-0.677610	5.963882	0.989956	-0.925781	0.135498	-0.012451	0.089553	0.001315	0.098294	0.202539	0.480682	-0.129587	0.843285	-2.706924	-59.677497	154.542103
55954		9.530949	1.069907	10.407659	2.635290	-3.075310	3.745946	-0.954148	6.071725	1.013135	-0.919434	0.142578	-0.074707	0.098351	0.011679	0.101067	0.204398	0.453253	-0.129865	0.857857	-3.865160	-56.174863	155.259785
55955		10.122225	0.465731	10.503539	1.825618	-2.237510	4.490806	-1.237611	6.137754	1.020012	-0.904053	0.149658	-0.137207	0.104353	0.005821	0.101831	0.206709	0.424661	-0.131181	0.871623	-5.018400	-52.610022	155.799082
55956		10.431845	-0.664596	10.535775	1.308956	-0.977666	4.936050	-1.325372	6.101518	1.046771	-0.888916	0.163330	-0.197510	0.107498	-0.005405	0.102149	0.208860	0.395829	-0.132840	0.884336	-6.099705	-49.076225	156.209925
55957		10.287372	-1.342211	10.876450	1.027656	-0.356617	5.176450	-1.220829	5.954342	1.100411	-0.864746	0.172852	-0.260010	0.106121	-0.012193	0.105714	0.210261	0.367193	-0.134167	0.896080	-7.063643	-45.601285	156.561929
55958		10.499805	-1.052771	12.007814	0.523918	-0.795219	6.142263	-1.085568	5.699294	1.177994	-0.835693	0.175781	-0.302246	0.108420	-0.009255	0.117073	0.210706	0.339593	-0.135176	0.906646	-7.924534	-42.279423	156.901567
55959		12.105710	-0.498485	14.002513	-0.699746	-1.379997	8.636712	-1.061637	5.443734	1.304229	-0.807129	0.189941	-0.358398	0.124834	-0.003447	0.136682	0.210181	0.312662	-0.136445	0.916214	-8.786687	-39.071357	157.282605
55960		15.552273	-0.753544	16.682216	-2.811303	-0.935807	12.810772	-1.134020	5.304595	1.494496	-0.767090	0.199707	-0.398682	0.159920	-0.005421	0.162654	0.208641	0.286055	-0.138380	0.924928	-9.714366	-35.937606	157.733823
55961		20.610860	-1.688077	18.951096	-6.520344	0.809008	17.452834	-1.135746	5.456763	1.723862	-0.729492	0.213867	-0.439209	0.211306	-0.014019	0.183877	0.205968	0.258206	-0.140376	0.933382	-10.658093	-32.672419	158.244280
55962		24.984234	-2.287152	19.608991	-11.099130	2.725588	19.902625	-0.995750	5.906768	1.978212	-0.678467	0.232666	-0.477539	0.255692	-0.019410	0.188697	0.202061	0.228128	-0.141457	0.941870	-11.509129	-29.136944	158.784071
55963		26.523493	0.590541	18.284792	-16.001493	1.457413	18.108714	-0.799168	6.399693	2.332349	-0.629639	0.242676	-0.504639	0.270803	0.009750	0.174207	0.196382	0.195296	-0.141358	0.950427	-12.257047	-25.261469	159.407714
55964		25.196450	1.712605	15.897361	-17.910133	1.090097	14.023688	-0.988837	6.683260	2.721611	-0.576172	0.257080	-0.529541	0.256814	0.021357	0.150346	0.189003	0.160546	-0.142091	0.958286	-13.119518	-21.186790	160.149535
55965		25.070617	-1.588861	12.404652	-18.933657	5.248114	10.151445	-0.971901	6.572428	2.884299	-0.536133	0.264648	-0.549805	0.254791	-0.011657	0.115781	0.180494	0.125900	-0.142780	0.964979	-13.933295	-17.128981	160.919721
55966		25.714893	-5.962744	8.437846	-19.912750	10.662769	6.234167	-0.330533	6.156237	2.901268	-0.498047	0.269775	-0.559082	0.260412	-0.055734	0.076489	0.170987	0.093787	-0.140595	0.970670	-14.330488	-13.306094	161.699456
55967		26.015537	-7.506056	4.101290	-21.220604	13.431800	1.095815	0.786323	5.528884	2.903725	-0.464355	0.268311	-0.585938	0.262205	-0.071405	0.033497	0.160311	0.065478	-0.133368	0.975821	-14.054869	-9.819788	162.554580
55968		26.183468	0.054416	0.399498	-24.775613	7.384397	-5.665854	1.635080	4.751656	3.019392	-0.437256	0.264404	-0.599121	0.261783	0.004498	-0.002200	0.148136	0.041594	-0.122546	0.980463	-13.272343	-6.769188	163.605054
55969		38.373337	14.974464	-8.400444	-41.251708	-1.484002	-17.751938	0.688720	4.267591	3.053790	-0.412598	0.267090	-0.612793	0.379484	0.155868	-0.091603	0.135570	0.019263	-0.116628	0.983691	-12.989558	-3.986473	164.760085
55970		46.832602	24.076148	-21.656564	-51.101983	-5.321057	-34.338167	-2.648277	4.032648	2.422360	-0.382568	0.303223	-0.618164	0.460853	0.243395	-0.229120	0.126204	-0.003754	-0.127140	0.983816	-14.547881	-1.415595	165.560709
55971		35.265011	10.580570	-29.508575	-34.970670	6.666791	-40.774185	-4.822043	2.761818	1.879925	-0.372314	0.332520	-0.609863	0.347538	0.101856	-0.302397	0.118555	-0.021560	-0.149040	0.981462	-17.317890	0.399975	166.163806
55972		19.048133	-11.530750	-26.797925	-13.787255	23.182154	-31.866769	-2.759363	0.109275	0.871650	-0.366211	0.348145	-0.603516	0.190846	-0.118160	-0.266466	0.114037	-0.024350	-0.162435	0.979805	-18.897816	0.611283	166.621010
55973		17.928013	-12.878486	-14.323359	-13.593254	20.441629	-19.287932	1.318649	-2.250076	-0.530880	-0.394775	0.332031	-0.594238	0.180542	-0.128324	-0.142054	0.114949	-0.012100	-0.157336	0.980758	-18.145044	-0.712658	166.744145
55974		27.920670	0.507515	-1.794726	-27.195642	6.492079	-10.925366	3.067305	-2.682176	-1.112250	-0.407471	0.307129	-0.598145	0.279437	0.003758	-0.014136	0.118441	0.003722	-0.143899	0.982472	-16.386383	-2.372711	166.593592
55975		19.725375	-1.597214	3.591118	-18.809339	5.122750	-4.864933	2.675806	-2.271151	-1.183207	-0.419922	0.282471	-0.593018	0.196730	-0.017635	0.037919	0.122540	0.017378	-0.132093	0.983480	-14.840622	-3.816197	166.292430
55976		0.804641	-8.911818	-5.895098	1.363471	10.025049	-13.340864	3.716791	-2.848501	-1.724469	-0.443604	0.255371	-0.592285	0.008138	-0.088074	-0.060479	0.128766	0.034824	-0.115402	0.984322	-12.666669	-5.639847	165.720556
55977		2.996046	-2.012377	10.881108	-1.641630	0.220805	1.529342	3.980796	-4.118340	-1.715636	-0.471680	0.223633	-0.580322	0.027531	-0.022535	0.108962	0.134074	0.058701	-0.098161	0.984349	-10.330280	-8.157041	165.225976
55978		4.157631	9.853305	23.086344	-4.062828	-12.879985	11.746790	3.289687	-4.181031	-0.518265	-0.489258	0.212158	-0.560059	0.036965	0.094609	0.233246	0.133551	0.081744	-0.084617	0.984034	-8.464533	-10.572502	165.326937
55979		4.505150	2.059952	16.084681	-2.203613	-3.839098	6.423082	2.092043	-4.669296	0.783422	-0.518066	0.204834	-0.544189	0.041201	0.019075	0.162044	0.126815	0.105829	-0.077774	0.983193	-7.440632	-13.169191	166.160904
55980		18.756846	6.709866	11.723808	-16.862734	-4.366068	5.377043	1.669221	-5.338604	1.416959	-0.533691	0.206787	-0.517578	0.183864	0.067401	0.122741	0.116832	0.132563	-0.073702	0.981502	-6.796791	-16.107612	167.386496
55981		29.038655	10.093925	12.673051	-26.174474	-6.191335	9.734292	0.735995	-4.591536	1.400827	-0.559082	0.224121	-0.506836	0.286656	0.102472	0.133716	0.107739	0.155052	-0.073714	0.979243	-6.724565	-18.635789	168.547436
55982		16.527208	7.877980	11.209558	-13.659590	-6.600298	5.374944	0.392714	-3.782254	0.355548	-0.577148	0.225830	-0.491211	0.162971	0.078847	0.115347	0.104275	0.173652	-0.074120	0.976462	-6.665878	-20.768086	169.032019
55983		15.313397	1.589281	11.174444	-10.516777	-0.875029	6.014067	0.501180	-3.585632	-0.254053	-0.590576	0.223389	-0.482178	0.151117	0.015415	0.114505	0.103732	0.191586	-0.073336	0.973220	-6.416626	-22.837907	169.129347
55984		18.296315	-4.662437	10.405074	-11.520788	5.760203	7.473723	0.672481	-2.968941	-0.075232	-0.604248	0.229736	-0.475586	0.181376	-0.047048	0.106593	0.102349	0.206416	-0.071553	0.970462	-6.097330	-24.537299	169.286351
55985		18.084914	-2.803991	10.592766	-11.231368	3.880752	7.677603	0.949382	-2.227302	-0.348183	-0.617676	0.229492	-0.479980	0.179606	-0.028862	0.107797	0.102253	0.217930	-0.067748	0.968226	-5.523066	-25.840447	169.210778
55986		8.539605	3.673012	10.238684	-4.099306	-3.886675	2.809949	0.687545	-1.567434	-0.672911	-0.628906	0.227051	-0.486572	0.084712	0.036091	0.103177	0.104222	0.226118	-0.064515	0.966357	-4.983490	-26.773823	168.875523
55987		7.733958	-2.463819	10.270224	-1.760242	1.994393	3.004587	0.594706	-1.237132	-0.722140	-0.644531	0.222412	-0.486328	0.076612	-0.025222	0.103103	0.106636	0.232749	-0.061494	0.964715	-4.463218	-27.528329	168.478472
55988		7.715121	-3.507653	10.404954	-1.274778	3.072574	3.188133	0.736034	-0.761627	-0.830019	-0.660156	0.224365	-0.492920	0.076607	-0.035779	0.104211	0.109544	0.237094	-0.057412	0.963582	-3.811885	-28.001682	167.979248
55989		7.516223	0.344575	9.865814	-2.147595	-0.501568	2.397200	0.665096	-0.421358	-0.800436	-0.671143	0.212891	-0.499268	0.074966	0.002817	0.098826	0.112488	0.239830	-0.053517	0.962790	-3.195979	-28.284646	167.477572
55990		5.748244	1.006732	9.282035	-0.986323	-1.295318	1.029848	0.530842	-0.287679	-0.707538	-0.687012	0.214844	-0.503662	0.057383	0.009618	0.092929	0.115177	0.241730	-0.050304	0.962170	-2.681176	-28.473858	167.028171
55991		6.044464	-0.034925	9.284618	-0.931488	-0.153153	1.225843	0.488094	-0.263830	-0.614851	-0.698242	0.214600	-0.510254	0.060320	-0.000762	0.092924	0.117476	0.243547	-0.047391	0.961581	-2.215227	-28.653756	166.635275
55992		6.102134	1.659021	9.241952	-1.377910	-1.708780	1.168344	0.408556	-0.236280	-0.509961	-0.707031	0.212402	-0.512451	0.060954	0.016246	0.092525	0.119371	0.245072	-0.044975	0.961076	-1.827176	-28.803189	166.308813
55993		6.686023	2.592918	9.025569	-2.170070	-2.410325	1.249315	0.270294	-0.259675	-0.352761	-0.720459	0.209717	-0.503418	0.066788	0.025689	0.090377	0.120675	0.246672	-0.043424	0.960575	-1.564812	-28.971520	166.083411
55994		6.233337	2.018073	9.229337	-1.510763	-1.952013	1.233348	0.118173	-0.275039	-0.195887	-0.725098	0.216309	-0.512451	0.062226	0.020065	0.092391	0.121408	0.248136	-0.042812	0.960133	-1.440532	-29.135836	165.960842
55995		5.927788	2.054159	8.780580	-1.435787	-1.979507	0.698108	0.054100	-0.288615	-0.103425	-0.738525	0.211670	-0.505615	0.059162	0.020487	0.087897	0.121775	0.249688	-0.042622	0.959693	-1.379854	-29.316094	165.897732
55996		5.874874	2.762443	8.564159	-1.641821	-2.649959	0.471869	-0.032470	-0.315850	0.022348	-0.740967	0.218262	-0.503418	0.058610	0.027645	0.085730	0.121639	0.251207	-0.043029	0.959295	-1.411624	-29.500540	165.918531
55997		5.962521	2.858282	8.497142	-1.739768	-2.737325	0.453906	-0.174086	-0.338474	0.148953	-0.754639	0.224609	-0.496826	0.059460	0.028701	0.085047	0.121071	0.252803	-0.044278	0.958891	-1.563603	-29.705499	166.022404
55998		5.314364	1.832350	8.897527	-0.713317	-1.980517	0.499171	-0.283640	-0.365791	0.260587	-0.752686	0.233643	-0.488281	0.052957	0.018519	0.089046	0.120096	0.254355	-0.046219	0.958511	-1.818651	-29.914423	166.202605
55999		4.330496	-0.406320	9.318556	0.913049	-0.130625	0.429520	-0.289318	-0.370378	0.285780	-0.755127	0.235596	-0.481689	0.043138	-0.003867	0.093271	0.119010	0.255998	-0.048210	0.958111	-2.083869	-30.134040	166.399825
56000		4.716637	-1.352916	8.936972	0.672688	0.878090	0.322537	-0.216206	-0.378487	0.228136	-0.759766	0.242188	-0.477295	0.047012	-0.013379	0.089473	0.118100	0.257656	-0.049793	0.957699	-2.292236	-30.349579	166.561718
56001		5.363544	-0.733847	8.247535	-0.328391	0.481269	0.035580	-0.172334	-0.354512	0.167734	-0.766602	0.246582	-0.472900	0.053495	-0.007222	0.082577	0.117432	0.259315	-0.051063	0.957266	-2.453316	-30.561298	166.682848
56002		5.408018	-0.224538	8.556281	-0.316511	-0.084412	0.306580	-0.189149	-0.338458	0.171866	-0.762451	0.250977	-0.466309	0.053937	-0.002118	0.085656	0.116766	0.260808	-0.052421	0.956868	-2.628637	-30.754488	166.808350
56003		5.334973	-0.514148	8.674984	-0.097006	0.129006	0.383167	-0.175116	-0.319617	0.175254	-0.778076	0.252930	-0.459717	0.053215	-0.005019	0.086839	0.116073	0.262293	-0.053694	0.956476	-2.795140	-30.945191	166.935333
56004		5.194420	-0.953600	8.120871	-0.116676	0.585115	-0.143986	-0.203023	-0.306310	0.161463	-0.775879	0.250732	-0.459717	0.051827	-0.009412	0.081298	0.115482	0.263625	-0.055085	0.956102	-2.975926	-31.119632	167.054649
56005		5.198181	-0.381703	8.333279	-0.132458	-0.033580	0.015411	-0.180545	-0.328284	0.128032	-0.776123	0.261963	-0.450928	0.051847	-0.003709	0.083421	0.115019	0.265155	-0.056327	0.955662	-3.131092	-31.315849	167.152170
56006		4.973253	-0.456303	8.801445	0.332212	-0.114817	0.300828	-0.231070	-0.350261	0.092344	-0.778320	0.259521	-0.439941	0.049580	-0.004438	0.088107	0.114783	0.266698	-0.057785	0.955174	-3.306217	-31.517059	167.228484
56007		4.347349	-0.736107	9.147989	1.127550	-0.058875	0.279484	-0.295492	-0.418142	0.078845	-0.780518	0.257324	-0.444336	0.043285	-0.007209	0.091581	0.114681	0.268601	-0.059562	0.954544	-3.513447	-31.765561	167.298394
56008		4.138679	-0.372674	9.132826	1.237986	-0.486299	0.132499	-0.277363	-0.457199	0.059601	-0.791992	0.261475	-0.435303	0.041179	-0.003588	0.091428	0.114630	0.270634	-0.061259	0.953868	-3.707453	-32.028652	167.359214
56009		5.108223	-0.298689	8.597474	0.189694	-0.321687	0.185311	-0.302002	-0.495843	0.040087	-0.794434	0.268066	-0.424561	0.050869	-0.002847	0.086105	0.114697	0.272909	-0.063058	0.953095	-3.908234	-32.322248	167.408835
56010		6.439804	-0.023918	7.798777	-1.339787	-0.235664	0.209375	-0.320047	-0.503312	0.024832	-0.787354	0.261475	-0.419922	0.064202	-0.000106	0.078150	0.114854	0.275143	-0.064936	0.952307	-4.117121	-32.612720	167.450862
56011		5.561969	0.196904	7.608268	-0.730555	-0.612324	-0.434460	-0.314973	-0.468619	0.043894	-0.796387	0.263672	-0.413330	0.055441	0.002101	0.076209	0.114928	0.277273	-0.066786	0.951552	-4.327937	-32.890119	167.504470
56012		5.433272	0.072839	8.111402	-0.298322	-0.650629	-0.075746	-0.315416	-0.478870	0.046898	-0.805664	0.267822	-0.406738	0.054138	0.000869	0.081243	0.114980	0.279381	-0.068657	0.950795	-4.543545	-33.165381	167.563061
56013		5.871678	-0.625618	7.622843	-0.688883	0.158225	-0.196248	-0.315789	-0.480879	0.025472	-0.810059	0.267822	-0.402100	0.058534	-0.006128	0.076379	0.115136	0.281569	-0.070491	0.949997	-4.750198	-33.450120	167.607455
56014		5.730200	-0.510208	7.498629	-0.628106	0.009624	-0.382411	-0.319086	-0.493352	-0.010310	-0.821289	0.267578	-0.388916	0.057117	-0.004985	0.075135	0.115458	0.283759	-0.072306	0.949169	-4.948694	-33.736059	167.630446
56015		5.292391	-0.790167	7.882413	0.043150	0.087945	-0.286074	-0.315852	-0.501440	-0.047897	-0.830078	0.265137	-0.375488	0.052724	-0.007790	0.078969	0.115954	0.286064	-0.074048	0.948282	-5.129827	-34.035830	167.628239
56016		4.346736	-1.048313	8.738926	1.370223	-0.043483	-0.092490	-0.294869	-0.514590	-0.108457	-0.836914	0.264893	-0.368652	0.043237	-0.010378	0.087516	0.116697	0.288400	-0.075619	0.947359	-5.278646	-34.338865	167.587164
56017		4.821840	-0.779092	8.211871	0.685920	-0.139211	-0.283690	-0.292462	-0.554716	-0.175475	-0.843506	0.264648	-0.350830	0.047984	-0.007713	0.082263	0.117742	0.291011	-0.077096	0.946312	-5.399388	-34.675548	167.501940
56018		5.696674	-0.581442	8.102299	-0.074440	-0.179781	0.106950	-0.330234	-0.606939	-0.246347	-0.856689	0.253418	-0.334961	0.056713	-0.005750	0.081205	0.119152	0.293809	-0.078687	0.945139	-5.517550	-35.038918	167.372463
56019		5.878751	-0.309700	7.857693	-0.364312	-0.383075	-0.008651	-0.314608	-0.662850	-0.265684	-0.865723	0.255371	-0.317383	0.058523	-0.003051	0.078776	0.120610	0.296943	-0.080199	0.943846	-5.618485	-35.442320	167.232441
56020		5.330547	0.034827	8.354309	0.308755	-0.953675	0.046580	-0.330926	-0.726665	-0.241423	-0.874512	0.250732	-0.301514	0.053002	0.000423	0.083735	0.121946	0.300295	-0.081870	0.942470	-5.742713	-35.874081	167.115225
56021		5.448479	-0.220791	8.726810	0.563588	-0.810922	0.430164	-0.342043	-0.837051	-0.206491	-0.876465	0.246094	-0.279297	0.054117	-0.002114	0.087499	0.123092	0.304197	-0.083702	0.940907	-5.889883	-36.373630	167.029992
56022		5.759239	-0.380656	8.523670	0.340165	-0.599434	0.458179	-0.322092	-1.007103	-0.173365	-0.881104	0.252686	-0.254883	0.057159	-0.003719	0.085531	0.123973	0.308833	-0.085603	0.939109	-6.049414	-36.961618	166.983158
56023		5.494587	0.005020	8.930678	0.770932	-1.163407	0.579535	-0.317766	-1.218272	-0.132965	-0.885254	0.245850	-0.228271	0.054401	0.000156	0.089639	0.124567	0.314489	-0.087664	0.936960	-6.232267	-37.673965	166.982081
56024		4.908289	-0.200068	9.789613	1.899179	-1.343923	0.890240	-0.320310	-1.449388	-0.073074	-0.883057	0.248047	-0.203857	0.048371	-0.001861	0.098251	0.124773	0.321131	-0.089980	0.934457	-6.459046	-38.507694	167.047405
56025		5.005042	0.023405	9.747740	1.893008	-1.604576	0.860094	-0.317082	-1.718925	-0.007906	-0.882813	0.241211	-0.168213	0.049210	0.000387	0.097902	0.124545	0.329034	-0.092537	0.931484	-6.730254	-39.496405	167.187380
56026		5.666208	-0.056701	9.593739	1.515543	-1.464091	1.128251	-0.316498	-2.042667	0.059864	-0.882813	0.245605	-0.137207	0.055678	-0.000398	0.096510	0.123834	0.338332	-0.095408	0.927951	-7.062523	-40.657921	167.417200
56027		6.141895	0.515623	9.515381	1.174668	-2.015250	1.281627	-0.342717	-2.403787	0.151417	-0.885254	0.247803	-0.104004	0.060266	0.005366	0.095874	0.122560	0.349251	-0.098754	0.923716	-7.489641	-42.022572	167.764309
56028		5.268310	0.265298	9.810100	2.325620	-2.120934	0.871332	-0.476311	-2.803982	0.213526	-0.880859	0.256592	-0.062012	0.051298	0.002943	0.098820	0.121008	0.361795	-0.103065	0.918607	-8.080672	-43.601483	168.228002
56029		5.819686	-0.252408	10.170518	2.624401	-1.797782	1.467383	-0.506357	-3.243607	0.228356	-0.883301	0.258545	-0.028809	0.056540	-0.002200	0.102637	0.119193	0.376291	-0.107769	0.912461	-8.767358	-45.429807	168.791409
56030		5.193948	-0.281429	9.956162	3.267078	-1.960959	0.753664	-0.603538	-3.660522	0.197174	-0.880859	0.258545	0.020020	0.050108	-0.002462	0.100498	0.117436	0.392486	-0.113087	0.905193	-9.587023	-47.485977	169.440897
56031		6.053847	-0.611804	9.156942	2.631823	-1.479518	0.758004	-0.568810	-4.183508	0.134462	-0.871826	0.260742	0.066650	0.058609	-0.005815	0.092826	0.115560	0.410987	-0.118372	0.896506	-10.475629	-49.841506	170.187975
56032		5.456059	0.201356	10.408811	4.088898	-2.898083	0.817837	-0.835074	-4.732936	0.104083	-0.869873	0.267334	0.113037	0.052076	0.002479	0.105330	0.113975	0.431564	-0.125059	0.886071	-11.679188	-52.494999	171.114629
56033		3.771209	-2.391351	11.326443	7.055588	-1.121414	0.044064	-0.832384	-5.273972	0.001530	-0.858154	0.260742	0.173096	0.034707	-0.023439	0.114304	0.112437	0.454358	-0.131725	0.873822	-13.049234	-55.454641	172.216284
56034		5.347692	-0.438018	9.366411	4.565198	-2.398981	-0.331821	-0.801434	-6.069039	-0.087880	-0.849365	0.267334	0.232910	0.050601	-0.004023	0.095245	0.110593	0.480290	-0.138405	0.859031	-14.731749	-58.846135	173.668115
56035		6.768951	0.319130	11.980288	6.301039	-4.199281	1.677998	-1.214974	-6.834178	-0.100170	-0.831055	0.260986	0.306152	0.063547	0.003896	0.122000	0.109157	0.508798	-0.147091	0.841174	-17.258914	-62.633840	175.763134
56036		7.801269	-2.757266	11.314989	7.081616	-1.411231	2.198043	-1.416649	-7.411357	-0.166213	-0.801514	0.259033	0.377197	0.073723	-0.026819	0.116127	0.107934	0.538972	-0.156594	0.820571	-20.814273	-66.683747	178.793232
56037		15.485112	-7.451297	16.309420	11.101461	0.592502	11.101909	-1.686469	-7.829291	-0.273529	-0.770020	0.261719	0.443604	0.148195	-0.073307	0.169605	0.107400	0.570000	-0.166886	0.797317	-26.007770	-70.871950	-176.678324
56038		13.930374	-11.873825	15.243877	13.773679	4.479557	9.091499	-1.363768	-7.823460	-0.818641	-0.742188	0.244385	0.508057	0.132696	-0.118223	0.158524	0.107939	0.600700	-0.174084	0.772790	-32.628071	-75.018640	-170.578825
56039		13.017476	-7.021242	15.019926	13.328765	-0.288809	6.508616	-1.233310	-7.606287	-1.502497	-0.703613	0.231445	0.563721	0.123801	-0.070211	0.155422	0.110759	0.630291	-0.178323	0.747440	-41.823874	-79.025302	-161.876396
56040		20.160089	-5.523762	17.885514	15.495719	-3.617644	12.620782	-1.033995	-7.376533	-1.721473	-0.675537	0.207520	0.610840	0.194338	-0.055981	0.186401	0.113797	0.658374	-0.180743	0.721752	-58.615665	-82.524876	-145.478477
56041		19.092859	-3.216123	18.719781	16.992356	-6.260531	10.113845	-0.597983	-6.892239	-2.143757	-0.639160	0.197021	0.652832	0.183972	-0.033586	0.193718	0.117213	0.684423	-0.179665	0.696812	-90.909285	-84.839224	-113.351483
56042		7.847936	-0.972682	18.020768	16.796519	-7.214934	-2.535010	-0.815035	-6.513805	-2.138532	-0.604492	0.177490	0.695313	0.072451	-0.009782	0.182673	0.121537	0.708166	-0.178923	0.672098	-134.430796	-84.505773	-70.130662
56043		16.351155	-6.559757	25.483229	26.854725	-6.136628	4.352098	-0.878256	-5.909972	-1.922413	-0.574707	0.160400	0.717773	0.155250	-0.065983	0.259791	0.125778	0.728863	-0.178586	0.648880	-159.022999	-82.227985	-45.891871
56044		-8.780065	-0.692356	16.064786	13.612295	-5.278538	-20.876353	-1.661567	-4.797514	-2.320293	-0.544678	0.140869	0.742432	-0.091683	-0.004552	0.158524	0.135035	0.745186	-0.178495	0.628175	-172.484298	-79.872749	-33.235521
56045		35.620980	-0.078697	19.201369	23.010282	-11.548697	21.403714	-2.233972	-3.985306	-2.782570	-0.536621	0.105225	0.758789	0.352253	-0.003509	0.199089	0.148514	0.758397	-0.177787	0.609236	177.684022	-77.659296	-24.522449
56046		28.607363	-7.257560	27.067097	32.540661	-7.972010	12.124002	-2.022972	-0.343710	-2.629714	-0.555908	0.080566	0.746094	0.284644	-0.073578	0.271902	0.163878	0.760190	-0.174234	0.604068	169.875672	-77.295895	-17.714649
56047		12.105682	-9.931319	20.702914	24.938623	-1.530630	-2.776448	-1.533102	1.926045	-2.362937	-0.582031	0.055664	0.729004	0.121876	-0.099165	0.206619	0.178521	0.755031	-0.168298	0.608057	161.745657	-78.040445	-10.296072
56048		1.366967	-10.865052	15.157896	18.425303	2.255945	-12.069751	-0.868567	2.736861	-2.024633	-0.615234	0.039551	0.705078	0.014650	-0.108136	0.151853	0.190240	0.747538	-0.160854	0.615729	152.989559	-79.040806	-1.873632
56049		-2.230916	-8.711704	11.290799	13.450698	2.148782	-14.588804	-0.230051	2.737964	-1.680563	-0.641846	0.032471	0.676514	-0.021490	-0.086804	0.113306	0.198474	0.740097	-0.152680	0.624142	144.015101	-79.885095	7.115821
56050		-1.177429	-6.595292	9.627874	11.254769	1.068307	-12.937835	0.013190	2.650395	-1.282139	-0.672852	0.016357	0.652588	-0.010920	-0.065887	0.096423	0.204437	0.732753	-0.145276	0.632593	135.064559	-80.563502	16.202206
56051		1.185286	-4.949325	9.364441	10.650399	-0.128952	-10.188905	-0.021533	2.825110	-0.797441	-0.697510	0.013672	0.630615	0.012977	-0.049533	0.093472	0.209089	0.724239	-0.139549	0.642095	125.436018	-81.270760	25.935349
56052		2.792887	-4.706255	9.491610	10.850642	-0.253003	-8.318903	-0.190537	3.252343	-0.263175	-0.728760	0.008789	0.597656	0.029406	-0.047010	0.094491	0.212874	0.713701	-0.135818	0.653352	113.758522	-82.062897	37.622996
56053		2.702978	-5.383760	9.085534	10.756085	0.577181	-8.139331	-0.243925	3.785131	0.213624	-0.753418	0.006104	0.553467	0.028801	-0.053697	0.090387	0.215597	0.700738	-0.133357	0.666858	98.075979	-82.788082	53.295851
56054		1.997938	-6.145683	8.426205	10.428966	1.544076	-8.547286	-0.076183	4.225802	0.584119	-0.787598	0.012207	0.517822	0.021933	-0.061363	0.083836	0.216694	0.686035	-0.131101	0.682065	78.392198	-83.052839	73.080867
56055		1.916247	-5.982325	7.756212	9.689744	1.791973	-8.230782	0.222676	4.537709	0.839250	-0.819336	0.018555	0.471191	0.021165	-0.059823	0.077030	0.216000	0.669995	-0.128305	0.698562	57.835528	-82.521393	93.921347
56056		2.699981	-4.840486	7.625997	8.914586	1.073450	-6.942554	0.482670	4.796045	0.997908	-0.846680	0.029053	0.420166	0.029058	-0.048446	0.075463	0.213917	0.652941	-0.124774	0.715779	40.921086	-81.153877	111.281460
56057		3.580926	-2.788545	7.656195	7.753674	-0.469932	-5.470087	0.541509	5.072968	1.099044	-0.865234	0.040039	0.375488	0.037887	-0.027887	0.075543	0.211321	0.634376	-0.120994	0.733670	28.639270	-79.107011	124.053967
56058		3.981390	-0.869723	7.702205	6.631518	-1.971104	-4.516388	0.318250	5.347547	1.194360	-0.890381	0.048584	0.313477	0.041905	-0.008573	0.075906	0.209093	0.614156	-0.117950	0.751785	20.049267	-76.593888	133.021370
56059		4.392139	-0.010676	7.531427	5.734553	-2.453893	-3.722790	-0.077483	5.554024	1.263439	-0.904541	0.063965	0.255371	0.045989	0.000208	0.074056	0.207783	0.592116	-0.116304	0.769869	13.847428	-73.747008	139.383101
56060		4.851368	-0.289557	7.517973	5.403111	-1.999784	-2.962560	-0.441781	5.686121	1.290493	-0.918457	0.072754	0.193115	0.050641	-0.002409	0.073766	0.207347	0.568789	-0.115899	0.787435	9.291045	-70.705244	143.897076
56061		5.655383	-0.784934	7.820358	5.248875	-1.415914	-1.801783	-0.663729	5.752239	1.244234	-0.923584	0.086182	0.130615	0.058818	-0.007232	0.076558	0.207587	0.544388	-0.116072	0.804410	5.895852	-67.520075	147.116861
56062		6.714238	-0.709055	8.363710	4.819592	-1.360423	-0.303635	-0.746725	5.792576	1.152460	-0.924072	0.093018	0.068359	0.069565	-0.006387	0.081670	0.208259	0.519430	-0.116181	0.820562	3.391659	-64.268849	149.387246
56063		7.820655	0.373053	9.225532	3.995734	-2.273612	1.378092	-0.841259	5.834188	1.061479	-0.924561	0.104492	0.008301	0.080830	0.004536	0.089905	0.209390	0.493667	-0.116297	0.836017	1.449355	-60.942256	151.024997
56064		9.125709	1.716845	10.016194	2.718746	-3.299020	3.157235	-1.067608	5.885323	0.998361	-0.920410	0.111328	-0.045166	0.094060	0.018158	0.097326	0.211180	0.467167	-0.117041	0.850564	-0.191198	-57.580420	152.217859
56065		10.278851	1.851108	10.310333	1.500158	-3.055228	4.460747	-1.371776	5.968800	0.937708	-0.918457	0.118164	-0.116455	0.105711	0.019695	0.099845	0.213791	0.439455	-0.118740	0.864334	-1.698071	-54.139301	153.081622
56066		10.720294	0.993743	10.492499	0.909569	-2.057436	5.049024	-1.586250	6.001839	0.862064	-0.896484	0.127686	-0.172363	0.110238	0.011223	0.101561	0.217010	0.411122	-0.121048	0.877059	-3.066968	-50.686766	153.657829
56067		11.195253	-0.078578	10.631131	0.322517	-0.831789	5.598016	-1.625868	5.918935	0.783801	-0.878906	0.134766	-0.230225	0.115032	0.000507	0.102936	0.220392	0.382621	-0.123340	0.888716	-4.273765	-47.260681	154.015006
56068		11.781957	-0.962454	11.150835	-0.211190	0.130881	6.433627	-1.543817	5.758739	0.749103	-0.859131	0.142090	-0.283691	0.120998	-0.008332	0.108122	0.223468	0.354724	-0.125265	0.899190	-5.317777	-43.940645	154.233631
56069		12.677583	-1.375115	12.578675	-0.728512	0.459533	8.076013	-1.425502	5.560885	0.778857	-0.832275	0.147217	-0.334961	0.130259	-0.012368	0.122288	0.225879	0.327381	-0.126821	0.908690	-6.254909	-40.712827	154.403868
56070		14.644042	-1.644862	14.264370	-2.081595	0.958744	10.565352	-1.340597	5.399674	0.877367	-0.801514	0.158936	-0.379883	0.150289	-0.014856	0.138724	0.227419	0.300676	-0.128232	0.917296	-7.139923	-37.585290	154.583997
56071		17.336229	-1.608844	16.346412	-4.194956	1.354260	13.655565	-1.314931	5.346173	1.067338	-0.759277	0.173340	-0.422607	0.177729	-0.014093	0.158849	0.227830	0.273747	-0.129770	0.925373	-8.047629	-34.455600	154.836510
56072		20.672253	-2.065112	18.185233	-7.023842	2.548757	16.763026	-1.353413	5.462085	1.324626	-0.719482	0.187500	-0.456299	0.211713	-0.018054	0.176243	0.226999	0.245988	-0.131602	0.933082	-9.012107	-31.251815	155.179000
56073		23.901492	-3.859020	18.730496	-10.041095	5.381963	18.593827	-1.325172	5.733678	1.601007	-0.674805	0.195068	-0.487793	0.244549	-0.035436	0.180588	0.224814	0.216462	-0.133216	0.940668	-9.984161	-27.848547	155.598734
56074		25.914425	-4.909475	16.938106	-13.490372	7.974286	17.328583	-1.109638	6.012799	1.950414	-0.625977	0.207275	-0.510498	0.264540	-0.045621	0.161741	0.220726	0.185555	-0.133752	0.948135	-10.856623	-24.261807	156.130125
56075		26.760934	2.516491	13.995106	-20.149621	3.055206	12.607433	-0.901802	6.125273	2.639649	-0.583984	0.223633	-0.531006	0.271356	0.029336	0.131552	0.213006	0.153564	-0.133674	0.955603	-11.708142	-20.514155	156.993974
56076		24.873675	-2.020986	9.192687	-18.975575	7.863774	7.072601	-0.770948	5.792426	3.295742	-0.543701	0.231201	-0.546875	0.251545	-0.015744	0.084734	0.201597	0.122809	-0.133676	0.962500	-12.542500	-16.876209	158.208548
56077		26.767554	-0.940615	4.530661	-23.011578	8.769801	1.642085	-0.474409	5.348614	3.660248	-0.508301	0.240723	-0.562744	0.268871	-0.004396	0.038140	0.187728	0.094015	-0.132776	0.968654	-13.188445	-13.414109	159.621509
56078		28.759037	-4.821657	3.711991	-24.334386	12.730194	0.655722	0.421811	5.065517	4.008361	-0.474854	0.248047	-0.580811	0.289296	-0.042497	0.029713	0.171374	0.067199	-0.127826	0.974564	-13.276649	-10.066489	161.227861
56079		27.411690	2.714992	-3.405707	-26.923260	6.725842	-9.616694	1.422480	4.410991	4.083110	-0.452637	0.255371	-0.601074	0.272646	0.032997	-0.039861	0.153725	0.044247	-0.118462	0.979989	-12.724035	-7.073541	162.959695
56080		38.022599	16.755123	-14.156152	-41.703585	-1.546875	-23.408330	0.255411	3.954064	3.350655	-0.419434	0.267090	-0.612793	0.374452	0.174044	-0.148784	0.139532	0.023099	-0.114904	0.983257	-12.719358	-4.444340	164.341953
56081		41.643171	25.300217	-23.149062	-46.721760	-7.079636	-35.822278	-3.285041	3.429084	2.363694	-0.395752	0.298584	-0.611328	0.409336	0.253943	-0.242716	0.130200	0.002588	-0.128922	0.983067	-14.654673	-2.215575	165.195924
56082		28.329167	8.167325	-26.964119	-28.246341	6.941041	-37.200519	-5.051486	1.949638	1.566142	-0.383545	0.327637	-0.603027	0.280017	0.076984	-0.274366	0.123762	-0.011264	-0.152478	0.980462	-17.567113	-0.896993	165.750024
56083		15.182389	-12.780323	-22.660773	-10.319300	22.459386	-27.028856	-2.663594	-0.541559	0.229306	-0.399658	0.338379	-0.594482	0.152582	-0.130628	-0.224468	0.122054	-0.010385	-0.165866	0.978511	-19.099211	-1.155476	165.974380
56084		17.577011	-12.249927	-10.361523	-13.597563	18.804496	-15.091111	1.196833	-2.482293	-1.057789	-0.414551	0.320313	-0.582764	0.176395	-0.122817	-0.102163	0.125206	0.003397	-0.161591	0.978877	-18.412530	-2.700460	165.859755
56085		23.705234	-10.748500	-0.726625	-20.169410	15.965313	-5.778249	3.914280	-3.204657	-1.698052	-0.440186	0.282227	-0.581787	0.236228	-0.109373	-0.005605	0.130807	0.022963	-0.144400	0.980567	-16.148950	-4.750097	165.477496
56086		10.513098	-3.237742	-7.765301	-9.457566	7.774416	-15.417413	5.817276	-3.321316	-2.426659	-0.467773	0.239258	-0.576416	0.106026	-0.031418	-0.076820	0.139543	0.044813	-0.117716	0.982172	-12.729273	-6.942925	164.602930
56087		10.932234	5.735053	7.557260	-11.473462	-4.126814	-2.017541	5.317342	-3.967338	-2.116600	-0.490967	0.203369	-0.568848	0.108359	0.054126	0.079197	0.146316	0.069300	-0.093887	0.982331	-9.579656	-9.417431	163.847259
56088		7.983972	9.446421	20.832631	-7.611863	-10.668607	10.560261	4.290697	-3.789210	-0.733492	-0.508057	0.180664	-0.550537	0.076184	0.089662	0.211751	0.146584	0.091392	-0.075324	0.982083	-7.105440	-11.630026	163.746129
56089		2.614270	8.858549	19.863930	-1.486865	-11.038181	9.048309	2.691686	-3.930460	1.037839	-0.530762	0.182373	-0.532715	0.021767	0.086018	0.200265	0.138728	0.112334	-0.065486	0.981757	-5.757408	-13.812131	164.611987
56090		11.392504	12.086963	12.776544	-11.077690	-10.758501	4.349144	1.976389	-4.744083	1.705990	-0.546387	0.182129	-0.510254	0.109804	0.120530	0.131595	0.127634	0.136419	-0.060041	0.980558	-4.959689	-16.430968	165.884117
56091		29.016299	18.684423	12.441277	-28.278933	-13.445782	9.294738	0.884587	-4.522614	1.679655	-0.564453	0.188232	-0.490479	0.285659	0.188684	0.131739	0.117396	0.158703	-0.059751	0.978500	-4.831846	-18.941979	167.123724
56092		21.712989	12.780004	11.583462	-19.436246	-9.734941	7.402151	-0.029293	-3.531292	0.722509	-0.576172	0.199219	-0.483887	0.214576	0.128596	0.119620	0.112806	0.175749	-0.062561	0.975947	-5.064889	-20.925810	167.749269
56093		9.572247	4.830711	9.914916	-6.455059	-4.439256	2.511245	-0.353594	-3.227220	-0.193766	-0.587891	0.209961	-0.464111	0.094154	0.048392	0.100591	0.113038	0.191452	-0.065944	0.972738	-5.290734	-22.791204	167.810355
56094		13.922741	-6.955277	10.991622	-6.678163	7.477849	6.388963	-0.011510	-3.044228	-0.103491	-0.603760	0.216309	-0.459717	0.137497	-0.069618	0.112022	0.112531	0.206292	-0.067644	0.969641	-5.345771	-24.537178	167.923678
56095		14.288750	-9.260315	9.515962	-6.604673	9.939296	5.616256	0.554155	-2.462237	0.129748	-0.619873	0.224854	-0.462158	0.141764	-0.092777	0.096653	0.110490	0.218603	-0.066489	0.967256	-5.124641	-25.949792	168.148181
56096		15.408310	1.076379	11.016629	-9.178147	-0.107582	6.790958	0.670655	-1.594931	-0.522828	-0.628662	0.220215	-0.459717	0.153225	0.009990	0.111425	0.111747	0.226881	-0.063583	0.965399	-4.634220	-26.889568	167.902973
56097		6.041944	-0.635106	9.506149	-1.007409	0.121227	1.423132	0.491657	-1.149964	-0.713574	-0.644043	0.213379	-0.461670	0.059848	-0.006800	0.095390	0.114265	0.233057	-0.061063	0.963794	-4.169917	-27.593312	167.501792
56098		8.422964	-2.613183	10.192800	-2.133944	2.443836	3.269360	0.572443	-0.750543	-0.755522	-0.659912	0.217529	-0.466064	0.083746	-0.026741	0.102167	0.117005	0.237256	-0.057882	0.962636	-3.632950	-28.055600	167.047756
56099		8.176245	0.089809	9.919315	-2.617294	-0.088439	2.772735	0.395420	-0.436764	-0.649422	-0.671143	0.217285	-0.479492	0.081547	0.000437	0.099373	0.119534	0.239904	-0.055487	0.961810	-3.216464	-28.342976	166.643594
56100		7.111187	2.817035	9.738186	-2.425992	-2.845105	1.992247	0.282849	-0.302373	-0.492704	-0.680420	0.221680	-0.481689	0.071033	0.027857	0.097529	0.121477	0.241691	-0.053746	0.961218	-2.910255	-28.534877	166.334703
56101		5.643460	1.582167	9.729773	-0.814808	-1.918612	1.353119	0.151324	-0.270081	-0.353840	-0.696289	0.225830	-0.477295	0.056331	0.015648	0.097386	0.122922	0.243303	-0.052777	0.960681	-2.717989	-28.714693	166.112753
56102		6.464175	1.666920	9.195579	-1.743786	-1.720700	1.283309	0.106887	-0.275329	-0.239337	-0.703369	0.234375	-0.477539	0.064535	0.016543	0.092054	0.123866	0.244783	-0.052172	0.960217	-2.588958	-28.882446	165.965906
56103		5.857253	2.243311	9.062379	-1.409229	-2.376709	0.856513	-0.013578	-0.242373	-0.113292	-0.714355	0.229736	-0.483887	0.058475	0.022406	0.090693	0.124364	0.246094	-0.052268	0.959812	-2.564796	-29.039178	165.898828
56104		5.962828	1.913539	8.955336	-1.436062	-2.029201	0.828506	-0.117252	-0.268870	0.000264	-0.723633	0.238525	-0.484131	0.059508	0.019188	0.089622	0.124434	0.247339	-0.053028	0.959441	-2.639461	-29.196887	165.908142
56105		6.296151	0.647105	8.725669	-1.461645	-0.723268	0.842731	-0.166412	-0.289187	0.064255	-0.741943	0.244873	-0.481934	0.062833	0.006564	0.087342	0.124257	0.248730	-0.054103	0.959045	-2.760010	-29.375539	165.959004
56106		6.333629	1.293235	8.422205	-1.780501	-1.316864	0.570781	-0.194430	-0.300444	0.114964	-0.739990	0.253662	-0.473145	0.063202	0.013051	0.084304	0.123863	0.250047	-0.055395	0.958679	-2.916910	-29.548026	166.045511
56107		6.447310	1.849803	8.122929	-2.137114	-1.817723	0.341128	-0.295548	-0.332523	0.211568	-0.753662	0.258057	-0.470947	0.064318	0.018686	0.081309	0.123128	0.251522	-0.057298	0.958276	-3.161027	-29.746597	166.196134
56108		5.224129	1.577048	8.700876	-0.739862	-1.959593	0.241970	-0.375279	-0.342376	0.324910	-0.758545	0.269043	-0.466797	0.052066	0.016019	0.087068	0.121943	0.252866	-0.059746	0.957924	-3.492738	-29.935440	166.424711
56109		4.226049	-0.395488	9.393574	0.971553	-0.442469	0.439879	-0.366878	-0.363715	0.350795	-0.765381	0.270996	-0.460205	0.042096	-0.003709	0.094019	0.120620	0.254400	-0.062183	0.957531	-3.826641	-30.145147	166.671455
56110		3.846896	-2.156252	9.161682	1.666648	1.169799	0.149145	-0.260200	-0.352070	0.259402	-0.759033	0.280029	-0.456055	0.038335	-0.021393	0.091712	0.119597	0.255876	-0.064001	0.957146	-4.073853	-30.339948	166.860424
56111		5.133547	-2.948173	8.245103	0.383428	2.317541	0.061958	-0.168855	-0.332132	0.144881	-0.770264	0.279785	-0.447021	0.051220	-0.029375	0.082561	0.119016	0.257435	-0.065208	0.956719	-4.227650	-30.537847	166.972248
56112		5.464777	-1.478248	8.340140	-0.208125	0.922388	0.222886	-0.114589	-0.299612	0.082000	-0.763428	0.282227	-0.440430	0.054529	-0.014712	0.083492	0.118671	0.258802	-0.066071	0.956333	-4.332227	-30.709320	167.042862
56113		4.981610	-0.598616	8.477266	0.058408	-0.064937	0.037750	-0.111739	-0.267736	0.076779	-0.772461	0.284180	-0.436035	0.049705	-0.005920	0.084843	0.118362	0.260105	-0.066881	0.955962	-4.430054	-30.872763	167.107565
56114		5.600173	-0.932202	8.548953	-0.313403	0.339232	0.439246	-0.132369	-0.297250	0.071424	-0.768066	0.286377	-0.431641	0.055878	-0.009245	0.085579	0.118091	0.261452	-0.067813	0.955562	-4.541982	-31.043141	167.171975
56115		5.514975	-0.545651	8.423623	-0.375520	-0.046732	0.263365	-0.109628	-0.302677	0.034570	-0.772705	0.286377	-0.427246	0.055023	-0.005401	0.084323	0.117969	0.262934	-0.068578	0.955116	-4.625908	-31.228007	167.211295
56116		5.743084	-0.000799	8.429780	-0.676073	-0.550285	0.350196	-0.142698	-0.345434	0.014941	-0.774658	0.284180	-0.424805	0.057285	0.000056	0.084397	0.117964	0.264523	-0.069513	0.954610	-4.726322	-31.428355	167.241494
56117		4.662172	-0.562206	8.878611	0.625475	-0.328374	0.206415	-0.228889	-0.424416	0.012207	-0.779297	0.286133	-0.418213	0.046433	-0.005518	0.088891	0.118063	0.266519	-0.070890	0.953941	-4.875098	-31.683448	167.273627
56118		3.870617	-0.258860	9.501178	1.549220	-0.924200	0.290113	-0.203044	-0.495903	0.012214	-0.779297	0.286133	-0.411621	0.038471	-0.002490	0.095110	0.118097	0.268788	-0.072198	0.953202	-5.014626	-31.969699	167.312008
56119		4.594423	-0.523163	9.261038	0.951812	-0.522103	0.481503	-0.234365	-0.593770	0.013722	-0.786133	0.290527	-0.411621	0.045669	-0.005120	0.092752	0.118134	0.271580	-0.073701	0.952290	-5.173713	-32.320790	167.357016
56120		5.532848	0.725351	8.351030	-0.553006	-1.400710	0.117573	-0.247561	-0.635255	0.019101	-0.792969	0.288086	-0.407227	0.055062	0.007362	0.083676	0.118142	0.274478	-0.075311	0.951332	-5.347457	-32.686001	167.410891
56121		5.856450	0.770229	8.155171	-0.872586	-1.386829	0.122751	-0.327323	-0.663981	0.075373	-0.799561	0.285645	-0.395996	0.058290	0.007858	0.081733	0.117986	0.277517	-0.077381	0.950303	-5.587098	-33.073203	167.505295
56122		5.504652	0.368370	8.252863	-0.372937	-1.137246	0.041943	-0.374890	-0.669978	0.137351	-0.803955	0.283447	-0.389160	0.054767	0.003876	0.082705	0.117591	0.280452	-0.079778	0.949292	-5.882154	-33.451051	167.646244
56123		5.593591	-0.187375	7.886762	-0.428184	-0.564946	-0.167929	-0.404181	-0.708286	0.147098	-0.803955	0.287842	-0.382568	0.055657	-0.001673	0.079069	0.117180	0.283618	-0.082334	0.948183	-6.198780	-33.858159	167.798253
56124		6.042302	-0.450382	7.486404	-0.871776	-0.202658	-0.223273	-0.406135	-0.745039	0.135285	-0.820068	0.294189	-0.373779	0.060147	-0.004311	0.075097	0.116804	0.286882	-0.084918	0.947019	-6.519336	-34.277574	167.949821
56125		5.680343	-0.943729	7.783030	-0.229197	0.081787	-0.134224	-0.415008	-0.756368	0.124380	-0.826660	0.291748	-0.364990	0.056514	-0.009240	0.078064	0.116493	0.290266	-0.087518	0.945788	-6.841292	-34.711953	168.096927
56126		4.605856	-1.600546	8.543040	1.277408	0.294081	-0.063823	-0.376851	-0.762338	0.080360	-0.837646	0.284912	-0.353516	0.045739	-0.015826	0.085635	0.116323	0.293642	-0.089890	0.944544	-7.130071	-35.143635	168.219023
56127		4.401374	-1.715786	8.441581	1.485808	0.342285	-0.260152	-0.344319	-0.793139	-0.013065	-0.846680	0.286865	-0.331299	0.043677	-0.017015	0.084619	0.116537	0.297288	-0.091974	0.943175	-7.363865	-35.607334	168.280376
56128		5.165720	-1.830226	8.017807	0.752767	0.634802	-0.150940	-0.326203	-0.838886	-0.122621	-0.855225	0.280029	-0.326660	0.051309	-0.018203	0.080424	0.117211	0.301136	-0.093849	0.941685	-7.549401	-36.096759	168.273004
56129		5.698858	-1.927533	7.768488	0.304466	0.836117	-0.027532	-0.319922	-0.881372	-0.214395	-0.866455	0.279785	-0.302246	0.056625	-0.019212	0.077966	0.118292	0.305290	-0.095565	0.940039	-7.693664	-36.625171	168.205231
56130		5.552382	-1.496038	7.764359	0.383351	0.365325	-0.165347	-0.302997	-0.924402	-0.302116	-0.875000	0.266113	-0.281982	0.055142	-0.014926	0.077922	0.119729	0.309624	-0.097104	0.938280	-7.796026	-37.177030	168.081662
56131		5.550054	-1.206227	8.072509	0.569498	-0.023934	0.041129	-0.304102	-0.994235	-0.363460	-0.879395	0.266113	-0.264160	0.055076	-0.012040	0.081018	0.121425	0.314370	-0.098580	0.936328	-7.873059	-37.781100	167.919850
56132		5.601845	-1.033047	8.249112	0.682284	-0.261230	0.185356	-0.312248	-1.088464	-0.404157	-0.883545	0.254883	-0.241699	0.055547	-0.010314	0.082810	0.123267	0.319497	-0.100096	0.934188	-7.943373	-38.434389	167.739110
56133		6.320292	-0.863372	8.164100	0.152379	-0.316903	0.541971	-0.283358	-1.226400	-0.400175	-0.894287	0.245605	-0.214844	0.062683	-0.008643	0.082039	0.124977	0.325333	-0.101553	0.931786	-8.002968	-39.173128	167.573079
56134		5.870911	0.341080	8.596198	0.513592	-1.692817	0.451204	-0.287326	-1.377213	-0.336386	-0.887451	0.243408	-0.197021	0.058121	0.003437	0.086359	0.126308	0.331760	-0.103233	0.929153	-8.105302	-39.985145	167.470677
56135		5.406218	0.430830	9.308886	1.401081	-2.105572	0.659623	-0.273948	-1.588248	-0.215701	-0.895996	0.236572	-0.163574	0.053325	0.004378	0.093508	0.126946	0.339152	-0.105165	0.926176	-8.269816	-40.914255	167.480382
56136		5.815069	0.630209	9.129226	1.098352	-2.245583	0.737320	-0.279323	-1.833560	-0.098119	-0.893799	0.236572	-0.139160	0.057314	0.006402	0.091811	0.126903	0.347530	-0.107482	0.922804	-8.520337	-41.965462	167.612621
56137		6.606795	1.079453	8.544277	0.221664	-2.462611	0.756208	-0.318900	-2.148012	0.030381	-0.889160	0.231934	-0.099121	0.065144	0.010941	0.086128	0.126161	0.357284	-0.110379	0.918830	-8.891207	-43.189762	167.888929
56138		6.231281	1.127303	8.927682	0.938915	-2.788975	0.729468	-0.450315	-2.474452	0.162950	-0.893555	0.231934	-0.068115	0.061193	0.011525	0.090013	0.124840	0.368276	-0.114321	0.914176	-9.459646	-44.578183	168.332436
56139		6.574681	-0.268560	9.582083	1.824491	-1.761103	1.530813	-0.489005	-2.873074	0.238685	-0.889160	0.236328	-0.032715	0.064364	-0.002372	0.096758	0.123003	0.381006	-0.118790	0.908622	-10.161695	-46.187068	168.923407
56140		5.583290	-0.109993	9.413425	2.639281	-2.143839	0.590438	-0.456615	-3.267449	0.267189	-0.891113	0.231689	0.009766	0.054286	-0.000810	0.095032	0.120701	0.395385	-0.123397	0.902151	-10.959052	-48.003092	169.650644
56141		6.430731	-0.581589	9.028527	2.308558	-1.638365	0.919432	-0.481264	-3.755628	0.248554	-0.886963	0.240479	0.051514	0.062604	-0.005518	0.091485	0.118203	0.411884	-0.128316	0.894380	-11.887960	-50.093753	170.513584
56142		5.411593	-0.826681	9.597846	3.816850	-1.883890	0.382956	-0.678826	-4.252067	0.196362	-0.875488	0.240723	0.107178	0.052067	-0.007887	0.097127	0.115967	0.430300	-0.134269	0.885079	-13.075648	-52.451784	171.533361
56143		4.335421	-2.284318	10.463345	5.979741	-1.101578	0.010730	-0.806315	-4.750224	0.080223	-0.870850	0.238281	0.153809	0.040861	-0.022402	0.105715	0.114136	0.450742	-0.140736	0.874070	-14.485128	-55.093365	172.705656
56144		5.460715	-2.496763	10.059456	5.577781	-0.882638	0.449972	-0.670843	-5.385114	-0.081405	-0.853027	0.242920	0.213379	0.051861	-0.024648	0.102099	0.112173	0.473807	-0.146534	0.861076	-16.038620	-58.085978	174.102085
56145		5.882409	-0.165657	10.074552	5.141421	-3.258533	0.138721	-0.894590	-6.181383	-0.121844	-0.838623	0.227539	0.284668	0.055673	-0.001235	0.102505	0.110248	0.499832	-0.153503	0.845252	-18.231887	-61.499644	176.043656
56146		7.232155	-1.833382	12.536224	7.731807	-2.873437	2.216388	-1.320604	-6.841074	-0.161101	-0.816406	0.234375	0.344482	0.067962	-0.017551	0.127855	0.108913	0.527854	-0.162387	0.826522	-21.477953	-65.221993	178.823500
56147		10.738003	-3.356329	12.307365	7.503968	-1.771003	4.967647	-1.569090	-7.521227	-0.222081	-0.780029	0.228271	0.417725	0.102610	-0.032691	0.127252	0.107803	0.557914	-0.172269	0.804633	-26.259115	-69.223984	-176.971625
56148		13.607391	-9.648298	14.334397	11.719005	2.580203	8.612906	-1.859854	-7.541675	-0.501037	-0.757080	0.219727	0.482178	0.130280	-0.095445	0.149221	0.108431	0.587277	-0.182314	0.781095	-32.862165	-73.132023	-171.128931
56149		17.168144	-8.849042	17.233719	14.418287	-0.119982	11.676921	-1.562473	-7.696216	-1.109715	-0.709229	0.207031	0.546631	0.164377	-0.088033	0.179446	0.110269	0.617066	-0.189197	0.755827	-41.936575	-77.037190	-162.673594
56150		16.356755	-8.142815	15.542770	14.357454	-0.518112	9.389248	-1.556389	-7.672182	-1.729044	-0.677002	0.183105	0.602295	0.156727	-0.081558	0.162163	0.114262	0.646355	-0.193849	0.729104	-56.509990	-80.686847	-148.742318
56151		16.758135	-4.551050	17.398872	15.861144	-4.988406	8.285148	-1.370674	-7.107685	-1.803216	-0.640381	0.167969	0.651367	0.160840	-0.045761	0.180099	0.118313	0.672796	-0.196957	0.703246	-81.739083	-83.162543	-124.069988
56152		18.396655	-0.310507	18.158024	15.870393	-9.571404	8.201504	-1.003996	-6.692174	-2.126467	-0.599121	0.148682	0.693848	0.177715	-0.004085	0.187616	0.122507	0.697418	-0.197196	0.678022	-117.642836	-83.744273	-88.527793
56153		9.727708	-4.860486	21.547062	21.788055	-6.261230	-1.543871	-1.308434	-6.525232	-2.298058	-0.564697	0.135986	0.727295	0.089618	-0.048240	0.218795	0.128372	0.720573	-0.197505	0.652141	-148.062457	-82.111790	-58.646677
56154		13.687135	-7.044032	25.351475	26.974323	-6.682379	0.539157	-1.264880	-5.143282	-1.860424	-0.530273	0.114502	0.740723	0.129633	-0.070049	0.257355	0.133872	0.738099	-0.198176	0.630884	-162.680002	-79.856557	-44.587661
56155		-2.830662	-3.600182	13.390129	12.903890	-2.547768	-15.029113	-1.990914	-4.852523	-2.745037	-0.502197	0.085938	0.768066	-0.032027	-0.034249	0.133501	0.145034	0.754454	-0.197500	0.608899	-174.281329	-77.438010	-33.925232
56156		37.591192	-1.913171	24.115670	29.000632	-13.947820	21.212638	-2.087335	-2.886864	-2.712873	-0.512451	0.061279	0.775146	0.372095	-0.021640	0.246763	0.158287	0.764233	-0.195691	0.593800	177.768592	-75.825259	-26.987332
56157		25.628842	-9.266975	26.038217	32.177085	-7.027137	8.516341	-1.682750	0.422411	-2.452170	-0.533936	0.036621	0.758057	0.255695	-0.093615	0.260627	0.172421	0.763930	-0.190975	0.591786	171.146258	-75.935436	-21.156743
56158		9.014998	-10.930528	19.029668	23.395746	-0.641547	-5.927152	-1.308521	2.357037	-2.041648	-0.567139	0.020264	0.736328	0.091276	-0.108990	0.189939	0.185695	0.757682	-0.185016	0.597666	164.459526	-77.006167	-15.053969
56159		0.922047	-10.963927	14.092267	17.526833	2.270498	-12.514495	-0.658580	2.914493	-1.653568	-0.591553	0.008789	0.718994	0.010372	-0.109257	0.141137	0.195827	0.749728	-0.178007	0.606525	157.496600	-78.286606	-8.316948
56160		-1.872149	-9.124575	10.643717	13.201406	2.439925	-14.264400	-0.167999	2.878480	-1.319571	-0.625000	0.003906	0.690430	-0.017787	-0.091037	0.106774	0.203004	0.741929	-0.170757	0.615769	150.270143	-79.433813	-1.053569
56161		-0.334351	-6.985827	9.410548	11.422715	1.189688	-12.173791	0.056140	2.863962	-0.966969	-0.654297	0.003418	0.668457	-0.002334	-0.069872	0.094124	0.208217	0.733846	-0.164098	0.625450	142.534945	-80.506360	6.829419
56162		2.032462	-5.342819	9.382187	10.978946	-0.135706	-9.438302	0.026393	3.122527	-0.523600	-0.692139	-0.010742	0.635498	0.021646	-0.053496	0.093484	0.212303	0.724461	-0.158852	0.636278	133.521715	-81.637100	15.964610
56163		3.379714	-4.928676	9.408964	10.947349	-0.391065	-7.754827	-0.096351	3.617784	-0.027856	-0.721436	-0.004395	0.602295	0.035485	-0.049246	0.093482	0.215599	0.712680	-0.155223	0.649239	121.186962	-82.899094	28.350637
56164		3.354525	-5.389081	9.008561	10.754847	0.277283	-7.427165	-0.122602	4.185652	0.424830	-0.750977	0.001709	0.562256	0.035535	-0.053762	0.089389	0.217866	0.698489	-0.152618	0.664346	102.414427	-84.030215	47.169189
56165		3.024968	-5.688425	8.261145	10.135558	0.970276	-7.349531	0.045304	4.656865	0.762985	-0.789551	0.007813	0.518066	0.032378	-0.056782	0.081861	0.218683	0.682210	-0.150051	0.681360	75.577803	-84.436243	74.158428
56166		2.979292	-5.247567	7.648930	9.255412	1.001136	-6.942773	0.304092	5.000086	0.977159	-0.826172	0.020508	0.466797	0.031947	-0.052439	0.075629	0.218005	0.664572	-0.146862	0.699464	48.898908	-83.576097	101.150116
56167		3.456644	-3.632127	7.216906	7.892987	0.007982	-5.951704	0.481342	5.263513	1.088342	-0.848877	0.022461	0.411377	0.036645	-0.036298	0.071135	0.216398	0.645555	-0.143041	0.718310	30.471656	-81.620883	119.999766
56168		3.646474	-1.822254	6.996990	6.582019	-1.284280	-5.275551	0.413167	5.494168	1.136139	-0.878662	0.037598	0.353516	0.038471	-0.018151	0.068894	0.214835	0.625223	-0.139255	0.737259	19.435752	-79.032556	131.428086
56169		3.866784	-0.317337	6.922291	5.503759	-2.388664	-4.620698	0.114806	5.636421	1.153781	-0.892822	0.050781	0.295654	0.040615	-0.002982	0.068095	0.214070	0.603406	-0.136363	0.755964	12.536834	-76.093153	138.552007
56170		4.343173	0.097008	6.989565	4.976644	-2.581604	-3.789713	-0.304361	5.697049	1.161587	-0.906982	0.068604	0.230957	0.045392	0.001335	0.068619	0.214397	0.580521	-0.134894	0.773843	7.893318	-73.000237	143.183787
56171		5.336210	-0.365434	7.307270	4.863866	-2.030517	-2.450539	-0.649147	5.717911	1.139971	-0.918701	0.075195	0.175293	0.055441	-0.003108	0.071518	0.215644	0.556575	-0.134562	0.790959	4.514234	-69.799466	146.349555
56172		6.655696	-0.692199	8.005877	4.751818	-1.679404	-0.678154	-0.829704	5.742347	1.099010	-0.921387	0.088623	0.110596	0.068854	-0.006221	0.078130	0.217380	0.532012	-0.134683	0.807199	1.997057	-66.553759	148.544725
56173		7.859204	-0.152137	8.853159	4.176068	-2.123978	1.058197	-0.931053	5.803235	1.086142	-0.921875	0.095459	0.048340	0.081121	-0.000680	0.086206	0.219290	0.506494	-0.134996	0.822892	-0.004702	-63.225533	150.159333
56174		9.122263	0.722136	9.567242	3.113085	-2.736466	2.758552	-1.087951	5.875235	1.089115	-0.922607	0.108887	-0.011963	0.093936	0.008238	0.092896	0.221431	0.480185	-0.135759	0.837831	-1.692243	-59.854096	151.365711
56175		10.179675	0.712770	9.831391	2.052617	-2.388515	4.000623	-1.293813	5.965781	1.079301	-0.909424	0.118164	-0.076660	0.104624	0.008310	0.095170	0.223962	0.452676	-0.137132	0.852127	-3.205298	-56.397696	152.267283
56176		10.592382	-0.278754	9.795705	1.474557	-1.198714	4.489523	-1.407030	6.008694	1.043258	-0.898682	0.127441	-0.127930	0.108813	-0.001551	0.094730	0.226712	0.424589	-0.138725	0.865495	-4.529946	-52.926273	152.898650
56177		10.672072	-1.044693	9.965501	1.065890	-0.370532	4.780298	-1.366082	5.927068	1.036416	-0.885498	0.134521	-0.194580	0.109662	-0.009217	0.096500	0.229129	0.396344	-0.140083	0.877945	-5.682940	-49.475794	153.366103
56178		11.448121	-1.172191	10.834120	0.340788	-0.175653	5.985746	-1.284538	5.761402	1.078557	-0.865967	0.146240	-0.250488	0.117598	-0.010411	0.105053	0.230872	0.368675	-0.141229	0.889287	-6.708205	-46.131102	153.752141
56179		12.892920	-0.963399	12.233206	-0.804154	-0.251239	7.963888	-1.244620	5.613641	1.166364	-0.837158	0.155762	-0.302002	0.132346	-0.008122	0.118703	0.231839	0.341167	-0.142403	0.899765	-7.685956	-42.841213	154.121300
56180		14.847616	-0.778234	14.029163	-2.287044	-0.264427	10.496309	-1.302301	5.551476	1.306901	-0.810791	0.167480	-0.346680	0.152336	-0.005900	0.136141	0.232032	0.313633	-0.144028	0.909424	-8.688958	-39.589950	154.506161
56181		17.558249	-1.086417	15.777137	-4.397502	0.462853	13.396635	-1.413858	5.611046	1.484329	-0.770996	0.186279	-0.387207	0.179985	-0.008447	0.152828	0.231428	0.285142	-0.146239	0.918558	-9.759700	-36.265474	154.920684
56182		19.939732	-1.949869	16.822631	-6.665486	1.883942	15.410293	-1.468849	5.803760	1.676504	-0.729004	0.200439	-0.427734	0.204315	-0.016592	0.162473	0.229950	0.255453	-0.148622	0.927242	-10.846775	-32.825648	155.347743
56183		21.329844	-3.085553	17.111919	-8.632630	3.540341	16.071340	-1.395114	6.035488	1.852678	-0.686523	0.208008	-0.457031	0.218602	-0.027682	0.164775	0.227494	0.224237	-0.150466	0.935588	-11.869506	-29.212300	155.770277
56184		22.315272	-3.448327	16.216665	-11.186098	4.875870	15.160421	-1.196444	6.203446	2.090379	-0.639893	0.222412	-0.492920	0.228379	-0.031171	0.155329	0.223593	0.192191	-0.151301	0.943492	-12.772068	-25.487879	156.235507
56185		23.497110	1.871311	14.486953	-16.780303	1.673608	12.114897	-1.037945	6.205351	2.559114	-0.595459	0.234375	-0.506836	0.239040	0.022481	0.137384	0.217066	0.159605	-0.151659	0.951004	-13.641653	-21.679180	156.909033
56186		23.298605	0.828783	12.355293	-18.026071	3.371494	9.149996	-1.267539	6.080321	3.027663	-0.557617	0.239746	-0.524902	0.236427	0.012603	0.116328	0.208157	0.126958	-0.153445	0.957605	-14.670373	-17.880446	157.792799
56187		24.666866	-2.798349	9.193374	-19.447255	8.065829	6.227506	-0.945600	5.749962	3.321318	-0.526855	0.258057	-0.545410	0.249592	-0.023442	0.084903	0.197131	0.095741	-0.154032	0.963456	-15.498717	-14.194389	158.814203
56188		24.885383	-7.717359	4.709041	-19.227272	13.830614	2.011535	0.188175	5.287383	3.429024	-0.488525	0.256592	-0.565430	0.251256	-0.072919	0.040398	0.184489	0.067798	-0.149512	0.969027	-15.633132	-10.752231	159.921688
56189		24.365203	-5.274009	0.761319	-20.712918	12.526258	-3.817058	1.673149	4.624839	3.281513	-0.463867	0.254883	-0.587891	0.244556	-0.048762	0.001545	0.171382	0.044394	-0.138214	0.974451	-14.860034	-7.694708	161.055103
56190		30.477401	8.352208	-4.760473	-31.621307	3.244353	-13.078697	1.756308	3.991661	2.987086	-0.439209	0.255615	-0.605713	0.302456	0.088500	-0.052894	0.159128	0.024401	-0.126884	0.978766	-13.978288	-5.057007	162.151583
56191		39.952999	21.487052	-14.468825	-44.446613	-4.107250	-26.382145	-0.759825	3.720092	2.238980	-0.421875	0.273682	-0.619385	0.394303	0.218734	-0.152881	0.150570	0.004143	-0.127914	0.980280	-14.466094	-2.673390	162.874683
56192		37.494900	19.212989	-23.380704	-40.197047	-0.537879	-36.367767	-4.065946	3.008533	1.649313	-0.400635	0.305176	-0.615723	0.369762	0.190312	-0.243277	0.144431	-0.014690	-0.145595	0.978635	-16.812300	-0.762319	163.321973
56193		24.651870	-1.295087	-24.857443	-21.243968	15.581706	-32.902268	-4.239137	1.189658	1.174804	-0.396973	0.327393	-0.605225	0.245127	-0.016793	-0.249707	0.139188	-0.024391	-0.165370	0.976056	-19.245122	0.090493	163.753028
56194		18.112079	-14.850043	-18.822620	-11.826100	24.507196	-22.555902	-0.717725	-1.106452	0.199730	-0.407959	0.322754	-0.598389	0.182305	-0.148991	-0.186686	0.137195	-0.019627	-0.169644	0.975712	-19.660375	-0.472529	164.074113
56195		24.319568	-5.525483	-6.963252	-21.431271	13.884253	-14.098659	2.408858	-2.374660	-0.669769	-0.429688	0.304688	-0.604492	0.243820	-0.055250	-0.067405	0.138655	-0.005763	-0.159601	0.977379	-18.285439	-1.890717	164.155694
56196		27.805142	5.952139	1.488712	-28.407900	1.710713	-8.931392	2.866760	-2.229440	-0.818953	-0.440186	0.286621	-0.590820	0.278096	0.058132	0.018827	0.140924	0.007801	-0.147164	0.978991	-16.642983	-3.253424	164.093330
56197		18.151196	-4.689233	3.589658	-16.139052	8.276050	-3.865503	2.209436	-1.871516	-0.760638	-0.448242	0.261963	-0.588135	0.180988	-0.047987	0.037066	0.143162	0.019167	-0.137667	0.979890	-15.372601	-4.415066	163.971917
56198		-2.830354	-10.080730	-0.963648	5.632868	8.791812	-8.585379	4.945176	-2.698723	-1.359199	-0.469727	0.230469	-0.580566	-0.028831	-0.100327	-0.012508	0.147418	0.036883	-0.115215	0.981648	-12.506822	-6.106775	163.588744
56199		4.870355	6.949841	13.867186	-5.870919	-8.150785	2.967646	4.774830	-3.598635	-1.598297	-0.483887	0.190186	-0.572998	0.046714	0.065770	0.141124	0.152231	0.059063	-0.094140	0.982077	-9.712069	-8.318161	163.085461
56200		-0.040536	11.748984	22.315353	-1.177521	-15.262433	10.226427	3.964002	-3.407658	-0.755742	-0.512451	0.174072	-0.561279	-0.003800	0.113047	0.225378	0.153105	0.079174	-0.077045	0.982015	-7.421276	-10.316893	162.947701
56201		2.711604	10.010320	16.477830	-3.105504	-11.461919	5.614453	2.557457	-3.919066	0.145299	-0.529785	0.160156	-0.538818	0.023792	0.097999	0.166528	0.149822	0.100394	-0.067564	0.981280	-6.028630	-12.548939	163.301722
56202		16.415369	11.605737	12.304514	-16.345058	-8.520235	4.874013	1.366449	-4.561998	0.771016	-0.550537	0.170898	-0.514404	0.160832	0.115821	0.127531	0.143762	0.123537	-0.064676	0.979739	-5.421236	-15.109445	164.024089
56203		27.363834	9.883023	14.196546	-24.742860	-4.741454	10.513307	0.280475	-4.132281	1.148015	-0.564453	0.183838	-0.497070	0.270053	0.100183	0.147710	0.136592	0.143687	-0.066991	0.977859	-5.518712	-17.416334	164.942087
56204		18.168400	6.121960	12.252895	-15.005089	-3.603382	6.906050	-0.128661	-3.341131	0.774289	-0.571533	0.197021	-0.481689	0.179365	0.061997	0.125499	0.131755	0.159683	-0.070479	0.975794	-5.804864	-19.281341	165.607411
56205		10.226731	4.861332	10.297822	-7.494156	-4.201272	2.853488	-0.316163	-3.174120	0.459419	-0.587402	0.201172	-0.477295	0.100504	0.049010	0.104505	0.128630	0.174908	-0.074486	0.973300	-6.152085	-21.077953	166.088606
56206		15.457213	1.638906	11.526771	-10.536587	-0.407664	6.412787	-0.153119	-2.855560	0.418593	-0.590088	0.214355	-0.470947	0.152871	0.016800	0.117446	0.125645	0.188560	-0.077456	0.970906	-6.410908	-22.681764	166.539732
56207		13.287175	-3.451415	10.623961	-7.151704	3.978031	5.495714	0.046111	-2.181615	0.408985	-0.604004	0.223145	-0.468750	0.131773	-0.034269	0.107673	0.122766	0.199148	-0.078996	0.969035	-6.545281	-23.913588	166.946997
56208		12.111851	-3.196190	10.852347	-5.838418	3.333988	5.335852	0.229720	-1.585841	0.184807	-0.608887	0.236328	-0.466797	0.120283	-0.031976	0.109443	0.121007	0.206922	-0.079069	0.967620	-6.511589	-24.808024	167.177253
56209		6.112795	0.868599	9.880183	-1.803939	-1.625676	1.582050	0.051090	-1.217670	0.029999	-0.622559	0.240479	-0.473389	0.060524	0.008670	0.099174	0.120327	0.212972	-0.079604	0.966347	-6.527909	-25.516278	167.284012
56210		7.364285	-0.949674	10.348414	-2.110183	0.233150	2.745806	-0.026109	-0.970954	-0.036020	-0.631836	0.247070	-0.482422	0.073138	-0.009496	0.103841	0.120137	0.217689	-0.080306	0.965261	-6.567176	-26.075064	167.333086
56211		6.939874	-0.355515	10.220138	-1.839696	-0.422996	2.401046	0.013704	-0.781777	-0.038797	-0.647949	0.253418	-0.482422	0.068998	-0.003576	0.102471	0.119997	0.221627	-0.080682	0.964351	-6.574034	-26.539548	167.365913
56212		6.383097	0.485792	9.150190	-1.933706	-1.140331	1.126502	-0.048478	-0.661457	0.028157	-0.652588	0.260010	-0.478271	0.063527	0.004889	0.091711	0.119644	0.224803	-0.081374	0.963601	-6.635416	-26.917909	167.434067
56213		7.391926	-1.529803	8.516963	-2.467549	1.089497	1.243682	-0.105641	-0.613644	0.061189	-0.666260	0.266357	-0.480469	0.073662	-0.015230	0.085404	0.119221	0.227813	-0.082334	0.962865	-6.734921	-27.279881	167.519376
56214		5.819081	-1.136314	8.783659	-1.039338	0.322404	0.728713	-0.079840	-0.551875	0.096033	-0.680176	0.277100	-0.489502	0.057954	-0.011300	0.088001	0.118618	0.230410	-0.083186	0.962248	-6.832029	-27.591110	167.624447
56215		5.838889	-0.719170	9.041274	-1.006516	-0.155801	0.925882	-0.066581	-0.480010	0.078251	-0.691406	0.274658	-0.487305	0.058174	-0.007139	0.090555	0.118121	0.232788	-0.083897	0.961675	-6.911297	-27.875566	167.712200
56216		5.454214	-2.507675	8.737588	-0.283825	1.529676	0.673576	-0.027838	-0.433193	0.042183	-0.702637	0.276855	-0.482910	0.054358	-0.025053	0.087497	0.117765	0.234865	-0.084366	0.961172	-6.959569	-28.122770	167.774762
56217		5.678773	-0.848489	8.765107	-0.862494	-0.038379	0.630012	0.027228	-0.418312	0.020174	-0.709961	0.292236	-0.487549	0.056605	-0.008491	0.087768	0.117462	0.237021	-0.084523	0.960666	-6.966379	-28.375796	167.821134
56218		6.824312	0.796516	8.492175	-2.362418	-1.357904	0.765480	-0.026201	-0.399709	0.069756	-0.721191	0.289795	-0.476318	0.068070	0.008000	0.085057	0.116986	0.238924	-0.084996	0.960211	-7.021701	-28.601978	167.899455
56219		5.585849	0.882293	8.906800	-1.101696	-1.783735	0.527314	-0.118001	-0.353293	0.169299	-0.723633	0.298584	-0.480957	0.055694	0.008923	0.089161	0.116167	0.240616	-0.085988	0.959800	-7.156295	-28.807254	168.038012
56220		4.288584	0.017857	9.363967	0.470466	-1.324101	0.390323	-0.165911	-0.338348	0.234670	-0.732666	0.300537	-0.472168	0.042727	0.000306	0.093712	0.115091	0.242071	-0.087293	0.959446	-7.342145	-28.986327	168.219785
56221		4.946401	-1.192077	9.026290	0.106040	-0.007123	0.548315	-0.174920	-0.374072	0.223760	-0.735107	0.304932	-0.465576	0.049308	-0.011787	0.090366	0.114069	0.243801	-0.088633	0.959007	-7.529044	-29.198275	168.397290
56222		5.167669	-0.907620	8.707302	-0.269936	-0.203990	0.347580	-0.148468	-0.391415	0.202524	-0.746582	0.311279	-0.463379	0.051515	-0.008959	0.087181	0.113102	0.245531	-0.089846	0.958567	-7.699034	-29.408910	168.564772
56223		4.968081	-0.662267	8.319474	-0.303584	-0.419358	-0.113932	-0.171200	-0.426111	0.197841	-0.744873	0.322510	-0.459229	0.049510	-0.006502	0.083306	0.112176	0.247518	-0.091165	0.958040	-7.880163	-29.651111	168.732234
56224		4.803185	-1.763474	8.105869	0.061355	0.621328	-0.247359	-0.191350	-0.482037	0.195942	-0.749268	0.320068	-0.447998	0.047853	-0.017510	0.081191	0.111251	0.249658	-0.092625	0.957452	-8.079088	-29.912752	168.906057
56225		5.152236	-1.406653	8.281400	-0.204526	0.259830	0.035976	-0.167055	-0.558308	0.180694	-0.753662	0.317871	-0.441162	0.051304	-0.013951	0.082969	0.110339	0.252281	-0.093976	0.956738	-8.261334	-30.230033	169.077449
56226		5.518625	-1.744357	8.196956	-0.419040	0.623595	0.193475	-0.197869	-0.603267	0.179265	-0.760498	0.322266	-0.434570	0.054954	-0.017313	0.082153	0.109444	0.255001	-0.095511	0.955968	-8.467563	-30.560767	169.255141
56227		4.594802	-2.012550	8.509441	0.630383	0.616352	0.025785	-0.209174	-0.625683	0.163229	-0.760498	0.326660	-0.421387	0.045698	-0.019999	0.085259	0.108635	0.257923	-0.097078	0.955118	-8.675295	-30.916393	169.425455
56228		4.010456	-2.328628	9.118320	1.545710	0.641734	0.279320	-0.167495	-0.640612	0.119288	-0.769775	0.333008	-0.417236	0.039826	-0.023186	0.091331	0.107966	0.260861	-0.098410	0.954259	-8.849518	-31.272436	169.571265
56229		4.055467	-3.235081	8.903030	1.700201	1.538986	0.233057	-0.089504	-0.666516	-0.012905	-0.769775	0.330811	-0.412598	0.040256	-0.032314	0.089179	0.107820	0.264119	-0.099198	0.953297	-8.933867	-31.665487	169.632590
56230		5.529741	-3.438954	7.828578	0.069162	2.210020	0.127215	0.064191	-0.708355	-0.193235	-0.776367	0.328369	-0.399170	0.054986	-0.034468	0.078470	0.108301	0.267653	-0.099048	0.952272	-8.871952	-32.087280	169.579403
56231		5.256463	-3.250649	7.753635	0.288732	2.010535	-0.107541	0.162736	-0.670029	-0.364436	-0.780518	0.321533	-0.396729	0.052245	-0.032665	0.077685	0.109488	0.271227	-0.098168	0.951216	-8.687103	-32.512772	169.405438
56232		4.990232	-2.652633	7.830346	0.466650	1.399404	-0.269283	0.278283	-0.604290	-0.519135	-0.778076	0.314941	-0.396729	0.049596	-0.026764	0.078416	0.111279	0.274534	-0.096501	0.950229	-8.375581	-32.903001	169.118541
56233		5.962357	-2.185072	7.642699	-0.477242	1.188963	0.040896	0.301956	-0.502995	-0.645658	-0.800293	0.307861	-0.387451	0.059360	-0.022158	0.076543	0.113691	0.277516	-0.094482	0.949280	-7.992819	-33.254838	168.731417
56234		6.131105	-2.113400	7.197065	-0.791001	1.303910	-0.245650	0.295408	-0.417425	-0.755582	-0.802490	0.303467	-0.385254	0.061080	-0.021471	0.072067	0.116666	0.280047	-0.092298	0.948390	-7.565863	-33.554123	168.257981
56235		6.143197	-1.386899	7.511423	-0.775117	0.590767	-0.059049	0.250117	-0.320297	-0.866789	-0.806152	0.285645	-0.375977	0.061250	-0.014229	0.075195	0.120278	0.282222	-0.090109	0.947504	-7.111931	-33.813329	167.695059
56236		5.261551	-1.111222	8.048094	0.193954	0.095021	-0.135730	0.117781	-0.293685	-0.924608	-0.814941	0.281006	-0.375732	0.052445	-0.011402	0.080551	0.124356	0.284125	-0.088452	0.946565	-6.708066	-34.047852	167.087146
56237		4.533541	-0.499184	8.660844	0.974129	-0.727297	-0.100108	0.086894	-0.301498	-0.955355	-0.825684	0.269531	-0.364502	0.045180	-0.005246	0.086674	0.128621	0.286136	-0.086895	0.945533	-6.304227	-34.295025	166.454157
56238		5.503542	-0.053631	8.245317	-0.102764	-0.823272	0.065997	0.055583	-0.333797	-0.966019	-0.834473	0.258301	-0.359619	0.054894	-0.000825	0.082545	0.132959	0.288193	-0.085494	0.944435	-5.912980	-34.547848	165.813147
56239		5.847873	0.823259	7.762112	-0.844843	-1.427854	-0.201605	0.012600	-0.351391	-0.944014	-0.836426	0.253906	-0.357422	0.058380	0.007952	0.077724	0.137248	0.290368	-0.084330	0.943259	-5.548794	-34.815324	165.183564
56240		5.418328	1.251058	8.013038	-0.462276	-1.945843	-0.266380	-0.023700	-0.369539	-0.837054	-0.849365	0.242432	-0.345947	0.054087	0.012294	0.080229	0.141071	0.292472	-0.083510	0.942117	-5.246415	-35.075003	164.626803
56241		5.401593	2.060276	8.147186	-0.593494	-2.721453	-0.218945	-0.092378	-0.414908	-0.726551	-0.858154	0.235596	-0.336914	0.053921	0.020444	0.081574	0.144456	0.294768	-0.083196	0.940916	-5.022700	-35.361918	164.145421
56242		5.707130	1.817733	8.348010	-0.609270	-2.459392	0.144460	-0.132201	-0.468854	-0.560594	-0.868896	0.221924	-0.318848	0.056926	0.018073	0.083602	0.147090	0.297136	-0.083361	0.939748	-4.890430	-35.661080	163.782229
56243		6.391221	2.607653	8.128161	-1.469501	-2.995120	0.315697	-0.173961	-0.583963	-0.400201	-0.875244	0.215088	-0.302979	0.063727	0.026020	0.081445	0.148988	0.300020	-0.084030	0.938472	-4.846026	-36.026522	163.535122
56244		6.166832	1.873210	8.729838	-0.671913	-2.523609	0.719564	-0.233450	-0.712331	-0.171925	-0.882080	0.214844	-0.291992	0.061373	0.018781	0.087495	0.149843	0.303286	-0.085429	0.937159	-4.937150	-36.445351	163.458005
56245		5.196642	2.061329	9.576835	0.545088	-3.180718	0.796510	-0.289487	-0.860307	0.041850	-0.888428	0.208008	-0.262939	0.051550	0.020763	0.095961	0.149721	0.307180	-0.087507	0.935717	-5.153095	-36.946652	163.541248
56246		5.162962	1.520149	9.645679	0.875555	-2.767603	0.844635	-0.374204	-1.102022	0.215137	-0.888428	0.208008	-0.242920	0.051081	0.015437	0.096711	0.148803	0.311984	-0.090443	0.933994	-5.509319	-37.567653	163.770627
56247		5.675108	1.507136	9.605930	0.579902	-2.727068	1.094956	-0.440296	-1.374565	0.358954	-0.892822	0.207764	-0.209473	0.056062	0.015384	0.096413	0.147194	0.318002	-0.094091	0.931856	-5.982392	-38.342646	164.129315
56248		5.478372	0.915976	9.675713	1.102554	-2.351164	1.037382	-0.478515	-1.673325	0.482996	-0.890869	0.214355	-0.185303	0.053949	0.009523	0.097188	0.144909	0.325233	-0.098348	0.929275	-6.565997	-39.269163	164.618343
56249		5.271846	0.797334	9.964820	1.630862	-2.500659	1.087213	-0.537356	-1.995457	0.589851	-0.897461	0.214355	-0.156494	0.051697	0.008395	0.100145	0.142061	0.333900	-0.103253	0.926104	-7.268009	-40.375045	165.233470
56250		5.043315	-0.014581	9.939900	2.250790	-1.934451	0.930786	-0.610949	-2.353940	0.658325	-0.892822	0.214355	-0.123047	0.049258	0.000322	0.099983	0.138804	0.344026	-0.108876	0.922239	-8.104293	-41.664928	165.969743
56251		5.429540	-0.362168	9.770569	2.217406	-1.669505	1.020683	-0.730353	-2.792551	0.671437	-0.893555	0.229736	-0.081299	0.052935	-0.003084	0.098463	0.135439	0.356081	-0.115333	0.917366	-9.088806	-43.200575	166.808119
56252		5.369990	-2.426674	10.097561	3.423890	-0.043791	1.365403	-0.634921	-3.202393	0.616650	-0.895508	0.225098	-0.039063	0.052147	-0.023782	0.101895	0.131874	0.369961	-0.121526	0.911575	-10.090349	-44.954631	167.720520
56253		4.577755	-1.743196	10.686399	4.448978	-1.196862	1.001747	-0.790237	-3.651790	0.485516	-0.895752	0.233887	0.000732	0.043857	-0.016899	0.107744	0.128892	0.385805	-0.128420	0.904461	-11.226191	-46.969986	168.669596
56254		4.571698	-3.702329	10.411860	5.288484	0.507119	0.900384	-0.808084	-4.121147	0.277239	-0.884521	0.240479	0.047119	0.043608	-0.036538	0.105180	0.126522	0.403683	-0.135267	0.895955	-12.406547	-49.252341	169.628961
56255		5.247162	-2.280025	9.563583	4.211345	-0.658345	0.483008	-0.682780	-4.736341	0.092074	-0.884277	0.233887	0.102783	0.050197	-0.022447	0.096920	0.124260	0.424363	-0.141478	0.885697	-13.603906	-51.894365	170.670850
56256		4.558057	-2.076433	10.898321	5.993570	-1.618461	0.448069	-0.972422	-5.373064	-0.072508	-0.875244	0.238281	0.156006	0.042622	-0.020246	0.110254	0.122797	0.447469	-0.148945	0.873217	-15.141254	-54.890542	171.887631
56257		4.813567	-3.825292	10.263052	6.521626	0.014749	0.215207	-0.855769	-6.092751	-0.284510	-0.865723	0.222656	0.222900	0.044923	-0.037875	0.104194	0.121373	0.473605	-0.155723	0.858322	-16.854570	-58.300209	173.350057
56258		6.814381	0.759658	12.034562	5.873344	-5.052239	1.665350	-1.156555	-6.942321	-0.323825	-0.843506	0.234131	0.289063	0.063927	0.008195	0.122567	0.120021	0.502674	-0.164064	0.840236	-19.378059	-62.142387	175.489022
56259		8.953586	-4.723903	12.369455	8.010834	-0.469414	4.006451	-1.526395	-7.496599	-0.475447	-0.820557	0.223145	0.360352	0.084698	-0.046482	0.127287	0.119635	0.533319	-0.173666	0.819206	-22.937824	-66.255412	178.467045
56260		14.482876	-7.933005	16.262326	11.482284	0.350780	10.309492	-1.505060	-7.862385	-0.676024	-0.788330	0.210205	0.433594	0.138008	-0.078550	0.168732	0.119495	0.564794	-0.182617	0.795851	-27.798368	-70.497738	-177.238951
56261		15.313714	-10.448334	17.223357	14.568620	1.613741	10.806321	-1.128182	-7.842633	-1.305898	-0.763184	0.199463	0.498047	0.145533	-0.104455	0.178630	0.120638	0.596097	-0.187967	0.771222	-33.748291	-74.752302	-171.688878
56262		13.567659	-6.788315	16.028760	13.937764	-1.536508	7.222518	-1.092296	-7.762938	-1.889483	-0.726318	0.182129	0.553711	0.128669	-0.068226	0.165745	0.123788	0.626676	-0.191104	0.745274	-42.505896	-78.932965	-163.347560
56263		17.170175	-3.293923	17.354948	14.332874	-5.811228	9.354315	-1.075014	-7.254482	-1.862821	-0.689941	0.169434	0.598389	0.164944	-0.033541	0.179794	0.127094	0.654391	-0.193639	0.719807	-58.627584	-82.433413	-147.647347
56264		19.188942	-2.006984	19.790805	17.129311	-8.516541	10.128454	-0.973443	-6.957138	-2.201304	-0.644043	0.145752	0.649658	0.184622	-0.021144	0.204517	0.131384	0.680513	-0.194257	0.694194	-91.050458	-84.784471	-115.602764
56265		9.465224	-5.821708	20.456564	20.827704	-4.861535	-0.630775	-1.118155	-6.503362	-2.386541	-0.611572	0.121826	0.687744	0.087235	-0.058132	0.207808	0.137096	0.704251	-0.194182	0.668976	-135.275649	-84.560572	-71.850158
56266		12.567414	-9.951189	25.494611	27.893644	-3.940459	0.822078	-0.939322	-5.397582	-2.151854	-0.590576	0.106689	0.708008	0.117655	-0.099598	0.258661	0.142307	0.723459	-0.193389	0.647268	-159.921720	-82.562009	-47.600469
56267		-3.378186	-5.945391	12.590513	13.420998	-0.217285	-14.817881	-1.275843	-4.940477	-2.857693	-0.558350	0.084961	0.737061	-0.037721	-0.058133	0.125379	0.151355	0.740975	-0.190628	0.625866	-175.208361	-80.132787	-32.885643
56268		36.611508	-3.115729	24.092030	28.306041	-11.760644	21.663881	-1.307175	-3.170018	-2.681854	-0.557617	0.067139	0.739746	0.361786	-0.034427	0.246896	0.161540	0.752301	-0.187163	0.610670	175.903811	-78.317320	-24.605353
56269		24.691540	-9.529363	25.930944	31.448918	-5.824722	8.893516	-1.057013	0.120236	-2.320314	-0.574951	0.046875	0.727051	0.245954	-0.096779	0.259670	0.172727	0.753155	-0.181567	0.608240	168.903622	-78.215208	-18.078147
56270		7.221793	-11.369059	18.980540	23.089852	0.362222	-6.915094	-0.710513	1.905465	-1.862893	-0.596924	0.035400	0.711914	0.072965	-0.113694	0.189517	0.182790	0.748381	-0.175077	0.613075	162.009993	-79.001708	-11.464738
56271		-2.023098	-11.639282	14.327476	17.541379	3.191630	-15.004336	-0.113848	2.309072	-1.440170	-0.621338	0.026123	0.689941	-0.019412	-0.116169	0.143568	0.189659	0.742331	-0.167934	0.620300	155.200861	-79.943571	-4.609816
56272		-3.431814	-8.658361	11.431935	13.428873	1.990726	-15.568916	0.438890	2.124477	-1.111288	-0.648193	0.023438	0.665771	-0.033584	-0.086647	0.114489	0.193256	0.737052	-0.160449	0.627426	148.806983	-80.717776	2.127942
56273		-0.669518	-5.070148	10.430113	11.341939	-0.621936	-12.244267	0.478697	2.097750	-0.710537	-0.681885	0.020508	0.648193	-0.005782	-0.050929	0.104243	0.195411	0.731385	-0.154322	0.634882	142.578331	-81.493449	8.705413
56274		1.738284	-3.170522	10.659215	11.014302	-2.297347	-9.505059	0.124804	2.414651	-0.219235	-0.692871	0.011475	0.628418	0.018633	-0.031792	0.106352	0.197509	0.723973	-0.150782	0.643521	135.562750	-82.455887	15.859186
56275		2.772487	-3.612797	10.587806	11.270605	-1.807983	-8.220207	-0.257160	2.960588	0.289902	-0.724609	0.017578	0.597412	0.029341	-0.035950	0.105498	0.199736	0.713811	-0.149751	0.654334	125.626557	-83.701582	25.714341
56276		2.416836	-5.232113	9.975160	11.421923	-0.100595	-8.317259	-0.352691	3.542326	0.670736	-0.749512	0.021729	0.559570	0.026106	-0.052060	0.099393	0.201429	0.701267	-0.149766	0.667249	108.970926	-84.986172	42.243272
56277		2.383573	-6.049284	9.346991	11.198017	0.939764	-7.983353	-0.105841	4.033430	0.906334	-0.783691	0.032227	0.524170	0.025988	-0.060329	0.092992	0.201770	0.686782	-0.149238	0.682164	80.643170	-85.725964	70.594373
56278		2.920918	-5.448941	8.826870	10.365343	0.772845	-6.970157	0.266943	4.471635	1.045276	-0.813477	0.042969	0.466309	0.031456	-0.054446	0.087509	0.200579	0.670857	-0.147395	0.698566	48.223116	-85.139301	103.262281
56279		3.617974	-3.829070	8.726473	9.328479	-0.422883	-5.728326	0.539719	4.866323	1.133244	-0.840820	0.053711	0.428467	0.038504	-0.038311	0.086243	0.198347	0.653249	-0.144422	0.716287	26.493110	-83.274365	125.404085
56280		4.157356	-1.827496	8.450138	7.885206	-1.857931	-4.676799	0.569109	5.256452	1.182189	-0.857422	0.073486	0.368164	0.043882	-0.018258	0.083316	0.195984	0.633915	-0.141010	0.734750	14.766560	-80.683827	137.568908
56281		3.900325	-0.238563	8.337408	6.817696	-3.093518	-4.454632	0.364653	5.575862	1.211167	-0.882813	0.086426	0.314697	0.041321	-0.002291	0.082239	0.194241	0.612560	-0.138025	0.753651	8.055064	-77.669716	144.606734
56282		4.084627	0.673256	8.265710	6.007812	-3.716701	-3.852114	0.021414	5.793585	1.214043	-0.898926	0.093018	0.250244	0.043175	0.006981	0.081430	0.193520	0.589666	-0.136006	0.772235	3.883849	-74.442271	148.912379
56283		4.606074	0.899336	8.380732	5.519987	-3.775046	-2.919692	-0.354855	5.943837	1.169901	-0.906250	0.106445	0.190186	0.048469	0.009419	0.082374	0.194012	0.565180	-0.135046	0.790376	1.028596	-71.051299	151.682453
56284		5.547184	0.642785	8.635377	5.134593	-3.391673	-1.575342	-0.655190	6.040363	1.100613	-0.918213	0.121826	0.125488	0.058007	0.007022	0.084605	0.195504	0.539686	-0.134852	0.807671	-1.023837	-67.593919	153.470842
56285		6.509914	0.374209	9.159973	4.811594	-3.077643	-0.129714	-0.818908	6.116130	0.973711	-0.918701	0.128662	0.065430	0.067838	0.004437	0.089536	0.197818	0.513132	-0.134774	0.824257	-2.510486	-64.056534	154.579619
56286		7.573798	0.960577	10.137067	4.246129	-3.647108	1.574223	-0.915789	6.159321	0.841942	-0.912354	0.137939	0.007324	0.078767	0.010390	0.098929	0.200753	0.486047	-0.134581	0.839848	-3.599350	-60.510587	155.213064
56287		9.090779	2.122591	11.038551	2.934106	-4.533142	3.595133	-1.085876	6.220328	0.716945	-0.916992	0.140381	-0.059326	0.094201	0.022148	0.107371	0.204471	0.457965	-0.134600	0.854601	-4.493735	-56.908355	155.524975
56288		10.344666	2.789876	11.555218	1.468156	-4.805635	5.119924	-1.349845	6.316211	0.576929	-0.901855	0.149658	-0.121582	0.106939	0.028968	0.112018	0.209240	0.428995	-0.135193	0.868277	-5.301220	-53.278232	155.562599
56289		10.927666	2.450127	11.673527	0.398137	-4.134912	5.818629	-1.612492	6.359429	0.427137	-0.886230	0.152344	-0.183838	0.112855	0.025661	0.112980	0.215032	0.399029	-0.136408	0.880869	-6.086506	-49.609732	155.378274
56290		11.750144	1.233980	11.967949	-0.337988	-2.678373	6.783469	-1.777506	6.289196	0.292258	-0.866211	0.152832	-0.250732	0.121165	0.013556	0.115790	0.221464	0.369034	-0.138017	0.892031	-6.845382	-46.014134	155.023702
56291		12.463461	-0.319335	12.551471	-0.725286	-1.043543	7.829939	-1.720220	6.120653	0.215370	-0.837402	0.162598	-0.302002	0.128400	-0.001999	0.121644	0.227788	0.339341	-0.139261	0.901979	-7.530856	-42.500880	154.585769
56292		13.067291	-1.473890	13.946394	-0.842448	-0.080290	9.334234	-1.506365	5.877196	0.229456	-0.803955	0.165527	-0.353271	0.134713	-0.013555	0.135650	0.233293	0.310832	-0.139720	0.910734	-8.114758	-39.150667	154.154020
56293		15.580556	-1.717018	16.585340	-2.303294	0.322411	12.885906	-1.288092	5.618098	0.371610	-0.761475	0.168701	-0.391357	0.160414	-0.015825	0.161495	0.237424	0.283202	-0.139573	0.918665	-8.661540	-35.916934	153.830767
56294		20.553507	-1.471317	19.117430	-6.242303	1.371355	17.555642	-1.209539	5.587346	0.701021	-0.714600	0.176270	-0.436035	0.210816	-0.012847	0.185415	0.239713	0.255523	-0.139465	0.926172	-9.288572	-32.695864	153.708183
56295		25.431867	-2.721100	20.497976	-10.361549	4.255641	20.985850	-1.222684	5.866570	1.167802	-0.669922	0.186279	-0.454346	0.260335	-0.024479	0.197557	0.239836	0.225808	-0.139543	0.933819	-10.053278	-29.252661	153.821559
56296		28.500578	-4.531349	19.109871	-14.196621	8.024725	20.709981	-1.088231	6.289364	1.705606	-0.620605	0.187256	-0.479004	0.291197	-0.041840	0.182239	0.237354	0.193854	-0.138966	0.941686	-10.840222	-25.535317	154.169686
56297		30.045154	1.038060	15.359233	-21.233843	5.664656	15.804857	-0.804765	6.567915	2.511343	-0.580566	0.192627	-0.505859	0.305109	0.014784	0.143569	0.230711	0.159980	-0.137330	0.949905	-11.603741	-21.549141	154.912407
56298		28.162389	2.633047	10.729170	-23.144682	5.213074	8.945899	-1.193224	6.582153	3.507749	-0.545166	0.206543	-0.526367	0.284420	0.031906	0.097781	0.219356	0.124853	-0.138146	0.957711	-12.705902	-17.442679	156.155725
56299		29.533008	-3.076968	5.226395	-24.074100	12.185585	3.622403	-1.105879	6.202703	4.234026	-0.505127	0.218506	-0.549072	0.297323	-0.024233	0.043208	0.203884	0.090831	-0.139199	0.964782	-13.771612	-13.416283	157.762404
56300		29.763676	-9.921622	-0.913692	-23.312087	19.650753	-2.387649	0.374979	5.501801	4.715163	-0.471924	0.232666	-0.567383	0.299460	-0.092142	-0.017536	0.184658	0.061364	-0.133865	0.971708	-13.942366	-9.711906	159.670522
56301		27.922512	-3.352892	-6.295983	-25.249443	13.814337	-11.165477	2.575534	4.497122	4.917712	-0.447021	0.226563	-0.593994	0.278408	-0.025808	-0.069593	0.162856	0.038506	-0.118654	0.978732	-12.777228	-6.547189	161.839561
56302		40.787824	16.967816	-14.393228	-44.335955	-0.554550	-23.671330	2.529838	3.723085	4.655610	-0.422607	0.233643	-0.607422	0.401008	0.180933	-0.149199	0.141703	0.019596	-0.104110	0.984224	-11.527878	-3.903637	164.008565
56303		47.837849	30.144542	-24.169797	-53.919940	-10.698272	-37.358286	-1.333403	3.335446	3.428692	-0.403320	0.260742	-0.612549	0.468995	0.307884	-0.251611	0.126642	0.000442	-0.108638	0.985981	-12.368818	-1.626691	165.537997
56304		35.865411	15.228882	-28.693764	-37.220868	0.975742	-40.715421	-4.351932	2.075276	2.249614	-0.384521	0.296631	-0.604736	0.353933	0.149943	-0.293907	0.116634	-0.013736	-0.128772	0.984696	-14.880724	-0.171125	166.512285
56305		19.365468	-7.560585	-24.692515	-15.728771	18.047533	-31.463583	-2.899364	-0.347244	0.778927	-0.393799	0.302979	-0.602539	0.194383	-0.078415	-0.245465	0.112355	-0.014158	-0.143191	0.983195	-16.544077	-0.248457	166.997690
56306		19.287995	-11.661473	-13.029681	-15.610454	18.825206	-18.740201	1.193068	-2.452999	-0.679971	-0.413330	0.289307	-0.591064	0.194068	-0.116503	-0.128617	0.114003	-0.000912	-0.138767	0.983741	-15.863754	-1.710282	167.017641
56307		20.267145	2.289531	2.558029	-20.278049	1.819361	-6.987957	3.277972	-2.984461	-1.717948	-0.437012	0.257813	-0.583496	0.202440	0.020699	0.028954	0.120357	0.016911	-0.124348	0.984767	-13.964480	-3.625773	166.508048
56308		12.563866	4.203450	-2.692010	-13.271745	-0.259062	-12.368458	2.574904	-2.907288	-2.774317	-0.456299	0.232910	-0.576172	0.126577	0.040609	-0.024556	0.131946	0.034523	-0.113180	0.984169	-12.397679	-5.613699	165.338166
56309		3.499906	-10.310095	13.366610	0.341449	7.626590	5.642300	2.976623	-3.441066	-3.140321	-0.479736	0.198975	-0.559814	0.031066	-0.105589	0.132664	0.144881	0.055288	-0.100250	0.982804	-10.531305	-7.916135	163.958930
56310		-0.299492	3.882544	22.844849	1.433699	-8.306665	11.771781	3.763729	-3.631707	-2.750923	-0.505371	0.167480	-0.550049	-0.006655	0.034593	0.229027	0.155464	0.077241	-0.083614	0.981261	-8.183317	-10.229164	162.728253
56311		7.734192	4.720377	17.024773	-6.205543	-5.306474	7.657406	2.222497	-4.249330	-0.719907	-0.525391	0.162598	-0.527832	0.073859	0.045026	0.172350	0.156310	0.100196	-0.075742	0.979689	-6.893465	-12.709101	162.638283
56312		20.284716	-0.806484	13.257535	-15.963629	4.103244	7.966577	1.215466	-4.703682	0.828145	-0.543701	0.168701	-0.501221	0.199689	-0.008058	0.137248	0.149809	0.123869	-0.073887	0.978138	-6.395804	-15.334878	163.446704
56313		29.306372	6.226879	13.962624	-25.561315	-0.730490	11.127884	0.588569	-4.038717	1.483193	-0.566162	0.175049	-0.485596	0.289692	0.064003	0.145686	0.140660	0.143600	-0.074963	0.976716	-6.385449	-17.553814	164.596848
56314		15.325106	5.544353	11.602393	-12.469888	-3.684714	5.389353	0.336174	-3.238857	0.734475	-0.575684	0.185791	-0.477051	0.151140	0.055803	0.118577	0.135593	0.159386	-0.076147	0.974891	-6.404739	-19.354891	165.256909
56315		9.283005	7.857299	8.791324	-8.015160	-6.990522	0.773859	0.112155	-3.100448	0.003717	-0.584717	0.185547	-0.463623	0.091451	0.078525	0.089382	0.134287	0.174695	-0.077717	0.972321	-6.415109	-21.136527	165.471333
56316		14.591456	0.275917	9.904549	-9.900578	1.119757	4.740340	0.066183	-2.839213	-0.010885	-0.587158	0.194580	-0.461670	0.144489	0.002718	0.101104	0.133161	0.188557	-0.079315	0.969754	-6.451594	-22.757481	165.662501
56317		13.809125	-4.873876	10.813629	-7.045815	5.538145	6.032031	0.281011	-2.199297	0.101816	-0.603271	0.205322	-0.463867	0.136916	-0.048822	0.109578	0.131522	0.199505	-0.079524	0.967768	-6.376520	-24.020727	165.879434
56318		12.891233	-2.971003	11.655875	-6.177330	3.293743	6.369250	0.513314	-1.636604	-0.156654	-0.612305	0.205078	-0.466064	0.127930	-0.030111	0.117531	0.131108	0.207845	-0.077988	0.966193	-6.091659	-24.966385	165.894634
56319		7.251615	1.060633	9.831585	-2.851651	-1.417274	2.029113	0.401855	-1.189672	-0.362476	-0.619141	0.207275	-0.472900	0.071948	0.010277	0.098766	0.131975	0.214148	-0.076470	0.964819	-5.797620	-25.684280	165.744747
56320		8.323921	-1.389552	9.880046	-2.915224	1.164099	2.795972	0.313136	-1.050481	-0.357353	-0.628418	0.213623	-0.472900	0.082694	-0.014199	0.099214	0.132956	0.219584	-0.075299	0.963554	-5.551404	-26.307221	165.585609
56321		7.760669	0.691238	9.765696	-2.945490	-0.900482	2.294616	0.337327	-0.761048	-0.345719	-0.644287	0.219971	-0.481934	0.077246	0.006614	0.097963	0.133963	0.223758	-0.073820	0.962568	-5.280564	-26.778479	165.411561
56322		5.758308	0.691832	9.392175	-1.278027	-1.255227	1.079522	0.216465	-0.637112	-0.288299	-0.655518	0.219971	-0.490723	0.057293	0.006734	0.094112	0.134869	0.227102	-0.072913	0.961727	-5.093163	-27.160730	165.265313
56323		6.232889	-1.314852	9.264668	-1.073923	0.805631	1.350151	0.225907	-0.569870	-0.298019	-0.669189	0.219727	-0.492676	0.062045	-0.013346	0.092809	0.135837	0.230256	-0.071890	0.960917	-4.890543	-27.519185	165.105974
56324		6.122721	-1.120289	8.584107	-1.255834	0.754139	0.688904	0.299599	-0.475537	-0.324930	-0.687256	0.223633	-0.499512	0.061004	-0.011431	0.085969	0.136879	0.232889	-0.070430	0.960243	-4.637034	-27.809951	164.923328
56325		5.293557	-0.085342	8.847784	-0.680585	-0.449776	0.465763	0.250455	-0.409199	-0.310724	-0.696289	0.228027	-0.495117	0.052753	-0.001046	0.088585	0.137934	0.235285	-0.069165	0.959600	-4.409341	-28.075825	164.743497
56326		5.336160	0.447304	9.590912	-0.502700	-1.077033	1.107357	0.144020	-0.404113	-0.224122	-0.709717	0.225586	-0.494873	0.053173	0.004344	0.096020	0.138697	0.237429	-0.068520	0.959008	-4.271112	-28.320210	164.619348
56327		5.372326	0.447254	9.077909	-0.709147	-0.964258	0.677191	0.018306	-0.380750	-0.136673	-0.716553	0.225342	-0.506104	0.053553	0.004428	0.090882	0.139200	0.239462	-0.068553	0.958427	-4.227073	-28.561310	164.548935
56328		5.445783	0.843395	8.775944	-0.982129	-1.271447	0.424684	-0.006858	-0.402694	-0.071088	-0.725830	0.231934	-0.499512	0.054284	0.008418	0.087869	0.139407	0.241439	-0.068812	0.957882	-4.221632	-28.798204	164.523260
56329		5.401977	1.289866	9.131733	-0.878558	-1.792155	0.687304	-0.056161	-0.411224	0.009696	-0.732666	0.236084	-0.490723	0.053831	0.012927	0.091425	0.139288	0.243512	-0.069396	0.957332	-4.266343	-29.050176	164.549418
56330		5.432326	1.295412	9.471590	-0.714714	-1.882496	0.996775	-0.105051	-0.402290	0.100008	-0.743896	0.235840	-0.488281	0.054126	0.013031	0.094818	0.138794	0.245357	-0.070332	0.956864	-4.371675	-29.279493	164.635995
56331		5.633078	0.669784	9.100387	-0.824451	-1.198284	0.811880	-0.165392	-0.390659	0.168098	-0.753174	0.244629	-0.484131	0.056147	0.006820	0.091108	0.138057	0.247195	-0.071615	0.956403	-4.529942	-29.512240	164.765923
56332		5.969100	0.138591	8.426835	-1.220200	-0.514736	0.429719	-0.167716	-0.393469	0.188380	-0.753174	0.246826	-0.481934	0.059524	0.001513	0.084384	0.137219	0.248921	-0.072953	0.955975	-4.701113	-29.732051	164.911844
56333		5.354997	-0.223561	8.783367	-0.401757	-0.418954	0.460404	-0.158802	-0.368277	0.183164	-0.760254	0.253418	-0.477539	0.053390	-0.002117	0.087934	0.136409	0.250645	-0.074206	0.955543	-4.861798	-29.950382	165.052448
56334		4.963507	-0.928749	8.866509	0.202681	0.113743	0.388283	-0.157626	-0.353275	0.162280	-0.769287	0.257568	-0.470947	0.049486	-0.009177	0.088760	0.135697	0.252193	-0.075435	0.955141	-5.019398	-30.147814	165.180929
56335		5.085572	-1.579428	8.616538	0.208993	0.783321	0.284093	-0.126514	-0.350392	0.120783	-0.769531	0.259766	-0.462158	0.050714	-0.015709	0.086264	0.135149	0.253872	-0.076443	0.954694	-5.142228	-30.358098	165.281131
56336		5.246162	-0.975294	8.374868	-0.186955	0.270676	0.112205	-0.078790	-0.361468	0.087419	-0.769531	0.261963	-0.457764	0.052314	-0.009697	0.083847	0.134691	0.255539	-0.077206	0.954252	-5.231355	-30.563602	165.362071
56337		5.379464	-0.740236	8.332207	-0.353252	0.063159	0.126294	-0.075121	-0.383399	0.077027	-0.780762	0.261719	-0.450928	0.053638	-0.007350	0.083428	0.134273	0.257421	-0.077936	0.953746	-5.312465	-30.794385	165.436563
56338		4.348957	-0.380667	8.988509	0.739182	-0.668153	0.130082	-0.120558	-0.393063	0.065710	-0.776367	0.268555	-0.448975	0.043314	-0.003738	0.089973	0.133959	0.259217	-0.078890	0.953225	-5.420241	-31.018857	165.506166
56339		4.344801	-0.128908	9.265213	0.837495	-0.998042	0.338194	-0.168371	-0.451720	0.076805	-0.778809	0.272949	-0.433594	0.043239	-0.001194	0.092751	0.133634	0.261357	-0.080111	0.952584	-5.558280	-31.287975	165.586234
56340		4.586293	-0.845428	9.131872	0.828561	-0.271815	0.403927	-0.240216	-0.532081	0.077621	-0.781250	0.277344	-0.433594	0.045623	-0.008327	0.091450	0.133362	0.263726	-0.081742	0.951830	-5.745005	-31.590739	165.674693
56341		5.354707	-0.170985	8.593002	-0.214560	-0.670879	0.289062	-0.219527	-0.595513	0.097307	-0.785889	0.279297	-0.427002	0.053292	-0.001589	0.086091	0.132947	0.266499	-0.083328	0.950978	-5.926807	-31.939708	165.780698
56342		5.110871	-0.688473	8.449369	0.121565	-0.239343	0.082483	-0.241960	-0.621694	0.101779	-0.785889	0.279297	-0.420410	0.050849	-0.006756	0.084660	0.132523	0.269279	-0.085058	0.950101	-6.129036	-32.291577	165.894769
56343		5.226498	-0.619583	8.305285	-0.010090	-0.290597	0.015486	-0.238573	-0.631919	0.092724	-0.801514	0.281250	-0.409180	0.052005	-0.006072	0.083225	0.132138	0.272205	-0.086750	0.949167	-6.324612	-32.660610	166.003902
56344		6.063885	-0.686336	7.665446	-0.936922	0.052079	-0.059744	-0.251441	-0.647235	0.064743	-0.799316	0.281250	-0.402588	0.060393	-0.006747	0.076859	0.131888	0.275109	-0.088489	0.948204	-6.523013	-33.028719	166.098643
56345		6.447495	-0.544114	7.324085	-1.406761	0.033969	-0.141701	-0.300823	-0.631664	0.020889	-0.808105	0.274414	-0.393555	0.064244	-0.005324	0.073452	0.131926	0.278015	-0.090376	0.947172	-6.730882	-33.401463	166.162790
56346		5.748293	-0.779299	7.483457	-0.637838	0.035715	-0.365792	-0.334661	-0.629306	-0.001088	-0.814941	0.281006	-0.389160	0.057247	-0.007668	0.075028	0.132109	0.280801	-0.092404	0.946129	-6.954536	-33.763275	166.215138
56347		4.797828	-1.504907	8.032459	0.679375	0.355499	-0.367265	-0.336208	-0.613654	-0.039153	-0.823975	0.278564	-0.377930	0.047729	-0.014923	0.080496	0.132485	0.283618	-0.094361	0.945042	-7.161732	-34.129447	166.240427
56348		4.065254	-1.388535	8.322883	1.433180	-0.014275	-0.556872	-0.333059	-0.632853	-0.128605	-0.821289	0.271973	-0.368896	0.040380	-0.013773	0.083380	0.133263	0.286474	-0.096201	0.943885	-7.337738	-34.502175	166.208899
56349		5.080034	-1.839372	7.766510	0.531956	0.717141	-0.394034	-0.341157	-0.671299	-0.246433	-0.836914	0.269287	-0.355469	0.050517	-0.018323	0.077866	0.134595	0.289647	-0.097922	0.942550	-7.471190	-34.915811	166.098978
56350		5.664653	-1.922131	7.426533	-0.018729	0.969739	-0.326114	-0.270663	-0.687655	-0.340398	-0.843750	0.266846	-0.348633	0.056358	-0.019217	0.074485	0.136251	0.292897	-0.099197	0.941173	-7.530296	-35.335622	165.927050
56351		5.508710	-1.221664	7.631215	0.063218	0.200781	-0.324324	-0.237159	-0.718636	-0.383146	-0.850342	0.266846	-0.335449	0.054789	-0.012231	0.076524	0.138047	0.296417	-0.100258	0.939696	-7.550048	-35.786339	165.726125
56352		5.153176	-0.861245	8.291232	0.650759	-0.410174	-0.042875	-0.205008	-0.773712	-0.382425	-0.863525	0.261963	-0.312988	0.051194	-0.008625	0.083120	0.139756	0.300127	-0.101219	0.938161	-7.555844	-36.258322	165.531234
56353		5.692489	-0.358438	8.374914	0.196252	-0.822214	0.284680	-0.203112	-0.892943	-0.362894	-0.870117	0.252930	-0.299561	0.056544	-0.003602	0.084006	0.141313	0.304463	-0.102268	0.936416	-7.570230	-36.806241	165.358649
56354		5.856602	-0.191677	8.833357	0.359619	-1.104598	0.723642	-0.208511	-1.039324	-0.313359	-0.878418	0.241699	-0.272461	0.058103	-0.001916	0.088638	0.142562	0.309364	-0.103531	0.934479	-7.618531	-37.423958	165.235820
56355		4.788636	0.217774	9.779806	1.677819	-2.016780	0.757985	-0.254534	-1.226701	-0.233994	-0.889893	0.245850	-0.252686	0.047288	0.002247	0.098086	0.143415	0.315135	-0.105247	0.932226	-7.734826	-38.151457	165.186477
56356		5.284666	0.169427	9.782425	1.453642	-1.935602	1.040432	-0.280797	-1.522156	-0.148520	-0.889648	0.243408	-0.223633	0.052101	0.001793	0.098220	0.143743	0.322124	-0.107441	0.929532	-7.927285	-39.030767	165.232360
56357		5.784617	0.633476	9.485830	0.921013	-2.265633	1.043611	-0.334579	-1.833403	-0.069630	-0.895996	0.234375	-0.190186	0.056976	0.006474	0.095373	0.143620	0.330529	-0.110212	0.926271	-8.208624	-40.088912	165.372121
56358		5.680837	0.667020	9.589035	1.243362	-2.451065	1.008942	-0.376358	-2.195534	0.064261	-0.898682	0.243164	-0.150391	0.055749	0.006869	0.096493	0.142723	0.340397	-0.113662	0.922410	-8.618120	-41.331641	165.664788
56359		5.346471	0.639591	10.163476	2.075185	-2.791291	1.150190	-0.421514	-2.608520	0.172093	-0.905029	0.236328	-0.119141	0.052128	0.006656	0.102307	0.141160	0.352095	-0.117763	0.917733	-9.156242	-42.805058	166.106570
56360		5.380440	0.495880	10.065836	2.317381	-2.773406	1.024449	-0.517088	-3.062988	0.231855	-0.898438	0.242920	-0.072754	0.052249	0.005282	0.101453	0.139184	0.365632	-0.122722	0.912075	-9.858569	-44.517666	166.690347
56361		5.942946	-0.653269	10.053226	2.639599	-1.790557	1.440066	-0.663487	-3.520962	0.235479	-0.898193	0.240479	-0.030518	0.057655	-0.006128	0.101578	0.137150	0.381113	-0.128619	0.905207	-10.741116	-46.489814	167.393659
56362		5.156982	-1.564539	10.254188	3.982638	-1.334720	0.982198	-0.702102	-3.984280	0.166481	-0.898193	0.244873	0.020508	0.049526	-0.015241	0.103596	0.135143	0.398504	-0.134850	0.897077	-11.737954	-48.713937	168.194554
56363		5.489970	-1.726482	9.637847	3.818001	-1.133344	0.681346	-0.650361	-4.580235	0.058560	-0.891602	0.249268	0.071533	0.052678	-0.016933	0.097657	0.133064	0.418542	-0.140951	0.887270	-12.815134	-51.281808	169.112829
56364		4.000115	-1.451488	11.092717	6.113022	-2.305061	0.109126	-0.771986	-5.116572	-0.052593	-0.882324	0.242676	0.135986	0.037142	-0.014094	0.111957	0.131262	0.440647	-0.147652	0.875671	-14.121114	-54.143460	170.194191
56365		4.721975	-3.495516	11.672638	7.381978	-0.799271	0.938406	-0.760965	-5.831725	-0.256299	-0.873291	0.244873	0.191406	0.043743	-0.034565	0.118168	0.129713	0.465748	-0.154191	0.861672	-15.610067	-57.420506	171.465377
56366		5.557297	-1.106506	10.195006	5.535433	-2.604526	0.115554	-0.764177	-6.685135	-0.408623	-0.846191	0.245117	0.260010	0.052102	-0.010780	0.103772	0.128027	0.494124	-0.160808	0.844744	-17.515274	-61.162461	173.167495
56367		8.876994	-4.028789	14.437618	9.224853	-1.786441	4.851777	-1.313162	-7.365715	-0.497648	-0.829834	0.234131	0.324463	0.083270	-0.039537	0.147772	0.127377	0.524499	-0.169734	0.824540	-20.455706	-65.255249	175.614752
56368		11.025349	-10.231188	14.237436	11.702619	3.507369	6.905031	-1.281195	-7.898176	-0.771937	-0.807129	0.227783	0.400146	0.104109	-0.101789	0.147221	0.127116	0.556490	-0.177911	0.801566	-24.368416	-69.612477	179.050683
56369		13.982476	-9.520738	14.478716	11.951345	2.267908	8.829988	-1.142117	-7.915618	-1.417362	-0.776855	0.203613	0.471436	0.133262	-0.095318	0.150693	0.128844	0.588326	-0.183440	0.776931	-29.028121	-74.038652	-176.739815
56370		15.670577	-5.623070	16.608702	13.190245	-2.673801	9.464241	-1.285209	-7.795341	-1.859967	-0.740234	0.188721	0.524902	0.149543	-0.056549	0.172373	0.132596	0.619014	-0.187859	0.750966	-35.889853	-78.388483	-170.441091
56371		21.008209	-5.464481	18.225452	15.149782	-4.196774	13.762964	-1.273765	-7.678946	-2.181771	-0.703369	0.166992	0.585205	0.202269	-0.055684	0.190475	0.137425	0.648565	-0.190840	0.723919	-48.782571	-82.510400	-158.119580
56372		17.301591	-2.045428	19.241779	16.545391	-7.919750	8.545048	-1.067086	-7.039372	-2.416910	-0.675293	0.143066	0.632080	0.165846	-0.021439	0.198453	0.142823	0.675171	-0.191595	0.697880	-78.721208	-85.639658	-128.655430
56373		11.577322	-4.204148	19.869764	19.395909	-6.237584	1.641155	-1.246492	-6.528542	-2.419015	-0.638672	0.128174	0.667725	0.108692	-0.042130	0.202586	0.149148	0.698959	-0.192333	0.672472	-135.504142	-85.894100	-72.460034
56374		14.006995	-9.176744	26.188669	28.112529	-5.226252	2.364836	-1.096526	-5.893648	-2.539013	-0.613037	0.104004	0.699219	0.131097	-0.092018	0.266343	0.155775	0.720043	-0.191467	0.648547	-167.707572	-83.521595	-40.766108
56375		-9.332448	-4.489878	16.600285	15.530458	-3.309114	-21.239650	-1.487443	-4.798567	-2.644482	-0.584961	0.075684	0.728516	-0.097848	-0.042400	0.164013	0.165071	0.736667	-0.190446	0.627538	178.483457	-80.912071	-27.696738
56376		32.252764	-2.613911	17.220318	21.346987	-8.414690	18.767747	-1.602730	-4.358607	-2.972311	-0.572754	0.046875	0.735840	0.318248	-0.029472	0.179398	0.176094	0.751583	-0.188079	0.607240	169.743413	-78.243203	-19.749558
56377		30.636935	-8.765563	27.346854	33.576600	-7.917839	14.128692	-1.529828	-0.774718	-2.512865	-0.583252	0.029053	0.731934	0.304189	-0.089385	0.275329	0.188750	0.754829	-0.183960	0.600637	162.845939	-77.475111	-13.595084
56378		13.535836	-11.324416	20.981903	26.117952	-1.501180	-1.609135	-1.009223	1.631362	-2.053593	-0.609619	0.012939	0.714600	0.135902	-0.113581	0.209285	0.200217	0.750806	-0.177710	0.603840	155.704718	-77.930391	-6.881441
56379		0.705231	-12.289696	15.300022	19.202413	2.599228	-12.995851	-0.357468	2.510907	-1.517590	-0.643066	0.003418	0.688232	0.008043	-0.122682	0.153123	0.208377	0.744070	-0.170586	0.611424	148.478168	-78.806391	0.282505
56380		-3.272691	-10.578973	11.586322	14.498653	3.025376	-15.936558	0.383422	2.452808	-1.125072	-0.667480	-0.001465	0.670654	-0.031900	-0.105831	0.116055	0.212471	0.737876	-0.162685	0.619619	141.720239	-79.588942	7.382520
56381		-1.329650	-6.691475	9.682793	11.338670	0.744824	-13.155920	0.696518	2.338815	-0.759089	-0.690186	0.002686	0.646484	-0.012420	-0.067204	0.096743	0.214160	0.731849	-0.155264	0.628033	135.235336	-80.317048	14.368444
56382		1.389084	-3.866772	9.764691	10.480375	-1.538963	-9.949621	0.509383	2.557288	-0.272682	-0.714844	-0.004395	0.620117	0.015084	-0.038936	0.097360	0.215128	0.724528	-0.149944	0.637413	128.188632	-81.175181	21.800320
56383		3.047101	-3.182054	9.975259	10.547375	-2.063978	-7.968785	0.093679	3.065190	0.266665	-0.744141	-0.002686	0.584717	0.032037	-0.031825	0.099255	0.216231	0.714485	-0.147335	0.648882	118.665899	-82.285635	31.471129
56384		2.883448	-4.361686	9.568864	10.703278	-0.796601	-7.890737	-0.160727	3.667868	0.727931	-0.776123	0.010254	0.555664	0.030741	-0.043431	0.095171	0.217117	0.701766	-0.146495	0.662513	104.142283	-83.449542	46.010273
56385		2.552146	-5.663141	8.919505	10.683227	0.675299	-7.931645	-0.092765	4.191679	1.025669	-0.805420	0.011963	0.504639	0.027673	-0.056452	0.088656	0.217082	0.686764	-0.145857	0.678201	81.965518	-84.184626	68.254092
56386		3.060149	-5.925894	8.224230	10.120352	1.377058	-7.023094	0.225493	4.646171	1.175336	-0.826172	0.022705	0.458008	0.032847	-0.059162	0.081430	0.215657	0.670217	-0.144073	0.695373	55.879617	-83.848982	94.604733
56387		3.542136	-4.809622	7.735810	8.974114	0.830231	-6.034125	0.570370	5.048040	1.231953	-0.855957	0.033447	0.400146	0.037652	-0.048087	0.076289	0.213039	0.652051	-0.140769	0.713882	34.929286	-82.287501	116.027218
56388		3.737136	-2.636224	7.435514	7.431313	-0.734957	-5.294003	0.709479	5.382041	1.240575	-0.879150	0.051025	0.348877	0.039516	-0.026383	0.073217	0.210011	0.632491	-0.136524	0.732947	21.945879	-79.901660	129.573207
56389		3.628441	-0.604929	7.234645	6.058017	-2.274739	-4.915792	0.550885	5.645625	1.214219	-0.895508	0.062012	0.297607	0.038343	-0.006018	0.071267	0.207596	0.611160	-0.132404	0.752234	14.054921	-77.018901	137.939755
56390		3.741168	0.667302	7.255150	5.192658	-3.242998	-4.373950	0.159337	5.808046	1.172060	-0.903076	0.082031	0.226074	0.039457	0.006843	0.071431	0.206461	0.588459	-0.129330	0.770950	9.036542	-73.893591	143.213365
56391		4.381147	0.893446	7.444474	4.782265	-3.289374	-3.355018	-0.289507	5.886971	1.107922	-0.914551	0.084229	0.170654	0.045926	0.009291	0.073100	0.206767	0.564352	-0.127612	0.788967	5.533964	-70.610302	146.708645
56392		5.370113	0.418532	7.729458	4.562820	-2.684468	-2.021323	-0.652773	5.937153	1.001718	-0.917236	0.093018	0.108398	0.055940	0.004710	0.075641	0.208355	0.539383	-0.126848	0.805955	3.010594	-67.264049	149.007586
56393		6.394569	0.041026	8.338808	4.396261	-2.265401	-0.542595	-0.862422	5.971328	0.867346	-0.919678	0.099854	0.050537	0.066393	0.001049	0.081426	0.210886	0.513477	-0.126421	0.822123	1.131186	-63.844764	150.521384
56394		7.553482	0.475416	9.174828	3.808106	-2.580688	1.153295	-0.985712	5.998015	0.759349	-0.920166	0.104492	-0.013916	0.078220	0.005492	0.089403	0.213990	0.487087	-0.126071	0.837294	-0.307892	-60.415136	151.506428
56395		8.974478	1.282347	9.856523	2.607100	-3.035222	2.965024	-1.179495	6.045210	0.691773	-0.909180	0.109375	-0.076416	0.092620	0.013711	0.095715	0.217681	0.459694	-0.126201	0.851686	-1.557717	-56.926776	152.170146
56396		9.830730	1.092698	10.227782	1.744419	-2.577158	4.068692	-1.421403	6.124085	0.633594	-0.894043	0.120850	-0.132080	0.101338	0.011957	0.099123	0.222006	0.431466	-0.127015	0.865111	-2.710385	-53.410690	152.578142
56397		10.463602	0.176959	10.688898	1.294022	-1.553923	5.006458	-1.591447	6.122945	0.603205	-0.880371	0.114746	-0.194336	0.107834	0.002925	0.103600	0.226610	0.402455	-0.128373	0.877609	-3.818382	-49.869466	152.819270
56398		11.658616	-0.807317	11.329444	0.576622	-0.355612	6.447298	-1.640485	6.054470	0.619920	-0.856201	0.126465	-0.252441	0.119967	-0.006795	0.109756	0.230963	0.373459	-0.129928	0.888990	-4.864959	-46.387404	152.958074
56399		13.078495	-1.485339	12.422050	-0.317737	0.513304	8.273068	-1.613910	5.956819	0.710640	-0.829590	0.135986	-0.303711	0.134458	-0.013398	0.120364	0.234575	0.344314	-0.131520	0.899514	-5.885333	-42.932207	153.083907
56400		14.907015	-1.890966	14.220858	-1.436515	1.056350	10.795974	-1.571759	5.889736	0.883058	-0.793945	0.141357	-0.354980	0.153252	-0.017144	0.137875	0.237069	0.315265	-0.133173	0.909215	-6.901545	-39.526066	153.254440
56401		17.659032	-1.814863	16.373729	-3.600706	1.442270	14.020144	-1.571718	5.914210	1.143303	-0.754150	0.157715	-0.388916	0.181425	-0.015861	0.158550	0.238165	0.285440	-0.135079	0.918453	-7.975646	-36.062508	153.525560
56402		20.319446	-2.393061	18.289400	-5.896441	2.515279	16.866082	-1.652442	6.069811	1.440629	-0.705322	0.172119	-0.425049	0.208780	-0.020962	0.176795	0.237879	0.254505	-0.137458	0.927225	-9.130534	-32.504405	153.889053
56403		23.181810	-4.518953	19.122680	-8.423213	5.447766	18.867042	-1.668027	6.291440	1.709219	-0.658691	0.184082	-0.456543	0.238052	-0.041617	0.184160	0.236255	0.221881	-0.139839	0.935627	-10.306611	-28.768459	154.306949
56404		25.095715	-6.597160	18.174615	-11.118599	8.681344	18.546775	-1.453842	6.475225	1.989181	-0.623047	0.189453	-0.472412	0.257305	-0.062150	0.173944	0.232943	0.188379	-0.141147	0.943572	-11.357367	-24.913997	154.781731
56405		26.772945	1.541491	15.031262	-19.210087	3.833671	13.872617	-1.103010	6.466391	2.560940	-0.582764	0.194580	-0.503662	0.272165	0.019678	0.141459	0.226302	0.154527	-0.141181	0.951303	-12.284515	-20.971524	155.519728
56406		25.968262	5.052764	12.124844	-22.373268	1.526965	8.724060	-1.777278	6.341569	3.529763	-0.547363	0.208740	-0.519775	0.262384	0.056169	0.112474	0.215200	0.119787	-0.145120	0.958269	-13.703642	-16.979849	156.741157
56407		27.684206	-1.147016	7.696524	-23.151040	8.712675	4.840336	-1.924428	5.907080	4.099142	-0.514648	0.236084	-0.536133	0.279103	-0.005076	0.068812	0.200832	0.086255	-0.150367	0.964166	-15.196987	-13.104305	158.223213
