// General information: 
//  MT Manager version: 2019.2.0 
//  XDA version: 2019.2.0 build 3853 rev 94535 built on 2019-09-09
// Device information: 
//  DeviceId: 00B40A23
//  ProductCode: MTW2-3A7G6
//  Firmware Version: 4.3.5
//  Hardware Version: 1.1.0
// Device settings: 
//  Filter Profile: human(46.1)
//  Option Flags: Orientation Smoother Disabled, AHS Disabled, ICC Disabled
// Coordinate system: ENU
PacketCounter	SampleTimeFine	Acc_X	Acc_Y	Acc_Z	FreeAcc_E	FreeAcc_N	FreeAcc_U	Gyr_X	Gyr_Y	Gyr_Z	Mag_X	Mag_Y	Mag_Z	VelInc_X	VelInc_Y	VelInc_Z	Quat_q0	Quat_q1	Quat_q2	Quat_q3	Roll	Pitch	Yaw
03337		5.678427	0.325401	8.345683	-0.000000	-0.000000	0.286859	-0.015419	-0.034220	-0.017389	-0.725098	0.214111	-0.461426	0.056770	0.003256	0.083466	0.263977	-0.278002	-0.097451	-0.918441	2.233625	-34.201645	-148.616020
03338		5.247747	0.464938	8.176955	0.000000	0.000000	-0.085529	-0.003702	-0.051449	-0.035730	-0.738525	0.211670	-0.465576	0.052457	0.004642	0.081783	0.253343	-0.264520	-0.098208	-0.925312	3.248291	-32.635092	-150.327428
03339		5.310007	0.772318	8.252493	0.304438	-0.257911	0.022814	-0.009387	-0.053060	-0.038816	-0.742920	0.213623	-0.470215	0.053080	0.007717	0.082539	0.258022	-0.271609	-0.097694	-0.922014	2.747180	-33.454093	-149.557652
03340		5.784811	1.148575	8.099818	0.096964	-0.823249	0.172460	-0.015729	-0.054077	-0.024949	-0.750000	0.220215	-0.470215	0.057828	0.011485	0.081013	0.257859	-0.271866	-0.097725	-0.921980	2.748589	-33.484356	-149.576549
03341		5.838537	1.328408	7.891158	0.063818	-1.064478	0.035478	-0.039077	-0.036464	0.009912	-0.751953	0.215820	-0.468018	0.058370	0.013302	0.078920	0.257833	-0.272091	-0.097581	-0.921936	2.723373	-33.505716	-149.571100
03342		6.475979	1.426129	7.644252	-0.447949	-1.499133	0.185247	-0.067531	-0.034880	0.059059	-0.763672	0.226563	-0.472412	0.064742	0.014306	0.076449	0.257996	-0.272368	-0.097234	-0.921846	2.662916	-33.527268	-149.531685
03343		5.503074	1.507448	8.240524	0.572464	-0.974395	0.146493	-0.118667	-0.016305	0.100266	-0.765869	0.226563	-0.470215	0.055016	0.015151	0.082401	0.258280	-0.272657	-0.096600	-0.921747	2.560699	-33.541487	-149.465292
03344		5.308557	0.734440	8.493307	0.428871	-0.168556	0.219465	-0.147340	-0.036092	0.097889	-0.768555	0.233154	-0.470459	0.053067	0.007433	0.084937	0.258513	-0.273060	-0.095834	-0.921642	2.439715	-33.564594	-149.399138
03345		5.346063	0.165984	8.152757	-0.041768	0.178953	-0.063759	-0.128640	-0.043571	0.068249	-0.772949	0.235352	-0.468262	0.053442	0.001731	0.081538	0.258614	-0.273458	-0.095260	-0.921556	2.348490	-33.592669	-149.357761
03346		5.691490	0.272765	7.835684	-0.366694	-0.167097	-0.132656	-0.115428	-0.048090	0.033435	-0.782227	0.239502	-0.468262	0.056896	0.002782	0.078369	0.258588	-0.273845	-0.094744	-0.921501	2.270372	-33.620972	-149.336111
03347		5.924157	0.154292	7.699584	-0.649444	-0.212832	-0.120631	-0.094605	-0.042859	0.008689	-0.780029	0.241943	-0.463867	0.059225	0.001582	0.077008	0.258453	-0.274183	-0.094412	-0.921473	2.221562	-33.649125	-149.336574
03348		6.224390	0.515267	8.083288	-0.491362	-0.529144	0.376848	-0.084735	-0.045934	-0.011229	-0.782471	0.246338	-0.459473	0.062226	0.005183	0.080845	0.258263	-0.274498	-0.094096	-0.921464	2.177967	-33.675176	-149.345512
03349		5.568715	0.609737	8.106724	0.047252	-0.324147	0.035867	-0.087449	-0.076881	-0.031614	-0.784424	0.239502	-0.452637	0.055657	0.006124	0.081086	0.257949	-0.275004	-0.093895	-0.921422	2.147082	-33.726505	-149.372133
03350		5.028654	0.433294	8.085217	0.340491	0.048682	-0.287588	-0.070583	-0.110199	-0.050020	-0.780029	0.246338	-0.455078	0.050243	0.004349	0.080878	0.257569	-0.275579	-0.093780	-0.921368	2.127356	-33.788532	-149.409412
03351		5.948677	-0.118901	8.094437	-0.592785	0.138967	0.214779	-0.060986	-0.133960	-0.083275	-0.789063	0.246094	-0.452881	0.059432	-0.001189	0.080985	0.256993	-0.276287	-0.093886	-0.921307	2.138897	-33.872391	-149.479170
03352		6.006128	0.178602	7.970101	-0.525232	-0.168912	0.153434	-0.022874	-0.119360	-0.100891	-0.784668	0.246094	-0.441895	0.060015	0.001765	0.079737	0.256440	-0.276818	-0.094073	-0.921282	2.166342	-33.938560	-149.551866
03353		5.400667	0.225867	7.956774	-0.064930	0.053393	-0.193883	-0.004909	-0.117523	-0.106496	-0.786865	0.248291	-0.444092	0.053961	0.002232	0.079599	0.255854	-0.277413	-0.094426	-0.921230	2.214048	-34.017177	-149.634092
03354		5.786063	0.274317	8.114147	-0.235286	-0.088021	0.153757	0.008156	-0.133549	-0.109224	-0.791504	0.248291	-0.441895	0.057808	0.002708	0.081180	0.255299	-0.277966	-0.094786	-0.921180	2.263006	-34.091193	-149.713176
03355		5.210230	0.739151	8.594692	0.652200	-0.076473	0.243671	0.021179	-0.147829	-0.100606	-0.793701	0.250488	-0.437500	0.052042	0.007356	0.085986	0.254784	-0.278673	-0.095267	-0.921059	2.320322	-34.186855	-149.788508
03356		5.159591	1.091096	8.807980	0.982821	-0.273678	0.402571	0.002192	-0.200453	-0.086991	-0.793945	0.252686	-0.433105	0.051512	0.010888	0.088132	0.254291	-0.279552	-0.095654	-0.920889	2.358670	-34.299576	-149.854423
03357		5.800688	1.357293	8.438491	0.510944	-0.868299	0.467549	-0.038460	-0.286914	-0.035022	-0.793457	0.245850	-0.432861	0.057888	0.013579	0.084465	0.253926	-0.280913	-0.095977	-0.920542	2.366308	-34.466629	-149.891672
03358		5.372917	1.747099	8.569417	1.110584	-0.967999	0.345313	-0.053425	-0.366696	0.030172	-0.795898	0.245850	-0.421631	0.053569	0.017502	0.085788	0.253814	-0.282682	-0.096154	-0.920013	2.329726	-34.677262	-149.881148
03359		5.099457	2.073917	9.146192	1.791724	-0.931556	0.669681	-0.165021	-0.534602	0.114595	-0.798340	0.252441	-0.413086	0.050738	0.020844	0.091581	0.253763	-0.285364	-0.096159	-0.919198	2.234881	-34.988789	-149.837971
03360		5.043562	1.304876	9.237110	1.543989	-0.213125	0.677046	-0.276661	-0.722625	0.168384	-0.802979	0.256836	-0.410889	0.050090	0.013219	0.092534	0.253793	-0.289115	-0.095563	-0.918079	2.019201	-35.406118	-149.738796
03361		5.282146	1.167623	9.140323	1.345121	-0.207480	0.720904	-0.346044	-0.931865	0.218679	-0.809570	0.256592	-0.399658	0.052382	0.011892	0.091628	0.253748	-0.293708	-0.095183	-0.916672	1.800910	-35.928382	-149.638213
03362		4.844154	1.334749	9.368080	1.967706	-0.080720	0.633769	-0.394326	-1.157332	0.285438	-0.816406	0.256592	-0.388672	0.047879	0.013601	0.093932	0.253922	-0.299643	-0.094423	-0.914780	1.468934	-36.595881	-149.458934
03363		4.881562	1.122061	9.600569	2.082282	0.192095	0.812022	-0.434669	-1.446089	0.364486	-0.823242	0.260742	-0.373047	0.048099	0.011518	0.096330	0.254073	-0.306584	-0.094159	-0.912462	1.157096	-37.397389	-149.272161
03364		5.022194	0.838437	9.546217	1.989518	0.395705	0.814515	-0.431730	-1.780328	0.447911	-0.830078	0.262695	-0.357666	0.049350	0.008702	0.095885	0.254605	-0.315452	-0.093760	-0.909327	0.722931	-38.421516	-148.968149
03365		4.613113	0.839339	9.824228	2.605334	0.714741	0.732321	-0.362019	-2.146040	0.532582	-0.839355	0.273682	-0.328857	0.045051	0.008693	0.098714	0.255196	-0.325295	-0.094476	-0.905612	0.378418	-39.598367	-148.661247
03366		4.336747	0.909244	10.224202	3.284259	0.982358	0.789664	-0.284124	-2.553990	0.620169	-0.855469	0.282227	-0.304688	0.042029	0.009370	0.102771	0.256313	-0.337487	-0.095431	-0.900722	-0.082857	-41.062615	-148.200100
03367		4.342534	0.722979	10.759839	3.747048	1.439183	1.097481	-0.257650	-3.060185	0.713171	-0.859863	0.286377	-0.275879	0.041746	0.007520	0.108236	0.257319	-0.350953	-0.097430	-0.895057	-0.483793	-42.717700	-147.732054
03368		3.715303	0.424334	11.691827	4.861506	2.419763	1.195289	-0.209662	-3.668413	0.756649	-0.873535	0.290527	-0.238037	0.034984	0.004501	0.117569	0.258505	-0.367946	-0.099866	-0.887591	-1.046058	-44.813595	-147.092983
03369		3.251784	-0.791556	12.099478	5.096074	3.968914	0.950694	-0.161748	-4.436129	0.737863	-0.882324	0.290283	-0.195801	0.029852	-0.007704	0.121683	0.259080	-0.386606	-0.103742	-0.879006	-1.512612	-47.173225	-146.494558
03370		2.782592	-3.242423	12.494142	4.740156	6.613873	0.584924	-0.064312	-5.340567	0.576388	-0.895996	0.296387	-0.138184	0.024570	-0.032310	0.125637	0.258626	-0.410318	-0.109225	-0.867653	-2.033014	-50.221499	-145.851113
03371		2.567328	-4.049370	13.953158	5.831193	8.260488	0.928676	0.134205	-6.271141	0.342862	-0.902832	0.300537	-0.078369	0.021353	-0.040549	0.140219	0.256882	-0.435157	-0.116871	-0.854980	-2.287143	-53.527761	-145.400221
03372		3.459955	-3.471584	14.720353	6.820999	8.226745	1.430438	0.314874	-7.237482	0.120008	-0.909424	0.302490	-0.007324	0.029267	-0.034930	0.148272	0.253683	-0.465470	-0.127173	-0.838338	-2.457801	-57.668144	-144.974908
03373		7.938849	-0.691761	14.022291	6.553809	4.722669	4.141943	0.456376	-8.066727	-0.007038	-0.911377	0.297852	0.072754	0.073650	-0.007245	0.143255	0.249787	-0.495319	-0.138131	-0.820479	-2.525448	-61.860729	-144.621894
03374		18.149655	2.853952	13.562190	5.445127	-0.400857	12.354394	0.249403	-8.314969	0.174131	-0.897949	0.302246	0.150146	0.175626	0.028519	0.143042	0.245161	-0.528800	-0.148985	-0.798793	-3.071274	-66.614380	-143.857722
03375		23.394581	3.143252	13.938657	5.679225	-0.765601	16.987727	-0.187597	-7.735333	0.326192	-0.886475	0.300049	0.218994	0.228273	0.031944	0.148260	0.240491	-0.556351	-0.155691	-0.779999	-4.251669	-70.525666	-142.721737
03376		17.427223	1.460661	11.608424	5.996867	1.575021	10.236360	-0.080319	-7.204827	0.130611	-0.873047	0.302490	0.274414	0.169932	0.014767	0.122253	0.235013	-0.584281	-0.163576	-0.759360	-5.673983	-74.632059	-141.280226
03377		13.299962	0.145020	12.677115	7.922404	4.546198	6.126324	0.279325	-6.918993	0.169072	-0.850098	0.295898	0.341064	0.128508	0.001379	0.131271	0.231050	-0.606340	-0.171374	-0.741349	-7.220353	-78.017495	-139.528041
03378		14.280101	-0.956225	13.796155	8.949400	6.584900	6.666910	0.716717	-6.537483	0.106347	-0.823486	0.302979	0.389648	0.138197	-0.009993	0.142494	0.227891	-0.629503	-0.181166	-0.720396	-10.347953	-81.711699	-135.935451
03379		14.446055	0.728262	15.217393	11.623875	6.505950	6.411627	0.921259	-5.601948	-0.003308	-0.805420	0.305420	0.433838	0.140123	0.006567	0.156171	0.226200	-0.644094	-0.189739	-0.705674	-13.503115	-84.198758	-132.242890
03380		9.258829	8.716751	17.609969	18.966420	2.127550	0.555569	0.297783	-4.422941	-0.020759	-0.791992	0.307861	0.460449	0.088671	0.086894	0.178219	0.222835	-0.659184	-0.195811	-0.690999	-23.117130	-86.617131	-122.429043
03381		6.623061	10.149584	22.603111	24.168852	3.892749	-2.167482	-1.404127	-2.908130	-0.072872	-0.775879	0.299316	0.480469	0.062979	0.103060	0.226243	0.215597	-0.665155	-0.193398	-0.688247	-27.055937	-87.404352	-119.314705
03382		7.474713	3.985475	21.511433	20.069090	8.097625	-1.680310	-2.273129	-1.163431	-0.468773	-0.777344	0.277100	0.478760	0.073593	0.042126	0.215074	0.205281	-0.671099	-0.188373	-0.687024	-30.552109	-88.117919	-117.119316
03383		5.170063	-1.884117	19.549712	15.421268	11.681746	-3.633539	-1.950960	0.460505	-0.793635	-0.781250	0.261475	0.476807	0.052081	-0.017140	0.195550	0.196876	-0.663310	-0.182693	-0.698486	-6.385582	-86.926342	-142.465282
03384		-3.284245	-2.569507	15.702625	12.327002	10.325658	-12.131571	-1.387700	1.522619	-1.006777	-0.794189	0.250000	0.466064	-0.031770	-0.024442	0.157443	0.190136	-0.658394	-0.179674	-0.705750	2.710217	-86.069566	-152.374322
03385		-4.346326	-2.046041	12.803351	10.412068	8.329053	-12.847647	-0.897520	1.949730	-1.014970	-0.798340	0.234375	0.446533	-0.042313	-0.019668	0.128539	0.186262	-0.642724	-0.175860	-0.722001	7.384956	-83.517769	-157.663631
03386		-3.859854	-0.782165	11.214615	9.740422	6.350070	-12.276858	-0.623706	2.224948	-0.867000	-0.809082	0.225342	0.431152	-0.037380	-0.007307	0.112590	0.183071	-0.634460	-0.174309	-0.730453	9.457154	-82.183476	-160.112055
03387		-2.322620	-0.265731	10.034443	8.877751	5.197198	-10.381877	-0.570116	2.498971	-0.649959	-0.820313	0.220947	0.400146	-0.021978	-0.002298	0.100631	0.182132	-0.615792	-0.169297	-0.747641	8.893277	-79.250261	-159.986157
03388		-0.086698	-0.765360	9.166115	7.513320	5.023242	-8.103221	-0.552770	2.846293	-0.459376	-0.833496	0.214111	0.375977	0.000421	-0.007400	0.091682	0.181103	-0.605199	-0.166034	-0.757211	8.633510	-77.598153	-160.044285
03389		1.691501	-1.056816	8.477367	6.297000	4.703956	-6.063292	-0.473461	3.234275	-0.314411	-0.846924	0.209473	0.351807	0.018267	-0.010396	0.084510	0.182214	-0.583091	-0.159255	-0.775526	7.304794	-74.247116	-159.088277
03390		2.905875	-1.547039	7.985550	5.222113	4.707228	-4.795684	-0.327013	3.614225	-0.194130	-0.862549	0.204834	0.305420	0.030481	-0.015370	0.079338	0.183356	-0.569122	-0.155234	-0.786373	6.649522	-72.177820	-158.599622
03391		3.777221	-1.757510	7.475216	4.137060	4.385639	-3.740043	-0.097116	3.954301	-0.111129	-0.869141	0.200195	0.272217	0.039230	-0.017561	0.073995	0.186710	-0.543270	-0.148280	-0.804991	5.599939	-68.438811	-157.693501
03392		4.783004	-1.621063	7.193726	3.379139	3.884891	-2.690013	0.138955	4.239336	-0.064363	-0.875977	0.202393	0.232178	0.049335	-0.016276	0.070891	0.189929	-0.525906	-0.145023	-0.816283	5.221397	-66.016808	-157.196688
03393		5.945879	-1.098355	7.092575	2.608338	2.950654	-1.366378	0.325535	4.485233	-0.035857	-0.885010	0.200195	0.183350	0.061027	-0.011108	0.069551	0.194763	-0.496931	-0.138753	-0.834191	4.636807	-62.020930	-156.504740
03394		7.137663	-0.314427	7.074443	2.055937	1.859974	-0.148961	0.405612	4.715979	-0.017439	-0.894043	0.197998	0.143555	0.073018	-0.003292	0.069029	0.198915	-0.476714	-0.135857	-0.845411	4.503701	-59.326223	-156.085552
03395		8.163873	0.431382	7.266637	1.394311	0.736681	1.009872	0.381571	4.948316	-0.002042	-0.894043	0.195801	0.088135	0.083403	0.004177	0.070625	0.203810	-0.445285	-0.129150	-0.862266	4.135166	-55.140168	-155.562452
03396		8.774579	0.764552	7.391282	0.812749	0.109641	1.654975	0.277052	5.150044	0.008820	-0.889893	0.200439	0.034668	0.089610	0.007549	0.071632	0.207722	-0.422656	-0.125033	-0.873258	4.002374	-52.196699	-155.200622
03397		9.292645	0.776000	7.527848	-0.152940	-0.382423	2.163160	0.159780	5.297145	-0.010382	-0.894287	0.193848	-0.013916	0.094877	0.007696	0.072789	0.211672	-0.389658	-0.117082	-0.888625	3.688688	-47.909327	-154.842750
03398		9.910393	0.575569	7.708629	-1.087289	-0.609784	2.692432	0.064932	5.384505	-0.072986	-0.878662	0.194336	-0.067383	0.101133	0.005695	0.074383	0.214549	-0.365480	-0.111771	-0.898833	3.564972	-44.827203	-154.620461
03399		10.478464	0.392290	7.901366	-2.256878	-0.988239	3.081938	0.009852	5.419430	-0.174757	-0.873779	0.183594	-0.122559	0.106877	0.003826	0.076136	0.216913	-0.332012	-0.103427	-0.912151	3.370265	-40.583770	-154.493090
03400		10.908052	0.363174	8.220999	-3.020819	-1.311175	3.446731	-0.033143	5.406331	-0.282547	-0.853516	0.179688	-0.173584	0.111254	0.003489	0.079221	0.218286	-0.307121	-0.097843	-0.921116	3.335454	-37.481386	-154.467951
03401		11.424287	0.426107	8.795072	-3.929084	-1.797091	3.947113	-0.088584	5.349926	-0.378388	-0.830811	0.173584	-0.213623	0.116548	0.004080	0.084852	0.218945	-0.274338	-0.089556	-0.932084	3.215158	-33.410156	-154.527080
03402		12.169704	0.317684	9.367340	-4.947701	-2.123245	4.571575	-0.161764	5.263743	-0.463039	-0.801270	0.163086	-0.253418	0.124113	0.002965	0.090425	0.218846	-0.249678	-0.083643	-0.939559	3.182619	-30.383472	-154.640870
03403		12.785858	0.052127	9.939039	-6.187379	-2.389171	4.959415	-0.218415	5.168842	-0.522858	-0.769531	0.150391	-0.293213	0.130371	0.000289	0.096042	0.218093	-0.218478	-0.075305	-0.948173	3.044639	-26.561457	-154.811806
03404		13.765694	0.359528	10.333923	-7.392785	-3.263139	5.387582	-0.288186	5.075184	-0.530833	-0.737793	0.142334	-0.324219	0.140229	0.003371	0.099797	0.217101	-0.194457	-0.068960	-0.954095	2.950582	-23.640938	-154.979298
03405		15.061937	0.999530	10.343284	-9.042372	-4.753270	5.366759	-0.418169	5.011392	-0.477975	-0.708252	0.134033	-0.339844	0.153171	0.009842	0.099595	0.215907	-0.165231	-0.060005	-0.960459	2.680009	-20.078503	-155.136070
03406		16.506298	1.739554	10.281356	-10.649114	-6.344527	5.268880	-0.634696	4.970316	-0.352864	-0.685547	0.127930	-0.355225	0.167579	0.017419	0.098614	0.215111	-0.141886	-0.051864	-0.964835	2.342375	-17.223835	-155.217583
03407		18.310233	1.168267	10.089672	-13.271126	-7.003367	4.787627	-0.818003	4.971755	-0.275051	-0.665283	0.123779	-0.373047	0.185550	0.011829	0.096256	0.214259	-0.114707	-0.041312	-0.969138	1.825297	-13.888721	-155.289263
03408		20.161558	1.204399	9.261005	-15.671759	-8.246682	3.603250	-0.912550	5.031097	-0.253884	-0.649414	0.117432	-0.399658	0.203874	0.012193	0.087445	0.213474	-0.091211	-0.031633	-0.972167	1.317013	-11.002421	-155.357273
03409		21.195852	1.203514	7.904023	-17.408983	-9.143314	1.430103	-0.993302	5.091052	-0.211012	-0.628906	0.109131	-0.412842	0.213890	0.012185	0.073551	0.212622	-0.065455	-0.020610	-0.974722	0.713926	-7.837542	-155.437831
03410		20.970670	0.600507	6.155615	-18.103232	-8.871940	-1.358100	-1.024816	5.052169	-0.153575	-0.624512	0.109131	-0.439453	0.211176	0.006140	0.056202	0.211988	-0.041880	-0.010288	-0.976320	0.134104	-4.941489	-155.504869
03411		19.890475	-0.285883	4.047710	-17.952965	-7.864487	-4.534564	-0.981974	4.809573	-0.130282	-0.608643	0.107422	-0.459473	0.199800	-0.002806	0.035693	0.211314	-0.019514	-0.000169	-0.977223	-0.453892	-2.189786	-155.587874
03412		18.852931	-0.530855	1.964627	-17.349561	-7.301254	-7.531687	-0.910056	4.352693	-0.118872	-0.590576	0.105469	-0.486328	0.188894	-0.005344	0.015562	0.210595	0.000803	0.008865	-0.977533	-0.973749	0.303886	-155.687128
03413		18.456763	-0.253932	0.076831	-16.925860	-7.356042	-10.106264	-0.861801	3.774336	-0.094822	-0.579346	0.101318	-0.503906	0.184537	-0.002633	-0.002703	0.209986	0.016434	0.016916	-0.977420	-1.500596	2.248253	-155.779532
03414		19.239468	-0.343578	-1.643485	-17.603247	-7.472411	-12.502268	-0.845767	3.178636	-0.050038	-0.568359	0.106201	-0.521973	0.192100	-0.003562	-0.019475	0.209513	0.031080	0.024390	-0.977007	-1.989859	4.068549	-155.863865
03415		20.557745	-0.937284	-3.402017	-18.909941	-7.287443	-14.747893	-0.773477	2.610919	-0.080774	-0.554688	0.104248	-0.537354	0.205106	-0.009594	-0.036663	0.209011	0.039550	0.030451	-0.976639	-2.471473	5.162508	-155.952088
03416		21.989850	-0.197185	-5.464210	-19.675285	-8.256635	-17.437816	-0.690418	2.064407	-0.145502	-0.552734	0.108643	-0.544189	0.219317	-0.002325	-0.056900	0.208109	0.048891	0.036008	-0.976219	-2.881018	6.340904	-156.091384
03417		22.759196	0.914587	-7.514689	-19.742541	-9.285658	-19.776856	-0.723782	1.517588	-0.144371	-0.545898	0.108887	-0.555420	0.227019	0.008706	-0.076903	0.207438	0.050508	0.040407	-0.976107	-3.343296	6.624807	-156.198073
03418		22.160016	0.392894	-8.979268	-19.216813	-8.279333	-21.388962	-0.726959	0.899384	-0.091986	-0.541748	0.115723	-0.555420	0.221195	0.003498	-0.090801	0.206987	0.054131	0.044912	-0.975812	-3.770027	7.136566	-156.283352
03419		20.642504	-1.899101	-9.988443	-18.808753	-5.455306	-21.894027	-0.403980	0.094128	-0.049017	-0.541260	0.106689	-0.552979	0.206373	-0.019243	-0.099943	0.206986	0.047760	0.045912	-0.976098	-4.031338	6.444644	-156.282053
03420		19.723475	-4.583535	-9.725190	-19.125268	-2.683725	-21.285409	0.414355	-0.769012	-0.046492	-0.545898	0.111084	-0.548828	0.197596	-0.045681	-0.096587	0.206835	0.044430	0.043106	-0.976416	-3.793558	6.003892	-156.278632
03421		18.146771	-11.240236	-10.246643	-20.599078	3.772272	-20.861574	2.865002	-2.040249	0.071702	-0.567627	0.088379	-0.539307	0.182551	-0.110872	-0.102203	0.207161	0.029951	0.025996	-0.977503	-2.206712	3.975182	-156.145433
03422		-0.349245	5.155089	0.068422	2.402493	-4.574580	-9.836090	3.443211	-3.484902	-0.257313	-0.582764	0.074707	-0.510010	-0.003448	0.051534	0.001511	0.205778	0.016448	0.005591	-0.978444	-0.239154	1.976461	-156.250389
03423		5.293884	20.362923	20.392007	3.293396	-20.683478	10.675394	2.218342	-3.436053	0.109885	-0.598389	0.069824	-0.487549	0.049289	0.201372	0.207030	0.206511	-0.005659	-0.009600	-0.978381	0.942566	-0.861697	-156.169658
03424		-0.332457	12.336471	20.427355	5.681982	-10.476681	10.863137	1.134441	-2.598855	0.900410	-0.609619	0.073975	-0.465576	-0.006536	0.122179	0.204898	0.210800	-0.017239	-0.017806	-0.977215	1.578986	-2.361230	-155.686481
03425		0.192713	11.595187	7.429585	5.043887	-10.168510	-2.013001	0.891012	-2.756720	0.973826	-0.614258	0.078369	-0.445557	0.000335	0.115624	0.074823	0.215879	-0.036705	-0.026965	-0.975357	2.113647	-4.775008	-155.127636
03426		10.319369	13.554200	5.374810	-3.106581	-16.193652	-2.943118	-0.089265	-3.476334	0.825550	-0.621338	0.089355	-0.423584	0.101679	0.135988	0.055464	0.219385	-0.053856	-0.030125	-0.973685	2.021909	-6.782168	-154.724778
03427		17.022486	8.481629	13.038021	-9.972875	-13.628302	5.886418	-0.660491	-3.324309	0.439406	-0.630615	0.095703	-0.408203	0.167842	0.085623	0.132901	0.221303	-0.077237	-0.033261	-0.971572	1.768867	-9.485822	-154.483136
03428		14.756125	2.442441	12.321976	-10.219489	-7.217373	4.985717	-0.777937	-2.460275	0.096315	-0.639893	0.102051	-0.397217	0.146020	0.024979	0.124926	0.221043	-0.090056	-0.032164	-0.970564	1.320023	-10.896102	-154.465698
03429		9.653197	-4.518063	9.824923	-8.674245	1.098528	1.748792	-0.696170	-2.188827	0.143619	-0.638184	0.119873	-0.382080	0.095480	-0.044767	0.099454	0.221463	-0.108217	-0.034338	-0.968537	1.092811	-12.993132	-154.365121
03430		12.066626	-9.123121	11.272086	-12.261304	4.442434	3.818536	-0.199066	-2.055348	0.297347	-0.645020	0.119873	-0.377441	0.119634	-0.090940	0.114044	0.222430	-0.118434	-0.035487	-0.967078	0.942650	-14.173368	-154.211417
03431		11.313645	-5.698366	10.053706	-10.002527	1.698260	2.781309	0.391681	-1.545270	0.287617	-0.638184	0.117676	-0.370850	0.112438	-0.057020	0.101296	0.224060	-0.132380	-0.041470	-0.964652	1.232458	-15.901510	-154.019588
03432		7.106151	0.605497	8.606148	-3.779675	-2.294804	0.452579	0.491304	-1.350796	0.260058	-0.643066	0.128662	-0.375488	0.070470	0.005935	0.086553	0.225354	-0.138394	-0.045179	-0.963339	1.475782	-16.678628	-153.883470
03433		7.372123	2.105441	9.033206	-2.984119	-3.517691	1.100551	0.423558	-1.246376	0.049242	-0.647461	0.128662	-0.373291	0.073151	0.020880	0.090833	0.225849	-0.150676	-0.050814	-0.961097	1.786605	-18.214861	-153.838280
03434		8.610912	1.876042	8.731879	-4.132692	-3.791230	1.253439	0.317526	-0.960861	-0.161159	-0.652100	0.135254	-0.368896	0.085703	0.018552	0.087761	0.225067	-0.154892	-0.053546	-0.960462	2.005500	-18.762002	-153.954813
03435		7.837512	0.080677	8.642183	-4.110598	-1.732775	0.967860	0.288853	-0.747368	-0.077038	-0.656738	0.135010	-0.380127	0.078052	0.000652	0.086715	0.224956	-0.164598	-0.058070	-0.958609	2.273280	-19.980265	-153.987353
03436		7.633670	2.334679	8.760200	-2.837965	-3.580078	1.123185	0.260779	-0.556392	-0.005353	-0.654785	0.141846	-0.384521	0.076093	0.023230	0.087844	0.224982	-0.166970	-0.059950	-0.958076	2.428636	-20.298725	-154.004567
03437		6.400994	2.438149	8.239816	-1.746536	-3.155461	0.277126	0.098747	-0.463716	-0.023561	-0.661621	0.148438	-0.393555	0.063822	0.024333	0.082558	0.225029	-0.175259	-0.063137	-0.956379	2.577278	-21.324088	-154.004421
03438		6.202457	1.360729	8.290188	-2.014608	-2.077871	0.220901	0.032046	-0.448340	0.001145	-0.666260	0.150635	-0.402588	0.061838	0.013594	0.083043	0.224920	-0.177368	-0.063794	-0.955972	2.599968	-21.580901	-154.016208
03439		6.438323	1.603281	8.359195	-1.931209	-2.289232	0.430767	-0.015535	-0.390380	0.035453	-0.680176	0.161377	-0.402588	0.064217	0.016051	0.083716	0.225140	-0.185097	-0.066259	-0.954286	2.675274	-22.526170	-153.983307
03440		5.940158	1.964055	8.701213	-1.206177	-2.325610	0.579168	-0.095680	-0.344919	0.046196	-0.680420	0.165771	-0.413818	0.059247	0.019696	0.087105	0.225157	-0.186867	-0.066148	-0.953944	2.613271	-22.725070	-153.964571
03441		5.998742	1.163716	8.541590	-1.529916	-1.601535	0.453385	-0.144095	-0.312138	0.058959	-0.689697	0.172363	-0.414063	0.059851	0.011716	0.085501	0.225357	-0.194028	-0.067835	-0.952347	2.611299	-23.586856	-153.918879
03442		6.338021	1.584663	8.292923	-1.665790	-2.168296	0.384262	-0.194284	-0.300119	0.071731	-0.694580	0.183350	-0.420898	0.063250	0.015950	0.083009	0.225408	-0.195703	-0.067179	-0.952039	2.485380	-23.760833	-153.882432
03443		6.102364	0.962317	8.159672	-1.670302	-1.494047	0.173450	-0.236673	-0.273952	0.059333	-0.699219	0.185547	-0.423096	0.060909	0.009738	0.081669	0.225489	-0.202466	-0.068304	-0.950524	2.428756	-24.563489	-153.838096
03444		6.362138	0.348210	7.960405	-2.199792	-1.104516	0.082107	-0.234351	-0.253358	0.059570	-0.717529	0.198486	-0.423340	0.063519	0.003594	0.079680	0.225448	-0.203958	-0.067417	-0.950279	2.281635	-24.710394	-153.807181
03445		6.069157	0.063484	8.106059	-1.918942	-0.652727	0.108926	-0.207445	-0.222927	0.052183	-0.729004	0.205078	-0.432373	0.060601	0.000735	0.081127	0.225501	-0.210160	-0.068521	-0.948835	2.237193	-25.449602	-153.767372
03446		5.273570	0.745976	8.177695	-0.909280	-0.932462	-0.140801	-0.183803	-0.210223	0.038195	-0.733887	0.209229	-0.430176	0.052648	0.007545	0.081825	0.225416	-0.211382	-0.067848	-0.948632	2.123699	-25.571353	-153.748263
03447		5.438981	-0.124808	8.290461	-1.290266	-0.149019	0.018019	-0.158918	-0.221574	-0.005497	-0.738525	0.218018	-0.434814	0.054298	-0.001184	0.082966	0.225214	-0.217209	-0.069122	-0.947270	2.116519	-26.272822	-153.746406
03448		5.652140	-0.486331	7.929822	-1.740999	0.008417	-0.219247	-0.085477	-0.219443	-0.069487	-0.751953	0.217773	-0.432373	0.056433	-0.004849	0.079362	0.224715	-0.218326	-0.069041	-0.947138	2.089597	-26.397660	-153.795996
03449		5.797889	-0.806020	7.878090	-1.928848	0.282385	-0.193475	-0.012235	-0.209819	-0.110679	-0.761230	0.222168	-0.430176	0.057892	-0.008087	0.078842	0.224157	-0.223622	-0.070966	-0.945892	2.187914	-27.055822	-153.862474
03450		5.785570	-0.273350	7.854487	-1.672241	-0.174656	-0.199489	0.064215	-0.184788	-0.143303	-0.756836	0.224365	-0.425781	0.057781	-0.002800	0.078597	0.223485	-0.224379	-0.071639	-0.945821	2.268898	-27.159169	-153.959322
03451		5.465758	0.601073	8.388595	-0.724514	-0.634201	0.171158	0.088023	-0.167319	-0.144850	-0.765869	0.226563	-0.425781	0.054592	0.005934	0.083934	0.222884	-0.229108	-0.073889	-0.944655	2.426838	-27.761510	-154.048415
03452		5.464896	0.845118	8.392420	-0.603056	-0.830912	0.185207	0.054255	-0.163633	-0.120895	-0.770508	0.230713	-0.416992	0.054585	0.008395	0.083971	0.222314	-0.229782	-0.074468	-0.944580	2.496642	-27.853039	-154.131269
03453		5.792836	1.015934	8.101983	-0.821356	-1.120439	0.102007	0.029676	-0.179296	-0.076486	-0.775146	0.232910	-0.419434	0.057860	0.010125	0.081073	0.221958	-0.234391	-0.076301	-0.943384	2.601350	-28.431841	-154.179811
03454		6.360507	1.239428	7.867611	-1.249841	-1.582912	0.178498	-0.038333	-0.210301	-0.055622	-0.784180	0.234863	-0.421631	0.063526	0.012392	0.078741	0.221569	-0.235412	-0.076421	-0.943212	2.599740	-28.551689	-154.222324
03455		6.344970	1.207708	7.778713	-1.203152	-1.520243	0.110358	-0.050217	-0.208667	-0.034447	-0.784180	0.237305	-0.417236	0.063371	0.012086	0.077850	0.221295	-0.240043	-0.077814	-0.941994	2.648000	-29.122474	-154.247352
03456		5.728107	0.489468	8.070834	-0.903376	-0.566191	0.038833	-0.068868	-0.197972	-0.040127	-0.782227	0.241699	-0.412842	0.057202	0.004911	0.080763	0.220945	-0.241044	-0.077759	-0.941825	2.624395	-29.235737	-154.279708
03457		5.293640	0.102584	8.248421	-0.583891	0.034496	-0.028646	-0.033807	-0.183414	-0.057447	-0.791260	0.245850	-0.410645	0.052861	0.001025	0.082533	0.220580	-0.245324	-0.079170	-0.940687	2.688836	-29.766954	-154.321242
03458		5.399100	-0.006569	8.285398	-0.685087	0.111003	0.052222	-0.018941	-0.174391	-0.082563	-0.791016	0.239258	-0.406006	0.053919	-0.000080	0.082901	0.220098	-0.246141	-0.079378	-0.940569	2.707886	-29.865633	-154.381209
03459		5.766657	0.060615	7.921803	-1.028526	-0.132249	-0.069095	0.024945	-0.138821	-0.095932	-0.789063	0.243652	-0.406250	0.057612	0.000569	0.079258	0.219635	-0.249914	-0.080965	-0.939547	2.813431	-30.343112	-154.447872
03460		6.522565	0.240818	7.678717	-1.633407	-0.623180	0.112440	0.052330	-0.130054	-0.114252	-0.795654	0.245850	-0.408447	0.065177	0.002351	0.076830	0.219110	-0.250431	-0.081499	-0.939486	2.884051	-30.415463	-154.528043
03461		6.098062	0.927581	7.780167	-0.886553	-1.000578	0.025534	0.062329	-0.118842	-0.101985	-0.793457	0.241455	-0.403809	0.060939	0.009220	0.077841	0.218671	-0.253899	-0.083170	-0.938510	3.009636	-30.860320	-154.599249
03462		5.521263	0.940453	8.192143	-0.245542	-0.675551	0.084955	0.049561	-0.133423	-0.068314	-0.793213	0.234863	-0.399414	0.055161	0.009365	0.081961	0.218357	-0.254452	-0.083638	-0.938392	3.063998	-30.935848	-154.649621
03463		5.886085	0.996410	8.272622	-0.403447	-0.791265	0.350295	0.031572	-0.156379	-0.040331	-0.797607	0.232422	-0.399170	0.058798	0.009939	0.082774	0.218149	-0.257975	-0.085081	-0.937348	3.152415	-31.382308	-154.683338
03464		6.194313	1.242117	8.114590	-0.586350	-1.155063	0.389319	0.001595	-0.185571	-0.007267	-0.795410	0.236816	-0.395020	0.061868	0.012418	0.081203	0.218037	-0.258851	-0.085304	-0.937112	3.159610	-31.489586	-154.695183
03465		6.037794	0.989475	7.909939	-0.602688	-0.888865	0.129535	-0.039766	-0.227631	0.009205	-0.797363	0.230225	-0.385986	0.060287	0.009913	0.079166	0.217930	-0.262638	-0.086388	-0.935983	3.191997	-31.958413	-154.700326
03466		6.049341	1.191646	8.128537	-0.395263	-1.005942	0.332234	-0.066947	-0.281757	0.036135	-0.797852	0.239014	-0.390381	0.060377	0.011955	0.081366	0.217888	-0.264057	-0.086338	-0.935598	3.146461	-32.122170	-154.686586
03467		5.482201	0.929403	8.323544	0.089553	-0.477474	0.185491	-0.138375	-0.354199	0.051230	-0.804199	0.234375	-0.383789	0.054672	0.009366	0.083326	0.217780	-0.268406	-0.087006	-0.934323	3.109615	-32.646305	-154.669418
03468		4.990878	0.898740	8.897008	0.757471	-0.110099	0.399428	-0.154605	-0.411315	0.098508	-0.806396	0.232178	-0.381348	0.049721	0.009081	0.089065	0.217852	-0.270550	-0.086603	-0.933725	2.993015	-32.886144	-154.617433
03469		4.925897	1.387384	8.824632	1.090048	-0.510725	0.317175	-0.212963	-0.496065	0.131137	-0.808838	0.236572	-0.376953	0.049031	0.014000	0.088353	0.217936	-0.275491	-0.086915	-0.932231	2.884067	-33.471816	-154.550893
03470		5.613977	1.648591	8.805514	0.745694	-0.995446	0.686087	-0.255562	-0.610147	0.191000	-0.815674	0.236328	-0.368164	0.055855	0.016652	0.088205	0.218207	-0.278708	-0.086129	-0.931284	2.676359	-33.827880	-154.440076
03471		5.694107	1.638946	8.648512	0.731298	-1.032718	0.594219	-0.342664	-0.790517	0.288255	-0.815918	0.243164	-0.361572	0.056575	0.016620	0.086681	0.218684	-0.285040	-0.085907	-0.929274	2.435597	-34.564522	-154.273165
03472		5.831295	1.436199	8.693778	0.666868	-0.892269	0.694757	-0.426852	-0.992584	0.357737	-0.824707	0.238525	-0.350342	0.057855	0.014652	0.087195	0.219307	-0.290281	-0.084502	-0.927632	2.064139	-35.142491	-154.050903
03473		5.126427	1.104043	8.951872	1.332170	-0.245048	0.473164	-0.470591	-1.223367	0.424353	-0.827148	0.247314	-0.337158	0.050692	0.011359	0.089803	0.219998	-0.298641	-0.083932	-0.924862	1.691748	-36.109693	-153.790811
03474		4.903880	0.741609	9.452072	1.741095	0.304515	0.714094	-0.482212	-1.454691	0.480493	-0.840576	0.249268	-0.326172	0.048331	0.007761	0.094856	0.220881	-0.306104	-0.082587	-0.922329	1.227499	-36.951637	-153.474823
03475		4.949620	0.101689	9.135805	1.459601	0.807262	0.443381	-0.431790	-1.701520	0.525786	-0.847656	0.255615	-0.299561	0.048713	0.001343	0.091772	0.221835	-0.316445	-0.082502	-0.918610	0.814617	-38.169008	-153.129006
03476		5.299322	0.656834	9.228450	1.721139	0.247827	0.706375	-0.365413	-1.983688	0.576486	-0.852295	0.257813	-0.288574	0.052055	0.006889	0.092792	0.223073	-0.326196	-0.082112	-0.914927	0.349703	-39.310672	-152.720436
03477		5.716144	0.760574	8.867117	1.543203	-0.028179	0.651102	-0.338652	-2.297408	0.656741	-0.865967	0.264160	-0.259766	0.056112	0.007942	0.089307	0.224444	-0.338966	-0.082815	-0.909873	-0.110192	-40.844363	-152.245205
03478		5.656748	0.868084	8.657565	1.771330	-0.106197	0.412289	-0.319801	-2.636225	0.719734	-0.870850	0.277100	-0.233398	0.055388	0.009021	0.087297	0.226062	-0.351598	-0.083096	-0.904638	-0.668499	-42.353842	-151.680089
03479		5.395163	0.505663	9.571982	2.644781	0.690973	0.841150	-0.305452	-3.020256	0.783922	-0.881836	0.274658	-0.199951	0.052477	0.005411	0.096512	0.227638	-0.367360	-0.084461	-0.897827	-1.247455	-44.275130	-151.038180
03480		4.364737	0.321161	10.256916	3.962181	1.531790	0.497510	-0.283525	-3.471962	0.838094	-0.891113	0.283203	-0.168945	0.041844	0.003536	0.103301	0.229376	-0.383577	-0.085592	-0.890466	-1.950288	-46.252197	-150.277357
03481		4.398187	-0.154952	10.840185	4.492195	2.283664	0.744959	-0.290123	-4.032331	0.859039	-0.897705	0.282959	-0.122314	0.041790	-0.001209	0.109261	0.230692	-0.403411	-0.087910	-0.881086	-2.711625	-48.715244	-149.427724
03482		3.967415	-1.482541	11.355211	4.874207	3.933783	0.561357	-0.278045	-4.679289	0.830147	-0.909424	0.296143	-0.080566	0.037064	-0.014509	0.114460	0.231665	-0.424609	-0.090389	-0.870556	-3.614383	-51.368001	-148.457884
03483		4.267123	-3.044127	11.234135	4.371560	5.382624	0.461741	-0.225230	-5.430677	0.739521	-0.909180	0.291504	-0.020508	0.039712	-0.030163	0.113481	0.231677	-0.449692	-0.094632	-0.857407	-4.562009	-54.586098	-147.403962
03484		5.428193	-2.735296	12.025498	5.086150	5.304962	1.478669	-0.206255	-6.149268	0.594499	-0.913818	0.302246	0.048096	0.050632	-0.027074	0.121877	0.230740	-0.476370	-0.099494	-0.842574	-5.660933	-58.067187	-146.225854
03485		8.547738	-3.220183	13.380633	5.263123	5.721008	4.398134	-0.169169	-6.841011	0.466555	-0.906982	0.300049	0.114746	0.080910	-0.031895	0.136653	0.228600	-0.506096	-0.105877	-0.824863	-6.949665	-62.046279	-144.837047
03486		14.869651	-2.253425	14.528101	5.271276	4.181653	9.980994	-0.082183	-7.235951	0.367212	-0.897949	0.306641	0.183350	0.143354	-0.022207	0.150542	0.225925	-0.535903	-0.112815	-0.805630	-8.579772	-66.128226	-143.078032
03487		18.676602	0.389641	14.893185	7.004914	1.814119	12.950709	-0.232515	-7.120324	0.407329	-0.879883	0.306885	0.252197	0.181300	0.004448	0.155447	0.222651	-0.565261	-0.119003	-0.785331	-11.023398	-70.190749	-140.584460
03488		15.947707	1.565082	13.578934	8.542603	1.452598	9.315656	-0.571094	-7.137667	0.318421	-0.870850	0.304443	0.318848	0.154473	0.016298	0.141317	0.217897	-0.593758	-0.123734	-0.764632	-14.740492	-74.140607	-137.025618
03489		14.326394	0.738891	12.817206	8.979195	2.712642	6.978220	-0.484474	-7.057572	0.100622	-0.841309	0.302734	0.380859	0.138621	0.007778	0.133100	0.212191	-0.621248	-0.129423	-0.743153	-20.118056	-78.038967	-131.768866
03490		13.440642	-3.591860	12.882349	8.076535	7.236757	5.736103	0.090880	-6.991232	-0.110054	-0.809814	0.303223	0.429443	0.129776	-0.036051	0.133398	0.207409	-0.646686	-0.137445	-0.721032	-29.109257	-81.720564	-122.587767
03491		13.991469	-4.737387	13.485182	8.840325	9.080426	5.657002	0.810726	-6.629688	-0.381690	-0.782471	0.294678	0.485107	0.135257	-0.048193	0.139193	0.203873	-0.669184	-0.148540	-0.698974	-47.258170	-84.906272	-103.853133
03492		12.962617	-3.113388	13.753905	10.497182	8.536761	3.741610	1.423287	-5.863406	-0.673481	-0.757568	0.295166	0.518066	0.125417	-0.032556	0.141029	0.201831	-0.687425	-0.161679	-0.678653	-87.422775	-86.669363	-62.775320
03493		7.063430	2.214286	13.208901	12.842448	4.493549	-3.172178	1.435226	-5.084042	-0.668351	-0.726318	0.302246	0.546631	0.067316	0.020957	0.133982	0.200310	-0.702280	-0.173916	-0.660630	-132.284086	-86.003740	-17.008293
03494		8.180485	8.641471	18.177650	20.657319	1.836754	-3.342616	0.289813	-4.388448	-0.340969	-0.712646	0.298096	0.577881	0.077936	0.086014	0.183640	0.196334	-0.716029	-0.180428	-0.645137	-151.882120	-84.110341	2.825690
03495		14.584968	6.841096	22.929652	24.693543	5.952105	2.021722	-1.180776	-2.544816	-0.195571	-0.703369	0.287109	0.589111	0.142988	0.069630	0.230719	0.189121	-0.724698	-0.179809	-0.637742	-158.735972	-82.909258	9.039131
03496		17.546712	-0.204769	22.397377	21.286782	11.674969	5.024199	-1.485203	-0.014876	-0.321317	-0.712158	0.282471	0.582520	0.175449	-0.000666	0.223995	0.182694	-0.725851	-0.176252	-0.639295	-161.011546	-82.962694	10.474859
03497		3.038623	-3.503688	18.354553	14.554014	12.043929	-8.582942	-1.029605	1.823935	-0.538335	-0.729492	0.266602	0.560791	0.031967	-0.034177	0.183436	0.178832	-0.719582	-0.173163	-0.648255	-161.024090	-84.199805	9.886501
03498		-2.239511	-3.860944	14.595517	10.697116	10.365853	-13.138511	-0.375514	2.591025	-0.720148	-0.745117	0.259766	0.541016	-0.020639	-0.038259	0.146302	0.177372	-0.710841	-0.172209	-0.658474	-160.047603	-85.735224	8.690569
03499		-3.253833	-1.673465	12.260452	9.757045	7.326323	-13.662477	0.124874	2.945070	-0.827024	-0.763184	0.259521	0.505615	-0.030798	-0.016682	0.123056	0.177721	-0.699132	-0.172687	-0.670678	-155.617873	-87.658504	4.315929
03500		-3.708854	0.338869	10.253746	9.055793	4.638054	-13.747296	0.186569	3.097430	-0.781092	-0.776367	0.254883	0.477051	-0.035481	0.003433	0.103098	0.178404	-0.687826	-0.173274	-0.681941	-124.523418	-89.367348	-26.678051
03501		-2.456118	0.838416	8.754819	8.098534	3.507091	-12.155558	-0.005651	3.198860	-0.651396	-0.796387	0.243408	0.444092	-0.023129	0.008464	0.087926	0.179046	-0.674996	-0.172303	-0.694719	-4.489368	-88.310934	-146.736844
03502		-0.409481	0.545056	8.030283	7.313912	3.383667	-9.851611	-0.226799	3.337717	-0.558338	-0.807617	0.245605	0.417480	-0.002739	0.005551	0.080350	0.179189	-0.663038	-0.170391	-0.706568	2.892069	-86.400928	-154.254950
03503		1.777023	-0.024081	7.932495	6.796662	3.732674	-7.373741	-0.395369	3.543585	-0.525644	-0.829590	0.229492	0.386719	0.019171	-0.000134	0.078994	0.179136	-0.648921	-0.167182	-0.720321	4.689293	-84.131499	-156.301375
03504		3.441272	-0.923374	7.797224	5.993080	4.318163	-5.463038	-0.426235	3.855977	-0.533621	-0.841064	0.236084	0.348877	0.035883	-0.009163	0.077309	0.179018	-0.634856	-0.163897	-0.733517	5.355135	-81.905543	-157.217854
03505		5.117951	-1.723081	7.804075	5.206629	4.813188	-3.505714	-0.301006	4.243311	-0.572232	-0.861084	0.224854	0.309326	0.052771	-0.017264	0.076958	0.178583	-0.617627	-0.159824	-0.749066	5.784848	-79.225910	-157.970237
03506		6.460957	-1.890298	7.597898	4.428040	4.648538	-1.950666	-0.080739	4.670408	-0.616411	-0.867920	0.222656	0.258301	0.066302	-0.019075	0.074451	0.179706	-0.599555	-0.157216	-0.763886	6.087269	-76.529377	-158.326544
03507		7.147505	-1.417670	7.344051	3.873928	3.889719	-1.045009	0.119983	5.069733	-0.638608	-0.876465	0.213623	0.214111	0.073260	-0.014452	0.071590	0.180796	-0.577967	-0.154049	-0.780728	6.329820	-73.369985	-158.640983
03508		7.496006	-0.423635	7.150784	3.624637	2.724353	-0.489747	0.192827	5.368874	-0.621715	-0.889893	0.208984	0.158936	0.076829	-0.004541	0.069458	0.182993	-0.556157	-0.151694	-0.796362	6.474959	-70.274804	-158.677179
03509		7.737282	0.268841	7.034460	3.242367	1.826744	-0.038074	0.136643	5.555789	-0.577519	-0.894531	0.207031	0.103516	0.079294	0.002414	0.068161	0.185247	-0.531633	-0.148143	-0.813083	6.414274	-66.839937	-158.565588
03510		8.152621	0.867759	7.084380	2.877653	1.048410	0.579387	-0.003441	5.644066	-0.520452	-0.896240	0.193604	0.050537	0.083504	0.008463	0.068506	0.187226	-0.508105	-0.144230	-0.828235	6.280710	-63.594359	-158.420456
03511		8.966767	1.291586	7.286918	2.284550	0.359276	1.579662	-0.183028	5.667782	-0.465044	-0.889648	0.194092	-0.005127	0.091714	0.012769	0.070277	0.188838	-0.482600	-0.138730	-0.843914	5.975538	-60.105154	-158.233431
03512		9.941476	1.172429	7.605148	1.402604	0.135269	2.678004	-0.338059	5.676022	-0.444642	-0.891602	0.178467	-0.069092	0.101545	0.011625	0.073170	0.190004	-0.458477	-0.132966	-0.857914	5.658307	-56.845223	-158.088362
03513		10.832458	1.102079	7.910620	0.425925	-0.199579	3.635890	-0.446948	5.673504	-0.466478	-0.873535	0.174561	-0.115723	0.110535	0.010937	0.075967	0.190627	-0.432396	-0.126132	-0.872230	5.305078	-53.358523	-158.010732
03514		11.500346	0.818025	8.299798	-0.505096	-0.278745	4.379815	-0.514438	5.625563	-0.499571	-0.857422	0.164063	-0.168701	0.117297	0.008097	0.079699	0.190806	-0.407875	-0.119561	-0.884837	5.005062	-50.123788	-158.003847
03515		11.991933	0.499176	8.847339	-1.353372	-0.276772	5.032037	-0.538042	5.522723	-0.531426	-0.836914	0.155518	-0.219727	0.122314	0.004901	0.085104	0.190512	-0.381843	-0.112427	-0.897364	4.710227	-46.730758	-158.063749
03516		12.614289	-0.054131	9.465303	-2.345769	-0.067785	5.780512	-0.520398	5.385558	-0.540727	-0.810059	0.151855	-0.266357	0.128628	-0.000647	0.091213	0.190048	-0.357740	-0.105958	-0.908117	4.474628	-43.631206	-158.151716
03517		13.273439	-0.403762	9.965285	-3.455370	-0.135731	6.424092	-0.453658	5.257191	-0.497628	-0.778076	0.139160	-0.297363	0.135282	-0.004151	0.096128	0.189608	-0.332352	-0.099247	-0.918554	4.239665	-40.406173	-158.234450
03518		13.767905	-0.877834	10.357215	-4.557845	-0.071782	6.823225	-0.374286	5.153957	-0.397397	-0.746338	0.133301	-0.330811	0.140269	-0.008866	0.099996	0.189653	-0.308737	-0.093273	-0.927369	4.036891	-37.445377	-158.252758
03519		14.364984	-1.343232	10.742449	-5.812754	-0.089942	7.207686	-0.247336	5.058860	-0.233736	-0.712402	0.120605	-0.357178	0.146290	-0.013472	0.103763	0.190392	-0.283867	-0.087162	-0.935721	3.822119	-34.362709	-158.180140
03520		15.817735	-1.232483	10.947959	-7.570696	-0.952971	7.886953	-0.071782	4.991359	-0.001717	-0.687500	0.118896	-0.375000	0.160843	-0.012288	0.105492	0.192396	-0.260502	-0.082054	-0.942544	3.661059	-31.509731	-157.959251
03521		18.056790	0.471691	10.659424	-9.629371	-3.733811	8.439317	0.069764	5.002113	0.304244	-0.658203	0.112793	-0.390625	0.183151	0.004958	0.102036	0.195821	-0.235637	-0.076666	-0.948816	3.470579	-28.501254	-157.559280
03522		20.347564	1.780312	10.652596	-11.758363	-6.186704	9.002770	0.000241	5.102331	0.643137	-0.642334	0.106689	-0.410645	0.206046	0.018463	0.101291	0.200761	-0.211608	-0.070893	-0.953882	3.196300	-25.604919	-156.955663
03523		22.162468	1.358753	9.648981	-14.620172	-7.250844	8.066479	-0.092490	5.224413	0.827272	-0.628906	0.106934	-0.430664	0.223985	0.014554	0.090652	0.206304	-0.185994	-0.063916	-0.958520	2.841051	-22.515267	-156.272459
03524		22.653345	0.679750	7.984376	-16.558606	-7.734463	5.783433	-0.084709	5.293322	0.891081	-0.608643	0.105225	-0.452881	0.228507	0.007845	0.073810	0.212111	-0.160938	-0.057202	-0.962204	2.542122	-19.510368	-155.573881
03525		22.216101	0.128176	5.880017	-17.595816	-7.978696	2.627253	-0.012906	5.194553	0.854547	-0.588135	0.101074	-0.481689	0.223580	0.002239	0.053005	0.217561	-0.135494	-0.050642	-0.965269	2.319532	-16.475853	-154.932722
03526		21.107512	0.316846	3.392189	-17.533730	-8.516413	-1.033116	-0.011708	4.865820	0.806267	-0.574707	0.099365	-0.501709	0.211802	0.004023	0.028774	0.222608	-0.112192	-0.044735	-0.967397	2.159180	-13.708719	-154.342068
03527		20.188296	0.701439	0.936448	-17.250203	-9.128993	-4.524723	-0.123981	4.320723	0.766326	-0.559082	0.099609	-0.528320	0.201993	0.007792	0.004997	0.227131	-0.091299	-0.038703	-0.968802	1.958169	-11.214515	-153.803484
03528		20.257914	1.153472	-1.517030	-17.551629	-10.069988	-7.690795	-0.362184	3.654828	0.725057	-0.545654	0.099854	-0.550781	0.202213	0.012236	-0.018890	0.231143	-0.074136	-0.032463	-0.969548	1.664442	-9.135218	-153.314609
03529		21.564548	1.566045	-4.093054	-18.798032	-11.402867	-10.710669	-0.699222	2.963657	0.626486	-0.530273	0.109131	-0.557617	0.214957	0.016184	-0.044175	0.234388	-0.060759	-0.025340	-0.969912	1.194602	-7.454624	-152.906690
03530		24.223254	2.071983	-6.830630	-21.106513	-13.307770	-13.699076	-1.100751	2.323389	0.441310	-0.514648	0.114014	-0.568848	0.241370	0.020866	-0.071228	0.236466	-0.050838	-0.017146	-0.970157	0.531597	-6.127993	-152.632076
03531		25.963177	1.281241	-9.799931	-23.194535	-13.497691	-16.993922	-1.450912	1.772275	0.151980	-0.508545	0.127441	-0.580322	0.258740	0.012287	-0.100385	0.237028	-0.044461	-0.008036	-0.970452	-0.315272	-5.169537	-152.534777
03532		24.233825	-1.032193	-11.493339	-22.845616	-10.507499	-19.198832	-1.484492	1.095265	-0.259564	-0.506348	0.127441	-0.584717	0.241690	-0.011495	-0.116176	0.235471	-0.040898	0.000405	-0.971020	-1.152317	-4.544607	-152.692244
03533		20.763497	-3.636136	-11.434936	-21.022199	-6.352201	-19.446592	-1.029574	0.157534	-0.772346	-0.508789	0.134033	-0.582764	0.207401	-0.037751	-0.114321	0.231603	-0.042275	0.005253	-0.971877	-1.712712	-4.573561	-153.123923
03534		18.038494	-4.684216	-9.547652	-19.015431	-3.928496	-17.652259	-0.181808	-0.959367	-1.314942	-0.515137	0.125000	-0.575684	0.180526	-0.048115	-0.094567	0.225191	-0.047186	0.004745	-0.973160	-1.754072	-5.146508	-153.863153
03535		16.390712	-8.984144	-7.366093	-19.325256	0.860081	-15.236444	1.102987	-2.045930	-1.562939	-0.532227	0.104736	-0.552979	0.163946	-0.090721	-0.072483	0.218012	-0.057183	-0.003493	-0.974263	-1.045335	-6.485184	-154.714039
03536		5.762561	-0.222978	2.976202	-4.923121	-2.045822	-6.113256	2.689152	-3.377926	-1.580169	-0.553955	0.084229	-0.536865	0.057090	-0.003091	0.030692	0.210966	-0.070670	-0.020728	-0.974715	0.613334	-8.424793	-155.619842
03537		6.076837	12.946031	17.801464	2.375683	-12.699041	9.014502	1.979472	-3.241169	-1.150305	-0.567139	0.079346	-0.516846	0.058596	0.127342	0.180243	0.205874	-0.085641	-0.034373	-0.974218	1.847735	-10.429064	-156.304005
03538		-2.241883	7.657429	20.355473	8.414168	-3.845313	9.996459	0.913485	-2.219177	0.106117	-0.569092	0.070557	-0.505615	-0.024718	0.075632	0.203636	0.206384	-0.095529	-0.041062	-0.972930	2.368608	-11.702854	-156.289929
03539		-3.448607	2.592763	10.030231	5.939798	0.310776	-0.656440	1.042911	-2.025484	1.033876	-0.580566	0.079102	-0.494629	-0.035632	0.025223	0.100078	0.211645	-0.105788	-0.048047	-0.970416	2.852005	-13.041393	-155.719270
03540		4.431700	8.209283	7.037383	0.990336	-8.180677	-1.527662	0.361997	-2.918539	1.482369	-0.594727	0.092041	-0.472656	0.042673	0.082285	0.071153	0.218298	-0.119916	-0.052105	-0.967084	2.870382	-14.754962	-154.931617
03541		11.549960	7.959058	11.746039	-3.878290	-10.033593	4.985012	-0.343306	-3.192062	1.276886	-0.597168	0.100830	-0.448242	0.113095	0.080521	0.119141	0.223530	-0.137222	-0.053525	-0.963504	2.501812	-16.759642	-154.245805
03542		14.004183	5.392808	14.145127	-6.007784	-8.279071	8.093161	-0.522087	-2.760538	0.672237	-0.602295	0.118652	-0.437500	0.137890	0.054766	0.143222	0.225647	-0.151279	-0.053632	-0.960896	2.101202	-18.356647	-153.908962
03543		12.547544	0.459363	10.345796	-7.535738	-3.828067	4.088161	-0.584909	-2.289775	0.327594	-0.613770	0.122803	-0.430908	0.124272	0.005103	0.104871	0.226248	-0.164262	-0.053635	-0.958620	1.736237	-19.828140	-153.744237
03544		11.214364	-3.576380	9.164010	-8.276813	0.163254	2.596597	-0.489748	-2.128624	0.461304	-0.614014	0.133789	-0.415771	0.111241	-0.035280	0.092914	0.227471	-0.175142	-0.053317	-0.956420	1.369702	-21.055723	-153.497727
03545		10.041408	-3.874729	9.546222	-7.029904	1.029478	2.696838	-0.255322	-1.913424	0.690997	-0.616455	0.135986	-0.411377	0.099627	-0.038279	0.096467	0.230129	-0.186081	-0.054124	-0.953669	1.089450	-22.323177	-153.081744
03546		10.284235	-1.614505	10.622427	-5.609800	-0.830030	3.936646	0.096098	-1.699439	0.457454	-0.621338	0.149170	-0.411621	0.101972	-0.015962	0.107086	0.231929	-0.194201	-0.056115	-0.951497	1.042156	-23.302974	-152.817272
03547		8.620801	2.456990	10.451112	-2.203144	-3.676489	3.271942	0.109384	-1.329556	0.098000	-0.623779	0.151367	-0.409424	0.085499	0.024555	0.105095	0.232232	-0.201786	-0.058499	-0.949699	1.092730	-24.232656	-152.752611
03548		6.945743	0.429912	9.658693	-1.938225	-1.271130	1.863986	-0.000584	-1.058917	-0.065657	-0.628418	0.157959	-0.411621	0.068946	0.004277	0.096953	0.231605	-0.206805	-0.059796	-0.948691	1.115171	-24.840045	-152.806981
03549		7.746060	-1.012628	8.656929	-3.495281	-0.460082	1.302152	0.050938	-0.913176	-0.104163	-0.624023	0.162598	-0.416260	0.077059	-0.010189	0.086919	0.230987	-0.212392	-0.061636	-0.947489	1.186171	-25.527985	-152.867140
03550		8.800762	-0.566380	8.451031	-4.134729	-1.277328	1.609478	0.096067	-0.756004	-0.067225	-0.628662	0.164795	-0.427490	0.087685	-0.005734	0.084839	0.230534	-0.215853	-0.063041	-0.946725	1.264534	-25.961866	-152.920359
03551		7.792781	0.588782	7.961356	-2.888029	-1.935802	0.787730	0.082097	-0.623073	-0.011553	-0.635742	0.171143	-0.423096	0.077680	0.005851	0.079858	0.230472	-0.220055	-0.064580	-0.945668	1.325724	-26.485181	-152.918457
03552		5.646054	0.336919	8.114756	-1.182293	-0.769910	-0.022394	0.043237	-0.590309	0.010894	-0.638184	0.180176	-0.436523	0.056221	0.003355	0.081314	0.230378	-0.222814	-0.065457	-0.944984	1.351627	-26.825237	-152.920506
03553		4.973881	-0.083371	8.487140	-0.623652	0.004587	0.005088	0.060371	-0.603787	-0.027329	-0.644775	0.175537	-0.440918	0.049482	-0.000866	0.085021	0.230215	-0.226921	-0.066886	-0.943946	1.405737	-27.335372	-152.929691
03554		5.285278	-0.108586	8.444901	-0.849795	-0.073135	0.113767	0.094046	-0.597709	-0.057696	-0.652100	0.186523	-0.443359	0.052600	-0.001141	0.084606	0.229847	-0.229628	-0.068089	-0.943295	1.481631	-27.678809	-152.976874
03555		5.839649	0.195501	8.675398	-0.980490	-0.459326	0.590658	0.102025	-0.574446	-0.066708	-0.661377	0.193115	-0.452393	0.058148	0.001891	0.086922	0.229548	-0.233489	-0.069709	-0.942301	1.571677	-28.166636	-153.012725
03556		5.695673	0.664441	8.259545	-0.773927	-0.877871	0.173922	0.109821	-0.547193	-0.056417	-0.668213	0.195068	-0.458984	0.056732	0.006583	0.082755	0.229217	-0.235937	-0.070926	-0.941681	1.657098	-28.481171	-153.059671
03557		5.473987	1.048397	8.454046	-0.272652	-1.034389	0.256573	0.061112	-0.563970	-0.038552	-0.683838	0.194824	-0.458984	0.054503	0.010448	0.084698	0.228997	-0.239766	-0.072300	-0.940662	1.716534	-28.959431	-153.079212
03558		5.549558	0.882298	8.887043	-0.179528	-0.778333	0.671456	0.022845	-0.563881	-0.054326	-0.695313	0.203369	-0.461182	0.055247	0.008798	0.089027	0.228562	-0.242389	-0.073125	-0.940032	1.752738	-29.283608	-153.126236
03559		6.092161	0.715117	8.850587	-0.621880	-0.810087	0.907176	-0.015950	-0.507379	-0.059775	-0.704590	0.205566	-0.465576	0.060699	0.007140	0.088659	0.228157	-0.245986	-0.074095	-0.939119	1.776511	-29.724523	-153.160841
03560		6.133246	1.159972	8.503720	-0.550965	-1.283058	0.643197	-0.045527	-0.449759	-0.039839	-0.720459	0.214111	-0.459229	0.061143	0.011607	0.085172	0.227745	-0.248153	-0.074450	-0.938621	1.768442	-29.983707	-153.196559
03561		6.428693	1.177494	8.268299	-0.809207	-1.444656	0.595837	-0.126215	-0.387661	-0.033668	-0.722656	0.214111	-0.463623	0.064129	0.011816	0.082800	0.227359	-0.251286	-0.074734	-0.937858	1.720930	-30.352858	-153.212958
03562		6.245999	0.459538	8.481023	-0.871634	-0.676774	0.672234	-0.175578	-0.308988	-0.015413	-0.731934	0.220459	-0.468018	0.062329	0.004665	0.084903	0.226948	-0.252948	-0.074288	-0.937546	1.628917	-30.532015	-153.229421
03563		5.298706	-0.046297	8.663736	-0.242890	0.198563	0.338188	-0.175840	-0.246144	-0.002273	-0.741211	0.229248	-0.463867	0.052880	-0.000387	0.086703	0.226689	-0.255456	-0.074137	-0.936941	1.541744	-30.817562	-153.222759
03564		4.847239	-0.125706	8.248279	-0.090735	0.338287	-0.251154	-0.148766	-0.244630	-0.052921	-0.752441	0.224609	-0.465820	0.048371	-0.001208	0.082543	0.226158	-0.256771	-0.073792	-0.936737	1.477213	-30.959464	-153.262600
03565		5.253981	-0.877903	8.119160	-0.762843	0.832422	-0.167954	-0.104678	-0.240290	-0.096552	-0.754639	0.226807	-0.463623	0.052438	-0.008762	0.081259	0.225544	-0.259095	-0.074073	-0.936222	1.462506	-31.235387	-153.318908
03566		5.166194	-0.626794	7.985985	-0.617859	0.621869	-0.321119	-0.032840	-0.263881	-0.147604	-0.763672	0.226563	-0.461426	0.051552	-0.006293	0.079929	0.224711	-0.260334	-0.074416	-0.936052	1.497866	-31.387063	-153.422655
03567		5.736275	-0.438110	7.489068	-1.152833	0.140039	-0.440696	0.015520	-0.290184	-0.199722	-0.766113	0.233154	-0.459229	0.057250	-0.004444	0.074973	0.223752	-0.262683	-0.075428	-0.935544	1.587995	-31.685630	-153.549412
03568		5.870899	-0.024277	7.811027	-0.898523	-0.168135	-0.084148	0.054907	-0.322053	-0.223719	-0.777344	0.230713	-0.454834	0.058583	-0.000330	0.078205	0.222653	-0.264066	-0.076347	-0.935343	1.702499	-31.869242	-153.706600
03569		5.010115	0.183025	8.227070	0.081972	0.120162	-0.179506	0.075951	-0.320096	-0.219131	-0.779541	0.230713	-0.450439	0.049971	0.001744	0.082351	0.221671	-0.266452	-0.077690	-0.934789	1.836090	-32.181028	-153.848861
03570		4.876557	-0.140037	8.485450	0.176824	0.556770	-0.042228	0.089344	-0.346233	-0.244311	-0.788818	0.234863	-0.450439	0.048617	-0.001498	0.084938	0.220511	-0.267900	-0.078825	-0.934554	1.980233	-32.377607	-154.022403
03571		4.940812	-0.269142	8.187919	-0.030399	0.612682	-0.265457	0.133229	-0.370417	-0.280332	-0.797363	0.228027	-0.441406	0.049252	-0.002815	0.081969	0.220100	-0.270316	-0.080678	-0.933797	2.157725	-32.707753	-154.107594
03572		5.565086	-0.279026	7.855426	-0.643390	0.345056	-0.209431	0.182088	-0.386753	-0.332855	-0.797363	0.225830	-0.436768	0.055494	-0.002954	0.078659	0.218633	-0.271810	-0.082412	-0.933556	2.391023	-32.924689	-154.345055
03573		6.221386	-0.516078	7.471953	-1.393174	0.271004	-0.180065	0.253404	-0.393616	-0.379524	-0.802002	0.228027	-0.436768	0.062057	-0.005373	0.074835	0.217606	-0.274142	-0.084934	-0.932888	2.684088	-33.260850	-154.541677
03574		5.781523	0.146690	7.957892	-0.517264	0.029730	0.011103	0.300527	-0.352803	-0.368323	-0.801758	0.225830	-0.432373	0.057677	0.001241	0.079683	0.216147	-0.275328	-0.087233	-0.932666	3.002071	-33.455473	-154.806304
03575		6.220717	0.417086	8.155403	-0.604658	-0.248852	0.432022	0.316409	-0.314123	-0.341695	-0.806152	0.221191	-0.421143	0.062086	0.003936	0.081658	0.215796	-0.277158	-0.089963	-0.931945	3.313322	-33.739638	-154.930382
03576		6.683006	0.915274	8.187908	-0.707666	-0.791846	0.742601	0.300254	-0.237615	-0.309008	-0.810303	0.214355	-0.418701	0.066747	0.008927	0.081972	0.214662	-0.277828	-0.092055	-0.931803	3.609632	-33.868147	-155.153243
03577		6.527926	1.305360	8.099670	-0.436958	-1.056934	0.609129	0.250639	-0.172588	-0.247942	-0.810547	0.218994	-0.416748	0.065225	0.012871	0.081069	0.214438	-0.279102	-0.094155	-0.931264	3.853262	-34.070803	-155.246600
03578		6.451261	1.195193	8.024053	-0.466170	-0.918803	0.500949	0.193459	-0.128065	-0.185609	-0.814941	0.216553	-0.416504	0.064472	0.011814	0.080293	0.213781	-0.279431	-0.095461	-0.931184	4.039839	-34.140095	-155.381138
03579		6.368414	1.325289	8.267090	-0.209973	-0.899916	0.666047	0.152370	-0.084531	-0.116901	-0.805664	0.210205	-0.412109	0.063657	0.013153	0.082708	0.214252	-0.280410	-0.096862	-0.930636	4.173750	-34.292954	-155.358608
03580		5.958359	1.768651	8.702727	0.509314	-1.004533	0.822120	0.088203	-0.073939	-0.037426	-0.814941	0.216553	-0.414307	0.059555	0.017637	0.087057	0.214164	-0.280669	-0.097413	-0.930521	4.241480	-34.337144	-155.388569
03581		5.419185	1.466890	8.564478	0.734927	-0.573938	0.385356	0.027928	-0.102365	0.026942	-0.817139	0.216553	-0.409912	0.054146	0.014664	0.085675	0.215061	-0.281904	-0.098048	-0.929874	4.251337	-34.502614	-155.275971
03582		5.719884	1.288466	8.493556	0.410028	-0.536469	0.485941	-0.041649	-0.184329	0.074165	-0.810547	0.218994	-0.409912	0.057116	0.012924	0.084986	0.215254	-0.282871	-0.097958	-0.929545	4.204124	-34.614687	-155.234257
03583		5.518590	1.737480	8.682304	0.902747	-0.798522	0.550872	-0.122134	-0.302404	0.116746	-0.817139	0.216553	-0.401123	0.055044	0.017460	0.086896	0.216321	-0.285197	-0.097998	-0.928582	4.097693	-34.893644	-155.060967
03584		5.581161	1.716550	8.785638	0.943771	-0.772174	0.665677	-0.215168	-0.460335	0.183752	-0.824219	0.222900	-0.394531	0.055593	0.017311	0.087966	0.216639	-0.287685	-0.097244	-0.927819	3.914173	-35.167821	-154.955463
03585		5.522737	1.458848	8.787865	0.952971	-0.519147	0.612152	-0.315981	-0.612516	0.258934	-0.828613	0.220703	-0.387695	0.054939	0.014799	0.088024	0.217706	-0.291711	-0.096487	-0.926390	3.650638	-35.625759	-154.723776
03586		5.363877	0.980171	9.012606	1.047848	0.020930	0.668715	-0.382322	-0.764814	0.304810	-0.835205	0.222656	-0.378906	0.053278	0.010056	0.090311	0.218187	-0.295844	-0.095113	-0.925108	3.325339	-36.077590	-154.541804
03587		5.059107	0.815385	9.133076	1.375172	0.312844	0.564325	-0.440925	-0.969651	0.333612	-0.833252	0.229492	-0.365723	0.050134	0.008439	0.091556	0.218915	-0.301678	-0.094000	-0.923164	2.966387	-36.737629	-154.304299
03588		4.969134	0.556324	9.075031	1.419280	0.556339	0.435846	-0.452898	-1.234159	0.367992	-0.839844	0.227051	-0.350098	0.049120	0.005860	0.091042	0.219343	-0.308067	-0.092713	-0.921080	2.573912	-37.458025	-154.083258
03589		5.379547	0.565566	8.971495	1.244085	0.395770	0.581556	-0.426897	-1.526315	0.407397	-0.846924	0.233643	-0.336914	0.053097	0.005956	0.090109	0.220012	-0.316426	-0.092122	-0.918141	2.189428	-38.431797	-153.812049
03590		4.872278	0.455526	9.275733	1.895635	0.791195	0.471430	-0.343411	-1.821856	0.475830	-0.858398	0.242188	-0.317139	0.047864	0.004830	0.093188	0.220802	-0.325403	-0.091803	-0.914840	1.802148	-39.488513	-153.508492
03591		4.746541	0.412799	9.550778	2.334654	1.014882	0.552265	-0.258927	-2.134975	0.543882	-0.865234	0.248535	-0.299316	0.046431	0.004379	0.096002	0.221905	-0.336335	-0.092377	-0.910551	1.435328	-40.805905	-153.141494
03592		4.376287	0.589879	9.980768	3.150480	1.188994	0.568542	-0.219374	-2.482697	0.618311	-0.874268	0.248291	-0.268311	0.042501	0.006141	0.100334	0.223184	-0.348171	-0.093096	-0.905704	1.023427	-42.239765	-152.709226
03593		4.942701	0.522879	10.037994	3.070003	1.169251	0.895431	-0.236731	-2.893851	0.679595	-0.883301	0.248047	-0.237061	0.047949	0.005513	0.101074	0.224358	-0.362426	-0.094300	-0.899677	0.561631	-43.983168	-152.221551
03594		4.739846	0.478655	10.345499	3.692481	1.487053	0.858109	-0.227386	-3.406591	0.733097	-0.899170	0.258789	-0.197266	0.045609	0.005074	0.104236	0.225602	-0.378327	-0.095767	-0.892637	0.022106	-45.941319	-151.641964
03595		4.191941	-0.765882	11.106138	4.303455	3.172149	0.812927	-0.216044	-4.067989	0.735627	-0.912842	0.265137	-0.159668	0.039677	-0.007390	0.111892	0.226632	-0.397513	-0.098283	-0.883721	-0.557649	-48.342234	-150.982480
03596		3.232755	-2.497166	11.582956	4.764275	5.346638	0.164283	-0.168048	-4.802722	0.613719	-0.919678	0.267090	-0.104248	0.029610	-0.024780	0.116583	0.226581	-0.419139	-0.101745	-0.873288	-1.116041	-51.092852	-150.376396
03597		4.194951	-3.170624	12.198228	4.823758	6.102456	0.952873	-0.095806	-5.540216	0.398558	-0.923828	0.264648	-0.041992	0.038613	-0.031568	0.123098	0.225330	-0.443918	-0.106985	-0.860649	-1.562549	-54.324116	-149.855154
03598		4.472328	-2.970158	13.071387	5.974121	6.480516	1.229718	-0.005059	-6.328880	0.224544	-0.928711	0.273193	0.011230	0.040592	-0.029651	0.132043	0.222785	-0.471082	-0.113552	-0.845904	-1.921324	-57.949055	-149.426290
03599		7.551751	-1.642489	13.646518	6.362703	5.133068	3.567107	0.122234	-7.139698	0.096278	-0.923828	0.268555	0.097900	0.070592	-0.016475	0.139034	0.219368	-0.501247	-0.121913	-0.828110	-2.203663	-62.087479	-148.999600
03600		14.115144	-0.397684	13.516484	5.259971	3.000089	8.767867	0.143351	-7.646636	0.071511	-0.919189	0.270752	0.166504	0.135850	-0.004027	0.140424	0.215200	-0.532451	-0.130634	-0.808158	-2.586842	-66.467554	-148.482967
03601		19.898255	2.054450	14.259551	6.512429	0.766336	13.855996	-0.020341	-7.616664	0.214667	-0.896484	0.268799	0.235352	0.193340	0.020769	0.150029	0.210938	-0.563272	-0.138232	-0.786843	-3.514528	-70.861706	-147.485006
03602		16.411271	2.099211	13.972030	8.717810	1.957937	9.908046	-0.419786	-7.424818	0.210003	-0.878662	0.273438	0.306152	0.158756	0.021462	0.145636	0.205302	-0.592703	-0.143733	-0.765438	-5.205161	-75.099122	-145.969187
03603		13.497370	0.808324	13.674841	9.647475	3.955562	6.341375	-0.379315	-7.204013	0.127490	-0.853760	0.273682	0.370361	0.129929	0.008433	0.141474	0.199381	-0.620559	-0.149347	-0.743538	-7.798446	-79.226191	-143.520808
03604		10.309115	1.737705	11.954240	9.986679	3.141802	2.124338	-0.240268	-7.084657	0.102042	-0.828857	0.273926	0.434570	0.098764	0.017575	0.123071	0.193597	-0.646845	-0.155115	-0.721145	-13.080240	-83.216071	-138.318549
03605		11.345702	-1.324773	11.777974	9.017214	6.074388	2.470846	0.027947	-6.936159	0.018677	-0.797607	0.278809	0.478760	0.109284	-0.013254	0.121617	0.188257	-0.671557	-0.161884	-0.698115	-30.461033	-86.966896	-120.859140
03606		11.713858	-3.501251	12.524489	9.277452	8.773033	2.153863	0.608929	-6.413021	-0.288239	-0.770264	0.270264	0.525391	0.112995	-0.035566	0.128805	0.184004	-0.692809	-0.170937	-0.675973	-127.646777	-88.273058	-23.278616
03607		12.318535	-1.606853	13.122971	11.258182	7.878793	1.919055	0.871404	-5.534586	-0.528331	-0.736572	0.275391	0.558350	0.119449	-0.016969	0.134497	0.180426	-0.710020	-0.180769	-0.656232	-165.556819	-85.640457	15.173777
03608		9.589732	5.928618	15.535154	17.245029	2.847359	-1.882227	0.314523	-4.752286	-0.421798	-0.722656	0.264404	0.589600	0.092293	0.058842	0.157666	0.175808	-0.724768	-0.187543	-0.639242	-172.895971	-83.000637	22.728605
03609		15.181279	5.635874	24.007529	25.330119	7.682297	1.931024	-0.938346	-2.722367	-0.195350	-0.711426	0.264648	0.600830	0.148584	0.057344	0.241845	0.169184	-0.733982	-0.187608	-0.630437	-175.434702	-81.470295	24.743862
03610		22.441797	-1.966363	23.164338	22.073722	14.241325	9.002698	-1.055267	0.208814	-0.120920	-0.722412	0.255615	0.585449	0.224648	-0.018578	0.231509	0.165120	-0.734116	-0.184555	-0.632257	-176.447873	-81.590083	25.157365
03611		4.307151	-5.630499	18.914211	14.267220	14.184775	-8.017622	-0.149983	2.451124	-0.216734	-0.735840	0.253174	0.561279	0.045325	-0.056212	0.188638	0.166081	-0.726034	-0.182721	-0.641798	-176.868167	-83.038309	25.479628
03612		-6.248518	-5.018705	14.216021	9.371974	10.924534	-17.502293	0.682539	3.074125	-0.341832	-0.758301	0.255127	0.532471	-0.060378	-0.050570	0.142927	0.170246	-0.715224	-0.183585	-0.652509	-177.503002	-84.802806	26.511688
03613		-6.298006	-1.809173	11.664920	8.842832	7.060855	-16.950096	1.233589	3.135937	-0.420577	-0.771973	0.259277	0.494629	-0.061181	-0.018685	0.117504	0.175987	-0.703195	-0.186106	-0.663257	-179.376446	-86.661208	29.059629
03614		-5.267483	1.709074	10.079459	9.381254	3.441273	-15.504830	1.143421	3.101804	-0.319834	-0.785645	0.261230	0.468018	-0.051075	0.016594	0.101691	0.181805	-0.691533	-0.188277	-0.673262	175.666251	-88.429330	34.677034
03615		-2.485685	2.502341	9.103643	9.095127	2.444393	-12.384076	0.680687	3.181862	-0.152603	-0.806152	0.263184	0.437012	-0.023385	0.024731	0.091501	0.186446	-0.679643	-0.187839	-0.684134	32.575840	-89.618990	178.117777
03616		0.623782	2.099792	8.582764	8.433420	2.577998	-8.984453	0.201118	3.451166	-0.091534	-0.817139	0.258789	0.403809	0.007727	0.020908	0.085724	0.190026	-0.667488	-0.185602	-0.695630	6.473159	-87.691565	-155.660479
03617		2.692058	1.037252	8.429593	7.614609	3.336101	-6.609644	-0.168919	3.844876	-0.158013	-0.830566	0.254150	0.366211	0.028542	0.010421	0.083749	0.192213	-0.653624	-0.181486	-0.709149	4.400286	-85.416455	-153.731023
03618		3.613983	-0.399704	7.959684	6.284920	4.212768	-5.417450	-0.324240	4.259898	-0.305820	-0.843994	0.247314	0.326416	0.037818	-0.003926	0.078810	0.193886	-0.638430	-0.177210	-0.723472	4.147354	-82.973577	-153.663144
03619		4.464448	-1.543720	7.670610	5.176637	4.884940	-4.291909	-0.273162	4.620633	-0.506273	-0.859619	0.244873	0.284424	0.046362	-0.015449	0.075669	0.194925	-0.620927	-0.172898	-0.739297	4.590568	-80.232254	-154.327247
03620		5.456663	-2.146240	7.482857	4.301264	5.111441	-3.050250	-0.094329	4.922497	-0.703634	-0.875244	0.238037	0.233643	0.056310	-0.021624	0.073467	0.196222	-0.602051	-0.169893	-0.755095	5.335812	-77.391516	-155.141365
03621		6.542616	-2.008391	7.228836	3.584721	4.617639	-1.756508	0.105637	5.184503	-0.881306	-0.888428	0.226807	0.180664	0.067181	-0.020415	0.070551	0.197244	-0.580933	-0.167374	-0.771750	6.188830	-74.301021	-156.017594
03622		7.246447	-1.139194	7.187004	3.376779	3.612655	-0.813658	0.195664	5.398869	-0.972254	-0.890381	0.218018	0.134277	0.074312	-0.011819	0.069869	0.198501	-0.558903	-0.165575	-0.787915	6.945307	-71.168122	-156.691672
03623		7.853473	-0.123639	7.222607	3.225903	2.486478	0.048335	0.122583	5.533654	-0.986443	-0.898926	0.204590	0.076904	0.080485	-0.001674	0.070016	0.199127	-0.535421	-0.162817	-0.804464	7.430340	-67.864828	-157.197219
03624		8.547876	0.465271	7.195838	2.710825	1.654919	0.908402	-0.085948	5.622161	-0.937312	-0.905273	0.193604	0.014893	0.087477	0.004276	0.069516	0.199619	-0.511942	-0.159327	-0.820172	7.632934	-64.604717	-157.471880
03625		9.191347	0.468850	7.308316	1.946189	1.343004	1.697458	-0.342257	5.654584	-0.874000	-0.900635	0.182861	-0.038086	0.093950	0.004403	0.070438	0.199380	-0.487602	-0.154079	-0.835913	7.542357	-61.238124	-157.637343
03626		9.823526	0.096881	7.587205	1.079510	1.399382	2.471940	-0.549197	5.638012	-0.822460	-0.886475	0.163086	-0.088623	0.100325	0.000762	0.073061	0.198862	-0.463782	-0.148116	-0.850542	7.313511	-57.977603	-157.736473
03627		10.539651	-0.332270	7.873980	0.072659	1.440348	3.266679	-0.678646	5.576322	-0.770752	-0.877441	0.161377	-0.148682	0.107524	-0.003474	0.075773	0.197840	-0.439375	-0.141042	-0.864821	6.961560	-54.663552	-157.830349
03628		11.049635	-0.582562	8.354011	-0.644418	1.425039	3.961567	-0.734282	5.475618	-0.695628	-0.861572	0.150635	-0.201904	0.112708	-0.005916	0.080496	0.197000	-0.415793	-0.133934	-0.877706	6.576299	-51.504659	-157.874374
03629		11.661216	-0.796888	9.259365	-1.189213	1.473424	4.976412	-0.749339	5.363165	-0.579542	-0.832275	0.149170	-0.246338	0.119016	-0.007972	0.089453	0.196185	-0.391836	-0.126148	-0.889979	6.112163	-48.326665	-157.881640
03630		12.483765	-0.918202	10.109123	-1.919311	1.322045	6.105606	-0.692799	5.249048	-0.431612	-0.809570	0.143066	-0.292969	0.127414	-0.009113	0.097801	0.196146	-0.368776	-0.118727	-0.900797	5.649601	-45.313060	-157.791362
03631		13.366885	-0.967846	10.780948	-2.874938	0.955992	7.116434	-0.619915	5.170110	-0.258247	-0.769287	0.145996	-0.326416	0.136384	-0.009526	0.104337	0.196601	-0.345207	-0.110931	-0.910974	5.145840	-42.265524	-157.633186
03632		14.687200	-0.987842	11.278909	-4.280968	0.331472	8.225961	-0.554406	5.108231	-0.059356	-0.737793	0.137939	-0.350830	0.149686	-0.009617	0.109017	0.198140	-0.322366	-0.103459	-0.919846	4.642313	-39.349752	-157.348492
03633		16.342937	-1.343318	11.536810	-6.315232	-0.252678	9.212616	-0.456018	5.080458	0.150358	-0.706299	0.136230	-0.373047	0.166299	-0.013052	0.111198	0.200418	-0.298835	-0.095694	-0.928102	4.119745	-36.374179	-156.982867
03634		18.431397	-1.335507	11.204149	-8.877701	-1.542184	9.827551	-0.290683	5.112020	0.380194	-0.672119	0.128174	-0.393066	0.187122	-0.012843	0.107301	0.204126	-0.275515	-0.088631	-0.935184	3.663025	-33.469867	-156.475714
03635		20.430522	1.351727	10.340894	-10.532502	-5.457716	9.817063	-0.131868	5.210785	0.700859	-0.638428	0.126709	-0.413086	0.206857	0.014305	0.098032	0.209227	-0.250970	-0.081364	-0.941604	3.205376	-30.442694	-155.816918
03636		21.744553	2.000372	9.570193	-12.420382	-7.350108	9.160690	-0.233509	5.307361	1.020287	-0.615967	0.125000	-0.433350	0.219776	0.021228	0.089866	0.215817	-0.226578	-0.073411	-0.946940	2.662913	-27.438689	-154.972211
03637		22.915168	1.178880	7.730088	-15.183537	-8.177309	7.178393	-0.253469	5.310456	1.164332	-0.602539	0.127441	-0.444580	0.231022	0.013223	0.071167	0.222713	-0.201624	-0.064866	-0.951598	2.116692	-24.369685	-154.112223
03638		22.798945	-0.266761	5.217071	-17.204244	-8.013317	3.853103	-0.137969	5.166073	1.152335	-0.584717	0.127930	-0.471191	0.229246	-0.001316	0.046261	0.229652	-0.177527	-0.057281	-0.955229	1.717222	-21.436383	-153.288597
03639		21.553712	-0.598023	2.444872	-17.594612	-8.240665	-0.152291	0.060232	4.815496	1.052184	-0.564453	0.123779	-0.493408	0.216070	-0.004851	0.019249	0.235890	-0.154425	-0.050885	-0.958081	1.490773	-18.657439	-152.581425
03640		20.240293	-0.065833	-0.065574	-17.136489	-8.939106	-3.808822	0.169607	4.251731	0.953210	-0.555420	0.126221	-0.511230	0.202328	0.000309	-0.004958	0.241612	-0.134088	-0.045943	-0.959965	1.397284	-16.238779	-151.944889
03641		19.735248	0.425136	-2.263517	-17.056260	-9.737315	-6.811222	0.146602	3.561724	0.857172	-0.546387	0.124268	-0.526855	0.196887	0.005114	-0.026141	0.246509	-0.116869	-0.041615	-0.961168	1.322690	-14.192314	-151.395634
03642		20.604337	0.892607	-4.279408	-17.947239	-11.005537	-9.186696	0.001091	2.842618	0.700118	-0.535156	0.122314	-0.540039	0.205375	0.009646	-0.045716	0.250439	-0.103363	-0.037711	-0.961860	1.219507	-12.575765	-150.946331
03643		22.952116	2.137084	-6.346021	-19.639925	-13.560707	-11.225362	-0.290679	2.173031	0.445728	-0.526367	0.126953	-0.549072	0.228765	0.021787	-0.065980	0.252799	-0.093398	-0.033274	-0.962425	0.983264	-11.338275	-150.662884
03644		25.576544	3.479826	-8.861551	-21.571174	-16.272418	-13.642934	-0.786729	1.610042	0.133702	-0.519775	0.129395	-0.555908	0.255017	0.034615	-0.090807	0.253332	-0.086687	-0.027397	-0.963098	0.515648	-10.419733	-150.572616
03645		24.961780	1.878842	-11.104520	-22.177846	-14.679351	-16.338053	-1.215710	1.019556	-0.202613	-0.519775	0.131592	-0.564941	0.249065	0.017855	-0.112426	0.252020	-0.083532	-0.020343	-0.963896	-0.167858	-9.862560	-150.680478
03646		20.772548	-5.737434	-14.792401	-22.927380	-6.115453	-20.774607	-0.773304	-0.152092	-0.551393	-0.520020	0.135986	-0.551514	0.207677	-0.058518	-0.147541	0.249021	-0.085206	-0.017046	-0.964592	-0.555660	-9.954594	-151.000575
03647		20.042586	-13.270922	-18.884064	-26.705336	0.536000	-24.677402	1.302505	-1.878975	-0.891809	-0.539551	0.120117	-0.540039	0.201603	-0.132381	-0.187813	0.245225	-0.093009	-0.026099	-0.964641	0.276561	-11.083619	-151.500295
03648		8.067895	0.876283	-11.315296	-8.518714	-5.825290	-19.159526	3.085608	-3.642426	-1.178134	-0.556641	0.097412	-0.515137	0.082776	0.010008	-0.111510	0.240429	-0.106635	-0.045994	-0.963695	2.199523	-13.158425	-152.236624
03649		10.627351	18.705575	12.982731	2.324843	-19.182492	6.247929	1.339357	-4.847011	-0.750592	-0.576660	0.092529	-0.490479	0.103765	0.185777	0.133610	0.236509	-0.128747	-0.058713	-0.961270	3.099388	-15.979547	-152.790394
03650		5.092140	12.552837	27.345633	7.971329	-8.294683	18.451479	0.275129	-3.339324	0.361111	-0.590332	0.098877	-0.475098	0.046118	0.125237	0.274426	0.237406	-0.144584	-0.063751	-0.958472	3.226474	-17.904413	-152.684918
03651		2.927722	4.893482	12.203645	3.021097	-3.139960	2.932860	0.446839	-2.658110	0.579916	-0.599609	0.105225	-0.450684	0.027509	0.048743	0.122519	0.239835	-0.157510	-0.068802	-0.955477	3.401408	-19.511554	-152.403466
03652		6.798479	10.667826	5.627768	1.091173	-11.082603	-1.586532	-0.224747	-3.642738	0.365340	-0.611084	0.116211	-0.433105	0.066751	0.106865	0.057381	0.240109	-0.175307	-0.071805	-0.952082	3.239810	-21.610485	-152.309535
03653		17.015734	4.824196	14.147477	-7.079199	-8.324820	10.023846	-0.804498	-3.645172	0.252491	-0.613525	0.120361	-0.410889	0.167482	0.049031	0.144347	0.239449	-0.194214	-0.072362	-0.948530	2.772502	-23.771521	-152.247869
03654		17.034810	-1.841264	13.115917	-10.063935	-2.564546	9.100672	-0.731133	-2.555891	0.226888	-0.620361	0.124756	-0.397705	0.168673	-0.017736	0.133388	0.238868	-0.207303	-0.071737	-0.945950	2.324288	-25.243548	-152.176804
03655		13.178109	-10.679683	10.630158	-11.712182	6.347724	5.128435	-0.219433	-2.239087	0.219274	-0.625244	0.133545	-0.395752	0.130696	-0.106535	0.107886	0.239067	-0.218815	-0.073419	-0.943174	2.171016	-26.606752	-152.066875
03656		13.511399	-7.463768	9.469562	-10.601114	3.239134	4.507111	0.437443	-1.855321	0.213473	-0.634277	0.135498	-0.391113	0.134309	-0.074703	0.095781	0.239859	-0.227137	-0.077471	-0.940678	2.380906	-27.677190	-151.977071
03657		9.269401	-0.519656	8.733992	-4.004883	-1.119932	2.236304	0.549143	-1.483234	0.296788	-0.630127	0.146729	-0.389160	0.092051	-0.005301	0.088010	0.241509	-0.234219	-0.081710	-0.938157	2.623565	-28.615877	-151.796972
03658		6.831593	4.157732	9.102191	0.458208	-3.972397	1.624758	0.448256	-1.272531	0.102158	-0.630371	0.151123	-0.393799	0.067713	0.041407	0.091547	0.241986	-0.239711	-0.085237	-0.936331	2.867647	-29.350477	-151.770190
03659		7.709484	2.110531	9.073296	-1.118381	-2.458212	1.973754	0.193678	-1.063532	-0.190296	-0.639404	0.151123	-0.389404	0.076631	0.020944	0.091162	0.241084	-0.245031	-0.087891	-0.934940	3.059151	-30.036844	-151.902334
03660		8.093204	-1.713203	8.484990	-3.463857	0.623223	1.502896	0.224512	-0.860443	-0.156491	-0.639404	0.153320	-0.405029	0.080553	-0.017291	0.085178	0.240245	-0.248741	-0.090178	-0.933958	3.256240	-30.527811	-152.037615
03661		8.744465	1.613791	8.370163	-2.286681	-2.486856	1.922545	0.261392	-0.642060	-0.008744	-0.644043	0.157715	-0.409424	0.087176	0.016024	0.084003	0.240452	-0.252084	-0.092415	-0.932789	3.422293	-30.979116	-152.038985
03662		7.425968	3.488954	8.176559	-0.392689	-3.591078	1.192929	0.083690	-0.517595	-0.060037	-0.653320	0.164307	-0.422852	0.074058	0.034833	0.081972	0.240035	-0.254399	-0.093513	-0.932159	3.502135	-31.276849	-152.100207
03663		7.421639	0.639749	8.273002	-1.702126	-1.051159	1.138577	-0.040716	-0.441257	-0.055047	-0.655762	0.168701	-0.422852	0.074035	0.006394	0.082892	0.239734	-0.257146	-0.094177	-0.931415	3.510367	-31.612649	-152.126309
03664		6.632849	0.824142	8.066062	-1.068205	-0.936782	0.565969	-0.025077	-0.384685	-0.008164	-0.660400	0.172852	-0.431885	0.066174	0.008249	0.080787	0.239480	-0.258994	-0.094542	-0.930931	3.507584	-31.836285	-152.147858
03665		6.167914	1.790236	8.260809	-0.106413	-1.509740	0.540975	-0.083232	-0.352514	0.027046	-0.671875	0.175049	-0.442871	0.061531	0.017945	0.082709	0.239541	-0.261415	-0.094799	-0.930213	3.461013	-32.124356	-152.115494
03666		6.424897	1.014139	8.313715	-0.623258	-0.914818	0.684940	-0.145187	-0.326813	0.039725	-0.678955	0.186035	-0.443115	0.064111	0.010215	0.083235	0.239379	-0.263159	-0.094473	-0.929795	3.370912	-32.316694	-152.102025
03667		6.061778	0.334750	8.394676	-0.603897	-0.147293	0.528556	-0.152301	-0.290632	0.045955	-0.697021	0.190186	-0.449951	0.060495	0.003425	0.084032	0.239460	-0.265375	-0.094315	-0.929161	3.277009	-32.569393	-152.054403
03668		5.530824	0.978881	8.414674	0.152318	-0.489377	0.291381	-0.157647	-0.273359	0.043022	-0.706299	0.194336	-0.456543	0.055191	0.009867	0.084214	0.239319	-0.266887	-0.093863	-0.928810	3.176945	-32.731358	-152.035836
03669		5.395063	0.517203	8.641937	0.171319	0.039928	0.386639	-0.170062	-0.257941	0.045956	-0.713135	0.198730	-0.458740	0.053838	0.005258	0.086484	0.239382	-0.268961	-0.093581	-0.928223	3.071684	-32.964213	-151.986863
03670		5.364860	0.531672	8.365376	0.105942	-0.046235	0.138719	-0.162110	-0.245033	0.055466	-0.717773	0.200684	-0.454346	0.053545	0.005399	0.083715	0.239305	-0.270353	-0.093058	-0.927892	2.963359	-33.110424	-151.958002
03671		6.134572	0.393214	7.808724	-0.745556	-0.392720	0.089516	-0.160307	-0.227828	0.042056	-0.729248	0.209473	-0.463379	0.061256	0.004008	0.078154	0.239367	-0.272260	-0.092786	-0.927345	2.863937	-33.324379	-151.910646
03672		6.046608	0.151712	7.594049	-0.872425	-0.213385	-0.145870	-0.139884	-0.231417	0.013830	-0.745117	0.209229	-0.461182	0.060378	0.001574	0.076009	0.239131	-0.273543	-0.092407	-0.927066	2.783274	-33.461675	-151.909158
03673		6.109512	-0.222972	7.568313	-1.080199	0.090087	-0.144171	-0.088103	-0.234587	-0.028600	-0.745117	0.209229	-0.463379	0.061006	-0.002205	0.075756	0.238955	-0.275357	-0.092571	-0.926558	2.751601	-33.676948	-151.910470
03674		5.635629	-0.039872	8.218566	-0.317649	0.322772	0.142292	-0.045350	-0.212915	-0.054305	-0.758545	0.211182	-0.458984	0.056269	-0.000395	0.082246	0.238540	-0.276409	-0.092702	-0.926338	2.750694	-33.801913	-151.955051
03675		4.887648	-0.474947	8.498596	0.175813	1.096295	-0.060354	-0.014701	-0.194731	-0.096382	-0.765381	0.213135	-0.458984	0.048791	-0.004767	0.085034	0.238164	-0.277913	-0.093246	-0.925931	2.786129	-33.991652	-152.002344
03676		5.158232	-0.677289	8.012156	-0.335606	1.035038	-0.321811	0.032809	-0.219347	-0.152520	-0.770020	0.217529	-0.461182	0.051489	-0.006825	0.080177	0.237399	-0.278856	-0.093884	-0.925779	2.868538	-34.117607	-152.115353
03677		5.821357	-0.304910	7.778022	-0.725016	0.412574	-0.128532	0.094239	-0.222154	-0.204715	-0.781494	0.221680	-0.456787	0.058124	-0.003145	0.077843	0.236653	-0.280293	-0.095104	-0.925412	3.009072	-34.317975	-152.239984
03678		5.995877	-0.041654	7.565888	-0.814880	0.080856	-0.193733	0.122093	-0.220087	-0.246583	-0.787842	0.215088	-0.452148	0.059875	-0.000537	0.075724	0.235575	-0.281088	-0.096287	-0.925323	3.180663	-34.441135	-152.419379
03679		5.727729	0.209066	7.787551	-0.373070	0.071438	-0.150795	0.136581	-0.225130	-0.280179	-0.792480	0.214844	-0.452148	0.057192	0.001957	0.077941	0.234823	-0.282404	-0.097841	-0.924951	3.370110	-34.636625	-152.561018
03680		5.493337	-0.044405	8.351525	-0.052609	0.592187	0.165947	0.144656	-0.186867	-0.299351	-0.794678	0.217041	-0.452148	0.054854	-0.000587	0.083566	0.233548	-0.282991	-0.099165	-0.924953	3.576449	-34.738096	-152.777345
03681		5.745661	0.508159	8.225291	-0.016438	0.014503	0.233490	0.168275	-0.129416	-0.279231	-0.794678	0.214844	-0.443359	0.057410	0.004932	0.082294	0.232902	-0.283807	-0.100751	-0.924694	3.783134	-34.875839	-152.914698
03682		6.217153	0.440044	7.959332	-0.525571	-0.155741	0.281719	0.158134	-0.092166	-0.260416	-0.803711	0.216797	-0.447754	0.062140	0.004257	0.079625	0.231873	-0.283958	-0.101972	-0.924773	3.980584	-34.923534	-153.100825
03683		6.487058	0.700025	7.788095	-0.674032	-0.504474	0.312405	0.163380	-0.056451	-0.245047	-0.803711	0.216797	-0.440918	0.064857	0.006857	0.077905	0.231466	-0.284436	-0.103409	-0.924568	4.169366	-35.017934	-153.205585
03684		6.096091	1.199654	7.768719	-0.163083	-0.776793	0.103181	0.133131	-0.033798	-0.213554	-0.808350	0.218994	-0.441162	0.060961	0.011880	0.077705	0.230648	-0.284369	-0.104381	-0.924684	4.332697	-35.033399	-153.356625
03685		5.851934	0.845471	8.157183	0.032849	-0.228022	0.259377	0.092112	-0.037539	-0.180705	-0.808350	0.216797	-0.438721	0.058512	0.008364	0.081587	0.230517	-0.284853	-0.105389	-0.924454	4.454330	-35.117395	-153.407260
03686		5.741298	0.737752	8.370820	0.158963	-0.007108	0.363366	0.076870	-0.041593	-0.159725	-0.810303	0.214600	-0.434326	0.057401	0.007299	0.083723	0.229863	-0.284914	-0.106033	-0.924524	4.564417	-35.139290	-153.521385
03687		5.751947	0.778126	8.023389	0.011866	-0.139813	0.089103	0.071935	-0.049802	-0.150881	-0.808105	0.212402	-0.427490	0.057505	0.007709	0.080251	0.229797	-0.285483	-0.106915	-0.924263	4.664698	-35.229963	-153.557455
03688		6.175407	0.629129	7.878709	-0.441264	-0.196062	0.205912	0.071268	-0.062605	-0.139243	-0.814941	0.216553	-0.429932	0.061734	0.006220	0.078809	0.229219	-0.285659	-0.107529	-0.924281	4.764355	-35.264596	-153.658713
03689		6.272063	0.625594	7.812230	-0.535234	-0.230108	0.208372	0.063822	-0.082370	-0.132000	-0.810547	0.216797	-0.427734	0.062693	0.006190	0.078150	0.229165	-0.286391	-0.108379	-0.923969	4.855369	-35.373575	-153.690072
03690		5.791644	0.344040	7.840959	-0.305286	0.214447	-0.065742	0.065312	-0.093760	-0.134945	-0.814941	0.214355	-0.423096	0.057882	0.003376	0.078438	0.228582	-0.286720	-0.108995	-0.923938	4.951367	-35.426039	-153.790505
03691		5.556320	0.330253	8.426717	0.153867	0.527689	0.271417	0.071383	-0.121747	-0.141363	-0.807861	0.210205	-0.427490	0.055514	0.003233	0.084302	0.228528	-0.287600	-0.109945	-0.923566	5.051411	-35.555112	-153.824282
03692		5.214446	0.580985	8.564074	0.596254	0.497815	0.200703	0.109093	-0.144115	-0.130693	-0.814697	0.209961	-0.420898	0.052086	0.005729	0.085681	0.228000	-0.288114	-0.110815	-0.923432	5.173157	-35.636336	-153.925352
03693		5.086940	0.982494	8.499259	0.870459	0.198034	0.101075	0.073611	-0.201394	-0.125653	-0.814697	0.207764	-0.416260	0.050790	0.009762	0.085047	0.227937	-0.289355	-0.111834	-0.922937	5.272458	-35.809650	-153.959138
03694		5.639963	1.758340	8.877830	1.046123	-0.526114	0.786631	-0.009010	-0.318523	-0.096897	-0.821045	0.203125	-0.411865	0.056267	0.017560	0.088867	0.227296	-0.290826	-0.112309	-0.922574	5.320110	-35.992000	-154.048484
03695		5.554498	2.123421	8.548574	1.169475	-0.900667	0.495584	-0.061383	-0.445399	-0.028203	-0.825684	0.205322	-0.402832	0.055357	0.021253	0.085603	0.227195	-0.293403	-0.112823	-0.921720	5.316178	-36.308796	-154.050640
03696		5.141327	1.752114	8.875057	1.499477	-0.302668	0.479514	-0.131491	-0.590050	0.057964	-0.830322	0.209473	-0.396240	0.051146	0.017594	0.088890	0.226933	-0.296350	-0.112816	-0.920842	5.239995	-36.654347	-154.048488
03697		4.998623	1.263574	9.200679	1.605705	0.308824	0.606580	-0.155306	-0.757900	0.129687	-0.834717	0.205078	-0.385254	0.049629	0.012740	0.092185	0.227155	-0.300548	-0.113012	-0.919402	5.130055	-37.156297	-153.969175
03698		4.871668	1.304933	9.470678	1.944383	0.433289	0.730575	-0.179806	-0.977776	0.191434	-0.839355	0.213867	-0.378662	0.048240	0.013181	0.094932	0.227208	-0.305399	-0.113021	-0.917788	4.981793	-37.729966	-153.894024
03699		5.165466	0.818667	9.324324	1.551290	0.742217	0.738915	-0.180330	-1.253175	0.251243	-0.846191	0.213623	-0.356445	0.051059	0.008335	0.093557	0.227559	-0.311941	-0.113460	-0.915443	4.821444	-38.518420	-153.766346
03700		5.777596	1.102623	8.895664	1.183473	0.178958	0.784209	-0.141388	-1.544934	0.313214	-0.861816	0.213135	-0.343018	0.057069	0.011179	0.089391	0.227887	-0.319389	-0.114093	-0.912711	4.655531	-39.421458	-153.630614
03701		5.312344	1.643966	9.270583	2.152866	0.065851	0.780928	-0.131187	-1.841880	0.404985	-0.861816	0.213135	-0.329590	0.052233	0.016607	0.093179	0.228455	-0.328618	-0.115131	-0.909155	4.468331	-40.551704	-153.440704
03702		4.916702	1.112848	9.483657	2.480660	0.809882	0.605466	-0.124730	-2.138287	0.504862	-0.880127	0.221680	-0.309814	0.048121	0.011310	0.095348	0.229298	-0.338799	-0.116186	-0.905063	4.226421	-41.801413	-153.181114
03703		4.516565	0.996450	9.850069	3.131514	1.269624	0.530990	-0.094373	-2.438754	0.574883	-0.891357	0.223633	-0.271973	0.043931	0.010139	0.099037	0.230194	-0.350695	-0.117736	-0.900090	3.976729	-43.276344	-152.886856
03704		4.653706	0.719484	10.027500	3.267495	1.633409	0.645442	-0.065833	-2.814051	0.617563	-0.891357	0.225830	-0.250000	0.045098	0.007369	0.100914	0.231174	-0.363810	-0.119599	-0.894370	3.702152	-44.915009	-152.545807
03705		5.069658	0.509784	10.053510	3.224371	1.822620	0.831764	0.016508	-3.263039	0.641905	-0.907227	0.231934	-0.203369	0.049031	0.005249	0.101345	0.231742	-0.379160	-0.122350	-0.887448	3.473062	-46.859303	-152.235365
03706		4.660885	-0.034496	10.752400	3.971128	2.860466	0.834867	0.080721	-3.804962	0.626667	-0.918457	0.236084	-0.163330	0.044553	-0.000247	0.108385	0.232302	-0.396310	-0.125922	-0.879271	3.264471	-49.063072	-151.891611
03707		4.182837	-0.708254	10.800366	4.319050	3.813753	0.258297	0.177177	-4.470549	0.525135	-0.927490	0.235840	-0.118896	0.039419	-0.007073	0.108897	0.232206	-0.416317	-0.131018	-0.869249	3.183598	-51.684927	-151.629367
03708		3.935533	-1.707760	11.164078	4.596060	5.141461	-0.042752	0.293856	-5.254464	0.370215	-0.934326	0.242188	-0.048096	0.036437	-0.017173	0.112599	0.230900	-0.438956	-0.137594	-0.857363	3.297049	-54.709110	-151.560111
03709		3.620271	-3.459414	12.150624	4.989695	7.460841	-0.215702	0.431012	-6.067880	0.172137	-0.936523	0.241943	0.005127	0.032527	-0.034828	0.122455	0.228395	-0.464667	-0.146171	-0.842944	3.721034	-58.227493	-151.752257
03710		5.301508	-4.098649	12.298406	4.510012	8.033203	0.733042	0.688964	-6.919990	-0.034279	-0.929443	0.239746	0.073975	0.048715	-0.041422	0.124577	0.224652	-0.492780	-0.156982	-0.825867	4.657151	-62.186856	-152.374917
03711		9.490689	-1.924891	12.848940	5.051141	6.089115	4.192947	0.811632	-7.652219	-0.198735	-0.931641	0.241699	0.153809	0.089883	-0.019871	0.131913	0.219725	-0.523174	-0.169407	-0.805798	6.225290	-66.576473	-153.584486
03712		17.572182	-0.970615	13.596860	4.352659	5.067061	11.393857	0.880299	-7.932865	-0.319572	-0.919922	0.232666	0.227295	0.170132	-0.010599	0.142747	0.213841	-0.553516	-0.182381	-0.783983	8.728238	-71.066447	-155.725293
03713		22.203219	2.275701	15.212129	7.455458	3.669475	15.881199	0.750225	-7.501725	-0.341644	-0.897461	0.237549	0.293701	0.216156	0.021793	0.160387	0.207636	-0.581599	-0.194223	-0.762173	12.401488	-75.287670	-159.102579
03714		17.337529	3.954646	13.912352	9.826152	3.013693	10.285497	0.466286	-7.088651	-0.253355	-0.872559	0.233398	0.360352	0.168349	0.038997	0.145242	0.201005	-0.607552	-0.203985	-0.740856	17.998034	-79.179787	-164.563042
03715		13.525108	4.301778	12.788475	10.811255	3.004857	5.644712	0.301995	-6.787732	0.033637	-0.845703	0.240234	0.408691	0.130800	0.042842	0.132440	0.195038	-0.632207	-0.211750	-0.719330	27.609124	-82.807093	-174.107430
03716		14.135800	0.317899	13.129779	9.685047	7.062995	5.303400	0.417372	-6.486441	0.081608	-0.818604	0.238525	0.461914	0.137001	0.002955	0.135795	0.189674	-0.654918	-0.219218	-0.697890	51.327319	-85.773521	162.308012
03717		15.786989	-0.759698	14.115862	10.556231	9.108983	6.141416	0.835936	-5.705676	-0.194168	-0.793701	0.238770	0.495117	0.153751	-0.008350	0.145551	0.185412	-0.673628	-0.228099	-0.678099	101.030365	-86.521713	112.988774
03718		11.580737	4.047818	16.356244	15.745004	6.648232	1.405264	0.700714	-4.755978	-0.413511	-0.771484	0.241455	0.523926	0.111955	0.039664	0.166395	0.180884	-0.688472	-0.236221	-0.661427	133.216835	-85.007660	81.124397
03719		9.752780	8.665904	22.546058	23.766538	6.359514	-1.257204	-0.692594	-3.394651	-0.433123	-0.759521	0.228271	0.546387	0.093875	0.087237	0.226773	0.173026	-0.699732	-0.238408	-0.650845	143.728764	-83.381329	70.156401
03720		9.767793	4.583202	23.686167	22.683401	10.206689	-2.149997	-1.723678	-1.463009	-0.481519	-0.759033	0.215088	0.544434	0.096057	0.047643	0.237163	0.163664	-0.705400	-0.235744	-0.648112	144.918029	-82.534153	67.963555
03721		8.618790	-2.032331	21.152644	17.111264	13.953435	-3.620253	-1.673716	0.304950	-0.496411	-0.767578	0.203613	0.540283	0.086463	-0.018767	0.211556	0.156468	-0.705099	-0.231703	-0.651664	141.349759	-82.517383	70.581907
03722		-2.383106	-3.206453	17.618111	13.208619	11.555036	-14.097714	-1.277440	1.518889	-0.536910	-0.776367	0.192383	0.531738	-0.022575	-0.030876	0.176555	0.151958	-0.700528	-0.228243	-0.658843	134.279331	-82.951631	76.972064
03723		-4.325680	-3.254043	14.212154	10.418064	9.525410	-15.470237	-0.880414	1.910688	-0.436588	-0.791748	0.183350	0.511963	-0.041966	-0.031821	0.142668	0.149447	-0.694265	-0.225119	-0.667071	125.150959	-83.481010	85.617070
03724		-3.730268	-1.943299	12.677114	9.921879	7.680090	-14.391516	-0.546945	2.186675	-0.251784	-0.805176	0.183105	0.483154	-0.035937	-0.019040	0.127221	0.149152	-0.687091	-0.222530	-0.675382	114.325052	-83.976323	96.192912
03725		-2.529372	-0.731456	11.308097	9.447799	6.080538	-12.739293	-0.484111	2.434098	-0.004506	-0.814209	0.183105	0.456543	-0.023915	-0.007040	0.113395	0.149996	-0.679027	-0.218731	-0.684529	100.555876	-84.410458	109.707726
03726		-0.518582	-0.373119	10.332088	8.770811	5.465988	-10.403365	-0.512118	2.775896	0.206611	-0.830078	0.182861	0.432129	-0.003747	-0.003471	0.103389	0.151978	-0.670108	-0.214183	-0.694251	83.810655	-84.591230	126.234973
03727		0.904807	-0.593355	9.622563	7.976325	5.376682	-8.705508	-0.515628	3.168736	0.383044	-0.843506	0.182617	0.398926	0.010582	-0.005666	0.096081	0.154775	-0.659624	-0.208304	-0.705373	64.376006	-84.292046	145.414720
03728		2.136451	-1.022884	8.995399	7.076955	5.455799	-7.230151	-0.408876	3.555607	0.464320	-0.859375	0.184570	0.363525	0.022983	-0.009993	0.089576	0.158735	-0.647816	-0.202555	-0.717014	47.171382	-83.359631	162.482495
03729		3.602024	-0.988992	8.466581	6.367587	5.130587	-5.481941	-0.218934	3.932651	0.472369	-0.866455	0.186768	0.325684	0.037699	-0.009710	0.083946	0.163469	-0.633999	-0.196679	-0.729823	33.907572	-81.775406	175.677512
03730		5.320171	-0.371585	8.216047	6.014980	4.374330	-3.439623	-0.040106	4.318184	0.429991	-0.873535	0.193604	0.274658	0.054967	-0.003583	0.080987	0.169112	-0.618589	-0.191604	-0.742992	25.086820	-79.742700	-175.410477
03731		6.865186	0.431017	7.972133	5.629695	3.361921	-1.575275	0.048063	4.725699	0.357559	-0.882324	0.186768	0.228027	0.070502	0.004416	0.078071	0.174882	-0.600865	-0.186230	-0.757427	19.033843	-77.254441	-169.257655
03732		7.555044	1.067119	7.608261	5.111018	2.395078	-0.635577	0.056143	5.110789	0.278020	-0.893799	0.193359	0.179199	0.077446	0.010757	0.074123	0.180798	-0.581566	-0.181089	-0.772205	15.053495	-74.505597	-165.121025
03733		7.709937	1.467554	7.237475	4.525867	1.607903	-0.279475	0.001488	5.393086	0.210282	-0.898682	0.202393	0.123535	0.078998	0.014757	0.070262	0.186222	-0.560382	-0.175144	-0.787793	12.216089	-71.470696	-162.206279
03734		7.821197	1.609657	6.951025	3.871799	1.077482	-0.019885	-0.072410	5.553604	0.145360	-0.903076	0.193604	0.074951	0.080090	0.016179	0.067298	0.191377	-0.538529	-0.169225	-0.802947	10.257103	-68.371350	-160.165099
03735		8.059534	1.488441	6.848269	3.157483	0.821971	0.355677	-0.133175	5.601442	0.048450	-0.900879	0.191406	0.015137	0.082467	0.014949	0.066180	0.195756	-0.515598	-0.162788	-0.818131	8.827829	-65.146771	-158.733839
03736		8.432359	1.031431	6.906161	2.328172	0.907747	0.845097	-0.172297	5.564000	-0.077525	-0.900879	0.191650	-0.038330	0.086205	0.010339	0.066672	0.199443	-0.492789	-0.156786	-0.832346	7.886620	-61.991917	-157.793033
03737		8.930615	0.624636	7.280888	1.652235	1.047590	1.558182	-0.163868	5.479405	-0.215811	-0.894043	0.183105	-0.086914	0.091262	0.006207	0.070321	0.202164	-0.469381	-0.150757	-0.846217	7.248323	-58.798679	-157.215161
03738		9.702135	0.395849	8.017035	1.136807	1.125452	2.675858	-0.112097	5.370711	-0.333645	-0.878174	0.176758	-0.146729	0.099133	0.003838	0.077525	0.204461	-0.446394	-0.145594	-0.858912	6.890981	-55.727006	-156.866487
03739		10.832160	0.385382	8.854381	0.492299	0.928305	4.142050	-0.048962	5.264224	-0.398321	-0.862549	0.177246	-0.197998	0.110609	0.003656	0.085651	0.206186	-0.422959	-0.140492	-0.871123	6.657846	-52.639543	-156.663573
03740		11.979264	0.465230	9.831007	-0.143758	0.663352	5.674491	-0.000026	5.200642	-0.413454	-0.839600	0.166748	-0.237793	0.122304	0.004401	0.095151	0.207965	-0.399918	-0.135969	-0.882229	6.526011	-49.657828	-156.494022
03741		12.962126	0.676591	10.497906	-0.966662	0.130446	6.850652	0.015388	5.159728	-0.397742	-0.812256	0.154053	-0.284180	0.132285	0.006497	0.101589	0.209448	-0.376294	-0.131083	-0.892946	6.393672	-46.629615	-156.356662
03742		13.779134	0.816544	10.801850	-2.019402	-0.477184	7.589544	-0.052523	5.139182	-0.346638	-0.782959	0.150146	-0.317627	0.140520	0.007951	0.104429	0.211097	-0.353097	-0.126087	-0.902698	6.236914	-43.686497	-156.177757
03743		14.205262	0.579378	10.924903	-3.160916	-0.762506	7.817846	-0.150699	5.110095	-0.262922	-0.746582	0.137695	-0.353027	0.144789	0.005685	0.105568	0.212556	-0.329467	-0.120113	-0.912055	5.983883	-40.695973	-155.983471
03744		14.757993	0.745799	10.983113	-4.228425	-1.487748	8.042784	-0.241456	5.059473	-0.150189	-0.717285	0.131592	-0.377441	0.150300	0.007475	0.106043	0.214441	-0.306499	-0.113855	-0.920386	5.675261	-37.808622	-155.714158
03745		16.104067	0.597283	11.208364	-5.961810	-2.189632	8.758980	-0.327439	5.003492	-0.014131	-0.678955	0.125732	-0.395264	0.163777	0.006140	0.107999	0.216414	-0.283292	-0.106669	-0.928188	5.274573	-34.894353	-155.409880
03746		18.263955	0.185144	11.299968	-8.529877	-3.037877	9.660673	-0.332488	4.998930	0.072862	-0.661133	0.128418	-0.410889	0.185387	0.002101	0.108385	0.218877	-0.260446	-0.099591	-0.935063	4.889048	-32.050270	-155.056131
03747		20.782879	-0.030162	10.701303	-11.685236	-4.469808	9.930810	-0.263836	5.070052	0.099567	-0.635742	0.115723	-0.428467	0.210452	-0.000061	0.101700	0.221221	-0.236606	-0.092375	-0.941565	4.547274	-29.106311	-154.737395
03748		22.463247	-0.241889	9.242811	-14.528238	-5.850020	8.752398	-0.193196	5.154606	0.084606	-0.615479	0.109375	-0.450684	0.226916	-0.002238	0.086601	0.223696	-0.212558	-0.085644	-0.947335	4.292243	-26.170484	-154.426075
03749		22.580183	-0.744773	7.091293	-16.399847	-6.488561	5.983720	-0.148148	5.135318	0.028961	-0.601807	0.103027	-0.475098	0.227524	-0.007365	0.065091	0.225595	-0.188031	-0.078907	-0.952641	4.086484	-23.194511	-154.193343
03750		21.720510	-0.565269	4.594991	-17.007815	-7.280729	2.469023	-0.204053	4.910945	-0.005729	-0.581055	0.090332	-0.490479	0.218246	-0.005616	0.040605	0.227245	-0.164854	-0.072388	-0.957049	3.892709	-20.392277	-153.986106
03751		20.707630	0.236958	2.057606	-16.919605	-8.403278	-1.087089	-0.425954	4.451301	0.045158	-0.569824	0.088379	-0.512695	0.207465	0.002454	0.015956	0.228498	-0.143807	-0.065046	-0.960665	3.568491	-17.819904	-153.800831
03752		20.426637	1.055470	-0.450119	-17.154295	-9.692703	-4.308805	-0.788844	3.860986	0.196341	-0.558838	0.095215	-0.532715	0.204118	0.010727	-0.008485	0.230085	-0.126240	-0.056703	-0.963280	3.044473	-15.622771	-153.550329
03753		21.252047	0.967107	-3.015461	-18.560087	-10.527425	-7.296206	-1.176633	3.231159	0.362717	-0.538818	0.100098	-0.543945	0.211978	0.009865	-0.033640	0.231857	-0.112022	-0.046940	-0.965137	2.281209	-13.768518	-153.258886
03754		23.123514	0.801356	-5.732663	-20.791845	-11.651088	-10.159246	-1.479098	2.617279	0.452991	-0.532471	0.106934	-0.557617	0.230440	0.008097	-0.060405	0.233802	-0.101241	-0.036519	-0.966309	1.362692	-12.282783	-152.943529
03755		25.495384	1.113720	-8.441030	-23.157728	-13.292869	-12.894557	-1.713733	2.057557	0.483924	-0.530518	0.115967	-0.566650	0.254040	0.011014	-0.087122	0.235576	-0.093422	-0.025499	-0.967019	0.309487	-11.110168	-152.647707
03756		25.742968	-0.005266	-10.725453	-24.226778	-12.548620	-15.584653	-1.816334	1.526143	0.461556	-0.515625	0.138428	-0.571533	0.256602	-0.000446	-0.109212	0.237139	-0.088275	-0.014712	-0.967345	-0.780395	-10.239505	-152.381908
03757		23.253101	-2.145266	-11.370628	-23.128339	-9.445188	-16.916545	-1.594527	0.834850	0.341067	-0.509033	0.143066	-0.569580	0.232091	-0.021967	-0.114502	0.238156	-0.086352	-0.005831	-0.967363	-1.735734	-9.778847	-152.190240
03758		20.389069	-3.683504	-10.331829	-21.190916	-6.612663	-16.388849	-1.073705	-0.060786	0.116517	-0.516113	0.151611	-0.567627	0.203944	-0.037270	-0.103057	0.238253	-0.087968	-0.000670	-0.967211	-2.362700	-9.816106	-152.120750
03759		18.415207	-4.451160	-8.196824	-19.513004	-4.890245	-14.443539	-0.389919	-0.994176	-0.073005	-0.524902	0.146973	-0.558594	0.184540	-0.044737	-0.080964	0.237788	-0.093587	0.000000	-0.966798	-2.593827	-10.425672	-152.127628
03760		17.811062	-6.719933	-6.539782	-19.776350	-2.553261	-12.556420	0.619779	-1.933094	-0.070061	-0.533936	0.151367	-0.549561	0.178709	-0.067062	-0.063880	0.237730	-0.102231	-0.005337	-0.965922	-2.240065	-11.538860	-152.120328
03761		2.468643	-11.456290	3.519542	-6.740711	9.289378	-5.571157	3.002893	-2.818382	0.178754	-0.544434	0.128906	-0.524658	0.024306	-0.115056	0.033815	0.240103	-0.112722	-0.023098	-0.963904	-0.565088	-13.202774	-151.959790
03762		2.940884	3.526422	14.959926	2.339232	-2.621944	5.434825	3.515884	-3.519917	0.233596	-0.570801	0.117188	-0.515381	0.026724	0.032654	0.150675	0.242731	-0.125498	-0.044138	-0.960928	1.419413	-15.225392	-151.836896
03763		-4.373449	13.088705	19.189408	14.373394	-6.278430	7.867586	2.738069	-2.653873	1.184658	-0.575195	0.112549	-0.501953	-0.047055	0.127977	0.193050	0.249608	-0.135625	-0.059736	-0.956940	2.791656	-16.821510	-151.174267
03764		-4.693819	9.130676	9.796782	10.823736	-3.739864	-1.433368	1.892634	-2.682771	2.224862	-0.589111	0.125488	-0.482178	-0.049259	0.089839	0.098172	0.260686	-0.146779	-0.070629	-0.951583	3.498472	-18.431408	-149.927145
03765		0.276680	12.532602	4.852352	7.629584	-9.654372	-4.404398	1.309298	-3.829727	2.238673	-0.602783	0.131836	-0.451172	0.000426	0.125018	0.049366	0.270980	-0.164431	-0.080205	-0.945039	3.830901	-20.747884	-148.702142
03766		12.270079	16.660045	7.814176	1.627282	-17.923111	3.041230	0.420111	-4.391640	1.601106	-0.616699	0.145020	-0.424805	0.119603	0.167398	0.081142	0.277055	-0.185251	-0.086813	-0.938822	3.768546	-23.324612	-147.894525
03767		17.214114	12.551320	12.297200	-2.415200	-15.363684	9.243555	-0.042329	-4.090526	0.362004	-0.630127	0.146729	-0.406982	0.169351	0.125848	0.126428	0.277015	-0.205002	-0.092045	-0.934219	3.716968	-25.723518	-147.816662
03768		15.450581	3.963920	12.285382	-5.265875	-7.004019	8.313006	-0.324013	-3.494733	-0.514189	-0.637207	0.151123	-0.387207	0.152430	0.039447	0.125465	0.272628	-0.221548	-0.095896	-0.931340	3.744813	-27.707730	-148.291526
03769		20.634712	-8.549847	12.882904	-15.359784	1.640774	10.831858	0.043241	-2.914692	-0.757125	-0.643555	0.146484	-0.375977	0.204115	-0.086302	0.131796	0.267883	-0.235077	-0.101092	-0.928848	4.071091	-29.397338	-148.892829
03770		13.554008	-10.075589	9.122798	-12.009621	5.313987	4.186415	0.562913	-2.144281	-0.336322	-0.645752	0.144287	-0.369141	0.134384	-0.101241	0.092388	0.265881	-0.244140	-0.106979	-0.926422	4.557976	-30.613317	-149.221421
03771		10.369603	-1.426808	9.265643	-4.698036	-0.224084	3.351244	0.919321	-1.819883	-0.106933	-0.643799	0.148682	-0.366943	0.102840	-0.014752	0.093528	0.265687	-0.251745	-0.113936	-0.923609	5.172138	-31.706667	-149.372731
03772		10.437269	8.043567	9.563440	0.685711	-7.830810	4.445576	0.689921	-1.374267	-0.365337	-0.654785	0.144043	-0.366943	0.103857	0.079913	0.096625	0.264075	-0.257003	-0.119416	-0.921929	5.745163	-32.476060	-149.707202
03773		8.471478	2.266413	8.188227	-1.526387	-2.513775	1.819134	0.297587	-0.988591	-0.457109	-0.654785	0.146240	-0.377930	0.084360	0.022349	0.082333	0.261930	-0.261366	-0.122858	-0.920862	6.120967	-33.074170	-150.063195
03774		9.566169	-1.381927	8.724182	-4.046212	0.369213	2.557582	0.341609	-0.665857	-0.356521	-0.659424	0.146240	-0.375732	0.095346	-0.014139	0.087536	0.260322	-0.263808	-0.125779	-0.920227	6.477442	-33.436550	-150.356265
03775		9.143780	2.997113	8.786487	-1.291471	-2.990062	2.804166	0.282311	-0.351255	-0.292267	-0.664063	0.148438	-0.386963	0.091327	0.029713	0.088067	0.259305	-0.265358	-0.128103	-0.919747	6.765240	-33.680454	-150.560311
03776		7.566034	2.113780	7.993659	-0.963073	-1.854131	1.198494	0.086672	-0.166973	-0.312779	-0.670898	0.152588	-0.391357	0.075626	0.020985	0.080009	0.257872	-0.265859	-0.129145	-0.919860	6.941480	-33.759753	-150.788244
03777		7.013576	1.229794	7.751692	-1.138772	-0.950403	0.608026	0.049063	-0.104100	-0.234370	-0.682373	0.156982	-0.400391	0.070110	0.012197	0.077556	0.256973	-0.266612	-0.130013	-0.919771	7.065913	-33.866829	-150.934350
03778		5.908107	2.396438	8.064882	0.428271	-1.343041	0.370818	-0.018275	-0.102542	-0.156636	-0.687012	0.161377	-0.404785	0.059058	0.023925	0.080677	0.256158	-0.267052	-0.130282	-0.919833	7.120392	-33.919862	-151.050711
03779		5.222244	0.949613	8.461597	0.326309	0.302661	0.165997	-0.059869	-0.095766	-0.076425	-0.694092	0.167725	-0.413818	0.052186	0.009502	0.084638	0.255844	-0.268007	-0.130433	-0.919621	7.123095	-34.033102	-151.088769
03780		5.153445	1.525471	8.577919	0.746373	-0.103654	0.281763	-0.045841	-0.089245	-0.006281	-0.707764	0.174316	-0.413818	0.051497	0.015273	0.085799	0.255693	-0.268520	-0.130358	-0.919524	7.103795	-34.089323	-151.101071
03781		5.769647	1.261578	8.222518	0.026418	-0.257635	0.307743	-0.073770	-0.115329	0.035537	-0.708008	0.183105	-0.420654	0.057647	0.012656	0.082254	0.255856	-0.269648	-0.130317	-0.919155	7.056593	-34.220588	-151.064657
03782		6.146368	0.765551	7.936301	-0.622164	-0.102045	0.234763	-0.072133	-0.118011	0.035420	-0.712891	0.191895	-0.423096	0.061415	0.007695	0.079396	0.255841	-0.270354	-0.130102	-0.918982	7.007470	-34.296219	-151.050655
03783		6.044880	1.107480	7.914351	-0.351054	-0.349604	0.195238	-0.073481	-0.105436	0.000047	-0.722168	0.200684	-0.427734	0.060407	0.011104	0.079171	0.255843	-0.271409	-0.130097	-0.918671	6.973561	-34.418964	-151.038076
03784		6.336681	1.163230	7.846850	-0.549358	-0.538096	0.310965	-0.083668	-0.075656	-0.005349	-0.724609	0.202881	-0.427734	0.063337	0.011663	0.078488	0.255653	-0.271910	-0.129830	-0.918614	6.931611	-34.467773	-151.048483
03785		5.962381	1.284639	8.099300	-0.085876	-0.391535	0.318367	-0.094817	-0.060384	-0.003283	-0.733643	0.209229	-0.425781	0.059600	0.012884	0.081005	0.255636	-0.272781	-0.129673	-0.918382	6.884733	-34.564469	-151.034694
03786		5.924863	0.879966	8.020015	-0.303255	-0.071329	0.192408	-0.081428	-0.041895	0.005655	-0.738525	0.218018	-0.430176	0.059232	0.008834	0.080209	0.255521	-0.273132	-0.129359	-0.918354	6.838157	-34.594952	-151.034627
03787		5.796098	0.918572	8.128920	-0.126739	-0.008916	0.212368	-0.073107	-0.034789	-0.007917	-0.740967	0.224609	-0.426025	0.057947	0.009213	0.081296	0.255526	-0.273852	-0.129275	-0.918150	6.804359	-34.676340	-151.022286
03788		5.699486	0.289482	8.207087	-0.356592	0.583697	0.160093	-0.060972	-0.039684	-0.028742	-0.752441	0.231201	-0.428223	0.056979	0.002912	0.082081	0.255281	-0.274144	-0.129099	-0.918156	6.782941	-34.703344	-151.045805
03789		5.132869	0.282692	8.218373	0.064467	0.825881	-0.154443	-0.024325	-0.040457	-0.071799	-0.745850	0.231201	-0.423828	0.051313	0.002818	0.082194	0.255051	-0.274783	-0.129329	-0.917996	6.802271	-34.783034	-151.078605
03790		5.117090	0.459448	8.403027	0.255140	0.759475	0.003863	-0.001637	-0.055094	-0.086681	-0.757080	0.233398	-0.421631	0.051150	0.004573	0.084044	0.254612	-0.275034	-0.129525	-0.918015	6.838569	-34.814961	-151.143601
03791		5.287983	0.906589	8.350050	0.361214	0.310084	0.101009	0.007064	-0.073293	-0.080899	-0.755127	0.237793	-0.426270	0.052853	0.009042	0.083520	0.254356	-0.275770	-0.129946	-0.917806	6.880761	-34.911629	-151.186170
03792		5.905828	1.162939	7.954755	-0.113134	-0.290081	0.157890	-0.005545	-0.099599	-0.060971	-0.757568	0.242188	-0.421875	0.059022	0.011614	0.079577	0.254001	-0.276248	-0.130146	-0.917732	6.906985	-34.970678	-151.237233
03793		5.939088	1.894492	7.710617	0.165038	-0.995855	0.051212	-0.019493	-0.109827	-0.042721	-0.757568	0.246582	-0.419678	0.059353	0.018940	0.077137	0.253855	-0.277204	-0.130437	-0.917443	6.920857	-35.090002	-151.257090
03794		5.960978	1.481230	7.916111	0.028279	-0.575411	0.190322	-0.060238	-0.116480	-0.015277	-0.760010	0.248779	-0.421875	0.059565	0.014832	0.079191	0.253622	-0.277859	-0.130345	-0.917322	6.898510	-35.161896	-151.277945
03795		5.466415	1.055671	8.109590	0.259524	0.056066	0.020475	-0.063487	-0.103557	-0.006876	-0.761963	0.242188	-0.417480	0.054623	0.010581	0.081121	0.253582	-0.278861	-0.130380	-0.917024	6.873243	-35.279736	-151.272861
03796		5.544469	0.843885	8.033383	0.067144	0.176019	-0.017126	-0.058077	-0.101276	-0.019353	-0.766357	0.239746	-0.415039	0.055405	0.008457	0.080359	0.253342	-0.279441	-0.130284	-0.916928	6.853099	-35.342821	-151.295269
03797		5.793759	0.707573	7.851651	-0.247718	0.131523	-0.033216	-0.046940	-0.102553	-0.038934	-0.762207	0.246582	-0.410889	0.057899	0.007083	0.078545	0.253174	-0.280391	-0.130435	-0.916663	6.850219	-35.457148	-151.312971
03798		5.968941	1.122297	7.720348	-0.199551	-0.329857	0.002757	-0.048455	-0.097405	-0.047634	-0.766602	0.246338	-0.413086	0.059654	0.011227	0.077230	0.252820	-0.280923	-0.130419	-0.916600	6.846960	-35.516205	-151.354853
03799		5.634685	1.077241	8.130909	0.216581	0.003529	0.135924	-0.056191	-0.101316	-0.035046	-0.766602	0.248535	-0.415283	0.056308	0.010785	0.081335	0.252654	-0.281878	-0.130519	-0.916338	6.837281	-35.629670	-151.370203
03800		5.275784	0.652556	8.487603	0.416566	0.639059	0.173162	-0.049607	-0.111353	-0.021120	-0.766602	0.246338	-0.410889	0.052711	0.006541	0.084904	0.252411	-0.282493	-0.130478	-0.916222	6.823385	-35.698581	-151.394770
03801		5.430252	0.685223	8.349975	0.280707	0.509385	0.154306	-0.013793	-0.127467	-0.027888	-0.770996	0.244141	-0.408447	0.054250	0.006850	0.083534	0.252314	-0.283513	-0.130791	-0.915888	6.836357	-35.826503	-151.407903
03802		5.652852	1.330147	8.207829	0.415481	-0.164295	0.231855	-0.011626	-0.137202	-0.021564	-0.773193	0.241699	-0.404053	0.056474	0.013300	0.082116	0.252106	-0.284198	-0.130958	-0.915710	6.845815	-35.910184	-151.435048
03803		6.021566	1.041624	8.072487	-0.041465	-0.105314	0.311366	-0.035213	-0.156354	0.005953	-0.770752	0.239746	-0.408447	0.060152	0.010432	0.080770	0.252110	-0.285391	-0.131159	-0.915308	6.834122	-36.055977	-151.427462
03804		5.911174	1.314033	7.851095	0.099246	-0.370632	0.094941	-0.049492	-0.170334	0.038764	-0.775146	0.232910	-0.403809	0.059042	0.013171	0.078558	0.252102	-0.286316	-0.131108	-0.915029	6.798624	-36.162717	-151.414962
03805		5.686852	1.405409	8.165227	0.479257	-0.231700	0.222401	-0.068706	-0.194322	0.076038	-0.772705	0.232910	-0.401611	0.056784	0.014104	0.081703	0.252350	-0.287767	-0.131102	-0.914506	6.740465	-36.334345	-151.361390
03806		5.281062	1.179251	8.443243	0.798575	0.224589	0.181329	-0.087457	-0.245946	0.097930	-0.783936	0.232666	-0.396973	0.052701	0.011855	0.084492	0.252507	-0.289124	-0.130888	-0.914066	6.661888	-36.488144	-151.313032
03807		4.985905	1.535430	8.859682	1.432108	0.209203	0.366503	-0.112263	-0.336866	0.139175	-0.782227	0.241699	-0.399414	0.049699	0.015439	0.088672	0.252881	-0.291313	-0.130770	-0.913284	6.558600	-36.744015	-151.226325
03808		5.125799	1.712776	8.751292	1.426036	-0.030342	0.373469	-0.179032	-0.466688	0.173971	-0.786621	0.241455	-0.386230	0.051039	0.017251	0.087617	0.253105	-0.293842	-0.130306	-0.912478	6.404856	-37.028344	-151.140669
03809		5.090462	2.062027	9.139431	1.893568	-0.148283	0.679495	-0.229341	-0.623519	0.246512	-0.793213	0.241455	-0.379395	0.050594	0.020788	0.091529	0.253599	-0.297540	-0.129856	-0.911205	6.200170	-37.452429	-150.998559
03810		5.197675	1.831729	9.134783	1.780472	0.010463	0.706071	-0.289548	-0.838754	0.331839	-0.800049	0.241211	-0.372803	0.051562	0.018536	0.091538	0.254129	-0.302000	-0.129122	-0.909693	5.927850	-37.957883	-150.824134
03811		4.520326	1.011428	9.450649	2.072615	1.099012	0.447250	-0.338237	-1.048144	0.373656	-0.804688	0.245605	-0.368408	0.044688	0.010358	0.094724	0.254744	-0.307823	-0.128520	-0.907653	5.617571	-38.628758	-150.615386
03812		4.547366	0.750967	9.613283	2.123771	1.391481	0.541505	-0.343795	-1.265527	0.421930	-0.815918	0.247559	-0.354980	0.044848	0.007770	0.096405	0.255306	-0.314328	-0.127937	-0.905345	5.281901	-39.381112	-150.394609
03813		4.995621	0.825714	9.421542	1.926281	1.120936	0.648380	-0.318185	-1.523626	0.469564	-0.818359	0.251953	-0.339600	0.049217	0.008524	0.094579	0.256044	-0.322292	-0.127862	-0.902342	4.944259	-40.324181	-150.133228
03814		5.353045	1.052046	9.314112	1.938950	0.802807	0.775370	-0.305331	-1.825393	0.523778	-0.833984	0.251465	-0.321777	0.052649	0.010802	0.093608	0.256733	-0.331298	-0.127989	-0.898860	4.586161	-41.399034	-149.852863
03815		5.331724	1.471085	9.052093	2.258860	0.424546	0.543196	-0.306866	-2.144609	0.613545	-0.836670	0.260254	-0.297607	0.052297	0.015012	0.091062	0.257678	-0.342055	-0.128496	-0.894477	4.181785	-42.698658	-149.494199
03816		5.100705	1.490439	9.156806	2.711735	0.613785	0.402456	-0.340763	-2.481075	0.706966	-0.856934	0.266357	-0.270996	0.049813	0.015239	0.092165	0.258637	-0.354076	-0.128966	-0.889441	3.696791	-44.152429	-149.072313
03817		4.988127	0.821141	9.308325	2.769285	1.371594	0.318572	-0.300923	-2.816608	0.771439	-0.868164	0.263916	-0.239746	0.048531	0.008541	0.093760	0.259757	-0.367784	-0.130044	-0.883374	3.183040	-45.835376	-148.573954
03818		5.091362	0.767381	9.408018	3.030857	1.535008	0.359284	-0.223523	-3.189826	0.820784	-0.882080	0.281494	-0.215576	0.049372	0.007984	0.094867	0.260858	-0.382706	-0.131691	-0.876440	2.654588	-47.692423	-148.024057
03819		4.970522	0.615862	9.683447	3.513656	1.966505	0.317861	-0.199796	-3.629441	0.854921	-0.886230	0.274414	-0.168945	0.047910	0.006463	0.097708	0.261707	-0.399701	-0.134006	-0.868212	2.086403	-49.834985	-147.420367
03820		4.369666	0.454294	10.604877	4.688822	2.887197	0.258221	-0.168092	-4.175760	0.865351	-0.898193	0.291992	-0.124756	0.041450	0.004815	0.106926	0.262265	-0.418594	-0.136998	-0.858619	1.468900	-52.249673	-146.749886
03821		4.127621	-0.110315	11.022816	5.173230	3.834001	0.039363	-0.191968	-4.831921	0.822818	-0.904785	0.291748	-0.069336	0.038601	-0.000834	0.111183	0.262055	-0.440296	-0.140882	-0.847124	0.793025	-55.065572	-146.034877
03822		3.939757	-1.736212	12.015438	5.461091	5.941906	0.073513	-0.216384	-5.558584	0.735937	-0.906982	0.298096	-0.009521	0.036102	-0.017094	0.121207	0.260672	-0.464523	-0.145591	-0.833710	0.063716	-58.261468	-145.310267
03823		4.841020	-4.107624	12.621573	4.675243	8.217082	0.683742	-0.218125	-6.342339	0.591225	-0.913818	0.297852	0.054932	0.044496	-0.040802	0.127713	0.257912	-0.491662	-0.151607	-0.817781	-0.687676	-61.926673	-144.578905
03824		7.658939	-4.223469	12.886139	4.377325	8.083357	2.755405	0.002253	-7.070465	0.415973	-0.904785	0.302246	0.127930	0.072060	-0.042083	0.131462	0.254091	-0.520626	-0.159633	-0.799314	-1.320443	-65.981003	-143.873252
03825		13.905071	-0.532967	13.332961	5.719587	4.399342	8.052262	0.011829	-7.602038	0.480425	-0.889160	0.309082	0.192139	0.133864	-0.005012	0.138484	0.249812	-0.551175	-0.168027	-0.778182	-2.364098	-70.352505	-142.738319
03826		19.915193	0.673078	13.718555	6.448052	3.212288	13.275810	-0.266578	-7.708478	0.604524	-0.873291	0.309082	0.276367	0.193648	0.007511	0.144712	0.244760	-0.581642	-0.174841	-0.755788	-4.456586	-74.749365	-140.706255
03827		18.080089	0.356828	13.685864	8.068096	4.627013	10.864977	-0.269659	-7.632157	0.415758	-0.853027	0.311523	0.336182	0.175397	0.004127	0.143616	0.238709	-0.610885	-0.181861	-0.732642	-7.645529	-79.095422	-137.590659
03828		17.416481	4.143851	14.572640	12.317816	2.907358	9.486322	-0.142295	-7.365917	0.251631	-0.825684	0.305176	0.405029	0.168591	0.041760	0.151975	0.232329	-0.637895	-0.189254	-0.709434	-13.678251	-83.229729	-131.571717
03829		11.158072	2.976302	12.488985	11.402937	3.868915	2.196375	-0.104119	-7.199343	0.370219	-0.791992	0.305664	0.447021	0.106936	0.030030	0.128780	0.226348	-0.663570	-0.195963	-0.685595	-36.681698	-86.958832	-108.556374
03830		10.508725	-0.326167	12.884645	10.526954	7.296910	0.788027	0.221901	-7.134444	0.410282	-0.753906	0.315186	0.504395	0.100411	-0.003198	0.132481	0.221347	-0.687795	-0.203324	-0.660759	-128.832339	-87.366987	-16.208364
03831		11.437493	0.156088	13.842840	12.191824	7.911389	0.728331	0.700826	-6.695450	0.173792	-0.724854	0.317871	0.544189	0.109656	0.001164	0.142157	0.217394	-0.708957	-0.212328	-0.636425	-158.291304	-84.105863	13.718799
03832		12.106875	4.724391	14.268787	15.739446	4.893330	0.222984	0.249223	-5.903774	0.282837	-0.697754	0.320557	0.590576	0.116720	0.047230	0.146235	0.212804	-0.727504	-0.218456	-0.614597	-165.051468	-80.830077	20.679216
03833		13.750037	9.836115	16.284163	21.036866	2.193390	0.362070	-1.229370	-5.032247	0.700705	-0.675049	0.314209	0.619385	0.133008	0.099845	0.165615	0.204907	-0.744772	-0.217372	-0.596722	-167.339248	-77.939101	22.285452
03834		13.496106	6.944889	22.923096	25.097823	8.051321	-2.000389	-2.663055	-2.990080	0.613729	-0.663086	0.296631	0.630859	0.131303	0.072917	0.230257	0.193520	-0.756976	-0.210173	-0.587677	-168.906849	-76.182302	22.328522
03835		24.987913	-1.827426	23.815079	23.948381	16.402563	8.956848	-2.577725	0.061370	-0.109422	-0.665039	0.285400	0.622314	0.249943	-0.015340	0.238284	0.183286	-0.759069	-0.202730	-0.590865	-170.636003	-76.246923	22.551897
03836		6.527501	-4.830207	19.775850	15.244926	14.832915	-7.674129	-1.468869	2.674601	-0.617391	-0.696289	0.278320	0.595947	0.067768	-0.047059	0.197212	0.178566	-0.751838	-0.198269	-0.602945	-171.994034	-77.807236	23.082074
03837		-2.628017	-3.528025	15.220729	10.524391	10.538463	-15.214457	-0.400741	3.537777	-0.915933	-0.716064	0.269043	0.567383	-0.023742	-0.034862	0.152712	0.177569	-0.740374	-0.197024	-0.617655	-173.587124	-79.919071	24.428650
03838		-4.300636	-0.651021	12.406696	9.566863	6.576695	-15.981016	0.160033	3.714084	-0.954382	-0.745117	0.264160	0.534424	-0.040724	-0.006412	0.124832	0.178831	-0.727730	-0.197728	-0.631927	-175.678002	-82.081391	26.638341
03839		-5.048164	0.902334	10.091242	8.523732	4.107180	-16.025068	0.212533	3.650826	-0.872127	-0.763184	0.261719	0.505615	-0.048589	0.009130	0.101821	0.180227	-0.714842	-0.197959	-0.646012	-178.915871	-84.238346	29.977430
03840		-3.843509	1.689775	8.861411	8.168083	2.941207	-14.370474	0.007861	3.604403	-0.714333	-0.785156	0.250244	0.474854	-0.036769	0.017028	0.089287	0.181476	-0.702410	-0.197268	-0.659372	175.392722	-86.284707	35.692221
03841		-0.940163	1.458602	8.271555	7.803854	2.970763	-11.115103	-0.271798	3.661266	-0.529257	-0.798584	0.245605	0.435059	-0.007847	0.014721	0.082849	0.182096	-0.689743	-0.194525	-0.673243	158.456656	-88.326078	52.436543
03842		1.908034	0.811285	8.089454	7.365511	3.469316	-7.957377	-0.459859	3.876993	-0.412555	-0.821289	0.245361	0.397461	0.020660	0.008257	0.080485	0.182848	-0.676624	-0.190845	-0.687259	52.261448	-88.921811	158.383651
03843		4.050364	-0.426335	7.880714	6.418142	4.351846	-5.505716	-0.483761	4.255863	-0.372262	-0.829834	0.234131	0.360107	0.042160	-0.004152	0.077932	0.183716	-0.661677	-0.186178	-0.702687	18.605152	-86.670533	-168.267368
03844		5.348104	-1.632027	7.636134	5.331225	5.135163	-3.916172	-0.272777	4.716946	-0.423464	-0.852539	0.240479	0.320068	0.055228	-0.016333	0.075095	0.185656	-0.644824	-0.182248	-0.718693	12.458216	-84.005395	-162.258271
03845		6.130884	-1.759683	7.410408	4.704420	4.964129	-2.826681	0.058761	5.137300	-0.517505	-0.863525	0.231445	0.269287	0.063139	-0.017780	0.072493	0.188431	-0.625312	-0.178993	-0.735826	10.225081	-81.003355	-160.012436
03846		6.729368	-1.131580	7.293620	4.457899	4.181625	-1.914700	0.320632	5.475266	-0.592085	-0.872559	0.227051	0.211670	0.069222	-0.011634	0.071040	0.192075	-0.604150	-0.176810	-0.752893	9.347514	-77.861517	-158.932971
03847		7.376728	0.034416	7.275995	4.446783	2.941534	-0.930053	0.419503	5.713975	-0.626341	-0.883545	0.220215	0.149658	0.075806	-0.000041	0.070614	0.195889	-0.581057	-0.174453	-0.770433	8.866177	-74.510039	-158.217612
03848		8.163737	0.975956	7.414981	4.326710	1.920827	0.194078	0.332978	5.880006	-0.609834	-0.885742	0.216064	0.101074	0.083799	0.009385	0.071723	0.199542	-0.557347	-0.171684	-0.787446	8.528846	-71.134199	-157.664798
03849		9.024514	1.345876	7.504294	3.737813	1.285433	1.318438	0.136814	6.002365	-0.589778	-0.897217	0.213623	0.036621	0.092482	0.013138	0.072299	0.202545	-0.532420	-0.167516	-0.804638	8.138253	-67.618664	-157.196994
03850		9.581676	1.095087	7.631049	2.882502	1.190337	2.081345	-0.069734	6.073250	-0.589557	-0.896729	0.198242	-0.020752	0.098106	0.010690	0.073350	0.204973	-0.507370	-0.162590	-0.821052	7.771540	-64.132825	-156.838932
03851		10.007347	0.558289	7.873029	1.944702	1.364064	2.707309	-0.219434	6.074034	-0.627364	-0.885254	0.194336	-0.078369	0.102419	0.005348	0.075637	0.206544	-0.481484	-0.156700	-0.837232	7.424620	-60.570234	-156.623848
03852		10.415918	-0.062735	8.026279	0.868064	1.556280	3.213773	-0.277358	6.012560	-0.697233	-0.873779	0.183594	-0.133545	0.106506	-0.000888	0.077085	0.207567	-0.455890	-0.150950	-0.852229	7.197062	-57.109484	-156.543518
03853		10.843075	-0.220810	8.480658	0.167706	1.455243	3.874609	-0.292883	5.879674	-0.774045	-0.851074	0.173096	-0.197998	0.110851	-0.002513	0.081575	0.207792	-0.429904	-0.145018	-0.866588	7.042782	-53.645737	-156.596558
03854		11.466089	-0.285612	9.327181	-0.372147	1.384813	4.898994	-0.312206	5.706548	-0.803461	-0.832764	0.160156	-0.246582	0.117247	-0.003182	0.089956	0.207686	-0.404798	-0.139417	-0.879527	6.940131	-50.351285	-156.693123
03855		12.487332	-0.522860	10.212368	-1.309624	1.331242	6.216837	-0.339528	5.541219	-0.794282	-0.805420	0.149658	-0.284180	0.127617	-0.005562	0.098622	0.207117	-0.379608	-0.133442	-0.891736	6.809452	-47.079288	-156.817616
03856		13.305751	-0.969940	10.847278	-2.460915	1.380800	7.146474	-0.347808	5.421476	-0.751017	-0.771484	0.139404	-0.319580	0.135895	-0.010022	0.104832	0.206643	-0.355208	-0.127665	-0.902678	6.674545	-43.950717	-156.907692
03857		14.084433	-1.365101	11.318710	-3.744348	1.286202	7.867740	-0.360646	5.329449	-0.659222	-0.739502	0.126709	-0.350586	0.143748	-0.013922	0.109407	0.206173	-0.330517	-0.121373	-0.912973	6.473514	-40.810111	-156.959484
03858		15.053597	-1.953581	11.682735	-5.345854	1.242324	8.536986	-0.318559	5.245525	-0.528272	-0.707764	0.118652	-0.381592	0.153479	-0.019757	0.112859	0.206343	-0.306521	-0.115355	-0.922042	6.264715	-37.796227	-156.917903
03859		16.960536	-2.349688	11.951319	-7.676478	0.652432	9.592616	-0.224853	5.191502	-0.386895	-0.673828	0.108154	-0.394775	0.172586	-0.023698	0.115085	0.206949	-0.282047	-0.109233	-0.930424	6.045342	-34.754320	-156.813721
03860		19.440800	-1.502526	11.663371	-10.235606	-1.463767	10.416236	-0.111447	5.237116	-0.228200	-0.650879	0.099854	-0.414795	0.197355	-0.015186	0.111500	0.208516	-0.257633	-0.103592	-0.937771	5.862914	-31.762772	-156.597453
03861		21.699603	2.416041	11.089453	-11.476515	-6.442337	10.834971	-0.240448	5.413690	0.093405	-0.625977	0.091309	-0.434570	0.219879	0.024391	0.104939	0.211181	-0.232052	-0.096388	-0.944597	5.497158	-28.626769	-156.199080
03862		22.498383	2.385962	9.917430	-13.492515	-7.659155	9.405935	-0.681872	5.543829	0.395022	-0.603516	0.089600	-0.454834	0.227567	0.024631	0.092807	0.214842	-0.206744	-0.086831	-0.950558	4.845113	-25.490055	-155.624843
03863		22.699906	1.506911	7.933296	-15.535520	-8.118219	6.712546	-0.943928	5.516156	0.575192	-0.585449	0.087891	-0.479248	0.229025	0.016080	0.072960	0.218740	-0.181375	-0.075564	-0.955796	4.035319	-22.319636	-155.015300
03864		22.553318	0.483314	5.614559	-17.194326	-8.266279	3.465156	-1.065086	5.317443	0.646089	-0.574463	0.094727	-0.501709	0.226901	0.005842	0.050095	0.222788	-0.157360	-0.064057	-0.959948	3.211298	-19.308701	-154.414227
03865		21.749189	0.035791	3.028001	-17.841183	-8.516267	-0.259539	-1.062150	4.926041	0.646190	-0.554443	0.099854	-0.532959	0.218147	0.001204	0.024907	0.226421	-0.134815	-0.052763	-0.963210	2.426106	-16.475416	-153.894648
03866		20.980996	-0.042667	0.381382	-18.076335	-8.886584	-3.934526	-0.992362	4.366521	0.620400	-0.534424	0.100098	-0.550781	0.209827	0.000228	-0.000767	0.229834	-0.115092	-0.042621	-0.965460	1.735908	-13.994327	-153.432249
03867		21.153560	-0.460253	-2.240980	-19.043561	-9.142668	-7.281014	-0.904915	3.708185	0.532278	-0.518799	0.104980	-0.570801	0.211083	-0.004153	-0.026307	0.232527	-0.098189	-0.033538	-0.967039	1.124238	-11.858905	-153.076238
03868		23.047491	0.220734	-5.266322	-20.910446	-11.004210	-10.579687	-0.854691	2.995050	0.311531	-0.505615	0.112061	-0.582275	0.229648	0.002331	-0.056116	0.234089	-0.084794	-0.025778	-0.968167	0.594724	-10.151878	-152.867951
03869		26.567482	2.196561	-9.120001	-23.630453	-14.633594	-14.422638	-1.054358	2.317783	0.048920	-0.494385	0.112305	-0.593262	0.264588	0.021538	-0.094385	0.234096	-0.074795	-0.017841	-0.969168	-0.025322	-8.819965	-152.839371
03870		27.242767	2.234514	-12.525504	-24.642218	-15.013161	-18.261897	-1.465936	1.616417	-0.199392	-0.490479	0.127930	-0.602539	0.271424	0.021145	-0.127609	0.232714	-0.068707	-0.008931	-0.970074	-0.847519	-7.900840	-152.961561
03871		24.124177	-0.025225	-13.501698	-23.085614	-11.343028	-19.944373	-1.646193	0.648567	-0.428672	-0.488525	0.134521	-0.604980	0.240799	-0.001884	-0.135787	0.230083	-0.067596	-0.000302	-0.970821	-1.764178	-7.549666	-153.217606
03872		20.354549	-2.873649	-11.944720	-20.941721	-6.775115	-18.800134	-1.349517	-0.579302	-0.690636	-0.499756	0.136475	-0.598389	0.203787	-0.030242	-0.118656	0.226269	-0.072009	0.005337	-0.971385	-2.485542	-7.902133	-153.603643
03873		18.996868	-4.613114	-8.982897	-20.232703	-4.347119	-15.693053	-0.613037	-1.731844	-0.881137	-0.506348	0.131836	-0.580322	0.190530	-0.047241	-0.088037	0.221831	-0.081407	0.006043	-0.971662	-2.777081	-8.946900	-154.062152
03874		18.379339	-8.545643	-5.792643	-20.958933	-0.348938	-12.041520	0.789612	-2.683287	-0.760423	-0.526367	0.126953	-0.564697	0.184225	-0.085933	-0.055795	0.218520	-0.093634	-0.001091	-0.971329	-2.261763	-10.508128	-154.434530
03875		-1.090320	-5.902089	10.464152	0.460474	6.474980	0.353833	3.044263	-3.672455	-0.483347	-0.547852	0.102051	-0.543945	-0.012956	-0.060573	0.103502	0.217564	-0.108498	-0.020102	-0.969789	-0.482753	-12.661250	-154.657522
03876		1.627283	7.889812	21.721517	6.509193	-5.478799	11.733730	3.073771	-3.305734	-0.112690	-0.565430	0.092773	-0.528320	0.012710	0.075537	0.218623	0.218299	-0.121196	-0.038668	-0.967555	1.297290	-14.560959	-154.737430
03877		-5.665142	4.298911	16.464768	10.482621	0.874456	4.712409	2.645418	-2.315047	0.922084	-0.572021	0.090332	-0.510498	-0.058747	0.040545	0.164523	0.223932	-0.130025	-0.053416	-0.964414	2.670324	-15.945278	-154.229821
03878		-3.070040	10.408971	6.650020	8.933825	-6.781237	-3.797591	2.065731	-2.898821	1.575296	-0.583496	0.094727	-0.492676	-0.032485	0.103147	0.067107	0.232054	-0.142139	-0.065599	-0.960023	3.609219	-17.659444	-153.383400
