// General information: 
//  MT Manager version: 2019.2.0 
//  XDA version: 2019.2.0 build 3853 rev 94535 built on 2019-09-09
// Device information: 
//  DeviceId: 00B40AC5
//  ProductCode: MTW2-3A7G6
//  Firmware Version: 4.6.0
//  Hardware Version: 1.1.0
// Device settings: 
//  Filter Profile: human(46.1)
//  Option Flags: Orientation Smoother Disabled, AHS Disabled, ICC Disabled
// Coordinate system: ENU
PacketCounter	SampleTimeFine	Acc_X	Acc_Y	Acc_Z	FreeAcc_E	FreeAcc_N	FreeAcc_U	Gyr_X	Gyr_Y	Gyr_Z	Mag_X	Mag_Y	Mag_Z	VelInc_X	VelInc_Y	VelInc_Z	Quat_q0	Quat_q1	Quat_q2	Quat_q3	Roll	Pitch	Yaw
37467		5.688131	2.694616	8.171740	-0.000000	0.000000	0.502016	-0.004757	-0.125851	0.168753	-0.644531	0.080811	-0.431885	0.056807	0.026996	0.081753	0.292190	-0.234004	-0.221248	-0.900509	18.274089	-33.417740	-149.574606
37468		6.240170	2.592046	7.965758	0.000000	0.000000	0.632966	0.022472	-0.200223	0.205648	-0.653564	0.080566	-0.427490	0.062295	0.025976	0.079723	0.309711	-0.256125	-0.229765	-0.886390	18.046828	-36.610685	-147.495100
37469		6.318470	2.394438	7.916424	-0.461700	-0.053752	0.584910	0.077140	-0.241250	0.244910	-0.653564	0.078369	-0.429443	0.063060	0.023991	0.079250	0.301334	-0.246131	-0.225787	-0.893106	18.169595	-35.149837	-148.509929
37470		5.508534	3.375187	8.612357	0.983046	-0.007887	0.908411	0.128955	-0.310559	0.289048	-0.655762	0.078369	-0.434082	0.054903	0.033776	0.086231	0.302432	-0.247649	-0.226475	-0.892140	18.171463	-35.370547	-148.385178
37471		5.576372	3.082256	8.697756	0.813721	0.242056	0.935624	-0.018916	-0.433574	0.280816	-0.664795	0.080566	-0.431885	0.055532	0.030909	0.087095	0.303166	-0.249923	-0.226702	-0.891199	18.107677	-35.656080	-148.293076
37472		6.054497	3.090275	8.607355	0.517401	0.004602	1.142913	-0.040411	-0.532918	0.318613	-0.667236	0.084961	-0.420898	0.060266	0.031016	0.086228	0.303929	-0.252719	-0.226931	-0.890091	18.027592	-36.002980	-148.195819
37473		5.415142	2.303593	9.077629	0.653133	1.131611	0.926307	0.064010	-0.655707	0.386321	-0.674072	0.087158	-0.420898	0.053809	0.023111	0.090960	0.304980	-0.255960	-0.227725	-0.888602	17.996092	-36.426912	-148.079436
37474		4.776251	3.048544	10.347115	2.061323	1.637114	1.686822	0.083237	-0.891924	0.387857	-0.676270	0.084717	-0.416504	0.047241	0.030534	0.103695	0.305791	-0.260235	-0.228956	-0.886763	18.003951	-36.981607	-148.012792
37475		5.204938	2.204753	9.752548	1.121161	1.791192	1.259685	0.186406	-1.204950	0.441960	-0.689941	0.093506	-0.410156	0.051412	0.022071	0.097857	0.306606	-0.265709	-0.231013	-0.884321	18.088332	-37.705603	-147.977812
37476		4.864666	1.996597	10.133905	1.459352	2.400098	1.253226	0.250837	-1.523481	0.510004	-0.694336	0.088867	-0.392334	0.047822	0.019961	0.101730	0.307425	-0.272641	-0.233772	-0.881197	18.227626	-38.626088	-147.970647
37477		4.484282	1.409943	10.515519	1.590671	3.317174	1.102199	0.357373	-1.893124	0.545133	-0.707764	0.091064	-0.379150	0.043806	0.014031	0.105598	0.308102	-0.280869	-0.237385	-0.877402	18.457398	-39.728239	-148.021245
37478		4.737847	1.649988	10.548259	1.773336	3.229171	1.271392	0.399345	-2.286217	0.563392	-0.721436	0.095215	-0.363770	0.046122	0.016420	0.106047	0.308399	-0.290931	-0.241851	-0.872787	18.781820	-41.072648	-148.168743
37479		4.529861	2.462560	10.685728	2.711508	3.019754	1.335773	0.463640	-2.706175	0.631968	-0.730469	0.099365	-0.339355	0.043769	0.024517	0.107513	0.308591	-0.302392	-0.246815	-0.867418	19.158063	-42.604138	-148.362926
37480		4.383767	2.917956	10.500148	3.290840	2.875911	1.090172	0.471500	-3.131125	0.737259	-0.739258	0.092529	-0.314697	0.042079	0.029088	0.105738	0.308596	-0.316113	-0.252543	-0.860850	19.615367	-44.436640	-148.634643
37481		4.613407	3.785553	10.333907	3.958883	2.334276	1.199377	0.511137	-3.575721	0.904592	-0.755371	0.105713	-0.286377	0.044105	0.037792	0.104236	0.308817	-0.331130	-0.258367	-0.853365	20.069052	-46.445963	-148.895102
37482		4.634290	4.143756	9.885241	4.345546	2.071897	0.825381	0.404740	-4.064398	1.139524	-0.767090	0.114258	-0.249023	0.044084	0.041492	0.099848	0.309029	-0.349243	-0.264424	-0.844162	20.515218	-48.856597	-149.184910
37483		5.109832	3.659304	9.929655	4.117756	2.543046	0.894730	0.392461	-4.628542	1.426525	-0.782959	0.120605	-0.211670	0.048520	0.036749	0.100511	0.309597	-0.368876	-0.270209	-0.833707	20.896859	-51.479099	-149.416211
37484		6.153723	6.232771	10.882021	6.305522	1.505005	2.559206	0.342615	-5.084687	1.677124	-0.791992	0.127197	-0.167480	0.058219	0.062637	0.110436	0.310239	-0.391672	-0.276317	-0.820971	21.295146	-54.543024	-149.668937
37485		4.955677	7.559079	10.401652	8.152094	0.976696	1.252293	-0.133519	-5.412546	1.928613	-0.801758	0.149170	-0.121826	0.045987	0.076116	0.105243	0.310318	-0.415008	-0.279854	-0.808179	21.326177	-57.617260	-149.812764
37486		5.867580	2.355262	9.240663	3.880661	3.595676	0.053229	-0.315804	-5.892483	2.101296	-0.806885	0.166504	-0.064697	0.055668	0.024296	0.094038	0.309756	-0.442042	-0.283223	-0.792739	21.324996	-61.200074	-150.021557
37487		7.710090	-0.885383	8.604100	0.900364	5.093087	0.553796	-0.118476	-6.352947	2.083480	-0.802979	0.182129	-0.014160	0.074403	-0.008017	0.088438	0.308573	-0.467933	-0.287464	-0.776651	21.678524	-64.722122	-150.498562
37488		12.170136	1.613782	9.552985	2.340986	3.709788	5.108620	0.154080	-6.368611	1.824648	-0.803223	0.188477	0.049805	0.118425	0.017153	0.099349	0.306696	-0.494786	-0.293461	-0.758291	22.716455	-68.495741	-151.532646
37489		11.288322	1.297356	5.569148	0.777884	1.552650	2.719512	0.040104	-6.107657	1.533528	-0.799072	0.204102	0.098145	0.111009	0.013818	0.059104	0.303776	-0.517525	-0.298342	-0.742213	24.161235	-71.710941	-153.068367
37490		14.769887	0.455834	5.355175	-0.258009	1.968214	5.776242	0.471534	-6.088291	1.490445	-0.785645	0.206299	0.151367	0.145939	0.005517	0.058025	0.301295	-0.541366	-0.305334	-0.723129	26.901948	-75.227545	-155.644089
37491		15.144035	2.811796	3.401700	0.929164	-0.543919	5.922573	0.920760	-5.256979	1.202645	-0.779541	0.221680	0.184082	0.150302	0.028855	0.038110	0.300440	-0.558340	-0.312432	-0.707374	30.437230	-77.862331	-158.763675
37492		15.283011	4.959912	2.356676	2.587700	-2.170626	6.070004	0.998927	-4.837287	1.349039	-0.770752	0.230713	0.225830	0.151858	0.050495	0.027498	0.300345	-0.575871	-0.319363	-0.690053	35.539220	-80.610079	-163.372916
37493		16.654337	2.747979	1.989793	0.951343	-0.740077	7.139599	1.035145	-4.045502	1.198545	-0.753174	0.241943	0.251953	0.165925	0.028360	0.023404	0.301172	-0.587828	-0.325021	-0.676841	41.340874	-82.527696	-168.656784
37494		14.576158	4.633530	0.514162	2.335559	-2.609247	5.083914	1.033207	-3.373861	1.085095	-0.750977	0.246338	0.280762	0.145390	0.047089	0.007838	0.302347	-0.599353	-0.330354	-0.663498	50.198034	-84.326282	-176.975375
37495		12.405852	5.514161	4.523539	5.927929	0.294241	3.207976	0.490615	-1.967967	1.057455	-0.747070	0.257568	0.289307	0.123311	0.055682	0.046587	0.304049	-0.604689	-0.331620	-0.657216	54.431096	-85.191691	179.041110
37496		18.769400	4.078994	19.115102	13.047560	12.942154	10.101563	0.613636	0.180873	0.873715	-0.744873	0.264160	0.277832	0.187688	0.041023	0.191107	0.309071	-0.604602	-0.330715	-0.655408	49.994812	-85.524083	-176.155299
37497		9.642610	7.005200	15.544792	13.857460	8.224329	1.323285	0.652812	2.709247	0.889045	-0.747559	0.270752	0.259766	0.098211	0.069981	0.154354	0.318535	-0.592678	-0.325612	-0.664263	32.779684	-84.168764	-158.511984
37498		-2.440882	6.264202	12.129896	12.313951	6.318471	-10.687035	0.494036	3.480020	1.281036	-0.756836	0.277588	0.228516	-0.022691	0.062192	0.121858	0.329863	-0.582315	-0.317857	-0.671615	19.661613	-82.694132	-145.024189
37499		-5.409389	5.911739	9.397227	10.793416	4.724096	-13.513188	0.320317	3.548895	1.756579	-0.759766	0.297607	0.201172	-0.052930	0.058497	0.095012	0.342421	-0.567293	-0.307559	-0.682886	10.687352	-80.205011	-135.746621
37500		-4.851471	4.055541	8.328530	8.585511	5.070966	-12.961569	0.407120	3.374066	2.054101	-0.751221	0.311035	0.171875	-0.047512	0.039893	0.084174	0.355710	-0.558123	-0.297286	-0.688179	3.461571	-78.427575	-128.157261
37501		-2.655737	3.825863	8.168753	8.004230	4.890267	-10.469154	0.733403	3.289847	1.891938	-0.749756	0.331055	0.144531	-0.025566	0.037713	0.082252	0.369234	-0.541681	-0.288431	-0.697893	0.597337	-75.712265	-124.700323
37502		-0.412926	5.255973	8.226376	8.842736	3.769801	-8.063628	1.046661	3.365988	1.461321	-0.745361	0.335693	0.115723	-0.003123	0.052103	0.082595	0.381955	-0.530013	-0.281859	-0.702676	-1.798845	-73.774267	-121.595434
37503		0.840211	7.261536	8.051522	10.118016	2.247800	-6.521616	1.141938	3.535341	0.889986	-0.740967	0.340332	0.084473	0.009506	0.072195	0.080767	0.393091	-0.508986	-0.276667	-0.714050	-0.879504	-70.803094	-121.708552
37504		1.244529	8.389236	7.853488	10.812417	1.379367	-5.967167	0.955836	3.697622	0.304733	-0.736328	0.335938	0.051270	0.013772	0.083537	0.078688	0.401654	-0.494234	-0.271986	-0.721408	-0.724433	-68.682179	-121.290091
37505		1.048273	7.402614	7.447957	9.643068	1.571504	-5.824786	0.723049	3.778697	-0.281201	-0.740723	0.329346	0.027100	0.011994	0.073741	0.074529	0.407118	-0.469995	-0.268118	-0.735848	1.645058	-65.505474	-123.149981
37506		1.281907	5.377852	7.292626	7.672459	2.355295	-5.416789	0.674397	3.770079	-0.892421	-0.733643	0.318359	-0.005859	0.014432	0.053471	0.072845	0.410395	-0.453464	-0.264971	-0.745478	2.919176	-63.326539	-124.133962
37507		2.434086	4.003173	7.372651	5.964336	2.547653	-3.961884	0.837167	3.718335	-1.509892	-0.728760	0.305176	-0.038574	0.026008	0.039532	0.073419	0.410758	-0.426284	-0.264535	-0.761302	6.044242	-60.040778	-126.796822
37508		4.035267	3.482110	7.662077	4.916019	2.262848	-2.209114	1.019624	3.718861	-2.054833	-0.727783	0.280762	-0.062012	0.042122	0.034006	0.076023	0.409930	-0.407214	-0.265095	-0.771919	8.130462	-57.780660	-128.550288
37509		5.821198	2.874044	7.945753	3.378348	1.800888	-0.293970	1.160344	3.781632	-2.474985	-0.729492	0.263184	-0.090332	0.060048	0.027548	0.078496	0.406633	-0.376978	-0.267346	-0.788075	11.331947	-54.252383	-131.233490
37510		7.241455	2.682285	8.333763	2.358791	1.375494	1.214691	1.255791	3.884833	-2.749655	-0.726318	0.238770	-0.115967	0.074372	0.025291	0.082068	0.403236	-0.355328	-0.269497	-0.799071	13.459605	-51.739802	-132.996115
37511		8.441949	2.807702	8.721638	1.305700	0.723691	2.554814	1.264018	3.978496	-2.853106	-0.720947	0.212402	-0.148193	0.086518	0.026308	0.085679	0.398080	-0.323159	-0.271808	-0.814384	16.077383	-47.966505	-135.090512
37512		9.430702	2.864313	9.266785	0.444132	0.366472	3.701941	1.183536	4.045778	-2.805532	-0.715576	0.190186	-0.178467	0.096542	0.026758	0.090892	0.393940	-0.300413	-0.273020	-0.824635	17.671715	-45.281298	-136.350452
37513		10.613479	3.023621	9.844611	-0.791051	-0.299603	4.950223	1.076189	4.096008	-2.660043	-0.710205	0.161621	-0.204102	0.108508	0.028281	0.096396	0.388676	-0.268407	-0.273376	-0.837947	19.452135	-41.477860	-137.658834
37514		12.077456	3.333583	10.351676	-1.929227	-1.197304	6.278469	0.958504	4.174974	-2.500955	-0.707275	0.143799	-0.234619	0.123302	0.031316	0.101114	0.385071	-0.245552	-0.272550	-0.846842	20.448616	-38.740104	-138.352747
37515		12.826707	3.865221	10.446554	-2.917643	-2.316853	6.760046	0.782851	4.264414	-2.385515	-0.697510	0.119629	-0.262451	0.130903	0.036699	0.101839	0.380215	-0.214289	-0.270441	-0.858125	21.570234	-34.989362	-139.078125
37516		13.272218	3.712297	10.183151	-4.058267	-3.037604	6.554175	0.598007	4.270295	-2.326114	-0.694580	0.097656	-0.292725	0.135275	0.035260	0.099068	0.376535	-0.191620	-0.267300	-0.866057	22.129910	-32.222097	-139.470009
37517		14.551269	3.928203	9.436821	-5.720054	-4.814111	6.320155	0.505773	4.153485	-2.337910	-0.675781	0.077881	-0.322998	0.147876	0.037329	0.091409	0.370998	-0.162411	-0.263817	-0.875433	22.904023	-28.692683	-139.998583
37518		16.165346	4.306607	8.121851	-7.299980	-7.082857	5.753640	0.379582	3.967666	-2.422437	-0.663818	0.053711	-0.353271	0.163728	0.040941	0.078063	0.365836	-0.141100	-0.260013	-0.882410	23.320538	-26.056678	-140.431202
37519		16.979215	4.256535	6.289230	-8.768770	-8.905708	3.960651	0.188757	3.691926	-2.574219	-0.654297	0.038330	-0.379395	0.171443	0.040308	0.059776	0.358155	-0.115795	-0.256159	-0.890336	23.905164	-22.934788	-141.091165
37520		15.939285	-2.760312	4.448520	-13.424872	-5.149811	-1.170701	-0.038335	3.182568	-2.767514	-0.637695	0.014160	-0.389404	0.159672	-0.029803	0.041951	0.349809	-0.098124	-0.251834	-0.896986	24.165134	-20.623187	-141.850832
37521		15.868764	-9.343597	2.626988	-18.114362	-1.809890	-5.995159	0.737827	2.181580	-3.190253	-0.634277	-0.016846	-0.401611	0.157441	-0.096046	0.024197	0.337770	-0.080040	-0.253401	-0.902936	25.169259	-18.404531	-143.123053
37522		19.088308	-3.141823	0.019223	-16.687597	-8.686138	-5.310520	1.534899	1.335154	-3.245575	-0.622070	-0.047852	-0.402832	0.190334	-0.034504	-0.001337	0.325361	-0.067291	-0.259327	-0.906841	26.475549	-16.905499	-144.529944
37523		22.543930	1.516871	-2.673515	-16.689373	-14.720749	-5.078719	1.327226	0.623974	-2.819784	-0.619141	-0.065430	-0.406494	0.225540	0.012169	-0.027351	0.313687	-0.058472	-0.265582	-0.909752	27.656922	-15.843348	-145.874444
37524		27.404500	2.678133	-5.099513	-20.103291	-19.041417	-5.637179	0.627912	0.286925	-2.334921	-0.609619	-0.083252	-0.403809	0.274261	0.023741	-0.051311	0.303607	-0.053074	-0.268650	-0.912597	28.322055	-15.069942	-147.020030
37525		30.850127	2.078656	-7.745590	-23.422219	-21.484793	-7.400726	-0.086816	0.488574	-1.895539	-0.615967	-0.089844	-0.405762	0.308489	0.017829	-0.078218	0.296031	-0.051365	-0.269717	-0.914866	28.604374	-14.694981	-147.904714
37526		28.614819	-0.096085	-10.108179	-22.921887	-19.824035	-11.413562	-0.596632	0.925223	-1.403416	-0.606689	-0.098633	-0.416504	0.285659	-0.003271	-0.102397	0.290693	-0.046118	-0.265968	-0.917950	28.377975	-13.845142	-148.372979
37527		22.921308	-3.652636	-11.569656	-20.251473	-15.098273	-15.685901	-0.738306	0.984876	-0.742188	-0.602295	-0.096436	-0.420898	0.228501	-0.037805	-0.116685	0.289511	-0.048077	-0.264574	-0.918625	28.179214	-13.976474	-148.539124
37528		18.231675	-5.993051	-11.684513	-17.663987	-11.069599	-18.196314	-0.492001	0.490182	-0.007094	-0.602783	-0.083008	-0.427979	0.182028	-0.060225	-0.117144	0.290007	-0.046525	-0.261604	-0.919399	27.865695	-13.726325	-148.406916
37529		16.915208	-0.586411	-11.142149	-13.683245	-13.932365	-15.223159	-0.834472	-0.305098	0.636651	-0.598389	-0.078613	-0.432617	0.169340	-0.005789	-0.111139	0.293822	-0.058588	-0.261843	-0.917428	27.521302	-15.151448	-148.213822
37530		8.032784	4.028509	-4.671165	-4.079585	-9.269195	-9.927765	-2.493575	-0.984624	1.286274	-0.608398	-0.052002	-0.420410	0.080299	0.040218	-0.046818	0.297670	-0.068443	-0.251446	-0.918413	25.979982	-15.986662	-147.794281
37531		8.348179	-3.558489	15.100465	-8.783559	5.993642	4.233001	-1.699067	-2.143657	1.487896	-0.617676	-0.041016	-0.411865	0.082110	-0.033681	0.152181	0.302428	-0.091999	-0.250669	-0.915007	25.179150	-18.661565	-147.623626
37532		4.345466	-3.793065	24.589456	-5.169651	13.009242	11.209524	-1.324650	-0.734511	0.441985	-0.618164	-0.032227	-0.412109	0.042632	-0.036205	0.246296	0.302911	-0.097911	-0.245508	-0.915633	24.401925	-19.149609	-147.567176
37533		-3.473967	-6.564499	14.122200	-0.552382	13.598192	-1.483227	-0.802947	-0.652544	0.054804	-0.620850	-0.021240	-0.408203	-0.035183	-0.065087	0.141370	0.303255	-0.111046	-0.245390	-0.914051	24.034558	-20.599567	-147.722035
37534		-3.397007	-6.407647	8.260610	-0.716715	10.430897	-6.419044	-0.423784	-1.744718	0.498802	-0.629883	-0.016846	-0.395020	-0.034530	-0.063987	0.082442	0.303145	-0.120268	-0.245811	-0.912806	23.847577	-21.629046	-147.876926
37535		13.309483	-4.244570	11.082579	-11.978946	2.333634	3.188425	-0.147906	-2.198221	0.793169	-0.639160	-0.010254	-0.379639	0.132033	-0.041838	0.112312	0.305209	-0.139116	-0.248945	-0.908582	23.693375	-23.875872	-147.942347
37536		18.352965	-1.293449	11.649691	-13.778579	-1.703952	6.964156	0.159975	-1.031619	0.509501	-0.641357	-0.008057	-0.370850	0.182958	-0.012562	0.117431	0.306346	-0.144189	-0.250887	-0.906872	23.771895	-24.534365	-147.910217
37537		17.318927	5.395204	9.343305	-8.653100	-6.876693	7.339144	0.231752	-0.222817	0.317287	-0.639404	-0.003662	-0.375488	0.172999	0.054118	0.093689	0.309146	-0.153465	-0.252392	-0.903978	23.645271	-25.690537	-147.705634
37538		8.790538	5.668381	5.514526	-2.420240	-5.068484	0.592452	0.053275	0.323806	0.170582	-0.639404	-0.003662	-0.379883	0.087946	0.056744	0.055018	0.310366	-0.152134	-0.252001	-0.903894	23.597227	-25.559688	-147.523908
37539		5.919025	6.948469	5.808334	0.780800	-4.332307	0.070342	-0.080026	-0.079984	0.162219	-0.641602	0.000732	-0.377930	0.059111	0.069556	0.058079	0.312319	-0.161019	-0.252331	-0.901587	23.354407	-26.612957	-147.383659
37540		7.765518	3.249480	8.326120	-2.630249	-1.322937	1.655450	-0.196686	-0.156417	0.212232	-0.644043	0.000732	-0.382324	0.077555	0.032659	0.083290	0.312919	-0.162299	-0.251518	-0.901376	23.203416	-26.743372	-147.298321
37541		7.544360	1.149110	8.045542	-3.685315	0.115058	0.645504	-0.045858	0.006359	0.105646	-0.644043	0.005127	-0.378174	0.075440	0.011549	0.080450	0.314578	-0.170068	-0.252063	-0.899212	23.019961	-27.674019	-147.179279
37542		5.561246	3.050992	7.400932	-1.059172	-0.583796	-0.140710	0.004088	0.022514	0.099647	-0.646484	0.007324	-0.380371	0.055606	0.030536	0.074004	0.315057	-0.170086	-0.251962	-0.899069	22.992115	-27.684553	-147.114269
37543		5.782085	4.266257	7.404284	-0.286234	-1.447621	0.399038	-0.036348	0.013521	0.090990	-0.644287	0.011719	-0.380615	0.057806	0.042702	0.074031	0.316590	-0.177297	-0.252391	-0.897015	22.809482	-28.547399	-146.996002
37544		5.577474	3.867412	7.522607	-0.370780	-1.021289	0.260752	-0.060721	0.016135	0.120085	-0.646484	0.009521	-0.380371	0.055758	0.038730	0.075210	0.317095	-0.177474	-0.251987	-0.896915	22.738232	-28.565661	-146.919723
37545		5.939306	3.771085	7.326001	-0.598115	-1.191016	0.256595	-0.088790	0.053896	0.124866	-0.646729	0.013916	-0.376221	0.059389	0.037780	0.073227	0.318651	-0.184028	-0.252103	-0.895008	22.529237	-29.345756	-146.776222
37546		5.662504	3.643824	7.597395	-0.426735	-0.833729	0.295952	-0.104266	0.088141	0.134864	-0.644531	0.013916	-0.374023	0.056634	0.036516	0.075930	0.319269	-0.183971	-0.251372	-0.895005	22.418522	-29.328838	-146.672184
37547		6.012983	2.791544	7.616264	-1.126053	-0.380150	0.214457	-0.088643	0.112353	0.102095	-0.640381	0.027344	-0.381104	0.060158	0.027980	0.076116	0.320683	-0.189704	-0.251404	-0.893292	22.221485	-30.010883	-146.531456
37548		6.349820	1.718163	7.651625	-2.078795	0.179722	0.059797	-0.074461	0.119857	0.086616	-0.644775	0.022949	-0.374268	0.063537	0.017238	0.076472	0.321150	-0.189399	-0.250797	-0.893360	22.137337	-29.966291	-146.448474
37549		6.098829	2.111133	8.370555	-1.399351	0.486251	0.652691	-0.026622	0.130389	0.034360	-0.642578	0.027344	-0.381104	0.061039	0.021133	0.083663	0.322280	-0.194454	-0.251022	-0.891802	21.989660	-30.572428	-146.341475
37550		6.009954	2.117702	8.103683	-1.385712	0.360838	0.396303	-0.013762	0.092889	0.025566	-0.640381	0.027344	-0.374512	0.060134	0.021190	0.081007	0.322497	-0.194096	-0.250787	-0.891868	21.961989	-30.528874	-146.302574
37551		6.445793	2.242571	7.937054	-1.546457	0.013493	0.540210	-0.016030	0.076478	0.018806	-0.640625	0.031738	-0.376709	0.064486	0.022438	0.079344	0.323451	-0.198947	-0.251023	-0.890386	21.825586	-31.108858	-146.214602
37552		6.387234	2.542563	7.722935	-1.346429	-0.287707	0.434725	-0.006249	0.064411	0.010594	-0.645020	0.031738	-0.372314	0.063896	0.025431	0.077208	0.323573	-0.198686	-0.250881	-0.890440	21.810312	-31.077224	-146.191996
37553		5.776945	2.708456	8.152357	-0.626613	0.178175	0.519077	0.001821	0.069569	-0.004843	-0.638428	0.034180	-0.381348	0.057798	0.027082	0.081504	0.324382	-0.203158	-0.251153	-0.889059	21.692675	-31.612863	-146.119396
37554		6.144322	2.557676	7.816555	-1.057269	-0.095079	0.398389	-0.025972	0.028146	0.029270	-0.636230	0.036377	-0.379150	0.061450	0.025596	0.078154	0.324521	-0.203115	-0.250963	-0.889071	21.664504	-31.604494	-146.094086
37555		6.239611	2.835611	7.569370	-0.897031	-0.433948	0.349784	-0.030101	0.037631	0.030780	-0.640869	0.042969	-0.372803	0.062406	0.028377	0.075678	0.325362	-0.207456	-0.251044	-0.887738	21.523398	-32.119895	-146.007295
37556		6.111171	3.450913	7.713433	-0.356103	-0.703222	0.585914	-0.042065	0.040458	0.048049	-0.640869	0.038574	-0.376953	0.061119	0.034540	0.077115	0.325583	-0.207409	-0.250742	-0.887753	21.477843	-32.108889	-145.966997
37557		6.174676	3.475848	7.622067	-0.316330	-0.773706	0.560612	-0.071210	0.028740	0.066919	-0.638672	0.042969	-0.377197	0.061746	0.034806	0.076199	0.326469	-0.211568	-0.250608	-0.886484	21.310826	-32.597478	-145.862858
37558		6.120109	2.936894	7.745024	-0.615430	-0.329033	0.462499	-0.075149	0.033695	0.075935	-0.634277	0.045166	-0.375000	0.061203	0.029421	0.077429	0.326768	-0.211640	-0.250140	-0.886488	21.237309	-32.595793	-145.806385
37559		5.885908	3.110136	7.767650	-0.248114	-0.295075	0.410062	-0.079997	0.034818	0.076435	-0.636719	0.049561	-0.373047	0.058861	0.031155	0.077654	0.327634	-0.215486	-0.249940	-0.885298	21.069383	-33.046267	-145.697965
37560		5.964364	3.232628	7.760115	-0.213320	-0.428536	0.483610	-0.095990	0.050147	0.088035	-0.632568	0.056396	-0.377686	0.059649	0.032390	0.077571	0.327983	-0.215536	-0.249339	-0.885326	20.976988	-33.038108	-145.629457
37561		6.032485	2.755183	7.752479	-0.515441	-0.130805	0.375543	-0.098973	0.049119	0.098370	-0.630127	0.056396	-0.382080	0.060330	0.027620	0.077496	0.328885	-0.219074	-0.248995	-0.884219	20.795599	-33.449387	-145.506455
37562		5.452066	2.980487	8.075964	0.117970	0.170328	0.374882	-0.102189	0.074909	0.087711	-0.630127	0.054199	-0.379883	0.054538	0.029870	0.080724	0.329255	-0.219025	-0.248325	-0.884282	20.695897	-33.427661	-145.431862
37563		5.767924	3.008099	7.824350	-0.067919	-0.129187	0.361630	-0.108646	0.055188	0.082382	-0.623535	0.056396	-0.379883	0.057688	0.030147	0.078211	0.330036	-0.222248	-0.247910	-0.883302	20.517221	-33.797760	-145.319005
37564		5.992091	2.578745	7.628074	-0.557816	-0.081194	0.208532	-0.112687	0.079359	0.085090	-0.625977	0.060791	-0.384521	0.059940	0.025856	0.076242	0.330386	-0.222194	-0.247187	-0.883387	20.411368	-33.772858	-145.244854
37565		5.714093	3.063214	7.748589	0.057748	-0.187852	0.288606	-0.117002	0.089239	0.075347	-0.621582	0.063232	-0.386719	0.057164	0.030699	0.077442	0.331126	-0.225026	-0.246661	-0.882540	20.229598	-34.093188	-145.130013
37566		5.672828	2.955775	7.763354	0.018167	-0.105721	0.245927	-0.124778	0.107885	0.070422	-0.619629	0.072021	-0.387207	0.056760	0.029626	0.077584	0.331430	-0.224849	-0.245853	-0.882697	20.117971	-34.049776	-145.058478
37567		6.263871	2.761381	7.389956	-0.550014	-0.469379	0.234696	-0.140228	0.100687	0.068220	-0.617188	0.069824	-0.393799	0.062666	0.027687	0.073849	0.332082	-0.227417	-0.245200	-0.881975	19.929783	-34.333227	-144.948569
37568		6.113976	2.225469	7.647541	-0.758642	0.086746	0.199066	-0.121443	0.132643	0.059059	-0.619629	0.072021	-0.393799	0.061184	0.022319	0.076421	0.332367	-0.227112	-0.244378	-0.882174	19.820749	-34.273993	-144.878678
37569		5.578925	2.846536	7.996855	0.169186	0.139896	0.342540	-0.106722	0.113825	0.046879	-0.613037	0.076660	-0.398438	0.055828	0.028521	0.079922	0.332949	-0.229361	-0.243852	-0.881518	19.660165	-34.524064	-144.780810
37570		5.995422	2.226394	7.969313	-0.550343	0.319344	0.385694	-0.097951	0.094104	0.047048	-0.610840	0.078857	-0.400635	0.059986	0.022317	0.079654	0.333160	-0.229173	-0.243211	-0.881665	19.574021	-34.483098	-144.727931
37571		6.132261	2.174761	7.845656	-0.662172	0.224063	0.355884	-0.073704	0.079468	0.027581	-0.613037	0.078857	-0.398438	0.061351	0.021785	0.078424	0.333626	-0.231297	-0.242876	-0.881026	19.445810	-34.723494	-144.651686
37572		5.708343	2.409991	8.177794	-0.133106	0.454085	0.436490	-0.034130	0.079475	0.014984	-0.617676	0.081055	-0.405273	0.057114	0.024118	0.081751	0.333750	-0.231029	-0.242576	-0.881132	19.410022	-34.684216	-144.623303
37573		5.898216	2.748001	7.996435	-0.026587	0.047171	0.496556	-0.031000	0.042011	0.017108	-0.608398	0.074463	-0.409424	0.058997	0.027497	0.079948	0.334155	-0.233063	-0.242464	-0.880473	19.315312	-34.921474	-144.562587
37574		6.210728	2.366666	7.692054	-0.578497	-0.032739	0.336510	-0.026864	0.038515	0.020495	-0.613281	0.083252	-0.407471	0.062120	0.023683	0.076905	0.334262	-0.232970	-0.242259	-0.880514	19.286946	-34.905373	-144.540056
37575		6.061444	2.637400	7.841804	-0.211991	-0.040096	0.441303	-0.010171	0.034452	0.022062	-0.608643	0.078857	-0.414063	0.060625	0.026385	0.078406	0.334684	-0.234855	-0.242229	-0.879861	19.206256	-35.129002	-144.479295
37576		5.956339	2.673197	7.937194	-0.092802	0.038518	0.464127	-0.011681	0.023767	0.024861	-0.606201	0.076660	-0.413818	0.059569	0.026744	0.079363	0.334810	-0.234807	-0.242109	-0.879859	19.186792	-35.121705	-144.457243
37577		5.804169	2.947372	7.855370	0.218845	-0.104423	0.386500	-0.016400	0.009760	0.035342	-0.604248	0.085693	-0.418701	0.058040	0.029490	0.078548	0.335232	-0.236679	-0.242066	-0.879208	19.104192	-35.343457	-144.395155
37578		5.802612	2.786463	8.001414	0.146237	0.085093	0.455160	-0.011898	0.007014	0.041687	-0.615479	0.083252	-0.418457	0.058023	0.027881	0.080010	0.335411	-0.236726	-0.241953	-0.879158	19.080265	-35.348385	-144.365731
37579		5.646907	2.735072	8.128642	0.282815	0.279808	0.448147	-0.014023	-0.001907	0.052139	-0.613281	0.085693	-0.423096	0.056461	0.027371	0.081285	0.335871	-0.238515	-0.241916	-0.878509	18.998734	-35.561771	-144.297693
37580		5.693334	2.728332	8.031768	0.227006	0.204015	0.398776	-0.014110	-0.016592	0.050879	-0.615479	0.085449	-0.420898	0.056920	0.027303	0.080320	0.336059	-0.238681	-0.241822	-0.878418	18.972968	-35.581191	-144.267455
37581		5.810461	2.741615	7.989823	0.184959	0.128010	0.437414	-0.008989	-0.030657	0.063027	-0.613281	0.085693	-0.431885	0.058084	0.027438	0.079906	0.336520	-0.240456	-0.241827	-0.877756	18.896879	-35.794717	-144.200273
37582		5.493911	3.052472	8.103296	0.649135	0.141392	0.420723	-0.006220	-0.043623	0.060905	-0.620117	0.090088	-0.427734	0.054912	0.030544	0.081044	0.336728	-0.240740	-0.241801	-0.877605	18.875138	-35.830637	-144.169375
37583		6.066869	2.593412	7.878834	-0.073262	0.053014	0.463524	-0.015077	-0.072385	0.085131	-0.622314	0.087646	-0.434326	0.060629	0.025966	0.078808	0.337206	-0.242598	-0.241817	-0.876905	18.796436	-36.054587	-144.099143
37584		5.930240	2.786018	7.919909	0.174605	0.018077	0.464656	-0.008760	-0.078402	0.090362	-0.626953	0.089844	-0.432129	0.059259	0.027890	0.079221	0.337498	-0.243074	-0.241802	-0.876665	18.766033	-36.114791	-144.056217
37585		5.818094	2.683609	7.973172	0.227761	0.184202	0.411677	-0.004904	-0.094953	0.112859	-0.625000	0.096680	-0.436768	0.058128	0.026871	0.079759	0.338066	-0.244941	-0.241860	-0.875910	18.687676	-36.343267	-143.973697
37586		5.772235	2.977418	7.931998	0.470482	-0.006125	0.428352	-0.005310	-0.120822	0.131856	-0.624756	0.092041	-0.436523	0.057655	0.029814	0.079354	0.338493	-0.245646	-0.241881	-0.875542	18.648005	-36.434067	-143.912134
37587		6.566893	2.398994	7.672089	-0.483824	-0.141908	0.554855	-0.011866	-0.154842	0.166533	-0.633789	0.092041	-0.443359	0.065590	0.024049	0.076770	0.339196	-0.247740	-0.241939	-0.874664	18.555035	-36.691548	-143.808505
37588		5.586644	2.733191	8.302980	0.579376	0.484622	0.533801	0.020531	-0.161297	0.164470	-0.631592	0.094238	-0.443359	0.055777	0.027369	0.083078	0.339747	-0.248618	-0.242099	-0.874157	18.521799	-36.810190	-143.733481
37589		5.617808	2.771156	8.262849	0.621129	0.443345	0.528072	0.044225	-0.240585	0.216230	-0.638428	0.096436	-0.438965	0.056049	0.027754	0.082702	0.340621	-0.250959	-0.242473	-0.873043	18.452923	-37.112211	-143.615436
37590		5.452821	3.356672	8.522388	1.247910	0.310482	0.769269	-0.006217	-0.283033	0.229652	-0.636230	0.098633	-0.436768	0.054369	0.033632	0.085300	0.341273	-0.252492	-0.242640	-0.872299	18.393250	-37.308736	-143.522840
37591		6.085941	2.577950	8.199741	0.254682	0.349942	0.710276	-0.057698	-0.378389	0.249476	-0.645264	0.100830	-0.439209	0.060672	0.025879	0.082105	0.341976	-0.255524	-0.242754	-0.871109	18.273263	-37.677116	-143.414050
37592		5.597570	2.803766	8.404146	0.830042	0.574793	0.618228	-0.065097	-0.409611	0.249997	-0.649902	0.100830	-0.439209	0.055768	0.028135	0.084147	0.342485	-0.257731	-0.242852	-0.870231	18.187119	-37.945946	-143.334566
37593		6.052661	2.494103	8.383177	0.382100	0.578995	0.801047	-0.067113	-0.502655	0.270573	-0.658691	0.100586	-0.432617	0.060282	0.025051	0.083975	0.343099	-0.261246	-0.243093	-0.868872	18.069547	-38.373799	-143.238053
37594		5.995691	1.660858	8.599386	-0.064162	1.306075	0.720394	-0.033844	-0.628223	0.279858	-0.665771	0.107178	-0.428467	0.059663	0.016707	0.086179	0.343506	-0.264381	-0.243658	-0.867604	18.017222	-38.766841	-143.185425
37595		5.436412	2.224579	9.166896	0.943128	1.601299	0.914890	0.060548	-0.819564	0.295198	-0.667725	0.102783	-0.428223	0.053955	0.022298	0.091897	0.344003	-0.268992	-0.244923	-0.865632	18.002944	-39.361026	-143.139826
37596		5.450795	2.191540	9.182250	0.994480	1.691335	0.910047	0.066028	-1.008029	0.331527	-0.672363	0.102539	-0.421631	0.054008	0.021975	0.092103	0.344288	-0.273653	-0.246495	-0.863609	18.038880	-39.970169	-143.137051
37597		5.240036	2.288616	9.464582	1.390693	1.986776	0.975782	0.110093	-1.228657	0.372730	-0.683838	0.111328	-0.413086	0.051775	0.022931	0.094978	0.344668	-0.279909	-0.248514	-0.860869	18.075777	-40.786310	-143.128738
37598		5.104856	2.393147	9.780291	1.760664	2.280580	1.102317	0.132735	-1.476388	0.407684	-0.690674	0.115723	-0.399902	0.050276	0.023969	0.098192	0.344765	-0.286543	-0.251053	-0.857906	18.187696	-41.664078	-143.183356
37599		5.125341	2.782140	9.883861	2.215843	2.217916	1.226667	0.163844	-1.766462	0.448541	-0.701904	0.111084	-0.388672	0.050315	0.027854	0.099309	0.344838	-0.294942	-0.254044	-0.854141	18.305486	-42.769659	-143.250046
37600		5.280374	3.043187	9.795810	2.449754	2.080788	1.267250	0.194488	-2.099553	0.533902	-0.713135	0.117432	-0.371094	0.051690	0.030475	0.098534	0.344719	-0.304243	-0.257693	-0.849823	18.501244	-44.008856	-143.372981
37601		4.863188	3.478350	10.039981	3.294489	2.323506	1.155046	0.257298	-2.421840	0.648717	-0.726563	0.114990	-0.344482	0.047298	0.034809	0.101023	0.344863	-0.315309	-0.261819	-0.844453	18.695250	-45.488552	-143.466296
37602		4.843632	3.546253	10.126003	3.602691	2.549687	1.099812	0.263053	-2.775670	0.793918	-0.733643	0.121582	-0.324707	0.046884	0.035517	0.101965	0.344961	-0.327590	-0.266437	-0.838271	18.931816	-47.141823	-143.585176
37603		5.106308	3.421814	10.034398	3.589783	2.683874	1.067114	0.219968	-3.151184	0.943924	-0.749512	0.125732	-0.296143	0.049311	0.034343	0.101168	0.345169	-0.341867	-0.271056	-0.830971	19.101705	-49.050209	-143.665589
37604		5.149999	3.547270	10.039183	3.955150	2.841781	0.964849	0.190974	-3.587919	1.145865	-0.760986	0.134521	-0.276367	0.049484	0.035664	0.101326	0.345334	-0.357946	-0.276035	-0.822450	19.277422	-51.208719	-143.752127
37605		5.195486	3.956681	9.924919	4.538392	2.765555	0.812066	0.175174	-4.056565	1.413682	-0.770264	0.145264	-0.241455	0.049646	0.039836	0.100307	0.345916	-0.376261	-0.280989	-0.812290	19.340129	-53.674405	-143.721003
37606		6.220539	4.989342	10.333540	5.421212	2.387194	1.817013	0.072394	-4.508477	1.652237	-0.781982	0.156250	-0.195068	0.059440	0.050354	0.104714	0.346330	-0.396667	-0.285891	-0.800610	19.326715	-56.426519	-143.654224
37607		4.593850	5.202960	9.181164	6.239372	2.249427	-0.407994	-0.146348	-4.910129	1.918930	-0.789307	0.176025	-0.156006	0.043165	0.052520	0.092856	0.346701	-0.419072	-0.289731	-0.787549	19.020503	-59.426676	-143.401669
37608		5.037517	4.431448	9.139714	5.871168	2.822723	-0.535144	-0.294943	-5.479884	2.256467	-0.800781	0.186768	-0.105469	0.047343	0.044996	0.092656	0.346878	-0.444251	-0.293213	-0.772232	18.459959	-62.816557	-142.954937
37609		6.409187	2.156931	8.729346	3.856670	3.772930	-0.180439	-0.339050	-5.999261	2.437122	-0.794922	0.211182	-0.055176	0.061166	0.022477	0.089120	0.346656	-0.471054	-0.296593	-0.754964	17.684049	-66.475437	-142.315137
37610		8.382578	2.336265	9.339487	4.273263	4.027683	1.519044	-0.390689	-6.226942	2.420157	-0.795654	0.228760	0.001709	0.080574	0.024537	0.095890	0.345444	-0.498566	-0.300044	-0.736257	16.784438	-70.295114	-141.588925
37611		10.290360	0.601288	8.363049	2.513396	4.283735	2.494294	-0.660218	-6.243235	2.171979	-0.787109	0.246582	0.056641	0.100152	0.007394	0.086763	0.342377	-0.525267	-0.302647	-0.717828	15.766094	-74.016648	-140.917774
37612		11.086050	-1.853494	6.180614	-0.163530	4.308006	2.265920	-0.424173	-6.354766	1.867717	-0.780762	0.257568	0.114014	0.108988	-0.017375	0.065327	0.338163	-0.551342	-0.306930	-0.698185	15.298290	-77.812412	-140.686419
37613		15.130942	2.210081	6.458782	3.340209	2.180169	6.297565	-0.109592	-6.249800	1.603279	-0.774414	0.270752	0.166748	0.149010	0.023339	0.069256	0.333921	-0.575076	-0.312318	-0.678411	15.465347	-81.437885	-140.918328
37614		14.462926	1.928457	4.086974	2.574498	1.100546	5.076647	-0.192533	-5.738222	1.520607	-0.754639	0.279785	0.210693	0.143226	0.020419	0.044974	0.329418	-0.596987	-0.316734	-0.659371	15.724089	-84.839984	-141.290081
37615		17.749180	3.018749	3.781935	3.766010	0.604467	8.182202	0.039300	-5.315325	1.473613	-0.741211	0.286621	0.252686	0.176175	0.031481	0.042520	0.326086	-0.616078	-0.320912	-0.641195	15.589240	-87.921962	-141.128159
37616		16.559448	2.728149	3.739956	4.238150	1.319504	6.797164	0.073344	-4.533094	1.408907	-0.725830	0.291016	0.283691	0.164493	0.028428	0.041147	0.323463	-0.632585	-0.324106	-0.624631	-157.366882	-89.353413	31.871253
37617		15.253998	0.162898	1.530574	1.397715	1.403809	5.389221	0.157369	-3.788272	1.298080	-0.708496	0.311279	0.320557	0.152199	0.002604	0.018193	0.322020	-0.645625	-0.326411	-0.610678	-159.862074	-87.145718	34.462443
37618		17.081284	3.218297	-4.778049	0.766980	-5.143811	7.446804	-0.000711	-2.632430	1.071554	-0.715088	0.308838	0.336182	0.171246	0.033100	-0.045528	0.320960	-0.655354	-0.327154	-0.600388	-159.130578	-85.516814	33.728936
37619		6.793293	1.101316	3.541701	3.432796	2.563728	-3.367032	-0.063491	-1.869516	0.852861	-0.704102	0.315674	0.351563	0.067550	0.011313	0.036046	0.320386	-0.661959	-0.327063	-0.593459	-158.286505	-84.421051	32.848987
37620		22.923999	2.884017	20.273470	15.851023	16.037563	11.077055	0.926381	0.113782	0.311773	-0.704102	0.313477	0.338379	0.229311	0.028259	0.202736	0.324558	-0.660646	-0.328593	-0.591807	-155.812121	-84.410348	30.895938
37621		11.431663	10.472409	15.878796	18.429753	7.468732	0.037397	0.863475	3.250819	0.162103	-0.719971	0.319824	0.304688	0.116798	0.104137	0.157353	0.333419	-0.649081	-0.325154	-0.601499	-142.373404	-86.086000	17.917249
37622		-5.065331	9.335242	11.891460	14.104667	4.527884	-15.707615	0.390313	3.861310	0.767949	-0.726807	0.322266	0.280273	-0.048700	0.092929	0.120049	0.343207	-0.637946	-0.317334	-0.611991	-107.236445	-87.030130	-17.054364
37623		-5.210841	5.812265	9.169334	9.742745	4.495605	-15.278075	0.136720	3.742508	1.283615	-0.727295	0.333252	0.253174	-0.050751	0.057731	0.092691	0.353615	-0.627127	-0.307091	-0.622385	-67.951458	-86.210035	-56.311336
37624		-3.893335	3.191468	8.083184	7.055411	5.179474	-13.563392	0.460104	3.617693	1.422971	-0.729736	0.342285	0.219727	-0.037687	0.031456	0.081594	0.364972	-0.617128	-0.297605	-0.630381	-50.896295	-84.434593	-73.156344
37625		-2.114842	3.036897	7.540861	6.677858	4.796062	-11.532402	1.028793	3.579685	1.108416	-0.732422	0.351074	0.194824	-0.019959	0.029866	0.075927	0.377077	-0.604279	-0.290778	-0.638833	-39.932349	-82.462171	-83.574318
37626		0.124087	5.198555	7.218332	8.300402	3.155379	-9.278094	1.457607	3.655655	0.617272	-0.730469	0.357910	0.154785	0.002405	0.051464	0.072523	0.388692	-0.590639	-0.286618	-0.646463	-32.696575	-80.562338	-90.044869
37627		1.484067	7.693032	6.867675	10.151414	1.375768	-7.915404	1.493212	3.834795	0.115853	-0.734619	0.349121	0.121826	0.016117	0.076425	0.068948	0.399047	-0.574013	-0.283553	-0.656405	-25.476019	-78.485032	-96.483505
37628		2.027643	8.683331	6.528815	10.737770	0.497349	-7.247097	1.172191	4.002455	-0.343091	-0.732422	0.349365	0.088623	0.021733	0.086414	0.065370	0.406872	-0.557933	-0.280337	-0.666766	-20.003242	-76.444663	-101.401071
37629		2.272971	7.228831	6.258797	9.249545	0.920446	-6.621287	0.830494	4.094475	-0.769026	-0.734375	0.338135	0.053467	0.024286	0.071938	0.062401	0.412318	-0.539861	-0.276902	-0.679610	-14.623658	-74.182146	-106.427884
37630		2.948308	4.838059	6.276198	7.031320	1.877030	-5.509482	0.746108	4.132998	-1.250816	-0.729248	0.324951	0.025146	0.031075	0.047957	0.062310	0.415704	-0.522424	-0.274226	-0.692143	-10.216068	-72.022799	-110.586789
37631		3.749051	3.060164	6.387044	5.269418	2.495213	-4.316299	0.928741	4.156052	-1.766916	-0.735596	0.309570	-0.011963	0.039075	0.029967	0.063210	0.417566	-0.501900	-0.273424	-0.706382	-5.416203	-69.621093	-115.055240
37632		4.770484	1.925530	6.544416	3.959738	2.725338	-3.017552	1.205025	4.158135	-2.237364	-0.730225	0.285156	-0.048828	0.049262	0.018319	0.064543	0.418248	-0.481497	-0.274531	-0.719626	-1.136753	-67.315086	-118.912573
37633		6.097434	1.436522	6.490930	2.891510	2.305759	-1.585938	1.478871	4.150679	-2.595615	-0.733887	0.262939	-0.072510	0.062480	0.013087	0.063723	0.417947	-0.458028	-0.277384	-0.733886	3.257035	-64.708241	-122.740734
37634		7.151521	1.839156	6.559066	2.601720	1.610994	-0.423254	1.642672	4.129766	-2.790584	-0.735352	0.238770	-0.109375	0.073093	0.016848	0.064235	0.417054	-0.435420	-0.281075	-0.746641	6.964822	-62.208667	-125.832321
37635		8.260780	2.539818	6.966949	2.544771	0.958121	0.948714	1.622373	4.081841	-2.834876	-0.729980	0.216553	-0.133057	0.084353	0.023654	0.068156	0.415466	-0.410920	-0.284711	-0.759916	10.341080	-59.440880	-128.580928
37636		9.330985	2.974678	7.539599	2.254386	0.548029	2.325927	1.425938	4.011843	-2.809549	-0.726807	0.187988	-0.167480	0.095200	0.027889	0.073702	0.413298	-0.388587	-0.287474	-0.771715	12.949398	-56.864658	-130.689074
37637		10.777027	3.494664	8.187911	1.771527	-0.090414	4.051385	1.178859	3.954877	-2.746958	-0.719238	0.165771	-0.195313	0.109826	0.032973	0.079919	0.410362	-0.365079	-0.289092	-0.784057	15.185329	-54.071559	-132.529354
37638		12.381504	3.898262	8.749113	1.007822	-0.866621	5.783120	0.897901	3.974028	-2.736210	-0.711426	0.135010	-0.216553	0.126037	0.036882	0.085170	0.406896	-0.343597	-0.289365	-0.795389	16.855483	-51.450494	-133.980641
37639		13.035029	4.105504	8.856876	0.177293	-1.562827	6.394840	0.615508	4.016001	-2.781352	-0.701904	0.117432	-0.246826	0.132647	0.038953	0.086042	0.402349	-0.320537	-0.288314	-0.807618	18.298464	-48.568544	-135.348065
37640		13.590825	3.293237	8.782999	-1.496494	-1.828025	6.529320	0.396206	3.968906	-2.881161	-0.696533	0.088623	-0.272461	0.138070	0.030783	0.085167	0.396950	-0.299467	-0.286459	-0.818958	19.419459	-45.883076	-136.565709
37641		15.007173	3.625403	7.977751	-2.936218	-3.629511	6.924956	0.314820	3.838111	-3.009690	-0.691162	0.066650	-0.307129	0.152088	0.033853	0.076926	0.390215	-0.277105	-0.284519	-0.830659	20.535484	-43.031963	-137.844588
37642		16.508303	3.827259	6.895081	-4.602300	-5.541391	7.002826	0.208808	3.641009	-3.139973	-0.681152	0.040039	-0.326172	0.166875	0.035592	0.065962	0.382531	-0.257031	-0.282550	-0.841291	21.486072	-40.439451	-139.092605
37643		17.885881	1.346908	5.125475	-8.524502	-6.315100	5.529321	0.064112	3.378455	-3.350837	-0.671387	0.015869	-0.347412	0.179882	0.010445	0.048225	0.372897	-0.236443	-0.280566	-0.852247	22.446157	-37.753098	-140.499379
37644		16.288501	-9.155833	4.077492	-16.393131	-0.274100	0.031293	0.280173	2.798208	-3.784324	-0.652344	-0.017090	-0.375000	0.161661	-0.094680	0.038376	0.360926	-0.218624	-0.280937	-0.861980	23.622431	-35.429083	-142.203035
37645		19.292875	-7.204130	1.125927	-17.866447	-4.577552	-0.585797	1.473457	1.981861	-4.180033	-0.646729	-0.050537	-0.380615	0.191461	-0.076124	0.008806	0.346978	-0.200358	-0.288106	-0.869746	25.662132	-33.261020	-144.285637
37646		20.799731	1.114572	-1.753275	-13.882913	-11.782574	0.450119	1.669268	1.199408	-3.903534	-0.640625	-0.090332	-0.383545	0.208054	0.007238	-0.018709	0.333320	-0.186575	-0.297124	-0.875103	27.693302	-31.642593	-146.288120
37647		23.035725	6.115644	-4.183246	-12.926108	-17.124900	1.374596	0.610976	0.594751	-3.132000	-0.631348	-0.101318	-0.380859	0.231153	0.057669	-0.042339	0.320862	-0.177557	-0.301616	-0.880085	28.909810	-30.403358	-147.951661
37648		24.539783	5.671342	-6.688695	-15.165129	-18.893921	-0.215191	-0.778172	0.257625	-2.170567	-0.624268	-0.114502	-0.391602	0.245906	0.053785	-0.067417	0.310988	-0.174386	-0.299684	-0.884910	29.051528	-29.671548	-149.125617
37649		24.826576	1.649699	-8.746346	-18.658384	-17.571575	-3.594374	-1.549087	0.141449	-1.202110	-0.626709	-0.107910	-0.394043	0.248294	0.014326	-0.087756	0.304328	-0.174066	-0.293798	-0.889251	28.514664	-29.235393	-149.798293
37650		23.139561	-2.448074	-10.080159	-20.414818	-14.832299	-7.307680	-1.523207	0.080302	-0.388083	-0.619873	-0.107910	-0.391846	0.231306	-0.025697	-0.100702	0.301386	-0.175450	-0.287231	-0.892122	27.739136	-29.089879	-149.997908
37651		20.635935	-5.012584	-10.481457	-20.309025	-12.180556	-9.886207	-0.990793	-0.160875	0.234065	-0.624756	-0.096680	-0.387695	0.206502	-0.050402	-0.104399	0.301174	-0.178181	-0.283162	-0.892953	27.170323	-29.260196	-149.942656
37652		19.418769	-1.289682	-9.760611	-16.931305	-13.608090	-8.339448	-0.811909	-0.584232	0.595836	-0.627441	-0.085693	-0.390381	0.194510	-0.012712	-0.096986	0.302279	-0.182852	-0.279881	-0.892670	26.618494	-29.713056	-149.766751
37653		16.695617	5.260388	-8.606399	-10.510650	-16.010195	-6.113372	-2.072104	-1.004096	1.078664	-0.632813	-0.061279	-0.386719	0.167104	0.052615	-0.085770	0.303654	-0.192555	-0.271557	-0.892734	25.299288	-30.578565	-149.451362
37654		5.100260	1.199442	1.482264	-2.679574	-2.163802	-5.595508	-3.177055	-1.512303	1.613052	-0.638184	-0.037109	-0.365479	0.050789	0.012642	0.015010	0.305686	-0.206282	-0.258069	-0.892975	23.184344	-31.748019	-148.882267
37655		16.444793	-3.756496	20.216010	-9.786194	7.246403	13.530432	-1.670036	-2.031725	1.221939	-0.643066	-0.021484	-0.370361	0.162599	-0.034869	0.204117	0.306595	-0.220206	-0.252935	-0.890804	22.155855	-33.190100	-148.694154
37656		7.788790	-11.643903	20.239328	-8.311533	16.347333	6.605165	-1.518592	-0.008931	0.590251	-0.636719	-0.014893	-0.366211	0.078219	-0.114667	0.203272	0.307531	-0.223313	-0.245526	-0.891781	21.080783	-33.319453	-148.320401
37657		2.324105	-16.296855	13.838738	-8.934087	18.191947	-2.620025	-0.237587	-0.308561	0.411487	-0.645996	-0.006104	-0.364502	0.023362	-0.162756	0.138617	0.308727	-0.226335	-0.244723	-0.890826	20.852393	-33.666290	-148.144008
37658		6.620195	-3.190705	11.871163	-3.763709	6.146559	2.144985	0.271526	-0.709200	0.716074	-0.653076	0.002686	-0.360352	0.065895	-0.031832	0.118902	0.311352	-0.229948	-0.246213	-0.888573	20.847281	-34.192111	-147.856178
37659		20.932188	5.370105	9.916780	-8.487622	-7.157006	11.212866	0.031362	0.150770	0.431503	-0.648193	-0.006104	-0.357666	0.209280	0.054137	0.099018	0.313656	-0.230515	-0.245624	-0.887779	20.660988	-34.289613	-147.520014
37660		5.483911	5.062872	5.037777	0.833472	-2.967571	-1.351965	0.252465	0.513740	-0.216190	-0.641602	-0.003662	-0.364502	0.055023	0.050506	0.050300	0.313617	-0.227573	-0.246187	-0.888396	20.813447	-33.970589	-147.533996
37661		5.710271	4.229988	6.641751	0.516407	-1.568245	-0.226929	-0.006062	-0.020236	0.137361	-0.646240	0.000732	-0.364502	0.057067	0.042341	0.066422	0.314335	-0.228661	-0.246095	-0.887888	20.743536	-34.108659	-147.436554
37662		9.251699	-0.057735	8.814174	-4.281601	1.033224	2.182614	0.043690	0.048544	0.035804	-0.653076	0.002686	-0.358154	0.092538	-0.000580	0.088119	0.314604	-0.228423	-0.246172	-0.887833	20.748826	-34.090096	-147.401424
37663		6.089599	1.939566	7.273559	-1.116555	0.198609	-0.196887	0.186118	0.062758	-0.086216	-0.653076	0.004883	-0.366943	0.060927	0.019302	0.072734	0.314657	-0.228560	-0.247049	-0.887535	20.857264	-34.137560	-147.427064
37664		6.564715	3.606330	7.240200	-0.349681	-1.155661	0.534474	0.136455	0.003749	-0.036725	-0.655273	0.004883	-0.364746	0.065655	0.036002	0.072425	0.314655	-0.228286	-0.247690	-0.887427	20.948152	-34.128293	-147.449811
37665		6.145092	4.188095	6.787248	0.228238	-1.613729	0.122745	0.101428	0.039658	-0.033671	-0.648682	0.009521	-0.364990	0.061471	0.041836	0.067882	0.314812	-0.228703	-0.248168	-0.887131	20.993105	-34.196400	-147.447750
37666		5.571168	4.065795	7.037865	0.603651	-1.127875	-0.042138	0.025890	0.065775	0.050301	-0.653320	0.009521	-0.362793	0.055725	0.040663	0.070366	0.315147	-0.228435	-0.248122	-0.887094	20.980378	-34.171847	-147.398819
37667		5.438270	4.554526	7.457631	1.142365	-1.154976	0.350765	-0.022987	0.121864	0.064938	-0.653320	0.011719	-0.362793	0.054413	0.045571	0.074538	0.315680	-0.228776	-0.247825	-0.886899	20.910788	-34.212884	-147.315961
37668		5.178981	4.510826	7.408890	1.279014	-1.050482	0.153337	-0.040167	0.152588	0.095296	-0.651123	0.009521	-0.364990	0.051825	0.045148	0.074040	0.316246	-0.228284	-0.247297	-0.886972	20.831840	-34.151023	-147.216541
37669		5.727024	3.885795	7.313397	0.463990	-0.941708	0.201394	-0.128773	0.231353	0.100799	-0.646729	0.016113	-0.367432	0.057335	0.038934	0.073043	0.316929	-0.228309	-0.246333	-0.886990	20.677795	-34.135756	-147.087275
37670		5.187181	3.048004	8.050769	0.451910	0.270911	0.223964	-0.108456	0.260784	0.091986	-0.646973	0.022949	-0.365479	0.051963	0.030548	0.080423	0.317535	-0.227441	-0.245334	-0.887273	20.546559	-34.014896	-146.964106
37671		5.733478	2.360195	8.307922	-0.322278	0.619184	0.530307	-0.110525	0.243949	0.083556	-0.649414	0.027344	-0.361084	0.057426	0.023672	0.082996	0.318165	-0.227326	-0.244452	-0.887320	20.409513	-33.984884	-146.844898
37672		6.593896	1.812122	7.833087	-1.415635	0.300413	0.484214	-0.083595	0.223926	0.052308	-0.646973	0.022949	-0.365479	0.066022	0.018171	0.078249	0.318576	-0.226534	-0.243665	-0.887592	20.312526	-33.875527	-146.757115
37673		6.299852	2.239005	7.901251	-0.902322	0.168178	0.496946	-0.072125	0.213413	0.022699	-0.638428	0.031738	-0.367920	0.063080	0.022426	0.078937	0.318946	-0.226401	-0.243056	-0.887660	20.222239	-33.846983	-146.683744
37674		6.065194	2.238316	8.338249	-0.641155	0.507332	0.706559	-0.064668	0.185707	0.036321	-0.642578	0.027344	-0.370117	0.060725	0.022421	0.083319	0.319261	-0.225728	-0.242431	-0.887889	20.147361	-33.754856	-146.615928
37675		6.503523	1.832980	8.061988	-1.280863	0.413157	0.619951	-0.045430	0.121516	0.031501	-0.640381	0.029541	-0.365723	0.065081	0.018358	0.080576	0.319592	-0.225953	-0.242065	-0.887812	20.080315	-33.774919	-146.557954
37676		6.297256	2.259169	8.048366	-0.858471	0.199243	0.616061	-0.018284	0.115149	0.003443	-0.638672	0.038574	-0.365967	0.063018	0.022600	0.080445	0.319727	-0.225480	-0.241796	-0.887957	20.053294	-33.714245	-146.528363
37677		5.986656	2.769793	7.926427	-0.320434	-0.076696	0.494179	-0.006792	0.074383	0.000479	-0.633789	0.031982	-0.367920	0.059896	0.027701	0.079241	0.319911	-0.225802	-0.241700	-0.887835	20.024340	-33.751736	-146.500445
37678		6.353869	3.055608	7.650962	-0.453128	-0.602098	0.564102	-0.008177	0.050494	0.001697	-0.633789	0.029785	-0.372314	0.063558	0.030560	0.076492	0.319972	-0.225599	-0.241581	-0.887897	20.012231	-33.725566	-146.487287
37679		6.463407	3.268711	7.420934	-0.431169	-0.927652	0.506417	-0.017479	0.044681	0.009268	-0.631836	0.036377	-0.365967	0.064649	0.032697	0.074192	0.320143	-0.226063	-0.241475	-0.887747	19.978560	-33.778666	-146.461213
37680		5.686702	3.332011	8.031867	0.298767	-0.268545	0.569527	-0.018472	0.054748	0.011759	-0.631836	0.038574	-0.370361	0.056887	0.033331	0.080300	0.320242	-0.225870	-0.241292	-0.887810	19.956367	-33.752225	-146.440549
37681		6.139180	2.945700	7.539307	-0.385632	-0.495209	0.327031	-0.031045	-0.002671	0.025960	-0.634277	0.045166	-0.368408	0.061387	0.029477	0.075389	0.320406	-0.226567	-0.241188	-0.887601	19.916562	-33.831870	-146.415991
37682		5.961776	2.806842	7.629831	-0.331255	-0.269467	0.259706	-0.012904	-0.009336	0.034534	-0.627441	0.040771	-0.372803	0.059609	0.028084	0.076299	0.320535	-0.226677	-0.241106	-0.887549	19.897689	-33.844437	-146.395614
37683		5.893228	2.851822	7.905324	-0.169593	-0.106050	0.449728	-0.013843	-0.017018	0.042933	-0.627686	0.045410	-0.372803	0.058919	0.028536	0.079056	0.320772	-0.227414	-0.241083	-0.887281	19.864090	-33.933226	-146.363879
37684		5.490175	3.025042	8.046700	0.265951	0.041865	0.383871	-0.014582	-0.012559	0.041956	-0.627686	0.049805	-0.375244	0.054890	0.030268	0.080468	0.320928	-0.227551	-0.240991	-0.887214	19.841921	-33.949017	-146.339388
37685		6.500471	2.679028	7.278899	-0.841444	-0.624752	0.252964	-0.036282	-0.032709	0.050011	-0.621094	0.049805	-0.373047	0.064986	0.026820	0.072795	0.321148	-0.228380	-0.240883	-0.886951	19.795348	-34.044910	-146.306984
37686		5.673507	2.919144	7.828918	0.034253	-0.095395	0.286409	-0.034198	0.034571	0.049376	-0.625488	0.049805	-0.377441	0.056741	0.029219	0.078274	0.321371	-0.228349	-0.240620	-0.886949	19.752987	-34.036758	-146.266576
37687		5.497133	3.312829	7.851128	0.442977	-0.269469	0.314734	-0.054132	0.024017	0.056437	-0.627686	0.052002	-0.379639	0.054971	0.033165	0.078496	0.321664	-0.228949	-0.240334	-0.886766	19.686817	-34.101634	-146.217034
37688		5.745336	3.207920	7.763107	0.182937	-0.371850	0.355583	-0.076935	0.052731	0.068792	-0.618896	0.052002	-0.379639	0.057463	0.032129	0.077604	0.321946	-0.228930	-0.239829	-0.886805	19.610463	-34.087408	-146.159735
37689		5.962479	3.098005	7.514176	-0.088855	-0.547128	0.252320	-0.103027	0.060770	0.083423	-0.625732	0.054199	-0.384277	0.059635	0.031044	0.075108	0.322338	-0.229456	-0.239239	-0.886686	19.502731	-34.134933	-146.084990
37690		5.257778	3.023369	8.039238	0.481112	0.115379	0.245620	-0.092385	0.094179	0.077009	-0.623535	0.061035	-0.386719	0.052604	0.030291	0.080354	0.322688	-0.229288	-0.238590	-0.886777	19.409152	-34.099780	-146.012809
37691		5.649034	2.886418	7.906142	0.099452	-0.058579	0.323226	-0.112311	0.065864	0.089881	-0.623779	0.067627	-0.389160	0.056503	0.028934	0.079027	0.323098	-0.229795	-0.237943	-0.886671	19.293845	-34.143179	-145.933348
37692		6.310712	2.290391	7.618850	-0.828527	-0.140334	0.307178	-0.109267	0.085757	0.084654	-0.621582	0.063232	-0.397949	0.063130	0.022972	0.076149	0.323452	-0.229701	-0.237223	-0.886759	19.188929	-34.113857	-145.858234
37693		5.779760	2.456078	7.797193	-0.293922	0.085390	0.194334	-0.087020	0.090565	0.065913	-0.621338	0.058838	-0.397705	0.057825	0.024614	0.077935	0.323812	-0.230015	-0.236673	-0.886693	19.093698	-34.137527	-145.788824
37694		5.858178	2.493146	7.843498	-0.308273	0.037042	0.284742	-0.082085	0.072584	0.061503	-0.619141	0.063232	-0.404541	0.058603	0.024982	0.078403	0.324078	-0.229909	-0.236121	-0.886771	19.014584	-34.110861	-145.731943
37695		6.072837	2.488972	7.879893	-0.437241	-0.046971	0.432977	-0.075254	0.073266	0.053968	-0.621582	0.067627	-0.406982	0.060751	0.024936	0.078767	0.324377	-0.230253	-0.235661	-0.886695	18.932496	-34.139744	-145.674127
37696		5.833284	2.544050	8.077673	-0.183957	0.128235	0.468261	-0.063309	0.075494	0.050128	-0.617188	0.070068	-0.406982	0.058357	0.025481	0.080747	0.324617	-0.230090	-0.235200	-0.886771	18.867989	-34.109317	-145.624120
37697		5.687523	2.735352	8.008603	0.038579	0.021811	0.383676	-0.048240	0.065206	0.045632	-0.621826	0.069824	-0.411377	0.056895	0.027386	0.080061	0.324900	-0.230402	-0.234878	-0.886672	18.805306	-34.139265	-145.573455
37698		5.834553	2.720363	8.067333	-0.055608	-0.012881	0.508212	-0.058719	0.058129	0.055176	-0.617188	0.067871	-0.411377	0.058361	0.027243	0.080648	0.325147	-0.230315	-0.234460	-0.886715	18.743772	-34.119152	-145.524077
37699		5.582505	2.724996	8.039265	0.122922	0.081450	0.345954	-0.042169	0.058031	0.059227	-0.626465	0.074219	-0.413818	0.055840	0.027283	0.080371	0.325486	-0.230650	-0.234158	-0.886583	18.680691	-34.153474	-145.466273
37700		5.642707	2.813484	8.203626	0.187081	0.078207	0.532079	-0.045967	0.038484	0.059601	-0.622070	0.076660	-0.422852	0.056434	0.028171	0.082019	0.325744	-0.230635	-0.233824	-0.886580	18.627272	-34.144804	-145.418373
37701		6.072820	2.504600	7.842870	-0.398035	-0.120795	0.409336	-0.039227	0.022746	0.070338	-0.626465	0.074219	-0.422607	0.060728	0.025083	0.078417	0.326092	-0.231117	-0.233577	-0.886392	18.566384	-34.198115	-145.361249
37702		6.126510	2.561336	7.882778	-0.380505	-0.167522	0.485852	-0.029624	0.011520	0.071628	-0.624023	0.074463	-0.422607	0.061260	0.025647	0.078820	0.326391	-0.231209	-0.233345	-0.886319	18.521174	-34.206259	-145.311370
37703		5.997235	2.532281	7.869981	-0.302009	-0.093995	0.395928	-0.021786	-0.011152	0.072677	-0.626465	0.078857	-0.427246	0.059959	0.025353	0.078700	0.326729	-0.231807	-0.233226	-0.886070	18.473543	-34.277184	-145.260090
37704		5.939944	2.660227	7.839581	-0.175734	-0.173018	0.373478	-0.024330	-0.031819	0.081094	-0.628662	0.078857	-0.427246	0.059376	0.026636	0.078402	0.327025	-0.232093	-0.233077	-0.885925	18.433101	-34.310586	-145.213418
37705		6.504395	2.489994	7.622483	-0.714030	-0.443876	0.478212	-0.030122	-0.051798	0.100962	-0.630859	0.074219	-0.433838	0.065012	0.024944	0.076238	0.327428	-0.232907	-0.232954	-0.885595	18.375204	-34.407374	-145.152400
37706		5.406555	2.874335	8.125732	0.435504	0.096784	0.352013	-0.023172	-0.044796	0.099914	-0.644531	0.078613	-0.431641	0.054033	0.028780	0.081266	0.327794	-0.233271	-0.232809	-0.885401	18.329830	-34.451211	-145.096003
37707		5.722348	2.842664	8.090098	0.210966	-0.046488	0.494058	-0.020863	-0.090818	0.119957	-0.637939	0.083008	-0.438477	0.057170	0.028469	0.080924	0.328244	-0.234253	-0.232767	-0.884986	18.275012	-34.571243	-145.030967
37708		5.820951	2.738365	8.058356	0.080083	-0.037902	0.498052	-0.018300	-0.112753	0.140664	-0.640137	0.080811	-0.438477	0.058145	0.027432	0.080614	0.328716	-0.234958	-0.232707	-0.884640	18.225253	-34.659337	-144.962212
37709		5.776137	2.562479	8.098499	0.024636	0.132730	0.458510	-0.000479	-0.133733	0.157348	-0.644531	0.080811	-0.440674	0.057687	0.025670	0.081024	0.329302	-0.236125	-0.232781	-0.884092	18.173272	-34.807615	-144.881669
37710		5.366287	2.859076	8.456237	0.619061	0.336283	0.578797	0.022335	-0.159553	0.171230	-0.642578	0.085205	-0.436523	0.053571	0.028627	0.084608	0.329902	-0.237005	-0.232941	-0.883590	18.140543	-34.926603	-144.802423
37711		5.969730	2.815024	8.063930	0.110834	-0.127442	0.606545	0.048931	-0.216247	0.228414	-0.653809	0.087402	-0.438721	0.059578	0.028199	0.080711	0.330762	-0.238520	-0.233280	-0.882771	18.099555	-35.130331	-144.692106
37712		5.746713	3.195157	8.355283	0.632810	-0.098186	0.800243	-0.007817	-0.278449	0.244865	-0.653809	0.087402	-0.436523	0.057312	0.032025	0.083631	0.331511	-0.240061	-0.233415	-0.882037	18.035391	-35.327113	-144.589034
37713		5.968200	3.161265	8.412032	0.524992	-0.128450	0.961494	-0.032618	-0.364793	0.284572	-0.660400	0.080566	-0.434082	0.059483	0.031711	0.084224	0.332340	-0.242415	-0.233571	-0.881039	17.943895	-35.619783	-144.472828
37714		5.835974	2.704654	8.356345	0.326877	0.226453	0.725048	-0.055356	-0.426990	0.303949	-0.669434	0.084961	-0.436523	0.058140	0.027158	0.083680	0.333115	-0.244755	-0.233669	-0.880073	17.846503	-35.907751	-144.360858
37715		6.056428	2.198261	8.371526	-0.107717	0.494759	0.739014	-0.055190	-0.501481	0.327427	-0.667480	0.095947	-0.425781	0.060318	0.022105	0.083861	0.333937	-0.247779	-0.233896	-0.878854	17.740711	-36.280313	-144.243626
37716		5.414227	2.377254	9.108538	0.705165	1.135270	0.964329	0.034523	-0.636712	0.346089	-0.674316	0.095947	-0.423584	0.053811	0.023850	0.091261	0.334757	-0.250936	-0.234682	-0.877436	17.702449	-36.689860	-144.146417
37717		5.189735	1.651949	9.448028	0.513621	1.970566	0.900847	0.002792	-0.824163	0.333501	-0.680908	0.091309	-0.418945	0.051480	0.016604	0.094693	0.335292	-0.255262	-0.235681	-0.875714	17.666175	-37.237202	-144.092323
37718		5.258753	2.036874	9.564547	0.860898	1.815359	1.107294	0.078952	-1.047901	0.338488	-0.690186	0.100098	-0.412598	0.052051	0.020419	0.095927	0.335637	-0.260127	-0.237349	-0.873697	17.709107	-37.869879	-144.088945
37719		4.866994	1.899367	9.903516	1.220145	2.377336	1.060791	0.127053	-1.287477	0.333495	-0.694824	0.102295	-0.408203	0.047999	0.019011	0.099358	0.335772	-0.266226	-0.239637	-0.871180	17.805164	-38.666657	-144.135873
37720		5.406278	1.843647	9.468836	0.823395	2.018878	1.028404	0.207053	-1.561227	0.355461	-0.703369	0.095459	-0.390381	0.053289	0.018433	0.095125	0.335717	-0.273111	-0.242680	-0.868223	17.989236	-39.582251	-144.239971
37721		5.519730	1.728659	9.396422	0.785261	2.136829	0.983710	0.286271	-1.818543	0.385397	-0.719482	0.101807	-0.372803	0.054306	0.017257	0.094485	0.335616	-0.281247	-0.246433	-0.864600	18.236846	-40.673350	-144.379015
37722		5.335320	2.570311	9.842728	1.800511	2.105402	1.335032	0.338107	-2.111731	0.434044	-0.726074	0.099609	-0.359375	0.052254	0.025650	0.099026	0.335348	-0.290341	-0.250814	-0.860428	18.558146	-41.901745	-144.572734
37723		5.013324	3.261222	9.940461	2.713880	2.045793	1.278947	0.325827	-2.418748	0.534915	-0.741699	0.099365	-0.348389	0.048839	0.032581	0.100054	0.335127	-0.301083	-0.255455	-0.855442	18.872753	-43.340916	-144.770266
37724		5.449891	3.910429	9.626469	3.035731	1.452506	1.426829	0.293481	-2.786919	0.702014	-0.750977	0.103516	-0.317383	0.053013	0.039150	0.097068	0.334979	-0.313391	-0.260297	-0.849600	19.176573	-44.983450	-144.965345
37725		4.799300	4.109984	10.129003	4.001153	2.150896	1.226930	0.293211	-3.202745	0.912202	-0.760254	0.112305	-0.293457	0.046175	0.041164	0.102100	0.335160	-0.327838	-0.265416	-0.842463	19.448139	-46.911240	-145.116052
37726		4.555572	4.553793	10.354667	4.853209	2.377655	1.118162	0.327836	-3.728673	1.193866	-0.771729	0.118652	-0.260254	0.043342	0.045630	0.104443	0.335715	-0.344530	-0.271037	-0.833746	19.714932	-49.155188	-145.222560
37727		5.329245	4.699039	10.405842	4.937576	2.337954	1.540278	0.316348	-4.319606	1.527723	-0.783203	0.129639	-0.223145	0.050668	0.047218	0.105246	0.336742	-0.364115	-0.276875	-0.823022	19.901292	-51.796535	-145.233518
37728		5.370208	5.662208	11.767063	6.659357	3.034948	2.260497	0.239269	-4.814407	1.797973	-0.790283	0.142578	-0.172607	0.050337	0.056943	0.118977	0.337801	-0.385905	-0.282600	-0.810620	20.001423	-54.742844	-145.187732
37729		4.624528	4.770081	10.569372	6.308613	3.325787	0.431681	-0.021235	-5.515023	2.089316	-0.806885	0.166748	-0.126709	0.042807	0.048171	0.106901	0.338335	-0.411136	-0.287643	-0.796089	19.906230	-58.129311	-145.090319
37730		7.534081	3.518097	8.855194	3.831476	2.309579	1.478532	-0.043052	-5.830197	2.220472	-0.807373	0.179932	-0.078613	0.072321	0.036015	0.090682	0.338537	-0.437420	-0.292629	-0.780016	19.771865	-61.705188	-144.963949
37731		8.507286	3.522991	8.684171	3.982354	2.311903	1.974692	-0.174109	-5.923799	2.292707	-0.810059	0.195313	-0.025879	0.082041	0.036259	0.089271	0.338303	-0.463951	-0.296782	-0.763034	19.462280	-65.343591	-144.730270
37732		11.116413	1.350491	8.988222	2.201815	3.628270	3.902678	-0.458676	-5.650508	2.182145	-0.808350	0.208496	0.026855	0.108409	0.014909	0.092938	0.337024	-0.489319	-0.299390	-0.746557	18.922779	-68.814079	-144.430394
37733		12.623084	-0.806613	5.986296	-0.858892	2.701413	3.889127	-0.169053	-5.490335	1.902431	-0.802246	0.226318	0.072998	0.124593	-0.006823	0.063305	0.335406	-0.512703	-0.303191	-0.729873	18.762393	-72.138255	-144.362420
37734		15.286413	2.108006	5.361698	1.159089	0.505682	6.472261	0.326329	-5.188002	1.801164	-0.789063	0.239746	0.114502	0.151207	0.022355	0.057590	0.334824	-0.533636	-0.308348	-0.712774	18.887588	-75.286646	-144.298345
37735		15.423942	3.291456	3.152520	1.527643	-1.483223	6.127467	0.413308	-4.406627	1.632665	-0.787354	0.250732	0.147461	0.153219	0.034098	0.034978	0.334926	-0.550974	-0.312714	-0.697468	18.796764	-77.972118	-143.959935
37736		16.201970	5.570803	2.392072	3.433322	-3.095180	6.856088	0.213896	-3.931946	1.658068	-0.776367	0.261719	0.178223	0.161038	0.057018	0.027154	0.335073	-0.566807	-0.315404	-0.683357	17.909525	-80.411464	-142.932431
37737		16.219247	2.359047	2.895815	1.649010	-0.507019	6.740598	-0.026053	-3.072191	1.551585	-0.770264	0.277344	0.208496	0.161533	0.024849	0.031440	0.335441	-0.579666	-0.315997	-0.672022	15.605640	-82.346773	-140.616430
37738		13.795017	2.074635	10.401274	6.317088	6.164313	5.183255	0.301184	-1.700756	1.379092	-0.765869	0.284180	0.212891	0.136912	0.021535	0.105212	0.338239	-0.587032	-0.315843	-0.664252	11.423837	-83.481560	-136.229099
37739		10.938786	1.474860	15.678877	9.200094	11.088725	2.838707	0.810867	0.162612	1.473461	-0.771240	0.303955	0.203125	0.109406	0.014919	0.156760	0.345798	-0.587344	-0.313903	-0.660996	4.439517	-83.492972	-128.729950
37740		2.732935	6.512204	12.662425	12.247387	6.510633	-5.590433	0.887444	1.234646	1.849615	-0.762451	0.310791	0.194092	0.027511	0.064814	0.126743	0.356430	-0.584603	-0.309245	-0.659974	-3.907208	-82.790023	-119.811647
37741		-0.397654	5.883959	10.386909	10.624465	5.384237	-8.920034	0.636926	1.727956	2.114299	-0.758545	0.330811	0.177979	-0.003697	0.058468	0.104088	0.367974	-0.580784	-0.302026	-0.660353	-11.290620	-81.618572	-111.986577
37742		0.337292	5.322019	9.458039	9.571306	4.879401	-8.240119	0.617859	1.977281	2.146645	-0.752197	0.342041	0.155273	0.003739	0.052967	0.094709	0.379800	-0.576308	-0.294160	-0.661129	-16.700810	-80.221370	-106.150082
37743		1.256490	5.983181	9.088312	9.848099	4.098331	-7.324304	0.810216	2.381492	1.814717	-0.746338	0.360107	0.132568	0.013106	0.059581	0.090971	0.391658	-0.569214	-0.287031	-0.663485	-19.144873	-78.569604	-103.183231
37744		0.725881	8.395519	8.555211	11.596505	2.521886	-7.978925	0.846489	2.737051	1.350268	-0.746338	0.362305	0.105713	0.007866	0.083644	0.085802	0.402425	-0.560356	-0.280600	-0.667322	-19.626390	-76.834592	-102.194411
37745		-0.317916	9.336414	7.872458	12.066575	1.751469	-9.055722	0.621953	2.927776	0.884216	-0.744385	0.373535	0.083252	-0.002436	0.093107	0.079054	0.411227	-0.550141	-0.274273	-0.673062	-18.823950	-75.046188	-102.642289
37746		-0.723549	8.271760	7.310900	10.875658	1.966166	-9.316867	0.404330	2.960484	0.367125	-0.742188	0.373535	0.052246	-0.006302	0.082557	0.073374	0.417588	-0.539800	-0.268505	-0.679810	-17.437498	-73.369745	-103.842548
37747		-0.426829	6.397607	7.004506	9.074832	2.580648	-8.736495	0.406434	2.913151	-0.220596	-0.735352	0.369385	0.030029	-0.003176	0.063837	0.070226	0.421817	-0.528245	-0.264399	-0.687838	-15.171637	-71.759273	-105.957744
37748		0.153077	5.420505	6.888641	8.093254	2.780915	-7.910219	0.601915	2.831047	-0.842689	-0.737305	0.358154	0.014893	0.002735	0.053988	0.069016	0.424203	-0.516077	-0.262693	-0.696210	-12.343556	-70.299332	-108.583607
37749		1.358588	5.553208	6.962357	8.041676	2.347065	-6.499916	0.769970	2.782072	-1.393849	-0.736816	0.347168	-0.017822	0.014940	0.055163	0.069635	0.424935	-0.502345	-0.263074	-0.705601	-8.867267	-68.826076	-111.803744
37750		2.896582	5.162150	7.184467	7.479251	2.141922	-4.702008	0.822870	2.810278	-1.817782	-0.736328	0.333984	-0.046143	0.030439	0.051054	0.071635	0.424222	-0.488228	-0.264532	-0.715326	-5.332949	-67.357583	-115.104866
37751		4.860910	4.288804	7.672864	6.417296	2.183698	-2.401006	0.891141	2.947441	-2.156589	-0.735352	0.305176	-0.065186	0.050191	0.042012	0.076185	0.422480	-0.472279	-0.266728	-0.726167	-1.625157	-65.683125	-118.569728
37752		6.311207	3.392032	8.162928	5.277326	2.369679	-0.620927	1.001225	3.177070	-2.419817	-0.730469	0.289795	-0.095703	0.064801	0.032737	0.080775	0.420207	-0.455313	-0.269309	-0.737285	1.881381	-63.860200	-121.811505
37753		7.063007	2.713343	8.359665	4.203770	2.426429	0.363384	1.148037	3.422979	-2.562951	-0.729736	0.267578	-0.119141	0.072384	0.025738	0.082518	0.417830	-0.436092	-0.272156	-0.749115	5.250281	-61.738528	-124.837304
37754		7.672183	2.787847	8.642606	3.775592	2.199132	1.242305	1.256642	3.607365	-2.585412	-0.712891	0.241211	-0.147217	0.078613	0.026332	0.085188	0.415685	-0.416332	-0.274891	-0.760466	8.154814	-59.513550	-127.343712
37755		8.283471	2.912024	8.791835	3.245059	1.797694	2.044884	1.236967	3.738691	-2.506529	-0.721436	0.223389	-0.170898	0.084813	0.027527	0.086519	0.413691	-0.395322	-0.276993	-0.771917	10.663807	-57.086327	-129.436087
37756		9.029356	2.759633	9.176815	2.476240	1.620190	3.015818	1.169813	3.828289	-2.397541	-0.709473	0.201416	-0.201172	0.092348	0.025967	0.090169	0.411940	-0.374709	-0.278253	-0.782607	12.664308	-54.661299	-131.042810
37757		9.628106	2.642562	9.584363	1.716385	1.445107	3.842869	1.098794	3.915059	-2.331349	-0.701904	0.181641	-0.227051	0.098429	0.024766	0.094070	0.410132	-0.353089	-0.278795	-0.793343	14.392081	-52.085310	-132.386163
37758		10.081797	2.728300	10.020908	1.158706	1.217211	4.562361	1.029727	3.970115	-2.308812	-0.692383	0.161865	-0.248535	0.103084	0.025592	0.098312	0.408213	-0.331923	-0.278737	-0.803427	15.821209	-49.545302	-133.468642
37759		10.486942	2.877019	10.317635	0.562131	0.831982	5.142486	0.935399	3.974036	-2.337398	-0.687012	0.137695	-0.274170	0.107216	0.027050	0.101191	0.405713	-0.309996	-0.278186	-0.813580	17.117282	-46.898141	-134.461104
37760		11.417168	2.672567	10.618507	-0.608587	0.359479	5.989263	0.865570	3.919391	-2.444234	-0.681885	0.119873	-0.300293	0.116536	0.024858	0.104027	0.402453	-0.288820	-0.277468	-0.823181	18.278600	-44.333794	-135.392070
37761		13.218304	3.165666	10.563574	-1.846254	-1.198281	7.258788	0.814451	3.832055	-2.590282	-0.667480	0.095703	-0.325928	0.134567	0.029500	0.103196	0.398078	-0.267035	-0.276758	-0.832846	19.429317	-41.693038	-136.366647
37762		15.100353	3.499893	10.087667	-3.444958	-3.017763	8.103582	0.707132	3.787178	-2.740244	-0.653076	0.071533	-0.353760	0.153336	0.032558	0.098106	0.392742	-0.245998	-0.275745	-0.842142	20.460534	-39.118344	-137.332427
37763		15.391739	3.382573	8.927678	-4.711600	-4.217633	7.157948	0.545686	3.711369	-2.870544	-0.647705	0.042969	-0.381592	0.156002	0.031358	0.086482	0.386228	-0.224610	-0.274186	-0.851587	21.403665	-36.466055	-138.332450
37764		14.372179	-3.031665	7.259951	-10.027148	-1.440895	3.063536	0.362903	3.441846	-2.955879	-0.628906	0.020996	-0.400879	0.144472	-0.032577	0.070060	0.378671	-0.205150	-0.272333	-0.860440	22.204743	-34.006532	-139.360522
37765		13.004297	-8.832471	6.069938	-14.212690	1.778916	-0.937543	0.977817	2.692613	-3.137569	-0.625732	-0.010010	-0.413086	0.129431	-0.090648	0.058515	0.369658	-0.186812	-0.274559	-0.867797	23.469114	-31.817507	-140.631028
37766		15.687184	-4.496885	3.594358	-13.410584	-3.602660	-0.519109	1.795141	1.901568	-2.957633	-0.620117	-0.038818	-0.431885	0.156511	-0.047596	0.034035	0.361042	-0.171151	-0.281541	-0.872405	25.155243	-30.127334	-141.908767
37767		18.595970	2.796835	0.783136	-10.756428	-11.007262	1.020857	1.532071	1.059671	-2.365995	-0.608154	-0.058594	-0.431152	0.186311	0.025710	0.007048	0.353428	-0.159952	-0.288221	-0.875462	26.579433	-28.933471	-143.006187
37768		19.990072	1.095821	-4.188426	-13.600519	-13.702181	-3.058589	0.394550	0.294497	-1.271418	-0.612305	-0.067627	-0.422119	0.199903	0.009770	-0.042159	0.348596	-0.156133	-0.290437	-0.877354	27.119294	-28.454285	-143.660078
37769		23.995128	-2.438893	-4.822358	-19.121551	-13.969736	-3.166001	-0.124994	-0.238964	-0.827493	-0.607666	-0.076416	-0.428223	0.239905	-0.025412	-0.047921	0.344456	-0.155890	-0.290920	-0.878871	27.316341	-28.322469	-144.213850
37770		26.333707	-3.133807	-6.348592	-21.515696	-15.539916	-3.553959	-0.044796	-0.334717	-0.707146	-0.605469	-0.074219	-0.426270	0.263330	-0.032283	-0.063038	0.340825	-0.156411	-0.291848	-0.879885	27.531798	-28.306403	-144.722539
37771		26.426453	-1.000087	-8.498971	-20.394529	-18.044582	-4.331472	-0.020825	-0.254369	-0.609707	-0.603027	-0.080811	-0.421631	0.264340	-0.010815	-0.084652	0.337711	-0.156593	-0.292690	-0.880774	27.729410	-28.264026	-145.155879
37772		25.549411	-1.939561	-9.783502	-20.604754	-17.729641	-6.158387	-0.205827	-0.028573	-0.401663	-0.607422	-0.083252	-0.419189	0.255468	-0.020009	-0.097778	0.335739	-0.156481	-0.292145	-0.881728	27.724663	-28.171743	-145.395564
37773		23.950138	-1.392303	-10.327233	-19.187589	-17.520324	-7.153158	-0.552971	0.064935	-0.204621	-0.607666	-0.076416	-0.435059	0.239453	-0.014454	-0.103311	0.334460	-0.156971	-0.289858	-0.882881	27.464270	-28.103477	-145.503762
37774		20.874539	3.421400	-11.892361	-13.893607	-19.807254	-7.936850	-1.958953	-0.181199	0.347439	-0.608154	-0.058594	-0.426758	0.208795	0.033411	-0.119064	0.334178	-0.161545	-0.281226	-0.884952	26.271627	-28.286380	-145.355380
37775		3.342344	-3.739141	-6.422029	-5.684351	-3.191723	-14.700600	-2.997369	-0.792858	1.400265	-0.611328	-0.034424	-0.423096	0.033941	-0.038110	-0.063519	0.336726	-0.172351	-0.268309	-0.885958	24.280034	-29.083602	-144.766850
37776		8.026940	-4.727352	16.980596	-6.649013	9.032329	5.976841	-1.253146	-2.067319	0.726157	-0.618164	-0.027832	-0.410156	0.078675	-0.045917	0.170915	0.336064	-0.184583	-0.265591	-0.884563	23.619216	-30.335384	-144.882526
37777		4.830109	5.307964	21.797574	3.638796	7.136031	11.692375	-1.224469	-0.586631	-0.062448	-0.618652	-0.014404	-0.408447	0.047679	0.054398	0.217786	0.333840	-0.189518	-0.261362	-0.885620	23.024905	-30.676370	-145.086630
37778		-1.180424	-8.096433	13.059147	-2.582903	13.453495	-2.754596	-1.139265	-0.676094	0.616916	-0.621582	0.003174	-0.406738	-0.011998	-0.080256	0.131010	0.334601	-0.195219	-0.256854	-0.885414	22.265897	-31.170437	-144.880097
37779		3.812065	-12.329687	11.062282	-9.231296	12.567671	-3.047883	-0.269021	-1.514945	0.846029	-0.633057	0.009766	-0.393799	0.037801	-0.122987	0.111076	0.336139	-0.203772	-0.257434	-0.882732	22.036263	-32.196182	-144.739415
37780		12.906838	-3.766352	11.687964	-9.292168	3.086226	5.070446	0.293721	-1.286385	0.621726	-0.637451	0.005371	-0.391357	0.128430	-0.037436	0.117652	0.337518	-0.209756	-0.260252	-0.879973	22.170652	-33.013628	-144.676714
37781		20.706681	7.418592	11.582973	-6.630372	-7.779712	12.847403	0.257628	-0.434488	0.460487	-0.644287	0.009521	-0.385010	0.206643	0.074512	0.116375	0.339333	-0.212179	-0.261626	-0.878285	22.205308	-33.385137	-144.486683
37782		8.656612	6.014801	5.349165	-0.593765	-4.794146	0.975816	0.022905	0.440799	0.097588	-0.639648	0.007324	-0.389160	0.086654	0.060184	0.053308	0.340363	-0.210337	-0.260874	-0.878554	22.121694	-33.172933	-144.310626
37783		6.410060	4.814042	4.788469	-0.013088	-3.293201	-1.074958	-0.141135	-0.083057	0.196674	-0.639893	0.014160	-0.382813	0.064033	0.048237	0.047877	0.341036	-0.211591	-0.260213	-0.878187	21.973075	-33.306479	-144.200480
37784		9.782713	2.076930	8.379102	-3.511118	-1.060459	2.708167	-0.205731	-0.159147	0.210413	-0.642090	0.014160	-0.389404	0.097738	0.020958	0.083847	0.341536	-0.212920	-0.259358	-0.877924	21.803675	-33.436715	-144.107070
37785		7.049273	0.735665	7.828820	-2.697515	0.788843	0.366949	-0.005759	0.098482	0.039838	-0.640381	0.025146	-0.381104	0.070530	0.007373	0.078253	0.341894	-0.212955	-0.259157	-0.877836	21.762436	-33.441670	-144.050940
37786		5.957094	3.208785	7.449347	-0.277728	-0.471125	0.236041	0.031955	-0.002500	0.053988	-0.640137	0.020752	-0.380859	0.059561	0.032092	0.074499	0.342163	-0.212988	-0.259244	-0.877698	21.761868	-33.455233	-144.016972
37787		6.062406	3.310840	7.418078	-0.272261	-0.602898	0.301891	-0.008626	0.013360	0.040923	-0.642334	0.020752	-0.383057	0.060622	0.033124	0.074175	0.342416	-0.213405	-0.259168	-0.877520	21.729468	-33.505822	-143.980902
37788		5.089836	3.218135	8.206397	0.475449	0.404069	0.346961	-0.003954	0.013548	0.051452	-0.635986	0.031982	-0.381348	0.050896	0.032196	0.082060	0.342657	-0.213426	-0.259073	-0.877449	21.706901	-33.510368	-143.944426
37789		5.261577	3.555681	7.776691	0.525555	-0.150506	0.212536	-0.010240	0.025321	0.061972	-0.640625	0.031738	-0.383545	0.052615	0.035577	0.077758	0.343013	-0.213813	-0.258947	-0.877253	21.664736	-33.558008	-143.892079
37790		5.391428	3.947725	7.322320	0.633442	-0.740179	0.052366	-0.061197	0.028612	0.113175	-0.636230	0.034180	-0.383545	0.053902	0.039530	0.073203	0.343483	-0.213947	-0.258509	-0.877165	21.585386	-33.567597	-143.812291
37791		5.683580	3.190619	7.488202	-0.053050	-0.313873	0.109759	-0.101481	0.046653	0.149226	-0.643066	0.040771	-0.379395	0.056829	0.031987	0.074853	0.344146	-0.214499	-0.257856	-0.876963	21.457877	-33.620927	-143.699447
37792		5.940785	2.746370	7.935135	-0.444096	0.092915	0.463302	-0.114547	0.073337	0.122951	-0.631836	0.036377	-0.379150	0.059420	0.027546	0.079314	0.344659	-0.214541	-0.257096	-0.876974	21.338150	-33.608519	-143.602067
37793		6.129094	2.401134	7.750927	-0.840608	0.095982	0.321032	-0.072142	0.089907	0.083648	-0.640869	0.042969	-0.379395	0.061316	0.024065	0.077473	0.345120	-0.214763	-0.256567	-0.876894	21.244618	-33.624085	-143.520357
37794		6.218166	2.713987	7.711803	-0.682340	-0.181750	0.434487	-0.058466	0.098357	0.061807	-0.632324	0.049805	-0.386230	0.062211	0.027182	0.077079	0.345456	-0.214521	-0.256074	-0.876965	21.175312	-33.585453	-143.456015
37795		5.988063	2.463469	8.039814	-0.634905	0.277834	0.487015	-0.047140	0.092104	0.045873	-0.636719	0.051758	-0.382080	0.059912	0.024667	0.080365	0.345781	-0.214640	-0.255688	-0.876920	21.108893	-33.591593	-143.397770
37796		6.484350	2.516492	7.861504	-0.964780	-0.118356	0.639009	-0.041655	0.065909	0.029714	-0.636719	0.047363	-0.379639	0.064866	0.025191	0.078588	0.345953	-0.214471	-0.255360	-0.876989	21.065124	-33.563657	-143.362158
37797		6.301572	3.011843	7.776140	-0.498566	-0.395843	0.620150	-0.032290	0.085173	0.020026	-0.636719	0.051758	-0.379639	0.063046	0.030137	0.077730	0.346174	-0.214560	-0.255075	-0.876963	21.016912	-33.567812	-143.321874
37798		5.628496	3.236239	8.061288	0.167273	-0.041988	0.536603	-0.050497	0.085127	0.027353	-0.630127	0.052002	-0.377441	0.056315	0.032390	0.080581	0.346350	-0.214320	-0.254678	-0.877068	20.966334	-33.529143	-143.283102
37799		6.252056	3.124415	7.721834	-0.389234	-0.491010	0.583672	-0.069744	0.059597	0.041658	-0.627930	0.052002	-0.384277	0.062537	0.031284	0.077189	0.346591	-0.214608	-0.254250	-0.877026	20.892752	-33.550744	-143.235498
37800		6.403896	3.178972	7.594737	-0.474343	-0.687413	0.584342	-0.078426	0.066871	0.042494	-0.623535	0.061035	-0.386719	0.064058	0.031833	0.075913	0.346780	-0.214516	-0.253745	-0.877120	20.823318	-33.524942	-143.191570
37801		6.410082	3.214639	7.572078	-0.447589	-0.734680	0.580547	-0.083462	0.073699	0.046154	-0.623535	0.058838	-0.391113	0.064121	0.032193	0.075684	0.347041	-0.214770	-0.253230	-0.877104	20.738782	-33.539634	-143.138050
37802		6.029295	3.075077	7.716896	-0.260905	-0.382341	0.441322	-0.096373	0.057163	0.055531	-0.625977	0.063232	-0.391357	0.060306	0.030805	0.077137	0.347256	-0.214769	-0.252649	-0.877186	20.655776	-33.521653	-143.088178
37803		6.804400	2.402548	7.275167	-1.336152	-0.615941	0.328094	-0.101602	0.042843	0.076069	-0.625977	0.063232	-0.384521	0.068050	0.024088	0.072725	0.347586	-0.215225	-0.252078	-0.877108	20.554744	-33.558558	-143.023311
37804		5.851798	2.945644	7.950840	-0.169913	-0.093150	0.487733	-0.080044	0.070310	0.056211	-0.619385	0.065430	-0.386963	0.058538	0.029505	0.079476	0.347838	-0.215139	-0.251545	-0.877183	20.479107	-33.533608	-142.969882
37805		5.920786	2.931225	7.855115	-0.233634	-0.183298	0.447061	-0.094363	0.045898	0.072636	-0.619385	0.069824	-0.391357	0.059215	0.029371	0.078524	0.348164	-0.215565	-0.251003	-0.877104	20.382928	-33.567992	-142.906441
37806		5.903153	2.915887	7.808587	-0.236336	-0.203398	0.396446	-0.091285	0.050092	0.063096	-0.612793	0.072266	-0.391602	0.059042	0.029213	0.078058	0.348407	-0.215596	-0.250448	-0.877158	20.301085	-33.555218	-142.853476
37807		6.055835	2.776979	7.594060	-0.468806	-0.327086	0.273328	-0.100712	0.053230	0.066731	-0.612793	0.070068	-0.393799	0.060569	0.027828	0.075910	0.348708	-0.215989	-0.249872	-0.877106	20.202497	-33.583807	-142.792193
37808		5.362585	3.163562	8.043031	0.366174	0.029924	0.351997	-0.090679	0.076012	0.064152	-0.610596	0.076660	-0.396240	0.053646	0.031689	0.080396	0.348989	-0.215908	-0.249273	-0.877185	20.117229	-33.557240	-142.732437
37809		5.824490	3.163691	7.645370	-0.009672	-0.446815	0.295999	-0.110117	0.062421	0.075137	-0.617432	0.076660	-0.402832	0.058257	0.031701	0.076418	0.349325	-0.216282	-0.248631	-0.877141	20.009251	-33.581705	-142.663743
37810		6.047833	2.780870	7.474692	-0.462607	-0.432675	0.176271	-0.122414	0.092364	0.078496	-0.610840	0.076660	-0.405029	0.060502	0.027878	0.074702	0.349655	-0.216203	-0.247848	-0.877251	19.898606	-33.549036	-142.590985
37811		5.740809	3.094890	7.734087	0.031688	-0.336718	0.298540	-0.110747	0.099100	0.075154	-0.613037	0.081055	-0.414063	0.057435	0.031013	0.077295	0.350033	-0.216413	-0.247140	-0.877248	19.785878	-33.553177	-142.514078
37812		5.742175	2.841448	7.826701	-0.128024	-0.139686	0.300063	-0.125243	0.102746	0.088903	-0.610840	0.081055	-0.409668	0.057449	0.028489	0.078220	0.350417	-0.216307	-0.246315	-0.877353	19.668679	-33.516760	-142.432348
37813		6.036217	2.570223	7.775395	-0.516729	-0.161298	0.346332	-0.120332	0.095499	0.083733	-0.615479	0.081055	-0.416260	0.060389	0.025774	0.077710	0.350815	-0.216556	-0.245562	-0.877343	19.548207	-33.523650	-142.351108
37814		5.711331	2.472040	7.964502	-0.329571	0.160671	0.288259	-0.096521	0.096200	0.070800	-0.613281	0.083252	-0.416260	0.057143	0.024779	0.079606	0.351143	-0.216405	-0.244894	-0.877436	19.454896	-33.487115	-142.282794
37815		5.921949	2.434832	7.909515	-0.497160	0.034028	0.351464	-0.086461	0.082541	0.063428	-0.606689	0.087891	-0.420898	0.059244	0.024401	0.079060	0.351472	-0.216624	-0.244332	-0.877407	19.362616	-33.496484	-142.217634
37816		6.023143	2.309019	7.960757	-0.641704	0.079420	0.413033	-0.067280	0.081064	0.050103	-0.608887	0.085693	-0.427490	0.060258	0.023132	0.079575	0.351721	-0.216464	-0.243841	-0.877484	19.295452	-33.464113	-142.166318
37817		5.812914	2.484416	8.049810	-0.350594	0.120100	0.415919	-0.047549	0.077022	0.038978	-0.611328	0.090088	-0.425537	0.058155	0.024875	0.080470	0.351980	-0.216605	-0.243483	-0.877444	19.234630	-33.471373	-142.118061
37818		6.114349	2.362021	7.823924	-0.684099	-0.096166	0.370679	-0.046366	0.050005	0.026650	-0.606445	0.085693	-0.427490	0.061160	0.023646	0.078218	0.352110	-0.216517	-0.243164	-0.877502	19.191753	-33.451374	-142.089053
37819		6.072605	2.462416	7.832677	-0.575261	-0.137110	0.382464	-0.034613	0.052983	0.021153	-0.615479	0.085693	-0.438721	0.060744	0.024644	0.078306	0.352276	-0.216717	-0.242922	-0.877453	19.147516	-33.467893	-142.057628
37820		5.985484	2.722572	7.844477	-0.326811	-0.256491	0.414807	-0.029404	0.040623	0.026856	-0.615479	0.083496	-0.438477	0.059867	0.027245	0.078429	0.352414	-0.216641	-0.242694	-0.877480	19.115450	-33.453052	-142.030620
37821		5.707366	2.979289	7.900812	0.060727	-0.246090	0.375971	-0.024629	0.043198	0.028761	-0.608887	0.090088	-0.445313	0.057086	0.029811	0.078992	0.352612	-0.216874	-0.242504	-0.877395	19.075437	-33.476003	-141.996475
37822		6.144500	2.732037	7.630762	-0.459830	-0.475147	0.336708	-0.035260	0.019047	0.050729	-0.615723	0.092285	-0.447754	0.061445	0.027349	0.076297	0.352823	-0.216932	-0.242263	-0.877363	19.034122	-33.477358	-141.958811
37823		6.085339	2.567056	7.796955	-0.495767	-0.246559	0.390599	-0.033110	0.038726	0.058143	-0.620117	0.090088	-0.445313	0.060861	0.025701	0.077954	0.353132	-0.217232	-0.242013	-0.877233	18.979535	-33.507831	-141.906827
37824		5.446627	2.800878	8.176107	0.175981	0.147748	0.400372	-0.028380	0.019143	0.054591	-0.617920	0.090088	-0.447754	0.054466	0.028035	0.081752	0.353368	-0.217283	-0.241797	-0.877185	18.940722	-33.509876	-141.866603
37825		5.916464	2.615068	8.119902	-0.266886	-0.009864	0.565395	-0.041042	-0.006296	0.072345	-0.624756	0.094482	-0.447754	0.059153	0.026189	0.081196	0.353676	-0.217807	-0.241576	-0.876992	18.882027	-33.566796	-141.815399
37826		5.987269	2.481006	7.948382	-0.438894	-0.063793	0.433427	-0.044495	-0.023408	0.069210	-0.622559	0.092285	-0.454346	0.059855	0.024848	0.079485	0.353906	-0.218091	-0.241348	-0.876891	18.833871	-33.594634	-141.775069
37827		5.495786	2.731756	8.281504	0.152200	0.226244	0.491443	-0.041095	-0.092468	0.078513	-0.633789	0.089844	-0.456543	0.054909	0.027356	0.082835	0.354137	-0.218997	-0.241271	-0.876593	18.783267	-33.698967	-141.738742
37828		5.701599	2.921711	8.058845	0.125117	-0.122735	0.480945	-0.029614	-0.180382	0.110706	-0.629395	0.096680	-0.454590	0.056927	0.029261	0.080635	0.354376	-0.219994	-0.241341	-0.876228	18.747731	-33.819632	-141.705986
37829		6.283964	2.638451	7.589889	-0.534597	-0.502301	0.361687	-0.008258	-0.184542	0.136060	-0.629395	0.098877	-0.456787	0.062752	0.026430	0.075956	0.354782	-0.221308	-0.241507	-0.875687	18.706237	-33.983698	-141.652271
37830		5.937122	2.814043	7.642528	-0.149605	-0.394421	0.256995	0.005294	-0.167201	0.142565	-0.636230	0.098633	-0.454590	0.059287	0.028181	0.076476	0.355214	-0.222223	-0.241670	-0.875235	18.677067	-34.103096	-141.595416
37831		5.838278	2.970891	7.909109	0.113175	-0.275555	0.452638	-0.004482	-0.165472	0.165736	-0.643066	0.098633	-0.452393	0.058293	0.029759	0.079139	0.355774	-0.223480	-0.241786	-0.874655	18.624199	-34.262048	-141.517782
37832		5.767793	2.993681	7.958821	0.208549	-0.216404	0.457757	-0.011399	-0.166218	0.184377	-0.642822	0.096436	-0.461182	0.057584	0.029994	0.079634	0.356370	-0.224471	-0.241827	-0.874147	18.569348	-34.388545	-141.432774
37833		5.518087	2.755772	8.317516	0.304530	0.282755	0.533901	0.003402	-0.188083	0.218228	-0.647705	0.103027	-0.459229	0.055073	0.027616	0.083227	0.357138	-0.225871	-0.241959	-0.873436	18.503927	-34.568610	-141.325219
37834		5.425199	3.304174	8.470256	0.828685	0.088909	0.741973	0.028688	-0.252447	0.263038	-0.647461	0.098633	-0.454590	0.054102	0.033101	0.084776	0.358017	-0.227262	-0.242239	-0.872638	18.452510	-34.756176	-141.206604
37835		5.180919	3.439370	9.013282	1.250034	0.468604	1.055986	-0.051633	-0.345946	0.296309	-0.654297	0.103027	-0.457031	0.051602	0.034494	0.090213	0.358867	-0.229532	-0.242322	-0.871671	18.344857	-35.034857	-141.081209
37836		5.622501	3.052427	8.729373	0.670542	0.337341	0.983981	-0.095658	-0.461802	0.322251	-0.656738	0.109619	-0.448486	0.055974	0.030656	0.087409	0.359605	-0.232128	-0.242364	-0.870667	18.224217	-35.346701	-140.967672
37837		5.733502	2.956509	8.929978	0.644359	0.487853	1.173888	-0.121943	-0.577522	0.348762	-0.663818	0.114014	-0.452881	0.057025	0.029719	0.089447	0.360313	-0.235580	-0.242490	-0.869411	18.083187	-35.758909	-140.855781
37838		5.743184	1.899013	9.240768	0.004270	1.360340	1.147740	-0.147885	-0.736555	0.381230	-0.670410	0.113770	-0.444092	0.057055	0.019168	0.092604	0.360904	-0.239531	-0.242725	-0.868020	17.941579	-36.230531	-140.759703
37839		5.319138	1.742638	9.554974	0.320966	1.919117	1.088707	0.027903	-0.983549	0.403544	-0.683838	0.113525	-0.430908	0.052685	0.017520	0.095812	0.361525	-0.244522	-0.244153	-0.865967	17.913275	-36.872093	-140.695803
37840		5.348855	2.021892	9.637970	0.632757	1.862161	1.219944	0.018937	-1.235051	0.452904	-0.688477	0.113525	-0.426514	0.052846	0.020330	0.096709	0.361998	-0.250406	-0.245910	-0.863587	17.900996	-37.628043	-140.658283
37841		4.880212	2.143836	10.139990	1.266008	2.434197	1.309411	0.092556	-1.514017	0.487249	-0.690918	0.122314	-0.415527	0.047980	0.021509	0.101775	0.362385	-0.257639	-0.248440	-0.860568	17.943895	-38.571649	-140.652439
37842		5.588259	2.220049	9.940791	0.989961	2.049377	1.579958	0.096795	-1.872246	0.542453	-0.706787	0.124268	-0.397949	0.054888	0.022302	0.099936	0.362504	-0.266204	-0.251540	-0.857003	18.027477	-39.690786	-140.697672
37843		4.934134	2.884391	10.419210	2.194967	2.432574	1.610255	0.174486	-2.249581	0.618603	-0.718018	0.126465	-0.380371	0.048076	0.028903	0.104763	0.362578	-0.276538	-0.255521	-0.852510	18.168994	-41.055885	-140.771863
37844		4.402237	3.409969	10.559926	3.150732	2.660575	1.390203	0.240034	-2.649664	0.761888	-0.733643	0.124023	-0.362549	0.042488	0.034136	0.106210	0.362741	-0.288367	-0.260271	-0.847067	18.360489	-42.637284	-140.853390
37845		4.605815	3.214024	10.645332	3.154482	2.975909	1.414396	0.233992	-3.061965	0.911608	-0.747559	0.132568	-0.336182	0.044274	0.032220	0.107178	0.362955	-0.302279	-0.265455	-0.840491	18.538259	-44.493012	-140.925395
37846		4.813718	3.237201	10.627965	3.332301	3.126474	1.399316	0.271570	-3.541868	1.109015	-0.756592	0.138916	-0.305420	0.046065	0.032486	0.107152	0.363266	-0.318114	-0.271302	-0.832608	18.740318	-46.621977	-140.991065
37847		4.412480	3.733345	10.871108	4.340379	3.479918	1.169888	0.277765	-4.050637	1.359534	-0.768311	0.149902	-0.272461	0.041656	0.037470	0.109623	0.363839	-0.336425	-0.277568	-0.823040	18.897720	-49.092034	-140.995650
37848		4.763405	4.615097	10.801421	5.206373	3.116252	1.314334	0.234132	-4.602064	1.620683	-0.780029	0.162842	-0.228760	0.044756	0.046394	0.109120	0.364409	-0.357108	-0.284095	-0.811770	19.004204	-51.890487	-140.960369
37849		6.092023	5.580353	10.726017	5.771752	2.376597	2.199595	0.000317	-5.066400	1.907687	-0.789551	0.180420	-0.187256	0.057642	0.056364	0.108748	0.364871	-0.380384	-0.289787	-0.798874	18.865041	-55.007590	-140.791843
37850		3.946129	5.804858	9.856271	7.050461	2.749577	-0.373304	-0.252092	-5.584434	2.250925	-0.799072	0.200195	-0.134766	0.036034	0.058592	0.099527	0.365127	-0.406259	-0.294555	-0.784138	18.415320	-58.454672	-140.427501
37851		5.215209	4.036975	9.163552	5.308808	3.130791	-0.355767	-0.393829	-6.171410	2.583471	-0.801758	0.213379	-0.077393	0.048765	0.041197	0.093095	0.365202	-0.434831	-0.298837	-0.766972	17.622677	-62.285783	-139.778257
37852		7.915315	2.689536	10.088375	4.270397	4.191983	1.839765	-0.489269	-6.586432	2.687566	-0.795898	0.235352	-0.018311	0.075403	0.028176	0.103341	0.364372	-0.464739	-0.302953	-0.747977	16.587788	-66.348664	-138.942177
37853		10.077011	-0.261192	8.924847	1.341035	4.814515	2.685929	-0.601370	-6.658279	2.431881	-0.787598	0.257568	0.034180	0.097745	-0.001136	0.092541	0.361798	-0.494163	-0.306959	-0.728479	15.505411	-70.405319	-138.150134
37854		10.717733	-1.438799	6.635926	-0.233310	4.000368	2.222881	-0.339166	-6.704626	2.140216	-0.794678	0.270752	0.091309	0.105018	-0.013140	0.069927	0.358241	-0.522192	-0.312371	-0.708098	14.734041	-74.436739	-137.545798
37855		15.239080	2.807812	6.201284	2.944474	1.132411	6.573566	-0.087842	-6.576275	1.843272	-0.772461	0.277588	0.148682	0.149976	0.029497	0.066959	0.354125	-0.548224	-0.318799	-0.687323	14.324545	-78.351213	-137.175953
37856		14.486832	2.464848	3.420788	2.076824	-0.209389	5.127743	-0.355809	-5.968933	1.752399	-0.757324	0.293213	0.199219	0.143539	0.025976	0.038460	0.349485	-0.571912	-0.323184	-0.668078	13.182550	-81.914938	-136.224775
37857		16.444642	3.041260	3.042182	2.895137	-0.429197	6.928980	-0.297909	-5.593735	1.781542	-0.744141	0.304199	0.245361	0.163231	0.031920	0.034952	0.345456	-0.593755	-0.326690	-0.649145	9.688511	-85.259908	-132.880456
37858		15.520211	3.750623	3.740026	4.636170	0.362870	5.911410	-0.361830	-4.898095	1.813699	-0.724365	0.317627	0.282715	0.153876	0.038978	0.041110	0.342148	-0.613055	-0.328477	-0.631824	-7.757662	-88.118501	-115.619063
37859		15.546635	2.905411	3.965545	4.680226	1.446542	5.737954	-0.303573	-4.232477	1.696386	-0.713623	0.331055	0.315430	0.154327	0.030430	0.042884	0.339584	-0.629561	-0.329444	-0.616280	-114.401685	-88.646028	-9.125880
37860		16.757358	0.799561	0.053504	1.354048	-0.297849	6.905459	-0.275858	-3.390457	1.591366	-0.700195	0.335693	0.337402	0.167462	0.009332	0.003362	0.337973	-0.643007	-0.329280	-0.603234	-139.506605	-86.700758	15.836897
37861		11.319715	0.033659	-4.547006	-1.738459	-3.559350	1.724824	-0.521247	-2.132963	1.332295	-0.689453	0.344727	0.359375	0.113668	0.000976	-0.044261	0.336818	-0.652438	-0.326979	-0.594947	-142.267963	-85.272519	18.307363
37862		8.319428	1.512382	11.232232	8.204496	8.707970	-2.429189	0.005636	-1.548669	0.827099	-0.682617	0.342529	0.363770	0.082258	0.015462	0.112962	0.336750	-0.658383	-0.326889	-0.588452	-143.949380	-84.275199	19.998445
37863		31.257536	6.509304	18.401750	18.347682	12.559464	19.574919	0.825625	1.368467	-0.103102	-0.691650	0.344727	0.345947	0.313859	0.064177	0.182139	0.341438	-0.652733	-0.327319	-0.591796	-138.702807	-84.929958	15.206156
37864		1.445229	13.654712	13.272338	18.763391	3.549752	-9.766002	0.244576	3.987298	-0.282677	-0.709473	0.342285	0.312744	0.017289	0.136362	0.132564	0.347854	-0.639944	-0.322089	-0.604754	-115.499002	-86.465496	-7.919435
37865		-7.047985	9.241421	9.809794	12.747482	3.251346	-17.443262	-0.451924	3.884185	0.325337	-0.718750	0.348877	0.285889	-0.068710	0.092525	0.099235	0.353621	-0.629237	-0.312849	-0.617364	-78.105886	-86.558549	-45.633600
37866		-5.310731	5.096073	8.056358	8.536550	4.158496	-15.189101	-0.571101	3.528248	0.751859	-0.718750	0.346680	0.263916	-0.051869	0.050996	0.081340	0.359603	-0.620448	-0.302427	-0.627908	-54.628449	-85.326596	-69.495586
37867		-4.267615	2.281816	7.446016	5.979833	5.258466	-13.742889	-0.081610	3.305554	0.771005	-0.725586	0.348877	0.239258	-0.041526	0.022687	0.075144	0.366752	-0.611083	-0.293786	-0.636994	-42.559718	-83.722807	-81.660743
37868		-1.048611	2.473511	7.541094	6.266204	4.956596	-10.310486	0.644484	3.244403	0.459529	-0.729980	0.348877	0.212646	-0.009317	0.024469	0.075648	0.374898	-0.600178	-0.288441	-0.645012	-34.544932	-82.102398	-89.364693
37869		2.064516	4.845949	7.484980	8.158235	3.190939	-7.162159	1.176729	3.451279	0.016658	-0.730225	0.351318	0.181641	0.021932	0.048021	0.074762	0.383443	-0.586507	-0.285659	-0.653742	-27.141601	-80.373142	-96.165560
37870		3.321467	7.825257	7.173292	10.360014	1.095438	-5.915979	1.258591	3.830223	-0.384771	-0.734375	0.344727	0.144043	0.034736	0.077736	0.071568	0.391268	-0.570925	-0.283498	-0.663764	-20.599757	-78.454661	-102.086509
37871		3.184353	8.826883	6.755800	10.869715	0.196132	-5.876306	0.907941	4.165107	-0.682003	-0.732178	0.340332	0.104248	0.033547	0.087851	0.067271	0.397436	-0.553913	-0.280246	-0.675786	-15.018817	-76.267227	-107.263164
37872		2.743241	6.572807	6.373311	8.668110	1.077168	-5.934626	0.568215	4.340111	-0.959078	-0.740723	0.333740	0.077881	0.029123	0.065411	0.063299	0.401751	-0.536657	-0.276126	-0.688730	-10.608314	-73.964792	-111.489425
37873		2.984527	3.634806	6.196553	5.910218	2.285640	-5.301409	0.593432	4.393120	-1.315363	-0.742432	0.315918	0.041016	0.031435	0.035962	0.061394	0.404773	-0.518009	-0.272821	-0.702420	-6.545527	-71.546514	-115.375556
37874		3.638881	1.918576	6.195489	4.170361	2.857421	-4.359334	0.923531	4.386506	-1.738580	-0.737549	0.300537	0.003662	0.037900	0.018577	0.061221	0.406927	-0.498234	-0.271610	-0.715823	-2.676335	-69.122486	-118.921996
37875		4.602794	1.442366	6.188353	3.329368	2.651613	-3.222300	1.298849	4.349912	-2.133519	-0.741211	0.278320	-0.028809	0.047508	0.013524	0.060951	0.408299	-0.476560	-0.272654	-0.729276	1.229372	-66.597204	-122.321331
37876		5.906465	1.768808	6.094099	2.949441	1.817157	-1.866924	1.558026	4.287059	-2.410515	-0.736084	0.258545	-0.061279	0.060558	0.016495	0.059785	0.408931	-0.454324	-0.275235	-0.742032	4.840114	-64.072667	-125.311774
37877		7.332021	2.584257	6.138040	2.884228	0.748921	-0.367524	1.616806	4.228899	-2.556239	-0.735107	0.234131	-0.095947	0.074917	0.024403	0.060009	0.408784	-0.431220	-0.278308	-0.754645	8.117987	-61.446575	-127.941835
37878		8.384733	2.958057	6.617288	2.619600	0.336043	0.950246	1.473192	4.162231	-2.595260	-0.727783	0.216553	-0.126221	0.085573	0.027998	0.064614	0.407828	-0.408772	-0.280863	-0.766615	10.832250	-58.851367	-130.097848
37879		9.264316	2.643533	7.328299	1.804635	0.461651	2.146406	1.284339	4.057723	-2.567095	-0.729248	0.194580	-0.154297	0.094432	0.024768	0.071542	0.406151	-0.386411	-0.282676	-0.778346	13.113311	-56.216112	-131.913867
37880		10.628280	2.019136	8.042390	0.461818	0.502396	3.648956	1.168403	3.956256	-2.569898	-0.719482	0.170166	-0.180176	0.108091	0.018348	0.078408	0.403881	-0.364915	-0.284071	-0.789317	15.031454	-53.661325	-133.439389
37881		12.090409	2.346092	8.446197	-0.362407	-0.278001	5.112733	1.128831	3.905250	-2.632928	-0.718506	0.143799	-0.212402	0.122815	0.021384	0.082201	0.400932	-0.342909	-0.285357	-0.800149	16.795187	-51.038985	-134.834198
37882		13.194870	3.633745	8.518457	-0.437579	-1.678408	6.212732	1.002594	3.855684	-2.716195	-0.708740	0.119385	-0.233643	0.134034	0.034107	0.082789	0.397171	-0.321518	-0.286213	-0.810533	18.334026	-48.465132	-136.097826
37883		14.351224	3.638100	8.210165	-1.810865	-2.755133	6.790817	0.675829	3.773811	-2.803647	-0.707764	0.090576	-0.268066	0.145517	0.034079	0.079486	0.392126	-0.300316	-0.285876	-0.821171	19.625570	-45.841931	-137.314946
37884		15.949945	3.281553	7.301486	-3.896543	-4.273402	7.068601	0.437318	3.639953	-2.910362	-0.693604	0.073242	-0.291992	0.161247	0.030322	0.070159	0.385932	-0.280290	-0.284827	-0.831485	20.709327	-43.311213	-138.502293
37885		17.805740	3.199830	5.995341	-6.057666	-6.317817	7.115160	0.266674	3.518595	-3.019429	-0.686035	0.046631	-0.317627	0.179531	0.029218	0.056844	0.378591	-0.260337	-0.283293	-0.841807	21.679062	-40.753882	-139.705853
37886		18.739763	2.670503	4.489387	-8.097530	-7.730096	6.095591	0.075070	3.346125	-3.184705	-0.666992	0.018066	-0.338623	0.188507	0.023693	0.041755	0.369926	-0.241548	-0.281345	-0.851853	22.521257	-38.292797	-140.961962
37887		18.068293	-3.752550	3.325082	-13.502336	-4.607808	2.352824	-0.081947	3.013085	-3.439627	-0.661621	-0.006348	-0.355469	0.180476	-0.040618	0.030547	0.359243	-0.223595	-0.279507	-0.861873	23.354254	-35.890884	-142.404400
37888		18.245333	-10.114121	1.466450	-19.157908	-2.000512	-1.674042	0.566852	2.269838	-3.916750	-0.651611	-0.034912	-0.367676	0.180574	-0.104727	0.012314	0.346081	-0.207280	-0.282179	-0.870424	24.736373	-33.790391	-144.255332
37889		20.000343	-4.910482	-1.213420	-17.466868	-7.359089	-1.671288	1.348760	1.587424	-4.054578	-0.643799	-0.068115	-0.382080	0.198848	-0.053054	-0.014065	0.331935	-0.192006	-0.289407	-0.877038	26.613204	-31.932644	-146.281822
37890		21.867159	1.165498	-3.980133	-15.475721	-13.371819	-1.036614	1.091039	0.890188	-3.625175	-0.635986	-0.096924	-0.374512	0.218658	0.007912	-0.040725	0.318315	-0.181025	-0.296139	-0.882161	28.213593	-30.525160	-148.163240
37891		24.484654	4.564160	-5.924688	-15.918805	-17.585996	-0.183886	0.058481	0.491546	-2.854529	-0.628662	-0.112305	-0.378174	0.245318	0.042160	-0.059837	0.306437	-0.174393	-0.298166	-0.887007	29.002023	-29.479602	-149.667992
37892		25.012044	3.072650	-7.628691	-17.968824	-17.664333	-2.176887	-1.016010	0.400109	-1.932467	-0.621826	-0.114502	-0.380371	0.250246	0.027919	-0.076934	0.297561	-0.171298	-0.294713	-0.891773	28.897193	-28.744732	-150.649800
37893		23.409423	-1.851098	-8.565410	-20.278194	-14.116186	-6.029914	-1.372070	0.377878	-1.123761	-0.626221	-0.118896	-0.389160	0.233821	-0.020414	-0.085960	0.291883	-0.170019	-0.289053	-0.895738	28.370980	-28.250261	-151.182071
37894		20.839909	-5.282928	-8.852693	-20.611027	-10.733939	-9.073845	-0.894488	0.213233	-0.579101	-0.624023	-0.121094	-0.391357	0.208150	-0.053828	-0.088510	0.288836	-0.169544	-0.285223	-0.898040	27.983512	-27.987581	-151.448128
37895		19.568559	-3.746982	-8.060467	-18.631395	-10.630112	-8.467031	-0.104900	-0.102658	-0.347096	-0.622070	-0.107910	-0.389404	0.195661	-0.037852	-0.080484	0.287027	-0.169846	-0.285300	-0.898539	28.041874	-27.969608	-151.686571
37896		21.212715	10.955537	-9.627409	-11.206252	-22.108583	-2.861538	-1.380399	-0.426908	-0.022966	-0.622314	-0.105713	-0.394043	0.212346	0.108865	-0.096574	0.285138	-0.173722	-0.279722	-0.900151	27.317367	-28.181839	-151.828405
37897		7.496188	2.261610	-6.041980	-5.423955	-8.265123	-10.096020	-3.319990	-1.043286	1.019640	-0.627686	-0.076904	-0.384033	0.075164	0.021996	-0.060397	0.285308	-0.184864	-0.265512	-0.902180	25.291114	-29.016760	-151.547228
37898		5.257692	-1.672782	12.175062	-2.660006	6.066381	1.796944	-2.320934	-1.847667	0.551869	-0.639404	-0.065918	-0.373291	0.051491	-0.015167	0.122412	0.283170	-0.197236	-0.257138	-0.902659	24.048484	-30.112537	-151.724645
37899		13.222761	5.924721	22.280242	-1.528994	3.190783	16.527741	-1.422024	-1.151793	0.162249	-0.646240	-0.061523	-0.375732	0.130894	0.060939	0.223130	0.280977	-0.204985	-0.252352	-0.902968	23.356029	-30.797129	-151.947038
37900		-0.485623	-18.620122	17.743093	-6.907309	23.593953	-2.238687	-1.325357	-0.121013	0.854650	-0.644531	-0.045898	-0.371826	-0.004172	-0.185039	0.178657	0.283319	-0.208481	-0.245654	-0.903283	22.341974	-31.053063	-151.452111
37901		3.909874	-15.641526	12.027578	-9.682683	16.406703	-3.357240	0.194741	-1.080982	0.756206	-0.648926	-0.046143	-0.365234	0.039040	-0.156385	0.120335	0.285623	-0.214337	-0.247354	-0.900719	22.355809	-31.830991	-151.261872
37902		21.282588	7.228376	12.447506	-8.169992	-6.790006	13.581261	0.088620	-0.697111	1.114252	-0.649414	-0.034912	-0.358887	0.211983	0.073411	0.125247	0.289871	-0.218740	-0.247549	-0.898247	22.129851	-32.444326	-150.742275
37903		10.918957	7.391813	5.918909	-1.901515	-6.382024	3.015010	-0.105772	0.288860	0.192885	-0.651855	-0.028320	-0.367920	0.109203	0.074055	0.058992	0.291034	-0.218199	-0.246481	-0.898296	21.959576	-32.376666	-150.544387
37904		4.279838	3.726009	5.464126	0.571081	-1.310699	-2.065900	-0.190957	-0.109634	0.224597	-0.656738	-0.021729	-0.363770	0.042727	0.037360	0.054629	0.291702	-0.219263	-0.245538	-0.898078	21.788636	-32.484964	-150.430292
37905		9.506825	0.295517	8.608793	-4.590403	0.733142	2.144263	-0.236976	-0.364037	0.330553	-0.658936	-0.019531	-0.361572	0.094906	0.003214	0.086257	0.292522	-0.222021	-0.244698	-0.897363	21.586859	-32.794432	-150.311951
37906		8.085406	0.551827	8.003609	-3.506407	0.796578	0.995025	0.002052	-0.059653	0.101159	-0.652344	-0.019531	-0.361572	0.080827	0.005558	0.080060	0.292908	-0.222428	-0.244682	-0.897141	21.560826	-32.849679	-150.262406
37907		5.998918	3.983569	6.799496	-0.098199	-1.444761	-0.015136	0.074721	-0.073735	0.098591	-0.658691	-0.026123	-0.363770	0.059944	0.039840	0.068032	0.293398	-0.223161	-0.245059	-0.896696	21.574455	-32.957331	-150.215478
37908		5.665447	5.081928	6.970413	0.898542	-1.982110	0.275612	-0.024291	-0.061566	0.130680	-0.659180	-0.012939	-0.355225	0.056600	0.050865	0.069715	0.293885	-0.223651	-0.244894	-0.896459	21.523168	-33.019887	-150.147522
37909		5.236856	3.885104	7.493786	0.605086	-0.658698	0.080516	-0.071528	-0.020878	0.177988	-0.659180	-0.012939	-0.364258	0.052326	0.038924	0.074929	0.294624	-0.224456	-0.244458	-0.896134	21.419434	-33.115721	-150.037790
37910		4.969282	4.367241	7.862994	1.216433	-0.685871	0.367837	-0.068235	0.025559	0.188522	-0.661621	-0.008545	-0.357666	0.049662	0.043746	0.078609	0.295428	-0.224692	-0.243903	-0.895962	21.310608	-33.143774	-149.910903
37911		4.840311	4.832820	7.366830	1.500335	-1.253020	0.048035	-0.114794	0.065568	0.239124	-0.661865	-0.003906	-0.360107	0.048369	0.048428	0.073625	0.296492	-0.225238	-0.243079	-0.895697	21.149338	-33.204748	-149.740933
37912		5.561469	4.578491	7.120371	0.769093	-1.540141	0.168724	-0.220066	0.112360	0.252278	-0.659668	0.000488	-0.360107	0.055597	0.045933	0.071122	0.297514	-0.225388	-0.241643	-0.895709	20.919212	-33.198972	-149.551659
37913		6.133140	2.277471	7.815585	-0.918499	0.208795	0.336120	-0.221930	0.170253	0.235058	-0.659912	0.004883	-0.358154	0.061371	0.022933	0.078078	0.298555	-0.225611	-0.240195	-0.895696	20.685169	-33.201161	-149.359705
37914		6.354846	2.011226	8.035250	-1.187550	0.393106	0.552130	-0.161549	0.234055	0.134916	-0.662109	0.009277	-0.360596	0.063629	0.020220	0.080262	0.299262	-0.224986	-0.238970	-0.895945	20.513871	-33.105347	-149.216465
37915		6.559336	2.189628	8.157825	-1.184264	0.221133	0.813601	-0.144857	0.228390	0.094100	-0.655518	0.009277	-0.355957	0.065676	0.021986	0.081487	0.299830	-0.224665	-0.237933	-0.896111	20.365357	-33.047110	-149.100794
37916		6.390276	1.728966	8.335250	-1.321143	0.691945	0.726623	-0.092208	0.235928	0.037658	-0.655762	0.013916	-0.364990	0.063998	0.017340	0.083269	0.300180	-0.223813	-0.237124	-0.896422	20.268252	-32.930442	-149.020236
37917		6.345113	1.890938	8.064674	-1.257841	0.428529	0.536672	-0.050965	0.181113	0.015363	-0.660156	0.011475	-0.364990	0.063523	0.018935	0.080584	0.300447	-0.223470	-0.236660	-0.896541	20.206537	-32.881750	-148.965974
37918		6.531066	1.971097	8.022975	-1.359979	0.253389	0.627351	-0.032244	0.146491	0.005402	-0.655762	0.016113	-0.365234	0.065369	0.019726	0.080179	0.300613	-0.222890	-0.236290	-0.896727	20.166797	-32.806738	-148.927545
37919		6.288941	2.480409	7.792630	-0.917329	-0.138069	0.461928	-0.021810	0.113780	0.008804	-0.653809	0.022705	-0.363281	0.062933	0.024815	0.077888	0.300806	-0.222800	-0.236059	-0.896745	20.131894	-32.793065	-148.892817
37920		5.926693	3.192266	8.090010	-0.126259	-0.327865	0.705918	-0.028781	0.094001	0.017603	-0.649170	0.020508	-0.360840	0.059302	0.031940	0.080868	0.300969	-0.222466	-0.235770	-0.896850	20.096671	-32.748747	-148.859012
37921		6.639130	3.288459	7.099897	-0.824515	-1.262554	0.337519	-0.061662	0.036804	0.067312	-0.646973	0.025146	-0.361084	0.066393	0.032929	0.070977	0.301289	-0.222849	-0.235411	-0.896741	20.028368	-32.787819	-148.804863
37922		6.008717	3.578424	7.782574	-0.004578	-0.823947	0.618004	-0.069743	0.081387	0.071938	-0.651611	0.024902	-0.361084	0.060106	0.035833	0.077789	0.301635	-0.222698	-0.234896	-0.896798	19.952470	-32.760963	-148.739301
37923		5.735196	3.228308	7.907723	0.009365	-0.395257	0.467887	-0.077041	0.039628	0.089222	-0.642822	0.031738	-0.363525	0.057353	0.032339	0.079053	0.302037	-0.223117	-0.234443	-0.896677	19.867922	-32.802790	-148.670887
37924		5.852766	3.213640	7.866075	-0.089193	-0.469870	0.494045	-0.074723	0.042196	0.085121	-0.649658	0.031738	-0.361328	0.058531	0.032191	0.078636	0.302389	-0.223166	-0.233950	-0.896675	19.789495	-32.799555	-148.605991
37925		6.163836	3.091535	7.680021	-0.425190	-0.629925	0.480785	-0.093281	0.018713	0.099337	-0.647461	0.038330	-0.359375	0.061630	0.030982	0.076780	0.302792	-0.223712	-0.233446	-0.896534	19.694887	-32.854067	-148.536039
37926		5.591952	3.031693	8.005229	0.038367	-0.167786	0.410577	-0.087938	0.042373	0.094633	-0.638428	0.031738	-0.370117	0.055922	0.030379	0.080027	0.303172	-0.223791	-0.232882	-0.896532	19.605471	-32.852488	-148.464955
37927		5.584865	3.291579	7.864301	0.189732	-0.433864	0.368088	-0.091411	0.015171	0.096722	-0.636475	0.042969	-0.366211	0.055839	0.032979	0.078624	0.303559	-0.224344	-0.232395	-0.896390	19.513295	-32.907936	-148.397493
37928		6.119997	2.583623	7.588496	-0.714656	-0.331852	0.241857	-0.107559	0.024795	0.107522	-0.634277	0.042969	-0.366211	0.061195	0.025910	0.075863	0.303954	-0.224547	-0.231755	-0.896370	19.410199	-32.918206	-148.322058
37929		5.636720	2.928818	7.848807	-0.062362	-0.228200	0.281785	-0.092131	0.045123	0.102444	-0.634033	0.040771	-0.370361	0.056370	0.029353	0.078462	0.304398	-0.224972	-0.231213	-0.896253	19.311865	-32.958113	-148.244081
37930		5.608880	3.133136	7.854511	0.099644	-0.369869	0.327464	-0.106711	0.038830	0.105650	-0.634277	0.042969	-0.372803	0.056087	0.031403	0.078517	0.304802	-0.225110	-0.230557	-0.896250	19.208080	-32.960302	-148.166598
37931		5.813144	2.983194	7.644861	-0.183163	-0.479294	0.230853	-0.114910	0.036237	0.113598	-0.636719	0.047363	-0.373047	0.058128	0.029909	0.076421	0.305259	-0.225618	-0.229914	-0.896132	19.093912	-33.006414	-148.083472
37932		5.744706	2.587527	7.808708	-0.340399	-0.092468	0.214696	-0.102792	0.057662	0.108696	-0.632324	0.054199	-0.370850	0.057455	0.025947	0.078057	0.305701	-0.225669	-0.229244	-0.896140	18.988923	-32.998812	-147.999764
37933		5.813425	2.497441	7.898566	-0.411133	-0.019886	0.299237	-0.092058	0.054118	0.100265	-0.630127	0.056396	-0.382080	0.058143	0.025040	0.078958	0.306143	-0.226044	-0.228690	-0.896037	18.890281	-33.032227	-147.921221
37934		5.880606	2.459096	7.849848	-0.491193	-0.060815	0.287007	-0.067791	0.046676	0.079992	-0.630127	0.056396	-0.384277	0.058815	0.024641	0.078476	0.306484	-0.226058	-0.228225	-0.896035	18.816742	-33.025122	-147.858496
37935		5.860222	2.430610	7.951252	-0.458008	0.017759	0.349123	-0.053260	0.050340	0.072630	-0.630371	0.058594	-0.388916	0.058613	0.024349	0.079491	0.306841	-0.226357	-0.227881	-0.895925	18.750225	-33.055063	-147.798453
37936		5.543834	2.566763	8.156945	-0.086895	0.167290	0.376649	-0.038524	0.038660	0.060863	-0.623779	0.063232	-0.391357	0.055446	0.025700	0.081554	0.307120	-0.226342	-0.227581	-0.895909	18.701133	-33.048756	-147.749861
37937		6.217327	2.345340	7.876663	-0.772963	-0.133105	0.462643	-0.038169	0.007760	0.064833	-0.628174	0.063232	-0.391357	0.062169	0.023489	0.078760	0.307411	-0.226797	-0.227376	-0.895747	18.650812	-33.099871	-147.703978
37938		6.075193	2.215238	7.911801	-0.743099	0.037392	0.378399	-0.022983	0.006611	0.056937	-0.628174	0.063232	-0.395752	0.060748	0.022179	0.079113	0.307653	-0.226897	-0.227199	-0.895683	18.615775	-33.110264	-147.664905
37939		6.015131	2.519654	7.955753	-0.478603	-0.126391	0.462498	-0.014187	-0.011912	0.053837	-0.625977	0.061035	-0.397705	0.060140	0.025218	0.079559	0.307901	-0.227390	-0.227142	-0.895487	18.585000	-33.169975	-147.630109
37940		6.196561	2.529776	7.776938	-0.642415	-0.313684	0.422878	-0.010552	-0.025800	0.053450	-0.628174	0.065430	-0.400146	0.061949	0.025318	0.077776	0.308105	-0.227613	-0.227074	-0.895377	18.562104	-33.197383	-147.600305
37941		6.505847	2.427278	7.494684	-0.990962	-0.531211	0.342302	-0.007211	-0.033782	0.058095	-0.630615	0.065430	-0.404541	0.065039	0.024294	0.074957	0.308355	-0.228198	-0.227076	-0.895142	18.536215	-33.269636	-147.567342
37942		5.841577	2.594085	8.106077	-0.242695	-0.016785	0.507322	-0.001969	-0.017710	0.055332	-0.633057	0.069824	-0.406982	0.058401	0.025958	0.081066	0.308587	-0.228374	-0.227033	-0.895028	18.516506	-33.293055	-147.534479
37943		5.832668	2.675637	7.866597	-0.234520	-0.197392	0.334649	-0.002795	-0.054332	0.055968	-0.633057	0.074219	-0.407227	0.058298	0.026774	0.078681	0.308809	-0.229042	-0.227088	-0.894767	18.496166	-33.376042	-147.507210
37944		5.674117	2.814503	8.124595	0.046156	-0.080925	0.488642	-0.002817	-0.056769	0.066090	-0.630615	0.069824	-0.406982	0.056709	0.028165	0.081262	0.309043	-0.229407	-0.227088	-0.894593	18.476686	-33.422703	-147.475767
37945		5.959516	2.694529	7.825393	-0.298688	-0.282832	0.377694	-0.006143	-0.071573	0.073102	-0.635010	0.067627	-0.411377	0.059557	0.026969	0.078274	0.309318	-0.230172	-0.227135	-0.894289	18.450282	-33.517729	-147.441009
37946		5.200203	2.998694	8.382579	0.595860	0.151517	0.479246	-0.001010	-0.062732	0.073617	-0.637451	0.069824	-0.413574	0.051965	0.030006	0.083842	0.309581	-0.230570	-0.227144	-0.894093	18.429705	-33.569056	-147.405842
37947		6.024431	2.731271	7.755324	-0.311218	-0.367872	0.368985	-0.014090	-0.107488	0.095110	-0.639893	0.074219	-0.420410	0.060190	0.027347	0.077584	0.309903	-0.231528	-0.227184	-0.893724	18.395064	-33.686957	-147.364440
37948		5.929615	2.738501	7.928630	-0.178440	-0.231365	0.455589	0.003997	-0.097868	0.111398	-0.642090	0.076416	-0.422852	0.059242	0.027416	0.079316	0.310300	-0.232119	-0.227226	-0.893422	18.367694	-33.764264	-147.312056
37949		5.834968	2.839882	7.996573	-0.005402	-0.214340	0.483475	0.021848	-0.127490	0.130414	-0.646484	0.073975	-0.422607	0.058280	0.028428	0.080006	0.310798	-0.233148	-0.227417	-0.892932	18.343016	-33.899135	-147.251718
37950		5.908087	2.549416	7.874319	-0.264423	-0.102155	0.352426	0.052678	-0.154151	0.167845	-0.646484	0.073975	-0.425049	0.058999	0.025523	0.078795	0.311440	-0.233979	-0.227697	-0.892420	18.329382	-34.017272	-147.174324
37951		5.869619	3.028406	8.038299	0.151341	-0.314940	0.585186	0.112682	-0.191669	0.208936	-0.648926	0.078369	-0.418457	0.058587	0.030300	0.080456	0.312319	-0.235239	-0.228300	-0.891627	18.335242	-34.200805	-147.076083
37952		5.638244	3.066076	8.328729	0.443266	-0.061630	0.692454	0.028256	-0.243085	0.212146	-0.653564	0.082764	-0.420898	0.056249	0.030709	0.083360	0.313027	-0.236554	-0.228557	-0.890965	18.301525	-34.375351	-146.988549
37953		5.901114	2.575550	8.126750	-0.082409	0.068513	0.555006	-0.016330	-0.317641	0.214217	-0.660156	0.078369	-0.418457	0.058854	0.025825	0.081359	0.313631	-0.238576	-0.228774	-0.890157	18.246310	-34.627656	-146.913754
37954		6.056404	2.428318	8.152480	-0.241814	0.131283	0.625887	-0.029299	-0.350933	0.223454	-0.660156	0.076172	-0.425049	0.060394	0.024363	0.081627	0.314195	-0.240474	-0.228928	-0.889408	18.187667	-34.862872	-146.841369
37955		5.676209	2.566766	8.247216	0.186377	0.279160	0.517432	-0.014194	-0.393678	0.229632	-0.662598	0.082764	-0.416504	0.056570	0.025739	0.082582	0.314780	-0.242842	-0.229251	-0.888474	18.135969	-35.158754	-146.771714
37956		5.908028	1.964369	8.322833	-0.309115	0.662713	0.555441	0.056173	-0.494768	0.253019	-0.674072	0.089355	-0.418945	0.058849	0.019695	0.083380	0.315410	-0.245276	-0.229973	-0.887394	18.131921	-35.477549	-146.710096
37957		5.968829	2.505663	8.446570	0.108214	0.365689	0.822348	0.015493	-0.594554	0.233375	-0.671631	0.084717	-0.412109	0.059408	0.025120	0.084645	0.315812	-0.248484	-0.230732	-0.886161	18.119919	-35.882785	-146.680835
37958		5.775502	1.813912	8.540559	-0.138892	1.027913	0.604194	0.059504	-0.731294	0.223283	-0.680664	0.082520	-0.409668	0.057422	0.018178	0.085621	0.316036	-0.251922	-0.231873	-0.884812	18.159320	-36.325140	-146.690892
37959		5.666507	2.106422	8.687624	0.251298	1.013940	0.719603	0.062830	-0.860768	0.236066	-0.687500	0.086914	-0.401123	0.056266	0.021103	0.087126	0.316193	-0.256222	-0.233247	-0.883158	18.207907	-36.875019	-146.718733
37960		5.901840	2.117949	8.613671	0.160246	0.926183	0.799956	0.094716	-1.033027	0.247817	-0.696533	0.088867	-0.394531	0.058546	0.021211	0.086450	0.316206	-0.260956	-0.234979	-0.881306	18.299318	-37.486012	-146.781232
37961		5.971140	2.160305	8.555495	0.225027	0.916046	0.799884	0.112713	-1.216458	0.270113	-0.705322	0.086670	-0.381104	0.059160	0.021635	0.085928	0.316143	-0.266763	-0.237071	-0.879027	18.413463	-38.234381	-146.868800
37962		5.406320	2.578030	9.006533	1.133749	1.228896	0.873502	0.137481	-1.380723	0.297647	-0.712158	0.088623	-0.374512	0.053401	0.025798	0.090453	0.315997	-0.272997	-0.239456	-0.876516	18.562247	-39.043223	-146.981943
37963		5.741424	2.638619	8.772233	1.009603	1.016273	0.902893	0.147213	-1.578293	0.345863	-0.723389	0.086182	-0.367676	0.056674	0.026420	0.088191	0.315850	-0.280387	-0.242138	-0.873494	18.722874	-40.000215	-147.108368
37964		5.904166	2.606068	8.739453	1.012464	1.071907	0.950745	0.165469	-1.766726	0.397910	-0.730469	0.094971	-0.348145	0.058215	0.026104	0.087933	0.315673	-0.288349	-0.245084	-0.870137	18.911022	-41.036475	-147.253025
37965		5.440791	3.097153	9.000395	1.900038	1.222175	0.915485	0.180396	-1.971096	0.464656	-0.737061	0.094971	-0.330322	0.053445	0.031015	0.090562	0.315559	-0.297481	-0.248316	-0.866179	19.110096	-42.226263	-147.403146
37966		5.432643	3.696842	9.204907	2.576284	1.095153	1.144886	0.186023	-2.209150	0.565669	-0.750488	0.094727	-0.312744	0.053200	0.037034	0.092675	0.315528	-0.307475	-0.251750	-0.861698	19.317987	-43.532803	-147.552977
37967		5.726713	3.820178	9.232550	2.711359	1.084377	1.327070	0.150332	-2.501229	0.705733	-0.753174	0.107910	-0.297607	0.055971	0.038331	0.093060	0.315658	-0.319142	-0.255253	-0.856361	19.489209	-45.051859	-147.679951
37968		5.421705	4.471348	9.476529	3.697374	1.103873	1.335994	0.123411	-2.849673	0.884612	-0.766602	0.103271	-0.268555	0.052661	0.044890	0.095551	0.315976	-0.332280	-0.258839	-0.850148	19.629794	-46.764765	-147.778152
37969		5.163649	4.279747	9.814955	4.145265	1.752850	1.189270	0.111684	-3.275374	1.122377	-0.782959	0.118408	-0.238281	0.049779	0.043025	0.098999	0.316673	-0.347667	-0.262598	-0.842549	19.715993	-48.778533	-147.812135
37970		5.226634	3.900369	10.073316	4.288588	2.384419	1.137442	0.148635	-3.776642	1.405499	-0.789795	0.125000	-0.205078	0.050076	0.039285	0.101722	0.317834	-0.365153	-0.266707	-0.833374	19.767511	-51.091973	-147.769050
37971		5.263257	3.625626	10.438033	4.630672	3.066943	1.092491	0.193148	-4.361113	1.722909	-0.794922	0.142578	-0.170410	0.050025	0.036593	0.105525	0.319485	-0.385418	-0.271231	-0.822080	19.762146	-53.803626	-147.625859
37972		5.024481	4.358835	11.981240	6.465406	4.045784	1.570661	0.166472	-4.952932	1.980805	-0.806641	0.155762	-0.128662	0.046823	0.043963	0.121037	0.321120	-0.408095	-0.275911	-0.808835	19.696314	-56.862783	-147.430721
37973		3.705551	4.082471	10.699682	6.743597	4.021037	-0.691817	0.006040	-5.715638	2.287436	-0.804688	0.168945	-0.071533	0.033509	0.041218	0.107990	0.322365	-0.434318	-0.280313	-0.793015	19.466517	-60.408501	-147.160179
37974		5.755585	4.858963	9.418909	6.359706	2.367440	0.154587	-0.190655	-6.284206	2.501710	-0.805664	0.197510	-0.014893	0.053946	0.049370	0.095875	0.322880	-0.462832	-0.284090	-0.775131	19.038219	-64.285192	-146.801004
37975		6.857104	1.844185	9.170622	4.132530	4.170687	0.186886	-0.278280	-6.717707	2.554957	-0.802002	0.221924	0.041992	0.065197	0.019419	0.093908	0.322401	-0.492753	-0.287753	-0.755281	18.535390	-68.415922	-146.428109
37976		11.997759	1.516009	9.430153	3.216205	3.985103	4.638679	-0.359783	-6.950073	2.349221	-0.791260	0.232910	0.099365	0.116416	0.016716	0.098360	0.320170	-0.522656	-0.291613	-0.734359	18.269394	-72.624139	-146.365495
37977		12.306069	-2.585974	6.568977	-0.851704	4.865556	3.483952	-0.341808	-6.803692	1.926973	-0.782715	0.246338	0.160889	0.120972	-0.024570	0.069872	0.316252	-0.550742	-0.296013	-0.713474	18.751470	-76.682539	-147.069253
37978		15.697118	-2.170680	5.620490	-0.927634	4.087739	6.466866	0.416311	-6.806799	1.461439	-0.767334	0.259521	0.209229	0.155092	-0.020693	0.061462	0.312345	-0.576223	-0.304051	-0.691347	21.812078	-80.637099	-149.946404
37979		17.163874	1.529005	3.285331	1.177416	0.589608	7.677171	0.866431	-6.125168	1.137813	-0.754150	0.268555	0.262207	0.170434	0.016104	0.038154	0.309350	-0.597552	-0.313147	-0.670203	29.144504	-84.102570	-156.840313
37980		16.698811	3.108434	1.863160	2.385427	-0.767451	7.087544	0.789068	-5.810208	1.175261	-0.736328	0.270996	0.304199	0.166165	0.031976	0.023592	0.306408	-0.617405	-0.321121	-0.649466	51.001667	-87.141352	-178.299766
37981		15.658473	2.995210	2.247112	3.288076	0.226984	5.944296	0.693717	-5.213431	1.248881	-0.716309	0.282227	0.341553	0.155736	0.030839	0.026644	0.304158	-0.635107	-0.327357	-0.630051	128.819801	-88.075964	104.233145
37982		15.292402	3.088448	2.413465	4.083859	0.804320	5.413836	0.640236	-4.640559	1.293896	-0.700928	0.293457	0.374512	0.152104	0.031785	0.027771	0.302578	-0.650713	-0.332220	-0.612086	169.185411	-86.053988	64.191089
37983		14.834735	3.543341	2.979522	5.320668	1.384437	4.721328	0.655005	-4.103232	1.348132	-0.683594	0.306885	0.402832	0.147450	0.036325	0.032945	0.301974	-0.664402	-0.335941	-0.595421	-179.360686	-83.766583	53.071669
37984		14.770133	3.815354	1.787120	5.321366	0.612344	4.581302	0.831919	-3.465503	1.384545	-0.667969	0.311279	0.429199	0.147092	0.039091	0.020585	0.302978	-0.675697	-0.338983	-0.580283	-173.601470	-81.729382	47.746735
37985		18.910082	3.243216	-2.611577	3.172742	-1.889187	9.194515	0.552360	-2.176575	1.289105	-0.661621	0.322510	0.439941	0.189155	0.033719	-0.023965	0.304888	-0.683321	-0.339480	-0.569974	-169.762132	-80.386208	44.181046
37986		9.644134	-0.112420	6.169057	4.637443	6.169418	-1.356319	0.953404	-1.082863	1.119180	-0.653076	0.338135	0.437256	0.096111	-0.000881	0.062207	0.309478	-0.686855	-0.340004	-0.562896	-166.373709	-79.641635	41.294513
37987		37.354623	7.223492	8.818207	15.846389	7.159968	25.157515	1.033758	1.389797	0.692191	-0.670898	0.331299	0.419678	0.373897	0.073080	0.085961	0.317344	-0.682488	-0.338352	-0.564819	-162.392578	-80.303103	37.853429
37988		10.629778	10.508274	6.273074	13.430367	0.076749	-0.736909	0.365426	4.046684	0.263430	-0.680176	0.335693	0.392822	0.107402	0.105112	0.060757	0.326109	-0.670816	-0.331990	-0.577444	-155.805076	-82.413702	31.402596
37989		1.879709	9.989589	4.563014	10.955227	-1.846038	-8.965038	-0.479156	4.268965	0.617169	-0.693604	0.337891	0.364014	0.019453	0.100064	0.044980	0.333294	-0.660075	-0.321495	-0.591487	-142.621471	-84.358541	17.856630
37990		-0.595953	6.142044	3.336413	6.865984	-0.817633	-10.996124	-1.176305	3.986894	0.979894	-0.702881	0.342285	0.346191	-0.005599	0.061588	0.033116	0.338638	-0.651701	-0.308062	-0.604738	-119.696885	-85.458040	-5.832549
37991		-2.520007	1.747330	2.529509	2.710024	1.090556	-12.508545	-1.195283	3.549034	1.041854	-0.711914	0.346680	0.325928	-0.024838	0.017496	0.025633	0.343277	-0.644379	-0.295004	-0.616368	-93.272497	-85.476560	-33.023879
37992		-2.690629	-0.979192	2.664239	0.639847	2.875594	-12.384983	-0.641035	3.065286	0.770196	-0.711914	0.346680	0.308105	-0.026456	-0.009808	0.027082	0.348059	-0.637116	-0.285244	-0.625759	-73.615926	-84.825885	-53.118626
37993		-1.629998	-0.997175	3.045843	0.950313	3.165694	-11.227938	0.154464	2.697534	0.302292	-0.718750	0.351074	0.283691	-0.015872	-0.010020	0.030667	0.353301	-0.628670	-0.280059	-0.633656	-59.460753	-84.048872	-67.249648
37994		-0.285594	1.762506	3.396073	3.429825	1.705864	-10.029227	0.728266	2.531631	-0.178485	-0.727783	0.346680	0.257080	-0.002410	0.017503	0.034057	0.358538	-0.619089	-0.278428	-0.640825	-48.000063	-83.270238	-78.361050
37995		0.693371	4.601992	3.747005	5.935478	0.225365	-9.166835	0.788185	2.570286	-0.518538	-0.734375	0.344482	0.243896	0.007535	0.045853	0.037557	0.362856	-0.608535	-0.277937	-0.648669	-37.695894	-82.383784	-88.288477
37996		1.551115	5.588364	4.167808	6.959377	-0.123638	-8.213912	0.472866	2.742405	-0.731937	-0.738525	0.335449	0.213135	0.016286	0.055727	0.041590	0.365693	-0.597734	-0.276691	-0.657589	-28.978572	-81.300802	-96.821201
37997		2.115663	4.222925	4.416322	5.937525	0.743797	-7.362620	0.132167	2.980216	-0.920050	-0.749756	0.331055	0.193359	0.022006	0.042100	0.043867	0.367124	-0.586194	-0.274418	-0.668050	-21.467315	-79.966233	-104.353470
37998		1.928047	1.844158	4.472163	3.984047	2.139115	-7.230538	0.077517	3.185988	-1.150012	-0.758301	0.317627	0.165039	0.020095	0.018310	0.044413	0.367829	-0.573781	-0.272158	-0.679270	-15.150234	-78.441078	-110.739071
37999		1.490521	0.412470	4.324238	2.699882	2.880925	-7.467559	0.270807	3.283027	-1.407254	-0.764648	0.311035	0.143066	0.015641	0.003958	0.042995	0.368213	-0.559945	-0.271062	-0.690946	-9.491054	-76.755270	-116.369840
38000		1.769580	0.410845	4.254145	2.551317	2.722661	-7.078902	0.516391	3.294804	-1.629416	-0.764160	0.295410	0.112549	0.018426	0.003851	0.042252	0.368432	-0.545340	-0.271294	-0.702326	-4.601904	-74.998583	-121.106231
38001		2.541853	0.818645	4.332092	2.713889	2.324218	-6.189421	0.627048	3.277740	-1.757992	-0.768066	0.280029	0.082031	0.026194	0.007823	0.042921	0.368331	-0.529991	-0.272224	-0.713678	-0.368110	-73.141263	-125.130215
38002		3.666301	0.635016	4.610108	2.382788	2.315948	-4.908329	0.637761	3.276174	-1.806164	-0.769775	0.262207	0.058350	0.037466	0.005868	0.045511	0.367970	-0.514606	-0.273202	-0.724665	3.073848	-71.243586	-128.361710
38003		5.064750	-0.175895	4.995977	1.449717	2.644693	-3.367499	0.693185	3.301271	-1.825262	-0.778320	0.249023	0.023193	0.051443	-0.002397	0.049107	0.367564	-0.498560	-0.274301	-0.735591	6.000658	-69.247251	-131.044012
38004		6.482734	-0.728547	5.333097	0.588131	2.734400	-1.864927	0.834607	3.385658	-1.844350	-0.770996	0.233398	-0.000488	0.065645	-0.008108	0.052192	0.367434	-0.481981	-0.275692	-0.746110	8.486100	-67.193506	-133.205810
38005		7.444306	-0.809045	5.768996	0.166322	2.706003	-0.757783	1.007356	3.498367	-1.870898	-0.772705	0.215820	-0.026611	0.075355	-0.009079	0.056333	0.367613	-0.464165	-0.277477	-0.756583	10.722224	-65.008075	-135.014818
38006		8.333886	-0.797596	6.023156	-0.337949	2.472623	0.193535	1.161591	3.589961	-1.907557	-0.770020	0.200439	-0.059326	0.084318	-0.009121	0.058673	0.367993	-0.445734	-0.279638	-0.766619	12.716076	-62.776135	-136.494375
38007		9.387832	-0.336366	6.287350	-0.618336	1.899202	1.312334	1.284665	3.649988	-1.930637	-0.766846	0.180420	-0.085205	0.094964	-0.004673	0.061120	0.368461	-0.426334	-0.282074	-0.776473	14.547272	-60.451622	-137.733999
38008		10.631117	0.611019	6.541975	-0.664029	0.942059	2.630710	1.282325	3.703680	-1.951649	-0.761719	0.160645	-0.115479	0.107549	0.004654	0.063469	0.368755	-0.406772	-0.284322	-0.785950	16.149495	-58.113443	-138.743477
38009		11.754221	0.880330	6.745125	-1.334714	0.319076	3.697323	1.146411	3.769586	-1.973551	-0.759033	0.143066	-0.145752	0.118863	0.007256	0.065264	0.368588	-0.386697	-0.285802	-0.795566	17.518575	-55.687232	-139.588951
38010		12.455281	0.944308	6.751193	-2.132533	-0.223569	4.222052	0.998906	3.810493	-2.002740	-0.744873	0.125488	-0.174072	0.125893	0.007857	0.065164	0.367911	-0.366777	-0.286557	-0.804985	18.667434	-53.259740	-140.297850
