// General information: 
//  MT Manager version: 2019.2.0 
//  XDA version: 2019.2.0 build 3853 rev 94535 built on 2019-09-09
// Device information: 
//  DeviceId: 00B40A23
//  ProductCode: MTW2-3A7G6
//  Firmware Version: 4.3.5
//  Hardware Version: 1.1.0
// Device settings: 
//  Filter Profile: human(46.1)
//  Option Flags: Orientation Smoother Disabled, AHS Disabled, ICC Disabled
// Coordinate system: ENU
PacketCounter	SampleTimeFine	Acc_X	Acc_Y	Acc_Z	FreeAcc_E	FreeAcc_N	FreeAcc_U	Gyr_X	Gyr_Y	Gyr_Z	Mag_X	Mag_Y	Mag_Z	VelInc_X	VelInc_Y	VelInc_Z	Quat_q0	Quat_q1	Quat_q2	Quat_q3	Roll	Pitch	Yaw
33503		5.336938	0.906548	8.281976	-0.004892	-0.034092	0.081486	0.008779	0.007216	-0.006114	-0.373291	0.038086	-1.031738	0.053373	0.009060	0.082818	0.955371	0.027428	-0.284398	-0.075046	6.483798	-32.635563	-10.882982
33504		5.335522	0.947678	8.238081	0.023131	0.006817	0.047905	0.006708	0.006930	-0.002024	-0.371338	0.044678	-1.029785	0.053358	0.009473	0.082379	0.955369	0.027436	-0.284402	-0.075049	6.484944	-32.635935	-10.883624
33505		5.319655	0.933466	8.265620	-0.006899	-0.005115	0.061039	0.005791	0.008065	-0.002480	-0.369141	0.044678	-1.031982	0.053200	0.009332	0.082654	0.955370	0.027443	-0.284399	-0.075048	6.485817	-32.635505	-10.883736
33506		5.318924	0.934136	8.266014	-0.007528	-0.004484	0.061039	0.007062	0.009031	-0.002742	-0.371338	0.040283	-1.029785	0.053193	0.009338	0.082658	0.955372	0.027454	-0.284391	-0.075045	6.487035	-32.634463	-10.883681
33507		5.318053	0.934814	8.266498	-0.008177	-0.003913	0.061039	0.005229	0.011302	-0.003654	-0.375488	0.035645	-1.031738	0.053185	0.009345	0.082662	0.955377	0.027462	-0.284372	-0.075050	6.487879	-32.632115	-10.884337
33508		5.295602	0.937764	8.256090	-0.020623	0.002651	0.040505	0.001979	0.005168	-0.001696	-0.371338	0.040283	-1.031982	0.052958	0.009376	0.082560	0.955373	0.027448	-0.284384	-0.075065	6.486802	-32.633637	-10.885918
33509		5.326381	0.927606	8.246168	0.008796	-0.012088	0.047833	0.007225	0.006135	0.000345	-0.371094	0.035889	-1.033936	0.053266	0.009273	0.082460	0.955372	0.027457	-0.284391	-0.075048	6.487547	-32.634489	-10.884268
33510		5.331605	0.951073	8.240225	0.019207	0.010198	0.047911	0.005438	0.005964	-0.001764	-0.373535	0.042480	-1.031982	0.053319	0.009508	0.082401	0.955370	0.027464	-0.284398	-0.075043	6.488367	-32.635269	-10.883950
33511		5.315803	0.936682	8.267733	-0.010830	-0.001727	0.061037	0.004120	0.007440	-0.000306	-0.373535	0.044678	-1.034180	0.053161	0.009365	0.082676	0.955371	0.027460	-0.284398	-0.075034	6.487517	-32.635337	-10.882640
33512		5.302960	0.931546	8.236274	-0.004915	-0.004347	0.027298	0.004522	0.007100	-0.002221	-0.373291	0.038086	-1.036377	0.053033	0.009313	0.082361	0.955370	0.027456	-0.284401	-0.075043	6.487359	-32.635664	-10.883628
33513		5.324006	0.929564	8.247481	0.006174	-0.009816	0.047837	0.004876	0.009201	-0.002939	-0.371338	0.044678	-1.031982	0.053244	0.009293	0.082473	0.955372	0.027460	-0.284392	-0.075045	6.487828	-32.634558	-10.883963
33514		5.313748	0.938150	8.268888	-0.012806	0.000031	0.061035	0.005392	0.008406	-0.000569	-0.373535	0.040283	-1.038574	0.053141	0.009379	0.082687	0.955374	0.027463	-0.284388	-0.075036	6.487730	-32.634092	-10.882804
33515		5.318680	0.961480	8.263144	-0.002391	0.022365	0.061108	0.003558	0.010676	-0.001482	-0.373291	0.035889	-1.029541	0.053191	0.009613	0.082629	0.955379	0.027459	-0.284372	-0.075033	6.486851	-32.632241	-10.882040
33516		5.315407	0.948208	8.210677	0.021854	0.010372	0.014178	0.003813	0.002898	-0.000786	-0.368896	0.040283	-1.027588	0.053155	0.009480	0.082106	0.955372	0.027453	-0.284395	-0.075033	6.486559	-32.635003	-10.882212
33517		5.333557	0.936954	8.280805	-0.003056	-0.004339	0.081575	0.006148	0.010166	-0.003203	-0.369141	0.042480	-1.034180	0.053340	0.009366	0.082806	0.955376	0.027464	-0.284382	-0.075035	6.487813	-32.633331	-10.882651
33518		5.330171	0.923907	8.228394	0.021257	-0.016279	0.034651	0.003653	0.005793	-0.003875	-0.368896	0.035889	-1.029541	0.053304	0.009237	0.082283	0.955374	0.027464	-0.284387	-0.075038	6.487965	-32.633941	-10.883062
33519		5.341810	0.929774	8.260543	0.014006	-0.012465	0.068387	0.003318	0.008121	0.003520	-0.368896	0.038086	-1.031738	0.053421	0.009297	0.082603	0.955377	0.027451	-0.284383	-0.075012	6.485232	-32.633868	-10.879113
33520		5.300350	0.948685	8.292074	-0.035018	0.012629	0.074214	0.003606	0.008235	-0.002680	-0.371338	0.040283	-1.029785	0.053007	0.009485	0.082919	0.955379	0.027454	-0.284377	-0.075008	6.485320	-32.633156	-10.878655
33521		5.306539	0.927431	8.218674	0.007608	-0.008607	0.014110	0.004523	0.007100	-0.002224	-0.371094	0.038086	-1.031738	0.053068	0.009272	0.082185	0.955379	0.027454	-0.284379	-0.075008	6.485413	-32.633292	-10.878668
33522		5.308611	0.941571	8.271798	-0.017996	0.004464	0.061025	0.004523	0.007100	-0.002224	-0.373779	0.046875	-1.038574	0.053089	0.009413	0.082716	0.955378	0.027455	-0.284381	-0.075011	6.485714	-32.633477	-10.879190
33523		5.308139	0.942037	8.272048	-0.018645	0.005035	0.061024	0.003299	0.003692	-0.003157	-0.371094	0.035889	-1.036133	0.053083	0.009418	0.082720	0.955373	0.027450	-0.284397	-0.075018	6.485588	-32.635493	-10.880096
33524		5.311347	0.911185	8.257652	-0.012013	-0.025435	0.047774	-0.000704	0.010560	0.002409	-0.371094	0.038086	-1.038574	0.053118	0.009113	0.082574	0.955380	0.027422	-0.284380	-0.074996	6.480815	-32.633897	-10.875929
33525		5.338050	0.931889	8.262735	0.010125	-0.009129	0.068396	0.007983	0.007897	-0.002292	-0.369141	0.042480	-1.031982	0.053384	0.009315	0.082626	0.955381	0.027440	-0.284379	-0.074991	6.482883	-32.633576	-10.875926
33526		5.315628	0.934997	8.252270	-0.002209	-0.002547	0.047843	0.003607	0.008235	-0.002682	-0.373291	0.038086	-1.036377	0.053160	0.009348	0.082521	0.955383	0.027441	-0.284372	-0.074982	6.482616	-32.632827	-10.874737
33527		5.327220	0.941138	8.284410	-0.009478	0.001284	0.081572	0.005843	0.005624	-0.003682	-0.373291	0.038086	-1.031738	0.053275	0.009408	0.082843	0.955380	0.027450	-0.284381	-0.074987	6.484058	-32.633709	-10.875849
33528		5.320110	0.959010	8.246732	0.007530	0.020304	0.047911	0.004477	0.009541	-0.001031	-0.373535	0.044678	-1.034180	0.053205	0.009588	0.082465	0.955383	0.027450	-0.284372	-0.074987	6.483962	-32.632663	-10.875619
33529		5.291894	0.938965	8.242546	-0.015899	0.005133	0.027286	0.003205	0.008575	-0.000769	-0.368896	0.038086	-1.031738	0.052923	0.009388	0.082423	0.955385	0.027443	-0.284366	-0.074981	6.482710	-32.632053	-10.874535
33530		5.344144	0.926332	8.243709	0.025225	-0.015619	0.055232	0.004880	0.009201	-0.002946	-0.373535	0.042480	-1.036377	0.053445	0.009261	0.082435	0.955388	0.027447	-0.284357	-0.074982	6.483135	-32.630925	-10.874708
33531		5.312265	0.937396	8.254163	-0.005476	0.000257	0.047842	0.004170	0.004999	-0.001507	-0.373535	0.042480	-1.034180	0.053125	0.009372	0.082540	0.955385	0.027444	-0.284368	-0.074979	6.482852	-32.632304	-10.874397
33532		5.289926	0.940311	8.243656	-0.017851	0.006866	0.027282	0.004477	0.009542	-0.001033	-0.371094	0.035889	-1.036133	0.052903	0.009401	0.082434	0.955388	0.027442	-0.284358	-0.074977	6.482258	-32.631249	-10.873845
33533		5.323076	0.943827	8.286767	-0.013424	0.004692	0.081566	0.001823	0.008063	-0.004795	-0.371338	0.042480	-1.031982	0.053234	0.009436	0.082866	0.955388	0.027434	-0.284354	-0.074993	6.481702	-32.630671	-10.875522
33534		5.310305	0.938879	8.255256	-0.007433	0.001957	0.047841	0.009817	0.005628	-0.001378	-0.371338	0.042480	-1.031982	0.053105	0.009384	0.082552	0.955386	0.027460	-0.284364	-0.074977	6.484783	-32.631640	-10.874676
33535		5.331412	0.936748	8.266470	0.003625	-0.003488	0.068404	-0.001573	0.009254	0.000751	-0.366699	0.035889	-1.038574	0.053318	0.009368	0.082662	0.955390	0.027429	-0.284353	-0.074971	6.480210	-32.630743	-10.872512
33536		5.318511	0.931288	8.235104	0.009665	-0.006227	0.034681	0.003609	0.008235	-0.002686	-0.364746	0.044922	-1.031982	0.053189	0.009311	0.082349	0.955393	0.027432	-0.284345	-0.074958	6.480043	-32.629892	-10.870791
33537		5.302424	0.916876	8.262755	-0.020397	-0.018126	0.047776	0.003562	0.010677	-0.001493	-0.369141	0.042480	-1.034180	0.053029	0.009167	0.082625	0.955399	0.027429	-0.284329	-0.074955	6.479171	-32.628040	-10.870035
33538		5.313088	0.963087	8.250783	0.001173	0.026010	0.047900	0.003610	0.008235	-0.002687	-0.371094	0.038086	-1.034180	0.053134	0.009629	0.082506	0.955403	0.027429	-0.284320	-0.074938	6.478453	-32.627080	-10.867693
33539		5.306602	0.940600	8.257441	-0.010543	0.004818	0.047837	0.002693	0.009370	-0.003146	-0.369141	0.046875	-1.029785	0.053070	0.009404	0.082572	0.955405	0.027423	-0.284309	-0.074945	6.477741	-32.625865	-10.868154
33540		5.333361	0.961612	8.262465	0.011595	0.021164	0.068466	0.007118	0.006590	-0.003947	-0.371094	0.038086	-1.027344	0.053337	0.009612	0.082623	0.955404	0.027438	-0.284313	-0.074946	6.479784	-32.626101	-10.868920
33541		5.311762	0.924261	8.296191	-0.029540	-0.012491	0.081494	0.000260	0.006985	0.001665	-0.371094	0.038086	-1.029541	0.053120	0.009243	0.082960	0.955405	0.027413	-0.284314	-0.074933	6.476023	-32.626554	-10.866313
33542		5.326521	0.939314	8.269331	-0.000803	0.000498	0.068405	0.005443	0.005965	-0.001771	-0.371338	0.040283	-1.029785	0.053268	0.009390	0.082692	0.955402	0.027417	-0.284322	-0.074939	6.476878	-32.627494	-10.867351
33543		5.313793	0.934007	8.237841	0.005203	-0.002225	0.034686	0.001531	0.007951	0.001402	-0.371094	0.038086	-1.031738	0.053141	0.009340	0.082376	0.955405	0.027398	-0.284319	-0.074925	6.473901	-32.627379	-10.864847
33544		5.313210	0.934219	8.238193	0.004540	-0.001687	0.034687	0.003255	0.006134	-0.001968	-0.368896	0.038086	-1.031738	0.053135	0.009340	0.082380	0.955403	0.027392	-0.284325	-0.074930	6.473440	-32.628142	-10.865360
33545		5.324826	0.940114	8.270333	-0.002768	0.002179	0.068404	0.001067	0.006302	-0.002164	-0.366699	0.040283	-1.031982	0.053251	0.009400	0.082702	0.955402	0.027376	-0.284329	-0.074935	6.471565	-32.628736	-10.865393
33546		5.321665	0.926613	8.217906	0.021646	-0.009881	0.021546	0.001935	0.007610	-0.000513	-0.368896	0.038086	-1.029541	0.053220	0.009265	0.082177	0.955405	0.027368	-0.284324	-0.074916	6.469675	-32.628390	-10.862605
33547		5.311366	0.934855	8.239310	0.002645	-0.000011	0.034687	0.001887	0.010052	0.000679	-0.369141	0.044678	-1.043213	0.053118	0.009348	0.082391	0.955410	0.027353	-0.284310	-0.074906	6.467078	-32.627032	-10.860428
33548		5.313131	0.948961	8.292561	-0.022965	0.013164	0.081541	0.005287	0.008860	-0.004866	-0.368896	0.038086	-1.036377	0.053135	0.009486	0.082924	0.955414	0.027366	-0.284300	-0.074898	6.468413	-32.625660	-10.859813
33549		5.309831	0.935846	8.240187	0.001410	0.001127	0.034688	0.005395	0.008408	-0.000580	-0.371094	0.035889	-1.033936	0.053102	0.009356	0.082400	0.955416	0.027369	-0.284295	-0.074889	6.468354	-32.625158	-10.858614
33550		5.315433	0.918984	8.278709	-0.016955	-0.016828	0.068346	0.003564	0.010677	-0.001499	-0.366943	0.047119	-1.034180	0.053159	0.009188	0.082784	0.955422	0.027373	-0.284277	-0.074875	6.467930	-32.623100	-10.856642
33551		5.317899	0.928467	8.220134	0.018495	-0.007110	0.021555	0.001068	0.006302	-0.002166	-0.369141	0.042480	-1.029785	0.053182	0.009284	0.082200	0.955421	0.027356	-0.284281	-0.074879	6.466056	-32.623693	-10.856675
33552		5.313994	0.919562	8.279569	-0.018197	-0.015627	0.068346	0.003564	0.010677	-0.001500	-0.373535	0.042480	-1.029785	0.053144	0.009194	0.082793	0.955428	0.027353	-0.284262	-0.074864	6.464707	-32.621577	-10.854298
33553		5.322117	0.951994	8.214820	0.028329	0.015846	0.021612	0.003208	0.008576	-0.000778	-0.371094	0.038086	-1.038574	0.053225	0.009518	0.082146	0.955430	0.027346	-0.284256	-0.074859	6.463459	-32.620965	-10.853219
33554		5.327706	0.935118	8.253351	0.009919	-0.002050	0.055271	0.003969	0.010336	-0.003414	-0.375732	0.037842	-1.031738	0.053281	0.009349	0.082531	0.955434	0.027347	-0.284242	-0.074867	6.463672	-32.619245	-10.854076
33555		5.326767	0.935534	8.253910	0.009271	-0.001480	0.055272	0.002648	0.011812	-0.001961	-0.371094	0.038086	-1.029541	0.053273	0.009354	0.082536	0.955440	0.027340	-0.284220	-0.074867	6.462401	-32.616715	-10.853549
33556		5.304274	0.938568	8.243456	-0.003116	0.005026	0.034686	0.007122	0.006591	-0.003950	-0.373291	0.038086	-1.033936	0.053046	0.009382	0.082433	0.955436	0.027354	-0.284227	-0.074887	6.465077	-32.617321	-10.856797
33557		5.276086	0.918591	8.239210	-0.026510	-0.010174	0.014046	0.002755	0.011361	0.002325	-0.373535	0.040283	-1.031982	0.052765	0.009185	0.082389	0.955444	0.027341	-0.284208	-0.074867	6.462325	-32.615324	-10.853408
33558		5.333837	0.928791	8.234449	0.025581	-0.009173	0.042153	0.004326	0.012437	-0.004139	-0.369141	0.042480	-1.031982	0.053344	0.009285	0.082341	0.955449	0.027345	-0.284186	-0.074886	6.463078	-32.612516	-10.855637
33559		5.345071	0.935079	8.266780	0.018243	-0.005279	0.075864	0.006207	0.007725	-0.004411	-0.369141	0.044678	-1.034180	0.053454	0.009347	0.082666	0.955448	0.027357	-0.284184	-0.074894	6.464907	-32.612154	-10.857079
33560		5.300879	0.940579	8.245410	-0.005711	0.007304	0.034683	0.003565	0.010678	-0.001504	-0.371338	0.042480	-1.036377	0.053013	0.009404	0.082451	0.955455	0.027353	-0.284166	-0.074882	6.463732	-32.610123	-10.855183
33561		5.328047	0.921215	8.294924	-0.012456	-0.016543	0.088932	0.003565	0.010678	-0.001505	-0.371094	0.038086	-1.029541	0.053285	0.009210	0.082947	0.955460	0.027350	-0.284150	-0.074879	6.462868	-32.608268	-10.854435
33562		5.299144	0.941419	8.246430	-0.007013	0.008425	0.034682	0.004887	0.009201	-0.002958	-0.375732	0.042480	-1.034180	0.052995	0.009411	0.082462	0.955462	0.027354	-0.284142	-0.074883	6.463470	-32.607185	-10.854952
33563		5.320089	0.939368	8.257781	0.004007	0.003010	0.055275	0.001427	0.008403	-0.002894	-0.371338	0.040283	-1.031982	0.053204	0.009392	0.082576	0.955464	0.027342	-0.284135	-0.074890	6.461980	-32.606535	-10.855317
33564		5.313607	0.916971	8.264433	-0.007758	-0.018178	0.055226	0.007075	0.009034	-0.002761	-0.375977	0.044678	-1.034180	0.053140	0.009166	0.082642	0.955464	0.027353	-0.284131	-0.074900	6.463703	-32.605782	-10.856939
33565		5.318588	0.940286	8.258643	0.002667	0.004150	0.055275	-0.000761	0.008571	-0.003093	-0.373291	0.038086	-1.031738	0.053190	0.009402	0.082584	0.955466	0.027330	-0.284123	-0.074911	6.461025	-32.605024	-10.857426
33566		5.296187	0.943191	8.248127	-0.009706	0.010701	0.034677	0.007991	0.007899	-0.002301	-0.373535	0.044678	-1.034180	0.052965	0.009428	0.082480	0.955464	0.027343	-0.284125	-0.074923	6.463180	-32.605057	-10.859467
33567		5.321164	0.910306	8.244670	0.008602	-0.025789	0.042123	0.003258	0.006134	-0.001974	-0.368896	0.040283	-1.036377	0.053214	0.009101	0.082445	0.955463	0.027337	-0.284130	-0.074923	6.462498	-32.605759	-10.859384
33568		5.307094	0.949775	8.280620	-0.017699	0.015200	0.068377	0.004125	0.007443	-0.000323	-0.373535	0.044678	-1.036377	0.053074	0.009496	0.082804	0.955464	0.027333	-0.284129	-0.074911	6.461520	-32.605777	-10.857572
33569		5.310364	0.919200	8.266270	-0.011053	-0.015310	0.055228	0.004531	0.007101	-0.002237	-0.368896	0.038086	-1.038574	0.053107	0.009190	0.082661	0.955464	0.027334	-0.284131	-0.074910	6.461623	-32.605912	-10.857593
33570		5.293847	0.945077	8.249413	-0.012262	0.012993	0.034672	0.005447	0.005967	-0.001776	-0.373535	0.040283	-1.031982	0.052941	0.009448	0.082493	0.955463	0.027340	-0.284136	-0.074898	6.462111	-32.606599	-10.856288
33571		5.330748	0.917711	8.277931	-0.000674	-0.020147	0.075831	0.004433	0.011987	0.000141	-0.371582	0.046875	-1.034180	0.053312	0.009175	0.082776	0.955470	0.027339	-0.284114	-0.074886	6.461091	-32.604106	-10.854328
33572		5.329366	0.958439	8.234055	0.027526	0.020623	0.042221	0.007126	0.006591	-0.003953	-0.369141	0.042480	-1.031982	0.053297	0.009580	0.082339	0.955467	0.027350	-0.284120	-0.074897	6.463105	-32.604580	-10.856353
33573		5.338928	0.910636	8.257827	0.016378	-0.028296	0.062739	-0.000760	0.008571	-0.003097	-0.368896	0.040283	-1.031982	0.053393	0.009106	0.082576	0.955470	0.027328	-0.284112	-0.074909	6.460429	-32.603822	-10.856842
33574		5.312529	0.944336	8.262080	-0.003195	0.009335	0.055271	0.003567	0.010678	-0.001511	-0.377930	0.042236	-1.034180	0.053130	0.009441	0.082618	0.955476	0.027325	-0.284095	-0.074900	6.459517	-32.601828	-10.855375
33575		5.315713	0.913706	8.247809	0.003455	-0.021181	0.042137	0.003260	0.006135	-0.001976	-0.369141	0.042480	-1.031982	0.053160	0.009135	0.082477	0.955474	0.027319	-0.284100	-0.074901	6.458836	-32.602529	-10.855293
33576		5.316884	0.967923	8.256656	0.006543	0.032246	0.055312	0.002295	0.009712	-0.001249	-0.373535	0.040283	-1.036377	0.053173	0.009678	0.082564	0.955477	0.027305	-0.284090	-0.074910	6.457138	-32.601498	-10.855850
33577		5.320017	0.937199	8.242432	0.013194	0.001728	0.042181	0.003210	0.008578	-0.000788	-0.371338	0.044678	-1.029785	0.053204	0.009370	0.082422	0.955479	0.027298	-0.284084	-0.074905	6.455896	-32.600885	-10.854778
33578		5.309667	0.945614	8.263774	-0.005854	0.011647	0.055268	0.003211	0.008578	-0.000788	-0.369141	0.042480	-1.034180	0.053100	0.009455	0.082636	0.955481	0.027288	-0.284080	-0.074906	6.454567	-32.600427	-10.854525
33579		5.324904	0.920639	8.281366	-0.005938	-0.015506	0.075838	0.003618	0.008235	-0.002702	-0.366943	0.042480	-1.038574	0.053253	0.009204	0.082812	0.955482	0.027285	-0.284075	-0.074909	6.454269	-32.599886	-10.854774
33580		5.308216	0.946576	8.264596	-0.007083	0.012803	0.055265	0.007079	0.009034	-0.002767	-0.368896	0.040283	-1.036377	0.053086	0.009462	0.082644	0.955486	0.027304	-0.284064	-0.074888	6.455744	-32.598514	-10.852565
33581		5.289770	0.918353	8.239361	-0.012071	-0.011753	0.021530	0.000258	0.006987	0.001651	-0.371338	0.042480	-1.027588	0.052901	0.009184	0.082392	0.955488	0.027279	-0.284065	-0.074876	6.451988	-32.598963	-10.849967
33582		5.316574	0.939156	8.244431	0.010004	0.004607	0.042184	0.007995	0.007900	-0.002305	-0.373535	0.042480	-1.031982	0.053169	0.009388	0.082443	0.955488	0.027296	-0.284063	-0.074870	6.454059	-32.598614	-10.849915
33583		5.290894	0.932969	8.292853	-0.038484	0.002095	0.068300	0.001938	0.007611	-0.000527	-0.369141	0.042480	-1.036377	0.052912	0.009329	0.082927	0.955489	0.027282	-0.284061	-0.074866	6.452032	-32.598568	-10.848741
33584		5.315253	0.939956	8.245192	0.008709	0.005762	0.042185	0.003619	0.008235	-0.002704	-0.371094	0.038086	-1.034180	0.053156	0.009397	0.082450	0.955491	0.027279	-0.284057	-0.074869	6.451624	-32.598046	-10.848949
33585		5.314556	0.940483	8.245581	0.008061	0.006331	0.042185	0.005807	0.008068	-0.002505	-0.369141	0.044678	-1.031982	0.053149	0.009402	0.082454	0.955491	0.027287	-0.284054	-0.074868	6.452516	-32.597613	-10.849077
33586		5.304217	0.949209	8.266861	-0.010960	0.016239	0.055257	0.005807	0.008068	-0.002505	-0.371338	0.042480	-1.025391	0.053046	0.009489	0.082667	0.955493	0.027295	-0.284050	-0.074864	6.453399	-32.597120	-10.848857
33587		5.307335	0.918675	8.252651	-0.004303	-0.014287	0.042149	0.001789	0.010503	-0.003630	-0.375732	0.037842	-1.033936	0.053078	0.009185	0.082524	0.955497	0.027286	-0.284034	-0.074874	6.452298	-32.595228	-10.849560
33588		5.312430	0.942191	8.246756	0.006058	0.008017	0.042185	0.008961	0.004323	-0.003031	-0.371338	0.040283	-1.036377	0.053126	0.009417	0.082467	0.955489	0.027303	-0.284054	-0.074892	6.455567	-32.597274	-10.852811
33589		5.349407	0.915046	8.275261	0.017588	-0.025083	0.083396	0.003569	0.010679	-0.001519	-0.373291	0.038086	-1.029541	0.053499	0.009149	0.082750	0.955494	0.027299	-0.284037	-0.074889	6.454710	-32.595418	-10.852073
33590		5.314935	0.912512	8.232855	0.012034	-0.021980	0.029086	0.007031	0.007040	-0.008247	-0.368896	0.040283	-1.025146	0.053153	0.009120	0.082327	0.955490	0.027321	-0.284041	-0.074921	6.458727	-32.595352	-10.857086
33591		5.300624	0.952365	8.268802	-0.014305	0.019033	0.055247	0.004485	0.009545	-0.001057	-0.366943	0.042480	-1.034180	0.053010	0.009522	0.082686	0.955494	0.027320	-0.284030	-0.074915	6.458273	-32.594171	-10.856123
33592		5.340876	0.934191	8.238395	0.033473	-0.005040	0.049750	0.004028	0.007893	-0.004621	-0.369141	0.044678	-1.029785	0.053412	0.009339	0.082382	0.955494	0.027323	-0.284026	-0.074922	6.458863	-32.593555	-10.857146
33593		5.303148	0.922322	8.254936	-0.008269	-0.010925	0.042151	0.004127	0.007444	-0.000331	-0.371338	0.044678	-1.034180	0.053035	0.009221	0.082548	0.955495	0.027319	-0.284026	-0.074913	6.458026	-32.593617	-10.855853
33594		5.317896	0.937582	8.228161	0.020565	0.002105	0.029126	0.005808	0.008068	-0.002508	-0.371338	0.040283	-1.034180	0.053182	0.009373	0.082280	0.955496	0.027324	-0.284022	-0.074913	6.458531	-32.593185	-10.855957
33595		5.301950	0.923479	8.255576	-0.009554	-0.009731	0.042151	0.006774	0.004491	-0.003232	-0.366699	0.042480	-1.031982	0.053021	0.009231	0.082555	0.955491	0.027336	-0.284037	-0.074915	6.460389	-32.594742	-10.856850
33596		5.323030	0.921740	8.266853	0.001445	-0.015110	0.062782	0.003522	0.008683	-0.006999	-0.373535	0.040283	-1.031982	0.053234	0.009214	0.082666	0.955493	0.027341	-0.284028	-0.074932	6.461535	-32.593511	-10.859074
33597		5.316121	0.939567	8.229082	0.018652	0.003811	0.029129	0.007231	0.006144	0.000331	-0.371338	0.042480	-1.031982	0.053164	0.009393	0.082290	0.955491	0.027350	-0.284035	-0.074916	6.462289	-32.594356	-10.857433
33598		5.290353	0.933532	8.277487	-0.029897	0.001332	0.055201	0.004387	0.009993	-0.005351	-0.371338	0.040283	-1.029785	0.052908	0.009332	0.082772	0.955493	0.027353	-0.284024	-0.074940	6.463359	-32.592847	-10.860550
33599		5.314687	0.940663	8.229883	0.017323	0.004949	0.029131	0.002347	0.007269	-0.002447	-0.366943	0.044678	-1.034180	0.053150	0.009405	0.082297	0.955493	0.027344	-0.284023	-0.074944	6.462280	-32.592873	-10.860700
33600		5.298613	0.926276	8.257405	-0.012778	-0.006861	0.042150	0.003621	0.008236	-0.002711	-0.371338	0.040283	-1.034180	0.052990	0.009261	0.082572	0.955495	0.027341	-0.284018	-0.074943	6.461816	-32.592226	-10.860407
33601		5.313365	0.941445	8.230647	0.016052	0.006106	0.029133	0.004127	0.007445	-0.000334	-0.373535	0.042480	-1.034180	0.053137	0.009413	0.082305	0.955496	0.027337	-0.284017	-0.074934	6.460981	-32.592287	-10.859116
33602		5.290998	0.944333	8.220060	0.003772	0.012618	0.008496	0.004895	0.009202	-0.002975	-0.371338	0.044678	-1.029785	0.052914	0.009441	0.082198	0.955497	0.027340	-0.284010	-0.074942	6.461504	-32.591310	-10.860099
33603		5.306180	0.919445	8.237730	0.003651	-0.014510	0.029106	0.003212	0.008579	-0.000799	-0.373291	0.038086	-1.033936	0.053065	0.009193	0.082375	0.955500	0.027333	-0.284003	-0.074937	6.460266	-32.590696	-10.859035
33604		5.323140	0.948405	8.263802	0.007265	0.011229	0.062815	0.004486	0.009546	-0.001063	-0.371338	0.044678	-1.029785	0.053235	0.009482	0.082636	0.955502	0.027330	-0.283995	-0.074940	6.459852	-32.589716	-10.859281
33605		5.294989	0.928373	8.259494	-0.016075	-0.004012	0.042146	0.003622	0.008236	-0.002713	-0.368652	0.031494	-1.033936	0.052953	0.009282	0.082593	0.955503	0.027327	-0.283991	-0.074944	6.459560	-32.589174	-10.859537
33606		5.331370	0.941156	8.243758	0.024359	0.002957	0.049778	0.003622	0.008236	-0.002713	-0.368896	0.038086	-1.029541	0.053317	0.009409	0.082436	0.955504	0.027327	-0.283986	-0.074947	6.459628	-32.588611	-10.859871
33607		5.293668	0.929225	8.260245	-0.017377	-0.002926	0.042144	0.003264	0.006135	-0.001985	-0.366699	0.040283	-1.031982	0.052939	0.009290	0.082601	0.955503	0.027321	-0.283991	-0.074947	6.458953	-32.589312	-10.859796
33608		5.324365	0.919141	8.250730	0.012003	-0.017689	0.049755	0.004896	0.009203	-0.002978	-0.369141	0.042480	-1.031982	0.053248	0.009189	0.082505	0.955506	0.027329	-0.283981	-0.074943	6.459634	-32.588013	-10.859361
33609		5.307745	0.945001	8.233865	0.010841	0.010569	0.029136	0.006316	0.007279	-0.000136	-0.371338	0.044678	-1.034180	0.053080	0.009447	0.082337	0.955506	0.027336	-0.283982	-0.074930	6.459988	-32.588182	-10.857949
33610		5.297399	0.953634	8.255105	-0.008195	0.020538	0.042166	0.005402	0.008413	-0.000601	-0.371338	0.044678	-1.038574	0.052977	0.009534	0.082549	0.955509	0.027337	-0.283977	-0.074919	6.459673	-32.587649	-10.856530
33611		5.359377	0.933133	8.235761	0.051156	-0.009491	0.057404	0.007085	0.009036	-0.002779	-0.369141	0.042480	-1.034180	0.053598	0.009328	0.082356	0.955510	0.027351	-0.283970	-0.074918	6.461356	-32.586647	-10.856769
33612		5.300020	0.923708	8.241218	-0.002144	-0.009405	0.029113	0.001991	0.005168	-0.001722	-0.375488	0.035645	-1.033936	0.053002	0.009236	0.082411	0.955509	0.027339	-0.283978	-0.074910	6.459615	-32.587779	-10.855477
33613		5.295396	0.955184	8.256211	-0.010107	0.022281	0.042160	0.004392	0.009993	-0.005358	-0.371338	0.044678	-1.034180	0.052958	0.009549	0.082560	0.955512	0.027345	-0.283965	-0.074925	6.460654	-32.586066	-10.857386
33614		5.298386	0.924653	8.242163	-0.003483	-0.008289	0.029113	0.005300	0.013301	0.001765	-0.369141	0.042480	-1.034180	0.052989	0.009245	0.082418	0.955520	0.027344	-0.283940	-0.074914	6.459682	-32.583166	-10.855484
33615		5.313475	0.899916	8.259900	-0.003626	-0.035401	0.049744	0.007137	0.006592	-0.003964	-0.373535	0.044678	-1.034180	0.053138	0.008995	0.082598	0.955518	0.027359	-0.283944	-0.074918	6.461928	-32.583479	-10.856711
33616		5.255756	0.944585	8.273753	-0.053180	0.017554	0.034498	0.005761	0.010513	-0.001333	-0.366699	0.040283	-1.031982	0.052562	0.009443	0.082735	0.955522	0.027363	-0.283930	-0.074913	6.462019	-32.581779	-10.855961
33617		5.307986	0.932199	8.275350	-0.012243	-0.003104	0.062785	0.005813	0.008069	-0.002517	-0.373535	0.042480	-1.029785	0.053083	0.009319	0.082752	0.955523	0.027371	-0.283927	-0.074912	6.462918	-32.581345	-10.856097
33618		5.307243	0.932770	8.275762	-0.012899	-0.002529	0.062785	0.003120	0.009025	-0.005097	-0.366699	0.038086	-1.036377	0.053076	0.009325	0.082755	0.955524	0.027369	-0.283918	-0.074931	6.463159	-32.580245	-10.858324
33619		5.284802	0.935746	8.265184	-0.025135	0.003967	0.042127	0.006676	0.009380	-0.000869	-0.375977	0.044678	-1.036377	0.052852	0.009354	0.082650	0.955527	0.027378	-0.283910	-0.074921	6.463900	-32.579170	-10.857247
33620		5.321012	0.948530	8.249602	0.015304	0.010988	0.049790	0.000881	0.011636	-0.004116	-0.373535	0.042480	-1.031982	0.053215	0.009484	0.082493	0.955534	0.027367	-0.283887	-0.074931	6.462401	-32.576579	-10.857788
33621		5.314359	0.926296	8.256379	0.003566	-0.010193	0.049772	0.010550	0.009838	-0.002846	-0.373291	0.038086	-1.033936	0.053148	0.009258	0.082562	0.955536	0.027398	-0.283878	-0.074925	6.466061	-32.575116	-10.858011
33622		5.298128	0.912263	8.283920	-0.026637	-0.022013	0.062763	0.001847	0.008058	-0.004835	-0.371338	0.042480	-1.029785	0.052985	0.009121	0.082837	0.955535	0.027387	-0.283876	-0.074954	6.465714	-32.574835	-10.861368
33623		5.308980	0.958454	8.271748	-0.005105	0.022057	0.062798	0.005044	0.006313	0.000124	-0.373291	0.035645	-1.027344	0.053092	0.009582	0.082716	0.955534	0.027387	-0.283881	-0.074942	6.465284	-32.575570	-10.859855
33624		5.312460	0.927967	8.257413	0.001500	-0.008534	0.049774	0.005866	0.005625	-0.003702	-0.368896	0.040283	-1.034180	0.053127	0.009276	0.082573	0.955528	0.027392	-0.283893	-0.074965	6.467055	-32.576790	-10.863260
33625		5.317545	0.951411	8.251506	0.011944	0.013784	0.049791	0.004489	0.009547	-0.001073	-0.371094	0.038086	-1.031738	0.053179	0.009512	0.082513	0.955532	0.027392	-0.283883	-0.074959	6.466609	-32.575608	-10.862308
33626		5.301331	0.937102	8.279061	-0.018209	0.001954	0.062776	0.003626	0.008236	-0.002722	-0.373535	0.040283	-1.034180	0.053017	0.009369	0.082789	0.955533	0.027391	-0.283878	-0.074960	6.466543	-32.575033	-10.862461
33627		5.304269	0.946582	8.220385	0.017486	0.011427	0.016126	0.003678	0.005791	-0.003904	-0.366943	0.047119	-1.036621	0.053045	0.009463	0.082202	0.955531	0.027390	-0.283885	-0.074970	6.466818	-32.575807	-10.863710
33628		5.299880	0.938118	8.279875	-0.019485	0.003135	0.062774	0.005208	0.013748	-0.002537	-0.373535	0.042480	-1.031982	0.053005	0.009378	0.082795	0.955540	0.027396	-0.283854	-0.074964	6.466844	-32.572055	-10.862721
33629		5.330338	0.928247	8.270573	0.009852	-0.011594	0.070444	0.008004	0.007904	-0.002320	-0.373779	0.046875	-1.036377	0.053307	0.009279	0.082704	0.955540	0.027414	-0.283852	-0.074959	6.468933	-32.571728	-10.862737
33630		5.335203	0.951837	8.264788	0.020255	0.010780	0.070459	0.006123	0.012615	-0.002072	-0.375732	0.040283	-1.036377	0.053357	0.009515	0.082645	0.955546	0.027417	-0.283830	-0.074967	6.469335	-32.569025	-10.863619
33631		5.306978	0.931733	8.260514	-0.003057	-0.004483	0.049777	0.000164	0.007434	-0.002661	-0.369141	0.044678	-1.029785	0.053073	0.009317	0.082603	0.955547	0.027398	-0.283828	-0.074975	6.467077	-32.568943	-10.863902
33632		5.278800	0.911634	8.256204	-0.026400	-0.019727	0.029093	0.005261	0.011304	-0.003721	-0.373291	0.038086	-1.027344	0.052793	0.009113	0.082559	0.955550	0.027402	-0.283811	-0.074990	6.467866	-32.566805	-10.865730
33633		5.305249	0.932716	8.261513	-0.004387	-0.003323	0.049777	0.005764	0.010515	-0.001342	-0.371338	0.042480	-1.036377	0.053057	0.009324	0.082613	0.955555	0.027408	-0.283797	-0.074984	6.468208	-32.565054	-10.864886
33634		5.319800	0.947976	8.234937	0.024432	0.009590	0.036801	0.004850	0.011648	-0.001810	-0.368896	0.038086	-1.027344	0.053203	0.009477	0.082346	0.955560	0.027409	-0.283779	-0.074992	6.468307	-32.562874	-10.865717
33635		5.276023	0.913333	8.257792	-0.028388	-0.018035	0.029090	0.006176	0.010171	-0.003256	-0.371338	0.044678	-1.034180	0.052765	0.009130	0.082576	0.955563	0.027420	-0.283766	-0.074994	6.469597	-32.561196	-10.866192
33636		5.312226	0.926333	8.242250	0.012028	-0.011015	0.036793	0.005262	0.011304	-0.003724	-0.369141	0.042480	-1.034180	0.053127	0.009260	0.082420	0.955567	0.027426	-0.283748	-0.075004	6.470467	-32.558927	-10.867536
33637		5.312925	0.980868	8.251141	0.015153	0.042440	0.049796	0.004348	0.012437	-0.004192	-0.364502	0.038086	-1.031982	0.053135	0.009806	0.082508	0.955574	0.027431	-0.283723	-0.075013	6.470955	-32.555899	-10.868470
33638		5.322178	0.932926	8.275300	0.003920	-0.006402	0.070453	0.000203	0.009435	0.002808	-0.364502	0.040283	-1.029785	0.053226	0.009330	0.082750	0.955581	0.027409	-0.283710	-0.074982	6.466666	-32.554730	-10.863333
33639		5.309459	0.927583	8.243892	0.010136	-0.009320	0.036796	0.009641	0.010973	-0.003320	-0.373535	0.042480	-1.027588	0.053099	0.009271	0.082436	0.955585	0.027437	-0.283694	-0.074979	6.469930	-32.552591	-10.863791
33640		5.298790	0.936497	8.265229	-0.008945	0.000651	0.049774	0.005765	0.010515	-0.001346	-0.369141	0.044678	-1.036377	0.052992	0.009362	0.082650	0.955589	0.027442	-0.283680	-0.074978	6.470242	-32.550908	-10.863665
33641		5.329294	0.926416	8.255979	0.020384	-0.014079	0.057480	0.003577	0.010681	-0.001549	-0.366943	0.042480	-1.034180	0.053297	0.009262	0.082557	0.955594	0.027438	-0.283664	-0.074976	6.469400	-32.549049	-10.862949
33642		5.297094	0.937304	8.266226	-0.010192	0.001831	0.049773	0.003217	0.008581	-0.000817	-0.369141	0.042480	-1.036377	0.052975	0.009371	0.082660	0.955598	0.027432	-0.283655	-0.074959	6.467837	-32.548195	-10.860416
33643		5.311874	0.952257	8.239558	0.018682	0.014748	0.036808	0.001028	0.008746	-0.001020	-0.371338	0.042480	-1.034180	0.053122	0.009522	0.082393	0.955601	0.027415	-0.283648	-0.074958	6.465423	-32.547473	-10.859490
33644		5.317325	0.935459	8.278133	0.000070	-0.002909	0.070455	0.004544	0.007103	-0.002262	-0.371338	0.042480	-1.034180	0.053176	0.009352	0.082780	0.955601	0.027415	-0.283648	-0.074955	6.465392	-32.547578	-10.859195
33645		5.273503	0.940616	8.256303	-0.023676	0.009459	0.029085	0.004633	0.006660	0.002031	-0.369141	0.042480	-1.027588	0.052738	0.009405	0.082561	0.955602	0.027410	-0.283652	-0.074935	6.464019	-32.548240	-10.856368
33646		5.304364	0.930312	8.246864	0.005633	-0.005248	0.036803	0.001081	0.006301	-0.002200	-0.375977	0.044678	-1.036377	0.053046	0.009302	0.082467	0.955600	0.027391	-0.283657	-0.074946	6.462035	-32.548955	-10.857238
33647		5.293968	0.938797	8.268058	-0.013442	0.004723	0.049768	0.003631	0.008236	-0.002731	-0.375977	0.044678	-1.029785	0.052943	0.009386	0.082679	0.955601	0.027388	-0.283653	-0.074950	6.461754	-32.548413	-10.857506
33648		5.293305	0.939199	8.268437	-0.014183	0.005348	0.049766	0.004132	0.007448	-0.000350	-0.366699	0.040283	-1.029785	0.052936	0.009390	0.082683	0.955599	0.027374	-0.283658	-0.074967	6.460680	-32.549067	-10.859311
33649		5.306459	0.900394	8.233431	0.010925	-0.034638	0.023841	0.003631	0.008236	-0.002732	-0.369141	0.042480	-1.034180	0.053068	0.009002	0.082332	0.955600	0.027372	-0.283653	-0.074970	6.460400	-32.548524	-10.859581
33650		5.297776	0.963051	8.262864	-0.004354	0.028236	0.049767	0.005873	0.005625	-0.003707	-0.366699	0.042480	-1.027588	0.052980	0.009627	0.082627	0.955597	0.027382	-0.283660	-0.074970	6.461809	-32.549266	-10.860079
33651		5.311092	0.924437	8.227741	0.020757	-0.011753	0.023849	0.003684	0.005791	-0.003911	-0.364502	0.042725	-1.031982	0.053113	0.009242	0.082276	0.955595	0.027380	-0.283667	-0.074980	6.462088	-32.550040	-10.861332
33652		5.312493	0.938852	8.280851	-0.005159	0.001765	0.070454	0.004493	0.009549	-0.001086	-0.371338	0.042480	-1.034180	0.053129	0.009386	0.082806	0.955600	0.027381	-0.283654	-0.074964	6.461403	-32.548572	-10.859144
33653		5.294183	0.910790	8.255617	-0.010014	-0.022927	0.036805	0.008009	0.007906	-0.002326	-0.371094	0.038086	-1.029541	0.052945	0.009104	0.082554	0.955600	0.027399	-0.283653	-0.074959	6.463497	-32.548243	-10.859164
33654		5.332886	0.937921	8.292565	0.005043	-0.002998	0.091149	0.006340	0.002835	-0.006800	-0.371094	0.038086	-1.034180	0.053330	0.009375	0.082925	0.955591	0.027412	-0.283676	-0.074987	6.466615	-32.550690	-10.863654
33655		5.277274	0.937607	8.238732	-0.011775	0.005830	0.016110	0.004906	0.009204	-0.003000	-0.371338	0.040283	-1.036377	0.052777	0.009373	0.082385	0.955593	0.027416	-0.283667	-0.074990	6.467123	-32.549579	-10.864030
33656		5.323825	0.902396	8.246785	0.017959	-0.036568	0.044555	0.005821	0.008071	-0.002531	-0.375732	0.042480	-1.034180	0.053242	0.009021	0.082466	0.955593	0.027425	-0.283665	-0.074990	6.468282	-32.549197	-10.864346
33657		5.297469	0.936503	8.250594	-0.001552	0.001045	0.036806	0.006235	0.007726	-0.004444	-0.371094	0.033691	-1.036133	0.052978	0.009361	0.082504	0.955593	0.027437	-0.283664	-0.074998	6.470137	-32.548835	-10.865811
33658		5.314383	0.965808	8.276573	0.001940	0.026833	0.070449	0.004546	0.007103	-0.002267	-0.369141	0.044678	-1.029785	0.053147	0.009656	0.082764	0.955591	0.027438	-0.283668	-0.075008	6.470684	-32.549233	-10.867165
33659		5.323486	0.958255	8.256128	0.019727	0.017989	0.057505	0.007096	0.009039	-0.002798	-0.373779	0.046875	-1.029785	0.053239	0.009579	0.082559	0.955593	0.027453	-0.283660	-0.075006	6.472381	-32.548229	-10.867418
33660		5.295529	0.938236	8.251643	-0.003585	0.002779	0.036805	0.001997	0.005168	-0.001736	-0.371338	0.040283	-1.036377	0.052958	0.009381	0.082515	0.955588	0.027431	-0.283672	-0.075022	6.470441	-32.549776	-10.868888
33661		5.310504	0.953469	8.224844	0.025309	0.015673	0.023863	0.008010	0.007906	-0.002329	-0.371094	0.035889	-1.031738	0.053108	0.009531	0.082247	0.955589	0.027449	-0.283671	-0.075017	6.472537	-32.549448	-10.868911
33662		5.288641	0.916520	8.258534	-0.016010	-0.017876	0.036807	0.003686	0.005790	-0.003915	-0.368896	0.038086	-1.034180	0.052889	0.009163	0.082584	0.955585	0.027449	-0.283679	-0.075030	6.473193	-32.550315	-10.870646
33663		5.315432	0.937610	8.263648	0.005968	-0.001445	0.057509	0.004961	0.006758	-0.004181	-0.371094	0.038086	-1.031738	0.053157	0.009373	0.082635	0.955584	0.027455	-0.283682	-0.075038	6.474262	-32.550520	-10.872008
33664		5.324633	0.930001	8.243160	0.023747	-0.010344	0.044575	0.004547	0.007104	-0.002269	-0.371338	0.042480	-1.034180	0.053249	0.009298	0.082430	0.955583	0.027458	-0.283683	-0.075038	6.474728	-32.550666	-10.872193
33665		5.331815	0.967458	8.289896	0.008843	0.024931	0.091145	0.005876	0.005626	-0.003712	-0.369141	0.042480	-1.036377	0.053321	0.009671	0.082898	0.955580	0.027467	-0.283692	-0.075044	6.476198	-32.551546	-10.873325
33666		5.304046	0.947433	8.285287	-0.014420	0.009662	0.070440	0.002911	0.004036	-0.001268	-0.369141	0.042480	-1.036377	0.053042	0.009473	0.082852	0.955576	0.027457	-0.283707	-0.075039	6.474980	-32.553454	-10.872568
33667		5.307736	0.916794	8.270963	-0.007734	-0.020933	0.057516	0.002827	0.004477	-0.005563	-0.371338	0.040283	-1.031982	0.053079	0.009165	0.082709	0.955571	0.027453	-0.283719	-0.075058	6.475423	-32.554869	-10.875038
33668		5.281633	0.950776	8.274576	-0.027231	0.016685	0.049726	0.006375	0.004839	-0.001330	-0.373535	0.044678	-1.036377	0.052818	0.009505	0.082745	0.955568	0.027460	-0.283732	-0.075050	6.476309	-32.556344	-10.874513
33669		5.322467	0.932348	8.244293	0.020520	-0.007471	0.044585	-0.001467	0.004365	-0.001676	-0.371094	0.038086	-1.031738	0.053227	0.009324	0.082442	0.955564	0.027430	-0.283744	-0.075056	6.472884	-32.558073	-10.874366
33670		5.296670	0.926074	8.292453	-0.028155	-0.009786	0.070441	0.005461	0.005972	-0.001800	-0.373535	0.040283	-1.031982	0.052969	0.009258	0.082923	0.955561	0.027432	-0.283753	-0.075060	6.473421	-32.559068	-10.875087
33671		5.321500	0.932982	8.244846	0.019192	-0.006328	0.044589	0.001083	0.006301	-0.002209	-0.369141	0.042480	-1.034180	0.053218	0.009329	0.082447	0.955560	0.027416	-0.283757	-0.075065	6.471571	-32.559662	-10.875152
33672		5.299360	0.935630	8.234038	0.007014	0.000117	0.023875	0.003272	0.006136	-0.002005	-0.368896	0.038086	-1.027344	0.052996	0.009354	0.082339	0.955558	0.027408	-0.283763	-0.075071	6.470905	-32.560486	-10.875740
33673		5.326559	0.916699	8.283618	-0.000172	-0.023368	0.078235	0.006375	0.004839	-0.001330	-0.366699	0.038086	-1.027344	0.053268	0.009164	0.082835	0.955555	0.027416	-0.283776	-0.075064	6.471828	-32.561968	-10.875323
33674		5.310168	0.942417	8.266485	-0.001224	0.004769	0.057510	0.004133	0.007450	-0.000359	-0.371094	0.038086	-1.029541	0.053105	0.009422	0.082663	0.955555	0.027414	-0.283776	-0.075057	6.471318	-32.562001	-10.874400
33675		5.309374	0.942914	8.266939	-0.001873	0.005339	0.057509	0.005271	0.011304	-0.003745	-0.366943	0.042480	-1.034180	0.053099	0.009426	0.082667	0.955560	0.027422	-0.283757	-0.075063	6.472220	-32.559647	-10.875119
33676		5.314412	0.966396	8.261024	0.008595	0.027637	0.057499	0.004602	0.004658	-0.003448	-0.371338	0.042480	-1.034180	0.053146	0.009661	0.082609	0.955556	0.027425	-0.283769	-0.075067	6.472976	-32.561036	-10.875958
33677		5.296336	0.938189	8.235692	0.003785	0.002901	0.023876	0.003634	0.008236	-0.002743	-0.371338	0.040283	-1.027344	0.052967	0.009380	0.082355	0.955557	0.027422	-0.283765	-0.075070	6.472702	-32.560493	-10.876235
33678		5.301584	0.921548	8.274380	-0.014954	-0.014696	0.057519	0.003580	0.010682	-0.001568	-0.373291	0.038086	-1.031738	0.053020	0.009214	0.082741	0.955561	0.027415	-0.283750	-0.075078	6.471874	-32.558834	-10.876743
33679		5.316216	0.936841	8.247817	0.013957	-0.001822	0.044599	0.007461	0.011140	-0.003542	-0.371338	0.040283	-1.034180	0.053167	0.009364	0.082476	0.955566	0.027434	-0.283733	-0.075079	6.473963	-32.556586	-10.877338
33680		5.305380	0.945734	8.269180	-0.005187	0.008152	0.057506	0.006131	0.012619	-0.002102	-0.373535	0.044678	-1.034180	0.053059	0.009454	0.082689	0.955572	0.027443	-0.283711	-0.075084	6.474979	-32.553809	-10.878016
33681		5.341516	0.958575	8.253830	0.035222	0.015161	0.065314	0.004440	0.011997	0.000076	-0.368896	0.038086	-1.034180	0.053420	0.009584	0.082535	0.955579	0.027442	-0.283689	-0.075072	6.473987	-32.551308	-10.876101
33682		5.303318	0.946631	8.270400	-0.006499	0.009298	0.057504	0.003943	0.012783	-0.002308	-0.371094	0.038086	-1.029541	0.053039	0.009464	0.082701	0.955586	0.027441	-0.283664	-0.075076	6.473533	-32.548293	-10.876118
33683		5.347574	0.897356	8.226126	0.048592	-0.046052	0.039543	0.005219	0.013751	-0.002575	-0.369141	0.042480	-1.031982	0.053482	0.008971	0.082258	0.955595	0.027448	-0.283633	-0.075075	6.473879	-32.544621	-10.875859
33684		5.302471	1.001589	8.280068	-0.004047	0.063346	0.070372	0.005110	0.018644	-0.000227	-0.366699	0.038086	-1.036377	0.053032	0.010014	0.082796	0.955611	0.027451	-0.283581	-0.075069	6.473211	-32.538426	-10.874399
33685		5.330784	0.937553	8.263142	0.021477	-0.004304	0.065334	0.004252	0.017329	-0.001875	-0.368896	0.035889	-1.031738	0.053315	0.009373	0.082627	0.955626	0.027454	-0.283533	-0.075066	6.472601	-32.532763	-10.873393
33686		5.339075	0.929629	8.243333	0.039307	-0.013242	0.052440	0.001593	0.020287	0.001005	-0.368896	0.040283	-1.034180	0.053399	0.009296	0.082428	0.955647	0.027447	-0.283469	-0.075043	6.469718	-32.525395	-10.869154
33687		5.342804	0.952895	8.238294	0.049770	0.009066	0.052428	0.007421	0.028359	-0.001540	-0.366943	0.044678	-1.034180	0.053440	0.009525	0.082376	0.955676	0.027469	-0.283370	-0.075033	6.470349	-32.513474	-10.867078
33688		5.328539	0.947674	8.207925	0.056125	0.006071	0.018806	0.007313	0.033253	0.000803	-0.371094	0.035889	-1.036133	0.053299	0.009474	0.082071	0.955715	0.027489	-0.283246	-0.075004	6.469667	-32.498762	-10.862183
33689		5.340838	1.021930	8.302599	0.026841	0.076187	0.111803	0.004159	0.036996	0.001292	-0.369141	0.044678	-1.034180	0.053424	0.010218	0.083016	0.955758	0.027494	-0.283105	-0.074983	6.467049	-32.482106	-10.857537
33690		5.345767	0.999741	8.231107	0.070067	0.054261	0.052401	0.001995	0.039168	0.006548	-0.366699	0.042480	-1.031982	0.053473	0.009998	0.082301	0.955806	0.027482	-0.282954	-0.074942	6.461312	-32.464626	-10.849446
33691		5.303317	0.973122	8.196512	0.053803	0.035349	-0.001938	0.000482	0.045980	0.006027	-0.369141	0.044678	-1.034180	0.053052	0.009733	0.081953	0.955864	0.027467	-0.282769	-0.074903	6.454510	-32.443160	-10.840924
33692		5.288223	0.887222	8.256083	0.001730	-0.047399	0.031759	-0.000008	0.046766	0.003632	-0.364746	0.047119	-1.034180	0.052901	0.008873	0.082548	0.955923	0.027450	-0.282580	-0.074877	6.447986	-32.421106	-10.834070
33693		5.270310	0.926424	8.293792	-0.024725	-0.006194	0.057508	0.001691	0.047388	0.001446	-0.369141	0.042480	-1.034180	0.052723	0.009264	0.082926	0.955981	0.027446	-0.282388	-0.074858	6.443485	-32.398542	-10.828539
33694		5.254971	0.880784	8.308771	-0.047587	-0.049041	0.057546	0.003519	0.045124	0.002386	-0.366943	0.042480	-1.038574	0.052568	0.008807	0.083076	0.956037	0.027447	-0.282207	-0.074832	6.439376	-32.377302	-10.822383
33695		5.179623	0.811441	8.275236	-0.097543	-0.105590	-0.017495	0.006349	0.034826	-0.004003	-0.369141	0.044678	-1.034180	0.051811	0.008111	0.082744	0.956075	0.027469	-0.282076	-0.074834	6.440028	-32.361539	-10.821487
33696		5.139926	0.760278	8.337064	-0.168465	-0.151294	0.008322	0.010456	0.025495	-0.010653	-0.364258	0.035889	-1.033936	0.051410	0.007596	0.083364	0.956096	0.027514	-0.281991	-0.074865	6.445580	-32.350743	-10.826026
33697		5.256947	0.875743	8.292722	-0.031080	-0.056746	0.044669	0.012265	0.021223	-0.015172	-0.364258	0.035889	-1.038574	0.052579	0.008748	0.082922	0.956110	0.027576	-0.281926	-0.074914	6.454202	-32.342006	-10.833690
33698		5.252635	0.962519	8.316243	-0.035286	0.027856	0.070353	0.011536	0.017023	-0.013692	-0.369141	0.042480	-1.036377	0.052534	0.009617	0.083159	0.956119	0.027638	-0.281878	-0.074945	6.462590	-32.335508	-10.839354
33699		5.300376	0.982157	8.332986	-0.001882	0.038478	0.111817	0.007521	0.006685	-0.010193	-0.366943	0.044922	-1.036377	0.053007	0.009816	0.083328	0.956115	0.027664	-0.281882	-0.074979	6.467290	-32.335367	-10.844769
33700		5.272452	1.002357	8.283702	0.004095	0.063062	0.057429	0.004617	0.004658	-0.003452	-0.366943	0.042480	-1.036377	0.052727	0.010021	0.082836	0.956110	0.027662	-0.281895	-0.074990	6.467701	-32.336957	-10.846357
33701		5.331032	1.012747	8.279267	0.055962	0.064229	0.086028	0.002189	-0.000164	0.000210	-0.362549	0.047119	-1.031982	0.053310	0.010127	0.082793	0.956101	0.027645	-0.281931	-0.074983	6.465877	-32.341387	-10.845286
33702		5.325181	0.989836	8.285621	0.044227	0.043129	0.086051	-0.002244	0.002611	0.000958	-0.368896	0.040283	-1.029785	0.053253	0.009900	0.082855	0.956097	0.027605	-0.281950	-0.074974	6.460651	-32.344181	-10.842975
33703		5.286238	0.962818	8.248772	0.028001	0.024184	0.031712	-0.006426	-0.000385	0.007966	-0.366943	0.042480	-1.034180	0.052862	0.009633	0.082488	0.956091	0.027536	-0.281984	-0.074942	6.451102	-32.349236	-10.836692
33704		5.258962	0.941422	8.243891	0.004732	0.008860	0.010987	-0.005640	0.001369	0.005312	-0.360107	0.044922	-1.029785	0.052590	0.009418	0.082438	0.956085	0.027471	-0.282013	-0.074933	6.442904	-32.353374	-10.833520
33705		5.282055	0.952523	8.308002	-0.009930	0.016675	0.078213	-0.005710	0.001806	0.001014	-0.369385	0.049072	-1.031982	0.052821	0.009528	0.083079	0.956080	0.027416	-0.282036	-0.074932	6.436182	-32.356734	-10.831755
33706		5.275985	0.968991	8.269942	0.007569	0.035452	0.044573	-0.003998	0.004437	0.004304	-0.362305	0.044922	-1.038818	0.052761	0.009693	0.082698	0.956080	0.027360	-0.282047	-0.074916	6.428475	-32.358790	-10.827710
33707		5.301476	0.935040	8.266953	0.025732	-0.001013	0.052494	-0.005710	0.001807	0.001014	-0.366699	0.042480	-1.031982	0.053015	0.009353	0.082669	0.956075	0.027305	-0.282070	-0.074915	6.421751	-32.362149	-10.825944
33708		5.306978	0.957070	8.260936	0.036244	0.021328	0.052468	-0.009216	0.005458	0.007704	-0.364502	0.040283	-1.034180	0.053072	0.009577	0.082607	0.956079	0.027226	-0.282073	-0.074879	6.410167	-32.363649	-10.818278
33709		5.134577	0.913877	8.424251	-0.202137	0.006438	0.093178	-0.024418	-0.019527	-0.009015	-0.366943	0.044678	-1.031982	0.051338	0.009147	0.084246	0.956042	0.027088	-0.282190	-0.074956	6.397207	-32.378513	-10.824884
33710		5.153164	0.791583	8.475819	-0.235463	-0.113318	0.134821	-0.075097	-0.085864	-0.029648	-0.369141	0.042480	-1.031982	0.051496	0.007940	0.084777	0.955911	0.026711	-0.282601	-0.075211	6.365277	-32.429801	-10.850321
33711		5.305632	0.946957	8.333680	-0.020780	0.023882	0.111811	-0.092813	-0.112773	-0.045937	-0.369141	0.042480	-1.031982	0.053011	0.009496	0.083362	0.955738	0.026263	-0.283133	-0.075573	6.330265	-32.495431	-10.888837
33712		5.323032	0.919505	8.254836	0.022515	0.001870	0.052502	-0.088060	-0.119311	-0.035067	-0.375977	0.044678	-1.027588	0.053183	0.009222	0.082576	0.955557	0.025819	-0.283700	-0.075884	6.294435	-32.565621	-10.921287
33713		5.373549	0.895838	8.219035	0.070267	-0.022325	0.047568	-0.075538	-0.110158	-0.027283	-0.371338	0.044678	-1.034180	0.053691	0.008982	0.082217	0.955391	0.025428	-0.284228	-0.076132	6.262480	-32.630969	-10.946962
33714		5.429731	0.949726	8.186184	0.132845	0.028145	0.055399	-0.061453	-0.080723	-0.018427	-0.375977	0.044678	-1.031982	0.054265	0.009517	0.081881	0.955266	0.025100	-0.284625	-0.076328	6.234292	-32.680440	-10.966190
33715		5.333802	0.900560	8.209775	0.027546	-0.000063	0.018899	-0.049344	-0.060907	-0.014458	-0.380371	0.042236	-1.031982	0.053314	0.009022	0.082112	0.955171	0.024834	-0.284929	-0.076472	6.210705	-32.718554	-10.979502
33716		5.361046	0.949007	8.226994	0.042015	0.047575	0.052444	-0.042894	-0.041736	-0.010617	-0.375977	0.046875	-1.027588	0.053594	0.009505	0.082279	0.955100	0.024599	-0.285149	-0.076605	6.189083	-32.746497	-10.991318
33717		5.331276	0.902651	8.226524	0.007683	0.010505	0.031743	-0.041256	-0.038663	-0.011626	-0.373779	0.051270	-1.027588	0.053297	0.009040	0.082274	0.955037	0.024377	-0.285350	-0.076720	6.168208	-32.772123	-11.001056
33718		5.375781	0.841171	8.238738	0.026120	-0.053479	0.060501	-0.039650	-0.031154	-0.005966	-0.376221	0.051270	-1.029785	0.053745	0.008426	0.082394	0.954984	0.024151	-0.285519	-0.076818	6.145679	-32.794055	-11.007816
33719		5.364535	1.011772	8.193044	0.061974	0.120350	0.031578	-0.034754	-0.021937	-0.008952	-0.373779	0.051270	-1.032227	0.053637	0.010130	0.081935	0.954945	0.023963	-0.285643	-0.076909	6.126884	-32.810323	-11.014505
33720		5.420165	0.857773	8.161974	0.102513	-0.037244	0.021940	-0.035780	-0.015919	-0.007058	-0.373779	0.049072	-1.029785	0.054195	0.008590	0.081623	0.954914	0.023765	-0.285738	-0.076995	6.106183	-32.823321	-11.019678
33721		5.364334	0.858948	8.219310	0.023868	-0.024149	0.039712	-0.029031	-0.006976	-0.003613	-0.378418	0.053467	-1.032227	0.053641	0.008600	0.082194	0.954897	0.023602	-0.285793	-0.077051	6.088113	-32.831394	-11.021653
33722		5.354282	0.905322	8.195944	0.034027	0.025751	0.018875	-0.022312	-0.000023	-0.005649	-0.369385	0.053711	-1.034424	0.053543	0.009061	0.081958	0.954888	0.023474	-0.285818	-0.077111	6.074088	-32.835476	-11.024950
33723		5.374250	0.847499	8.198731	0.041051	-0.032442	0.026889	-0.022368	0.002419	-0.004465	-0.371582	0.051270	-1.030029	0.053744	0.008483	0.081986	0.954883	0.023347	-0.285831	-0.077160	6.059779	-32.838145	-11.026820
33724		5.354242	0.862330	8.240846	0.003541	-0.012852	0.052549	-0.014678	0.005798	-0.007215	-0.375977	0.049072	-1.034180	0.053545	0.008627	0.082406	0.954884	0.023265	-0.285826	-0.077192	6.050256	-32.838220	-11.027785
33725		5.326285	0.841045	8.236425	-0.019660	-0.028194	0.031813	-0.011276	0.009048	-0.006081	-0.374023	0.053467	-1.027832	0.053267	0.008413	0.082361	0.954887	0.023197	-0.285811	-0.077233	6.042638	-32.837016	-11.030274
33726		5.319186	0.858109	8.198967	-0.002115	-0.009530	-0.001823	-0.005357	0.012251	-0.010952	-0.371582	0.051270	-1.030029	0.053197	0.008580	0.081986	0.954892	0.023163	-0.285782	-0.077287	6.039877	-32.833656	-11.035646
33727		5.322795	0.787173	8.229131	-0.024701	-0.079970	0.019067	-0.002256	0.010956	-0.010276	-0.369385	0.051514	-1.027588	0.053233	0.007870	0.082288	0.954895	0.023145	-0.285761	-0.077334	6.038895	-32.831112	-11.040842
33728		5.305703	0.813312	8.212550	-0.025574	-0.051823	-0.001745	0.007622	0.014175	-0.012814	-0.373779	0.051270	-1.032227	0.053063	0.008127	0.082122	0.954902	0.023180	-0.285725	-0.077366	6.044083	-32.826198	-11.045819
33729		5.328004	0.826201	8.277132	-0.040336	-0.043904	0.065450	0.011912	0.014305	-0.016698	-0.378418	0.053467	-1.032227	0.053287	0.008253	0.082768	0.954906	0.023239	-0.285693	-0.077423	6.053446	-32.821356	-11.055128
33730		5.330396	0.837603	8.218792	-0.004310	-0.034715	0.018997	0.018474	0.013820	-0.016073	-0.373535	0.044678	-1.036377	0.053310	0.008364	0.082185	0.954908	0.023326	-0.285666	-0.077470	6.066062	-32.816877	-11.064174
33731		5.323629	0.817180	8.225412	-0.016078	-0.055875	0.019039	0.021635	0.010084	-0.016584	-0.373779	0.051270	-1.032227	0.053241	0.008158	0.082252	0.954904	0.023430	-0.285658	-0.077514	6.081117	-32.814444	-11.073706
33732		5.339827	0.848647	8.251721	-0.012623	-0.029914	0.052595	0.024896	0.016232	-0.018569	-0.378418	0.051270	-1.029785	0.053406	0.008471	0.082514	0.954910	0.023560	-0.285619	-0.077550	6.098635	-32.808134	-11.082712
33733		5.320906	0.823482	8.226546	-0.017324	-0.054753	0.019043	0.030023	0.015685	-0.026290	-0.378418	0.051270	-1.034424	0.053217	0.008215	0.082263	0.954909	0.023720	-0.285587	-0.077627	6.121837	-32.801913	-11.098414
33734		5.352991	0.830982	8.270034	-0.013666	-0.056261	0.073422	0.036291	0.010657	-0.026125	-0.376221	0.053467	-1.032227	0.053535	0.008288	0.082699	0.954899	0.023902	-0.285583	-0.077707	6.148548	-32.798863	-11.115723
33735		5.344303	0.798655	8.223717	0.000125	-0.090595	0.027065	0.033609	0.011610	-0.028729	-0.375977	0.049072	-1.027588	0.053449	0.007965	0.082235	0.954892	0.024081	-0.285571	-0.077791	6.174855	-32.794802	-11.133368
33736		5.348692	0.826386	8.217867	0.010587	-0.068235	0.027028	0.041784	0.012213	-0.034594	-0.380371	0.046631	-1.031982	0.053493	0.008237	0.082177	0.954881	0.024302	-0.285560	-0.077899	6.207615	-32.790194	-11.155796
33737		5.256081	0.778324	8.224035	-0.076173	-0.105952	-0.022392	0.053268	0.006189	-0.037850	-0.373779	0.046875	-1.031982	0.052565	0.007751	0.082241	0.954859	0.024586	-0.285580	-0.078000	6.248743	-32.788636	-11.180015
33738		5.265206	0.777322	8.203009	-0.058356	-0.114878	-0.035194	0.064118	0.003850	-0.046623	-0.371582	0.049072	-1.029785	0.052655	0.007735	0.082032	0.954828	0.024932	-0.285616	-0.078133	6.299467	-32.788032	-11.211184
33739		5.276299	0.791160	8.234608	-0.066078	-0.110613	-0.001601	0.071112	0.003035	-0.047946	-0.375732	0.040283	-1.029541	0.052766	0.007870	0.082348	0.954796	0.025314	-0.285657	-0.078257	6.354648	-32.787597	-11.242474
33740		5.154756	0.711921	8.182867	-0.149778	-0.177471	-0.118167	0.086359	0.010709	-0.062132	-0.369141	0.046875	-1.029785	0.051554	0.007068	0.081829	0.954767	0.025793	-0.285665	-0.078423	6.423501	-32.781791	-11.282566
33741		5.098007	0.646451	8.329077	-0.287118	-0.243865	-0.033159	0.091555	0.003715	-0.082077	-0.373535	0.044678	-1.029785	0.050984	0.006405	0.083293	0.954719	0.026322	-0.285706	-0.078680	6.502874	-32.778705	-11.336912
33742		4.882490	0.753891	8.389802	-0.485888	-0.114452	-0.089178	0.099517	-0.006671	-0.100629	-0.369141	0.042480	-1.034180	0.048826	0.007473	0.083903	0.954649	0.026912	-0.285794	-0.079006	6.593658	-32.779958	-11.403307
33743		4.459332	0.391580	8.819366	-1.125345	-0.417407	0.004621	0.104537	-0.055782	-0.144748	-0.373291	0.038086	-1.029541	0.044572	0.003837	0.088208	0.954489	0.027569	-0.286116	-0.079552	6.706000	-32.806425	-11.504772
33744		4.678313	0.350020	9.252250	-1.202522	-0.513735	0.478242	0.117124	-0.159800	-0.197566	-0.377930	0.042236	-1.025146	0.046713	0.003400	0.092562	0.954158	0.028325	-0.286927	-0.080329	6.849554	-32.887860	-11.648368
33745		4.442863	1.021841	9.866237	-1.672579	0.167097	0.925107	0.116836	-0.352575	-0.235956	-0.382080	0.031250	-1.033936	0.044267	0.010108	0.098746	0.953530	0.029052	-0.288655	-0.081333	7.016412	-33.076404	-11.836517
33746		4.170113	0.109210	10.687518	-2.534588	-0.706808	1.354256	0.143767	-0.616969	-0.260076	-0.390869	0.026611	-1.020508	0.041372	0.000961	0.107004	0.952498	0.029834	-0.291649	-0.082453	7.221427	-33.413058	-12.065041
33747		3.248751	3.156489	13.118899	-4.320608	2.434017	3.149946	-0.029281	-1.023383	-0.320704	-0.404541	0.032959	-1.027100	0.031866	0.031533	0.131348	0.950855	0.029713	-0.296493	-0.084172	7.372841	-33.975661	-12.372733
33748		3.381586	-1.787924	13.424830	-5.264740	-2.431424	2.884700	-0.040165	-1.705510	-0.380109	-0.420166	0.028076	-1.013672	0.032635	-0.017915	0.134534	0.948124	0.029337	-0.304554	-0.086302	7.582686	-34.920915	-12.790176
33749		4.023876	0.187265	13.052630	-4.503752	-0.571104	3.070636	0.039181	-2.244451	-0.455466	-0.449463	0.027588	-1.006836	0.038775	0.001758	0.130967	0.944431	0.029218	-0.315157	-0.088723	7.910715	-36.164329	-13.320130
33750		3.876919	-1.517384	13.344768	-5.382435	-2.178230	2.902918	0.022739	-2.865411	-0.614747	-0.478516	0.024658	-0.993408	0.036805	-0.015304	0.133983	0.939524	0.028987	-0.328614	-0.092022	8.358412	-37.744873	-14.049734
33751		5.017789	-1.875542	13.205546	-4.898044	-2.699385	3.293959	-0.003653	-3.401421	-0.859525	-0.514160	0.019531	-0.977539	0.047841	-0.018962	0.132883	0.933385	0.028785	-0.344448	-0.096542	8.978130	-39.601668	-15.048691
33752		5.771018	-2.335771	12.847936	-4.679181	-3.250093	3.277230	-0.110286	-3.778937	-1.150535	-0.552246	0.018799	-0.959473	0.055134	-0.023609	0.129550	0.926133	0.028383	-0.361846	-0.102660	9.773352	-41.636874	-16.374492
33753		6.703117	-2.630515	12.394371	-4.306274	-3.687501	3.351660	-0.214618	-3.980105	-1.440446	-0.590088	0.009033	-0.939209	0.064356	-0.026641	0.125271	0.918004	0.027918	-0.379911	-0.110258	10.771721	-43.738121	-18.031767
33754		7.444437	-3.248444	11.519359	-3.874984	-4.430344	2.993296	-0.360076	-4.021224	-1.687990	-0.623779	0.006104	-0.925537	0.071831	-0.032889	0.116714	0.909238	0.027204	-0.397899	-0.119255	11.954738	-45.814061	-20.011206
33755		7.567536	-3.122992	11.030684	-3.991644	-4.316216	2.601186	-0.387232	-3.943206	-1.962198	-0.656982	-0.005615	-0.900879	0.073171	-0.031740	0.111827	0.900041	0.026961	-0.415260	-0.129452	13.426531	-47.775899	-22.337762
33756		6.651800	-2.699317	10.886198	-4.899246	-3.633170	1.711850	-0.553078	-3.749444	-2.176801	-0.688232	-0.008545	-0.876221	0.064164	-0.027397	0.110155	0.890701	0.026535	-0.431402	-0.140854	15.082045	-49.554679	-24.965969
33757		5.251337	-4.721366	12.086381	-7.594936	-4.996507	0.830428	-0.753156	-3.337882	-2.002122	-0.712402	-0.020264	-0.864746	0.050012	-0.047265	0.121890	0.882002	0.025114	-0.445415	-0.151810	16.607795	-51.085992	-27.512053
33758		5.401592	-11.433470	13.682272	-10.868498	-11.137629	0.429862	-0.455875	-2.598069	-1.393149	-0.730469	-0.018311	-0.846924	0.051434	-0.114386	0.137763	0.875142	0.024210	-0.456274	-0.159228	17.859798	-52.269707	-29.440870
33759		7.988971	-8.741561	15.228944	-10.401186	-9.063625	3.671250	-0.347184	-1.607458	-0.423468	-0.737549	-0.011719	-0.849121	0.078477	-0.087317	0.153076	0.871134	0.022346	-0.462993	-0.162063	18.336120	-53.074191	-30.293177
33760		1.461191	-7.431273	14.998269	-13.417760	-5.746989	-1.491550	-0.671424	-0.592725	0.441801	-0.735840	0.001465	-0.842773	0.014330	-0.073777	0.150274	0.870172	0.017885	-0.465098	-0.161754	17.766443	-53.479607	-30.065666
33761		-3.897250	-7.730427	13.548879	-15.097429	-4.514991	-6.618701	-0.821717	-0.079574	1.034187	-0.736328	0.019287	-0.856445	-0.038628	-0.076947	0.135790	0.870863	0.011810	-0.464891	-0.159170	16.543673	-53.702350	-29.134453
33762		-4.247995	-5.668132	12.830038	-14.130905	-2.514075	-6.849798	-0.760387	0.210905	1.401769	-0.728271	0.041748	-0.861572	-0.041948	-0.056488	0.128560	0.872479	0.005375	-0.463451	-0.154807	15.003815	-53.807575	-27.768534
33763		-2.795891	-2.955434	13.262105	-12.964708	-0.252612	-4.884651	-0.808161	0.663195	1.668129	-0.709229	0.068848	-0.868896	-0.027274	-0.029247	0.132831	0.875271	-0.001533	-0.459984	-0.149378	13.147910	-53.675829	-26.044359
33764		-2.194843	-1.255282	13.497170	-12.313049	1.282413	-3.870709	-0.932608	1.249574	1.790605	-0.700928	0.089111	-0.891602	-0.020995	-0.012114	0.135162	0.879402	-0.008832	-0.453795	-0.143682	11.054200	-53.194503	-24.106397
33765		-2.278531	-0.160012	13.179265	-11.710809	2.346261	-3.791347	-1.016724	1.823976	1.788584	-0.674805	0.114014	-0.912109	-0.021571	-0.001126	0.132000	0.884682	-0.016079	-0.444952	-0.138191	8.901714	-52.347071	-22.137967
33766		-2.261444	1.074311	12.753502	-10.910896	3.500917	-3.680075	-1.021646	2.290394	1.698337	-0.637695	0.136963	-0.932861	-0.021246	0.011211	0.127727	0.890757	-0.022825	-0.433948	-0.133116	6.859730	-51.183898	-20.287338
33767		-1.629467	2.214641	12.381572	-9.793431	4.439174	-3.086804	-0.999807	2.669100	1.604821	-0.596191	0.166748	-0.958252	-0.014822	0.022643	0.123908	0.897368	-0.029010	-0.421184	-0.128423	4.983563	-49.761829	-18.601109
33768		-0.350085	2.840857	12.053738	-8.391588	4.766552	-2.044983	-0.977882	3.017027	1.522991	-0.551758	0.183350	-0.976563	-0.001903	0.028979	0.120433	0.904409	-0.034695	-0.406754	-0.124062	3.276593	-48.103597	-17.084304
33769		0.881667	3.049230	11.743499	-7.057472	4.716689	-1.099580	-0.910877	3.341098	1.432081	-0.498535	0.199951	-1.001465	0.010554	0.031098	0.117128	0.911761	-0.039677	-0.390792	-0.119995	1.775614	-46.231472	-15.752912
33770		2.034426	3.058917	11.321831	-5.669025	4.473865	-0.351545	-0.781795	3.610095	1.328557	-0.438721	0.221191	-1.011230	0.022176	0.031174	0.112708	0.919272	-0.043696	-0.373547	-0.116154	0.514658	-44.181551	-14.611709
33771		3.131144	3.455386	10.926648	-4.177972	4.616964	0.304098	-0.663847	3.793452	1.217432	-0.389404	0.226563	-1.029297	0.033162	0.035113	0.108533	0.926719	-0.046837	-0.355416	-0.112600	-0.522081	-42.012166	-13.654936
33772		4.164839	3.631599	10.652925	-2.809760	4.576176	0.918924	-0.603301	3.899996	1.110121	-0.324707	0.239014	-1.025391	0.043510	0.036874	0.105582	0.933929	-0.049432	-0.336691	-0.109413	-1.390725	-39.770098	-12.860852
33773		5.129194	3.513469	10.320665	-1.480394	4.252739	1.362081	-0.582203	3.913465	1.011415	-0.270996	0.244385	-1.032471	0.053117	0.035699	0.102076	0.940720	-0.051730	-0.317811	-0.106610	-2.135968	-37.515217	-12.205840
33774		5.913350	3.101866	10.079960	-0.382378	3.691104	1.694161	-0.567848	3.855296	0.916281	-0.214844	0.245605	-1.034912	0.060917	0.031579	0.099548	0.946992	-0.053823	-0.299094	-0.104174	-2.782436	-35.288504	-11.669975
33775		6.280329	2.956352	9.847874	0.447738	3.457779	1.719474	-0.553334	3.697284	0.786402	-0.165527	0.248779	-1.026367	0.064491	0.030085	0.097214	0.952598	-0.055711	-0.281067	-0.102248	-3.332237	-33.153224	-11.260687
33776		6.473652	2.955486	9.514302	1.197706	3.374738	1.515516	-0.576396	3.436362	0.608764	-0.120361	0.245117	-1.010986	0.066266	0.030027	0.093927	0.957422	-0.057577	-0.264212	-0.101094	-3.808298	-31.169104	-10.992479
33777		7.752918	3.302482	9.393201	2.802163	3.486494	1.986696	-0.679032	3.123537	0.386825	-0.086914	0.254639	-1.002441	0.078918	0.033492	0.092593	0.961415	-0.059780	-0.248803	-0.101018	-4.256403	-29.372403	-10.880392
33778		9.899465	3.392339	8.724733	5.351935	3.112992	2.323222	-0.890341	2.885455	0.205616	-0.055420	0.252930	-0.989258	0.100203	0.034410	0.085655	0.964726	-0.062881	-0.234414	-0.101983	-4.763519	-27.717680	-10.892963
33779		11.793218	2.713068	7.832562	7.600867	1.986862	2.272611	-1.093341	2.701870	0.098378	-0.028564	0.255615	-0.978271	0.118961	0.027611	0.076573	0.967488	-0.066913	-0.220800	-0.103620	-5.352498	-26.174765	-10.981236
33780		14.578840	1.529243	6.842387	10.534380	0.181216	2.462387	-1.144350	2.565691	0.052423	-0.003906	0.260498	-0.958496	0.146645	0.015715	0.066457	0.969863	-0.071201	-0.207778	-0.105471	-5.957145	-24.711646	-11.106850
33781		17.401279	1.000019	5.402066	13.808065	-1.115070	2.064223	-1.028310	2.595273	0.089071	0.016113	0.265381	-0.958740	0.174689	0.010348	0.051704	0.972138	-0.074931	-0.194631	-0.107013	-6.500451	-23.231953	-11.226000
33782		18.111011	1.216736	3.654780	15.427153	-1.402525	0.329350	-0.795228	2.678461	0.213974	0.047607	0.263672	-0.945557	0.181564	0.012500	0.034069	0.974460	-0.077594	-0.181110	-0.107731	-6.935758	-21.696363	-11.286758
33783		16.837479	1.247433	1.480090	15.237596	-1.589617	-2.565662	-0.439278	2.600085	0.361946	0.065674	0.261719	-0.938965	0.168525	0.012808	0.012583	0.976746	-0.078682	-0.168082	-0.107355	-7.199268	-20.196445	-11.260746
33784		15.509270	1.438274	-0.555425	14.840960	-1.560371	-5.316582	0.033710	2.277891	0.421387	0.074707	0.257568	-0.934570	0.154985	0.014711	-0.007317	0.978829	-0.077672	-0.156823	-0.106149	-7.210282	-18.874399	-11.178448
33785		15.134396	2.546446	-2.085729	15.269192	-0.689480	-7.311752	0.470426	1.803153	0.406986	0.082031	0.246582	-0.932129	0.151096	0.025823	-0.022160	0.980591	-0.074756	-0.148115	-0.104473	-6.978272	-17.824395	-11.067199
33786		15.200059	4.142783	-2.808363	15.920859	0.756083	-8.383364	0.663430	1.269728	0.370486	0.095947	0.231201	-0.922852	0.151742	0.041804	-0.028909	0.981941	-0.071140	-0.142120	-0.102627	-6.640599	-17.080154	-10.934844
33787		15.433793	4.838333	-2.903282	16.327476	1.424953	-8.620018	0.628624	0.747420	0.285847	0.098633	0.220215	-0.924805	0.154159	0.048696	-0.029456	0.982824	-0.067900	-0.138703	-0.101031	-6.318132	-16.640203	-10.813475
33788		15.325392	4.827308	-2.843048	16.208309	1.481983	-8.651739	0.510748	0.262283	0.123170	0.101074	0.218018	-0.922607	0.153187	0.048440	-0.028508	0.983219	-0.065391	-0.137649	-0.100285	-6.044986	-16.486787	-10.771109
33789		11.976177	-3.069171	-2.927822	11.372885	-5.586676	-8.881429	1.112469	-0.518608	-0.335790	0.081543	0.199951	-0.928711	0.119786	-0.030730	-0.029138	0.983032	-0.059977	-0.140897	-0.100988	-5.362190	-16.805634	-10.938337
33790		7.805459	1.897565	-9.714242	10.407619	-0.953328	-16.859429	2.260330	-2.029879	-1.484686	0.057861	0.170410	-0.925781	0.079177	0.019481	-0.096124	0.981373	-0.048885	-0.152465	-0.106171	-3.833622	-18.036950	-11.740483
33791		3.687082	-1.154036	10.091988	0.082917	-0.658953	0.972416	2.427941	-2.611541	-1.741245	0.024658	0.154297	-0.927490	0.035441	-0.013081	0.101236	0.978852	-0.037048	-0.166996	-0.112195	-2.132520	-19.587279	-12.709122
33792		7.266378	0.690333	16.014063	1.496100	0.728104	7.706615	2.401522	-2.158859	-1.579870	0.003174	0.129395	-0.927002	0.070971	0.004409	0.160976	0.976433	-0.025229	-0.179203	-0.117591	-0.436785	-20.848211	-13.653703
33793		-1.412533	3.001394	10.179623	-4.184466	4.106865	-0.854640	1.551864	-2.189627	-0.419632	-0.023193	0.111084	-0.926270	-0.015178	0.029255	0.101863	0.974324	-0.018590	-0.190875	-0.117955	0.544461	-22.106745	-13.911965
33794		0.733877	2.220738	8.703626	-2.167087	2.684647	-1.487346	1.258016	-3.280963	0.457562	-0.056396	0.099365	-0.923828	0.005858	0.021673	0.087278	0.971410	-0.014880	-0.207556	-0.114283	1.162297	-23.994323	-13.666628
33795		12.791642	6.506069	11.661322	7.880454	4.497439	6.298701	1.073842	-3.358233	0.511613	-0.087402	0.092041	-0.914551	0.125765	0.064749	0.119085	0.968136	-0.012140	-0.224442	-0.110409	1.660206	-25.929315	-13.394381
33796		14.718081	9.128782	12.481676	9.231840	6.747537	8.214095	0.694297	-2.718209	-0.123820	-0.116211	0.075928	-0.911865	0.145520	0.090759	0.127118	0.964948	-0.010190	-0.237999	-0.110130	2.116154	-27.487635	-13.539742
33797		11.179240	6.299739	11.137769	5.750628	4.628553	5.491163	0.147712	-2.337905	-0.444851	-0.138672	0.077637	-0.905029	0.110620	0.062668	0.112722	0.961852	-0.010262	-0.249398	-0.111968	2.362001	-28.820432	-13.886694
33798		9.899967	-3.939036	9.805825	2.722866	-5.161367	3.439412	0.028451	-2.135744	-0.223210	-0.158691	0.075195	-0.905029	0.097901	-0.039514	0.099102	0.958993	-0.011090	-0.259713	-0.112954	2.476265	-30.041816	-14.099711
33799		9.497256	-8.031500	9.403737	1.410370	-9.073519	2.789322	0.457417	-1.890058	-0.034726	-0.180908	0.063721	-0.906738	0.094065	-0.080548	0.094745	0.956490	-0.009946	-0.269057	-0.112411	2.776281	-31.126949	-14.179178
33800		14.929807	-2.179445	8.682346	7.347984	-4.622852	5.275812	1.307052	-1.340623	-0.302262	-0.191650	0.052246	-0.899902	0.148679	-0.022591	0.087676	0.954523	-0.004090	-0.276237	-0.112082	3.654180	-31.888394	-14.438589
33801		7.877464	6.876027	8.705996	3.306074	5.598616	2.139335	1.040064	-0.915947	-0.282051	-0.197998	0.043213	-0.897461	0.078470	0.068194	0.087775	0.953088	0.000722	-0.281223	-0.111966	4.371361	-32.404881	-14.671201
33802		13.394457	6.144001	10.764424	6.417332	3.743310	6.855735	0.598196	-0.582759	-0.328157	-0.202393	0.041016	-0.890625	0.133730	0.060897	0.108217	0.952057	0.003661	-0.284364	-0.112743	4.847617	-32.726940	-14.931270
33803		4.634170	1.305814	8.332582	-0.485281	0.730845	-0.229219	0.237621	-0.178223	-0.238946	-0.206787	0.040771	-0.888428	0.046283	0.012904	0.083382	0.951654	0.005003	-0.285374	-0.113542	5.074168	-32.821134	-15.102908
33804		6.982341	2.018796	9.217191	1.067510	0.929437	1.839851	0.288291	-0.122776	-0.181568	-0.208740	0.031982	-0.892578	0.069785	0.019992	0.092244	0.951358	0.006536	-0.286150	-0.113993	5.307298	-32.886139	-15.232750
33805		6.012546	2.262777	8.560847	0.675519	1.319157	0.787427	0.157023	-0.050985	-0.131086	-0.208984	0.036377	-0.890625	0.060118	0.022521	0.085642	0.951195	0.007414	-0.286510	-0.114389	5.444334	-32.912493	-15.324024
33806		5.593590	1.025713	8.619995	0.032165	0.194111	0.512327	0.112093	-0.021000	-0.093253	-0.208740	0.029785	-0.890381	0.055932	0.010183	0.086212	0.951098	0.008040	-0.286703	-0.114669	5.540710	-32.923729	-15.387748
33807		5.530491	1.098280	8.372101	0.126625	0.254599	0.277097	0.093478	-0.024853	-0.062298	-0.210938	0.027344	-0.892578	0.055298	0.010926	0.083733	0.951014	0.008532	-0.286905	-0.114828	5.615108	-32.938742	-15.430695
33808		5.187923	0.720580	8.405169	-0.255231	-0.043631	0.087494	0.089767	-0.038490	-0.030709	-0.208740	0.029785	-0.892578	0.051864	0.007160	0.084065	0.950928	0.008952	-0.287171	-0.114843	5.676283	-32.963333	-15.453162
33809		5.274340	0.950034	8.430448	-0.158341	0.154341	0.174543	0.100910	-0.069013	-0.019307	-0.208740	0.027344	-0.885986	0.052715	0.009453	0.084327	0.950804	0.009392	-0.287589	-0.114789	5.740735	-33.005890	-15.469956
33810		5.387110	0.993427	8.437036	-0.072812	0.165862	0.245075	0.088940	-0.102779	-0.000662	-0.213379	0.031738	-0.885986	0.053828	0.009897	0.084402	0.950642	0.009729	-0.288162	-0.114666	5.792778	-33.068816	-15.476492
33811		5.429480	0.927648	8.355365	-0.021680	0.084707	0.194523	0.086142	-0.131565	0.008744	-0.210938	0.027344	-0.883545	0.054239	0.009243	0.083593	0.950444	0.010022	-0.288869	-0.114502	5.840806	-33.148631	-15.478654
33812		5.536497	0.910810	8.316219	0.067218	0.039360	0.219051	0.086268	-0.133409	0.002946	-0.208496	0.022949	-0.883545	0.055309	0.009073	0.083203	0.950239	0.010323	-0.289586	-0.114367	5.891241	-33.229216	-15.485021
33813		5.621340	0.959840	8.330072	0.122904	0.066219	0.281437	0.070721	-0.132966	0.007532	-0.213135	0.027344	-0.883545	0.056158	0.009571	0.083341	0.950038	0.010544	-0.290291	-0.114231	5.931034	-33.309754	-15.488269
33814		5.523449	0.971548	8.267853	0.065716	0.095484	0.177124	0.052934	-0.138821	0.005631	-0.219727	0.022705	-0.887939	0.055177	0.009695	0.082719	0.949827	0.010680	-0.291014	-0.114131	5.961672	-33.393576	-15.493337
33815		5.416948	0.869626	8.487472	-0.179852	0.030568	0.291938	0.029956	-0.166067	-0.008482	-0.213135	0.025146	-0.887939	0.054099	0.008681	0.084921	0.949569	0.010712	-0.291851	-0.114133	5.985509	-33.492019	-15.509998
33816		5.398953	0.737413	8.418193	-0.203403	-0.094675	0.212684	-0.012702	-0.219107	-0.041051	-0.221924	0.022705	-0.887939	0.053899	0.007368	0.084241	0.949217	0.010558	-0.292915	-0.114355	5.999436	-33.618793	-15.552845
33817		5.539979	0.736842	8.267238	-0.029355	-0.129284	0.165484	-0.036809	-0.250529	-0.070883	-0.215576	0.029541	-0.888184	0.055299	0.007364	0.082740	0.948801	0.010316	-0.294111	-0.114754	6.012223	-33.761615	-15.618440
33818		5.576058	0.766210	8.168345	0.036656	-0.108334	0.106397	-0.060530	-0.254440	-0.095240	-0.226563	0.027100	-0.883545	0.055660	0.007660	0.081752	0.948365	0.009995	-0.295311	-0.115305	6.021149	-33.905252	-15.701212
33819		5.623950	0.865521	8.165433	0.073542	-0.017007	0.139523	-0.077658	-0.252250	-0.112629	-0.229004	0.029297	-0.881348	0.056141	0.008655	0.081722	0.947921	0.009619	-0.296489	-0.115962	6.027057	-34.046526	-15.795890
33820		5.568278	0.940281	8.205878	-0.001440	0.076882	0.148253	-0.092402	-0.255048	-0.107054	-0.226563	0.027100	-0.881348	0.055583	0.009411	0.082125	0.947475	0.009164	-0.297672	-0.116615	6.022817	-34.189790	-15.887139
33821		5.629906	0.924743	8.159981	0.046322	0.052583	0.143784	-0.088558	-0.258903	-0.110040	-0.235596	0.029053	-0.883545	0.056198	0.009253	0.081669	0.947019	0.008729	-0.298874	-0.117276	6.022317	-34.335013	-15.980833
33822		5.637534	0.787933	8.098019	0.034105	-0.078415	0.085453	-0.089716	-0.251094	-0.102540	-0.231201	0.029297	-0.881348	0.056278	0.007887	0.081047	0.946577	0.008282	-0.300038	-0.117903	6.018240	-34.476302	-16.068977
33823		5.619266	0.771597	7.989452	0.055199	-0.089461	-0.015149	-0.080654	-0.237277	-0.104523	-0.240234	0.033447	-0.879150	0.056102	0.007719	0.079958	0.946152	0.007889	-0.301141	-0.118525	6.019761	-34.609539	-16.157581
33824		5.589678	0.685601	8.009445	-0.019950	-0.160337	-0.022916	-0.057894	-0.217073	-0.111578	-0.238037	0.033447	-0.885986	0.055814	0.006848	0.080153	0.945751	0.007626	-0.302162	-0.119145	6.036571	-34.730890	-16.249799
33825		5.639182	0.757673	7.992418	0.024296	-0.100318	-0.002361	-0.035806	-0.205649	-0.117898	-0.238037	0.031250	-0.876953	0.056314	0.007558	0.079981	0.945361	0.007484	-0.303141	-0.119760	6.068270	-34.845256	-16.345713
33826		5.674305	0.956356	7.960996	0.094600	0.083541	0.009423	-0.025768	-0.191665	-0.109143	-0.244629	0.031250	-0.885742	0.056672	0.009543	0.079663	0.944996	0.007385	-0.304060	-0.120319	6.101972	-34.952204	-16.434758
33827		5.695212	0.995439	7.998464	0.079422	0.119380	0.055503	-0.022321	-0.188876	-0.103629	-0.246582	0.022217	-0.881104	0.056882	0.009934	0.080037	0.944637	0.007295	-0.304967	-0.120846	6.135523	-35.057794	-16.519912
33828		5.645884	1.013837	8.010994	0.019166	0.150648	0.039054	-0.025956	-0.186406	-0.085901	-0.247070	0.031250	-0.883545	0.056388	0.010125	0.080161	0.944291	0.007162	-0.305861	-0.121294	6.160070	-35.163094	-16.592754
33829		5.677376	0.914746	8.010041	0.003685	0.049140	0.047721	-0.026252	-0.191211	-0.080344	-0.246826	0.028809	-0.883545	0.056701	0.009135	0.080153	0.943941	0.007017	-0.306777	-0.121717	6.182562	-35.271385	-16.662189
33830		5.680567	0.989442	7.973516	0.025353	0.120607	0.026498	-0.019083	-0.194124	-0.083249	-0.246826	0.028809	-0.876953	0.056732	0.009878	0.079789	0.943574	0.006885	-0.307712	-0.122207	6.210510	-35.381242	-16.741848
33831		5.636606	0.900401	7.963680	-0.042546	0.045846	-0.014815	-0.021287	-0.196715	-0.078571	-0.255859	0.028809	-0.879150	0.056291	0.008990	0.079691	0.943214	0.006757	-0.308656	-0.122614	6.235768	-35.492727	-16.810772
33832		5.703478	0.948469	7.961832	0.001803	0.078454	0.026715	-0.015008	-0.205443	-0.083960	-0.249268	0.031006	-0.881348	0.056957	0.009467	0.079676	0.942835	0.006661	-0.309645	-0.123036	6.267475	-35.608881	-16.884354
33833		5.727066	0.881326	7.864013	0.041705	0.002905	-0.044528	-0.012186	-0.208176	-0.087326	-0.253662	0.026611	-0.876709	0.057193	0.008793	0.078699	0.942449	0.006582	-0.310648	-0.123470	6.302469	-35.726283	-16.960647
33834		5.703924	0.845615	7.874742	-0.011079	-0.024552	-0.052533	-0.010412	-0.202874	-0.089094	-0.262695	0.028564	-0.874512	0.056963	0.008435	0.078805	0.942068	0.006518	-0.311627	-0.123910	6.339270	-35.840579	-17.038023
33835		5.747742	0.807395	7.915025	-0.029998	-0.069115	0.002114	-0.003568	-0.204635	-0.100941	-0.260254	0.028564	-0.870117	0.057400	0.008046	0.079209	0.941676	0.006503	-0.312617	-0.124394	6.385144	-35.955017	-17.124025
33836		5.668549	0.835095	7.939179	-0.120053	-0.022514	-0.022619	-0.000921	-0.208625	-0.114559	-0.262695	0.028564	-0.870117	0.056607	0.008319	0.079451	0.941268	0.006520	-0.313627	-0.124938	6.438704	-36.070857	-17.220228
33837		5.699691	0.912246	8.022671	-0.149851	0.048611	0.069471	0.010800	-0.227347	-0.127135	-0.269287	0.028564	-0.876709	0.056911	0.009082	0.080292	0.940821	0.006599	-0.314731	-0.125524	6.505368	-36.196400	-17.327041
33838		5.685742	0.927302	8.021407	-0.180265	0.064566	0.061209	-0.002953	-0.241423	-0.138947	-0.271484	0.028320	-0.874512	0.056767	0.009235	0.080282	0.940343	0.006624	-0.315893	-0.126186	6.570223	-36.329145	-17.443738
33839		5.774553	0.878574	8.024605	-0.150846	-0.004923	0.111465	-0.010882	-0.264817	-0.143225	-0.271484	0.026123	-0.865479	0.057645	0.008749	0.080322	0.939824	0.006603	-0.317158	-0.126882	6.633867	-36.474758	-17.565716
33840		5.767512	0.827524	8.068512	-0.222084	-0.050134	0.137085	-0.020480	-0.283008	-0.159956	-0.269287	0.026123	-0.872314	0.057567	0.008237	0.080766	0.939262	0.006553	-0.318501	-0.127673	6.700551	-36.629556	-17.701549
33841		5.793781	0.770080	8.099017	-0.263497	-0.110659	0.170962	-0.024933	-0.303705	-0.186270	-0.273682	0.021729	-0.872070	0.057822	0.007657	0.081077	0.938649	0.006510	-0.319937	-0.128594	6.777440	-36.794167	-17.858266
33842		5.856117	0.778525	7.988261	-0.178745	-0.126840	0.120308	-0.031068	-0.318235	-0.208368	-0.276123	0.030518	-0.872314	0.058442	0.007737	0.079974	0.937995	0.006464	-0.321435	-0.129628	6.861796	-36.965417	-18.032620
33843		5.817798	1.025459	8.204885	-0.312239	0.135576	0.291892	-0.041436	-0.327146	-0.213437	-0.284912	0.021484	-0.867676	0.058055	0.010210	0.082142	0.937320	0.006372	-0.322967	-0.130703	6.943641	-37.141131	-18.212013
33844		5.737197	0.833840	8.362296	-0.547248	-0.017278	0.347965	-0.066473	-0.318644	-0.207836	-0.287109	0.025879	-0.867676	0.057247	0.008307	0.083711	0.936659	0.006159	-0.324441	-0.131791	7.009183	-37.312265	-18.387409
33845		5.376758	0.903764	8.849441	-1.135059	0.177271	0.517802	0.004948	-0.381969	-0.205746	-0.291748	0.023682	-0.867676	0.053608	0.008980	0.088597	0.935892	0.006235	-0.326258	-0.132755	7.119021	-37.519290	-18.567646
33846		6.053790	1.408488	8.777776	-0.507866	0.488320	0.919736	0.049701	-0.537814	-0.146061	-0.293945	0.023438	-0.867676	0.060312	0.014019	0.087944	0.934901	0.006320	-0.328834	-0.133371	7.238302	-37.818929	-18.720307
33847		5.296624	1.920465	9.428119	-1.412057	1.230191	1.009705	0.016453	-0.633822	-0.093290	-0.300781	0.027832	-0.865479	0.052676	0.019172	0.094450	0.933781	0.006099	-0.331834	-0.133796	7.322019	-38.176715	-18.845054
33848		5.584412	2.172176	9.378248	-1.180904	1.414440	1.162726	-0.012931	-0.814606	0.007465	-0.311768	0.020996	-0.856445	0.055461	0.021730	0.094007	0.932416	0.005452	-0.335658	-0.133804	7.355498	-38.644522	-18.914879
33849		5.504808	1.872269	9.613003	-1.557350	1.197450	1.248858	-0.054145	-1.036149	0.102387	-0.323242	0.025146	-0.856445	0.054539	0.018777	0.096408	0.930724	0.004306	-0.340482	-0.133441	7.335700	-39.245154	-18.936727
33850		5.351726	1.583664	9.982036	-2.097352	1.037621	1.381621	-0.096524	-1.312292	0.160404	-0.338867	0.024902	-0.851807	0.052848	0.015927	0.100161	0.928567	0.002679	-0.346551	-0.132883	7.281087	-40.006942	-18.941735
33851		5.405765	1.236698	10.303269	-2.506806	0.783469	1.589418	-0.125812	-1.650178	0.205287	-0.347900	0.024658	-0.847412	0.053192	0.012487	0.103466	0.925802	0.000614	-0.354151	-0.132162	7.208038	-40.964042	-18.944116
33852		5.220227	0.811812	10.375060	-2.985045	0.507680	1.429140	-0.152586	-2.031138	0.238791	-0.365967	0.028809	-0.836426	0.051135	0.008259	0.104267	0.922303	-0.001887	-0.363465	-0.131325	7.125907	-42.140046	-18.955906
33853		5.209882	0.647007	10.878172	-3.606194	0.500517	1.703986	-0.189654	-2.409130	0.262374	-0.392822	0.028076	-0.831787	0.050775	0.006641	0.109392	0.918015	-0.004849	-0.374451	-0.130425	7.033453	-43.532711	-18.983442
33854		5.313141	1.159915	11.406316	-4.062284	1.150688	2.097036	-0.217072	-2.870063	0.341570	-0.422363	0.036377	-0.820801	0.051467	0.011812	0.114797	0.912750	-0.008384	-0.387465	-0.129179	6.911147	-45.192941	-18.990059
33855		5.501786	0.988386	11.823817	-4.623944	1.140373	2.367265	-0.237114	-3.379292	0.450285	-0.456055	0.035645	-0.802734	0.052987	0.010146	0.119133	0.906338	-0.012549	-0.402688	-0.127421	6.744910	-47.150400	-18.951448
33856		4.461991	-0.387813	11.908607	-6.082121	0.212146	1.359485	-0.143429	-3.859083	0.448749	-0.492188	0.039551	-0.787109	0.042320	-0.003696	0.119920	0.898652	-0.016618	-0.420007	-0.125470	6.662215	-49.380583	-18.962210
33857		4.812823	0.008361	12.401697	-6.586845	0.750084	1.719348	-0.036091	-4.388177	0.393953	-0.530029	0.034180	-0.753418	0.045392	0.000197	0.125033	0.889448	-0.020385	-0.439595	-0.123380	6.721997	-51.908323	-19.069491
33858		4.176543	-0.523325	13.565349	-8.505629	0.697053	1.539060	0.141611	-5.034798	0.383716	-0.577148	0.035400	-0.735596	0.038344	-0.005254	0.136644	0.878327	-0.023758	-0.461918	-0.120866	6.968102	-54.802783	-19.285793
33859		4.572841	-1.797157	14.314648	-9.791530	-0.340857	1.719801	0.379852	-5.747912	0.305710	-0.626709	0.034424	-0.699707	0.041619	-0.018179	0.144348	0.864901	-0.026288	-0.487187	-0.117912	7.547670	-58.096189	-19.722830
33860		5.339684	-2.637849	14.828052	-10.734113	-1.060890	1.973230	0.538973	-6.512074	0.077963	-0.680420	0.031006	-0.657227	0.048545	-0.026761	0.149842	0.848680	-0.028001	-0.515416	-0.115346	8.687352	-61.800245	-20.685262
33861		7.614003	-1.195396	14.883286	-10.302638	0.127186	3.402160	0.612678	-7.205979	-0.169280	-0.733887	0.020996	-0.603516	0.070705	-0.012477	0.151408	0.829528	-0.029131	-0.546054	-0.113402	10.640597	-65.858911	-22.471954
33862		9.834404	2.350142	14.487020	-9.350507	3.354479	4.791246	0.418789	-7.718853	-0.225456	-0.782959	0.015381	-0.545410	0.092683	0.023086	0.148569	0.807754	-0.031162	-0.577945	-0.111989	13.479454	-70.161852	-25.275613
33863		12.752956	2.782278	14.092627	-9.190684	3.559219	6.668987	0.085515	-8.124314	-0.050446	-0.838867	0.014160	-0.478516	0.121674	0.027730	0.145961	0.783580	-0.035221	-0.610353	-0.110590	17.541591	-74.646816	-29.484937
33864		19.783310	4.493547	14.016709	-8.632427	4.739177	12.786823	-0.562619	-8.179636	0.135902	-0.881592	0.017578	-0.411865	0.191856	0.045476	0.147969	0.757924	-0.042361	-0.641563	-0.110248	24.036569	-79.067601	-36.483198
33865		23.071029	2.362782	15.225958	-11.489685	3.236202	15.223888	-1.685799	-7.617921	0.347688	-0.915771	0.034424	-0.349854	0.224653	0.025353	0.160686	0.732725	-0.054057	-0.668957	-0.112644	35.792605	-82.978885	-49.357138
33866		19.502186	-0.814371	17.691684	-16.413984	1.905787	10.696892	-2.379307	-6.954155	0.149486	-0.949707	0.042480	-0.283447	0.188719	-0.005843	0.183631	0.708397	-0.067181	-0.692612	-0.118106	65.244948	-85.678954	-80.312492
33867		8.896501	-7.225920	19.379693	-20.788162	-2.230634	-1.470448	-2.565704	-6.744436	-0.390508	-0.967529	0.041992	-0.227783	0.082206	-0.069906	0.197552	0.683464	-0.078880	-0.714682	-0.126034	115.167633	-85.416520	-131.843617
33868		-4.866537	-15.704646	16.896949	-20.251015	-9.668879	-17.028924	-1.566280	-6.681597	-1.392327	-0.998291	0.027832	-0.158447	-0.055384	-0.155356	0.168415	0.657660	-0.083450	-0.736646	-0.133684	138.692401	-82.409611	-156.395415
33869		-1.626212	-20.133942	12.095126	-17.030409	-15.387831	-15.040231	0.965829	-7.459951	-2.315817	-1.008301	-0.001465	-0.084473	-0.023065	-0.201677	0.119202	0.628509	-0.076695	-0.762231	-0.134531	147.974960	-78.173676	-165.247154
33870		25.620978	-14.436153	16.779349	-25.394923	-10.408417	10.007180	3.275713	-5.477285	-2.407684	-1.018555	-0.026123	-0.046143	0.249747	-0.150192	0.172265	0.606892	-0.060899	-0.782133	-0.127444	151.484675	-74.766402	-166.928377
33871		27.843088	-2.638321	17.090463	-24.029802	0.034015	12.474651	3.688288	-1.932906	-1.600689	-1.022705	-0.035156	-0.039307	0.276525	-0.031780	0.173030	0.599257	-0.044692	-0.790659	-0.117266	152.588335	-73.355088	-165.881011
33872		18.408462	5.169299	20.953556	-23.707102	8.386016	3.311603	2.488577	1.411425	-0.694543	-1.029297	-0.039795	-0.070313	0.185732	0.048448	0.208845	0.604907	-0.033689	-0.787966	-0.109822	151.535384	-73.882251	-163.300506
33873		2.760947	3.272919	18.781467	-17.949824	6.884972	-11.015123	0.713081	3.282437	0.016655	-1.027344	-0.035156	-0.114746	0.030685	0.032063	0.187443	0.617855	-0.029817	-0.778337	-0.107509	148.550151	-75.514190	-159.784968
33874		-7.614147	-3.071269	15.105566	-13.390398	0.771011	-20.567063	-0.086837	3.659990	0.058866	-1.013916	-0.034668	-0.154785	-0.073351	-0.030669	0.152428	0.631938	-0.028845	-0.766838	-0.108543	143.816226	-77.278065	-155.035444
33875		-9.255812	-5.336761	12.316984	-11.168138	-1.817795	-21.551751	0.000689	3.394955	-0.273506	-1.013916	-0.036865	-0.197021	-0.090523	-0.053243	0.124718	0.644687	-0.025974	-0.756061	-0.109887	137.464559	-78.682426	-148.544350
33876		-6.199783	-5.192061	10.792354	-10.475000	-2.253681	-18.001365	0.328255	3.175276	-0.676524	-1.000488	-0.040771	-0.236816	-0.060451	-0.051892	0.108806	0.656201	-0.021110	-0.745991	-0.111594	129.373106	-79.656932	-140.185849
33877		-1.632945	-3.103778	10.343438	-10.446839	-0.857919	-12.879601	0.458757	3.275464	-0.922948	-0.989014	-0.051758	-0.274414	-0.014777	-0.031205	0.103613	0.667828	-0.014358	-0.735510	-0.113248	119.192713	-80.278418	-129.584040
33878		2.640567	-0.985868	10.032033	-10.248150	0.515678	-8.000637	0.214799	3.742542	-0.959368	-0.974854	-0.066895	-0.318604	0.028228	-0.010099	0.099793	0.680860	-0.008493	-0.723070	-0.116307	106.300742	-80.607884	-116.460469
33879		5.281852	-0.427870	9.642728	-9.832261	0.485063	-4.899920	-0.273892	4.410021	-0.805723	-0.952637	-0.066162	-0.369629	0.054910	-0.004366	0.095238	0.696126	-0.003974	-0.707774	-0.120206	90.667653	-80.523943	-100.777318
33880		5.829083	-1.340477	8.972020	-9.104215	-0.705150	-4.079908	-0.713211	5.064716	-0.578311	-0.921387	-0.061035	-0.418701	0.060500	-0.013261	0.088254	0.713382	-0.001805	-0.689501	-0.125183	73.873137	-79.803875	-84.217659
33881		5.729393	-2.794780	7.917115	-8.033226	-2.367860	-4.054618	-0.900571	5.527444	-0.329087	-0.883057	-0.064697	-0.469971	0.059409	-0.027692	0.077674	0.731918	-0.000450	-0.668980	-0.129469	58.697661	-78.348221	-69.294537
33882		6.022829	-3.653952	7.150602	-7.091107	-3.457069	-3.607923	-0.845904	5.787558	-0.091113	-0.854492	-0.054932	-0.519043	0.062250	-0.036270	0.069878	0.750816	0.000043	-0.646976	-0.133034	46.600252	-76.290010	-57.470207
33883		7.006981	-3.476843	6.693904	-6.080263	-3.648242	-2.350191	-0.699085	5.921775	0.155977	-0.807373	-0.049561	-0.563965	0.072040	-0.034483	0.064946	0.769717	0.000824	-0.624021	-0.134655	37.434159	-73.825515	-48.403958
33884		7.984063	-2.504476	6.588445	-5.102494	-3.015933	-0.966119	-0.601172	6.004725	0.437330	-0.770020	-0.033203	-0.606689	0.081826	-0.024674	0.063522	0.788309	0.000746	-0.600233	-0.135235	30.335163	-71.108976	-41.399564
33885		8.738030	-1.723971	6.750616	-4.323410	-2.479803	0.188149	-0.600996	6.048887	0.733064	-0.725342	-0.023193	-0.644775	0.089431	-0.016717	0.064873	0.806569	0.000238	-0.575736	-0.134068	24.662422	-68.229641	-35.722315
33886		9.520836	-1.298547	7.010903	-3.579948	-2.251441	1.302870	-0.672572	6.076031	0.963543	-0.681152	-0.009033	-0.680908	0.097340	-0.012291	0.067215	0.824223	-0.001643	-0.550516	-0.132613	19.993575	-65.221047	-31.149163
33887		9.904907	-0.885666	7.603637	-3.164261	-1.884869	2.149387	-0.771170	6.076414	1.099669	-0.645752	0.002930	-0.712402	0.101344	-0.008018	0.073012	0.841252	-0.003847	-0.524720	-0.130193	16.155415	-62.109611	-27.364184
33888		10.545999	-0.563339	8.106287	-2.486885	-1.651343	3.159520	-0.910424	6.079058	1.142644	-0.608154	0.017090	-0.743896	0.107887	-0.004662	0.077831	0.857420	-0.007156	-0.498284	-0.128425	12.947230	-58.905297	-24.369296
33889		11.187158	-0.223860	8.835958	-1.877340	-1.358377	4.252871	-1.085764	6.107973	1.134279	-0.565918	0.029053	-0.773193	0.114508	-0.001127	0.084897	0.872882	-0.010739	-0.471146	-0.126424	10.237299	-55.611358	-21.891443
33890		11.758641	0.178022	9.705917	-1.270438	-0.949944	5.350002	-1.297811	6.139590	1.114405	-0.526123	0.050049	-0.802734	0.120476	0.003060	0.093373	0.887445	-0.015539	-0.443231	-0.125482	7.851890	-52.240344	-19.950741
33891		12.569243	0.226010	10.718573	-0.570332	-0.897535	6.670616	-1.520143	6.183991	1.090674	-0.481934	0.066406	-0.825439	0.128907	0.003752	0.103208	0.901236	-0.020841	-0.414557	-0.124425	5.715382	-48.799852	-18.315538
33892		13.117640	0.613210	11.788800	0.177456	-0.428340	7.825326	-1.739432	6.188583	1.070429	-0.446777	0.087158	-0.854980	0.134699	0.007848	0.113693	0.914068	-0.027073	-0.385258	-0.123787	3.741569	-45.316845	-16.987092
33893		14.150824	1.116576	12.959483	1.376542	0.106902	9.355069	-1.994528	6.135990	1.116725	-0.393555	0.106201	-0.884521	0.145322	0.013233	0.125050	0.925804	-0.034555	-0.355658	-0.123287	1.824092	-41.840574	-15.868000
33894		16.251425	1.195984	14.160658	3.434478	0.079394	11.496868	-2.230082	6.015025	1.210771	-0.345459	0.135986	-0.907715	0.166588	0.014501	0.136484	0.936366	-0.043340	-0.326043	-0.122621	-0.088085	-38.405241	-14.890592
33895		20.909544	0.705924	15.098312	7.746640	-0.975641	14.773367	-2.374452	5.904484	1.372104	-0.299316	0.165771	-0.921875	0.213365	0.010256	0.144616	0.945810	-0.053077	-0.296510	-0.121277	-1.992907	-35.012680	-13.985219
33896		26.422547	0.682011	14.226517	14.245643	-1.992711	16.527030	-2.303253	6.023530	1.541727	-0.239746	0.193604	-0.938232	0.268276	0.010454	0.134119	0.954531	-0.062631	-0.266052	-0.119012	-3.782776	-31.521417	-13.146119
33897		29.433565	8.474462	12.600963	21.287137	4.949181	15.064066	-2.244478	6.292363	2.084754	-0.171143	0.223877	-0.957031	0.297170	0.089170	0.115704	0.962844	-0.072360	-0.233908	-0.113940	-5.583538	-27.834723	-12.113025
33898		30.525396	5.697741	9.520693	24.478832	1.887017	11.439456	-2.119396	6.576862	2.620848	-0.102539	0.247559	-0.962158	0.307360	0.061930	0.084482	0.970592	-0.081881	-0.199930	-0.106182	-7.321406	-23.921776	-10.933580
33899		30.408221	1.613744	5.230816	26.333157	-2.492909	6.142244	-1.180158	6.677603	2.541443	-0.033203	0.257813	-0.958496	0.305360	0.020281	0.042014	0.977489	-0.086577	-0.165765	-0.097685	-8.371737	-19.936727	-9.939858
33900		26.590929	-0.948708	0.258810	24.645114	-5.114802	-1.196200	0.342487	6.338519	1.853357	0.038818	0.254639	-0.967529	0.265886	-0.007018	-0.005853	0.983250	-0.083340	-0.134064	-0.091111	-8.349840	-16.189922	-9.398457
33901		24.068138	1.349282	-5.250574	24.418357	-3.396306	-8.968091	1.634348	5.551958	0.954701	0.089111	0.233398	-0.962891	0.239033	0.015101	-0.059038	0.987659	-0.073407	-0.107095	-0.087585	-7.443432	-12.967921	-9.288304
33902		24.635590	6.482732	-10.013771	26.796602	0.868035	-15.317269	1.861523	4.463339	0.189646	0.139160	0.216553	-0.965088	0.243987	0.066022	-0.104990	0.990517	-0.062380	-0.085774	-0.087339	-6.339156	-10.417435	-9.499644
33903		28.290856	14.237938	-14.907397	32.277584	7.247462	-21.253064	0.715337	3.235990	-0.278847	0.166260	0.217041	-0.951904	0.280652	0.142530	-0.153118	0.991866	-0.057322	-0.070170	-0.089399	-5.872431	-8.594903	-9.858922
33904		30.057503	18.552188	-18.814196	35.004367	10.478422	-26.135306	-1.315464	2.055177	-0.254177	0.185791	0.230957	-0.954346	0.298847	0.183885	-0.192432	0.992012	-0.062868	-0.059468	-0.091778	-6.591099	-7.442197	-10.142496
33905		27.585140	12.156153	-18.586034	31.115189	4.279612	-26.172440	-2.418548	0.835734	0.035127	0.189209	0.264160	-0.941895	0.275046	0.119341	-0.188463	0.991433	-0.074511	-0.054231	-0.092567	-7.974422	-6.968688	-10.181749
33906		26.155528	1.580776	-16.053399	27.365966	-5.705586	-22.574606	-1.440054	-0.418683	-0.026503	0.184326	0.272949	-0.950928	0.261893	0.014619	-0.160094	0.990732	-0.081866	-0.055664	-0.093004	-8.805005	-7.210978	-10.169853
33907		23.749065	-2.094166	-11.588569	23.952118	-8.185799	-17.685035	0.824018	-1.592009	-0.501900	0.157959	0.257080	-0.957031	0.238351	-0.021067	-0.114077	0.990347	-0.078407	-0.064169	-0.094593	-8.315581	-8.159739	-10.317889
33908		23.656577	3.194285	-5.492117	24.315192	-2.024041	-11.966651	2.280216	-2.349501	-0.882592	0.136230	0.238770	-0.969971	0.237326	0.031499	-0.051775	0.989916	-0.067969	-0.077241	-0.097369	-6.961926	-9.564602	-10.652022
33909		-7.091177	-1.154650	17.030592	-9.778832	2.589570	5.656147	2.540643	-3.289491	-1.364919	0.091797	0.222412	-0.987061	-0.073784	-0.013201	0.168947	0.988604	-0.056479	-0.095236	-0.101990	-5.401957	-11.526603	-11.234637
33910		-9.726669	-16.841761	17.656676	-16.435829	-12.307256	6.566695	2.609727	-3.326837	-1.828500	0.050293	0.190674	-0.992920	-0.101709	-0.169772	0.172690	0.986550	-0.044429	-0.113528	-0.108892	-3.711387	-13.513666	-12.157387
33911		-10.616173	-7.445918	10.297810	-14.187818	-3.977801	-2.263254	4.157165	-4.125664	-2.226830	0.004639	0.149658	-1.005127	-0.109070	-0.075344	0.099188	0.983431	-0.024913	-0.136610	-0.116536	-1.022599	-15.932241	-13.372847
33912		5.315851	25.491442	2.892295	10.007137	23.838610	-5.577585	2.615711	-5.446456	0.044706	-0.055664	0.139648	-1.004395	0.052227	0.254506	0.033685	0.979611	-0.015277	-0.164870	-0.113786	0.460003	-19.056090	-13.328127
33913		23.578188	3.495001	11.516116	18.291254	-0.670858	9.306558	0.878938	-5.561395	1.879671	-0.104736	0.129883	-1.004150	0.232117	0.036618	0.121809	0.975726	-0.015706	-0.192423	-0.103373	0.565403	-22.256356	-12.206512
33914		24.414029	13.751860	18.306683	17.455081	10.058605	16.912356	1.059738	-4.682430	0.470673	-0.147461	0.128906	-0.997070	0.239432	0.137093	0.189437	0.971258	-0.013434	-0.215749	-0.099652	1.068305	-24.946575	-11.952555
33915		18.635350	15.528512	15.575286	12.722125	12.829256	12.648021	0.047222	-4.026766	-0.420881	-0.194824	0.132568	-0.999268	0.183493	0.154860	0.159503	0.966501	-0.014781	-0.235343	-0.101348	1.233099	-27.252668	-12.271282
33916		19.956862	-5.536431	12.455183	10.242920	-8.179970	10.489470	-0.282593	-3.310133	-0.216020	-0.228516	0.131836	-0.990234	0.197410	-0.055399	0.127909	0.962324	-0.017616	-0.251210	-0.102545	1.155784	-29.150397	-12.465458
33917		21.463810	-18.531003	11.280362	8.844989	-21.249986	10.225417	1.030360	-2.361228	-0.218031	-0.246094	0.120361	-0.989746	0.213091	-0.186129	0.114368	0.959248	-0.013621	-0.263130	-0.102077	1.834830	-30.503790	-12.648759
33918		11.700012	5.997635	8.517160	6.651406	4.285738	3.707171	1.500611	-1.445959	-0.241747	-0.258789	0.102295	-0.984863	0.116450	0.059190	0.086461	0.957254	-0.006896	-0.270867	-0.101234	2.794192	-31.330498	-12.857482
33919		5.944968	10.110939	10.076633	1.644413	9.417443	2.341155	0.874326	-1.316297	-0.412041	-0.274414	0.097656	-0.982666	0.058990	0.100545	0.101596	0.955252	-0.002847	-0.277648	-0.101969	3.463030	-32.074937	-13.181712
33920		14.824730	-0.644187	8.346644	7.598732	-3.021263	5.119897	0.718401	-0.970316	-0.351561	-0.278564	0.090820	-0.980225	0.147828	-0.007003	0.084160	0.953698	0.000526	-0.282684	-0.102713	4.021848	-32.621156	-13.471372
33921		6.172453	4.658431	8.990539	1.090211	3.835811	1.355455	0.448491	-0.430005	-0.336157	-0.285156	0.083984	-0.982178	0.061609	0.046279	0.090142	0.952901	0.002891	-0.284995	-0.103678	4.410833	-32.856988	-13.720127
33922		7.966267	1.138655	9.072338	1.769031	-0.009492	2.184619	0.332364	-0.290590	-0.272179	-0.289795	0.088379	-0.979980	0.079546	0.011127	0.090858	0.952319	0.004659	-0.286583	-0.104583	4.707532	-33.015284	-13.929993
33923		6.364822	1.912802	8.735584	0.770672	1.014229	1.089490	0.256901	-0.102813	-0.247170	-0.287109	0.079590	-0.984375	0.063627	0.018937	0.087413	0.952025	0.006155	-0.287234	-0.105390	4.946629	-33.066361	-14.103157
33924		5.958375	0.781854	8.410376	0.382740	-0.056958	0.516792	0.206999	-0.014784	-0.230682	-0.280273	0.075195	-0.984375	0.059586	0.007663	0.084116	0.951855	0.007411	-0.287443	-0.106270	5.148472	-33.067925	-14.270091
33925		5.719370	0.697600	8.475070	0.131496	-0.116680	0.433955	0.205404	0.039507	-0.220939	-0.289307	0.074951	-0.990967	0.057218	0.006826	0.084746	0.951777	0.008699	-0.287388	-0.107020	5.343757	-33.038111	-14.416969
33926		5.750908	1.086935	8.514624	0.211171	0.229380	0.514747	0.202582	0.048636	-0.205956	-0.289063	0.070557	-0.981934	0.057541	0.010724	0.085143	0.951707	0.009933	-0.287293	-0.107786	5.531518	-33.003950	-14.562898
33927		5.560467	1.599119	8.572838	0.126149	0.746071	0.502202	0.162903	0.041797	-0.163461	-0.284424	0.068359	-0.981934	0.055636	0.015876	0.085730	0.951661	0.010937	-0.287207	-0.108324	5.680775	-32.975274	-14.670216
33928		5.397358	1.382810	8.631241	-0.082606	0.553071	0.445443	0.108212	0.014441	-0.106491	-0.284424	0.066162	-0.981934	0.053987	0.013753	0.086316	0.951598	0.011561	-0.287228	-0.108753	5.778711	-32.965711	-14.750619
33929		5.370052	1.174601	8.435829	-0.042483	0.336152	0.250391	0.068791	-0.025471	-0.075004	-0.286865	0.070557	-0.986328	0.053694	0.011697	0.084369	0.951508	0.011954	-0.287415	-0.109008	5.843764	-32.980189	-14.802343
33930		5.372092	0.945022	8.400024	-0.073289	0.103145	0.202143	0.050437	-0.054331	-0.058070	-0.293457	0.066162	-0.979492	0.053701	0.009413	0.084017	0.951385	0.012220	-0.287734	-0.109211	5.893328	-33.012504	-14.844653
33931		5.369785	0.731649	8.325464	-0.085133	-0.112594	0.120253	0.048528	-0.074520	-0.051122	-0.293457	0.066162	-0.977295	0.053669	0.007283	0.083276	0.951237	0.012456	-0.288144	-0.109385	5.939888	-33.056266	-14.883665
33932		5.505586	0.993431	8.211841	0.130139	0.104671	0.122342	0.052874	-0.089697	-0.045402	-0.295410	0.059326	-0.981689	0.055021	0.009900	0.082146	0.951070	0.012696	-0.288633	-0.109527	5.987625	-33.109421	-14.919978
33933		5.583926	1.016301	8.122526	0.237445	0.102548	0.092949	0.060128	-0.076484	-0.020087	-0.291260	0.066162	-0.986328	0.055809	0.010133	0.081250	0.950935	0.012941	-0.289061	-0.109536	6.029491	-33.156111	-14.938141
33934		5.578867	1.200558	8.109212	0.269577	0.279520	0.095573	0.072656	-0.046814	0.020875	-0.288818	0.061768	-0.983887	0.055768	0.011982	0.081110	0.950864	0.013203	-0.289361	-0.109331	6.062306	-33.188786	-14.926379
33935		5.384958	0.823801	8.169678	-0.001082	-0.046826	0.006572	0.079177	-0.011550	0.050914	-0.284424	0.063965	-0.986328	0.053843	0.008219	0.081703	0.950861	0.013472	-0.289495	-0.108972	6.086102	-33.202767	-14.891573
33936		5.457877	0.513761	8.198564	-0.022146	-0.367413	0.042937	0.081920	0.008512	0.035587	-0.291016	0.063965	-0.983887	0.054581	0.005114	0.081985	0.950877	0.013787	-0.289538	-0.108679	6.116549	-33.204822	-14.865804
33937		5.267663	0.464342	8.239028	-0.209181	-0.378318	-0.032167	0.077142	0.012711	0.000037	-0.293457	0.066162	-0.986328	0.052682	0.004612	0.082389	0.950881	0.014133	-0.289552	-0.108563	6.157179	-33.201898	-14.863876
33938		5.296375	0.674614	8.155273	-0.098636	-0.188350	-0.067434	0.062440	0.015861	-0.031791	-0.291016	0.059570	-0.979492	0.052971	0.006712	0.081551	0.950872	0.014457	-0.289545	-0.108619	6.201270	-33.195634	-14.883423
33939		5.290260	0.896242	8.193355	-0.080669	0.024402	-0.019115	0.042297	0.024217	-0.053341	-0.286621	0.061768	-0.983887	0.052915	0.008931	0.081929	0.950865	0.014720	-0.289482	-0.108805	6.241354	-33.182844	-14.916966
33940		5.328133	1.059988	8.244442	-0.045257	0.172627	0.059068	0.016496	0.018300	-0.059779	-0.295410	0.059326	-0.981689	0.053292	0.010577	0.082440	0.950848	0.014868	-0.289435	-0.109060	6.269424	-33.173413	-14.955357
33941		5.336812	1.294514	8.255650	0.002689	0.396892	0.094662	-0.003802	0.009065	-0.047732	-0.291260	0.066162	-0.986328	0.053375	0.012934	0.082554	0.950826	0.014896	-0.289419	-0.109289	6.281607	-33.169577	-14.986197
33942		5.299993	1.042788	8.239757	-0.069155	0.158087	0.038260	-0.019807	-0.014845	-0.034273	-0.288818	0.063965	-0.983887	0.052996	0.010427	0.082400	0.950777	0.014815	-0.289512	-0.109477	6.280740	-33.180596	-15.009720
33943		5.332576	0.954379	8.113354	0.006741	0.061338	-0.057181	-0.023671	-0.039273	-0.034308	-0.295410	0.061523	-0.983887	0.053311	0.009544	0.081143	0.950694	0.014703	-0.289716	-0.109674	6.278533	-33.205130	-15.035050
33944		5.267046	0.830898	8.176369	-0.111142	-0.041359	-0.051995	-0.019212	-0.065280	-0.041491	-0.295654	0.065918	-0.983887	0.052645	0.008306	0.081780	0.950568	0.014609	-0.290049	-0.109900	6.282796	-33.244411	-15.067284
33945		5.452906	1.011957	8.112865	0.102844	0.094108	0.013674	-0.022246	-0.088392	-0.039861	-0.293457	0.063965	-0.979492	0.054495	0.010118	0.081152	0.950411	0.014484	-0.290486	-0.110124	6.285544	-33.296569	-15.100106
33946		5.365712	1.183973	8.315673	-0.054550	0.290949	0.150015	-0.035264	-0.095681	-0.034225	-0.295654	0.066162	-0.988525	0.053619	0.011845	0.083180	0.950245	0.014286	-0.290955	-0.110341	6.279209	-33.353611	-15.129709
33947		5.415754	1.099695	8.217349	0.013987	0.198459	0.088068	-0.046711	-0.107320	-0.026919	-0.295654	0.065918	-0.981689	0.054115	0.011009	0.082200	0.950068	0.014016	-0.291470	-0.110541	6.263934	-33.417365	-15.155152
33948		5.313818	0.751108	8.276556	-0.181974	-0.112127	0.049184	-0.045417	-0.115215	-0.034597	-0.302246	0.059326	-0.979248	0.053092	0.007521	0.082794	0.949874	0.013759	-0.292025	-0.110776	6.252796	-33.485510	-15.186494
33949		5.418166	0.778262	8.249669	-0.089394	-0.105735	0.086811	-0.029822	-0.131174	-0.052952	-0.297852	0.061523	-0.981689	0.054130	0.007781	0.082531	0.949646	0.013594	-0.292661	-0.111076	6.258068	-33.561230	-15.231528
33950		5.349406	0.834182	8.298866	-0.174445	-0.032054	0.094466	-0.024018	-0.143141	-0.071485	-0.300293	0.068115	-0.984131	0.053438	0.008333	0.083026	0.949388	0.013478	-0.293358	-0.111457	6.274409	-33.642959	-15.290252
33951		5.394582	0.774585	8.271223	-0.150177	-0.100232	0.090949	-0.018620	-0.163691	-0.095496	-0.302246	0.061523	-0.981689	0.053882	0.007728	0.082756	0.949086	0.013410	-0.294150	-0.111945	6.303798	-33.734506	-15.366999
33952		5.288309	0.795546	8.340206	-0.287835	-0.053762	0.090463	-0.007927	-0.191102	-0.110410	-0.306885	0.063477	-0.979492	0.052808	0.007930	0.083452	0.948723	0.013375	-0.295082	-0.112572	6.346497	-33.841029	-15.466262
33953		5.244972	0.660087	8.432555	-0.424623	-0.173619	0.129291	0.001594	-0.244264	-0.141795	-0.304688	0.065918	-0.981689	0.052351	0.006563	0.084390	0.948272	0.013426	-0.296264	-0.113255	6.409085	-33.975410	-15.581321
33954		5.198322	0.483501	8.645358	-0.647861	-0.329236	0.260561	0.018045	-0.312887	-0.192766	-0.315674	0.061279	-0.974854	0.051853	0.004777	0.086535	0.947677	0.013566	-0.297781	-0.114242	6.504337	-34.145776	-15.747229
33955		5.108057	0.382255	8.692524	-0.806309	-0.410338	0.236177	0.037015	-0.417897	-0.239765	-0.313477	0.059082	-0.983643	0.050903	0.003745	0.087032	0.946903	0.013831	-0.299797	-0.115348	6.634110	-34.372246	-15.944547
33956		5.210394	0.818953	8.754852	-0.718101	-0.012433	0.382913	0.047293	-0.513964	-0.299762	-0.326904	0.061035	-0.972656	0.051891	0.008091	0.087684	0.945932	0.014154	-0.302272	-0.116810	6.799244	-34.649249	-16.202452
33957		4.926295	1.900115	9.369331	-1.126820	1.126594	0.823283	0.022906	-0.655001	-0.290738	-0.326660	0.056641	-0.974854	0.048983	0.018919	0.093856	0.944755	0.014291	-0.305393	-0.118193	6.955657	-35.006215	-16.457745
33958		5.092457	1.058800	9.546485	-1.358710	0.283135	0.969826	-0.005047	-0.860587	-0.244221	-0.333496	0.058594	-0.963623	0.050526	0.010529	0.095683	0.943266	0.014076	-0.309471	-0.119493	7.090585	-35.483087	-16.710763
33959		4.808998	1.521931	10.130430	-1.926685	0.841739	1.306957	-0.023664	-1.102765	-0.235711	-0.349365	0.058350	-0.963623	0.047548	0.015175	0.101566	0.941396	0.013642	-0.314668	-0.120714	7.227364	-36.097498	-16.972120
33960		4.905544	2.192255	10.259077	-1.915294	1.503763	1.509298	-0.053380	-1.396619	-0.161481	-0.367432	0.060059	-0.954590	0.048355	0.021911	0.102924	0.939060	0.012745	-0.321226	-0.121730	7.336783	-36.884070	-17.221616
33961		4.729595	2.075675	10.331904	-2.284948	1.480267	1.412750	-0.092868	-1.719890	-0.071068	-0.383057	0.057617	-0.945557	0.046413	0.020788	0.103711	0.936215	0.011347	-0.329260	-0.122315	7.407935	-37.860455	-17.430631
33962		4.952040	2.260263	10.520576	-2.393639	1.680849	1.665752	-0.127968	-2.037946	0.031698	-0.405518	0.059326	-0.943359	0.048442	0.022678	0.105689	0.932816	0.009392	-0.338740	-0.122565	7.437148	-39.025150	-17.609452
33963		4.784276	1.425227	11.252115	-3.411949	1.040157	1.968655	-0.126522	-2.411584	0.109824	-0.427979	0.061035	-0.932129	0.046474	0.014349	0.113078	0.928725	0.007108	-0.349922	-0.122369	7.458503	-40.407719	-17.760246
33964		4.731584	0.811398	12.369076	-4.619709	0.644357	2.607905	-0.150607	-2.886050	0.177710	-0.457520	0.067139	-0.921143	0.045517	0.008248	0.124350	0.923670	0.004272	-0.363233	-0.121976	7.469053	-42.064902	-17.920867
33965		4.584875	-0.949064	13.193846	-6.048499	-0.830079	2.785197	-0.159974	-3.449985	0.212684	-0.495605	0.066406	-0.900879	0.043574	-0.009338	0.132711	0.917387	0.001014	-0.379049	-0.121338	7.501935	-44.044963	-18.106956
33966		4.459574	-0.752258	13.366670	-6.663751	-0.443374	2.616804	-0.079664	-4.055717	0.165307	-0.524902	0.067871	-0.876465	0.041879	-0.007434	0.134537	0.909589	-0.002188	-0.397555	-0.120804	7.667584	-46.365132	-18.418176
33967		4.776973	0.322654	13.793052	-7.055764	0.742395	2.946550	-0.100724	-4.667816	0.129872	-0.567139	0.062500	-0.853760	0.044532	0.003326	0.138993	0.900126	-0.005752	-0.418642	-0.120328	7.924287	-49.029321	-18.846586
33968		3.591083	-0.797622	15.455657	-9.898699	0.274565	2.608679	0.086858	-5.328804	0.109886	-0.623291	0.061523	-0.818115	0.031781	-0.008025	0.155437	0.888708	-0.008823	-0.442550	-0.119456	8.422627	-52.064531	-19.430630
33969		3.615051	-2.881468	16.461019	-11.831364	-1.458509	2.440366	0.435786	-6.194129	-0.017418	-0.665771	0.058350	-0.780029	0.031030	-0.029178	0.165561	0.874568	-0.010572	-0.470147	-0.118238	9.435959	-55.573398	-20.379286
33970		4.122571	-4.513502	17.013493	-13.177914	-2.925566	2.207183	0.774294	-7.124506	-0.311488	-0.721191	0.041504	-0.719482	0.035066	-0.045855	0.171281	0.857104	-0.010688	-0.501491	-0.117329	11.309900	-59.560777	-22.075783
33971		6.138905	-1.955161	16.587377	-12.282248	-0.764251	3.033952	1.122005	-8.087391	-0.686971	-0.776855	0.026855	-0.658936	0.054552	-0.020686	0.168058	0.835750	-0.008922	-0.536442	-0.116930	14.602143	-63.994071	-25.082672
33972		9.082152	3.130402	15.745984	-10.488520	3.642146	4.909075	0.996026	-8.801203	-0.737375	-0.832275	0.014404	-0.578613	0.083888	0.030189	0.161406	0.810924	-0.007949	-0.573314	-0.116834	19.468702	-68.699021	-29.770786
33973		14.216996	-0.026414	14.348079	-9.659157	-0.378807	7.914629	0.936527	-9.176706	-0.651330	-0.883545	0.004395	-0.511475	0.135389	-0.001404	0.149793	0.783397	-0.007665	-0.610495	-0.116304	27.059871	-73.395922	-37.224627
33974		21.402347	0.637232	15.313514	-10.710252	-0.605732	14.217049	0.804943	-8.902639	-0.865420	-0.923584	-0.005615	-0.424561	0.206951	0.004825	0.162476	0.754953	-0.007070	-0.645257	-0.116784	39.949935	-77.403339	-50.059669
33975		24.553994	-0.459227	17.220923	-14.455710	-1.641626	16.407996	0.296156	-7.961995	-0.996925	-0.949707	-0.023926	-0.357422	0.238401	-0.006057	0.181788	0.728069	-0.007407	-0.675016	-0.119221	59.459888	-79.958902	-69.773771
33976		17.321261	-7.145379	20.081953	-20.605875	-6.213812	7.241573	0.079536	-6.926935	-1.253835	-0.964844	-0.033447	-0.294922	0.165670	-0.072590	0.206617	0.703485	-0.007040	-0.699917	-0.123193	82.938801	-80.573218	-93.542340
33977		0.478396	-10.519583	19.620414	-21.191629	-6.645458	-11.372019	0.601225	-6.289045	-1.884009	-0.977295	-0.060547	-0.232178	-0.002375	-0.105785	0.195887	0.679933	-0.002231	-0.722113	-0.127434	103.334171	-79.279091	-113.901834
33978		-3.164485	-9.046679	14.418511	-15.278234	-5.524966	-15.784256	1.780137	-6.769395	-2.828909	-0.987305	-0.089600	-0.166992	-0.037767	-0.091233	0.142166	0.653219	0.009689	-0.745781	-0.130465	118.507830	-76.358146	-128.376065
33979		24.487770	-3.417581	16.105096	-20.433026	-5.212176	10.820931	2.210133	-5.175868	-2.853593	-0.988281	-0.120850	-0.124268	0.240071	-0.039447	0.166889	0.631603	0.024138	-0.763636	-0.131739	125.855983	-73.389387	-134.675861
33980		22.960799	6.320525	19.832037	-23.339589	4.533742	10.064133	1.179306	-2.111040	-2.188387	-0.980713	-0.143066	-0.112549	0.228160	0.059523	0.201092	0.621867	0.034791	-0.770720	-0.134394	127.251131	-71.662364	-135.433186
33981		15.507794	4.319471	21.106636	-23.390908	4.173725	2.023013	-0.697174	0.269817	-0.919625	-0.971924	-0.138428	-0.125977	0.155561	0.043215	0.210706	0.622373	0.036321	-0.769260	-0.139902	125.555402	-71.328530	-134.068899
33982		2.614781	-6.317575	16.660031	-17.490081	-3.730296	-11.928467	-1.474276	1.659532	-0.176958	-0.962891	-0.142578	-0.148193	0.027476	-0.061970	0.166836	0.628845	0.033472	-0.762990	-0.145880	122.176990	-71.775395	-131.411608
33983		-4.773322	-10.050624	13.899679	-13.936482	-5.918444	-19.179370	-1.058898	2.079620	0.048782	-0.958496	-0.135742	-0.170654	-0.046256	-0.099778	0.140012	0.636923	0.031444	-0.755655	-0.149419	118.441628	-72.400075	-128.126371
33984		-6.882619	-9.689184	12.127496	-11.987209	-5.346878	-20.584749	-0.277983	1.957421	0.094417	-0.956543	-0.131348	-0.190674	-0.067588	-0.096755	0.122075	0.644387	0.031562	-0.749195	-0.149920	115.152087	-72.955909	-124.861150
33985		-4.535575	-6.942965	11.352058	-11.375145	-3.477920	-17.306072	0.275132	1.885835	0.180544	-0.949951	-0.128906	-0.204102	-0.044220	-0.069626	0.113845	0.651489	0.033157	-0.743340	-0.148014	112.176890	-73.484033	-121.591713
33986		-0.790906	-3.573568	11.288380	-11.463673	-1.269093	-12.603990	0.325429	2.155770	0.404241	-0.941406	-0.117432	-0.233154	-0.006620	-0.035934	0.112901	0.659696	0.034207	-0.736581	-0.145188	108.654615	-74.134436	-117.743635
33987		2.302791	-1.728984	11.385433	-11.701728	-0.323199	-8.876762	-0.030257	2.789273	0.743732	-0.930664	-0.106201	-0.260254	0.024677	-0.017183	0.113520	0.670420	0.033362	-0.727432	-0.142365	103.516032	-74.987624	-112.433692
33988		3.277667	-2.172902	11.000606	-11.426338	-1.094890	-7.644310	-0.447952	3.591090	1.034852	-0.915527	-0.090088	-0.293945	0.034856	-0.021307	0.109441	0.684164	0.030548	-0.715119	-0.139969	95.817661	-75.922064	-104.760305
33989		2.510643	-2.944392	10.491494	-10.907073	-1.768747	-8.100843	-0.651768	4.289439	1.196383	-0.907471	-0.067627	-0.327637	0.027524	-0.028943	0.104437	0.700240	0.027007	-0.700015	-0.137526	85.408632	-76.637876	-94.434369
33990		2.183392	-2.641268	9.884180	-10.161898	-1.528671	-7.858966	-0.668799	4.756001	1.265640	-0.883545	-0.047119	-0.377197	0.024342	-0.025934	0.098370	0.717623	0.023401	-0.682857	-0.134821	73.058501	-76.844773	-82.156054
33991		2.797771	-1.869346	9.266683	-9.272203	-1.052929	-6.636422	-0.665392	5.050195	1.272068	-0.868896	-0.024414	-0.406494	0.030423	-0.018198	0.091980	0.735529	0.020039	-0.664227	-0.131899	60.291099	-76.368297	-69.429183
33992		3.986315	-0.850166	8.960376	-8.480489	-0.405214	-4.833238	-0.706744	5.276385	1.246220	-0.838379	-0.001465	-0.451660	0.042259	-0.007929	0.088539	0.753663	0.016680	-0.644230	-0.129157	48.515707	-75.184864	-57.716184
33993		5.307082	0.030800	8.952716	-7.810523	0.141116	-2.937781	-0.830265	5.478675	1.206335	-0.816406	0.014648	-0.496338	0.055491	0.001005	0.088026	0.771833	0.013168	-0.622918	-0.126784	38.565902	-73.383004	-47.879871
33994		6.679246	0.723863	9.106707	-7.120796	0.538461	-1.035655	-1.018730	5.681360	1.139221	-0.788330	0.039551	-0.537109	0.069298	0.008086	0.089082	0.789987	0.009247	-0.600146	-0.125135	30.528029	-71.067551	-40.058916
33995		7.994250	0.943128	9.242959	-6.306681	0.504947	0.682752	-1.232354	5.883819	1.048183	-0.757813	0.062500	-0.579834	0.082561	0.010419	0.089964	0.807966	0.004883	-0.575934	-0.124368	24.184968	-68.350116	-34.054230
33996		9.289985	1.116580	9.356697	-5.279847	0.439153	2.310461	-1.417554	6.073342	0.941742	-0.729248	0.081055	-0.615967	0.095626	0.012261	0.090606	0.825677	0.000181	-0.550247	-0.124438	19.184137	-65.313761	-29.504656
33997		10.373049	1.113316	9.570538	-4.259740	0.262480	3.683598	-1.572354	6.261427	0.858063	-0.694580	0.108398	-0.656738	0.106605	0.012321	0.092304	0.842980	-0.004803	-0.523161	-0.125152	15.187510	-62.034705	-26.055457
33998		10.864411	1.330974	9.988273	-3.452913	0.447180	4.587609	-1.701287	6.406400	0.758516	-0.664063	0.133545	-0.699707	0.111712	0.014559	0.096216	0.859707	-0.009985	-0.494778	-0.126490	11.952298	-58.567316	-23.459448
33999		11.141914	1.667349	10.535169	-2.714141	0.805249	5.346678	-1.840750	6.479576	0.659456	-0.626465	0.150146	-0.742188	0.114692	0.017994	0.101509	0.875550	-0.015453	-0.465479	-0.128461	9.281873	-54.991925	-21.532486
34000		11.810917	1.772455	11.084146	-1.709289	0.856247	6.365682	-2.014752	6.513722	0.558028	-0.586914	0.168701	-0.789551	0.121578	0.019150	0.106731	0.890404	-0.021418	-0.435346	-0.131133	6.991414	-51.341716	-20.119405
34001		12.486119	2.224566	12.227695	-0.921018	1.333135	7.726418	-2.212197	6.516383	0.483814	-0.534180	0.198730	-0.830322	0.128693	0.023874	0.117867	0.904122	-0.028062	-0.404610	-0.134412	4.942434	-47.661410	-19.096145
34002		13.513308	2.363038	13.186238	0.344327	1.414379	9.155843	-2.476163	6.522330	0.438573	-0.481445	0.233154	-0.880127	0.139275	0.025526	0.127057	0.916714	-0.035781	-0.373144	-0.138267	2.992534	-43.949820	-18.362212
34003		14.359301	2.899937	14.713956	1.432895	2.037311	10.795988	-2.753257	6.506631	0.443593	-0.417725	0.270264	-0.925781	0.148200	0.031303	0.141947	0.928079	-0.044735	-0.341141	-0.142444	1.062238	-40.237451	-17.840779
34004		16.219778	3.309430	15.800664	3.769368	2.264813	12.640209	-3.108789	6.504267	0.526310	-0.331787	0.309814	-0.958008	0.167117	0.035925	0.152080	0.938248	-0.055435	-0.308396	-0.146659	-0.967050	-36.510126	-17.449184
34005		18.509200	2.449393	16.566137	6.507064	1.159843	14.251098	-3.446689	6.530651	0.661070	-0.236816	0.353760	-0.970703	0.190270	0.027897	0.159043	0.947191	-0.067823	-0.274875	-0.150575	-3.115520	-32.761551	-17.149460
34006		20.878900	1.161083	17.157203	9.492029	-0.359513	15.507176	-3.655811	6.526470	0.917725	-0.137451	0.400146	-0.969971	0.214167	0.015634	0.164379	0.954939	-0.081473	-0.240702	-0.153349	-5.364834	-28.992707	-16.857897
34007		23.574508	1.497163	15.807983	14.252439	-0.838605	14.757676	-3.674238	6.413085	1.322266	-0.032959	0.435547	-0.946777	0.240526	0.019358	0.150088	0.961492	-0.095659	-0.206594	-0.153954	-7.646568	-25.260329	-16.478052
34008		26.525311	13.352398	13.884350	23.178438	9.309801	11.405755	-3.818403	6.156148	2.384014	0.051270	0.465820	-0.907959	0.267668	0.139219	0.128006	0.967159	-0.111705	-0.172766	-0.149257	-10.188000	-21.563384	-15.600878
34009		30.115467	3.594150	9.754984	25.921107	-1.264124	8.654182	-3.660331	6.039786	3.367502	0.140869	0.478760	-0.868652	0.303221	0.042701	0.087672	0.972097	-0.127746	-0.138854	-0.139385	-12.719960	-17.792522	-14.320493
34010		35.344396	-2.615348	4.557331	31.314552	-9.178063	4.730560	-2.177779	5.891637	3.375460	0.215576	0.462158	-0.826416	0.354956	-0.019748	0.035369	0.976528	-0.136520	-0.106459	-0.128151	-14.284395	-14.058351	-13.182231
34011		35.464326	-5.922224	-3.934765	32.792874	-14.309586	-4.547855	0.153488	5.578285	2.896430	0.259277	0.438477	-0.799561	0.354169	-0.054055	-0.049274	0.980970	-0.133698	-0.077327	-0.117660	-14.377674	-10.554605	-12.344053
34012		32.553679	3.568709	-12.816980	33.571381	-6.748881	-17.804322	2.070259	4.717202	2.272845	0.303711	0.397217	-0.781006	0.321956	0.040736	-0.135388	0.985123	-0.121631	-0.053868	-0.108801	-13.294234	-7.619828	-11.715606
34013		31.598876	17.958009	-19.452887	35.956615	6.241002	-28.979404	2.060034	3.323639	1.889722	0.327148	0.368652	-0.776123	0.310991	0.184561	-0.197841	0.988063	-0.110183	-0.037489	-0.100920	-12.189845	-5.527444	-11.073213
34014		31.046312	24.317201	-22.197805	36.232918	12.560276	-33.839202	0.196734	1.618376	1.527728	0.336426	0.359863	-0.753662	0.306784	0.245745	-0.224230	0.989182	-0.108707	-0.028768	-0.094204	-12.138336	-4.438783	-10.408055
34015		32.088718	16.576994	-20.851328	35.352671	5.542301	-31.230595	-1.236603	-0.073347	1.030882	0.325439	0.357422	-0.747070	0.320108	0.166128	-0.209422	0.988950	-0.115028	-0.028020	-0.089226	-12.894581	-4.355629	-9.818451
34016		30.918279	5.169876	-15.415209	31.945774	-3.847918	-23.412055	-0.610199	-1.315244	0.398363	0.314453	0.352783	-0.738037	0.310085	0.051849	-0.152273	0.988562	-0.118712	-0.034050	-0.086567	-13.279556	-5.041374	-9.421860
34017		21.672119	-8.614534	-13.213945	20.580470	-14.817538	-18.492626	3.170709	-3.727438	-0.871427	0.279541	0.323242	-0.750488	0.218778	-0.085029	-0.129429	0.989123	-0.104495	-0.054385	-0.088080	-11.462150	-7.238159	-9.450034
34018		-4.713665	-3.685375	7.761495	-6.213756	-1.207008	-2.333386	4.257722	-4.798060	-2.387054	0.226807	0.291016	-0.762695	-0.049416	-0.037898	0.075648	0.988409	-0.084875	-0.081237	-0.096152	-8.893536	-10.190033	-10.317938
34019		0.403834	-11.211454	25.762886	-6.451711	-6.791710	16.671988	5.509890	-4.410315	-3.507696	0.185547	0.250244	-0.768311	-0.003645	-0.119135	0.254387	0.986498	-0.058308	-0.107134	-0.109287	-5.394660	-12.951155	-12.030482
34020		5.626670	21.327501	2.072309	9.862064	19.728959	-7.775962	5.280336	-4.017528	-2.573209	0.146484	0.211914	-0.769531	0.058492	0.211866	0.027490	0.983851	-0.033081	-0.130550	-0.117895	-2.038984	-15.348160	-13.391541
34021		3.493124	19.723751	4.555909	6.645779	18.813122	-4.929561	2.085171	-5.505292	0.376087	0.104004	0.204346	-0.762451	0.033252	0.196805	0.048543	0.980392	-0.026328	-0.158771	-0.113713	-0.937391	-18.499918	-13.079355
34022		16.012014	9.343116	17.596310	10.863836	7.320078	12.130233	1.362674	-6.035212	0.928509	0.059814	0.187744	-0.750977	0.154270	0.092933	0.181312	0.975822	-0.023831	-0.188963	-0.107222	-0.369919	-21.956326	-12.469067
34023		26.470296	23.412538	18.068392	21.810951	19.167707	17.241165	0.663356	-5.205120	-0.360181	0.014893	0.189209	-0.741699	0.260289	0.233038	0.188271	0.970446	-0.023064	-0.214723	-0.107687	0.093590	-24.943326	-12.684753
34024		23.175287	2.984990	14.302968	14.788940	-0.347096	13.244579	-0.421805	-4.246943	-0.718447	-0.016602	0.188477	-0.741699	0.228753	0.029333	0.147846	0.965214	-0.026643	-0.235176	-0.111106	0.053319	-27.381395	-13.145875
34025		23.751716	-26.570011	13.607919	8.033605	-29.259857	13.307733	0.621627	-3.149788	-0.340681	-0.036377	0.179199	-0.730225	0.234890	-0.266531	0.138965	0.961269	-0.025017	-0.250769	-0.111579	0.516201	-29.189306	-13.376291
34026		15.847286	-1.803690	6.400950	9.853555	-4.343440	3.581084	2.204355	-2.076798	-0.149510	-0.049316	0.161133	-0.729736	0.157784	-0.018871	0.065445	0.958735	-0.015418	-0.262017	-0.109254	1.839385	-30.383006	-13.501825
34027		7.510803	17.792712	11.379841	4.322233	16.772352	4.416993	1.376073	-1.778756	-0.406323	-0.060303	0.156494	-0.720703	0.074445	0.176984	0.115682	0.956218	-0.009288	-0.271342	-0.109249	2.788448	-31.396172	-13.819550
34028		13.010721	-4.229254	7.842700	5.726284	-6.217053	3.499987	0.851920	-1.330310	-0.409092	-0.073486	0.145264	-0.720459	0.129495	-0.042894	0.079108	0.954184	-0.005411	-0.278225	-0.109979	3.444717	-32.150544	-14.142689
34029		11.062959	6.179910	9.137881	5.480481	4.339035	4.159233	0.993212	-0.844228	-0.415380	-0.077393	0.131836	-0.715576	0.110369	0.061113	0.092150	0.952776	-0.000587	-0.282836	-0.110549	4.181676	-32.621629	-14.460818
34030		7.235988	3.048393	9.355750	1.463223	2.020592	2.143803	0.476409	-0.567446	-0.324353	-0.082275	0.140625	-0.715820	0.072143	0.030144	0.093834	0.951774	0.001803	-0.285851	-0.111413	4.587557	-32.937826	-14.709978
34031		6.979578	1.188835	8.770572	1.112769	0.174389	1.402553	0.506711	-0.384506	-0.253739	-0.083984	0.129395	-0.713379	0.069642	0.011577	0.087869	0.951064	0.004334	-0.287991	-0.111895	4.980966	-33.149531	-14.903634
34032		6.085850	1.495419	8.690514	0.449032	0.611060	0.874853	0.445382	-0.270371	-0.290923	-0.086182	0.127197	-0.715576	0.060762	0.014672	0.087020	0.950483	0.006695	-0.289568	-0.112638	5.351701	-33.295045	-15.118081
34033		6.378583	1.797341	8.326103	0.914105	0.774434	0.761108	0.415353	-0.186318	-0.276408	-0.081543	0.122803	-0.713135	0.063733	0.017712	0.083357	0.950031	0.008936	-0.290709	-0.113352	5.697079	-33.390360	-15.318047
34034		6.015482	1.924934	8.668526	0.432419	0.953578	0.861500	0.317639	-0.114108	-0.217161	-0.083984	0.125000	-0.717773	0.060126	0.019046	0.086750	0.949712	0.010671	-0.291470	-0.113923	5.962893	-33.448990	-15.473724
34035		5.501058	1.961103	9.193804	-0.288248	1.096624	1.020033	0.226749	-0.164954	-0.159366	-0.088379	0.122559	-0.713135	0.054950	0.019463	0.092006	0.949358	0.011858	-0.292406	-0.114354	6.156441	-33.537646	-15.593583
34036		6.010464	1.513850	8.474366	0.403061	0.495340	0.667027	0.152792	-0.202361	-0.117117	-0.090332	0.115967	-0.710938	0.060028	0.015039	0.084816	0.948971	0.012614	-0.293496	-0.114695	6.294463	-33.651813	-15.688254
34037		5.901189	1.573780	8.441502	0.322356	0.566173	0.586123	0.084276	-0.200212	-0.077686	-0.092529	0.118164	-0.713135	0.058933	0.015679	0.084481	0.948618	0.012984	-0.294521	-0.114949	6.377663	-33.765229	-15.755691
34038		5.684312	1.278835	8.475610	0.044851	0.326401	0.467108	0.024844	-0.205287	-0.045289	-0.092773	0.120361	-0.713135	0.056759	0.012765	0.084816	0.948273	0.013026	-0.295555	-0.115137	6.415796	-33.885378	-15.802033
34039		5.498496	0.759702	8.372545	-0.177065	-0.139177	0.230188	-0.017416	-0.225561	-0.056665	-0.097168	0.120361	-0.710938	0.054893	0.007589	0.083787	0.947898	0.012869	-0.296643	-0.115443	6.434228	-34.014488	-15.857405
34040		5.721454	0.828259	8.067503	0.165279	-0.131810	0.110061	-0.057125	-0.224346	-0.073337	-0.092773	0.122559	-0.708740	0.057127	0.008285	0.080737	0.947511	0.012553	-0.297716	-0.115886	6.437319	-34.143616	-15.924739
34041		5.683938	0.901334	8.006608	0.166726	-0.049780	0.046067	-0.068662	-0.172239	-0.082331	-0.099365	0.120117	-0.710938	0.056774	0.009017	0.080112	0.947202	0.012222	-0.298519	-0.116386	6.434291	-34.240710	-15.993825
34042		5.783414	1.024181	7.943578	0.294448	0.047893	0.061939	-0.049520	-0.107165	-0.065737	-0.099365	0.120117	-0.710938	0.057795	0.010242	0.079464	0.946992	0.011999	-0.299042	-0.116774	6.433918	-34.303576	-16.046961
34043		5.851345	1.009515	8.031446	0.289105	0.024690	0.171164	-0.032291	-0.023080	-0.026257	-0.094727	0.118164	-0.710938	0.058506	0.010100	0.080320	0.946935	0.011843	-0.299163	-0.116945	6.423576	-34.319350	-16.065894
34044		5.710741	0.722897	8.117610	0.067125	-0.216351	0.136153	-0.017533	0.034711	-0.007280	-0.097168	0.120361	-0.710938	0.057122	0.007234	0.081166	0.946969	0.011767	-0.299035	-0.117000	6.412636	-34.305164	-16.067731
34045		5.615793	0.770434	8.145178	-0.010060	-0.146752	0.109660	-0.007112	0.048957	-0.005085	-0.097168	0.117920	-0.715332	0.056178	0.007706	0.081438	0.947030	0.011741	-0.298831	-0.117028	6.405346	-34.281281	-16.066485
34046		5.585561	0.748231	8.143082	-0.033558	-0.161947	0.088866	-0.005655	0.052586	-0.010476	-0.097168	0.122559	-0.708740	0.055877	0.007482	0.081416	0.947089	0.011736	-0.298625	-0.117080	6.401647	-34.256677	-16.069129
34047		5.531593	1.030519	8.112764	0.005654	0.122245	0.059620	0.006280	0.049055	-0.014595	-0.094971	0.120361	-0.708740	0.055337	0.010299	0.081114	0.947144	0.011787	-0.298428	-0.117133	6.405715	-34.232131	-16.074429
34048		5.548211	1.083817	8.135363	0.020515	0.170260	0.092464	-0.002747	0.034822	-0.008242	-0.099609	0.122314	-0.713135	0.055497	0.010837	0.081344	0.947177	0.011782	-0.298308	-0.117171	6.403566	-34.217745	-16.076895
34049		5.441551	1.245967	8.201501	-0.065481	0.356204	0.101765	-0.018921	0.002705	-0.004649	-0.099365	0.120117	-0.710938	0.054417	0.012466	0.082013	0.947170	0.011673	-0.298316	-0.117218	6.391355	-34.220225	-16.078926
34050		5.533747	0.998410	8.100240	0.010097	0.092423	0.047557	-0.035898	-0.037697	-0.004559	-0.103760	0.117920	-0.710693	0.055322	0.009997	0.081011	0.947099	0.011462	-0.298519	-0.117292	6.371927	-34.247326	-16.084450
